rt,stimulus,button_pressed,choices,ChosenStimulus,trial_type,trial_index,time_elapsed,internal_node_id,subject_id,study_id,session_id,subject,list,ppt_gender,url,key_press,sentence_type,verb,test_part,responses,question_order,left_part,right_part
1455,Welcome to the experiment. Press Continue to begin.,0,Continue,Continue,html-button-response,0,1457,0.0-0.0,anomymised,6565831db6b8903cc398def3,6567677d47a99a86629bc329,41757,2C,woman,NA,NA,NA,NA,NA,NA,NA,NA,NA
5146,NA,NA,NA,NA,external-html,1,7640,0.0-1.0,anomymised,6565831db6b8903cc398def3,6567677d47a99a86629bc329,41757,2C,woman,consent.html,NA,NA,NA,NA,NA,NA,NA,NA
7180.800000000745,"<p>Welcome.</p><p>In this experiment we will ask you to imagine some situations.</p><p>Each trial starts with a description of an event.</p><p>Then you will see alternative descriptions of that event, and you will rate on a scale how best they match the original description.</p><p>You will give your answer by clicking a button on a rating scale.</p><p>To do this task, you will have to use your imagination to visualise these events.</p><br><p>Ready?</p>",0,Continue,Continue,html-button-response,2,14822,0.0-2.0,anomymised,6565831db6b8903cc398def3,6567677d47a99a86629bc329,41757,2C,woman,NA,NA,NA,NA,NA,NA,NA,NA,NA
1930.699999999255,"<p>Before the experiment starts, you will watch an example trial. Press 'Continue'.</p>",0,Continue,Continue,html-button-response,3,17762,0.0-3.0,anomymised,6565831db6b8903cc398def3,6567677d47a99a86629bc329,41757,2C,woman,NA,NA,NA,NA,NA,NA,NA,NA,NA
null,The police officer is arresting the robber,NA,NA,NA,html-keyboard-response,4,20768,0.0-4.0,anomymised,6565831db6b8903cc398def3,6567677d47a99a86629bc329,41757,2C,woman,NA,null,NA,NA,NA,NA,NA,NA,NA
17324.599999997765,<img src='img/Example-trial.jpg' style='height:550px;''></img>,0,Continue,Continue,html-button-response,5,38094,0.0-5.0,anomymised,6565831db6b8903cc398def3,6567677d47a99a86629bc329,41757,2C,woman,NA,NA,NA,NA,NA,NA,NA,NA,NA
1195.1000000014901,<p>Ready to start the experiment?</p><br><p><strong>Remember to give an answer by clicking a button on the rating scale.</strong></p><p>Press 'Continue' to begin.</p>,0,Continue,Continue,html-button-response,6,40302,0.0-6.0,anomymised,6565831db6b8903cc398def3,6567677d47a99a86629bc329,41757,2C,woman,NA,NA,NA,NA,NA,NA,NA,NA,NA
null,Kate is being greeted by Ruth,NA,NA,NA,html-keyboard-response,7,43307,0.0-7.0-0.0,anomymised,6565831db6b8903cc398def3,6567677d47a99a86629bc329,41757,2C,woman,NA,null,W2 is being greeted by W4,greet1,sentence,NA,NA,NA,NA
14554.60000000149,NA,NA,NA,NA,survey-likert-extra-labels,8,57864,0.0-7.0-2.0,anomymised,6565831db6b8903cc398def3,6567677d47a99a86629bc329,41757,2C,woman,NA,NA,W2 is being greeted by W4,greet1,rating_volition,"{""Q0"":6}",[0],W2 wanted to greet W4,W4 wanted to greet W2
5337.199999999255,NA,NA,NA,NA,survey-likert-extra-labels,9,63205,0.0-7.0-3.0-0.0,anomymised,6565831db6b8903cc398def3,6567677d47a99a86629bc329,41757,2C,woman,NA,NA,W2 is being greeted by W4,greet1,rating_causation,"{""Q0"":6}",[0],W2 started greeting W4 first,W4 started greeting W2 first
null,Beth is being touched by Luke,NA,NA,NA,html-keyboard-response,10,65214,0.0-8.0-0.0,anomymised,6565831db6b8903cc398def3,6567677d47a99a86629bc329,41757,2C,woman,NA,null,W1 is being touched by M3,touch4,sentence,NA,NA,NA,NA
3709.10000000149,NA,NA,NA,NA,survey-likert-extra-labels,11,68924,0.0-8.0-2.0,anomymised,6565831db6b8903cc398def3,6567677d47a99a86629bc329,41757,2C,woman,NA,NA,W1 is being touched by M3,touch4,rating_volition,"{""Q0"":0}",[0],M3 wanted to touch W1,W1 wanted to touch M3
7356.699999999255,NA,NA,NA,NA,survey-likert-extra-labels,12,76282,0.0-8.0-3.0-0.0,anomymised,6565831db6b8903cc398def3,6567677d47a99a86629bc329,41757,2C,woman,NA,NA,W1 is being touched by M3,touch4,rating_causation,"{""Q0"":0}",[0],M3 asked to touch W1,W1 asked to touch M3
null,Beth is being kissed by Jane,NA,NA,NA,html-keyboard-response,13,78287,0.0-9.0-0.0,anomymised,6565831db6b8903cc398def3,6567677d47a99a86629bc329,41757,2C,woman,NA,null,W1 is being kissed by W3,kiss1,sentence,NA,NA,NA,NA
4748.900000002235,NA,NA,NA,NA,survey-likert-extra-labels,14,83036,0.0-9.0-2.0,anomymised,6565831db6b8903cc398def3,6567677d47a99a86629bc329,41757,2C,woman,NA,NA,W1 is being kissed by W3,kiss1,rating_volition,"{""Q0"":6}",[0],W1 wanted to kiss W3,W3 wanted to kiss W1
5910.300000000745,NA,NA,NA,NA,survey-likert-extra-labels,15,88948,0.0-9.0-3.0-0.0,anomymised,6565831db6b8903cc398def3,6567677d47a99a86629bc329,41757,2C,woman,NA,NA,W1 is being kissed by W3,kiss1,rating_causation,"{""Q0"":6}",[0],W1 asked to kiss W3,W3 asked to kiss W1
null,Beth is being seduced by Luke,NA,NA,NA,html-keyboard-response,16,90955,0.0-10.0-0.0,anomymised,6565831db6b8903cc398def3,6567677d47a99a86629bc329,41757,2C,woman,NA,null,W1 is being seduced by M3,seduce4,sentence,NA,NA,NA,NA
7129.60000000149,NA,NA,NA,NA,survey-likert-extra-labels,17,98086,0.0-10.0-1.0-0.0,anomymised,6565831db6b8903cc398def3,6567677d47a99a86629bc329,41757,2C,woman,NA,NA,W1 is being seduced by M3,seduce4,rating_causation,"{""Q0"":0}",[0],M3 started seducing W1 first,W1 started seducing M3 first
2752,NA,NA,NA,NA,survey-likert-extra-labels,18,100840,0.0-10.0-2.0,anomymised,6565831db6b8903cc398def3,6567677d47a99a86629bc329,41757,2C,woman,NA,NA,W1 is being seduced by M3,seduce4,rating_volition,"{""Q0"":0}",[0],M3 wanted to seducing W1,W1 wanted to seducing M3
null,Dave is reminding Ruth,NA,NA,NA,html-keyboard-response,19,102852,0.0-11.0-0.0,anomymised,6565831db6b8903cc398def3,6567677d47a99a86629bc329,41757,2C,woman,NA,null,M2 is reminding W4,remind,sentence,NA,NA,NA,NA
5634.800000000745,NA,NA,NA,NA,survey-likert-extra-labels,20,108488,0.0-11.0-2.0,anomymised,6565831db6b8903cc398def3,6567677d47a99a86629bc329,41757,2C,woman,NA,NA,M2 is reminding W4,remind,rating_volition,"{""Q0"":0}",[0],M2 is telling W4 again,W4 is telling M2 again
3565.2000000029802,NA,NA,NA,NA,survey-likert-extra-labels,21,112054,0.0-11.0-3.0-0.0,anomymised,6565831db6b8903cc398def3,6567677d47a99a86629bc329,41757,2C,woman,NA,NA,M2 is reminding W4,remind,rating_causation,"{""Q0"":6}",[0],M2 is remembering,W4 is remembering
null,Ruth is being seduced by Kate,NA,NA,NA,html-keyboard-response,22,114058,0.0-12.0-0.0,anomymised,6565831db6b8903cc398def3,6567677d47a99a86629bc329,41757,2C,woman,NA,null,W4 is being seduced by W2,seduce1,sentence,NA,NA,NA,NA
4694.699999999255,NA,NA,NA,NA,survey-likert-extra-labels,23,118755,0.0-12.0-1.0-0.0,anomymised,6565831db6b8903cc398def3,6567677d47a99a86629bc329,41757,2C,woman,NA,NA,W4 is being seduced by W2,seduce1,rating_causation,"{""Q0"":0}",[0],W2 started seducing W4 first,W4 started seducing W2 first
2611.099999997765,NA,NA,NA,NA,survey-likert-extra-labels,24,121367,0.0-12.0-2.0,anomymised,6565831db6b8903cc398def3,6567677d47a99a86629bc329,41757,2C,woman,NA,NA,W4 is being seduced by W2,seduce1,rating_volition,"{""Q0"":0}",[0],W2 wanted to seduce W4,W4 wanted to seduce W2
null,Mike is being opposed by Kate,NA,NA,NA,html-keyboard-response,25,123384,0.0-13.0-0.0,anomymised,6565831db6b8903cc398def3,6567677d47a99a86629bc329,41757,2C,woman,NA,null,M4 is being opposed by W2,oppose3,sentence,NA,NA,NA,NA
5613.10000000149,NA,NA,NA,NA,survey-likert-extra-labels,26,128999,0.0-13.0-2.0,anomymised,6565831db6b8903cc398def3,6567677d47a99a86629bc329,41757,2C,woman,NA,NA,M4 is being opposed by W2,oppose3,rating_volition,"{""Q0"":6}",[0],W2 wanted to oppose M4,M4 wanted to oppose W2
4582.300000000745,NA,NA,NA,NA,survey-likert-extra-labels,27,133583,0.0-13.0-3.0-0.0,anomymised,6565831db6b8903cc398def3,6567677d47a99a86629bc329,41757,2C,woman,NA,NA,M4 is being opposed by W2,oppose3,rating_causation,"{""Q0"":0}",[0],W2 started opposing M4,M4 started opposing W2
null,Jane is being hugged by Beth,NA,NA,NA,html-keyboard-response,28,135587,0.0-14.0-0.0,anomymised,6565831db6b8903cc398def3,6567677d47a99a86629bc329,41757,2C,woman,NA,null,W3 is being hugged by W1,hug1,sentence,NA,NA,NA,NA
12454,NA,NA,NA,NA,survey-likert-extra-labels,29,148043,0.0-14.0-1.0-0.0,anomymised,6565831db6b8903cc398def3,6567677d47a99a86629bc329,41757,2C,woman,NA,NA,W3 is being hugged by W1,hug1,rating_causation,"{""Q0"":0}",[0],W1 asked to hug W3,W3 asked to hug W1
6354.39999999851,NA,NA,NA,NA,survey-likert-extra-labels,30,154398,0.0-14.0-2.0,anomymised,6565831db6b8903cc398def3,6567677d47a99a86629bc329,41757,2C,woman,NA,NA,W3 is being hugged by W1,hug1,rating_volition,"{""Q0"":0}",[0],W1 wanted to hug W3,W3 wanted to hug W1
null,Jane is being greeted by Fred,NA,NA,NA,html-keyboard-response,31,156409,0.0-15.0-0.0,anomymised,6565831db6b8903cc398def3,6567677d47a99a86629bc329,41757,2C,woman,NA,null,W3 is being greeted by M1,greet4,sentence,NA,NA,NA,NA
3646.400000002235,NA,NA,NA,NA,survey-likert-extra-labels,32,160057,0.0-15.0-1.0-0.0,anomymised,6565831db6b8903cc398def3,6567677d47a99a86629bc329,41757,2C,woman,NA,NA,W3 is being greeted by M1,greet4,rating_causation,"{""Q0"":6}",[0],W3 started greeting M1 first,M1 started greeting W3 first
1159,NA,NA,NA,NA,survey-likert-extra-labels,33,161217,0.0-15.0-2.0,anomymised,6565831db6b8903cc398def3,6567677d47a99a86629bc329,41757,2C,woman,NA,NA,W3 is being greeted by M1,greet4,rating_volition,"{""Q0"":3}",[0],W3 wanted to greet M1,M1 wanted to greet W3
null,Ruth is being touched by Kate,NA,NA,NA,html-keyboard-response,34,163231,0.0-16.0-0.0,anomymised,6565831db6b8903cc398def3,6567677d47a99a86629bc329,41757,2C,woman,NA,null,W4 is being touched by W2,touch1,sentence,NA,NA,NA,NA
2825.800000000745,NA,NA,NA,NA,survey-likert-extra-labels,35,166059,0.0-16.0-2.0,anomymised,6565831db6b8903cc398def3,6567677d47a99a86629bc329,41757,2C,woman,NA,NA,W4 is being touched by W2,touch1,rating_volition,"{""Q0"":0}",[0],W2 wanted to touch W4,W4 wanted to touch W2
2143.199999999255,NA,NA,NA,NA,survey-likert-extra-labels,36,168203,0.0-16.0-3.0-0.0,anomymised,6565831db6b8903cc398def3,6567677d47a99a86629bc329,41757,2C,woman,NA,NA,W4 is being touched by W2,touch1,rating_causation,"{""Q0"":3}",[0],W2 asked to touch W4,W4 asked to touch W2
null,Fred is being touched by Jane,NA,NA,NA,html-keyboard-response,37,170215,0.0-17.0-0.0,anomymised,6565831db6b8903cc398def3,6567677d47a99a86629bc329,41757,2C,woman,NA,null,M1 is being touched by W3,touch3,sentence,NA,NA,NA,NA
3630.300000000745,NA,NA,NA,NA,survey-likert-extra-labels,38,173847,0.0-17.0-2.0,anomymised,6565831db6b8903cc398def3,6567677d47a99a86629bc329,41757,2C,woman,NA,NA,M1 is being touched by W3,touch3,rating_volition,"{""Q0"":0}",[0],W3 wanted to touch M1,M1 wanted to touch W3
5851.300000000745,NA,NA,NA,NA,survey-likert-extra-labels,39,179700,0.0-17.0-3.0-0.0,anomymised,6565831db6b8903cc398def3,6567677d47a99a86629bc329,41757,2C,woman,NA,NA,M1 is being touched by W3,touch3,rating_causation,"{""Q0"":4}",[0],W3 asked to touch M1,M1 asked to touch W3
null,Jane is being copied by Fred,NA,NA,NA,html-keyboard-response,40,181714,0.0-18.0-0.0,anomymised,6565831db6b8903cc398def3,6567677d47a99a86629bc329,41757,2C,woman,NA,null,W3 is being copied by M1,copy3,sentence,NA,NA,NA,NA
4076.199999999255,NA,NA,NA,NA,survey-likert-extra-labels,41,185791,0.0-18.0-1.0-0.0,anomymised,6565831db6b8903cc398def3,6567677d47a99a86629bc329,41757,2C,woman,NA,NA,W3 is being copied by M1,copy3,rating_causation,"{""Q0"":6}",[0],W3 started copying M1 first,M1 started copying W3 first
3374.900000002235,NA,NA,NA,NA,survey-likert-extra-labels,42,189168,0.0-18.0-2.0,anomymised,6565831db6b8903cc398def3,6567677d47a99a86629bc329,41757,2C,woman,NA,NA,W3 is being copied by M1,copy3,rating_volition,"{""Q0"":6}",[0],W3 wanted to copy M1,M1 wanted to copy W3
null,Beth is being looked at by Jane,NA,NA,NA,html-keyboard-response,43,191176,0.0-19.0-0.0,anomymised,6565831db6b8903cc398def3,6567677d47a99a86629bc329,41757,2C,woman,NA,null,W1 is being looked at by W3,look1,sentence,NA,NA,NA,NA
1822.5,NA,NA,NA,NA,survey-likert-extra-labels,44,192999,0.0-19.0-2.0,anomymised,6565831db6b8903cc398def3,6567677d47a99a86629bc329,41757,2C,woman,NA,NA,W1 is being looked at by W3,look1,rating_volition,"{""Q0"":6}",[0],W1 wanted to look at W3,W3 wanted to look at W1
1507.0999999977648,NA,NA,NA,NA,survey-likert-extra-labels,45,194507,0.0-19.0-3.0-0.0,anomymised,6565831db6b8903cc398def3,6567677d47a99a86629bc329,41757,2C,woman,NA,NA,W1 is being looked at by W3,look1,rating_causation,"{""Q0"":6}",[0],W1 looked at W3 first,W3 looked at W1 first
null,Fred is driving Luke,NA,NA,NA,html-keyboard-response,46,196516,0.0-20.0-0.0,anomymised,6565831db6b8903cc398def3,6567677d47a99a86629bc329,41757,2C,woman,NA,null,M1 is driving M3,drive,sentence,NA,NA,NA,NA
6625.89999999851,NA,NA,NA,NA,survey-likert-extra-labels,47,203144,0.0-20.0-1.0-0.0,anomymised,6565831db6b8903cc398def3,6567677d47a99a86629bc329,41757,2C,woman,NA,NA,M1 is driving M3,drive,rating_causation,"{""Q0"":0}",[0],M1 is taking M3 somewhere,M3 is taking M1 somewhere
13994.800000000745,NA,NA,NA,NA,survey-likert-extra-labels,48,217139,0.0-20.0-2.0,anomymised,6565831db6b8903cc398def3,6567677d47a99a86629bc329,41757,2C,woman,NA,NA,M1 is driving M3,drive,rating_volition,"{""Q0"":6}",[0],M1 is M3's passenger,M3 is M1's passenger
null,Beth is chasing Jane,NA,NA,NA,html-keyboard-response,49,219148,0.0-21.0-0.0,anomymised,6565831db6b8903cc398def3,6567677d47a99a86629bc329,41757,2C,woman,NA,null,W1 is chasing W3,chase,sentence,NA,NA,NA,NA
3537.5,NA,NA,NA,NA,survey-likert-extra-labels,50,222687,0.0-21.0-2.0,anomymised,6565831db6b8903cc398def3,6567677d47a99a86629bc329,41757,2C,woman,NA,NA,W1 is chasing W3,chase,rating_volition,"{""Q0"":0}",[0],W1 is behind W3,W3 is behind W1
4155.300000000745,NA,NA,NA,NA,survey-likert-extra-labels,51,226843,0.0-21.0-3.0-0.0,anomymised,6565831db6b8903cc398def3,6567677d47a99a86629bc329,41757,2C,woman,NA,NA,W1 is chasing W3,chase,rating_causation,"{""Q0"":6}",[0],W1 is running away from W3,W3 is running away from W1
null,Mike is being challenged by Dave,NA,NA,NA,html-keyboard-response,52,228851,0.0-22.0-0.0,anomymised,6565831db6b8903cc398def3,6567677d47a99a86629bc329,41757,2C,woman,NA,null,M4 is being challenged by M2,challenge2,sentence,NA,NA,NA,NA
10505.79999999702,NA,NA,NA,NA,survey-likert-extra-labels,53,239359,0.0-22.0-2.0,anomymised,6565831db6b8903cc398def3,6567677d47a99a86629bc329,41757,2C,woman,NA,NA,M4 is being challenged by M2,challenge2,rating_volition,"{""Q0"":0}",[0],M2 wanted to challenge M4,M4 wanted to challenge M2
4566.699999999255,NA,NA,NA,NA,survey-likert-extra-labels,54,243927,0.0-22.0-3.0-0.0,anomymised,6565831db6b8903cc398def3,6567677d47a99a86629bc329,41757,2C,woman,NA,NA,M4 is being challenged by M2,challenge2,rating_causation,"{""Q0"":0}",[0],M2 started challenging M4 first,M4 started challenging M2 first
null,Mike is being seduced by Dave,NA,NA,NA,html-keyboard-response,55,245935,0.0-23.0-0.0,anomymised,6565831db6b8903cc398def3,6567677d47a99a86629bc329,41757,2C,woman,NA,null,M4 is being seduced by M2,seduce2,sentence,NA,NA,NA,NA
2377.89999999851,NA,NA,NA,NA,survey-likert-extra-labels,56,248315,0.0-23.0-1.0-0.0,anomymised,6565831db6b8903cc398def3,6567677d47a99a86629bc329,41757,2C,woman,NA,NA,M4 is being seduced by M2,seduce2,rating_causation,"{""Q0"":0}",[0],M2 started seducing M4 first,M4 started seducing M2 first
4791.10000000149,NA,NA,NA,NA,survey-likert-extra-labels,57,253107,0.0-23.0-2.0,anomymised,6565831db6b8903cc398def3,6567677d47a99a86629bc329,41757,2C,woman,NA,NA,M4 is being seduced by M2,seduce2,rating_volition,"{""Q0"":6}",[0],M2 wanted to seduce M4,M4 wanted to seduce M2
null,Jane is being opposed by Beth,NA,NA,NA,html-keyboard-response,58,255109,0.0-24.0-0.0,anomymised,6565831db6b8903cc398def3,6567677d47a99a86629bc329,41757,2C,woman,NA,null,W3 is being opposed by W1,oppose1,sentence,NA,NA,NA,NA
2102.89999999851,NA,NA,NA,NA,survey-likert-extra-labels,59,257213,0.0-24.0-2.0,anomymised,6565831db6b8903cc398def3,6567677d47a99a86629bc329,41757,2C,woman,NA,NA,W3 is being opposed by W1,oppose1,rating_volition,"{""Q0"":0}",[0],W1 wanted to oppose W3,W3 wanted to oppose W1
1553.300000000745,NA,NA,NA,NA,survey-likert-extra-labels,60,258767,0.0-24.0-3.0-0.0,anomymised,6565831db6b8903cc398def3,6567677d47a99a86629bc329,41757,2C,woman,NA,NA,W3 is being opposed by W1,oppose1,rating_causation,"{""Q0"":0}",[0],W1 started opposing W3,W3 started opposing W1
null,Dave is being greeted by Mike,NA,NA,NA,html-keyboard-response,61,260772,0.0-25.0-0.0,anomymised,6565831db6b8903cc398def3,6567677d47a99a86629bc329,41757,2C,woman,NA,null,M2 is being greeted by M4,greet2,sentence,NA,NA,NA,NA
4298.400000002235,NA,NA,NA,NA,survey-likert-extra-labels,62,265071,0.0-25.0-2.0,anomymised,6565831db6b8903cc398def3,6567677d47a99a86629bc329,41757,2C,woman,NA,NA,M2 is being greeted by M4,greet2,rating_volition,"{""Q0"":6}",[0],M2 wanted to greet M4,M4 wanted to greet M2
1520.5,NA,NA,NA,NA,survey-likert-extra-labels,63,266593,0.0-25.0-3.0-0.0,anomymised,6565831db6b8903cc398def3,6567677d47a99a86629bc329,41757,2C,woman,NA,NA,M2 is being greeted by M4,greet2,rating_causation,"{""Q0"":6}",[0],M2 started greeting M4 first,M4 started greeting M2 first
null,Ruth is being shouted at by Dave,NA,NA,NA,html-keyboard-response,64,268600,0.0-26.0-0.0,anomymised,6565831db6b8903cc398def3,6567677d47a99a86629bc329,41757,2C,woman,NA,null,W4 is being shouted at by M2,shout3,sentence,NA,NA,NA,NA
2983.400000002235,NA,NA,NA,NA,survey-likert-extra-labels,65,271585,0.0-26.0-2.0,anomymised,6565831db6b8903cc398def3,6567677d47a99a86629bc329,41757,2C,woman,NA,NA,W4 is being shouted at by M2,shout3,rating_volition,"{""Q0"":0}",[0],M2 wanted to shout at W4,W4 wanted to shout at M2
2329,NA,NA,NA,NA,survey-likert-extra-labels,66,273915,0.0-26.0-3.0-0.0,anomymised,6565831db6b8903cc398def3,6567677d47a99a86629bc329,41757,2C,woman,NA,NA,W4 is being shouted at by M2,shout3,rating_causation,"{""Q0"":0}",[0],M2 shouted at W4 first,W4 shouted at M2 first
null,Kate is being copied by Ruth,NA,NA,NA,html-keyboard-response,67,275919,0.0-27.0-0.0,anomymised,6565831db6b8903cc398def3,6567677d47a99a86629bc329,41757,2C,woman,NA,null,W2 is being copied by W4,copy1,sentence,NA,NA,NA,NA
1716.7000000029802,NA,NA,NA,NA,survey-likert-extra-labels,68,277637,0.0-27.0-2.0,anomymised,6565831db6b8903cc398def3,6567677d47a99a86629bc329,41757,2C,woman,NA,NA,W2 is being copied by W4,copy1,rating_volition,"{""Q0"":6}",[0],W2 wanted to copy W4,W4 wanted to copy W2
2103.300000000745,NA,NA,NA,NA,survey-likert-extra-labels,69,279741,0.0-27.0-3.0-0.0,anomymised,6565831db6b8903cc398def3,6567677d47a99a86629bc329,41757,2C,woman,NA,NA,W2 is being copied by W4,copy1,rating_causation,"{""Q0"":6}",[0],W2 started copying W4 first,W4 started copying W2 first
null,Dave is being looked at by Ruth,NA,NA,NA,html-keyboard-response,70,281749,0.0-28.0-0.0,anomymised,6565831db6b8903cc398def3,6567677d47a99a86629bc329,41757,2C,woman,NA,null,M2 is being looked at by W4,look4,sentence,NA,NA,NA,NA
2341.900000002235,NA,NA,NA,NA,survey-likert-extra-labels,71,284093,0.0-28.0-2.0,anomymised,6565831db6b8903cc398def3,6567677d47a99a86629bc329,41757,2C,woman,NA,NA,M2 is being looked at by W4,look4,rating_volition,"{""Q0"":6}",[0],M2 wanted to look at W4,W4 wanted to look at M2
1549.5,NA,NA,NA,NA,survey-likert-extra-labels,72,285643,0.0-28.0-3.0-0.0,anomymised,6565831db6b8903cc398def3,6567677d47a99a86629bc329,41757,2C,woman,NA,NA,M2 is being looked at by W4,look4,rating_causation,"{""Q0"":6}",[0],M2 looked at W4 first,W4 looked at M2 first
null,Dave is being copied by Mike,NA,NA,NA,html-keyboard-response,73,287659,0.0-29.0-0.0,anomymised,6565831db6b8903cc398def3,6567677d47a99a86629bc329,41757,2C,woman,NA,null,M2 is being copied by M4,copy2,sentence,NA,NA,NA,NA
10318.39999999851,NA,NA,NA,NA,survey-likert-extra-labels,74,297979,0.0-29.0-2.0,anomymised,6565831db6b8903cc398def3,6567677d47a99a86629bc329,41757,2C,woman,NA,NA,M2 is being copied by M4,copy2,rating_volition,"{""Q0"":6}",[0],M2 wanted to copy M4,M4 wanted to copy M2
2789.199999999255,NA,NA,NA,NA,survey-likert-extra-labels,75,300770,0.0-29.0-3.0-0.0,anomymised,6565831db6b8903cc398def3,6567677d47a99a86629bc329,41757,2C,woman,NA,NA,M2 is being copied by M4,copy2,rating_causation,"{""Q0"":6}",[0],M2 started copying M4 first,M4 started copying M2 first
null,Kate is being looked at by Mike,NA,NA,NA,html-keyboard-response,76,302771,0.0-30.0-0.0,anomymised,6565831db6b8903cc398def3,6567677d47a99a86629bc329,41757,2C,woman,NA,null,W2 is being looked at by M4,look3,sentence,NA,NA,NA,NA
2373.60000000149,NA,NA,NA,NA,survey-likert-extra-labels,77,305145,0.0-30.0-1.0-0.0,anomymised,6565831db6b8903cc398def3,6567677d47a99a86629bc329,41757,2C,woman,NA,NA,W2 is being looked at by M4,look3,rating_causation,"{""Q0"":6}",[0],W2 looked at M4 first,M4 looked at W2 first
2047.699999999255,NA,NA,NA,NA,survey-likert-extra-labels,78,307194,0.0-30.0-2.0,anomymised,6565831db6b8903cc398def3,6567677d47a99a86629bc329,41757,2C,woman,NA,NA,W2 is being looked at by M4,look3,rating_volition,"{""Q0"":6}",[0],W2 wanted to look at M4,M4 wanted to look at W2
null,Luke is being greeted by Beth,NA,NA,NA,html-keyboard-response,79,309196,0.0-31.0-0.0,anomymised,6565831db6b8903cc398def3,6567677d47a99a86629bc329,41757,2C,woman,NA,null,M3 is being greeted by W1,greet3,sentence,NA,NA,NA,NA
2385,NA,NA,NA,NA,survey-likert-extra-labels,80,311582,0.0-31.0-2.0,anomymised,6565831db6b8903cc398def3,6567677d47a99a86629bc329,41757,2C,woman,NA,NA,M3 is being greeted by W1,greet3,rating_volition,"{""Q0"":6}",[0],M3 wanted to greet W1,W1 wanted to greet M3
2230.800000000745,NA,NA,NA,NA,survey-likert-extra-labels,81,313813,0.0-31.0-3.0-0.0,anomymised,6565831db6b8903cc398def3,6567677d47a99a86629bc329,41757,2C,woman,NA,NA,M3 is being greeted by W1,greet3,rating_causation,"{""Q0"":6}",[0],M3 started greeting W1 first,W1 started greeting M3 first
null,Jane is being shouted at by Beth,NA,NA,NA,html-keyboard-response,82,315814,0.0-32.0-0.0,anomymised,6565831db6b8903cc398def3,6567677d47a99a86629bc329,41757,2C,woman,NA,null,W3 is being shouted at by W1,shout1,sentence,NA,NA,NA,NA
1882,NA,NA,NA,NA,survey-likert-extra-labels,83,317698,0.0-32.0-1.0-0.0,anomymised,6565831db6b8903cc398def3,6567677d47a99a86629bc329,41757,2C,woman,NA,NA,W3 is being shouted at by W1,shout1,rating_causation,"{""Q0"":0}",[0],W1 shouted at W3 first,W3 shouted at W1 first
1364.800000000745,NA,NA,NA,NA,survey-likert-extra-labels,84,319063,0.0-32.0-2.0,anomymised,6565831db6b8903cc398def3,6567677d47a99a86629bc329,41757,2C,woman,NA,NA,W3 is being shouted at by W1,shout1,rating_volition,"{""Q0"":0}",[0],W1 wanted to shout at W3,W3 wanted to shout at W1
null,Mike is being hugged by Kate,NA,NA,NA,html-keyboard-response,85,321069,0.0-33.0-0.0,anomymised,6565831db6b8903cc398def3,6567677d47a99a86629bc329,41757,2C,woman,NA,null,M4 is being hugged by W2,hug3,sentence,NA,NA,NA,NA
4910,NA,NA,NA,NA,survey-likert-extra-labels,86,325980,0.0-33.0-1.0-0.0,anomymised,6565831db6b8903cc398def3,6567677d47a99a86629bc329,41757,2C,woman,NA,NA,M4 is being hugged by W2,hug3,rating_causation,"{""Q0"":0}",[0],W2 asked to hug M4,M4 asked to hug W2
1926.699999999255,NA,NA,NA,NA,survey-likert-extra-labels,87,327907,0.0-33.0-2.0,anomymised,6565831db6b8903cc398def3,6567677d47a99a86629bc329,41757,2C,woman,NA,NA,M4 is being hugged by W2,hug3,rating_volition,"{""Q0"":0}",[0],W2 wanted to hug M4,M4 wanted to hug W2
null,Dave is being kissed by Ruth,NA,NA,NA,html-keyboard-response,88,329922,0.0-34.0-0.0,anomymised,6565831db6b8903cc398def3,6567677d47a99a86629bc329,41757,2C,woman,NA,null,M2 is being kissed by W4,kiss3,sentence,NA,NA,NA,NA
2244.199999999255,NA,NA,NA,NA,survey-likert-extra-labels,89,332167,0.0-34.0-1.0-0.0,anomymised,6565831db6b8903cc398def3,6567677d47a99a86629bc329,41757,2C,woman,NA,NA,M2 is being kissed by W4,kiss3,rating_causation,"{""Q0"":6}",[0],M2 asked to kiss W4,W4 asked to kiss M2
2982.800000000745,NA,NA,NA,NA,survey-likert-extra-labels,90,335151,0.0-34.0-2.0,anomymised,6565831db6b8903cc398def3,6567677d47a99a86629bc329,41757,2C,woman,NA,NA,M2 is being kissed by W4,kiss3,rating_volition,"{""Q0"":6}",[0],M2 wanted to kiss W4,W4 wanted to kiss M2
null,Dave is posing for Mike,NA,NA,NA,html-keyboard-response,91,337160,0.0-35.0-0.0,anomymised,6565831db6b8903cc398def3,6567677d47a99a86629bc329,41757,2C,woman,NA,null,M2 is posing for M4,pose,sentence,NA,NA,NA,NA
2762.10000000149,NA,NA,NA,NA,survey-likert-extra-labels,92,339923,0.0-35.0-2.0,anomymised,6565831db6b8903cc398def3,6567677d47a99a86629bc329,41757,2C,woman,NA,NA,M2 is posing for M4,pose,rating_volition,"{""Q0"":6}",[0],M2 is modelling for M4,M4 is modelling for M2
2601,NA,NA,NA,NA,survey-likert-extra-labels,93,342525,0.0-35.0-3.0-0.0,anomymised,6565831db6b8903cc398def3,6567677d47a99a86629bc329,41757,2C,woman,NA,NA,M2 is posing for M4,pose,rating_causation,"{""Q0"":6}",[0],M2 is photographing M4,M4 is photographing M2
null,Ruth is being challenged by Kate,NA,NA,NA,html-keyboard-response,94,344540,0.0-36.0-0.0,anomymised,6565831db6b8903cc398def3,6567677d47a99a86629bc329,41757,2C,woman,NA,null,W4 is being challenged by W2,challenge1,sentence,NA,NA,NA,NA
2044.7000000029802,NA,NA,NA,NA,survey-likert-extra-labels,95,346586,0.0-36.0-2.0,anomymised,6565831db6b8903cc398def3,6567677d47a99a86629bc329,41757,2C,woman,NA,NA,W4 is being challenged by W2,challenge1,rating_volition,"{""Q0"":0}",[0],W2 wanted to challenge W4,W4 wanted to challenge W2
1940.5,NA,NA,NA,NA,survey-likert-extra-labels,96,348527,0.0-36.0-3.0-0.0,anomymised,6565831db6b8903cc398def3,6567677d47a99a86629bc329,41757,2C,woman,NA,NA,W4 is being challenged by W2,challenge1,rating_causation,"{""Q0"":0}",[0],W2 started challenging W4 first,W4 started challenging W2 first
null,Jane is feeding Fred,NA,NA,NA,html-keyboard-response,97,350529,0.0-37.0-0.0,anomymised,6565831db6b8903cc398def3,6567677d47a99a86629bc329,41757,2C,woman,NA,null,W3 is feeding M1,feed,sentence,NA,NA,NA,NA
4135.199999999255,NA,NA,NA,NA,survey-likert-extra-labels,98,354665,0.0-37.0-2.0,anomymised,6565831db6b8903cc398def3,6567677d47a99a86629bc329,41757,2C,woman,NA,NA,W3 is feeding M1,feed,rating_volition,"{""Q0"":0}",[0],W3 cooked for M1,M1 cooked for W3
1977.1000000014901,NA,NA,NA,NA,survey-likert-extra-labels,99,356643,0.0-37.0-3.0-0.0,anomymised,6565831db6b8903cc398def3,6567677d47a99a86629bc329,41757,2C,woman,NA,NA,W3 is feeding M1,feed,rating_causation,"{""Q0"":0}",[0],W3 is eating M1's food,M1 is eating W3's food
null,Luke is being hugged by Fred,NA,NA,NA,html-keyboard-response,100,358657,0.0-38.0-0.0,anomymised,6565831db6b8903cc398def3,6567677d47a99a86629bc329,41757,2C,woman,NA,null,M3 is being hugged by M1,hug2,sentence,NA,NA,NA,NA
2109.900000002235,NA,NA,NA,NA,survey-likert-extra-labels,101,360768,0.0-38.0-2.0,anomymised,6565831db6b8903cc398def3,6567677d47a99a86629bc329,41757,2C,woman,NA,NA,M3 is being hugged by M1,hug2,rating_volition,"{""Q0"":0}",[0],M1 wanted to hug M3,M3 wanted to hug M1
1487.199999999255,NA,NA,NA,NA,survey-likert-extra-labels,102,362256,0.0-38.0-3.0-0.0,anomymised,6565831db6b8903cc398def3,6567677d47a99a86629bc329,41757,2C,woman,NA,NA,M3 is being hugged by M1,hug2,rating_causation,"{""Q0"":0}",[0],M1 asked to hug M3,M3 asked to hug M1
null,Ruth is being opposed by Dave,NA,NA,NA,html-keyboard-response,103,364273,0.0-39.0-0.0,anomymised,6565831db6b8903cc398def3,6567677d47a99a86629bc329,41757,2C,woman,NA,null,W4 is being opposed by M2,oppose4,sentence,NA,NA,NA,NA
3163.800000000745,NA,NA,NA,NA,survey-likert-extra-labels,104,367438,0.0-39.0-2.0,anomymised,6565831db6b8903cc398def3,6567677d47a99a86629bc329,41757,2C,woman,NA,NA,W4 is being opposed by M2,oppose4,rating_volition,"{""Q0"":0}",[0],M2 wanted to oppose W4,W4 wanted to oppose M2
2405.300000000745,NA,NA,NA,NA,survey-likert-extra-labels,105,369844,0.0-39.0-3.0-0.0,anomymised,6565831db6b8903cc398def3,6567677d47a99a86629bc329,41757,2C,woman,NA,NA,W4 is being opposed by M2,oppose4,rating_causation,"{""Q0"":0}",[0],M2 started opposing W4,W4 started opposing M2
null,Mike is being touched by Dave,NA,NA,NA,html-keyboard-response,106,371845,0.0-40.0-0.0,anomymised,6565831db6b8903cc398def3,6567677d47a99a86629bc329,41757,2C,woman,NA,null,M4 is being touched by M2,touch2,sentence,NA,NA,NA,NA
1825.300000000745,NA,NA,NA,NA,survey-likert-extra-labels,107,373671,0.0-40.0-1.0-0.0,anomymised,6565831db6b8903cc398def3,6567677d47a99a86629bc329,41757,2C,woman,NA,NA,M4 is being touched by M2,touch2,rating_causation,"{""Q0"":0}",[0],M2 asked to touch M4,M4 asked to touch M2
1795.5,NA,NA,NA,NA,survey-likert-extra-labels,108,375468,0.0-40.0-2.0,anomymised,6565831db6b8903cc398def3,6567677d47a99a86629bc329,41757,2C,woman,NA,NA,M4 is being touched by M2,touch2,rating_volition,"{""Q0"":0}",[0],M2 wanted to touch M4,M4 wanted to touch M2
null,Fred is being looked at by Luke,NA,NA,NA,html-keyboard-response,109,377479,0.0-41.0-0.0,anomymised,6565831db6b8903cc398def3,6567677d47a99a86629bc329,41757,2C,woman,NA,null,M1 is being looked at by M3,look2,sentence,NA,NA,NA,NA
3271.5,NA,NA,NA,NA,survey-likert-extra-labels,110,380752,0.0-41.0-2.0,anomymised,6565831db6b8903cc398def3,6567677d47a99a86629bc329,41757,2C,woman,NA,NA,M1 is being looked at by M3,look2,rating_volition,"{""Q0"":6}",[0],M1 wanted to look at M3,M3 wanted to look at M1
2142.699999999255,NA,NA,NA,NA,survey-likert-extra-labels,111,382895,0.0-41.0-3.0-0.0,anomymised,6565831db6b8903cc398def3,6567677d47a99a86629bc329,41757,2C,woman,NA,NA,M1 is being looked at by M3,look2,rating_causation,"{""Q0"":6}",[0],M1 looked at M3 first,M3 looked at M1 first
null,Fred is being challenged by Jane,NA,NA,NA,html-keyboard-response,112,384897,0.0-42.0-0.0,anomymised,6565831db6b8903cc398def3,6567677d47a99a86629bc329,41757,2C,woman,NA,null,M1 is being challenged by W3,challenge4,sentence,NA,NA,NA,NA
1890.8999999985099,NA,NA,NA,NA,survey-likert-extra-labels,113,386790,0.0-42.0-2.0,anomymised,6565831db6b8903cc398def3,6567677d47a99a86629bc329,41757,2C,woman,NA,NA,M1 is being challenged by W3,challenge4,rating_volition,"{""Q0"":0}",[0],W3 wanted to challenge M1,M1 wanted to challenge W3
1699.199999999255,NA,NA,NA,NA,survey-likert-extra-labels,114,388490,0.0-42.0-3.0-0.0,anomymised,6565831db6b8903cc398def3,6567677d47a99a86629bc329,41757,2C,woman,NA,NA,M1 is being challenged by W3,challenge4,rating_causation,"{""Q0"":0}",[0],W3 started challenging M1 first,M1 started challenging W3 first
null,Luke is being copied by Beth,NA,NA,NA,html-keyboard-response,115,390494,0.0-43.0-0.0,anomymised,6565831db6b8903cc398def3,6567677d47a99a86629bc329,41757,2C,woman,NA,null,M3 is being copied by W1,copy4,sentence,NA,NA,NA,NA
1979,NA,NA,NA,NA,survey-likert-extra-labels,116,392474,0.0-43.0-2.0,anomymised,6565831db6b8903cc398def3,6567677d47a99a86629bc329,41757,2C,woman,NA,NA,M3 is being copied by W1,copy4,rating_volition,"{""Q0"":6}",[0],M3 wanted to copy W1,W1 wanted to copy M3
1436.800000000745,NA,NA,NA,NA,survey-likert-extra-labels,117,393912,0.0-43.0-3.0-0.0,anomymised,6565831db6b8903cc398def3,6567677d47a99a86629bc329,41757,2C,woman,NA,NA,M3 is being copied by W1,copy4,rating_causation,"{""Q0"":6}",[0],M3 started copying W1 first,W1 started copying M3 first
null,Kate is being kissed by Mike,NA,NA,NA,html-keyboard-response,118,395919,0.0-44.0-0.0,anomymised,6565831db6b8903cc398def3,6567677d47a99a86629bc329,41757,2C,woman,NA,null,W2 is being kissed by M4,kiss4,sentence,NA,NA,NA,NA
1919.3999999985099,NA,NA,NA,NA,survey-likert-extra-labels,119,397839,0.0-44.0-2.0,anomymised,6565831db6b8903cc398def3,6567677d47a99a86629bc329,41757,2C,woman,NA,NA,W2 is being kissed by M4,kiss4,rating_volition,"{""Q0"":6}",[0],W2 wanted to kiss M4,M4 wanted to kiss W2
1589.6000000014901,NA,NA,NA,NA,survey-likert-extra-labels,120,399430,0.0-44.0-3.0-0.0,anomymised,6565831db6b8903cc398def3,6567677d47a99a86629bc329,41757,2C,woman,NA,NA,W2 is being kissed by M4,kiss4,rating_causation,"{""Q0"":6}",[0],W2 asked to kiss M4,M4 asked to kiss W2
null,Luke is hiring Beth,NA,NA,NA,html-keyboard-response,121,401441,0.0-45.0-0.0,anomymised,6565831db6b8903cc398def3,6567677d47a99a86629bc329,41757,2C,woman,NA,null,M3 is hiring W1,hire,sentence,NA,NA,NA,NA
7207.199999999255,NA,NA,NA,NA,survey-likert-extra-labels,122,408650,0.0-45.0-1.0-0.0,anomymised,6565831db6b8903cc398def3,6567677d47a99a86629bc329,41757,2C,woman,NA,NA,M3 is hiring W1,hire,rating_causation,"{""Q0"":6}",[0],M3 will work for W1,W1 will work for M3
4247.10000000149,NA,NA,NA,NA,survey-likert-extra-labels,123,412898,0.0-45.0-2.0,anomymised,6565831db6b8903cc398def3,6567677d47a99a86629bc329,41757,2C,woman,NA,NA,M3 is hiring W1,hire,rating_volition,"{""Q0"":0}",[0],M3 is employing W1,W1 is employing M3
null,Mike is being shouted at by Kate,NA,NA,NA,html-keyboard-response,124,414912,0.0-46.0-0.0,anomymised,6565831db6b8903cc398def3,6567677d47a99a86629bc329,41757,2C,woman,NA,null,M4 is being shouted at by W2,shout4,sentence,NA,NA,NA,NA
2668.89999999851,NA,NA,NA,NA,survey-likert-extra-labels,125,417582,0.0-46.0-2.0,anomymised,6565831db6b8903cc398def3,6567677d47a99a86629bc329,41757,2C,woman,NA,NA,M4 is being shouted at by W2,shout4,rating_volition,"{""Q0"":0}",[0],W2 wanted to shout at M4,M4 wanted to shout at W2
2123.300000000745,NA,NA,NA,NA,survey-likert-extra-labels,126,419707,0.0-46.0-3.0-0.0,anomymised,6565831db6b8903cc398def3,6567677d47a99a86629bc329,41757,2C,woman,NA,NA,M4 is being shouted at by W2,shout4,rating_causation,"{""Q0"":0}",[0],W2 shouted at M4 first,M4 shouted at W2 first
null,Fred is being seduced by Jane,NA,NA,NA,html-keyboard-response,127,421719,0.0-47.0-0.0,anomymised,6565831db6b8903cc398def3,6567677d47a99a86629bc329,41757,2C,woman,NA,null,M1 is being seduced by W3,seduce3,sentence,NA,NA,NA,NA
3106.2000000029802,NA,NA,NA,NA,survey-likert-extra-labels,128,424827,0.0-47.0-2.0,anomymised,6565831db6b8903cc398def3,6567677d47a99a86629bc329,41757,2C,woman,NA,NA,M1 is being seduced by W3,seduce3,rating_volition,"{""Q0"":0}",[0],W3 wanted to seduce M1,M1 wanted to seduce W3
3937.099999997765,NA,NA,NA,NA,survey-likert-extra-labels,129,428765,0.0-47.0-3.0-0.0,anomymised,6565831db6b8903cc398def3,6567677d47a99a86629bc329,41757,2C,woman,NA,NA,M1 is being seduced by W3,seduce3,rating_causation,"{""Q0"":0}",[0],W3 started seducing M1 first,M1 started seducing W3 first
null,Beth is being challenged by Luke,NA,NA,NA,html-keyboard-response,130,430776,0.0-48.0-0.0,anomymised,6565831db6b8903cc398def3,6567677d47a99a86629bc329,41757,2C,woman,NA,null,W1 is being challenged by M3,challenge3,sentence,NA,NA,NA,NA
2032.800000000745,NA,NA,NA,NA,survey-likert-extra-labels,131,432811,0.0-48.0-2.0,anomymised,6565831db6b8903cc398def3,6567677d47a99a86629bc329,41757,2C,woman,NA,NA,W1 is being challenged by M3,challenge3,rating_volition,"{""Q0"":0}",[0],M3 wanted to challenge W1,W1 wanted to challenge M3
1815.0999999977648,NA,NA,NA,NA,survey-likert-extra-labels,132,434627,0.0-48.0-3.0-0.0,anomymised,6565831db6b8903cc398def3,6567677d47a99a86629bc329,41757,2C,woman,NA,NA,W1 is being challenged by M3,challenge3,rating_causation,"{""Q0"":0}",[0],M3 started challenging W1 first,W1 started challenging M3 first
null,Luke is being opposed by Fred,NA,NA,NA,html-keyboard-response,133,436631,0.0-49.0-0.0,anomymised,6565831db6b8903cc398def3,6567677d47a99a86629bc329,41757,2C,woman,NA,null,M3 is being opposed by M1,oppose2,sentence,NA,NA,NA,NA
3618.10000000149,NA,NA,NA,NA,survey-likert-extra-labels,134,440251,0.0-49.0-2.0,anomymised,6565831db6b8903cc398def3,6567677d47a99a86629bc329,41757,2C,woman,NA,NA,M3 is being opposed by M1,oppose2,rating_volition,"{""Q0"":0}",[0],M1 wanted to oppose M3,M3 wanted to oppose M1
1950.8999999985099,NA,NA,NA,NA,survey-likert-extra-labels,135,442203,0.0-49.0-3.0-0.0,anomymised,6565831db6b8903cc398def3,6567677d47a99a86629bc329,41757,2C,woman,NA,NA,M3 is being opposed by M1,oppose2,rating_causation,"{""Q0"":0}",[0],M1 started opposing M3,M3 started opposing M1
null,Kate is carrying Ruth,NA,NA,NA,html-keyboard-response,136,444218,0.0-50.0-0.0,anomymised,6565831db6b8903cc398def3,6567677d47a99a86629bc329,41757,2C,woman,NA,null,W2 is carrying W4,carry,sentence,NA,NA,NA,NA
8943.60000000149,NA,NA,NA,NA,survey-likert-extra-labels,137,453163,0.0-50.0-1.0-0.0,anomymised,6565831db6b8903cc398def3,6567677d47a99a86629bc329,41757,2C,woman,NA,NA,W2 is carrying W4,carry,rating_causation,"{""Q0"":6}",[0],W2 is being moved by W4,W4 is being moved by W2
2518.699999999255,NA,NA,NA,NA,survey-likert-extra-labels,138,455683,0.0-50.0-2.0,anomymised,6565831db6b8903cc398def3,6567677d47a99a86629bc329,41757,2C,woman,NA,NA,W2 is carrying W4,carry,rating_volition,"{""Q0"":0}",[0],W2 is transporting W4,W4 is transporting W2
null,Ruth is being hugged by Dave,NA,NA,NA,html-keyboard-response,139,457686,0.0-51.0-0.0,anomymised,6565831db6b8903cc398def3,6567677d47a99a86629bc329,41757,2C,woman,NA,null,W4 is being hugged by M2,hug4,sentence,NA,NA,NA,NA
2913.60000000149,NA,NA,NA,NA,survey-likert-extra-labels,140,460601,0.0-51.0-1.0-0.0,anomymised,6565831db6b8903cc398def3,6567677d47a99a86629bc329,41757,2C,woman,NA,NA,W4 is being hugged by M2,hug4,rating_causation,"{""Q0"":0}",[0],M2 asked to hug W4,W4 asked to hug M2
2491.300000000745,NA,NA,NA,NA,survey-likert-extra-labels,141,463093,0.0-51.0-2.0,anomymised,6565831db6b8903cc398def3,6567677d47a99a86629bc329,41757,2C,woman,NA,NA,W4 is being hugged by M2,hug4,rating_volition,"{""Q0"":0}",[0],M2 wanted to hug W4,W4 wanted to hug M2
null,Fred is being kissed by Luke,NA,NA,NA,html-keyboard-response,142,465096,0.0-52.0-0.0,anomymised,6565831db6b8903cc398def3,6567677d47a99a86629bc329,41757,2C,woman,NA,null,M1 is being kissed by M3,kiss2,sentence,NA,NA,NA,NA
2782.199999999255,NA,NA,NA,NA,survey-likert-extra-labels,143,467879,0.0-52.0-2.0,anomymised,6565831db6b8903cc398def3,6567677d47a99a86629bc329,41757,2C,woman,NA,NA,M1 is being kissed by M3,kiss2,rating_volition,"{""Q0"":6}",[0],M1 wanted to kiss M3,M3 wanted to kiss M1
2093,NA,NA,NA,NA,survey-likert-extra-labels,144,469973,0.0-52.0-3.0-0.0,anomymised,6565831db6b8903cc398def3,6567677d47a99a86629bc329,41757,2C,woman,NA,NA,M1 is being kissed by M3,kiss2,rating_causation,"{""Q0"":6}",[0],M1 asked to kiss M3,M3 asked to kiss M1
null,Kate is teaching Mike,NA,NA,NA,html-keyboard-response,145,471985,0.0-53.0-0.0,anomymised,6565831db6b8903cc398def3,6567677d47a99a86629bc329,41757,2C,woman,NA,null,W2 is teaching M4,teach,sentence,NA,NA,NA,NA
5320.70000000298,NA,NA,NA,NA,survey-likert-extra-labels,146,477307,0.0-53.0-1.0-0.0,anomymised,6565831db6b8903cc398def3,6567677d47a99a86629bc329,41757,2C,woman,NA,NA,W2 is teaching M4,teach,rating_causation,"{""Q0"":6}",[0],W2 is learning from M4,M4 is learning from W2
2448.89999999851,NA,NA,NA,NA,survey-likert-extra-labels,147,479757,0.0-53.0-2.0,anomymised,6565831db6b8903cc398def3,6567677d47a99a86629bc329,41757,2C,woman,NA,NA,W2 is teaching M4,teach,rating_volition,"{""Q0"":0}",[0],W2 is educating M4,M4 is educating W2
null,Luke is being shouted at by Fred,NA,NA,NA,html-keyboard-response,148,481774,0.0-54.0-0.0,anomymised,6565831db6b8903cc398def3,6567677d47a99a86629bc329,41757,2C,woman,NA,null,M3 is being shouted at by M1,shout2,sentence,NA,NA,NA,NA
4968.199999999255,NA,NA,NA,NA,survey-likert-extra-labels,149,486743,0.0-54.0-2.0,anomymised,6565831db6b8903cc398def3,6567677d47a99a86629bc329,41757,2C,woman,NA,NA,M3 is being shouted at by M1,shout2,rating_volition,"{""Q0"":0}",[0],M1 wanted to shout at M3,M3 wanted to shout at M1
3992.699999999255,NA,NA,NA,NA,survey-likert-extra-labels,150,490737,0.0-54.0-3.0-0.0,anomymised,6565831db6b8903cc398def3,6567677d47a99a86629bc329,41757,2C,woman,NA,NA,M3 is being shouted at by M1,shout2,rating_causation,"{""Q0"":0}",[0],M1 shouted at M3 first,M3 shouted at M1 first
1165,<p>Thank you for completing that task.</p><p>The final part of this session is a short questionnaire.</p><p>Press Continue.</p>,0,Continue,Continue,html-button-response,151,491903,0.0-55.0,anomymised,6565831db6b8903cc398def3,6567677d47a99a86629bc329,41757,2C,woman,NA,NA,NA,NA,NA,NA,NA,NA,NA
20719.199999999255,NA,NA,NA,NA,survey-text,152,513634,0.0-56.0,anomymised,6565831db6b8903cc398def3,6567677d47a99a86629bc329,41757,2C,woman,NA,NA,NA,NA,demographics,"{""Q0"":""28"",""Q1"":""English"",""Q2"":""English"",""Q3"":""United Kingdom"",""Q4"":""British"",""Q5"":""White"",""Q6"":""Female""}",NA,NA,NA
2814.39999999851,<p>This is the last question - thank you for taking part! Have you lived in the UK for the last 5 years or more?</p>,0,"Yes,No",Yes,html-button-response,153,516449,0.0-57.0,anomymised,6565831db6b8903cc398def3,6567677d47a99a86629bc329,41757,2C,woman,NA,NA,NA,NA,fiveyears,NA,NA,NA,NA
