rt,stimulus,button_pressed,choices,ChosenStimulus,trial_type,trial_index,time_elapsed,internal_node_id,subject_id,study_id,session_id,subject,list,ppt_gender,url,key_press,sentence_type,verb,test_part,responses,question_order,left_part,right_part
1524.0999999046326,Welcome to the experiment. Press Continue to begin.,0,Continue,Continue,html-button-response,0,1526,0.0-0.0,anomymised,65658308d20c86dae326cedf,656703a8d9dd63c664e4d2c7,42317,2B,woman,NA,NA,NA,NA,NA,NA,NA,NA,NA
3801.2999997138977,NA,NA,NA,NA,external-html,1,6362,0.0-1.0,anomymised,65658308d20c86dae326cedf,656703a8d9dd63c664e4d2c7,42317,2B,woman,consent.html,NA,NA,NA,NA,NA,NA,NA,NA
1817.6999998092651,"<p>Welcome.</p><p>In this experiment we will ask you to imagine some situations.</p><p>Each trial starts with a description of an event.</p><p>Then you will see alternative descriptions of that event, and you will rate on a scale how best they match the original description.</p><p>You will give your answer by clicking a button on a rating scale.</p><p>To do this task, you will have to use your imagination to visualise these events.</p><br><p>Ready?</p>",0,Continue,Continue,html-button-response,2,8180,0.0-2.0,anomymised,65658308d20c86dae326cedf,656703a8d9dd63c664e4d2c7,42317,2B,woman,NA,NA,NA,NA,NA,NA,NA,NA,NA
1125.2000002861023,"<p>Before the experiment starts, you will watch an example trial. Press 'Continue'.</p>",0,Continue,Continue,html-button-response,3,10309,0.0-3.0,anomymised,65658308d20c86dae326cedf,656703a8d9dd63c664e4d2c7,42317,2B,woman,NA,NA,NA,NA,NA,NA,NA,NA,NA
null,The police officer is arresting the robber,NA,NA,NA,html-keyboard-response,4,13331,0.0-4.0,anomymised,65658308d20c86dae326cedf,656703a8d9dd63c664e4d2c7,42317,2B,woman,NA,null,NA,NA,NA,NA,NA,NA,NA
6231.699999809265,<img src='img/Example-trial.jpg' style='height:550px;''></img>,0,Continue,Continue,html-button-response,5,19564,0.0-5.0,anomymised,65658308d20c86dae326cedf,656703a8d9dd63c664e4d2c7,42317,2B,woman,NA,NA,NA,NA,NA,NA,NA,NA,NA
2694.1000003814697,<p>Ready to start the experiment?</p><br><p><strong>Remember to give an answer by clicking a button on the rating scale.</strong></p><p>Press 'Continue' to begin.</p>,0,Continue,Continue,html-button-response,6,23269,0.0-6.0,anomymised,65658308d20c86dae326cedf,656703a8d9dd63c664e4d2c7,42317,2B,woman,NA,NA,NA,NA,NA,NA,NA,NA,NA
null,Kate is being touched by Ruth,NA,NA,NA,html-keyboard-response,7,26291,0.0-7.0-0.0,anomymised,65658308d20c86dae326cedf,656703a8d9dd63c664e4d2c7,42317,2B,woman,NA,null,W2 is being touched by W4,touch1,sentence,NA,NA,NA,NA
25230.5,NA,NA,NA,NA,survey-likert-extra-labels,8,51524,0.0-7.0-1.0-0.0,anomymised,65658308d20c86dae326cedf,656703a8d9dd63c664e4d2c7,42317,2B,woman,NA,NA,W2 is being touched by W4,touch1,rating_causation,"{""Q0"":3}",[0],W4 asked to touch W2,W2 asked to touch W4
3415.699999809265,NA,NA,NA,NA,survey-likert-extra-labels,9,54944,0.0-7.0-2.0,anomymised,65658308d20c86dae326cedf,656703a8d9dd63c664e4d2c7,42317,2B,woman,NA,NA,W2 is being touched by W4,touch1,rating_volition,"{""Q0"":3}",[0],W4 wanted to touch W2,W2 wanted to touch W4
null,Fred is driving Luke,NA,NA,NA,html-keyboard-response,10,56961,0.0-8.0-0.0,anomymised,65658308d20c86dae326cedf,656703a8d9dd63c664e4d2c7,42317,2B,woman,NA,null,M1 is driving M3,drive,sentence,NA,NA,NA,NA
5729.400000095367,NA,NA,NA,NA,survey-likert-extra-labels,11,62692,0.0-8.0-2.0,anomymised,65658308d20c86dae326cedf,656703a8d9dd63c664e4d2c7,42317,2B,woman,NA,NA,M1 is driving M3,drive,rating_volition,"{""Q0"":6}",[0],M1 is M3's passenger,M3 is M1's passenger
3472.2999997138977,NA,NA,NA,NA,survey-likert-extra-labels,12,66168,0.0-8.0-3.0-0.0,anomymised,65658308d20c86dae326cedf,656703a8d9dd63c664e4d2c7,42317,2B,woman,NA,NA,M1 is driving M3,drive,rating_causation,"{""Q0"":0}",[0],M1 is taking M3 somewhere,M3 is taking M1 somewhere
null,Dave is being hugged by Ruth,NA,NA,NA,html-keyboard-response,13,68177,0.0-9.0-0.0,anomymised,65658308d20c86dae326cedf,656703a8d9dd63c664e4d2c7,42317,2B,woman,NA,null,M2 is being hugged by W4,hug4,sentence,NA,NA,NA,NA
2801.5,NA,NA,NA,NA,survey-likert-extra-labels,14,70980,0.0-9.0-1.0-0.0,anomymised,65658308d20c86dae326cedf,656703a8d9dd63c664e4d2c7,42317,2B,woman,NA,NA,M2 is being hugged by W4,hug4,rating_causation,"{""Q0"":3}",[0],W4 asked to hug M2,M2 asked to hug W4
3728.4000000953674,NA,NA,NA,NA,survey-likert-extra-labels,15,74712,0.0-9.0-2.0,anomymised,65658308d20c86dae326cedf,656703a8d9dd63c664e4d2c7,42317,2B,woman,NA,NA,M2 is being hugged by W4,hug4,rating_volition,"{""Q0"":3}",[0],W4 wanted to hug M2,M2 wanted to hug W4
null,Beth is being greeted by Luke,NA,NA,NA,html-keyboard-response,16,76718,0.0-10.0-0.0,anomymised,65658308d20c86dae326cedf,656703a8d9dd63c664e4d2c7,42317,2B,woman,NA,null,W1 is being greeted by M3,greet3,sentence,NA,NA,NA,NA
4633,NA,NA,NA,NA,survey-likert-extra-labels,17,81352,0.0-10.0-1.0-0.0,anomymised,65658308d20c86dae326cedf,656703a8d9dd63c664e4d2c7,42317,2B,woman,NA,NA,W1 is being greeted by M3,greet3,rating_causation,"{""Q0"":6}",[0],W1 started greeting M3 first,M3 started greeting W1 first
3796.0999999046326,NA,NA,NA,NA,survey-likert-extra-labels,18,85153,0.0-10.0-2.0,anomymised,65658308d20c86dae326cedf,656703a8d9dd63c664e4d2c7,42317,2B,woman,NA,NA,W1 is being greeted by M3,greet3,rating_volition,"{""Q0"":3}",[0],W1 wanted to greet M3,M3 wanted to greet W1
null,Mike is being copied by Dave,NA,NA,NA,html-keyboard-response,19,87168,0.0-11.0-0.0,anomymised,65658308d20c86dae326cedf,656703a8d9dd63c664e4d2c7,42317,2B,woman,NA,null,M4 is being copied by M2,copy2,sentence,NA,NA,NA,NA
8687,NA,NA,NA,NA,survey-likert-extra-labels,20,95856,0.0-11.0-2.0,anomymised,65658308d20c86dae326cedf,656703a8d9dd63c664e4d2c7,42317,2B,woman,NA,NA,M4 is being copied by M2,copy2,rating_volition,"{""Q0"":6}",[0],M4 wanted to copy M2,M2 wanted to copy M4
67611.90000009537,NA,NA,NA,NA,survey-likert-extra-labels,21,163473,0.0-11.0-3.0-0.0,anomymised,65658308d20c86dae326cedf,656703a8d9dd63c664e4d2c7,42317,2B,woman,NA,NA,M4 is being copied by M2,copy2,rating_causation,"{""Q0"":6}",[0],M4 started copying M2 first,M2 started copying M4 first
null,Luke is being challenged by Beth,NA,NA,NA,html-keyboard-response,22,165485,0.0-12.0-0.0,anomymised,65658308d20c86dae326cedf,656703a8d9dd63c664e4d2c7,42317,2B,woman,NA,null,M3 is being challenged by W1,challenge3,sentence,NA,NA,NA,NA
15030.099999904633,NA,NA,NA,NA,survey-likert-extra-labels,23,180517,0.0-12.0-1.0-0.0,anomymised,65658308d20c86dae326cedf,656703a8d9dd63c664e4d2c7,42317,2B,woman,NA,NA,M3 is being challenged by W1,challenge3,rating_causation,"{""Q0"":0}",[0],W1 started challenging M3 first,M3 started challenging W1 first
4343.5,NA,NA,NA,NA,survey-likert-extra-labels,24,184865,0.0-12.0-2.0,anomymised,65658308d20c86dae326cedf,656703a8d9dd63c664e4d2c7,42317,2B,woman,NA,NA,M3 is being challenged by W1,challenge3,rating_volition,"{""Q0"":0}",[0],W1 wanted to challenge M3,M3 wanted to challenge W1
null,Ruth is being greeted by Kate,NA,NA,NA,html-keyboard-response,25,186884,0.0-13.0-0.0,anomymised,65658308d20c86dae326cedf,656703a8d9dd63c664e4d2c7,42317,2B,woman,NA,null,W4 is being greeted by W2,greet1,sentence,NA,NA,NA,NA
6855.199999809265,NA,NA,NA,NA,survey-likert-extra-labels,26,193741,0.0-13.0-1.0-0.0,anomymised,65658308d20c86dae326cedf,656703a8d9dd63c664e4d2c7,42317,2B,woman,NA,NA,W4 is being greeted by W2,greet1,rating_causation,"{""Q0"":6}",[0],W4 started greeting W2 first,W2 started greeting W4 first
2647.9000000953674,NA,NA,NA,NA,survey-likert-extra-labels,27,196393,0.0-13.0-2.0,anomymised,65658308d20c86dae326cedf,656703a8d9dd63c664e4d2c7,42317,2B,woman,NA,NA,W4 is being greeted by W2,greet1,rating_volition,"{""Q0"":6}",[0],W4 wanted to greet W2,W2 wanted to greet W4
null,Jane is being touched by Fred,NA,NA,NA,html-keyboard-response,28,198410,0.0-14.0-0.0,anomymised,65658308d20c86dae326cedf,656703a8d9dd63c664e4d2c7,42317,2B,woman,NA,null,W3 is being touched by M1,touch3,sentence,NA,NA,NA,NA
4725.599999904633,NA,NA,NA,NA,survey-likert-extra-labels,29,203137,0.0-14.0-2.0,anomymised,65658308d20c86dae326cedf,656703a8d9dd63c664e4d2c7,42317,2B,woman,NA,NA,W3 is being touched by M1,touch3,rating_volition,"{""Q0"":0}",[0],M1 wanted to touch W3,W3 wanted to touch M1
2751.699999809265,NA,NA,NA,NA,survey-likert-extra-labels,30,205893,0.0-14.0-3.0-0.0,anomymised,65658308d20c86dae326cedf,656703a8d9dd63c664e4d2c7,42317,2B,woman,NA,NA,W3 is being touched by M1,touch3,rating_causation,"{""Q0"":3}",[0],M1 asked to touch W3,W3 asked to touch M1
null,Fred is being copied by Jane,NA,NA,NA,html-keyboard-response,31,207905,0.0-15.0-0.0,anomymised,65658308d20c86dae326cedf,656703a8d9dd63c664e4d2c7,42317,2B,woman,NA,null,M1 is being copied by W3,copy3,sentence,NA,NA,NA,NA
4730.400000095367,NA,NA,NA,NA,survey-likert-extra-labels,32,212637,0.0-15.0-2.0,anomymised,65658308d20c86dae326cedf,656703a8d9dd63c664e4d2c7,42317,2B,woman,NA,NA,M1 is being copied by W3,copy3,rating_volition,"{""Q0"":6}",[0],M1 wanted to copy W3,W3 wanted to copy M1
3036.0999999046326,NA,NA,NA,NA,survey-likert-extra-labels,33,215677,0.0-15.0-3.0-0.0,anomymised,65658308d20c86dae326cedf,656703a8d9dd63c664e4d2c7,42317,2B,woman,NA,NA,M1 is being copied by W3,copy3,rating_causation,"{""Q0"":3}",[0],M1 started copying W3 first,W3 started copying M1 first
null,Kate is being challenged by Ruth,NA,NA,NA,html-keyboard-response,34,217688,0.0-16.0-0.0,anomymised,65658308d20c86dae326cedf,656703a8d9dd63c664e4d2c7,42317,2B,woman,NA,null,W2 is being challenged by W4,challenge1,sentence,NA,NA,NA,NA
7819.199999809265,NA,NA,NA,NA,survey-likert-extra-labels,35,225509,0.0-16.0-2.0,anomymised,65658308d20c86dae326cedf,656703a8d9dd63c664e4d2c7,42317,2B,woman,NA,NA,W2 is being challenged by W4,challenge1,rating_volition,"{""Q0"":3}",[0],W4 wanted to challenge W2,W2 wanted to challenge W4
1507.7999997138977,NA,NA,NA,NA,survey-likert-extra-labels,36,227021,0.0-16.0-3.0-0.0,anomymised,65658308d20c86dae326cedf,656703a8d9dd63c664e4d2c7,42317,2B,woman,NA,NA,W2 is being challenged by W4,challenge1,rating_causation,"{""Q0"":3}",[0],W4 started challenging W2 first,W2 started challenging W4 first
null,Fred is being hugged by Luke,NA,NA,NA,html-keyboard-response,37,229032,0.0-17.0-0.0,anomymised,65658308d20c86dae326cedf,656703a8d9dd63c664e4d2c7,42317,2B,woman,NA,null,M1 is being hugged by M3,hug2,sentence,NA,NA,NA,NA
2663.199999809265,NA,NA,NA,NA,survey-likert-extra-labels,38,231697,0.0-17.0-1.0-0.0,anomymised,65658308d20c86dae326cedf,656703a8d9dd63c664e4d2c7,42317,2B,woman,NA,NA,M1 is being hugged by M3,hug2,rating_causation,"{""Q0"":3}",[0],M3 asked to hug M1,M1 asked to hug M3
3005.199999809265,NA,NA,NA,NA,survey-likert-extra-labels,39,234706,0.0-17.0-2.0,anomymised,65658308d20c86dae326cedf,656703a8d9dd63c664e4d2c7,42317,2B,woman,NA,NA,M1 is being hugged by M3,hug2,rating_volition,"{""Q0"":3}",[0],M3 wanted to hug M1,M1 wanted to hug M3
null,Dave is posing for Mike,NA,NA,NA,html-keyboard-response,40,236717,0.0-18.0-0.0,anomymised,65658308d20c86dae326cedf,656703a8d9dd63c664e4d2c7,42317,2B,woman,NA,null,M2 is posing for M4,pose,sentence,NA,NA,NA,NA
5307.099999904633,NA,NA,NA,NA,survey-likert-extra-labels,41,242025,0.0-18.0-1.0-0.0,anomymised,65658308d20c86dae326cedf,656703a8d9dd63c664e4d2c7,42317,2B,woman,NA,NA,M2 is posing for M4,pose,rating_causation,"{""Q0"":6}",[0],M2 is photographing M4,M4 is photographing M2
6496,NA,NA,NA,NA,survey-likert-extra-labels,42,248525,0.0-18.0-2.0,anomymised,65658308d20c86dae326cedf,656703a8d9dd63c664e4d2c7,42317,2B,woman,NA,NA,M2 is posing for M4,pose,rating_volition,"{""Q0"":0}",[0],M2 is modelling for M4,M4 is modelling for M2
null,Mike is being looked at by Kate,NA,NA,NA,html-keyboard-response,43,250542,0.0-19.0-0.0,anomymised,65658308d20c86dae326cedf,656703a8d9dd63c664e4d2c7,42317,2B,woman,NA,null,M4 is being looked at by W2,look3,sentence,NA,NA,NA,NA
6145.200000286102,NA,NA,NA,NA,survey-likert-extra-labels,44,256689,0.0-19.0-1.0-0.0,anomymised,65658308d20c86dae326cedf,656703a8d9dd63c664e4d2c7,42317,2B,woman,NA,NA,M4 is being looked at by W2,look3,rating_causation,"{""Q0"":6}",[0],M4 looked at W2 first,W2 looked at M4 first
13203.799999713898,NA,NA,NA,NA,survey-likert-extra-labels,45,269897,0.0-19.0-2.0,anomymised,65658308d20c86dae326cedf,656703a8d9dd63c664e4d2c7,42317,2B,woman,NA,NA,M4 is being looked at by W2,look3,rating_volition,"{""Q0"":3}",[0],M4 wanted to look at W2,W2 wanted to look at M4
null,Luke is being seduced by Beth,NA,NA,NA,html-keyboard-response,46,271902,0.0-20.0-0.0,anomymised,65658308d20c86dae326cedf,656703a8d9dd63c664e4d2c7,42317,2B,woman,NA,null,M3 is being seduced by W1,seduce4,sentence,NA,NA,NA,NA
4345.5,NA,NA,NA,NA,survey-likert-extra-labels,47,276249,0.0-20.0-1.0-0.0,anomymised,65658308d20c86dae326cedf,656703a8d9dd63c664e4d2c7,42317,2B,woman,NA,NA,M3 is being seduced by W1,seduce4,rating_causation,"{""Q0"":6}",[0],W1 started seducing M3 first,M3 started seducing W1 first
2987.9000000953674,NA,NA,NA,NA,survey-likert-extra-labels,48,279241,0.0-20.0-2.0,anomymised,65658308d20c86dae326cedf,656703a8d9dd63c664e4d2c7,42317,2B,woman,NA,NA,M3 is being seduced by W1,seduce4,rating_volition,"{""Q0"":3}",[0],W1 wanted to seducing M3,M3 wanted to seducing W1
null,Beth is being shouted at by Jane,NA,NA,NA,html-keyboard-response,49,281257,0.0-21.0-0.0,anomymised,65658308d20c86dae326cedf,656703a8d9dd63c664e4d2c7,42317,2B,woman,NA,null,W1 is being shouted at by W3,shout1,sentence,NA,NA,NA,NA
3470.0999999046326,NA,NA,NA,NA,survey-likert-extra-labels,50,284729,0.0-21.0-1.0-0.0,anomymised,65658308d20c86dae326cedf,656703a8d9dd63c664e4d2c7,42317,2B,woman,NA,NA,W1 is being shouted at by W3,shout1,rating_causation,"{""Q0"":0}",[0],W3 shouted at W1 first,W1 shouted at W3 first
4668.099999904633,NA,NA,NA,NA,survey-likert-extra-labels,51,289401,0.0-21.0-2.0,anomymised,65658308d20c86dae326cedf,656703a8d9dd63c664e4d2c7,42317,2B,woman,NA,NA,W1 is being shouted at by W3,shout1,rating_volition,"{""Q0"":0}",[0],W3 wanted to shout at W1,W1 wanted to shout at W3
null,Luke is being looked at by Fred,NA,NA,NA,html-keyboard-response,52,291409,0.0-22.0-0.0,anomymised,65658308d20c86dae326cedf,656703a8d9dd63c664e4d2c7,42317,2B,woman,NA,null,M3 is being looked at by M1,look2,sentence,NA,NA,NA,NA
5494.699999809265,NA,NA,NA,NA,survey-likert-extra-labels,53,296906,0.0-22.0-2.0,anomymised,65658308d20c86dae326cedf,656703a8d9dd63c664e4d2c7,42317,2B,woman,NA,NA,M3 is being looked at by M1,look2,rating_volition,"{""Q0"":6}",[0],M3 wanted to look at M1,M1 wanted to look at M3
4555.5,NA,NA,NA,NA,survey-likert-extra-labels,54,301465,0.0-22.0-3.0-0.0,anomymised,65658308d20c86dae326cedf,656703a8d9dd63c664e4d2c7,42317,2B,woman,NA,NA,M3 is being looked at by M1,look2,rating_causation,"{""Q0"":6}",[0],M3 looked at M1 first,M1 looked at M3 first
null,Dave is reminding Ruth,NA,NA,NA,html-keyboard-response,55,303470,0.0-23.0-0.0,anomymised,65658308d20c86dae326cedf,656703a8d9dd63c664e4d2c7,42317,2B,woman,NA,null,M2 is reminding W4,remind,sentence,NA,NA,NA,NA
4517.900000095367,NA,NA,NA,NA,survey-likert-extra-labels,56,307989,0.0-23.0-1.0-0.0,anomymised,65658308d20c86dae326cedf,656703a8d9dd63c664e4d2c7,42317,2B,woman,NA,NA,M2 is reminding W4,remind,rating_causation,"{""Q0"":6}",[0],M2 is remembering,W4 is remembering
3788,NA,NA,NA,NA,survey-likert-extra-labels,57,311781,0.0-23.0-2.0,anomymised,65658308d20c86dae326cedf,656703a8d9dd63c664e4d2c7,42317,2B,woman,NA,NA,M2 is reminding W4,remind,rating_volition,"{""Q0"":0}",[0],M2 is telling W4 again,W4 is telling M2 again
null,Luke is being touched by Beth,NA,NA,NA,html-keyboard-response,58,313796,0.0-24.0-0.0,anomymised,65658308d20c86dae326cedf,656703a8d9dd63c664e4d2c7,42317,2B,woman,NA,null,M3 is being touched by W1,touch4,sentence,NA,NA,NA,NA
3207.7999997138977,NA,NA,NA,NA,survey-likert-extra-labels,59,317005,0.0-24.0-2.0,anomymised,65658308d20c86dae326cedf,656703a8d9dd63c664e4d2c7,42317,2B,woman,NA,NA,M3 is being touched by W1,touch4,rating_volition,"{""Q0"":0}",[0],W1 wanted to touch M3,M3 wanted to touch W1
2864,NA,NA,NA,NA,survey-likert-extra-labels,60,319873,0.0-24.0-3.0-0.0,anomymised,65658308d20c86dae326cedf,656703a8d9dd63c664e4d2c7,42317,2B,woman,NA,NA,M3 is being touched by W1,touch4,rating_causation,"{""Q0"":3}",[0],W1 asked to touch M3,M3 asked to touch W1
null,Dave is being challenged by Mike,NA,NA,NA,html-keyboard-response,61,321878,0.0-25.0-0.0,anomymised,65658308d20c86dae326cedf,656703a8d9dd63c664e4d2c7,42317,2B,woman,NA,null,M2 is being challenged by M4,challenge2,sentence,NA,NA,NA,NA
3921.3999996185303,NA,NA,NA,NA,survey-likert-extra-labels,62,325801,0.0-25.0-1.0-0.0,anomymised,65658308d20c86dae326cedf,656703a8d9dd63c664e4d2c7,42317,2B,woman,NA,NA,M2 is being challenged by M4,challenge2,rating_causation,"{""Q0"":0}",[0],M4 started challenging M2 first,M2 started challenging M4 first
12572,NA,NA,NA,NA,survey-likert-extra-labels,63,338377,0.0-25.0-2.0,anomymised,65658308d20c86dae326cedf,656703a8d9dd63c664e4d2c7,42317,2B,woman,NA,NA,M2 is being challenged by M4,challenge2,rating_volition,"{""Q0"":0}",[0],M4 wanted to challenge M2,M2 wanted to challenge M4
null,Luke is hiring Beth,NA,NA,NA,html-keyboard-response,64,340390,0.0-26.0-0.0,anomymised,65658308d20c86dae326cedf,656703a8d9dd63c664e4d2c7,42317,2B,woman,NA,null,M3 is hiring W1,hire,sentence,NA,NA,NA,NA
40293.5,NA,NA,NA,NA,survey-likert-extra-labels,65,380685,0.0-26.0-2.0,anomymised,65658308d20c86dae326cedf,656703a8d9dd63c664e4d2c7,42317,2B,woman,NA,NA,M3 is hiring W1,hire,rating_volition,"{""Q0"":0}",[0],M3 is employing W1,W1 is employing M3
5319.5,NA,NA,NA,NA,survey-likert-extra-labels,66,386009,0.0-26.0-3.0-0.0,anomymised,65658308d20c86dae326cedf,656703a8d9dd63c664e4d2c7,42317,2B,woman,NA,NA,M3 is hiring W1,hire,rating_causation,"{""Q0"":6}",[0],M3 will work for W1,W1 will work for M3
null,Kate is carrying Ruth,NA,NA,NA,html-keyboard-response,67,388014,0.0-27.0-0.0,anomymised,65658308d20c86dae326cedf,656703a8d9dd63c664e4d2c7,42317,2B,woman,NA,null,W2 is carrying W4,carry,sentence,NA,NA,NA,NA
37489.40000009537,NA,NA,NA,NA,survey-likert-extra-labels,68,425505,0.0-27.0-2.0,anomymised,65658308d20c86dae326cedf,656703a8d9dd63c664e4d2c7,42317,2B,woman,NA,NA,W2 is carrying W4,carry,rating_volition,"{""Q0"":0}",[0],W2 is transporting W4,W4 is transporting W2
6259.900000095367,NA,NA,NA,NA,survey-likert-extra-labels,69,431769,0.0-27.0-3.0-0.0,anomymised,65658308d20c86dae326cedf,656703a8d9dd63c664e4d2c7,42317,2B,woman,NA,NA,W2 is carrying W4,carry,rating_causation,"{""Q0"":6}",[0],W2 is being moved by W4,W4 is being moved by W2
null,Beth is being hugged by Jane,NA,NA,NA,html-keyboard-response,70,433778,0.0-28.0-0.0,anomymised,65658308d20c86dae326cedf,656703a8d9dd63c664e4d2c7,42317,2B,woman,NA,null,W1 is being hugged by W3,hug1,sentence,NA,NA,NA,NA
14921.5,NA,NA,NA,NA,survey-likert-extra-labels,71,448701,0.0-28.0-2.0,anomymised,65658308d20c86dae326cedf,656703a8d9dd63c664e4d2c7,42317,2B,woman,NA,NA,W1 is being hugged by W3,hug1,rating_volition,"{""Q0"":3}",[0],W3 wanted to hug W1,W1 wanted to hug W3
2927.6000003814697,NA,NA,NA,NA,survey-likert-extra-labels,72,451633,0.0-28.0-3.0-0.0,anomymised,65658308d20c86dae326cedf,656703a8d9dd63c664e4d2c7,42317,2B,woman,NA,NA,W1 is being hugged by W3,hug1,rating_causation,"{""Q0"":3}",[0],W3 asked to hug W1,W1 asked to hug W3
null,Ruth is being kissed by Dave,NA,NA,NA,html-keyboard-response,73,453640,0.0-29.0-0.0,anomymised,65658308d20c86dae326cedf,656703a8d9dd63c664e4d2c7,42317,2B,woman,NA,null,W4 is being kissed by M2,kiss3,sentence,NA,NA,NA,NA
6695.60000038147,NA,NA,NA,NA,survey-likert-extra-labels,74,460337,0.0-29.0-2.0,anomymised,65658308d20c86dae326cedf,656703a8d9dd63c664e4d2c7,42317,2B,woman,NA,NA,W4 is being kissed by M2,kiss3,rating_volition,"{""Q0"":6}",[0],W4 wanted to kiss M2,M2 wanted to kiss W4
1983.8000001907349,NA,NA,NA,NA,survey-likert-extra-labels,75,462325,0.0-29.0-3.0-0.0,anomymised,65658308d20c86dae326cedf,656703a8d9dd63c664e4d2c7,42317,2B,woman,NA,NA,W4 is being kissed by M2,kiss3,rating_causation,"{""Q0"":3}",[0],W4 asked to kiss M2,M2 asked to kiss W4
null,Jane is being looked at by Beth,NA,NA,NA,html-keyboard-response,76,464329,0.0-30.0-0.0,anomymised,65658308d20c86dae326cedf,656703a8d9dd63c664e4d2c7,42317,2B,woman,NA,null,W3 is being looked at by W1,look1,sentence,NA,NA,NA,NA
4234.10000038147,NA,NA,NA,NA,survey-likert-extra-labels,77,468565,0.0-30.0-2.0,anomymised,65658308d20c86dae326cedf,656703a8d9dd63c664e4d2c7,42317,2B,woman,NA,NA,W3 is being looked at by W1,look1,rating_volition,"{""Q0"":6}",[0],W3 wanted to look at W1,W1 wanted to look at W3
3911.800000190735,NA,NA,NA,NA,survey-likert-extra-labels,78,472481,0.0-30.0-3.0-0.0,anomymised,65658308d20c86dae326cedf,656703a8d9dd63c664e4d2c7,42317,2B,woman,NA,NA,W3 is being looked at by W1,look1,rating_causation,"{""Q0"":6}",[0],W3 looked at W1 first,W1 looked at W3 first
null,Beth is being copied by Luke,NA,NA,NA,html-keyboard-response,79,474492,0.0-31.0-0.0,anomymised,65658308d20c86dae326cedf,656703a8d9dd63c664e4d2c7,42317,2B,woman,NA,null,W1 is being copied by M3,copy4,sentence,NA,NA,NA,NA
5659.300000190735,NA,NA,NA,NA,survey-likert-extra-labels,80,480153,0.0-31.0-2.0,anomymised,65658308d20c86dae326cedf,656703a8d9dd63c664e4d2c7,42317,2B,woman,NA,NA,W1 is being copied by M3,copy4,rating_volition,"{""Q0"":6}",[0],W1 wanted to copy M3,M3 wanted to copy W1
3115.800000190735,NA,NA,NA,NA,survey-likert-extra-labels,81,483273,0.0-31.0-3.0-0.0,anomymised,65658308d20c86dae326cedf,656703a8d9dd63c664e4d2c7,42317,2B,woman,NA,NA,W1 is being copied by M3,copy4,rating_causation,"{""Q0"":6}",[0],W1 started copying M3 first,M3 started copying W1 first
null,Kate is teaching Mike,NA,NA,NA,html-keyboard-response,82,485286,0.0-32.0-0.0,anomymised,65658308d20c86dae326cedf,656703a8d9dd63c664e4d2c7,42317,2B,woman,NA,null,W2 is teaching M4,teach,sentence,NA,NA,NA,NA
3529.800000190735,NA,NA,NA,NA,survey-likert-extra-labels,83,488817,0.0-32.0-2.0,anomymised,65658308d20c86dae326cedf,656703a8d9dd63c664e4d2c7,42317,2B,woman,NA,NA,W2 is teaching M4,teach,rating_volition,"{""Q0"":0}",[0],W2 is educating M4,M4 is educating W2
3320,NA,NA,NA,NA,survey-likert-extra-labels,84,492141,0.0-32.0-3.0-0.0,anomymised,65658308d20c86dae326cedf,656703a8d9dd63c664e4d2c7,42317,2B,woman,NA,NA,W2 is teaching M4,teach,rating_causation,"{""Q0"":6}",[0],W2 is learning from M4,M4 is learning from W2
null,Kate is being shouted at by Mike,NA,NA,NA,html-keyboard-response,85,494155,0.0-33.0-0.0,anomymised,65658308d20c86dae326cedf,656703a8d9dd63c664e4d2c7,42317,2B,woman,NA,null,W2 is being shouted at by M4,shout4,sentence,NA,NA,NA,NA
9316.200000286102,NA,NA,NA,NA,survey-likert-extra-labels,86,503473,0.0-33.0-2.0,anomymised,65658308d20c86dae326cedf,656703a8d9dd63c664e4d2c7,42317,2B,woman,NA,NA,W2 is being shouted at by M4,shout4,rating_volition,"{""Q0"":0}",[0],M4 wanted to shout at W2,W2 wanted to shout at M4
34244.09999990463,NA,NA,NA,NA,survey-likert-extra-labels,87,537721,0.0-33.0-3.0-0.0,anomymised,65658308d20c86dae326cedf,656703a8d9dd63c664e4d2c7,42317,2B,woman,NA,NA,W2 is being shouted at by M4,shout4,rating_causation,"{""Q0"":0}",[0],M4 shouted at W2 first,W2 shouted at M4 first
null,Ruth is being looked at by Dave,NA,NA,NA,html-keyboard-response,88,539730,0.0-34.0-0.0,anomymised,65658308d20c86dae326cedf,656703a8d9dd63c664e4d2c7,42317,2B,woman,NA,null,W4 is being looked at by M2,look4,sentence,NA,NA,NA,NA
3029.9000000953674,NA,NA,NA,NA,survey-likert-extra-labels,89,542761,0.0-34.0-2.0,anomymised,65658308d20c86dae326cedf,656703a8d9dd63c664e4d2c7,42317,2B,woman,NA,NA,W4 is being looked at by M2,look4,rating_volition,"{""Q0"":6}",[0],W4 wanted to look at M2,M2 wanted to look at W4
2900.0999999046326,NA,NA,NA,NA,survey-likert-extra-labels,90,545665,0.0-34.0-3.0-0.0,anomymised,65658308d20c86dae326cedf,656703a8d9dd63c664e4d2c7,42317,2B,woman,NA,NA,W4 is being looked at by M2,look4,rating_causation,"{""Q0"":6}",[0],W4 looked at M2 first,M2 looked at W4 first
null,Mike is being greeted by Dave,NA,NA,NA,html-keyboard-response,91,547682,0.0-35.0-0.0,anomymised,65658308d20c86dae326cedf,656703a8d9dd63c664e4d2c7,42317,2B,woman,NA,null,M4 is being greeted by M2,greet2,sentence,NA,NA,NA,NA
5986.200000286102,NA,NA,NA,NA,survey-likert-extra-labels,92,553670,0.0-35.0-1.0-0.0,anomymised,65658308d20c86dae326cedf,656703a8d9dd63c664e4d2c7,42317,2B,woman,NA,NA,M4 is being greeted by M2,greet2,rating_causation,"{""Q0"":0}",[0],M4 started greeting M2 first,M2 started greeting M4 first
8255.199999809265,NA,NA,NA,NA,survey-likert-extra-labels,93,561929,0.0-35.0-2.0,anomymised,65658308d20c86dae326cedf,656703a8d9dd63c664e4d2c7,42317,2B,woman,NA,NA,M4 is being greeted by M2,greet2,rating_volition,"{""Q0"":6}",[0],M4 wanted to greet M2,M2 wanted to greet M4
null,Kate is being seduced by Ruth,NA,NA,NA,html-keyboard-response,94,563943,0.0-36.0-0.0,anomymised,65658308d20c86dae326cedf,656703a8d9dd63c664e4d2c7,42317,2B,woman,NA,null,W2 is being seduced by W4,seduce1,sentence,NA,NA,NA,NA
3089.0999999046326,NA,NA,NA,NA,survey-likert-extra-labels,95,567033,0.0-36.0-2.0,anomymised,65658308d20c86dae326cedf,656703a8d9dd63c664e4d2c7,42317,2B,woman,NA,NA,W2 is being seduced by W4,seduce1,rating_volition,"{""Q0"":0}",[0],W4 wanted to seduce W2,W2 wanted to seduce W4
3648.199999809265,NA,NA,NA,NA,survey-likert-extra-labels,96,570685,0.0-36.0-3.0-0.0,anomymised,65658308d20c86dae326cedf,656703a8d9dd63c664e4d2c7,42317,2B,woman,NA,NA,W2 is being seduced by W4,seduce1,rating_causation,"{""Q0"":0}",[0],W4 started seducing W2 first,W2 started seducing W4 first
null,Dave is being shouted at by Ruth,NA,NA,NA,html-keyboard-response,97,572695,0.0-37.0-0.0,anomymised,65658308d20c86dae326cedf,656703a8d9dd63c664e4d2c7,42317,2B,woman,NA,null,M2 is being shouted at by W4,shout3,sentence,NA,NA,NA,NA
4641.200000286102,NA,NA,NA,NA,survey-likert-extra-labels,98,577338,0.0-37.0-1.0-0.0,anomymised,65658308d20c86dae326cedf,656703a8d9dd63c664e4d2c7,42317,2B,woman,NA,NA,M2 is being shouted at by W4,shout3,rating_causation,"{""Q0"":0}",[0],W4 shouted at M2 first,M2 shouted at W4 first
1979,NA,NA,NA,NA,survey-likert-extra-labels,99,579321,0.0-37.0-2.0,anomymised,65658308d20c86dae326cedf,656703a8d9dd63c664e4d2c7,42317,2B,woman,NA,NA,M2 is being shouted at by W4,shout3,rating_volition,"{""Q0"":3}",[0],W4 wanted to shout at M2,M2 wanted to shout at W4
null,Jane is feeding Fred,NA,NA,NA,html-keyboard-response,100,581335,0.0-38.0-0.0,anomymised,65658308d20c86dae326cedf,656703a8d9dd63c664e4d2c7,42317,2B,woman,NA,null,W3 is feeding M1,feed,sentence,NA,NA,NA,NA
2380.5999999046326,NA,NA,NA,NA,survey-likert-extra-labels,101,583717,0.0-38.0-2.0,anomymised,65658308d20c86dae326cedf,656703a8d9dd63c664e4d2c7,42317,2B,woman,NA,NA,W3 is feeding M1,feed,rating_volition,"{""Q0"":0}",[0],W3 cooked for M1,M1 cooked for W3
4112,NA,NA,NA,NA,survey-likert-extra-labels,102,587833,0.0-38.0-3.0-0.0,anomymised,65658308d20c86dae326cedf,656703a8d9dd63c664e4d2c7,42317,2B,woman,NA,NA,W3 is feeding M1,feed,rating_causation,"{""Q0"":6}",[0],W3 is eating M1's food,M1 is eating W3's food
null,Fred is being shouted at by Luke,NA,NA,NA,html-keyboard-response,103,589849,0.0-39.0-0.0,anomymised,65658308d20c86dae326cedf,656703a8d9dd63c664e4d2c7,42317,2B,woman,NA,null,M1 is being shouted at by M3,shout2,sentence,NA,NA,NA,NA
3350.699999809265,NA,NA,NA,NA,survey-likert-extra-labels,104,593201,0.0-39.0-2.0,anomymised,65658308d20c86dae326cedf,656703a8d9dd63c664e4d2c7,42317,2B,woman,NA,NA,M1 is being shouted at by M3,shout2,rating_volition,"{""Q0"":0}",[0],M3 wanted to shout at M1,M1 wanted to shout at M3
2155.7000002861023,NA,NA,NA,NA,survey-likert-extra-labels,105,595361,0.0-39.0-3.0-0.0,anomymised,65658308d20c86dae326cedf,656703a8d9dd63c664e4d2c7,42317,2B,woman,NA,NA,M1 is being shouted at by M3,shout2,rating_causation,"{""Q0"":0}",[0],M3 shouted at M1 first,M1 shouted at M3 first
null,Jane is being challenged by Fred,NA,NA,NA,html-keyboard-response,106,597380,0.0-40.0-0.0,anomymised,65658308d20c86dae326cedf,656703a8d9dd63c664e4d2c7,42317,2B,woman,NA,null,W3 is being challenged by M1,challenge4,sentence,NA,NA,NA,NA
2283.5999999046326,NA,NA,NA,NA,survey-likert-extra-labels,107,599665,0.0-40.0-1.0-0.0,anomymised,65658308d20c86dae326cedf,656703a8d9dd63c664e4d2c7,42317,2B,woman,NA,NA,W3 is being challenged by M1,challenge4,rating_causation,"{""Q0"":0}",[0],M1 started challenging W3 first,W3 started challenging M1 first
2627.9000000953674,NA,NA,NA,NA,survey-likert-extra-labels,108,602297,0.0-40.0-2.0,anomymised,65658308d20c86dae326cedf,656703a8d9dd63c664e4d2c7,42317,2B,woman,NA,NA,W3 is being challenged by M1,challenge4,rating_volition,"{""Q0"":0}",[0],M1 wanted to challenge W3,W3 wanted to challenge M1
null,Kate is being hugged by Mike,NA,NA,NA,html-keyboard-response,109,604309,0.0-41.0-0.0,anomymised,65658308d20c86dae326cedf,656703a8d9dd63c664e4d2c7,42317,2B,woman,NA,null,W2 is being hugged by M4,hug3,sentence,NA,NA,NA,NA
3011.1000003814697,NA,NA,NA,NA,survey-likert-extra-labels,110,607322,0.0-41.0-2.0,anomymised,65658308d20c86dae326cedf,656703a8d9dd63c664e4d2c7,42317,2B,woman,NA,NA,W2 is being hugged by M4,hug3,rating_volition,"{""Q0"":""""}",[0],M4 wanted to hug W2,W2 wanted to hug M4
1279.5,NA,NA,NA,NA,survey-likert-extra-labels,111,608605,0.0-41.0-3.0-0.0,anomymised,65658308d20c86dae326cedf,656703a8d9dd63c664e4d2c7,42317,2B,woman,NA,NA,W2 is being hugged by M4,hug3,rating_causation,"{""Q0"":0}",[0],M4 asked to hug W2,W2 asked to hug M4
null,Dave is being seduced by Mike,NA,NA,NA,html-keyboard-response,112,610612,0.0-42.0-0.0,anomymised,65658308d20c86dae326cedf,656703a8d9dd63c664e4d2c7,42317,2B,woman,NA,null,M2 is being seduced by M4,seduce2,sentence,NA,NA,NA,NA
4315.400000095367,NA,NA,NA,NA,survey-likert-extra-labels,113,614929,0.0-42.0-2.0,anomymised,65658308d20c86dae326cedf,656703a8d9dd63c664e4d2c7,42317,2B,woman,NA,NA,M2 is being seduced by M4,seduce2,rating_volition,"{""Q0"":0}",[0],M4 wanted to seduce M2,M2 wanted to seduce M4
3004,NA,NA,NA,NA,survey-likert-extra-labels,114,617937,0.0-42.0-3.0-0.0,anomymised,65658308d20c86dae326cedf,656703a8d9dd63c664e4d2c7,42317,2B,woman,NA,NA,M2 is being seduced by M4,seduce2,rating_causation,"{""Q0"":0}",[0],M4 started seducing M2 first,M2 started seducing M4 first
null,Jane is being kissed by Beth,NA,NA,NA,html-keyboard-response,115,619950,0.0-43.0-0.0,anomymised,65658308d20c86dae326cedf,656703a8d9dd63c664e4d2c7,42317,2B,woman,NA,null,W3 is being kissed by W1,kiss1,sentence,NA,NA,NA,NA
2424.5,NA,NA,NA,NA,survey-likert-extra-labels,116,622377,0.0-43.0-1.0-0.0,anomymised,65658308d20c86dae326cedf,656703a8d9dd63c664e4d2c7,42317,2B,woman,NA,NA,W3 is being kissed by W1,kiss1,rating_causation,"{""Q0"":3}",[0],W3 asked to kiss W1,W1 asked to kiss W3
2283.699999809265,NA,NA,NA,NA,survey-likert-extra-labels,117,624665,0.0-43.0-2.0,anomymised,65658308d20c86dae326cedf,656703a8d9dd63c664e4d2c7,42317,2B,woman,NA,NA,W3 is being kissed by W1,kiss1,rating_volition,"{""Q0"":3}",[0],W3 wanted to kiss W1,W1 wanted to kiss W3
null,Beth is chasing Jane,NA,NA,NA,html-keyboard-response,118,626686,0.0-44.0-0.0,anomymised,65658308d20c86dae326cedf,656703a8d9dd63c664e4d2c7,42317,2B,woman,NA,null,W1 is chasing W3,chase,sentence,NA,NA,NA,NA
11530.099999904633,NA,NA,NA,NA,survey-likert-extra-labels,119,638217,0.0-44.0-2.0,anomymised,65658308d20c86dae326cedf,656703a8d9dd63c664e4d2c7,42317,2B,woman,NA,NA,W1 is chasing W3,chase,rating_volition,"{""Q0"":0}",[0],W1 is behind W3,W3 is behind W1
3427.5999999046326,NA,NA,NA,NA,survey-likert-extra-labels,120,641649,0.0-44.0-3.0-0.0,anomymised,65658308d20c86dae326cedf,656703a8d9dd63c664e4d2c7,42317,2B,woman,NA,NA,W1 is chasing W3,chase,rating_causation,"{""Q0"":6}",[0],W1 is running away from W3,W3 is running away from W1
null,Ruth is being copied by Kate,NA,NA,NA,html-keyboard-response,121,643666,0.0-45.0-0.0,anomymised,65658308d20c86dae326cedf,656703a8d9dd63c664e4d2c7,42317,2B,woman,NA,null,W4 is being copied by W2,copy1,sentence,NA,NA,NA,NA
4305.699999809265,NA,NA,NA,NA,survey-likert-extra-labels,122,647973,0.0-45.0-2.0,anomymised,65658308d20c86dae326cedf,656703a8d9dd63c664e4d2c7,42317,2B,woman,NA,NA,W4 is being copied by W2,copy1,rating_volition,"{""Q0"":6}",[0],W4 wanted to copy W2,W2 wanted to copy W4
4423.900000095367,NA,NA,NA,NA,survey-likert-extra-labels,123,652401,0.0-45.0-3.0-0.0,anomymised,65658308d20c86dae326cedf,656703a8d9dd63c664e4d2c7,42317,2B,woman,NA,NA,W4 is being copied by W2,copy1,rating_causation,"{""Q0"":6}",[0],W4 started copying W2 first,W2 started copying W4 first
null,Jane is being seduced by Fred,NA,NA,NA,html-keyboard-response,124,654409,0.0-46.0-0.0,anomymised,65658308d20c86dae326cedf,656703a8d9dd63c664e4d2c7,42317,2B,woman,NA,null,W3 is being seduced by M1,seduce3,sentence,NA,NA,NA,NA
11454.5,NA,NA,NA,NA,survey-likert-extra-labels,125,665865,0.0-46.0-1.0-0.0,anomymised,65658308d20c86dae326cedf,656703a8d9dd63c664e4d2c7,42317,2B,woman,NA,NA,W3 is being seduced by M1,seduce3,rating_causation,"{""Q0"":0}",[0],M1 started seducing W3 first,W3 started seducing M1 first
5943.599999904633,NA,NA,NA,NA,survey-likert-extra-labels,126,671813,0.0-46.0-2.0,anomymised,65658308d20c86dae326cedf,656703a8d9dd63c664e4d2c7,42317,2B,woman,NA,NA,W3 is being seduced by M1,seduce3,rating_volition,"{""Q0"":0}",[0],M1 wanted to seduce W3,W3 wanted to seduce M1
null,Beth is being opposed by Jane,NA,NA,NA,html-keyboard-response,127,673829,0.0-47.0-0.0,anomymised,65658308d20c86dae326cedf,656703a8d9dd63c664e4d2c7,42317,2B,woman,NA,null,W1 is being opposed by W3,oppose1,sentence,NA,NA,NA,NA
4090.0999999046326,NA,NA,NA,NA,survey-likert-extra-labels,128,677921,0.0-47.0-1.0-0.0,anomymised,65658308d20c86dae326cedf,656703a8d9dd63c664e4d2c7,42317,2B,woman,NA,NA,W1 is being opposed by W3,oppose1,rating_causation,"{""Q0"":0}",[0],W3 started opposing W1,W1 started opposing W3
5971.699999809265,NA,NA,NA,NA,survey-likert-extra-labels,129,683897,0.0-47.0-2.0,anomymised,65658308d20c86dae326cedf,656703a8d9dd63c664e4d2c7,42317,2B,woman,NA,NA,W1 is being opposed by W3,oppose1,rating_volition,"{""Q0"":0}",[0],W3 wanted to oppose W1,W1 wanted to oppose W3
null,Luke is being kissed by Fred,NA,NA,NA,html-keyboard-response,130,685903,0.0-48.0-0.0,anomymised,65658308d20c86dae326cedf,656703a8d9dd63c664e4d2c7,42317,2B,woman,NA,null,M3 is being kissed by M1,kiss2,sentence,NA,NA,NA,NA
3568.7999997138977,NA,NA,NA,NA,survey-likert-extra-labels,131,689473,0.0-48.0-1.0-0.0,anomymised,65658308d20c86dae326cedf,656703a8d9dd63c664e4d2c7,42317,2B,woman,NA,NA,M3 is being kissed by M1,kiss2,rating_causation,"{""Q0"":6}",[0],M3 asked to kiss M1,M1 asked to kiss M3
2200.0999999046326,NA,NA,NA,NA,survey-likert-extra-labels,132,691677,0.0-48.0-2.0,anomymised,65658308d20c86dae326cedf,656703a8d9dd63c664e4d2c7,42317,2B,woman,NA,NA,M3 is being kissed by M1,kiss2,rating_volition,"{""Q0"":6}",[0],M3 wanted to kiss M1,M1 wanted to kiss M3
null,Fred is being opposed by Luke,NA,NA,NA,html-keyboard-response,133,693682,0.0-49.0-0.0,anomymised,65658308d20c86dae326cedf,656703a8d9dd63c664e4d2c7,42317,2B,woman,NA,null,M1 is being opposed by M3,oppose2,sentence,NA,NA,NA,NA
2661.5,NA,NA,NA,NA,survey-likert-extra-labels,134,696345,0.0-49.0-2.0,anomymised,65658308d20c86dae326cedf,656703a8d9dd63c664e4d2c7,42317,2B,woman,NA,NA,M1 is being opposed by M3,oppose2,rating_volition,"{""Q0"":0}",[0],M3 wanted to oppose M1,M1 wanted to oppose M3
1632,NA,NA,NA,NA,survey-likert-extra-labels,135,697981,0.0-49.0-3.0-0.0,anomymised,65658308d20c86dae326cedf,656703a8d9dd63c664e4d2c7,42317,2B,woman,NA,NA,M1 is being opposed by M3,oppose2,rating_causation,"{""Q0"":0}",[0],M3 started opposing M1,M1 started opposing M3
null,Dave is being touched by Mike,NA,NA,NA,html-keyboard-response,136,699993,0.0-50.0-0.0,anomymised,65658308d20c86dae326cedf,656703a8d9dd63c664e4d2c7,42317,2B,woman,NA,null,M2 is being touched by M4,touch2,sentence,NA,NA,NA,NA
2558.699999809265,NA,NA,NA,NA,survey-likert-extra-labels,137,702553,0.0-50.0-1.0-0.0,anomymised,65658308d20c86dae326cedf,656703a8d9dd63c664e4d2c7,42317,2B,woman,NA,NA,M2 is being touched by M4,touch2,rating_causation,"{""Q0"":3}",[0],M4 asked to touch M2,M2 asked to touch M4
1404.6000003814697,NA,NA,NA,NA,survey-likert-extra-labels,138,703962,0.0-50.0-2.0,anomymised,65658308d20c86dae326cedf,656703a8d9dd63c664e4d2c7,42317,2B,woman,NA,NA,M2 is being touched by M4,touch2,rating_volition,"{""Q0"":3}",[0],M4 wanted to touch M2,M2 wanted to touch M4
null,Mike is being kissed by Kate,NA,NA,NA,html-keyboard-response,139,705966,0.0-51.0-0.0,anomymised,65658308d20c86dae326cedf,656703a8d9dd63c664e4d2c7,42317,2B,woman,NA,null,M4 is being kissed by W2,kiss4,sentence,NA,NA,NA,NA
2273.5999999046326,NA,NA,NA,NA,survey-likert-extra-labels,140,708241,0.0-51.0-1.0-0.0,anomymised,65658308d20c86dae326cedf,656703a8d9dd63c664e4d2c7,42317,2B,woman,NA,NA,M4 is being kissed by W2,kiss4,rating_causation,"{""Q0"":3}",[0],M4 asked to kiss W2,W2 asked to kiss M4
1292.4000000953674,NA,NA,NA,NA,survey-likert-extra-labels,141,709537,0.0-51.0-2.0,anomymised,65658308d20c86dae326cedf,656703a8d9dd63c664e4d2c7,42317,2B,woman,NA,NA,M4 is being kissed by W2,kiss4,rating_volition,"{""Q0"":3}",[0],M4 wanted to kiss W2,W2 wanted to kiss M4
null,Fred is being greeted by Jane,NA,NA,NA,html-keyboard-response,142,711548,0.0-52.0-0.0,anomymised,65658308d20c86dae326cedf,656703a8d9dd63c664e4d2c7,42317,2B,woman,NA,null,M1 is being greeted by W3,greet4,sentence,NA,NA,NA,NA
3487.2000002861023,NA,NA,NA,NA,survey-likert-extra-labels,143,715037,0.0-52.0-1.0-0.0,anomymised,65658308d20c86dae326cedf,656703a8d9dd63c664e4d2c7,42317,2B,woman,NA,NA,M1 is being greeted by W3,greet4,rating_causation,"{""Q0"":6}",[0],M1 started greeting W3 first,W3 started greeting M1 first
1568.0999999046326,NA,NA,NA,NA,survey-likert-extra-labels,144,716609,0.0-52.0-2.0,anomymised,65658308d20c86dae326cedf,656703a8d9dd63c664e4d2c7,42317,2B,woman,NA,NA,M1 is being greeted by W3,greet4,rating_volition,"{""Q0"":6}",[0],M1 wanted to greet W3,W3 wanted to greet M1
null,Kate is being opposed by Mike,NA,NA,NA,html-keyboard-response,145,718626,0.0-53.0-0.0,anomymised,65658308d20c86dae326cedf,656703a8d9dd63c664e4d2c7,42317,2B,woman,NA,null,W2 is being opposed by M4,oppose3,sentence,NA,NA,NA,NA
3485.9000000953674,NA,NA,NA,NA,survey-likert-extra-labels,146,722113,0.0-53.0-1.0-0.0,anomymised,65658308d20c86dae326cedf,656703a8d9dd63c664e4d2c7,42317,2B,woman,NA,NA,W2 is being opposed by M4,oppose3,rating_causation,"{""Q0"":0}",[0],M4 started opposing W2,W2 started opposing M4
1564,NA,NA,NA,NA,survey-likert-extra-labels,147,723681,0.0-53.0-2.0,anomymised,65658308d20c86dae326cedf,656703a8d9dd63c664e4d2c7,42317,2B,woman,NA,NA,W2 is being opposed by M4,oppose3,rating_volition,"{""Q0"":0}",[0],M4 wanted to oppose W2,W2 wanted to oppose M4
null,Dave is being opposed by Ruth,NA,NA,NA,html-keyboard-response,148,725695,0.0-54.0-0.0,anomymised,65658308d20c86dae326cedf,656703a8d9dd63c664e4d2c7,42317,2B,woman,NA,null,M2 is being opposed by W4,oppose4,sentence,NA,NA,NA,NA
2924.199999809265,NA,NA,NA,NA,survey-likert-extra-labels,149,728621,0.0-54.0-2.0,anomymised,65658308d20c86dae326cedf,656703a8d9dd63c664e4d2c7,42317,2B,woman,NA,NA,M2 is being opposed by W4,oppose4,rating_volition,"{""Q0"":0}",[0],W4 wanted to oppose M2,M2 wanted to oppose W4
1820,NA,NA,NA,NA,survey-likert-extra-labels,150,730445,0.0-54.0-3.0-0.0,anomymised,65658308d20c86dae326cedf,656703a8d9dd63c664e4d2c7,42317,2B,woman,NA,NA,M2 is being opposed by W4,oppose4,rating_causation,"{""Q0"":0}",[0],W4 started opposing M2,M2 started opposing W4
1480.1999998092651,<p>Thank you for completing that task.</p><p>The final part of this session is a short questionnaire.</p><p>Press Continue.</p>,0,Continue,Continue,html-button-response,151,731929,0.0-55.0,anomymised,65658308d20c86dae326cedf,656703a8d9dd63c664e4d2c7,42317,2B,woman,NA,NA,NA,NA,NA,NA,NA,NA,NA
49894.2000002861,NA,NA,NA,NA,survey-text,152,782838,0.0-56.0,anomymised,65658308d20c86dae326cedf,656703a8d9dd63c664e4d2c7,42317,2B,woman,NA,NA,NA,NA,demographics,"{""Q0"":""27"",""Q1"":""English"",""Q2"":""English "",""Q3"":""England "",""Q4"":""British "",""Q5"":""White "",""Q6"":""Female""}",NA,NA,NA
3782.1000003814697,<p>This is the last question - thank you for taking part! Have you lived in the UK for the last 5 years or more?</p>,0,"Yes,No",Yes,html-button-response,153,786621,0.0-57.0,anomymised,65658308d20c86dae326cedf,656703a8d9dd63c664e4d2c7,42317,2B,woman,NA,NA,NA,NA,fiveyears,NA,NA,NA,NA
