rt,stimulus,button_pressed,choices,ChosenStimulus,trial_type,trial_index,time_elapsed,internal_node_id,subject_id,study_id,session_id,subject,list,ppt_gender,url,key_press,sentence_type,verb,test_part,responses,question_order,left_part,right_part
2719,Welcome to the experiment. Press Continue to begin.,0,Continue,Continue,html-button-response,0,2728,0.0-0.0,anomymised,65658117cda9c2da75aaa191,656609d2700b111cf0ffdf2c,4537,2A,man,NA,NA,NA,NA,NA,NA,NA,NA,NA
13500.799999713898,NA,NA,NA,NA,external-html,1,17698,0.0-1.0,anomymised,65658117cda9c2da75aaa191,656609d2700b111cf0ffdf2c,4537,2A,man,consent.html,NA,NA,NA,NA,NA,NA,NA,NA
10333.5,"<p>Welcome.</p><p>In this experiment we will ask you to imagine some situations.</p><p>Each trial starts with a description of an event.</p><p>Then you will see alternative descriptions of that event, and you will rate on a scale how best they match the original description.</p><p>You will give your answer by clicking a button on a rating scale.</p><p>To do this task, you will have to use your imagination to visualise these events.</p><br><p>Ready?</p>",0,Continue,Continue,html-button-response,2,28063,0.0-2.0,anomymised,65658117cda9c2da75aaa191,656609d2700b111cf0ffdf2c,4537,2A,man,NA,NA,NA,NA,NA,NA,NA,NA,NA
3801,"<p>Before the experiment starts, you will watch an example trial. Press 'Continue'.</p>",0,Continue,Continue,html-button-response,3,32870,0.0-3.0,anomymised,65658117cda9c2da75aaa191,656609d2700b111cf0ffdf2c,4537,2A,man,NA,NA,NA,NA,NA,NA,NA,NA,NA
null,The police officer is arresting the robber,NA,NA,NA,html-keyboard-response,4,35887,0.0-4.0,anomymised,65658117cda9c2da75aaa191,656609d2700b111cf0ffdf2c,4537,2A,man,NA,null,NA,NA,NA,NA,NA,NA,NA
19175.5,<img src='img/Example-trial.jpg' style='height:550px;''></img>,0,Continue,Continue,html-button-response,5,55065,0.0-5.0,anomymised,65658117cda9c2da75aaa191,656609d2700b111cf0ffdf2c,4537,2A,man,NA,NA,NA,NA,NA,NA,NA,NA,NA
3824.3999996185303,<p>Ready to start the experiment?</p><br><p><strong>Remember to give an answer by clicking a button on the rating scale.</strong></p><p>Press 'Continue' to begin.</p>,0,Continue,Continue,html-button-response,6,59893,0.0-6.0,anomymised,65658117cda9c2da75aaa191,656609d2700b111cf0ffdf2c,4537,2A,man,NA,NA,NA,NA,NA,NA,NA,NA,NA
null,Jane is being challenged by Fred,NA,NA,NA,html-keyboard-response,7,62919,0.0-7.0-0.0,anomymised,65658117cda9c2da75aaa191,656609d2700b111cf0ffdf2c,4537,2A,man,NA,null,W3 is being challenged by M1,challenge4,sentence,NA,NA,NA,NA
5284.299999713898,NA,NA,NA,NA,survey-likert-extra-labels,8,68215,0.0-7.0-2.0,anomymised,65658117cda9c2da75aaa191,656609d2700b111cf0ffdf2c,4537,2A,man,NA,NA,W3 is being challenged by M1,challenge4,rating_volition,"{""Q0"":6}",[0],W3 wanted to challenge M1,M1 wanted to challenge W3
8915.200000286102,NA,NA,NA,NA,survey-likert-extra-labels,9,77138,0.0-7.0-3.0-0.0,anomymised,65658117cda9c2da75aaa191,656609d2700b111cf0ffdf2c,4537,2A,man,NA,NA,W3 is being challenged by M1,challenge4,rating_causation,"{""Q0"":6}",[0],W3 started challenging M1 first,M1 started challenging W3 first
null,Jane is being kissed by Beth,NA,NA,NA,html-keyboard-response,10,79153,0.0-8.0-0.0,anomymised,65658117cda9c2da75aaa191,656609d2700b111cf0ffdf2c,4537,2A,man,NA,null,W3 is being kissed by W1,kiss1,sentence,NA,NA,NA,NA
5397.599999904633,NA,NA,NA,NA,survey-likert-extra-labels,11,84554,0.0-8.0-2.0,anomymised,65658117cda9c2da75aaa191,656609d2700b111cf0ffdf2c,4537,2A,man,NA,NA,W3 is being kissed by W1,kiss1,rating_volition,"{""Q0"":0}",[0],W1 wanted to kiss W3,W3 wanted to kiss W1
6913.599999904633,NA,NA,NA,NA,survey-likert-extra-labels,12,91476,0.0-8.0-3.0-0.0,anomymised,65658117cda9c2da75aaa191,656609d2700b111cf0ffdf2c,4537,2A,man,NA,NA,W3 is being kissed by W1,kiss1,rating_causation,"{""Q0"":0}",[0],W1 asked to kiss W3,W3 asked to kiss W1
null,Fred is being hugged by Luke,NA,NA,NA,html-keyboard-response,13,93485,0.0-9.0-0.0,anomymised,65658117cda9c2da75aaa191,656609d2700b111cf0ffdf2c,4537,2A,man,NA,null,M1 is being hugged by M3,hug2,sentence,NA,NA,NA,NA
5772.199999809265,NA,NA,NA,NA,survey-likert-extra-labels,14,99261,0.0-9.0-1.0-0.0,anomymised,65658117cda9c2da75aaa191,656609d2700b111cf0ffdf2c,4537,2A,man,NA,NA,M1 is being hugged by M3,hug2,rating_causation,"{""Q0"":6}",[0],M1 asked to hug M3,M3 asked to hug M1
9890.5,NA,NA,NA,NA,survey-likert-extra-labels,15,109159,0.0-9.0-2.0,anomymised,65658117cda9c2da75aaa191,656609d2700b111cf0ffdf2c,4537,2A,man,NA,NA,M1 is being hugged by M3,hug2,rating_volition,"{""Q0"":6}",[0],M1 wanted to hug M3,M3 wanted to hug M1
null,Fred is being opposed by Luke,NA,NA,NA,html-keyboard-response,16,111170,0.0-10.0-0.0,anomymised,65658117cda9c2da75aaa191,656609d2700b111cf0ffdf2c,4537,2A,man,NA,null,M1 is being opposed by M3,oppose2,sentence,NA,NA,NA,NA
6840.599999904633,NA,NA,NA,NA,survey-likert-extra-labels,17,118014,0.0-10.0-1.0-0.0,anomymised,65658117cda9c2da75aaa191,656609d2700b111cf0ffdf2c,4537,2A,man,NA,NA,M1 is being opposed by M3,oppose2,rating_causation,"{""Q0"":6}",[0],M1 started opposing M3,M3 started opposing M1
6000.60000038147,NA,NA,NA,NA,survey-likert-extra-labels,18,124021,0.0-10.0-2.0,anomymised,65658117cda9c2da75aaa191,656609d2700b111cf0ffdf2c,4537,2A,man,NA,NA,M1 is being opposed by M3,oppose2,rating_volition,"{""Q0"":6}",[0],M1 wanted to oppose M3,M3 wanted to oppose M1
null,Luke is being seduced by Beth,NA,NA,NA,html-keyboard-response,19,126033,0.0-11.0-0.0,anomymised,65658117cda9c2da75aaa191,656609d2700b111cf0ffdf2c,4537,2A,man,NA,null,M3 is being seduced by W1,seduce4,sentence,NA,NA,NA,NA
6861,NA,NA,NA,NA,survey-likert-extra-labels,20,132897,0.0-11.0-2.0,anomymised,65658117cda9c2da75aaa191,656609d2700b111cf0ffdf2c,4537,2A,man,NA,NA,M3 is being seduced by W1,seduce4,rating_volition,"{""Q0"":6}",[0],M3 wanted to seducing W1,W1 wanted to seducing M3
7133.89999961853,NA,NA,NA,NA,survey-likert-extra-labels,21,140037,0.0-11.0-3.0-0.0,anomymised,65658117cda9c2da75aaa191,656609d2700b111cf0ffdf2c,4537,2A,man,NA,NA,M3 is being seduced by W1,seduce4,rating_causation,"{""Q0"":6}",[0],M3 started seducing W1 first,W1 started seducing M3 first
null,Dave is being opposed by Ruth,NA,NA,NA,html-keyboard-response,22,142068,0.0-12.0-0.0,anomymised,65658117cda9c2da75aaa191,656609d2700b111cf0ffdf2c,4537,2A,man,NA,null,M2 is being opposed by W4,oppose4,sentence,NA,NA,NA,NA
4411.900000095367,NA,NA,NA,NA,survey-likert-extra-labels,23,146483,0.0-12.0-1.0-0.0,anomymised,65658117cda9c2da75aaa191,656609d2700b111cf0ffdf2c,4537,2A,man,NA,NA,M2 is being opposed by W4,oppose4,rating_causation,"{""Q0"":6}",[0],M2 started opposing W4,W4 started opposing M2
6724.800000190735,NA,NA,NA,NA,survey-likert-extra-labels,24,153217,0.0-12.0-2.0,anomymised,65658117cda9c2da75aaa191,656609d2700b111cf0ffdf2c,4537,2A,man,NA,NA,M2 is being opposed by W4,oppose4,rating_volition,"{""Q0"":6}",[0],M2 wanted to oppose W4,W4 wanted to oppose M2
null,Ruth is being copied by Kate,NA,NA,NA,html-keyboard-response,25,155228,0.0-13.0-0.0,anomymised,65658117cda9c2da75aaa191,656609d2700b111cf0ffdf2c,4537,2A,man,NA,null,W4 is being copied by W2,copy1,sentence,NA,NA,NA,NA
4511.199999809265,NA,NA,NA,NA,survey-likert-extra-labels,26,159743,0.0-13.0-2.0,anomymised,65658117cda9c2da75aaa191,656609d2700b111cf0ffdf2c,4537,2A,man,NA,NA,W4 is being copied by W2,copy1,rating_volition,"{""Q0"":0}",[0],W2 wanted to copy W4,W4 wanted to copy W2
3642.2999997138977,NA,NA,NA,NA,survey-likert-extra-labels,27,163391,0.0-13.0-3.0-0.0,anomymised,65658117cda9c2da75aaa191,656609d2700b111cf0ffdf2c,4537,2A,man,NA,NA,W4 is being copied by W2,copy1,rating_causation,"{""Q0"":0}",[0],W2 started copying W4 first,W4 started copying W2 first
null,Dave is posing for Mike,NA,NA,NA,html-keyboard-response,28,165403,0.0-14.0-0.0,anomymised,65658117cda9c2da75aaa191,656609d2700b111cf0ffdf2c,4537,2A,man,NA,null,M2 is posing for M4,pose,sentence,NA,NA,NA,NA
6880.5,NA,NA,NA,NA,survey-likert-extra-labels,29,172289,0.0-14.0-2.0,anomymised,65658117cda9c2da75aaa191,656609d2700b111cf0ffdf2c,4537,2A,man,NA,NA,M2 is posing for M4,pose,rating_volition,"{""Q0"":0}",[0],M2 is modelling for M4,M4 is modelling for M2
4863.60000038147,NA,NA,NA,NA,survey-likert-extra-labels,30,177160,0.0-14.0-3.0-0.0,anomymised,65658117cda9c2da75aaa191,656609d2700b111cf0ffdf2c,4537,2A,man,NA,NA,M2 is posing for M4,pose,rating_causation,"{""Q0"":6}",[0],M2 is photographing M4,M4 is photographing M2
null,Jane is being looked at by Beth,NA,NA,NA,html-keyboard-response,31,179177,0.0-15.0-0.0,anomymised,65658117cda9c2da75aaa191,656609d2700b111cf0ffdf2c,4537,2A,man,NA,null,W3 is being looked at by W1,look1,sentence,NA,NA,NA,NA
6030.5,NA,NA,NA,NA,survey-likert-extra-labels,32,185211,0.0-15.0-1.0-0.0,anomymised,65658117cda9c2da75aaa191,656609d2700b111cf0ffdf2c,4537,2A,man,NA,NA,W3 is being looked at by W1,look1,rating_causation,"{""Q0"":0}",[0],W1 looked at W3 first,W3 looked at W1 first
7134.699999809265,NA,NA,NA,NA,survey-likert-extra-labels,33,192352,0.0-15.0-2.0,anomymised,65658117cda9c2da75aaa191,656609d2700b111cf0ffdf2c,4537,2A,man,NA,NA,W3 is being looked at by W1,look1,rating_volition,"{""Q0"":0}",[0],W1 wanted to look at W3,W3 wanted to look at W1
null,Beth is being shouted at by Jane,NA,NA,NA,html-keyboard-response,34,194370,0.0-16.0-0.0,anomymised,65658117cda9c2da75aaa191,656609d2700b111cf0ffdf2c,4537,2A,man,NA,null,W1 is being shouted at by W3,shout1,sentence,NA,NA,NA,NA
8243.299999713898,NA,NA,NA,NA,survey-likert-extra-labels,35,202617,0.0-16.0-1.0-0.0,anomymised,65658117cda9c2da75aaa191,656609d2700b111cf0ffdf2c,4537,2A,man,NA,NA,W1 is being shouted at by W3,shout1,rating_causation,"{""Q0"":6}",[0],W1 shouted at W3 first,W3 shouted at W1 first
5646.800000190735,NA,NA,NA,NA,survey-likert-extra-labels,36,208274,0.0-16.0-2.0,anomymised,65658117cda9c2da75aaa191,656609d2700b111cf0ffdf2c,4537,2A,man,NA,NA,W1 is being shouted at by W3,shout1,rating_volition,"{""Q0"":6}",[0],W1 wanted to shout at W3,W3 wanted to shout at W1
null,Kate is carrying Ruth,NA,NA,NA,html-keyboard-response,37,210292,0.0-17.0-0.0,anomymised,65658117cda9c2da75aaa191,656609d2700b111cf0ffdf2c,4537,2A,man,NA,null,W2 is carrying W4,carry,sentence,NA,NA,NA,NA
8361.89999961853,NA,NA,NA,NA,survey-likert-extra-labels,38,218657,0.0-17.0-1.0-0.0,anomymised,65658117cda9c2da75aaa191,656609d2700b111cf0ffdf2c,4537,2A,man,NA,NA,W2 is carrying W4,carry,rating_causation,"{""Q0"":6}",[0],W2 is being moved by W4,W4 is being moved by W2
4581.800000190735,NA,NA,NA,NA,survey-likert-extra-labels,39,223246,0.0-17.0-2.0,anomymised,65658117cda9c2da75aaa191,656609d2700b111cf0ffdf2c,4537,2A,man,NA,NA,W2 is carrying W4,carry,rating_volition,"{""Q0"":0}",[0],W2 is transporting W4,W4 is transporting W2
null,Mike is being copied by Dave,NA,NA,NA,html-keyboard-response,40,225260,0.0-18.0-0.0,anomymised,65658117cda9c2da75aaa191,656609d2700b111cf0ffdf2c,4537,2A,man,NA,null,M4 is being copied by M2,copy2,sentence,NA,NA,NA,NA
4669.199999809265,NA,NA,NA,NA,survey-likert-extra-labels,41,229932,0.0-18.0-1.0-0.0,anomymised,65658117cda9c2da75aaa191,656609d2700b111cf0ffdf2c,4537,2A,man,NA,NA,M4 is being copied by M2,copy2,rating_causation,"{""Q0"":0}",[0],M2 started copying M4 first,M4 started copying M2 first
5586.199999809265,NA,NA,NA,NA,survey-likert-extra-labels,42,235526,0.0-18.0-2.0,anomymised,65658117cda9c2da75aaa191,656609d2700b111cf0ffdf2c,4537,2A,man,NA,NA,M4 is being copied by M2,copy2,rating_volition,"{""Q0"":0}",[0],M2 wanted to copy M4,M4 wanted to copy M2
null,Kate is being shouted at by Mike,NA,NA,NA,html-keyboard-response,43,237543,0.0-19.0-0.0,anomymised,65658117cda9c2da75aaa191,656609d2700b111cf0ffdf2c,4537,2A,man,NA,null,W2 is being shouted at by M4,shout4,sentence,NA,NA,NA,NA
6903.400000095367,NA,NA,NA,NA,survey-likert-extra-labels,44,244450,0.0-19.0-1.0-0.0,anomymised,65658117cda9c2da75aaa191,656609d2700b111cf0ffdf2c,4537,2A,man,NA,NA,W2 is being shouted at by M4,shout4,rating_causation,"{""Q0"":6}",[0],W2 shouted at M4 first,M4 shouted at W2 first
3634.7000002861023,NA,NA,NA,NA,survey-likert-extra-labels,45,248093,0.0-19.0-2.0,anomymised,65658117cda9c2da75aaa191,656609d2700b111cf0ffdf2c,4537,2A,man,NA,NA,W2 is being shouted at by M4,shout4,rating_volition,"{""Q0"":6}",[0],W2 wanted to shout at M4,M4 wanted to shout at W2
null,Jane is being touched by Fred,NA,NA,NA,html-keyboard-response,46,250109,0.0-20.0-0.0,anomymised,65658117cda9c2da75aaa191,656609d2700b111cf0ffdf2c,4537,2A,man,NA,null,W3 is being touched by M1,touch3,sentence,NA,NA,NA,NA
5903.900000095367,NA,NA,NA,NA,survey-likert-extra-labels,47,256016,0.0-20.0-1.0-0.0,anomymised,65658117cda9c2da75aaa191,656609d2700b111cf0ffdf2c,4537,2A,man,NA,NA,W3 is being touched by M1,touch3,rating_causation,"{""Q0"":6}",[0],W3 asked to touch M1,M1 asked to touch W3
5308.299999713898,NA,NA,NA,NA,survey-likert-extra-labels,48,261333,0.0-20.0-2.0,anomymised,65658117cda9c2da75aaa191,656609d2700b111cf0ffdf2c,4537,2A,man,NA,NA,W3 is being touched by M1,touch3,rating_volition,"{""Q0"":6}",[0],W3 wanted to touch M1,M1 wanted to touch W3
null,Luke is being looked at by Fred,NA,NA,NA,html-keyboard-response,49,263345,0.0-21.0-0.0,anomymised,65658117cda9c2da75aaa191,656609d2700b111cf0ffdf2c,4537,2A,man,NA,null,M3 is being looked at by M1,look2,sentence,NA,NA,NA,NA
4322.299999713898,NA,NA,NA,NA,survey-likert-extra-labels,50,267671,0.0-21.0-2.0,anomymised,65658117cda9c2da75aaa191,656609d2700b111cf0ffdf2c,4537,2A,man,NA,NA,M3 is being looked at by M1,look2,rating_volition,"{""Q0"":0}",[0],M1 wanted to look at M3,M3 wanted to look at M1
4404.299999713898,NA,NA,NA,NA,survey-likert-extra-labels,51,272082,0.0-21.0-3.0-0.0,anomymised,65658117cda9c2da75aaa191,656609d2700b111cf0ffdf2c,4537,2A,man,NA,NA,M3 is being looked at by M1,look2,rating_causation,"{""Q0"":0}",[0],M1 looked at M3 first,M3 looked at M1 first
null,Luke is being touched by Beth,NA,NA,NA,html-keyboard-response,52,274128,0.0-22.0-0.0,anomymised,65658117cda9c2da75aaa191,656609d2700b111cf0ffdf2c,4537,2A,man,NA,null,M3 is being touched by W1,touch4,sentence,NA,NA,NA,NA
5431.60000038147,NA,NA,NA,NA,survey-likert-extra-labels,53,279563,0.0-22.0-2.0,anomymised,65658117cda9c2da75aaa191,656609d2700b111cf0ffdf2c,4537,2A,man,NA,NA,M3 is being touched by W1,touch4,rating_volition,"{""Q0"":6}",[0],M3 wanted to touch W1,W1 wanted to touch M3
4019.2000002861023,NA,NA,NA,NA,survey-likert-extra-labels,54,283589,0.0-22.0-3.0-0.0,anomymised,65658117cda9c2da75aaa191,656609d2700b111cf0ffdf2c,4537,2A,man,NA,NA,M3 is being touched by W1,touch4,rating_causation,"{""Q0"":6}",[0],M3 asked to touch W1,W1 asked to touch M3
null,Dave is being seduced by Mike,NA,NA,NA,html-keyboard-response,55,285607,0.0-23.0-0.0,anomymised,65658117cda9c2da75aaa191,656609d2700b111cf0ffdf2c,4537,2A,man,NA,null,M2 is being seduced by M4,seduce2,sentence,NA,NA,NA,NA
5020.39999961853,NA,NA,NA,NA,survey-likert-extra-labels,56,290633,0.0-23.0-1.0-0.0,anomymised,65658117cda9c2da75aaa191,656609d2700b111cf0ffdf2c,4537,2A,man,NA,NA,M2 is being seduced by M4,seduce2,rating_causation,"{""Q0"":6}",[0],M2 started seducing M4 first,M4 started seducing M2 first
4584.799999713898,NA,NA,NA,NA,survey-likert-extra-labels,57,295227,0.0-23.0-2.0,anomymised,65658117cda9c2da75aaa191,656609d2700b111cf0ffdf2c,4537,2A,man,NA,NA,M2 is being seduced by M4,seduce2,rating_volition,"{""Q0"":6}",[0],M2 wanted to seduce M4,M4 wanted to seduce M2
null,Mike is being kissed by Kate,NA,NA,NA,html-keyboard-response,58,297242,0.0-24.0-0.0,anomymised,65658117cda9c2da75aaa191,656609d2700b111cf0ffdf2c,4537,2A,man,NA,null,M4 is being kissed by W2,kiss4,sentence,NA,NA,NA,NA
7206.300000190735,NA,NA,NA,NA,survey-likert-extra-labels,59,304451,0.0-24.0-1.0-0.0,anomymised,65658117cda9c2da75aaa191,656609d2700b111cf0ffdf2c,4537,2A,man,NA,NA,M4 is being kissed by W2,kiss4,rating_causation,"{""Q0"":0}",[0],W2 asked to kiss M4,M4 asked to kiss W2
8405.900000095367,NA,NA,NA,NA,survey-likert-extra-labels,60,312865,0.0-24.0-2.0,anomymised,65658117cda9c2da75aaa191,656609d2700b111cf0ffdf2c,4537,2A,man,NA,NA,M4 is being kissed by W2,kiss4,rating_volition,"{""Q0"":0}",[0],W2 wanted to kiss M4,M4 wanted to kiss W2
null,Kate is being hugged by Mike,NA,NA,NA,html-keyboard-response,61,314876,0.0-25.0-0.0,anomymised,65658117cda9c2da75aaa191,656609d2700b111cf0ffdf2c,4537,2A,man,NA,null,W2 is being hugged by M4,hug3,sentence,NA,NA,NA,NA
3693.199999809265,NA,NA,NA,NA,survey-likert-extra-labels,62,318573,0.0-25.0-2.0,anomymised,65658117cda9c2da75aaa191,656609d2700b111cf0ffdf2c,4537,2A,man,NA,NA,W2 is being hugged by M4,hug3,rating_volition,"{""Q0"":6}",[0],W2 wanted to hug M4,M4 wanted to hug W2
4462.39999961853,NA,NA,NA,NA,survey-likert-extra-labels,63,323042,0.0-25.0-3.0-0.0,anomymised,65658117cda9c2da75aaa191,656609d2700b111cf0ffdf2c,4537,2A,man,NA,NA,W2 is being hugged by M4,hug3,rating_causation,"{""Q0"":6}",[0],W2 asked to hug M4,M4 asked to hug W2
null,Mike is being looked at by Kate,NA,NA,NA,html-keyboard-response,64,325060,0.0-26.0-0.0,anomymised,65658117cda9c2da75aaa191,656609d2700b111cf0ffdf2c,4537,2A,man,NA,null,M4 is being looked at by W2,look3,sentence,NA,NA,NA,NA
2959.7000002861023,NA,NA,NA,NA,survey-likert-extra-labels,65,328024,0.0-26.0-1.0-0.0,anomymised,65658117cda9c2da75aaa191,656609d2700b111cf0ffdf2c,4537,2A,man,NA,NA,M4 is being looked at by W2,look3,rating_causation,"{""Q0"":0}",[0],W2 looked at M4 first,M4 looked at W2 first
3378.3999996185303,NA,NA,NA,NA,survey-likert-extra-labels,66,331408,0.0-26.0-2.0,anomymised,65658117cda9c2da75aaa191,656609d2700b111cf0ffdf2c,4537,2A,man,NA,NA,M4 is being looked at by W2,look3,rating_volition,"{""Q0"":0}",[0],W2 wanted to look at M4,M4 wanted to look at W2
null,Luke is being kissed by Fred,NA,NA,NA,html-keyboard-response,67,333423,0.0-27.0-0.0,anomymised,65658117cda9c2da75aaa191,656609d2700b111cf0ffdf2c,4537,2A,man,NA,null,M3 is being kissed by M1,kiss2,sentence,NA,NA,NA,NA
6684,NA,NA,NA,NA,survey-likert-extra-labels,68,340110,0.0-27.0-1.0-0.0,anomymised,65658117cda9c2da75aaa191,656609d2700b111cf0ffdf2c,4537,2A,man,NA,NA,M3 is being kissed by M1,kiss2,rating_causation,"{""Q0"":0}",[0],M1 asked to kiss M3,M3 asked to kiss M1
4072.5,NA,NA,NA,NA,survey-likert-extra-labels,69,344190,0.0-27.0-2.0,anomymised,65658117cda9c2da75aaa191,656609d2700b111cf0ffdf2c,4537,2A,man,NA,NA,M3 is being kissed by M1,kiss2,rating_volition,"{""Q0"":0}",[0],M1 wanted to kiss M3,M3 wanted to kiss M1
null,Beth is being hugged by Jane,NA,NA,NA,html-keyboard-response,70,346207,0.0-28.0-0.0,anomymised,65658117cda9c2da75aaa191,656609d2700b111cf0ffdf2c,4537,2A,man,NA,null,W1 is being hugged by W3,hug1,sentence,NA,NA,NA,NA
7083.700000286102,NA,NA,NA,NA,survey-likert-extra-labels,71,353293,0.0-28.0-1.0-0.0,anomymised,65658117cda9c2da75aaa191,656609d2700b111cf0ffdf2c,4537,2A,man,NA,NA,W1 is being hugged by W3,hug1,rating_causation,"{""Q0"":6}",[0],W1 asked to hug W3,W3 asked to hug W1
9510.300000190735,NA,NA,NA,NA,survey-likert-extra-labels,72,362809,0.0-28.0-2.0,anomymised,65658117cda9c2da75aaa191,656609d2700b111cf0ffdf2c,4537,2A,man,NA,NA,W1 is being hugged by W3,hug1,rating_volition,"{""Q0"":6}",[0],W1 wanted to hug W3,W3 wanted to hug W1
null,Beth is being opposed by Jane,NA,NA,NA,html-keyboard-response,73,364828,0.0-29.0-0.0,anomymised,65658117cda9c2da75aaa191,656609d2700b111cf0ffdf2c,4537,2A,man,NA,null,W1 is being opposed by W3,oppose1,sentence,NA,NA,NA,NA
5082.599999904633,NA,NA,NA,NA,survey-likert-extra-labels,74,369913,0.0-29.0-2.0,anomymised,65658117cda9c2da75aaa191,656609d2700b111cf0ffdf2c,4537,2A,man,NA,NA,W1 is being opposed by W3,oppose1,rating_volition,"{""Q0"":6}",[0],W1 wanted to oppose W3,W3 wanted to oppose W1
4570.299999713898,NA,NA,NA,NA,survey-likert-extra-labels,75,374492,0.0-29.0-3.0-0.0,anomymised,65658117cda9c2da75aaa191,656609d2700b111cf0ffdf2c,4537,2A,man,NA,NA,W1 is being opposed by W3,oppose1,rating_causation,"{""Q0"":6}",[0],W1 started opposing W3,W3 started opposing W1
null,Beth is being copied by Luke,NA,NA,NA,html-keyboard-response,76,376514,0.0-30.0-0.0,anomymised,65658117cda9c2da75aaa191,656609d2700b111cf0ffdf2c,4537,2A,man,NA,null,W1 is being copied by M3,copy4,sentence,NA,NA,NA,NA
2566.4000000953674,NA,NA,NA,NA,survey-likert-extra-labels,77,379083,0.0-30.0-2.0,anomymised,65658117cda9c2da75aaa191,656609d2700b111cf0ffdf2c,4537,2A,man,NA,NA,W1 is being copied by M3,copy4,rating_volition,"{""Q0"":0}",[0],M3 wanted to copy W1,W1 wanted to copy M3
2681.2999997138977,NA,NA,NA,NA,survey-likert-extra-labels,78,381772,0.0-30.0-3.0-0.0,anomymised,65658117cda9c2da75aaa191,656609d2700b111cf0ffdf2c,4537,2A,man,NA,NA,W1 is being copied by M3,copy4,rating_causation,"{""Q0"":0}",[0],M3 started copying W1 first,W1 started copying M3 first
null,Dave is being touched by Mike,NA,NA,NA,html-keyboard-response,79,383791,0.0-31.0-0.0,anomymised,65658117cda9c2da75aaa191,656609d2700b111cf0ffdf2c,4537,2A,man,NA,null,M2 is being touched by M4,touch2,sentence,NA,NA,NA,NA
2372.2999997138977,NA,NA,NA,NA,survey-likert-extra-labels,80,386167,0.0-31.0-1.0-0.0,anomymised,65658117cda9c2da75aaa191,656609d2700b111cf0ffdf2c,4537,2A,man,NA,NA,M2 is being touched by M4,touch2,rating_causation,"{""Q0"":6}",[0],M2 asked to touch M4,M4 asked to touch M2
2166.2000002861023,NA,NA,NA,NA,survey-likert-extra-labels,81,388339,0.0-31.0-2.0,anomymised,65658117cda9c2da75aaa191,656609d2700b111cf0ffdf2c,4537,2A,man,NA,NA,M2 is being touched by M4,touch2,rating_volition,"{""Q0"":6}",[0],M2 wanted to touch M4,M4 wanted to touch M2
null,Dave is being hugged by Ruth,NA,NA,NA,html-keyboard-response,82,390358,0.0-32.0-0.0,anomymised,65658117cda9c2da75aaa191,656609d2700b111cf0ffdf2c,4537,2A,man,NA,null,M2 is being hugged by W4,hug4,sentence,NA,NA,NA,NA
3912.9000000953674,NA,NA,NA,NA,survey-likert-extra-labels,83,394274,0.0-32.0-1.0-0.0,anomymised,65658117cda9c2da75aaa191,656609d2700b111cf0ffdf2c,4537,2A,man,NA,NA,M2 is being hugged by W4,hug4,rating_causation,"{""Q0"":6}",[0],M2 asked to hug W4,W4 asked to hug M2
2147,NA,NA,NA,NA,survey-likert-extra-labels,84,396427,0.0-32.0-2.0,anomymised,65658117cda9c2da75aaa191,656609d2700b111cf0ffdf2c,4537,2A,man,NA,NA,M2 is being hugged by W4,hug4,rating_volition,"{""Q0"":6}",[0],M2 wanted to hug W4,W4 wanted to hug M2
null,Ruth is being greeted by Kate,NA,NA,NA,html-keyboard-response,85,398440,0.0-33.0-0.0,anomymised,65658117cda9c2da75aaa191,656609d2700b111cf0ffdf2c,4537,2A,man,NA,null,W4 is being greeted by W2,greet1,sentence,NA,NA,NA,NA
2566.7000002861023,NA,NA,NA,NA,survey-likert-extra-labels,86,401010,0.0-33.0-1.0-0.0,anomymised,65658117cda9c2da75aaa191,656609d2700b111cf0ffdf2c,4537,2A,man,NA,NA,W4 is being greeted by W2,greet1,rating_causation,"{""Q0"":0}",[0],W2 started greeting W4 first,W4 started greeting W2 first
2751.1000003814697,NA,NA,NA,NA,survey-likert-extra-labels,87,403771,0.0-33.0-2.0,anomymised,65658117cda9c2da75aaa191,656609d2700b111cf0ffdf2c,4537,2A,man,NA,NA,W4 is being greeted by W2,greet1,rating_volition,"{""Q0"":0}",[0],W2 wanted to greet W4,W4 wanted to greet W2
null,Kate is teaching Mike,NA,NA,NA,html-keyboard-response,88,405775,0.0-34.0-0.0,anomymised,65658117cda9c2da75aaa191,656609d2700b111cf0ffdf2c,4537,2A,man,NA,null,W2 is teaching M4,teach,sentence,NA,NA,NA,NA
3080.9000000953674,NA,NA,NA,NA,survey-likert-extra-labels,89,408859,0.0-34.0-1.0-0.0,anomymised,65658117cda9c2da75aaa191,656609d2700b111cf0ffdf2c,4537,2A,man,NA,NA,W2 is teaching M4,teach,rating_causation,"{""Q0"":6}",[0],W2 is learning from M4,M4 is learning from W2
5383.299999713898,NA,NA,NA,NA,survey-likert-extra-labels,90,414247,0.0-34.0-2.0,anomymised,65658117cda9c2da75aaa191,656609d2700b111cf0ffdf2c,4537,2A,man,NA,NA,W2 is teaching M4,teach,rating_volition,"{""Q0"":0}",[0],W2 is educating M4,M4 is educating W2
null,Dave is being shouted at by Ruth,NA,NA,NA,html-keyboard-response,91,416262,0.0-35.0-0.0,anomymised,65658117cda9c2da75aaa191,656609d2700b111cf0ffdf2c,4537,2A,man,NA,null,M2 is being shouted at by W4,shout3,sentence,NA,NA,NA,NA
5776.300000190735,NA,NA,NA,NA,survey-likert-extra-labels,92,422044,0.0-35.0-2.0,anomymised,65658117cda9c2da75aaa191,656609d2700b111cf0ffdf2c,4537,2A,man,NA,NA,M2 is being shouted at by W4,shout3,rating_volition,"{""Q0"":6}",[0],M2 wanted to shout at W4,W4 wanted to shout at M2
5113.300000190735,NA,NA,NA,NA,survey-likert-extra-labels,93,427167,0.0-35.0-3.0-0.0,anomymised,65658117cda9c2da75aaa191,656609d2700b111cf0ffdf2c,4537,2A,man,NA,NA,M2 is being shouted at by W4,shout3,rating_causation,"{""Q0"":6}",[0],M2 shouted at W4 first,W4 shouted at M2 first
null,Kate is being challenged by Ruth,NA,NA,NA,html-keyboard-response,94,429186,0.0-36.0-0.0,anomymised,65658117cda9c2da75aaa191,656609d2700b111cf0ffdf2c,4537,2A,man,NA,null,W2 is being challenged by W4,challenge1,sentence,NA,NA,NA,NA
2929.0999999046326,NA,NA,NA,NA,survey-likert-extra-labels,95,432118,0.0-36.0-2.0,anomymised,65658117cda9c2da75aaa191,656609d2700b111cf0ffdf2c,4537,2A,man,NA,NA,W2 is being challenged by W4,challenge1,rating_volition,"{""Q0"":6}",[0],W2 wanted to challenge W4,W4 wanted to challenge W2
5501.800000190735,NA,NA,NA,NA,survey-likert-extra-labels,96,437625,0.0-36.0-3.0-0.0,anomymised,65658117cda9c2da75aaa191,656609d2700b111cf0ffdf2c,4537,2A,man,NA,NA,W2 is being challenged by W4,challenge1,rating_causation,"{""Q0"":6}",[0],W2 started challenging W4 first,W4 started challenging W2 first
null,Kate is being touched by Ruth,NA,NA,NA,html-keyboard-response,97,439640,0.0-37.0-0.0,anomymised,65658117cda9c2da75aaa191,656609d2700b111cf0ffdf2c,4537,2A,man,NA,null,W2 is being touched by W4,touch1,sentence,NA,NA,NA,NA
3400.6000003814697,NA,NA,NA,NA,survey-likert-extra-labels,98,443044,0.0-37.0-2.0,anomymised,65658117cda9c2da75aaa191,656609d2700b111cf0ffdf2c,4537,2A,man,NA,NA,W2 is being touched by W4,touch1,rating_volition,"{""Q0"":6}",[0],W2 wanted to touch W4,W4 wanted to touch W2
3152.1000003814697,NA,NA,NA,NA,survey-likert-extra-labels,99,446201,0.0-37.0-3.0-0.0,anomymised,65658117cda9c2da75aaa191,656609d2700b111cf0ffdf2c,4537,2A,man,NA,NA,W2 is being touched by W4,touch1,rating_causation,"{""Q0"":6}",[0],W2 asked to touch W4,W4 asked to touch W2
null,Luke is hiring Beth,NA,NA,NA,html-keyboard-response,100,448209,0.0-38.0-0.0,anomymised,65658117cda9c2da75aaa191,656609d2700b111cf0ffdf2c,4537,2A,man,NA,null,M3 is hiring W1,hire,sentence,NA,NA,NA,NA
5857.5,NA,NA,NA,NA,survey-likert-extra-labels,101,454069,0.0-38.0-2.0,anomymised,65658117cda9c2da75aaa191,656609d2700b111cf0ffdf2c,4537,2A,man,NA,NA,M3 is hiring W1,hire,rating_volition,"{""Q0"":0}",[0],M3 is employing W1,W1 is employing M3
4608.099999904633,NA,NA,NA,NA,survey-likert-extra-labels,102,458685,0.0-38.0-3.0-0.0,anomymised,65658117cda9c2da75aaa191,656609d2700b111cf0ffdf2c,4537,2A,man,NA,NA,M3 is hiring W1,hire,rating_causation,"{""Q0"":6}",[0],M3 will work for W1,W1 will work for M3
null,Dave is being challenged by Mike,NA,NA,NA,html-keyboard-response,103,460703,0.0-39.0-0.0,anomymised,65658117cda9c2da75aaa191,656609d2700b111cf0ffdf2c,4537,2A,man,NA,null,M2 is being challenged by M4,challenge2,sentence,NA,NA,NA,NA
4549.599999904633,NA,NA,NA,NA,survey-likert-extra-labels,104,465255,0.0-39.0-1.0-0.0,anomymised,65658117cda9c2da75aaa191,656609d2700b111cf0ffdf2c,4537,2A,man,NA,NA,M2 is being challenged by M4,challenge2,rating_causation,"{""Q0"":6}",[0],M2 started challenging M4 first,M4 started challenging M2 first
2493.7999997138977,NA,NA,NA,NA,survey-likert-extra-labels,105,467755,0.0-39.0-2.0,anomymised,65658117cda9c2da75aaa191,656609d2700b111cf0ffdf2c,4537,2A,man,NA,NA,M2 is being challenged by M4,challenge2,rating_volition,"{""Q0"":6}",[0],M2 wanted to challenge M4,M4 wanted to challenge M2
null,Fred is being copied by Jane,NA,NA,NA,html-keyboard-response,106,469770,0.0-40.0-0.0,anomymised,65658117cda9c2da75aaa191,656609d2700b111cf0ffdf2c,4537,2A,man,NA,null,M1 is being copied by W3,copy3,sentence,NA,NA,NA,NA
2745.4000000953674,NA,NA,NA,NA,survey-likert-extra-labels,107,472519,0.0-40.0-1.0-0.0,anomymised,65658117cda9c2da75aaa191,656609d2700b111cf0ffdf2c,4537,2A,man,NA,NA,M1 is being copied by W3,copy3,rating_causation,"{""Q0"":0}",[0],W3 started copying M1 first,M1 started copying W3 first
2337.3999996185303,NA,NA,NA,NA,survey-likert-extra-labels,108,474861,0.0-40.0-2.0,anomymised,65658117cda9c2da75aaa191,656609d2700b111cf0ffdf2c,4537,2A,man,NA,NA,M1 is being copied by W3,copy3,rating_volition,"{""Q0"":0}",[0],W3 wanted to copy M1,M1 wanted to copy W3
null,Fred is being greeted by Jane,NA,NA,NA,html-keyboard-response,109,476882,0.0-41.0-0.0,anomymised,65658117cda9c2da75aaa191,656609d2700b111cf0ffdf2c,4537,2A,man,NA,null,M1 is being greeted by W3,greet4,sentence,NA,NA,NA,NA
2968.199999809265,NA,NA,NA,NA,survey-likert-extra-labels,110,479854,0.0-41.0-1.0-0.0,anomymised,65658117cda9c2da75aaa191,656609d2700b111cf0ffdf2c,4537,2A,man,NA,NA,M1 is being greeted by W3,greet4,rating_causation,"{""Q0"":0}",[0],W3 started greeting M1 first,M1 started greeting W3 first
2773.0999999046326,NA,NA,NA,NA,survey-likert-extra-labels,111,482634,0.0-41.0-2.0,anomymised,65658117cda9c2da75aaa191,656609d2700b111cf0ffdf2c,4537,2A,man,NA,NA,M1 is being greeted by W3,greet4,rating_volition,"{""Q0"":0}",[0],W3 wanted to greet M1,M1 wanted to greet W3
null,Dave is reminding Ruth,NA,NA,NA,html-keyboard-response,112,484638,0.0-42.0-0.0,anomymised,65658117cda9c2da75aaa191,656609d2700b111cf0ffdf2c,4537,2A,man,NA,null,M2 is reminding W4,remind,sentence,NA,NA,NA,NA
4085.5,NA,NA,NA,NA,survey-likert-extra-labels,113,488727,0.0-42.0-2.0,anomymised,65658117cda9c2da75aaa191,656609d2700b111cf0ffdf2c,4537,2A,man,NA,NA,M2 is reminding W4,remind,rating_volition,"{""Q0"":0}",[0],M2 is telling W4 again,W4 is telling M2 again
4778.099999904633,NA,NA,NA,NA,survey-likert-extra-labels,114,493511,0.0-42.0-3.0-0.0,anomymised,65658117cda9c2da75aaa191,656609d2700b111cf0ffdf2c,4537,2A,man,NA,NA,M2 is reminding W4,remind,rating_causation,"{""Q0"":6}",[0],M2 is remembering,W4 is remembering
null,Luke is being challenged by Beth,NA,NA,NA,html-keyboard-response,115,495520,0.0-43.0-0.0,anomymised,65658117cda9c2da75aaa191,656609d2700b111cf0ffdf2c,4537,2A,man,NA,null,M3 is being challenged by W1,challenge3,sentence,NA,NA,NA,NA
3665.5,NA,NA,NA,NA,survey-likert-extra-labels,116,499188,0.0-43.0-1.0-0.0,anomymised,65658117cda9c2da75aaa191,656609d2700b111cf0ffdf2c,4537,2A,man,NA,NA,M3 is being challenged by W1,challenge3,rating_causation,"{""Q0"":6}",[0],M3 started challenging W1 first,W1 started challenging M3 first
2178.800000190735,NA,NA,NA,NA,survey-likert-extra-labels,117,501372,0.0-43.0-2.0,anomymised,65658117cda9c2da75aaa191,656609d2700b111cf0ffdf2c,4537,2A,man,NA,NA,M3 is being challenged by W1,challenge3,rating_volition,"{""Q0"":6}",[0],M3 wanted to challenge W1,W1 wanted to challenge M3
null,Fred is being shouted at by Luke,NA,NA,NA,html-keyboard-response,118,503388,0.0-44.0-0.0,anomymised,65658117cda9c2da75aaa191,656609d2700b111cf0ffdf2c,4537,2A,man,NA,null,M1 is being shouted at by M3,shout2,sentence,NA,NA,NA,NA
4662.599999904633,NA,NA,NA,NA,survey-likert-extra-labels,119,508053,0.0-44.0-2.0,anomymised,65658117cda9c2da75aaa191,656609d2700b111cf0ffdf2c,4537,2A,man,NA,NA,M1 is being shouted at by M3,shout2,rating_volition,"{""Q0"":6}",[0],M1 wanted to shout at M3,M3 wanted to shout at M1
2495.3999996185303,NA,NA,NA,NA,survey-likert-extra-labels,120,510555,0.0-44.0-3.0-0.0,anomymised,65658117cda9c2da75aaa191,656609d2700b111cf0ffdf2c,4537,2A,man,NA,NA,M1 is being shouted at by M3,shout2,rating_causation,"{""Q0"":6}",[0],M1 shouted at M3 first,M3 shouted at M1 first
null,Beth is chasing Jane,NA,NA,NA,html-keyboard-response,121,512559,0.0-45.0-0.0,anomymised,65658117cda9c2da75aaa191,656609d2700b111cf0ffdf2c,4537,2A,man,NA,null,W1 is chasing W3,chase,sentence,NA,NA,NA,NA
13830.799999713898,NA,NA,NA,NA,survey-likert-extra-labels,122,526392,0.0-45.0-2.0,anomymised,65658117cda9c2da75aaa191,656609d2700b111cf0ffdf2c,4537,2A,man,NA,NA,W1 is chasing W3,chase,rating_volition,"{""Q0"":0}",[0],W1 is behind W3,W3 is behind W1
4493.200000286102,NA,NA,NA,NA,survey-likert-extra-labels,123,530894,0.0-45.0-3.0-0.0,anomymised,65658117cda9c2da75aaa191,656609d2700b111cf0ffdf2c,4537,2A,man,NA,NA,W1 is chasing W3,chase,rating_causation,"{""Q0"":6}",[0],W1 is running away from W3,W3 is running away from W1
null,Kate is being seduced by Ruth,NA,NA,NA,html-keyboard-response,124,532921,0.0-46.0-0.0,anomymised,65658117cda9c2da75aaa191,656609d2700b111cf0ffdf2c,4537,2A,man,NA,null,W2 is being seduced by W4,seduce1,sentence,NA,NA,NA,NA
4246.400000095367,NA,NA,NA,NA,survey-likert-extra-labels,125,537171,0.0-46.0-2.0,anomymised,65658117cda9c2da75aaa191,656609d2700b111cf0ffdf2c,4537,2A,man,NA,NA,W2 is being seduced by W4,seduce1,rating_volition,"{""Q0"":6}",[0],W2 wanted to seduce W4,W4 wanted to seduce W2
2428.2999997138977,NA,NA,NA,NA,survey-likert-extra-labels,126,539606,0.0-46.0-3.0-0.0,anomymised,65658117cda9c2da75aaa191,656609d2700b111cf0ffdf2c,4537,2A,man,NA,NA,W2 is being seduced by W4,seduce1,rating_causation,"{""Q0"":6}",[0],W2 started seducing W4 first,W4 started seducing W2 first
null,Jane is being seduced by Fred,NA,NA,NA,html-keyboard-response,127,541633,0.0-47.0-0.0,anomymised,65658117cda9c2da75aaa191,656609d2700b111cf0ffdf2c,4537,2A,man,NA,null,W3 is being seduced by M1,seduce3,sentence,NA,NA,NA,NA
2853.800000190735,NA,NA,NA,NA,survey-likert-extra-labels,128,544495,0.0-47.0-1.0-0.0,anomymised,65658117cda9c2da75aaa191,656609d2700b111cf0ffdf2c,4537,2A,man,NA,NA,W3 is being seduced by M1,seduce3,rating_causation,"{""Q0"":6}",[0],W3 started seducing M1 first,M1 started seducing W3 first
2799.9000000953674,NA,NA,NA,NA,survey-likert-extra-labels,129,547303,0.0-47.0-2.0,anomymised,65658117cda9c2da75aaa191,656609d2700b111cf0ffdf2c,4537,2A,man,NA,NA,W3 is being seduced by M1,seduce3,rating_volition,"{""Q0"":6}",[0],W3 wanted to seduce M1,M1 wanted to seduce W3
null,Fred is driving Luke,NA,NA,NA,html-keyboard-response,130,549325,0.0-48.0-0.0,anomymised,65658117cda9c2da75aaa191,656609d2700b111cf0ffdf2c,4537,2A,man,NA,null,M1 is driving M3,drive,sentence,NA,NA,NA,NA
7109.700000286102,NA,NA,NA,NA,survey-likert-extra-labels,131,556438,0.0-48.0-2.0,anomymised,65658117cda9c2da75aaa191,656609d2700b111cf0ffdf2c,4537,2A,man,NA,NA,M1 is driving M3,drive,rating_volition,"{""Q0"":6}",[0],M1 is M3's passenger,M3 is M1's passenger
4308.5,NA,NA,NA,NA,survey-likert-extra-labels,132,560752,0.0-48.0-3.0-0.0,anomymised,65658117cda9c2da75aaa191,656609d2700b111cf0ffdf2c,4537,2A,man,NA,NA,M1 is driving M3,drive,rating_causation,"{""Q0"":0}",[0],M1 is taking M3 somewhere,M3 is taking M1 somewhere
null,Ruth is being kissed by Dave,NA,NA,NA,html-keyboard-response,133,562775,0.0-49.0-0.0,anomymised,65658117cda9c2da75aaa191,656609d2700b111cf0ffdf2c,4537,2A,man,NA,null,W4 is being kissed by M2,kiss3,sentence,NA,NA,NA,NA
2268.0999999046326,NA,NA,NA,NA,survey-likert-extra-labels,134,565079,0.0-49.0-1.0-0.0,anomymised,65658117cda9c2da75aaa191,656609d2700b111cf0ffdf2c,4537,2A,man,NA,NA,W4 is being kissed by M2,kiss3,rating_causation,"{""Q0"":0}",[0],M2 asked to kiss W4,W4 asked to kiss M2
2822.4000000953674,NA,NA,NA,NA,survey-likert-extra-labels,135,567909,0.0-49.0-2.0,anomymised,65658117cda9c2da75aaa191,656609d2700b111cf0ffdf2c,4537,2A,man,NA,NA,W4 is being kissed by M2,kiss3,rating_volition,"{""Q0"":0}",[0],M2 wanted to kiss W4,W4 wanted to kiss M2
null,Jane is feeding Fred,NA,NA,NA,html-keyboard-response,136,569921,0.0-50.0-0.0,anomymised,65658117cda9c2da75aaa191,656609d2700b111cf0ffdf2c,4537,2A,man,NA,null,W3 is feeding M1,feed,sentence,NA,NA,NA,NA
3929.5999999046326,NA,NA,NA,NA,survey-likert-extra-labels,137,573854,0.0-50.0-2.0,anomymised,65658117cda9c2da75aaa191,656609d2700b111cf0ffdf2c,4537,2A,man,NA,NA,W3 is feeding M1,feed,rating_volition,"{""Q0"":0}",[0],W3 cooked for M1,M1 cooked for W3
3587.5,NA,NA,NA,NA,survey-likert-extra-labels,138,577447,0.0-50.0-3.0-0.0,anomymised,65658117cda9c2da75aaa191,656609d2700b111cf0ffdf2c,4537,2A,man,NA,NA,W3 is feeding M1,feed,rating_causation,"{""Q0"":6}",[0],W3 is eating M1's food,M1 is eating W3's food
null,Mike is being greeted by Dave,NA,NA,NA,html-keyboard-response,139,579453,0.0-51.0-0.0,anomymised,65658117cda9c2da75aaa191,656609d2700b111cf0ffdf2c,4537,2A,man,NA,null,M4 is being greeted by M2,greet2,sentence,NA,NA,NA,NA
3361.1000003814697,NA,NA,NA,NA,survey-likert-extra-labels,140,582818,0.0-51.0-1.0-0.0,anomymised,65658117cda9c2da75aaa191,656609d2700b111cf0ffdf2c,4537,2A,man,NA,NA,M4 is being greeted by M2,greet2,rating_causation,"{""Q0"":0}",[0],M2 started greeting M4 first,M4 started greeting M2 first
2962.9000000953674,NA,NA,NA,NA,survey-likert-extra-labels,141,585788,0.0-51.0-2.0,anomymised,65658117cda9c2da75aaa191,656609d2700b111cf0ffdf2c,4537,2A,man,NA,NA,M4 is being greeted by M2,greet2,rating_volition,"{""Q0"":0}",[0],M2 wanted to greet M4,M4 wanted to greet M2
null,Kate is being opposed by Mike,NA,NA,NA,html-keyboard-response,142,587805,0.0-52.0-0.0,anomymised,65658117cda9c2da75aaa191,656609d2700b111cf0ffdf2c,4537,2A,man,NA,null,W2 is being opposed by M4,oppose3,sentence,NA,NA,NA,NA
2311.5,NA,NA,NA,NA,survey-likert-extra-labels,143,590120,0.0-52.0-1.0-0.0,anomymised,65658117cda9c2da75aaa191,656609d2700b111cf0ffdf2c,4537,2A,man,NA,NA,W2 is being opposed by M4,oppose3,rating_causation,"{""Q0"":6}",[0],W2 started opposing M4,M4 started opposing W2
1871.0999999046326,NA,NA,NA,NA,survey-likert-extra-labels,144,591996,0.0-52.0-2.0,anomymised,65658117cda9c2da75aaa191,656609d2700b111cf0ffdf2c,4537,2A,man,NA,NA,W2 is being opposed by M4,oppose3,rating_volition,"{""Q0"":6}",[0],W2 wanted to oppose M4,M4 wanted to oppose W2
null,Ruth is being looked at by Dave,NA,NA,NA,html-keyboard-response,145,594009,0.0-53.0-0.0,anomymised,65658117cda9c2da75aaa191,656609d2700b111cf0ffdf2c,4537,2A,man,NA,null,W4 is being looked at by M2,look4,sentence,NA,NA,NA,NA
2689.5,NA,NA,NA,NA,survey-likert-extra-labels,146,596702,0.0-53.0-1.0-0.0,anomymised,65658117cda9c2da75aaa191,656609d2700b111cf0ffdf2c,4537,2A,man,NA,NA,W4 is being looked at by M2,look4,rating_causation,"{""Q0"":0}",[0],M2 looked at W4 first,W4 looked at M2 first
2651.9000000953674,NA,NA,NA,NA,survey-likert-extra-labels,147,599360,0.0-53.0-2.0,anomymised,65658117cda9c2da75aaa191,656609d2700b111cf0ffdf2c,4537,2A,man,NA,NA,W4 is being looked at by M2,look4,rating_volition,"{""Q0"":0}",[0],M2 wanted to look at W4,W4 wanted to look at M2
null,Beth is being greeted by Luke,NA,NA,NA,html-keyboard-response,148,601370,0.0-54.0-0.0,anomymised,65658117cda9c2da75aaa191,656609d2700b111cf0ffdf2c,4537,2A,man,NA,null,W1 is being greeted by M3,greet3,sentence,NA,NA,NA,NA
2423.300000190735,NA,NA,NA,NA,survey-likert-extra-labels,149,603796,0.0-54.0-1.0-0.0,anomymised,65658117cda9c2da75aaa191,656609d2700b111cf0ffdf2c,4537,2A,man,NA,NA,W1 is being greeted by M3,greet3,rating_causation,"{""Q0"":0}",[0],M3 started greeting W1 first,W1 started greeting M3 first
2199.800000190735,NA,NA,NA,NA,survey-likert-extra-labels,150,606002,0.0-54.0-2.0,anomymised,65658117cda9c2da75aaa191,656609d2700b111cf0ffdf2c,4537,2A,man,NA,NA,W1 is being greeted by M3,greet3,rating_volition,"{""Q0"":0}",[0],M3 wanted to greet W1,W1 wanted to greet M3
2651.800000190735,<p>Thank you for completing that task.</p><p>The final part of this session is a short questionnaire.</p><p>Press Continue.</p>,0,Continue,Continue,html-button-response,151,608659,0.0-55.0,anomymised,65658117cda9c2da75aaa191,656609d2700b111cf0ffdf2c,4537,2A,man,NA,NA,NA,NA,NA,NA,NA,NA,NA
35089.800000190735,NA,NA,NA,NA,survey-text,152,644800,0.0-56.0,anomymised,65658117cda9c2da75aaa191,656609d2700b111cf0ffdf2c,4537,2A,man,NA,NA,NA,NA,demographics,"{""Q0"":""24"",""Q1"":""English"",""Q2"":""English"",""Q3"":""United Kingdom"",""Q4"":""British"",""Q5"":""White"",""Q6"":""Female""}",NA,NA,NA
6133.199999809265,<p>This is the last question - thank you for taking part! Have you lived in the UK for the last 5 years or more?</p>,0,"Yes,No",Yes,html-button-response,153,650942,0.0-57.0,anomymised,65658117cda9c2da75aaa191,656609d2700b111cf0ffdf2c,4537,2A,man,NA,NA,NA,NA,fiveyears,NA,NA,NA,NA
