rt,stimulus,button_pressed,choices,ChosenStimulus,trial_type,trial_index,time_elapsed,internal_node_id,subject_id,study_id,session_id,subject,list,ppt_gender,url,key_press,sentence_type,verb,test_part,responses,question_order,left_part,right_part
2117.1999999284744,Welcome to the experiment. Press Continue to begin.,0,Continue,Continue,html-button-response,0,2119,0.0-0.0,anomymised,6560bfa89caa13ce6a65a5b5,6565e3cf991843574412fa48,47422,1A,woman,NA,NA,NA,NA,NA,NA,NA,NA,NA
30004.100000023842,NA,NA,NA,NA,external-html,1,33165,0.0-1.0,anomymised,6560bfa89caa13ce6a65a5b5,6565e3cf991843574412fa48,47422,1A,woman,consent.html,NA,NA,NA,NA,NA,NA,NA,NA
10478.5,"<p>Welcome.</p><p>In this experiment we will ask you to imagine some situations.</p><p>Each trial starts with a description of an event.</p><p>Then you will see alternative descriptions of that event, and you will rate on a scale how best they match the original description.</p><p>You will give your answer by clicking a button on a rating scale.</p><p>To do this task, you will have to use your imagination to visualise these events.</p><br><p>Ready?</p>",0,Continue,Continue,html-button-response,2,43645,0.0-2.0,anomymised,6560bfa89caa13ce6a65a5b5,6565e3cf991843574412fa48,47422,1A,woman,NA,NA,NA,NA,NA,NA,NA,NA,NA
3264.5,"<p>Before the experiment starts, you will watch an example trial. Press 'Continue'.</p>",0,Continue,Continue,html-button-response,3,47911,0.0-3.0,anomymised,6560bfa89caa13ce6a65a5b5,6565e3cf991843574412fa48,47422,1A,woman,NA,NA,NA,NA,NA,NA,NA,NA,NA
null,The police officer is arresting the robber,NA,NA,NA,html-keyboard-response,4,50918,0.0-4.0,anomymised,6560bfa89caa13ce6a65a5b5,6565e3cf991843574412fa48,47422,1A,woman,NA,null,NA,NA,NA,NA,NA,NA,NA
12785.799999952316,<img src='img/Example-trial.jpg' style='height:550px;''></img>,0,Continue,Continue,html-button-response,5,63705,0.0-5.0,anomymised,6560bfa89caa13ce6a65a5b5,6565e3cf991843574412fa48,47422,1A,woman,NA,NA,NA,NA,NA,NA,NA,NA,NA
3118.7999999523163,<p>Ready to start the experiment?</p><br><p><strong>Remember to give an answer by clicking a button on the rating scale.</strong></p><p>Press 'Continue' to begin.</p>,0,Continue,Continue,html-button-response,6,67830,0.0-6.0,anomymised,6560bfa89caa13ce6a65a5b5,6565e3cf991843574412fa48,47422,1A,woman,NA,NA,NA,NA,NA,NA,NA,NA,NA
null,Mike is reminding Beth,NA,NA,NA,html-keyboard-response,7,70832,0.0-7.0-0.0,anomymised,6560bfa89caa13ce6a65a5b5,6565e3cf991843574412fa48,47422,1A,woman,NA,null,M2 is reminding W4,remind,sentence,NA,NA,NA,NA
10114.899999976158,NA,NA,NA,NA,survey-likert-extra-labels,8,80948,0.0-7.0-1.0-0.0,anomymised,6560bfa89caa13ce6a65a5b5,6565e3cf991843574412fa48,47422,1A,woman,NA,NA,M2 is reminding W4,remind,rating_causation,"{""Q0"":4}",[0],M2 is remembering,W4 is remembering
8588,NA,NA,NA,NA,survey-likert-extra-labels,9,89539,0.0-7.0-2.0,anomymised,6560bfa89caa13ce6a65a5b5,6565e3cf991843574412fa48,47422,1A,woman,NA,NA,M2 is reminding W4,remind,rating_volition,"{""Q0"":1}",[0],M2 is telling W4 again,W4 is telling M2 again
null,Dave is being kissed by Jane,NA,NA,NA,html-keyboard-response,10,91541,0.0-8.0-0.0,anomymised,6560bfa89caa13ce6a65a5b5,6565e3cf991843574412fa48,47422,1A,woman,NA,null,M4 is being kissed by W2,kiss4,sentence,NA,NA,NA,NA
11185.700000047684,NA,NA,NA,NA,survey-likert-extra-labels,11,102728,0.0-8.0-1.0-0.0,anomymised,6560bfa89caa13ce6a65a5b5,6565e3cf991843574412fa48,47422,1A,woman,NA,NA,M4 is being kissed by W2,kiss4,rating_causation,"{""Q0"":2}",[0],W2 asked to kiss M4,M4 asked to kiss W2
9155.200000047684,NA,NA,NA,NA,survey-likert-extra-labels,12,111885,0.0-8.0-2.0,anomymised,6560bfa89caa13ce6a65a5b5,6565e3cf991843574412fa48,47422,1A,woman,NA,NA,M4 is being kissed by W2,kiss4,rating_volition,"{""Q0"":1}",[0],W2 wanted to kiss M4,M4 wanted to kiss W2
null,Ruth is being hugged by Kate,NA,NA,NA,html-keyboard-response,13,113887,0.0-9.0-0.0,anomymised,6560bfa89caa13ce6a65a5b5,6565e3cf991843574412fa48,47422,1A,woman,NA,null,W1 is being hugged by W3,hug1,sentence,NA,NA,NA,NA
10018,NA,NA,NA,NA,survey-likert-extra-labels,14,123906,0.0-9.0-1.0-0.0,anomymised,6560bfa89caa13ce6a65a5b5,6565e3cf991843574412fa48,47422,1A,woman,NA,NA,W1 is being hugged by W3,hug1,rating_causation,"{""Q0"":4}",[0],W1 asked to hug W3,W3 asked to hug W1
8051.600000023842,NA,NA,NA,NA,survey-likert-extra-labels,15,131959,0.0-9.0-2.0,anomymised,6560bfa89caa13ce6a65a5b5,6565e3cf991843574412fa48,47422,1A,woman,NA,NA,W1 is being hugged by W3,hug1,rating_volition,"{""Q0"":5}",[0],W1 wanted to hug W3,W3 wanted to hug W1
null,Jane is being opposed by Dave,NA,NA,NA,html-keyboard-response,16,133964,0.0-10.0-0.0,anomymised,6560bfa89caa13ce6a65a5b5,6565e3cf991843574412fa48,47422,1A,woman,NA,null,W2 is being opposed by M4,oppose3,sentence,NA,NA,NA,NA
8405.700000047684,NA,NA,NA,NA,survey-likert-extra-labels,17,142370,0.0-10.0-2.0,anomymised,6560bfa89caa13ce6a65a5b5,6565e3cf991843574412fa48,47422,1A,woman,NA,NA,W2 is being opposed by M4,oppose3,rating_volition,"{""Q0"":5}",[0],W2 wanted to oppose M4,M4 wanted to oppose W2
9282.400000095367,NA,NA,NA,NA,survey-likert-extra-labels,18,151654,0.0-10.0-3.0-0.0,anomymised,6560bfa89caa13ce6a65a5b5,6565e3cf991843574412fa48,47422,1A,woman,NA,NA,W2 is being opposed by M4,oppose3,rating_causation,"{""Q0"":6}",[0],W2 started opposing M4,M4 started opposing W2
null,Beth is being kissed by Mike,NA,NA,NA,html-keyboard-response,19,153661,0.0-11.0-0.0,anomymised,6560bfa89caa13ce6a65a5b5,6565e3cf991843574412fa48,47422,1A,woman,NA,null,W4 is being kissed by M2,kiss3,sentence,NA,NA,NA,NA
7491.400000095367,NA,NA,NA,NA,survey-likert-extra-labels,20,161153,0.0-11.0-1.0-0.0,anomymised,6560bfa89caa13ce6a65a5b5,6565e3cf991843574412fa48,47422,1A,woman,NA,NA,W4 is being kissed by M2,kiss3,rating_causation,"{""Q0"":1}",[0],M2 asked to kiss W4,W4 asked to kiss M2
5854.600000023842,NA,NA,NA,NA,survey-likert-extra-labels,21,167009,0.0-11.0-2.0,anomymised,6560bfa89caa13ce6a65a5b5,6565e3cf991843574412fa48,47422,1A,woman,NA,NA,W4 is being kissed by M2,kiss3,rating_volition,"{""Q0"":1}",[0],M2 wanted to kiss W4,W4 wanted to kiss M2
null,Dave is being greeted by Mike,NA,NA,NA,html-keyboard-response,22,169014,0.0-12.0-0.0,anomymised,6560bfa89caa13ce6a65a5b5,6565e3cf991843574412fa48,47422,1A,woman,NA,null,M4 is being greeted by M2,greet2,sentence,NA,NA,NA,NA
11212.200000047684,NA,NA,NA,NA,survey-likert-extra-labels,23,180227,0.0-12.0-1.0-0.0,anomymised,6560bfa89caa13ce6a65a5b5,6565e3cf991843574412fa48,47422,1A,woman,NA,NA,M4 is being greeted by M2,greet2,rating_causation,"{""Q0"":1}",[0],M2 started greeting M4 first,M4 started greeting M2 first
9617.599999904633,NA,NA,NA,NA,survey-likert-extra-labels,24,189846,0.0-12.0-2.0,anomymised,6560bfa89caa13ce6a65a5b5,6565e3cf991843574412fa48,47422,1A,woman,NA,NA,M4 is being greeted by M2,greet2,rating_volition,"{""Q0"":0}",[0],M2 wanted to greet M4,M4 wanted to greet M2
null,Beth is being looked at by Mike,NA,NA,NA,html-keyboard-response,25,191848,0.0-13.0-0.0,anomymised,6560bfa89caa13ce6a65a5b5,6565e3cf991843574412fa48,47422,1A,woman,NA,null,W4 is being looked at by M2,look4,sentence,NA,NA,NA,NA
6419.599999904633,NA,NA,NA,NA,survey-likert-extra-labels,26,198269,0.0-13.0-1.0-0.0,anomymised,6560bfa89caa13ce6a65a5b5,6565e3cf991843574412fa48,47422,1A,woman,NA,NA,W4 is being looked at by M2,look4,rating_causation,"{""Q0"":1}",[0],M2 looked at W4 first,W4 looked at M2 first
10450.600000023842,NA,NA,NA,NA,survey-likert-extra-labels,27,208721,0.0-13.0-2.0,anomymised,6560bfa89caa13ce6a65a5b5,6565e3cf991843574412fa48,47422,1A,woman,NA,NA,W4 is being looked at by M2,look4,rating_volition,"{""Q0"":0}",[0],M2 wanted to look at W4,W4 wanted to look at M2
null,Ruth is being copied by Fred,NA,NA,NA,html-keyboard-response,28,210727,0.0-14.0-0.0,anomymised,6560bfa89caa13ce6a65a5b5,6565e3cf991843574412fa48,47422,1A,woman,NA,null,W1 is being copied by M3,copy4,sentence,NA,NA,NA,NA
5667.5,NA,NA,NA,NA,survey-likert-extra-labels,29,216395,0.0-14.0-1.0-0.0,anomymised,6560bfa89caa13ce6a65a5b5,6565e3cf991843574412fa48,47422,1A,woman,NA,NA,W1 is being copied by M3,copy4,rating_causation,"{""Q0"":1}",[0],M3 started copying W1 first,W1 started copying M3 first
6359,NA,NA,NA,NA,survey-likert-extra-labels,30,222756,0.0-14.0-2.0,anomymised,6560bfa89caa13ce6a65a5b5,6565e3cf991843574412fa48,47422,1A,woman,NA,NA,W1 is being copied by M3,copy4,rating_volition,"{""Q0"":0}",[0],M3 wanted to copy W1,W1 wanted to copy M3
null,Mike is being shouted at by Beth,NA,NA,NA,html-keyboard-response,31,224762,0.0-15.0-0.0,anomymised,6560bfa89caa13ce6a65a5b5,6565e3cf991843574412fa48,47422,1A,woman,NA,null,M2 is being shouted at by W4,shout3,sentence,NA,NA,NA,NA
8021.100000023842,NA,NA,NA,NA,survey-likert-extra-labels,32,232784,0.0-15.0-2.0,anomymised,6560bfa89caa13ce6a65a5b5,6565e3cf991843574412fa48,47422,1A,woman,NA,NA,M2 is being shouted at by W4,shout3,rating_volition,"{""Q0"":0}",[0],M2 wanted to shout at W4,W4 wanted to shout at M2
7710.600000023842,NA,NA,NA,NA,survey-likert-extra-labels,33,240496,0.0-15.0-3.0-0.0,anomymised,6560bfa89caa13ce6a65a5b5,6565e3cf991843574412fa48,47422,1A,woman,NA,NA,M2 is being shouted at by W4,shout3,rating_causation,"{""Q0"":2}",[0],M2 shouted at W4 first,W4 shouted at M2 first
null,Luke is being hugged by Fred,NA,NA,NA,html-keyboard-response,34,242502,0.0-16.0-0.0,anomymised,6560bfa89caa13ce6a65a5b5,6565e3cf991843574412fa48,47422,1A,woman,NA,null,M1 is being hugged by M3,hug2,sentence,NA,NA,NA,NA
5993.600000023842,NA,NA,NA,NA,survey-likert-extra-labels,35,248497,0.0-16.0-1.0-0.0,anomymised,6560bfa89caa13ce6a65a5b5,6565e3cf991843574412fa48,47422,1A,woman,NA,NA,M1 is being hugged by M3,hug2,rating_causation,"{""Q0"":4}",[0],M1 asked to hug M3,M3 asked to hug M1
3485.5,NA,NA,NA,NA,survey-likert-extra-labels,36,251984,0.0-16.0-2.0,anomymised,6560bfa89caa13ce6a65a5b5,6565e3cf991843574412fa48,47422,1A,woman,NA,NA,M1 is being hugged by M3,hug2,rating_volition,"{""Q0"":5}",[0],M1 wanted to hug M3,M3 wanted to hug M1
null,Kate is being touched by Luke,NA,NA,NA,html-keyboard-response,37,253985,0.0-17.0-0.0,anomymised,6560bfa89caa13ce6a65a5b5,6565e3cf991843574412fa48,47422,1A,woman,NA,null,W3 is being touched by M1,touch3,sentence,NA,NA,NA,NA
4736.299999952316,NA,NA,NA,NA,survey-likert-extra-labels,38,258722,0.0-17.0-2.0,anomymised,6560bfa89caa13ce6a65a5b5,6565e3cf991843574412fa48,47422,1A,woman,NA,NA,W3 is being touched by M1,touch3,rating_volition,"{""Q0"":5}",[0],W3 wanted to touch M1,M1 wanted to touch W3
5996.700000047684,NA,NA,NA,NA,survey-likert-extra-labels,39,264720,0.0-17.0-3.0-0.0,anomymised,6560bfa89caa13ce6a65a5b5,6565e3cf991843574412fa48,47422,1A,woman,NA,NA,W3 is being touched by M1,touch3,rating_causation,"{""Q0"":4}",[0],W3 asked to touch M1,M1 asked to touch W3
null,Kate is being seduced by Luke,NA,NA,NA,html-keyboard-response,40,266727,0.0-18.0-0.0,anomymised,6560bfa89caa13ce6a65a5b5,6565e3cf991843574412fa48,47422,1A,woman,NA,null,W3 is being seduced by M1,seduce3,sentence,NA,NA,NA,NA
16358.299999952316,NA,NA,NA,NA,survey-likert-extra-labels,41,283086,0.0-18.0-2.0,anomymised,6560bfa89caa13ce6a65a5b5,6565e3cf991843574412fa48,47422,1A,woman,NA,NA,W3 is being seduced by M1,seduce3,rating_volition,"{""Q0"":5}",[0],W3 wanted to seduce M1,M1 wanted to seduce W3
4595.600000023842,NA,NA,NA,NA,survey-likert-extra-labels,42,287683,0.0-18.0-3.0-0.0,anomymised,6560bfa89caa13ce6a65a5b5,6565e3cf991843574412fa48,47422,1A,woman,NA,NA,W3 is being seduced by M1,seduce3,rating_causation,"{""Q0"":4}",[0],W3 started seducing M1 first,M1 started seducing W3 first
null,Mike is being hugged by Beth,NA,NA,NA,html-keyboard-response,43,289685,0.0-19.0-0.0,anomymised,6560bfa89caa13ce6a65a5b5,6565e3cf991843574412fa48,47422,1A,woman,NA,null,M2 is being hugged by W4,hug4,sentence,NA,NA,NA,NA
9252.799999952316,NA,NA,NA,NA,survey-likert-extra-labels,44,298939,0.0-19.0-2.0,anomymised,6560bfa89caa13ce6a65a5b5,6565e3cf991843574412fa48,47422,1A,woman,NA,NA,M2 is being hugged by W4,hug4,rating_volition,"{""Q0"":6}",[0],M2 wanted to hug W4,W4 wanted to hug M2
4462.5,NA,NA,NA,NA,survey-likert-extra-labels,45,303403,0.0-19.0-3.0-0.0,anomymised,6560bfa89caa13ce6a65a5b5,6565e3cf991843574412fa48,47422,1A,woman,NA,NA,M2 is being hugged by W4,hug4,rating_causation,"{""Q0"":4}",[0],M2 asked to hug W4,W4 asked to hug M2
null,Fred is being kissed by Luke,NA,NA,NA,html-keyboard-response,46,305405,0.0-20.0-0.0,anomymised,6560bfa89caa13ce6a65a5b5,6565e3cf991843574412fa48,47422,1A,woman,NA,null,M3 is being kissed by M1,kiss2,sentence,NA,NA,NA,NA
6672.699999928474,NA,NA,NA,NA,survey-likert-extra-labels,47,312078,0.0-20.0-1.0-0.0,anomymised,6560bfa89caa13ce6a65a5b5,6565e3cf991843574412fa48,47422,1A,woman,NA,NA,M3 is being kissed by M1,kiss2,rating_causation,"{""Q0"":3}",[0],M1 asked to kiss M3,M3 asked to kiss M1
4446.899999976158,NA,NA,NA,NA,survey-likert-extra-labels,48,316527,0.0-20.0-2.0,anomymised,6560bfa89caa13ce6a65a5b5,6565e3cf991843574412fa48,47422,1A,woman,NA,NA,M3 is being kissed by M1,kiss2,rating_volition,"{""Q0"":0}",[0],M1 wanted to kiss M3,M3 wanted to kiss M1
null,Kate is being looked at by Ruth,NA,NA,NA,html-keyboard-response,49,318529,0.0-21.0-0.0,anomymised,6560bfa89caa13ce6a65a5b5,6565e3cf991843574412fa48,47422,1A,woman,NA,null,W3 is being looked at by W1,look1,sentence,NA,NA,NA,NA
4019.600000023842,NA,NA,NA,NA,survey-likert-extra-labels,50,322549,0.0-21.0-1.0-0.0,anomymised,6560bfa89caa13ce6a65a5b5,6565e3cf991843574412fa48,47422,1A,woman,NA,NA,W3 is being looked at by W1,look1,rating_causation,"{""Q0"":2}",[0],W1 looked at W3 first,W3 looked at W1 first
3296.100000023842,NA,NA,NA,NA,survey-likert-extra-labels,51,325847,0.0-21.0-2.0,anomymised,6560bfa89caa13ce6a65a5b5,6565e3cf991843574412fa48,47422,1A,woman,NA,NA,W3 is being looked at by W1,look1,rating_volition,"{""Q0"":0}",[0],W1 wanted to look at W3,W3 wanted to look at W1
null,Fred is hiring Ruth,NA,NA,NA,html-keyboard-response,52,327850,0.0-22.0-0.0,anomymised,6560bfa89caa13ce6a65a5b5,6565e3cf991843574412fa48,47422,1A,woman,NA,null,M3 is hiring W1,hire,sentence,NA,NA,NA,NA
6080.600000023842,NA,NA,NA,NA,survey-likert-extra-labels,53,333932,0.0-22.0-1.0-0.0,anomymised,6560bfa89caa13ce6a65a5b5,6565e3cf991843574412fa48,47422,1A,woman,NA,NA,M3 is hiring W1,hire,rating_causation,"{""Q0"":6}",[0],M3 will work for W1,W1 will work for M3
5280.600000023842,NA,NA,NA,NA,survey-likert-extra-labels,54,339214,0.0-22.0-2.0,anomymised,6560bfa89caa13ce6a65a5b5,6565e3cf991843574412fa48,47422,1A,woman,NA,NA,M3 is hiring W1,hire,rating_volition,"{""Q0"":0}",[0],M3 is employing W1,W1 is employing M3
null,Jane is being touched by Beth,NA,NA,NA,html-keyboard-response,55,341217,0.0-23.0-0.0,anomymised,6560bfa89caa13ce6a65a5b5,6565e3cf991843574412fa48,47422,1A,woman,NA,null,W2 is being touched by W4,touch1,sentence,NA,NA,NA,NA
8948.100000023842,NA,NA,NA,NA,survey-likert-extra-labels,56,350166,0.0-23.0-2.0,anomymised,6560bfa89caa13ce6a65a5b5,6565e3cf991843574412fa48,47422,1A,woman,NA,NA,W2 is being touched by W4,touch1,rating_volition,"{""Q0"":6}",[0],W2 wanted to touch W4,W4 wanted to touch W2
6498.599999904633,NA,NA,NA,NA,survey-likert-extra-labels,57,356666,0.0-23.0-3.0-0.0,anomymised,6560bfa89caa13ce6a65a5b5,6565e3cf991843574412fa48,47422,1A,woman,NA,NA,W2 is being touched by W4,touch1,rating_causation,"{""Q0"":3}",[0],W2 asked to touch W4,W4 asked to touch W2
null,Fred is being touched by Ruth,NA,NA,NA,html-keyboard-response,58,358673,0.0-24.0-0.0,anomymised,6560bfa89caa13ce6a65a5b5,6565e3cf991843574412fa48,47422,1A,woman,NA,null,M3 is being touched by W1,touch4,sentence,NA,NA,NA,NA
4275.899999976158,NA,NA,NA,NA,survey-likert-extra-labels,59,362950,0.0-24.0-1.0-0.0,anomymised,6560bfa89caa13ce6a65a5b5,6565e3cf991843574412fa48,47422,1A,woman,NA,NA,M3 is being touched by W1,touch4,rating_causation,"{""Q0"":3}",[0],M3 asked to touch W1,W1 asked to touch M3
4218.699999928474,NA,NA,NA,NA,survey-likert-extra-labels,60,367170,0.0-24.0-2.0,anomymised,6560bfa89caa13ce6a65a5b5,6565e3cf991843574412fa48,47422,1A,woman,NA,NA,M3 is being touched by W1,touch4,rating_volition,"{""Q0"":0}",[0],M3 wanted to touch W1,W1 wanted to touch M3
null,Fred is being seduced by Ruth,NA,NA,NA,html-keyboard-response,61,369175,0.0-25.0-0.0,anomymised,6560bfa89caa13ce6a65a5b5,6565e3cf991843574412fa48,47422,1A,woman,NA,null,M3 is being seduced by W1,seduce4,sentence,NA,NA,NA,NA
5385.400000095367,NA,NA,NA,NA,survey-likert-extra-labels,62,374561,0.0-25.0-1.0-0.0,anomymised,6560bfa89caa13ce6a65a5b5,6565e3cf991843574412fa48,47422,1A,woman,NA,NA,M3 is being seduced by W1,seduce4,rating_causation,"{""Q0"":4}",[0],M3 started seducing W1 first,W1 started seducing M3 first
6340.200000047684,NA,NA,NA,NA,survey-likert-extra-labels,63,380903,0.0-25.0-2.0,anomymised,6560bfa89caa13ce6a65a5b5,6565e3cf991843574412fa48,47422,1A,woman,NA,NA,M3 is being seduced by W1,seduce4,rating_volition,"{""Q0"":6}",[0],M3 wanted to seducing W1,W1 wanted to seducing M3
null,Luke is driving Fred,NA,NA,NA,html-keyboard-response,64,382905,0.0-26.0-0.0,anomymised,6560bfa89caa13ce6a65a5b5,6565e3cf991843574412fa48,47422,1A,woman,NA,null,M1 is driving M3,drive,sentence,NA,NA,NA,NA
6078,NA,NA,NA,NA,survey-likert-extra-labels,65,388983,0.0-26.0-2.0,anomymised,6560bfa89caa13ce6a65a5b5,6565e3cf991843574412fa48,47422,1A,woman,NA,NA,M1 is driving M3,drive,rating_volition,"{""Q0"":6}",[0],M1 is M3's passenger,M3 is M1's passenger
5035.5,NA,NA,NA,NA,survey-likert-extra-labels,66,394020,0.0-26.0-3.0-0.0,anomymised,6560bfa89caa13ce6a65a5b5,6565e3cf991843574412fa48,47422,1A,woman,NA,NA,M1 is driving M3,drive,rating_causation,"{""Q0"":0}",[0],M1 is taking M3 somewhere,M3 is taking M1 somewhere
null,Fred is being challenged by Ruth,NA,NA,NA,html-keyboard-response,67,396024,0.0-27.0-0.0,anomymised,6560bfa89caa13ce6a65a5b5,6565e3cf991843574412fa48,47422,1A,woman,NA,null,M3 is being challenged by W1,challenge3,sentence,NA,NA,NA,NA
5729.399999976158,NA,NA,NA,NA,survey-likert-extra-labels,68,401754,0.0-27.0-1.0-0.0,anomymised,6560bfa89caa13ce6a65a5b5,6565e3cf991843574412fa48,47422,1A,woman,NA,NA,M3 is being challenged by W1,challenge3,rating_causation,"{""Q0"":4}",[0],M3 started challenging W1 first,W1 started challenging M3 first
4610.899999976158,NA,NA,NA,NA,survey-likert-extra-labels,69,406366,0.0-27.0-2.0,anomymised,6560bfa89caa13ce6a65a5b5,6565e3cf991843574412fa48,47422,1A,woman,NA,NA,M3 is being challenged by W1,challenge3,rating_volition,"{""Q0"":6}",[0],M3 wanted to challenge W1,W1 wanted to challenge M3
null,Luke is being copied by Kate,NA,NA,NA,html-keyboard-response,70,408373,0.0-28.0-0.0,anomymised,6560bfa89caa13ce6a65a5b5,6565e3cf991843574412fa48,47422,1A,woman,NA,null,M1 is being copied by W3,copy3,sentence,NA,NA,NA,NA
4070.7999999523163,NA,NA,NA,NA,survey-likert-extra-labels,71,412445,0.0-28.0-1.0-0.0,anomymised,6560bfa89caa13ce6a65a5b5,6565e3cf991843574412fa48,47422,1A,woman,NA,NA,M1 is being copied by W3,copy3,rating_causation,"{""Q0"":4}",[0],W3 started copying M1 first,M1 started copying W3 first
5641.600000023842,NA,NA,NA,NA,survey-likert-extra-labels,72,418088,0.0-28.0-2.0,anomymised,6560bfa89caa13ce6a65a5b5,6565e3cf991843574412fa48,47422,1A,woman,NA,NA,M1 is being copied by W3,copy3,rating_volition,"{""Q0"":0}",[0],W3 wanted to copy M1,M1 wanted to copy W3
null,Jane is being challenged by Beth,NA,NA,NA,html-keyboard-response,73,420092,0.0-29.0-0.0,anomymised,6560bfa89caa13ce6a65a5b5,6565e3cf991843574412fa48,47422,1A,woman,NA,null,W2 is being challenged by W4,challenge1,sentence,NA,NA,NA,NA
7515.100000023842,NA,NA,NA,NA,survey-likert-extra-labels,74,427608,0.0-29.0-2.0,anomymised,6560bfa89caa13ce6a65a5b5,6565e3cf991843574412fa48,47422,1A,woman,NA,NA,W2 is being challenged by W4,challenge1,rating_volition,"{""Q0"":6}",[0],W2 wanted to challenge W4,W4 wanted to challenge W2
7589.899999976158,NA,NA,NA,NA,survey-likert-extra-labels,75,435199,0.0-29.0-3.0-0.0,anomymised,6560bfa89caa13ce6a65a5b5,6565e3cf991843574412fa48,47422,1A,woman,NA,NA,W2 is being challenged by W4,challenge1,rating_causation,"{""Q0"":4}",[0],W2 started challenging W4 first,W4 started challenging W2 first
null,Mike is being touched by Dave,NA,NA,NA,html-keyboard-response,76,437201,0.0-30.0-0.0,anomymised,6560bfa89caa13ce6a65a5b5,6565e3cf991843574412fa48,47422,1A,woman,NA,null,M2 is being touched by M4,touch2,sentence,NA,NA,NA,NA
5464.899999976158,NA,NA,NA,NA,survey-likert-extra-labels,77,442667,0.0-30.0-2.0,anomymised,6560bfa89caa13ce6a65a5b5,6565e3cf991843574412fa48,47422,1A,woman,NA,NA,M2 is being touched by M4,touch2,rating_volition,"{""Q0"":6}",[0],M2 wanted to touch M4,M4 wanted to touch M2
6787.600000023842,NA,NA,NA,NA,survey-likert-extra-labels,78,449456,0.0-30.0-3.0-0.0,anomymised,6560bfa89caa13ce6a65a5b5,6565e3cf991843574412fa48,47422,1A,woman,NA,NA,M2 is being touched by M4,touch2,rating_causation,"{""Q0"":4}",[0],M2 asked to touch M4,M4 asked to touch M2
null,Mike is being opposed by Beth,NA,NA,NA,html-keyboard-response,79,451458,0.0-31.0-0.0,anomymised,6560bfa89caa13ce6a65a5b5,6565e3cf991843574412fa48,47422,1A,woman,NA,null,M2 is being opposed by W4,oppose4,sentence,NA,NA,NA,NA
6055.5,NA,NA,NA,NA,survey-likert-extra-labels,80,457514,0.0-31.0-2.0,anomymised,6560bfa89caa13ce6a65a5b5,6565e3cf991843574412fa48,47422,1A,woman,NA,NA,M2 is being opposed by W4,oppose4,rating_volition,"{""Q0"":6}",[0],M2 wanted to oppose W4,W4 wanted to oppose M2
4350.600000023842,NA,NA,NA,NA,survey-likert-extra-labels,81,461866,0.0-31.0-3.0-0.0,anomymised,6560bfa89caa13ce6a65a5b5,6565e3cf991843574412fa48,47422,1A,woman,NA,NA,M2 is being opposed by W4,oppose4,rating_causation,"{""Q0"":4}",[0],M2 started opposing W4,W4 started opposing M2
null,Mike is posing for Dave,NA,NA,NA,html-keyboard-response,82,463868,0.0-32.0-0.0,anomymised,6560bfa89caa13ce6a65a5b5,6565e3cf991843574412fa48,47422,1A,woman,NA,null,M2 is posing for M4,pose,sentence,NA,NA,NA,NA
6117.299999952316,NA,NA,NA,NA,survey-likert-extra-labels,83,469986,0.0-32.0-2.0,anomymised,6560bfa89caa13ce6a65a5b5,6565e3cf991843574412fa48,47422,1A,woman,NA,NA,M2 is posing for M4,pose,rating_volition,"{""Q0"":0}",[0],M2 is modelling for M4,M4 is modelling for M2
6779.799999952316,NA,NA,NA,NA,survey-likert-extra-labels,84,476768,0.0-32.0-3.0-0.0,anomymised,6560bfa89caa13ce6a65a5b5,6565e3cf991843574412fa48,47422,1A,woman,NA,NA,M2 is posing for M4,pose,rating_causation,"{""Q0"":6}",[0],M2 is photographing M4,M4 is photographing M2
null,Beth is being greeted by Jane,NA,NA,NA,html-keyboard-response,85,478771,0.0-33.0-0.0,anomymised,6560bfa89caa13ce6a65a5b5,6565e3cf991843574412fa48,47422,1A,woman,NA,null,W4 is being greeted by W2,greet1,sentence,NA,NA,NA,NA
6091,NA,NA,NA,NA,survey-likert-extra-labels,86,484863,0.0-33.0-2.0,anomymised,6560bfa89caa13ce6a65a5b5,6565e3cf991843574412fa48,47422,1A,woman,NA,NA,W4 is being greeted by W2,greet1,rating_volition,"{""Q0"":0}",[0],W2 wanted to greet W4,W4 wanted to greet W2
2973.2999999523163,NA,NA,NA,NA,survey-likert-extra-labels,87,487837,0.0-33.0-3.0-0.0,anomymised,6560bfa89caa13ce6a65a5b5,6565e3cf991843574412fa48,47422,1A,woman,NA,NA,W4 is being greeted by W2,greet1,rating_causation,"{""Q0"":3}",[0],W2 started greeting W4 first,W4 started greeting W2 first
null,Ruth is being opposed by Kate,NA,NA,NA,html-keyboard-response,88,489843,0.0-34.0-0.0,anomymised,6560bfa89caa13ce6a65a5b5,6565e3cf991843574412fa48,47422,1A,woman,NA,null,W1 is being opposed by W3,oppose1,sentence,NA,NA,NA,NA
4764.100000023842,NA,NA,NA,NA,survey-likert-extra-labels,89,494608,0.0-34.0-2.0,anomymised,6560bfa89caa13ce6a65a5b5,6565e3cf991843574412fa48,47422,1A,woman,NA,NA,W1 is being opposed by W3,oppose1,rating_volition,"{""Q0"":6}",[0],W1 wanted to oppose W3,W3 wanted to oppose W1
3413.7000000476837,NA,NA,NA,NA,survey-likert-extra-labels,90,498023,0.0-34.0-3.0-0.0,anomymised,6560bfa89caa13ce6a65a5b5,6565e3cf991843574412fa48,47422,1A,woman,NA,NA,W1 is being opposed by W3,oppose1,rating_causation,"{""Q0"":3}",[0],W1 started opposing W3,W3 started opposing W1
null,Kate is feeding Luke,NA,NA,NA,html-keyboard-response,91,500024,0.0-35.0-0.0,anomymised,6560bfa89caa13ce6a65a5b5,6565e3cf991843574412fa48,47422,1A,woman,NA,null,W3 is feeding M1,feed,sentence,NA,NA,NA,NA
8092,NA,NA,NA,NA,survey-likert-extra-labels,92,508117,0.0-35.0-2.0,anomymised,6560bfa89caa13ce6a65a5b5,6565e3cf991843574412fa48,47422,1A,woman,NA,NA,W3 is feeding M1,feed,rating_volition,"{""Q0"":1}",[0],W3 cooked for M1,M1 cooked for W3
5263.600000023842,NA,NA,NA,NA,survey-likert-extra-labels,93,513382,0.0-35.0-3.0-0.0,anomymised,6560bfa89caa13ce6a65a5b5,6565e3cf991843574412fa48,47422,1A,woman,NA,NA,W3 is feeding M1,feed,rating_causation,"{""Q0"":5}",[0],W3 is eating M1's food,M1 is eating W3's food
null,Jane is being shouted at by Dave,NA,NA,NA,html-keyboard-response,94,515385,0.0-36.0-0.0,anomymised,6560bfa89caa13ce6a65a5b5,6565e3cf991843574412fa48,47422,1A,woman,NA,null,W2 is being shouted at by M4,shout4,sentence,NA,NA,NA,NA
3682.5,NA,NA,NA,NA,survey-likert-extra-labels,95,519068,0.0-36.0-2.0,anomymised,6560bfa89caa13ce6a65a5b5,6565e3cf991843574412fa48,47422,1A,woman,NA,NA,W2 is being shouted at by M4,shout4,rating_volition,"{""Q0"":6}",[0],W2 wanted to shout at M4,M4 wanted to shout at W2
2894.4000000953674,NA,NA,NA,NA,survey-likert-extra-labels,96,521964,0.0-36.0-3.0-0.0,anomymised,6560bfa89caa13ce6a65a5b5,6565e3cf991843574412fa48,47422,1A,woman,NA,NA,W2 is being shouted at by M4,shout4,rating_causation,"{""Q0"":3}",[0],W2 shouted at M4 first,M4 shouted at W2 first
null,Jane is teaching Dave,NA,NA,NA,html-keyboard-response,97,523965,0.0-37.0-0.0,anomymised,6560bfa89caa13ce6a65a5b5,6565e3cf991843574412fa48,47422,1A,woman,NA,null,W2 is teaching M4,teach,sentence,NA,NA,NA,NA
3773.899999976158,NA,NA,NA,NA,survey-likert-extra-labels,98,527740,0.0-37.0-1.0-0.0,anomymised,6560bfa89caa13ce6a65a5b5,6565e3cf991843574412fa48,47422,1A,woman,NA,NA,W2 is teaching M4,teach,rating_causation,"{""Q0"":6}",[0],W2 is learning from M4,M4 is learning from W2
5833.600000023842,NA,NA,NA,NA,survey-likert-extra-labels,99,533575,0.0-37.0-2.0,anomymised,6560bfa89caa13ce6a65a5b5,6565e3cf991843574412fa48,47422,1A,woman,NA,NA,W2 is teaching M4,teach,rating_volition,"{""Q0"":0}",[0],W2 is educating M4,M4 is educating W2
null,Jane is carrying Beth,NA,NA,NA,html-keyboard-response,100,535577,0.0-38.0-0.0,anomymised,6560bfa89caa13ce6a65a5b5,6565e3cf991843574412fa48,47422,1A,woman,NA,null,W2 is carrying W4,carry,sentence,NA,NA,NA,NA
5759.800000071526,NA,NA,NA,NA,survey-likert-extra-labels,101,541338,0.0-38.0-2.0,anomymised,6560bfa89caa13ce6a65a5b5,6565e3cf991843574412fa48,47422,1A,woman,NA,NA,W2 is carrying W4,carry,rating_volition,"{""Q0"":1}",[0],W2 is transporting W4,W4 is transporting W2
4210.899999976158,NA,NA,NA,NA,survey-likert-extra-labels,102,545550,0.0-38.0-3.0-0.0,anomymised,6560bfa89caa13ce6a65a5b5,6565e3cf991843574412fa48,47422,1A,woman,NA,NA,W2 is carrying W4,carry,rating_causation,"{""Q0"":6}",[0],W2 is being moved by W4,W4 is being moved by W2
null,Luke is being shouted at by Fred,NA,NA,NA,html-keyboard-response,103,547553,0.0-39.0-0.0,anomymised,6560bfa89caa13ce6a65a5b5,6565e3cf991843574412fa48,47422,1A,woman,NA,null,M1 is being shouted at by M3,shout2,sentence,NA,NA,NA,NA
4618.299999952316,NA,NA,NA,NA,survey-likert-extra-labels,104,552172,0.0-39.0-2.0,anomymised,6560bfa89caa13ce6a65a5b5,6565e3cf991843574412fa48,47422,1A,woman,NA,NA,M1 is being shouted at by M3,shout2,rating_volition,"{""Q0"":6}",[0],M1 wanted to shout at M3,M3 wanted to shout at M1
2588.100000023842,NA,NA,NA,NA,survey-likert-extra-labels,105,554762,0.0-39.0-3.0-0.0,anomymised,6560bfa89caa13ce6a65a5b5,6565e3cf991843574412fa48,47422,1A,woman,NA,NA,M1 is being shouted at by M3,shout2,rating_causation,"{""Q0"":3}",[0],M1 shouted at M3 first,M3 shouted at M1 first
null,Fred is being looked at by Luke,NA,NA,NA,html-keyboard-response,106,556764,0.0-40.0-0.0,anomymised,6560bfa89caa13ce6a65a5b5,6565e3cf991843574412fa48,47422,1A,woman,NA,null,M3 is being looked at by M1,look2,sentence,NA,NA,NA,NA
5317.899999976158,NA,NA,NA,NA,survey-likert-extra-labels,107,562082,0.0-40.0-1.0-0.0,anomymised,6560bfa89caa13ce6a65a5b5,6565e3cf991843574412fa48,47422,1A,woman,NA,NA,M3 is being looked at by M1,look2,rating_causation,"{""Q0"":3}",[0],M1 looked at M3 first,M3 looked at M1 first
5624.100000023842,NA,NA,NA,NA,survey-likert-extra-labels,108,567708,0.0-40.0-2.0,anomymised,6560bfa89caa13ce6a65a5b5,6565e3cf991843574412fa48,47422,1A,woman,NA,NA,M3 is being looked at by M1,look2,rating_volition,"{""Q0"":0}",[0],M1 wanted to look at M3,M3 wanted to look at M1
null,Beth is being copied by Jane,NA,NA,NA,html-keyboard-response,109,569713,0.0-41.0-0.0,anomymised,6560bfa89caa13ce6a65a5b5,6565e3cf991843574412fa48,47422,1A,woman,NA,null,W4 is being copied by W2,copy1,sentence,NA,NA,NA,NA
3594.899999976158,NA,NA,NA,NA,survey-likert-extra-labels,110,573308,0.0-41.0-2.0,anomymised,6560bfa89caa13ce6a65a5b5,6565e3cf991843574412fa48,47422,1A,woman,NA,NA,W4 is being copied by W2,copy1,rating_volition,"{""Q0"":0}",[0],W2 wanted to copy W4,W4 wanted to copy W2
2674.7000000476837,NA,NA,NA,NA,survey-likert-extra-labels,111,575984,0.0-41.0-3.0-0.0,anomymised,6560bfa89caa13ce6a65a5b5,6565e3cf991843574412fa48,47422,1A,woman,NA,NA,W4 is being copied by W2,copy1,rating_causation,"{""Q0"":3}",[0],W2 started copying W4 first,W4 started copying W2 first
null,Dave is being copied by Mike,NA,NA,NA,html-keyboard-response,112,577987,0.0-42.0-0.0,anomymised,6560bfa89caa13ce6a65a5b5,6565e3cf991843574412fa48,47422,1A,woman,NA,null,M4 is being copied by M2,copy2,sentence,NA,NA,NA,NA
5470.399999976158,NA,NA,NA,NA,survey-likert-extra-labels,113,583458,0.0-42.0-2.0,anomymised,6560bfa89caa13ce6a65a5b5,6565e3cf991843574412fa48,47422,1A,woman,NA,NA,M4 is being copied by M2,copy2,rating_volition,"{""Q0"":0}",[0],M2 wanted to copy M4,M4 wanted to copy M2
2218,NA,NA,NA,NA,survey-likert-extra-labels,114,585678,0.0-42.0-3.0-0.0,anomymised,6560bfa89caa13ce6a65a5b5,6565e3cf991843574412fa48,47422,1A,woman,NA,NA,M4 is being copied by M2,copy2,rating_causation,"{""Q0"":3}",[0],M2 started copying M4 first,M4 started copying M2 first
null,Dave is being looked at by Jane,NA,NA,NA,html-keyboard-response,115,587681,0.0-43.0-0.0,anomymised,6560bfa89caa13ce6a65a5b5,6565e3cf991843574412fa48,47422,1A,woman,NA,null,M4 is being looked at by W2,look3,sentence,NA,NA,NA,NA
4270.5,NA,NA,NA,NA,survey-likert-extra-labels,116,591953,0.0-43.0-2.0,anomymised,6560bfa89caa13ce6a65a5b5,6565e3cf991843574412fa48,47422,1A,woman,NA,NA,M4 is being looked at by W2,look3,rating_volition,"{""Q0"":0}",[0],W2 wanted to look at M4,M4 wanted to look at W2
2469,NA,NA,NA,NA,survey-likert-extra-labels,117,594423,0.0-43.0-3.0-0.0,anomymised,6560bfa89caa13ce6a65a5b5,6565e3cf991843574412fa48,47422,1A,woman,NA,NA,M4 is being looked at by W2,look3,rating_causation,"{""Q0"":3}",[0],W2 looked at M4 first,M4 looked at W2 first
null,Luke is being greeted by Kate,NA,NA,NA,html-keyboard-response,118,596431,0.0-44.0-0.0,anomymised,6560bfa89caa13ce6a65a5b5,6565e3cf991843574412fa48,47422,1A,woman,NA,null,M1 is being greeted by W3,greet4,sentence,NA,NA,NA,NA
6535.100000023842,NA,NA,NA,NA,survey-likert-extra-labels,119,602967,0.0-44.0-2.0,anomymised,6560bfa89caa13ce6a65a5b5,6565e3cf991843574412fa48,47422,1A,woman,NA,NA,M1 is being greeted by W3,greet4,rating_volition,"{""Q0"":0}",[0],W3 wanted to greet M1,M1 wanted to greet W3
2311.899999976158,NA,NA,NA,NA,survey-likert-extra-labels,120,605281,0.0-44.0-3.0-0.0,anomymised,6560bfa89caa13ce6a65a5b5,6565e3cf991843574412fa48,47422,1A,woman,NA,NA,M1 is being greeted by W3,greet4,rating_causation,"{""Q0"":3}",[0],W3 started greeting M1 first,M1 started greeting W3 first
null,Ruth is being greeted by Fred,NA,NA,NA,html-keyboard-response,121,607287,0.0-45.0-0.0,anomymised,6560bfa89caa13ce6a65a5b5,6565e3cf991843574412fa48,47422,1A,woman,NA,null,W1 is being greeted by M3,greet3,sentence,NA,NA,NA,NA
10579.799999952316,NA,NA,NA,NA,survey-likert-extra-labels,122,617868,0.0-45.0-2.0,anomymised,6560bfa89caa13ce6a65a5b5,6565e3cf991843574412fa48,47422,1A,woman,NA,NA,W1 is being greeted by M3,greet3,rating_volition,"{""Q0"":0}",[0],M3 wanted to greet W1,W1 wanted to greet M3
2202,NA,NA,NA,NA,survey-likert-extra-labels,123,620072,0.0-45.0-3.0-0.0,anomymised,6560bfa89caa13ce6a65a5b5,6565e3cf991843574412fa48,47422,1A,woman,NA,NA,W1 is being greeted by M3,greet3,rating_causation,"{""Q0"":3}",[0],M3 started greeting W1 first,W1 started greeting M3 first
null,Ruth is being shouted at by Kate,NA,NA,NA,html-keyboard-response,124,622073,0.0-46.0-0.0,anomymised,6560bfa89caa13ce6a65a5b5,6565e3cf991843574412fa48,47422,1A,woman,NA,null,W1 is being shouted at by W3,shout1,sentence,NA,NA,NA,NA
3629,NA,NA,NA,NA,survey-likert-extra-labels,125,625703,0.0-46.0-2.0,anomymised,6560bfa89caa13ce6a65a5b5,6565e3cf991843574412fa48,47422,1A,woman,NA,NA,W1 is being shouted at by W3,shout1,rating_volition,"{""Q0"":6}",[0],W1 wanted to shout at W3,W3 wanted to shout at W1
4177.5,NA,NA,NA,NA,survey-likert-extra-labels,126,629882,0.0-46.0-3.0-0.0,anomymised,6560bfa89caa13ce6a65a5b5,6565e3cf991843574412fa48,47422,1A,woman,NA,NA,W1 is being shouted at by W3,shout1,rating_causation,"{""Q0"":3}",[0],W1 shouted at W3 first,W3 shouted at W1 first
null,Kate is being kissed by Ruth,NA,NA,NA,html-keyboard-response,127,631885,0.0-47.0-0.0,anomymised,6560bfa89caa13ce6a65a5b5,6565e3cf991843574412fa48,47422,1A,woman,NA,null,W3 is being kissed by W1,kiss1,sentence,NA,NA,NA,NA
7046.900000095367,NA,NA,NA,NA,survey-likert-extra-labels,128,638933,0.0-47.0-2.0,anomymised,6560bfa89caa13ce6a65a5b5,6565e3cf991843574412fa48,47422,1A,woman,NA,NA,W3 is being kissed by W1,kiss1,rating_volition,"{""Q0"":0}",[0],W1 wanted to kiss W3,W3 wanted to kiss W1
2981.600000023842,NA,NA,NA,NA,survey-likert-extra-labels,129,641916,0.0-47.0-3.0-0.0,anomymised,6560bfa89caa13ce6a65a5b5,6565e3cf991843574412fa48,47422,1A,woman,NA,NA,W3 is being kissed by W1,kiss1,rating_causation,"{""Q0"":3}",[0],W1 asked to kiss W3,W3 asked to kiss W1
null,Mike is being challenged by Dave,NA,NA,NA,html-keyboard-response,130,643919,0.0-48.0-0.0,anomymised,6560bfa89caa13ce6a65a5b5,6565e3cf991843574412fa48,47422,1A,woman,NA,null,M2 is being challenged by M4,challenge2,sentence,NA,NA,NA,NA
6792.900000095367,NA,NA,NA,NA,survey-likert-extra-labels,131,650715,0.0-48.0-1.0-0.0,anomymised,6560bfa89caa13ce6a65a5b5,6565e3cf991843574412fa48,47422,1A,woman,NA,NA,M2 is being challenged by M4,challenge2,rating_causation,"{""Q0"":3}",[0],M2 started challenging M4 first,M4 started challenging M2 first
5254.599999904633,NA,NA,NA,NA,survey-likert-extra-labels,132,655971,0.0-48.0-2.0,anomymised,6560bfa89caa13ce6a65a5b5,6565e3cf991843574412fa48,47422,1A,woman,NA,NA,M2 is being challenged by M4,challenge2,rating_volition,"{""Q0"":6}",[0],M2 wanted to challenge M4,M4 wanted to challenge M2
null,Jane is being hugged by Dave,NA,NA,NA,html-keyboard-response,133,657979,0.0-49.0-0.0,anomymised,6560bfa89caa13ce6a65a5b5,6565e3cf991843574412fa48,47422,1A,woman,NA,null,W2 is being hugged by M4,hug3,sentence,NA,NA,NA,NA
7575.600000023842,NA,NA,NA,NA,survey-likert-extra-labels,134,665555,0.0-49.0-1.0-0.0,anomymised,6560bfa89caa13ce6a65a5b5,6565e3cf991843574412fa48,47422,1A,woman,NA,NA,W2 is being hugged by M4,hug3,rating_causation,"{""Q0"":3}",[0],W2 asked to hug M4,M4 asked to hug W2
4208.899999976158,NA,NA,NA,NA,survey-likert-extra-labels,135,669766,0.0-49.0-2.0,anomymised,6560bfa89caa13ce6a65a5b5,6565e3cf991843574412fa48,47422,1A,woman,NA,NA,W2 is being hugged by M4,hug3,rating_volition,"{""Q0"":6}",[0],W2 wanted to hug M4,M4 wanted to hug W2
null,Kate is being challenged by Luke,NA,NA,NA,html-keyboard-response,136,671771,0.0-50.0-0.0,anomymised,6560bfa89caa13ce6a65a5b5,6565e3cf991843574412fa48,47422,1A,woman,NA,null,W3 is being challenged by M1,challenge4,sentence,NA,NA,NA,NA
4071.3000000715256,NA,NA,NA,NA,survey-likert-extra-labels,137,675844,0.0-50.0-1.0-0.0,anomymised,6560bfa89caa13ce6a65a5b5,6565e3cf991843574412fa48,47422,1A,woman,NA,NA,W3 is being challenged by M1,challenge4,rating_causation,"{""Q0"":3}",[0],W3 started challenging M1 first,M1 started challenging W3 first
3641,NA,NA,NA,NA,survey-likert-extra-labels,138,679487,0.0-50.0-2.0,anomymised,6560bfa89caa13ce6a65a5b5,6565e3cf991843574412fa48,47422,1A,woman,NA,NA,W3 is being challenged by M1,challenge4,rating_volition,"{""Q0"":6}",[0],W3 wanted to challenge M1,M1 wanted to challenge W3
null,Ruth is chasing Kate,NA,NA,NA,html-keyboard-response,139,681489,0.0-51.0-0.0,anomymised,6560bfa89caa13ce6a65a5b5,6565e3cf991843574412fa48,47422,1A,woman,NA,null,W1 is chasing W3,chase,sentence,NA,NA,NA,NA
5203.5,NA,NA,NA,NA,survey-likert-extra-labels,140,686693,0.0-51.0-2.0,anomymised,6560bfa89caa13ce6a65a5b5,6565e3cf991843574412fa48,47422,1A,woman,NA,NA,W1 is chasing W3,chase,rating_volition,"{""Q0"":0}",[0],W1 is behind W3,W3 is behind W1
5009.800000071526,NA,NA,NA,NA,survey-likert-extra-labels,141,691705,0.0-51.0-3.0-0.0,anomymised,6560bfa89caa13ce6a65a5b5,6565e3cf991843574412fa48,47422,1A,woman,NA,NA,W1 is chasing W3,chase,rating_causation,"{""Q0"":6}",[0],W1 is running away from W3,W3 is running away from W1
null,Mike is being seduced by Dave,NA,NA,NA,html-keyboard-response,142,693711,0.0-52.0-0.0,anomymised,6560bfa89caa13ce6a65a5b5,6565e3cf991843574412fa48,47422,1A,woman,NA,null,M2 is being seduced by M4,seduce2,sentence,NA,NA,NA,NA
4088.8000000715256,NA,NA,NA,NA,survey-likert-extra-labels,143,697800,0.0-52.0-1.0-0.0,anomymised,6560bfa89caa13ce6a65a5b5,6565e3cf991843574412fa48,47422,1A,woman,NA,NA,M2 is being seduced by M4,seduce2,rating_causation,"{""Q0"":3}",[0],M2 started seducing M4 first,M4 started seducing M2 first
3971.7999999523163,NA,NA,NA,NA,survey-likert-extra-labels,144,701774,0.0-52.0-2.0,anomymised,6560bfa89caa13ce6a65a5b5,6565e3cf991843574412fa48,47422,1A,woman,NA,NA,M2 is being seduced by M4,seduce2,rating_volition,"{""Q0"":6}",[0],M2 wanted to seduce M4,M4 wanted to seduce M2
null,Luke is being opposed by Fred,NA,NA,NA,html-keyboard-response,145,703780,0.0-53.0-0.0,anomymised,6560bfa89caa13ce6a65a5b5,6565e3cf991843574412fa48,47422,1A,woman,NA,null,M1 is being opposed by M3,oppose2,sentence,NA,NA,NA,NA
3677.5,NA,NA,NA,NA,survey-likert-extra-labels,146,707459,0.0-53.0-1.0-0.0,anomymised,6560bfa89caa13ce6a65a5b5,6565e3cf991843574412fa48,47422,1A,woman,NA,NA,M1 is being opposed by M3,oppose2,rating_causation,"{""Q0"":3}",[0],M1 started opposing M3,M3 started opposing M1
5011.5,NA,NA,NA,NA,survey-likert-extra-labels,147,712472,0.0-53.0-2.0,anomymised,6560bfa89caa13ce6a65a5b5,6565e3cf991843574412fa48,47422,1A,woman,NA,NA,M1 is being opposed by M3,oppose2,rating_volition,"{""Q0"":6}",[0],M1 wanted to oppose M3,M3 wanted to oppose M1
null,Jane is being seduced by Beth,NA,NA,NA,html-keyboard-response,148,714477,0.0-54.0-0.0,anomymised,6560bfa89caa13ce6a65a5b5,6565e3cf991843574412fa48,47422,1A,woman,NA,null,W2 is being seduced by W4,seduce1,sentence,NA,NA,NA,NA
3238.2999999523163,NA,NA,NA,NA,survey-likert-extra-labels,149,717717,0.0-54.0-1.0-0.0,anomymised,6560bfa89caa13ce6a65a5b5,6565e3cf991843574412fa48,47422,1A,woman,NA,NA,W2 is being seduced by W4,seduce1,rating_causation,"{""Q0"":3}",[0],W2 started seducing W4 first,W4 started seducing W2 first
3760.100000023842,NA,NA,NA,NA,survey-likert-extra-labels,150,721478,0.0-54.0-2.0,anomymised,6560bfa89caa13ce6a65a5b5,6565e3cf991843574412fa48,47422,1A,woman,NA,NA,W2 is being seduced by W4,seduce1,rating_volition,"{""Q0"":6}",[0],W2 wanted to seduce W4,W4 wanted to seduce W2
2115.600000023842,<p>Thank you for completing that task.</p><p>The final part of this session is a short questionnaire.</p><p>Press Continue.</p>,0,Continue,Continue,html-button-response,151,723595,0.0-55.0,anomymised,6560bfa89caa13ce6a65a5b5,6565e3cf991843574412fa48,47422,1A,woman,NA,NA,NA,NA,NA,NA,NA,NA,NA
30091.800000071526,NA,NA,NA,NA,survey-text,152,754697,0.0-56.0,anomymised,6560bfa89caa13ce6a65a5b5,6565e3cf991843574412fa48,47422,1A,woman,NA,NA,NA,NA,demographics,"{""Q0"":""56"",""Q1"":""English"",""Q2"":""English"",""Q3"":""UK"",""Q4"":""British"",""Q5"":""White"",""Q6"":""female""}",NA,NA,NA
2760,<p>This is the last question - thank you for taking part! Have you lived in the UK for the last 5 years or more?</p>,0,"Yes,No",Yes,html-button-response,153,757458,0.0-57.0,anomymised,6560bfa89caa13ce6a65a5b5,6565e3cf991843574412fa48,47422,1A,woman,NA,NA,NA,NA,fiveyears,NA,NA,NA,NA
