rt,stimulus,button_pressed,choices,ChosenStimulus,trial_type,trial_index,time_elapsed,internal_node_id,subject_id,study_id,session_id,subject,list,ppt_gender,url,key_press,sentence_type,verb,test_part,responses,question_order,left_part,right_part
15136,Welcome to the experiment. Press Continue to begin.,0,Continue,Continue,html-button-response,0,15156,0.0-0.0,anomymised,656582028f794bf1617e53e2,656738fe7d5a246572db622d,4771,1,man,NA,NA,NA,NA,NA,NA,NA,NA,NA
5225,NA,NA,NA,NA,external-html,1,21467,0.0-1.0,anomymised,656582028f794bf1617e53e2,656738fe7d5a246572db622d,4771,1,man,consent.html,NA,NA,NA,NA,NA,NA,NA,NA
4373,"<p>Welcome.</p><p>In this experiment we will ask you to imagine some situations.</p><p>Each trial starts with a description of an event.</p><p>Then you will see alternative descriptions of that event, and you will rate on a scale how best they match the original description.</p><p>You will give your answer by clicking a button on a rating scale.</p><p>To do this task, you will have to use your imagination to visualise these events.</p><br><p>Ready?</p>",0,Continue,Continue,html-button-response,2,25842,0.0-2.0,anomymised,656582028f794bf1617e53e2,656738fe7d5a246572db622d,4771,1,man,NA,NA,NA,NA,NA,NA,NA,NA,NA
3250,"<p>Before the experiment starts, you will watch an example trial. Press 'Continue'.</p>",0,Continue,Continue,html-button-response,3,30101,0.0-3.0,anomymised,656582028f794bf1617e53e2,656738fe7d5a246572db622d,4771,1,man,NA,NA,NA,NA,NA,NA,NA,NA,NA
null,The police officer is arresting the robber,NA,NA,NA,html-keyboard-response,4,33215,0.0-4.0,anomymised,656582028f794bf1617e53e2,656738fe7d5a246572db622d,4771,1,man,NA,null,NA,NA,NA,NA,NA,NA,NA
12051,<img src='img/Example-trial.jpg' style='height:550px;''></img>,0,Continue,Continue,html-button-response,5,45266,0.0-5.0,anomymised,656582028f794bf1617e53e2,656738fe7d5a246572db622d,4771,1,man,NA,NA,NA,NA,NA,NA,NA,NA,NA
2452,<p>Ready to start the experiment?</p><br><p><strong>Remember to give an answer by clicking a button on the rating scale.</strong></p><p>Press 'Continue' to begin.</p>,0,Continue,Continue,html-button-response,6,48722,0.0-6.0,anomymised,656582028f794bf1617e53e2,656738fe7d5a246572db622d,4771,1,man,NA,NA,NA,NA,NA,NA,NA,NA,NA
null,Beth is being hugged by Mike,NA,NA,NA,html-keyboard-response,7,51730,0.0-7.0-0.0,anomymised,656582028f794bf1617e53e2,656738fe7d5a246572db622d,4771,1,man,NA,null,W4 is being hugged by M2,hug4,sentence,NA,NA,NA,NA
6279,NA,NA,NA,NA,survey-likert-extra-labels,8,58012,0.0-7.0-1.0-0.0,anomymised,656582028f794bf1617e53e2,656738fe7d5a246572db622d,4771,1,man,NA,NA,W4 is being hugged by M2,hug4,rating_causation,"{""Q0"":2}",[0],W4 asked to hug M2,M2 asked to hug W4
4702,NA,NA,NA,NA,survey-likert-extra-labels,9,62718,0.0-7.0-2.0,anomymised,656582028f794bf1617e53e2,656738fe7d5a246572db622d,4771,1,man,NA,NA,W4 is being hugged by M2,hug4,rating_volition,"{""Q0"":5}",[0],W4 wanted to hug M2,M2 wanted to hug W4
null,Beth is being touched by Jane,NA,NA,NA,html-keyboard-response,10,64736,0.0-8.0-0.0,anomymised,656582028f794bf1617e53e2,656738fe7d5a246572db622d,4771,1,man,NA,null,W4 is being touched by W2,touch1,sentence,NA,NA,NA,NA
3723,NA,NA,NA,NA,survey-likert-extra-labels,11,68460,0.0-8.0-1.0-0.0,anomymised,656582028f794bf1617e53e2,656738fe7d5a246572db622d,4771,1,man,NA,NA,W4 is being touched by W2,touch1,rating_causation,"{""Q0"":6}",[0],W4 asked to touch W2,W2 asked to touch W4
10570,NA,NA,NA,NA,survey-likert-extra-labels,12,79035,0.0-8.0-2.0,anomymised,656582028f794bf1617e53e2,656738fe7d5a246572db622d,4771,1,man,NA,NA,W4 is being touched by W2,touch1,rating_volition,"{""Q0"":0}",[0],W4 wanted to touch W2,W2 wanted to touch W4
null,Beth is being shouted at by Mike,NA,NA,NA,html-keyboard-response,13,81048,0.0-9.0-0.0,anomymised,656582028f794bf1617e53e2,656738fe7d5a246572db622d,4771,1,man,NA,null,W4 is being shouted at by M2,shout3,sentence,NA,NA,NA,NA
6272,NA,NA,NA,NA,survey-likert-extra-labels,14,87322,0.0-9.0-1.0-0.0,anomymised,656582028f794bf1617e53e2,656738fe7d5a246572db622d,4771,1,man,NA,NA,W4 is being shouted at by M2,shout3,rating_causation,"{""Q0"":4}",[0],W4 shouted at M2 first,M2 shouted at W4 first
6686,NA,NA,NA,NA,survey-likert-extra-labels,15,94012,0.0-9.0-2.0,anomymised,656582028f794bf1617e53e2,656738fe7d5a246572db622d,4771,1,man,NA,NA,W4 is being shouted at by M2,shout3,rating_volition,"{""Q0"":6}",[0],W4 wanted to shout at M2,M2 wanted to shout at W4
null,Dave is being touched by Mike,NA,NA,NA,html-keyboard-response,16,96029,0.0-10.0-0.0,anomymised,656582028f794bf1617e53e2,656738fe7d5a246572db622d,4771,1,man,NA,null,M4 is being touched by M2,touch2,sentence,NA,NA,NA,NA
2581,NA,NA,NA,NA,survey-likert-extra-labels,17,98610,0.0-10.0-2.0,anomymised,656582028f794bf1617e53e2,656738fe7d5a246572db622d,4771,1,man,NA,NA,M4 is being touched by M2,touch2,rating_volition,"{""Q0"":6}",[0],M4 wanted to touch M2,M2 wanted to touch M4
11596,NA,NA,NA,NA,survey-likert-extra-labels,18,110214,0.0-10.0-3.0-0.0,anomymised,656582028f794bf1617e53e2,656738fe7d5a246572db622d,4771,1,man,NA,NA,M4 is being touched by M2,touch2,rating_causation,"{""Q0"":5}",[0],M4 asked to touch M2,M2 asked to touch M4
null,Luke is being seduced by Kate,NA,NA,NA,html-keyboard-response,19,112226,0.0-11.0-0.0,anomymised,656582028f794bf1617e53e2,656738fe7d5a246572db622d,4771,1,man,NA,null,M1 is being seduced by W3,seduce3,sentence,NA,NA,NA,NA
3471,NA,NA,NA,NA,survey-likert-extra-labels,20,115698,0.0-11.0-1.0-0.0,anomymised,656582028f794bf1617e53e2,656738fe7d5a246572db622d,4771,1,man,NA,NA,M1 is being seduced by W3,seduce3,rating_causation,"{""Q0"":6}",[0],M1 started seducing W3 first,W3 started seducing M1 first
4948,NA,NA,NA,NA,survey-likert-extra-labels,21,120649,0.0-11.0-2.0,anomymised,656582028f794bf1617e53e2,656738fe7d5a246572db622d,4771,1,man,NA,NA,M1 is being seduced by W3,seduce3,rating_volition,"{""Q0"":6}",[0],M1 wanted to seduce W3,W3 wanted to seduce M1
null,Jane is being copied by Beth,NA,NA,NA,html-keyboard-response,22,122661,0.0-12.0-0.0,anomymised,656582028f794bf1617e53e2,656738fe7d5a246572db622d,4771,1,man,NA,null,W2 is being copied by W4,copy1,sentence,NA,NA,NA,NA
8498,NA,NA,NA,NA,survey-likert-extra-labels,23,131164,0.0-12.0-2.0,anomymised,656582028f794bf1617e53e2,656738fe7d5a246572db622d,4771,1,man,NA,NA,W2 is being copied by W4,copy1,rating_volition,"{""Q0"":0}",[0],W4 wanted to copy W2,W2 wanted to copy W4
5348,NA,NA,NA,NA,survey-likert-extra-labels,24,136517,0.0-12.0-3.0-0.0,anomymised,656582028f794bf1617e53e2,656738fe7d5a246572db622d,4771,1,man,NA,NA,W2 is being copied by W4,copy1,rating_causation,"{""Q0"":3}",[0],W4 started copying W2 first,W2 started copying W4 first
null,Mike is being looked at by Beth,NA,NA,NA,html-keyboard-response,25,138532,0.0-13.0-0.0,anomymised,656582028f794bf1617e53e2,656738fe7d5a246572db622d,4771,1,man,NA,null,M2 is being looked at by W4,look4,sentence,NA,NA,NA,NA
9952,NA,NA,NA,NA,survey-likert-extra-labels,26,148485,0.0-13.0-2.0,anomymised,656582028f794bf1617e53e2,656738fe7d5a246572db622d,4771,1,man,NA,NA,M2 is being looked at by W4,look4,rating_volition,"{""Q0"":0}",[0],W4 wanted to look at M2,M2 wanted to look at W4
6094,NA,NA,NA,NA,survey-likert-extra-labels,27,154585,0.0-13.0-3.0-0.0,anomymised,656582028f794bf1617e53e2,656738fe7d5a246572db622d,4771,1,man,NA,NA,M2 is being looked at by W4,look4,rating_causation,"{""Q0"":0}",[0],W4 looked at M2 first,M2 looked at W4 first
null,Ruth is being kissed by Kate,NA,NA,NA,html-keyboard-response,28,156589,0.0-14.0-0.0,anomymised,656582028f794bf1617e53e2,656738fe7d5a246572db622d,4771,1,man,NA,null,W1 is being kissed by W3,kiss1,sentence,NA,NA,NA,NA
5141,NA,NA,NA,NA,survey-likert-extra-labels,29,161732,0.0-14.0-2.0,anomymised,656582028f794bf1617e53e2,656738fe7d5a246572db622d,4771,1,man,NA,NA,W1 is being kissed by W3,kiss1,rating_volition,"{""Q0"":6}",[0],W3 wanted to kiss W1,W1 wanted to kiss W3
7067,NA,NA,NA,NA,survey-likert-extra-labels,30,168805,0.0-14.0-3.0-0.0,anomymised,656582028f794bf1617e53e2,656738fe7d5a246572db622d,4771,1,man,NA,NA,W1 is being kissed by W3,kiss1,rating_causation,"{""Q0"":0}",[0],W3 asked to kiss W1,W1 asked to kiss W3
null,Dave is being seduced by Mike,NA,NA,NA,html-keyboard-response,31,170815,0.0-15.0-0.0,anomymised,656582028f794bf1617e53e2,656738fe7d5a246572db622d,4771,1,man,NA,null,M4 is being seduced by M2,seduce2,sentence,NA,NA,NA,NA
3730,NA,NA,NA,NA,survey-likert-extra-labels,32,174547,0.0-15.0-2.0,anomymised,656582028f794bf1617e53e2,656738fe7d5a246572db622d,4771,1,man,NA,NA,M4 is being seduced by M2,seduce2,rating_volition,"{""Q0"":0}",[0],M4 wanted to seduce M2,M2 wanted to seduce M4
3138,NA,NA,NA,NA,survey-likert-extra-labels,33,177688,0.0-15.0-3.0-0.0,anomymised,656582028f794bf1617e53e2,656738fe7d5a246572db622d,4771,1,man,NA,NA,M4 is being seduced by M2,seduce2,rating_causation,"{""Q0"":1}",[0],M4 started seducing M2 first,M2 started seducing M4 first
null,Ruth is chasing Kate,NA,NA,NA,html-keyboard-response,34,179702,0.0-16.0-0.0,anomymised,656582028f794bf1617e53e2,656738fe7d5a246572db622d,4771,1,man,NA,null,W1 is chasing W3,chase,sentence,NA,NA,NA,NA
7370,NA,NA,NA,NA,survey-likert-extra-labels,35,187073,0.0-16.0-2.0,anomymised,656582028f794bf1617e53e2,656738fe7d5a246572db622d,4771,1,man,NA,NA,W1 is chasing W3,chase,rating_volition,"{""Q0"":0}",[0],W1 is behind W3,W3 is behind W1
8036,NA,NA,NA,NA,survey-likert-extra-labels,36,195115,0.0-16.0-3.0-0.0,anomymised,656582028f794bf1617e53e2,656738fe7d5a246572db622d,4771,1,man,NA,NA,W1 is chasing W3,chase,rating_causation,"{""Q0"":6}",[0],W1 is running away from W3,W3 is running away from W1
null,Fred is being copied by Ruth,NA,NA,NA,html-keyboard-response,37,197132,0.0-17.0-0.0,anomymised,656582028f794bf1617e53e2,656738fe7d5a246572db622d,4771,1,man,NA,null,M3 is being copied by W1,copy4,sentence,NA,NA,NA,NA
4374,NA,NA,NA,NA,survey-likert-extra-labels,38,201508,0.0-17.0-1.0-0.0,anomymised,656582028f794bf1617e53e2,656738fe7d5a246572db622d,4771,1,man,NA,NA,M3 is being copied by W1,copy4,rating_causation,"{""Q0"":5}",[0],W1 started copying M3 first,M3 started copying W1 first
4505,NA,NA,NA,NA,survey-likert-extra-labels,39,206018,0.0-17.0-2.0,anomymised,656582028f794bf1617e53e2,656738fe7d5a246572db622d,4771,1,man,NA,NA,M3 is being copied by W1,copy4,rating_volition,"{""Q0"":2}",[0],W1 wanted to copy M3,M3 wanted to copy W1
null,Mike is reminding Beth,NA,NA,NA,html-keyboard-response,40,208030,0.0-18.0-0.0,anomymised,656582028f794bf1617e53e2,656738fe7d5a246572db622d,4771,1,man,NA,null,M2 is reminding W4,remind,sentence,NA,NA,NA,NA
4947,NA,NA,NA,NA,survey-likert-extra-labels,41,212978,0.0-18.0-2.0,anomymised,656582028f794bf1617e53e2,656738fe7d5a246572db622d,4771,1,man,NA,NA,M2 is reminding W4,remind,rating_volition,"{""Q0"":1}",[0],M2 is telling W4 again,W4 is telling M2 again
4427,NA,NA,NA,NA,survey-likert-extra-labels,42,217410,0.0-18.0-3.0-0.0,anomymised,656582028f794bf1617e53e2,656738fe7d5a246572db622d,4771,1,man,NA,NA,M2 is reminding W4,remind,rating_causation,"{""Q0"":0}",[0],M2 is remembering,W4 is remembering
null,Ruth is being looked at by Kate,NA,NA,NA,html-keyboard-response,43,219430,0.0-19.0-0.0,anomymised,656582028f794bf1617e53e2,656738fe7d5a246572db622d,4771,1,man,NA,null,W1 is being looked at by W3,look1,sentence,NA,NA,NA,NA
4546,NA,NA,NA,NA,survey-likert-extra-labels,44,223977,0.0-19.0-2.0,anomymised,656582028f794bf1617e53e2,656738fe7d5a246572db622d,4771,1,man,NA,NA,W1 is being looked at by W3,look1,rating_volition,"{""Q0"":0}",[0],W3 wanted to look at W1,W1 wanted to look at W3
3642,NA,NA,NA,NA,survey-likert-extra-labels,45,227625,0.0-19.0-3.0-0.0,anomymised,656582028f794bf1617e53e2,656738fe7d5a246572db622d,4771,1,man,NA,NA,W1 is being looked at by W3,look1,rating_causation,"{""Q0"":1}",[0],W3 looked at W1 first,W1 looked at W3 first
null,Beth is being opposed by Mike,NA,NA,NA,html-keyboard-response,46,229699,0.0-20.0-0.0,anomymised,656582028f794bf1617e53e2,656738fe7d5a246572db622d,4771,1,man,NA,null,W4 is being opposed by M2,oppose4,sentence,NA,NA,NA,NA
25799,NA,NA,NA,NA,survey-likert-extra-labels,47,255500,0.0-20.0-2.0,anomymised,656582028f794bf1617e53e2,656738fe7d5a246572db622d,4771,1,man,NA,NA,W4 is being opposed by M2,oppose4,rating_volition,"{""Q0"":0}",[0],W4 wanted to oppose M2,M2 wanted to oppose W4
1455,NA,NA,NA,NA,survey-likert-extra-labels,48,256963,0.0-20.0-3.0-0.0,anomymised,656582028f794bf1617e53e2,656738fe7d5a246572db622d,4771,1,man,NA,NA,W4 is being opposed by M2,oppose4,rating_causation,"{""Q0"":3}",[0],W4 started opposing M2,M2 started opposing W4
null,Luke is being challenged by Kate,NA,NA,NA,html-keyboard-response,49,258978,0.0-21.0-0.0,anomymised,656582028f794bf1617e53e2,656738fe7d5a246572db622d,4771,1,man,NA,null,M1 is being challenged by W3,challenge4,sentence,NA,NA,NA,NA
1494,NA,NA,NA,NA,survey-likert-extra-labels,50,260473,0.0-21.0-1.0-0.0,anomymised,656582028f794bf1617e53e2,656738fe7d5a246572db622d,4771,1,man,NA,NA,M1 is being challenged by W3,challenge4,rating_causation,"{""Q0"":5}",[0],M1 started challenging W3 first,W3 started challenging M1 first
1915,NA,NA,NA,NA,survey-likert-extra-labels,51,262395,0.0-21.0-2.0,anomymised,656582028f794bf1617e53e2,656738fe7d5a246572db622d,4771,1,man,NA,NA,M1 is being challenged by W3,challenge4,rating_volition,"{""Q0"":1}",[0],M1 wanted to challenge W3,W3 wanted to challenge M1
null,Kate is being greeted by Luke,NA,NA,NA,html-keyboard-response,52,264414,0.0-22.0-0.0,anomymised,656582028f794bf1617e53e2,656738fe7d5a246572db622d,4771,1,man,NA,null,W3 is being greeted by M1,greet4,sentence,NA,NA,NA,NA
1780,NA,NA,NA,NA,survey-likert-extra-labels,53,266195,0.0-22.0-1.0-0.0,anomymised,656582028f794bf1617e53e2,656738fe7d5a246572db622d,4771,1,man,NA,NA,W3 is being greeted by M1,greet4,rating_causation,"{""Q0"":0}",[0],M1 started greeting W3 first,W3 started greeting M1 first
1408,NA,NA,NA,NA,survey-likert-extra-labels,54,267609,0.0-22.0-2.0,anomymised,656582028f794bf1617e53e2,656738fe7d5a246572db622d,4771,1,man,NA,NA,W3 is being greeted by M1,greet4,rating_volition,"{""Q0"":0}",[0],M1 wanted to greet W3,W3 wanted to greet M1
null,Dave is being challenged by Mike,NA,NA,NA,html-keyboard-response,55,269619,0.0-23.0-0.0,anomymised,656582028f794bf1617e53e2,656738fe7d5a246572db622d,4771,1,man,NA,null,M4 is being challenged by M2,challenge2,sentence,NA,NA,NA,NA
3014,NA,NA,NA,NA,survey-likert-extra-labels,56,272634,0.0-23.0-2.0,anomymised,656582028f794bf1617e53e2,656738fe7d5a246572db622d,4771,1,man,NA,NA,M4 is being challenged by M2,challenge2,rating_volition,"{""Q0"":0}",[0],M4 wanted to challenge M2,M2 wanted to challenge M4
2115,NA,NA,NA,NA,survey-likert-extra-labels,57,274755,0.0-23.0-3.0-0.0,anomymised,656582028f794bf1617e53e2,656738fe7d5a246572db622d,4771,1,man,NA,NA,M4 is being challenged by M2,challenge2,rating_causation,"{""Q0"":0}",[0],M4 started challenging M2 first,M2 started challenging M4 first
null,Fred is being opposed by Luke,NA,NA,NA,html-keyboard-response,58,276770,0.0-24.0-0.0,anomymised,656582028f794bf1617e53e2,656738fe7d5a246572db622d,4771,1,man,NA,null,M3 is being opposed by M1,oppose2,sentence,NA,NA,NA,NA
1846,NA,NA,NA,NA,survey-likert-extra-labels,59,278618,0.0-24.0-1.0-0.0,anomymised,656582028f794bf1617e53e2,656738fe7d5a246572db622d,4771,1,man,NA,NA,M3 is being opposed by M1,oppose2,rating_causation,"{""Q0"":1}",[0],M3 started opposing M1,M1 started opposing M3
2649,NA,NA,NA,NA,survey-likert-extra-labels,60,281273,0.0-24.0-2.0,anomymised,656582028f794bf1617e53e2,656738fe7d5a246572db622d,4771,1,man,NA,NA,M3 is being opposed by M1,oppose2,rating_volition,"{""Q0"":2}",[0],M3 wanted to oppose M1,M1 wanted to oppose M3
null,Fred is being shouted at by Luke,NA,NA,NA,html-keyboard-response,61,283289,0.0-25.0-0.0,anomymised,656582028f794bf1617e53e2,656738fe7d5a246572db622d,4771,1,man,NA,null,M3 is being shouted at by M1,shout2,sentence,NA,NA,NA,NA
2242,NA,NA,NA,NA,survey-likert-extra-labels,62,285533,0.0-25.0-2.0,anomymised,656582028f794bf1617e53e2,656738fe7d5a246572db622d,4771,1,man,NA,NA,M3 is being shouted at by M1,shout2,rating_volition,"{""Q0"":5}",[0],M3 wanted to shout at M1,M1 wanted to shout at M3
1377,NA,NA,NA,NA,survey-likert-extra-labels,63,286915,0.0-25.0-3.0-0.0,anomymised,656582028f794bf1617e53e2,656738fe7d5a246572db622d,4771,1,man,NA,NA,M3 is being shouted at by M1,shout2,rating_causation,"{""Q0"":1}",[0],M3 shouted at M1 first,M1 shouted at M3 first
null,Mike is being kissed by Beth,NA,NA,NA,html-keyboard-response,64,288931,0.0-26.0-0.0,anomymised,656582028f794bf1617e53e2,656738fe7d5a246572db622d,4771,1,man,NA,null,M2 is being kissed by W4,kiss3,sentence,NA,NA,NA,NA
3251,NA,NA,NA,NA,survey-likert-extra-labels,65,292183,0.0-26.0-1.0-0.0,anomymised,656582028f794bf1617e53e2,656738fe7d5a246572db622d,4771,1,man,NA,NA,M2 is being kissed by W4,kiss3,rating_causation,"{""Q0"":1}",[0],W4 asked to kiss M2,M2 asked to kiss W4
1944,NA,NA,NA,NA,survey-likert-extra-labels,66,294131,0.0-26.0-2.0,anomymised,656582028f794bf1617e53e2,656738fe7d5a246572db622d,4771,1,man,NA,NA,M2 is being kissed by W4,kiss3,rating_volition,"{""Q0"":1}",[0],W4 wanted to kiss M2,M2 wanted to kiss W4
null,Dave is being hugged by Jane,NA,NA,NA,html-keyboard-response,67,296145,0.0-27.0-0.0,anomymised,656582028f794bf1617e53e2,656738fe7d5a246572db622d,4771,1,man,NA,null,M4 is being hugged by W2,hug3,sentence,NA,NA,NA,NA
1680,NA,NA,NA,NA,survey-likert-extra-labels,68,297826,0.0-27.0-1.0-0.0,anomymised,656582028f794bf1617e53e2,656738fe7d5a246572db622d,4771,1,man,NA,NA,M4 is being hugged by W2,hug3,rating_causation,"{""Q0"":1}",[0],M4 asked to hug W2,W2 asked to hug M4
1902,NA,NA,NA,NA,survey-likert-extra-labels,69,299736,0.0-27.0-2.0,anomymised,656582028f794bf1617e53e2,656738fe7d5a246572db622d,4771,1,man,NA,NA,M4 is being hugged by W2,hug3,rating_volition,"{""Q0"":2}",[0],M4 wanted to hug W2,W2 wanted to hug M4
null,Luke is driving Fred,NA,NA,NA,html-keyboard-response,70,301752,0.0-28.0-0.0,anomymised,656582028f794bf1617e53e2,656738fe7d5a246572db622d,4771,1,man,NA,null,M1 is driving M3,drive,sentence,NA,NA,NA,NA
1946,NA,NA,NA,NA,survey-likert-extra-labels,71,303700,0.0-28.0-2.0,anomymised,656582028f794bf1617e53e2,656738fe7d5a246572db622d,4771,1,man,NA,NA,M1 is driving M3,drive,rating_volition,"{""Q0"":4}",[0],M1 is M3's passenger,M3 is M1's passenger
1841,NA,NA,NA,NA,survey-likert-extra-labels,72,305546,0.0-28.0-3.0-0.0,anomymised,656582028f794bf1617e53e2,656738fe7d5a246572db622d,4771,1,man,NA,NA,M1 is driving M3,drive,rating_causation,"{""Q0"":5}",[0],M1 is taking M3 somewhere,M3 is taking M1 somewhere
null,Ruth is being challenged by Fred,NA,NA,NA,html-keyboard-response,73,307567,0.0-29.0-0.0,anomymised,656582028f794bf1617e53e2,656738fe7d5a246572db622d,4771,1,man,NA,null,W1 is being challenged by M3,challenge3,sentence,NA,NA,NA,NA
1803,NA,NA,NA,NA,survey-likert-extra-labels,74,309370,0.0-29.0-1.0-0.0,anomymised,656582028f794bf1617e53e2,656738fe7d5a246572db622d,4771,1,man,NA,NA,W1 is being challenged by M3,challenge3,rating_causation,"{""Q0"":5}",[0],W1 started challenging M3 first,M3 started challenging W1 first
2948,NA,NA,NA,NA,survey-likert-extra-labels,75,312322,0.0-29.0-2.0,anomymised,656582028f794bf1617e53e2,656738fe7d5a246572db622d,4771,1,man,NA,NA,W1 is being challenged by M3,challenge3,rating_volition,"{""Q0"":1}",[0],W1 wanted to challenge M3,M3 wanted to challenge W1
null,Jane is being kissed by Dave,NA,NA,NA,html-keyboard-response,76,314339,0.0-30.0-0.0,anomymised,656582028f794bf1617e53e2,656738fe7d5a246572db622d,4771,1,man,NA,null,W2 is being kissed by M4,kiss4,sentence,NA,NA,NA,NA
2414,NA,NA,NA,NA,survey-likert-extra-labels,77,316754,0.0-30.0-2.0,anomymised,656582028f794bf1617e53e2,656738fe7d5a246572db622d,4771,1,man,NA,NA,W2 is being kissed by M4,kiss4,rating_volition,"{""Q0"":5}",[0],M4 wanted to kiss W2,W2 wanted to kiss M4
2113,NA,NA,NA,NA,survey-likert-extra-labels,78,318873,0.0-30.0-3.0-0.0,anomymised,656582028f794bf1617e53e2,656738fe7d5a246572db622d,4771,1,man,NA,NA,W2 is being kissed by M4,kiss4,rating_causation,"{""Q0"":5}",[0],M4 asked to kiss W2,W2 asked to kiss M4
null,Dave is being opposed by Jane,NA,NA,NA,html-keyboard-response,79,320885,0.0-31.0-0.0,anomymised,656582028f794bf1617e53e2,656738fe7d5a246572db622d,4771,1,man,NA,null,M4 is being opposed by W2,oppose3,sentence,NA,NA,NA,NA
3561,NA,NA,NA,NA,survey-likert-extra-labels,80,324448,0.0-31.0-1.0-0.0,anomymised,656582028f794bf1617e53e2,656738fe7d5a246572db622d,4771,1,man,NA,NA,M4 is being opposed by W2,oppose3,rating_causation,"{""Q0"":0}",[0],M4 started opposing W2,W2 started opposing M4
2199,NA,NA,NA,NA,survey-likert-extra-labels,81,326650,0.0-31.0-2.0,anomymised,656582028f794bf1617e53e2,656738fe7d5a246572db622d,4771,1,man,NA,NA,M4 is being opposed by W2,oppose3,rating_volition,"{""Q0"":1}",[0],M4 wanted to oppose W2,W2 wanted to oppose M4
null,Jane is teaching Dave,NA,NA,NA,html-keyboard-response,82,328669,0.0-32.0-0.0,anomymised,656582028f794bf1617e53e2,656738fe7d5a246572db622d,4771,1,man,NA,null,W2 is teaching M4,teach,sentence,NA,NA,NA,NA
2707,NA,NA,NA,NA,survey-likert-extra-labels,83,331378,0.0-32.0-2.0,anomymised,656582028f794bf1617e53e2,656738fe7d5a246572db622d,4771,1,man,NA,NA,W2 is teaching M4,teach,rating_volition,"{""Q0"":1}",[0],W2 is educating M4,M4 is educating W2
1795,NA,NA,NA,NA,survey-likert-extra-labels,84,333178,0.0-32.0-3.0-0.0,anomymised,656582028f794bf1617e53e2,656738fe7d5a246572db622d,4771,1,man,NA,NA,W2 is teaching M4,teach,rating_causation,"{""Q0"":1}",[0],W2 is learning from M4,M4 is learning from W2
null,Mike is being greeted by Dave,NA,NA,NA,html-keyboard-response,85,335185,0.0-33.0-0.0,anomymised,656582028f794bf1617e53e2,656738fe7d5a246572db622d,4771,1,man,NA,null,M2 is being greeted by M4,greet2,sentence,NA,NA,NA,NA
2135,NA,NA,NA,NA,survey-likert-extra-labels,86,337321,0.0-33.0-2.0,anomymised,656582028f794bf1617e53e2,656738fe7d5a246572db622d,4771,1,man,NA,NA,M2 is being greeted by M4,greet2,rating_volition,"{""Q0"":1}",[0],M4 wanted to greet M2,M2 wanted to greet M4
1714,NA,NA,NA,NA,survey-likert-extra-labels,87,339042,0.0-33.0-3.0-0.0,anomymised,656582028f794bf1617e53e2,656738fe7d5a246572db622d,4771,1,man,NA,NA,M2 is being greeted by M4,greet2,rating_causation,"{""Q0"":1}",[0],M4 started greeting M2 first,M2 started greeting M4 first
null,Kate is being opposed by Ruth,NA,NA,NA,html-keyboard-response,88,341061,0.0-34.0-0.0,anomymised,656582028f794bf1617e53e2,656738fe7d5a246572db622d,4771,1,man,NA,null,W3 is being opposed by W1,oppose1,sentence,NA,NA,NA,NA
3722,NA,NA,NA,NA,survey-likert-extra-labels,89,344785,0.0-34.0-1.0-0.0,anomymised,656582028f794bf1617e53e2,656738fe7d5a246572db622d,4771,1,man,NA,NA,W3 is being opposed by W1,oppose1,rating_causation,"{""Q0"":1}",[0],W3 started opposing W1,W1 started opposing W3
1108,NA,NA,NA,NA,survey-likert-extra-labels,90,345899,0.0-34.0-2.0,anomymised,656582028f794bf1617e53e2,656738fe7d5a246572db622d,4771,1,man,NA,NA,W3 is being opposed by W1,oppose1,rating_volition,"{""Q0"":1}",[0],W3 wanted to oppose W1,W1 wanted to oppose W3
null,Fred is hiring Ruth,NA,NA,NA,html-keyboard-response,91,347904,0.0-35.0-0.0,anomymised,656582028f794bf1617e53e2,656738fe7d5a246572db622d,4771,1,man,NA,null,M3 is hiring W1,hire,sentence,NA,NA,NA,NA
2137,NA,NA,NA,NA,survey-likert-extra-labels,92,350043,0.0-35.0-1.0-0.0,anomymised,656582028f794bf1617e53e2,656738fe7d5a246572db622d,4771,1,man,NA,NA,M3 is hiring W1,hire,rating_causation,"{""Q0"":4}",[0],M3 will work for W1,W1 will work for M3
2322,NA,NA,NA,NA,survey-likert-extra-labels,93,352370,0.0-35.0-2.0,anomymised,656582028f794bf1617e53e2,656738fe7d5a246572db622d,4771,1,man,NA,NA,M3 is hiring W1,hire,rating_volition,"{""Q0"":1}",[0],M3 is employing W1,W1 is employing M3
null,Beth is being challenged by Jane,NA,NA,NA,html-keyboard-response,94,354388,0.0-36.0-0.0,anomymised,656582028f794bf1617e53e2,656738fe7d5a246572db622d,4771,1,man,NA,null,W4 is being challenged by W2,challenge1,sentence,NA,NA,NA,NA
2683,NA,NA,NA,NA,survey-likert-extra-labels,95,357073,0.0-36.0-2.0,anomymised,656582028f794bf1617e53e2,656738fe7d5a246572db622d,4771,1,man,NA,NA,W4 is being challenged by W2,challenge1,rating_volition,"{""Q0"":0}",[0],W4 wanted to challenge W2,W2 wanted to challenge W4
3300,NA,NA,NA,NA,survey-likert-extra-labels,96,360380,0.0-36.0-3.0-0.0,anomymised,656582028f794bf1617e53e2,656738fe7d5a246572db622d,4771,1,man,NA,NA,W4 is being challenged by W2,challenge1,rating_causation,"{""Q0"":2}",[0],W4 started challenging W2 first,W2 started challenging W4 first
null,Kate is being copied by Luke,NA,NA,NA,html-keyboard-response,97,362390,0.0-37.0-0.0,anomymised,656582028f794bf1617e53e2,656738fe7d5a246572db622d,4771,1,man,NA,null,W3 is being copied by M1,copy3,sentence,NA,NA,NA,NA
3680,NA,NA,NA,NA,survey-likert-extra-labels,98,366076,0.0-37.0-1.0-0.0,anomymised,656582028f794bf1617e53e2,656738fe7d5a246572db622d,4771,1,man,NA,NA,W3 is being copied by M1,copy3,rating_causation,"{""Q0"":1}",[0],M1 started copying W3 first,W3 started copying M1 first
2126,NA,NA,NA,NA,survey-likert-extra-labels,99,368209,0.0-37.0-2.0,anomymised,656582028f794bf1617e53e2,656738fe7d5a246572db622d,4771,1,man,NA,NA,W3 is being copied by M1,copy3,rating_volition,"{""Q0"":3}",[0],M1 wanted to copy W3,W3 wanted to copy M1
null,Ruth is being seduced by Fred,NA,NA,NA,html-keyboard-response,100,371020,0.0-38.0-0.0,anomymised,656582028f794bf1617e53e2,656738fe7d5a246572db622d,4771,1,man,NA,null,W1 is being seduced by M3,seduce4,sentence,NA,NA,NA,NA
7526,NA,NA,NA,NA,survey-likert-extra-labels,101,378547,0.0-38.0-2.0,anomymised,656582028f794bf1617e53e2,656738fe7d5a246572db622d,4771,1,man,NA,NA,W1 is being seduced by M3,seduce4,rating_volition,"{""Q0"":5}",[0],W1 wanted to seducing M3,M3 wanted to seducing W1
3238,NA,NA,NA,NA,survey-likert-extra-labels,102,381791,0.0-38.0-3.0-0.0,anomymised,656582028f794bf1617e53e2,656738fe7d5a246572db622d,4771,1,man,NA,NA,W1 is being seduced by M3,seduce4,rating_causation,"{""Q0"":4}",[0],W1 started seducing M3 first,M3 started seducing W1 first
null,Fred is being hugged by Luke,NA,NA,NA,html-keyboard-response,103,383799,0.0-39.0-0.0,anomymised,656582028f794bf1617e53e2,656738fe7d5a246572db622d,4771,1,man,NA,null,M3 is being hugged by M1,hug2,sentence,NA,NA,NA,NA
1547,NA,NA,NA,NA,survey-likert-extra-labels,104,385346,0.0-39.0-2.0,anomymised,656582028f794bf1617e53e2,656738fe7d5a246572db622d,4771,1,man,NA,NA,M3 is being hugged by M1,hug2,rating_volition,"{""Q0"":3}",[0],M3 wanted to hug M1,M1 wanted to hug M3
1087,NA,NA,NA,NA,survey-likert-extra-labels,105,386441,0.0-39.0-3.0-0.0,anomymised,656582028f794bf1617e53e2,656738fe7d5a246572db622d,4771,1,man,NA,NA,M3 is being hugged by M1,hug2,rating_causation,"{""Q0"":3}",[0],M3 asked to hug M1,M1 asked to hug M3
null,Fred is being greeted by Ruth,NA,NA,NA,html-keyboard-response,106,388452,0.0-40.0-0.0,anomymised,656582028f794bf1617e53e2,656738fe7d5a246572db622d,4771,1,man,NA,null,M3 is being greeted by W1,greet3,sentence,NA,NA,NA,NA
56109,NA,NA,NA,NA,survey-likert-extra-labels,107,444562,0.0-40.0-2.0,anomymised,656582028f794bf1617e53e2,656738fe7d5a246572db622d,4771,1,man,NA,NA,M3 is being greeted by W1,greet3,rating_volition,"{""Q0"":2}",[0],W1 wanted to greet M3,M3 wanted to greet W1
1851,NA,NA,NA,NA,survey-likert-extra-labels,108,446418,0.0-40.0-3.0-0.0,anomymised,656582028f794bf1617e53e2,656738fe7d5a246572db622d,4771,1,man,NA,NA,M3 is being greeted by W1,greet3,rating_causation,"{""Q0"":4}",[0],W1 started greeting M3 first,M3 started greeting W1 first
null,Dave is being shouted at by Jane,NA,NA,NA,html-keyboard-response,109,448436,0.0-41.0-0.0,anomymised,656582028f794bf1617e53e2,656738fe7d5a246572db622d,4771,1,man,NA,null,M4 is being shouted at by W2,shout4,sentence,NA,NA,NA,NA
2045,NA,NA,NA,NA,survey-likert-extra-labels,110,450482,0.0-41.0-1.0-0.0,anomymised,656582028f794bf1617e53e2,656738fe7d5a246572db622d,4771,1,man,NA,NA,M4 is being shouted at by W2,shout4,rating_causation,"{""Q0"":3}",[0],M4 shouted at W2 first,W2 shouted at M4 first
2708,NA,NA,NA,NA,survey-likert-extra-labels,111,453197,0.0-41.0-2.0,anomymised,656582028f794bf1617e53e2,656738fe7d5a246572db622d,4771,1,man,NA,NA,M4 is being shouted at by W2,shout4,rating_volition,"{""Q0"":1}",[0],M4 wanted to shout at W2,W2 wanted to shout at M4
null,Luke is being touched by Kate,NA,NA,NA,html-keyboard-response,112,455208,0.0-42.0-0.0,anomymised,656582028f794bf1617e53e2,656738fe7d5a246572db622d,4771,1,man,NA,null,M1 is being touched by W3,touch3,sentence,NA,NA,NA,NA
2000,NA,NA,NA,NA,survey-likert-extra-labels,113,457209,0.0-42.0-1.0-0.0,anomymised,656582028f794bf1617e53e2,656738fe7d5a246572db622d,4771,1,man,NA,NA,M1 is being touched by W3,touch3,rating_causation,"{""Q0"":1}",[0],M1 asked to touch W3,W3 asked to touch M1
1274,NA,NA,NA,NA,survey-likert-extra-labels,114,458490,0.0-42.0-2.0,anomymised,656582028f794bf1617e53e2,656738fe7d5a246572db622d,4771,1,man,NA,NA,M1 is being touched by W3,touch3,rating_volition,"{""Q0"":2}",[0],M1 wanted to touch W3,W3 wanted to touch M1
null,Jane is being greeted by Beth,NA,NA,NA,html-keyboard-response,115,460501,0.0-43.0-0.0,anomymised,656582028f794bf1617e53e2,656738fe7d5a246572db622d,4771,1,man,NA,null,W2 is being greeted by W4,greet1,sentence,NA,NA,NA,NA
1364,NA,NA,NA,NA,survey-likert-extra-labels,116,461867,0.0-43.0-1.0-0.0,anomymised,656582028f794bf1617e53e2,656738fe7d5a246572db622d,4771,1,man,NA,NA,W2 is being greeted by W4,greet1,rating_causation,"{""Q0"":1}",[0],W4 started greeting W2 first,W2 started greeting W4 first
1444,NA,NA,NA,NA,survey-likert-extra-labels,117,463316,0.0-43.0-2.0,anomymised,656582028f794bf1617e53e2,656738fe7d5a246572db622d,4771,1,man,NA,NA,W2 is being greeted by W4,greet1,rating_volition,"{""Q0"":2}",[0],W4 wanted to greet W2,W2 wanted to greet W4
null,Ruth is being touched by Fred,NA,NA,NA,html-keyboard-response,118,465323,0.0-44.0-0.0,anomymised,656582028f794bf1617e53e2,656738fe7d5a246572db622d,4771,1,man,NA,null,W1 is being touched by M3,touch4,sentence,NA,NA,NA,NA
2246,NA,NA,NA,NA,survey-likert-extra-labels,119,467570,0.0-44.0-1.0-0.0,anomymised,656582028f794bf1617e53e2,656738fe7d5a246572db622d,4771,1,man,NA,NA,W1 is being touched by M3,touch4,rating_causation,"{""Q0"":2}",[0],W1 asked to touch M3,M3 asked to touch W1
3491,NA,NA,NA,NA,survey-likert-extra-labels,120,471066,0.0-44.0-2.0,anomymised,656582028f794bf1617e53e2,656738fe7d5a246572db622d,4771,1,man,NA,NA,W1 is being touched by M3,touch4,rating_volition,"{""Q0"":3}",[0],W1 wanted to touch M3,M3 wanted to touch W1
null,Jane is being looked at by Dave,NA,NA,NA,html-keyboard-response,121,473077,0.0-45.0-0.0,anomymised,656582028f794bf1617e53e2,656738fe7d5a246572db622d,4771,1,man,NA,null,W2 is being looked at by M4,look3,sentence,NA,NA,NA,NA
1210,NA,NA,NA,NA,survey-likert-extra-labels,122,474288,0.0-45.0-1.0-0.0,anomymised,656582028f794bf1617e53e2,656738fe7d5a246572db622d,4771,1,man,NA,NA,W2 is being looked at by M4,look3,rating_causation,"{""Q0"":5}",[0],M4 looked at W2 first,W2 looked at M4 first
1556,NA,NA,NA,NA,survey-likert-extra-labels,123,475848,0.0-45.0-2.0,anomymised,656582028f794bf1617e53e2,656738fe7d5a246572db622d,4771,1,man,NA,NA,W2 is being looked at by M4,look3,rating_volition,"{""Q0"":4}",[0],M4 wanted to look at W2,W2 wanted to look at M4
null,Jane is carrying Beth,NA,NA,NA,html-keyboard-response,124,477865,0.0-46.0-0.0,anomymised,656582028f794bf1617e53e2,656738fe7d5a246572db622d,4771,1,man,NA,null,W2 is carrying W4,carry,sentence,NA,NA,NA,NA
31670,NA,NA,NA,NA,survey-likert-extra-labels,125,509535,0.0-46.0-2.0,anomymised,656582028f794bf1617e53e2,656738fe7d5a246572db622d,4771,1,man,NA,NA,W2 is carrying W4,carry,rating_volition,"{""Q0"":1}",[0],W2 is transporting W4,W4 is transporting W2
1500,NA,NA,NA,NA,survey-likert-extra-labels,126,511040,0.0-46.0-3.0-0.0,anomymised,656582028f794bf1617e53e2,656738fe7d5a246572db622d,4771,1,man,NA,NA,W2 is carrying W4,carry,rating_causation,"{""Q0"":2}",[0],W2 is being moved by W4,W4 is being moved by W2
null,Luke is being kissed by Fred,NA,NA,NA,html-keyboard-response,127,513044,0.0-47.0-0.0,anomymised,656582028f794bf1617e53e2,656738fe7d5a246572db622d,4771,1,man,NA,null,M1 is being kissed by M3,kiss2,sentence,NA,NA,NA,NA
1395,NA,NA,NA,NA,survey-likert-extra-labels,128,514443,0.0-47.0-2.0,anomymised,656582028f794bf1617e53e2,656738fe7d5a246572db622d,4771,1,man,NA,NA,M1 is being kissed by M3,kiss2,rating_volition,"{""Q0"":2}",[0],M3 wanted to kiss M1,M1 wanted to kiss M3
1599,NA,NA,NA,NA,survey-likert-extra-labels,129,516048,0.0-47.0-3.0-0.0,anomymised,656582028f794bf1617e53e2,656738fe7d5a246572db622d,4771,1,man,NA,NA,M1 is being kissed by M3,kiss2,rating_causation,"{""Q0"":1}",[0],M3 asked to kiss M1,M1 asked to kiss M3
null,Mike is being copied by Dave,NA,NA,NA,html-keyboard-response,130,518403,0.0-48.0-0.0,anomymised,656582028f794bf1617e53e2,656738fe7d5a246572db622d,4771,1,man,NA,null,M2 is being copied by M4,copy2,sentence,NA,NA,NA,NA
21541,NA,NA,NA,NA,survey-likert-extra-labels,131,539945,0.0-48.0-2.0,anomymised,656582028f794bf1617e53e2,656738fe7d5a246572db622d,4771,1,man,NA,NA,M2 is being copied by M4,copy2,rating_volition,"{""Q0"":1}",[0],M4 wanted to copy M2,M2 wanted to copy M4
1698,NA,NA,NA,NA,survey-likert-extra-labels,132,541648,0.0-48.0-3.0-0.0,anomymised,656582028f794bf1617e53e2,656738fe7d5a246572db622d,4771,1,man,NA,NA,M2 is being copied by M4,copy2,rating_causation,"{""Q0"":2}",[0],M4 started copying M2 first,M2 started copying M4 first
null,Beth is being seduced by Jane,NA,NA,NA,html-keyboard-response,133,543665,0.0-49.0-0.0,anomymised,656582028f794bf1617e53e2,656738fe7d5a246572db622d,4771,1,man,NA,null,W4 is being seduced by W2,seduce1,sentence,NA,NA,NA,NA
3125,NA,NA,NA,NA,survey-likert-extra-labels,134,546790,0.0-49.0-1.0-0.0,anomymised,656582028f794bf1617e53e2,656738fe7d5a246572db622d,4771,1,man,NA,NA,W4 is being seduced by W2,seduce1,rating_causation,"{""Q0"":1}",[0],W4 started seducing W2 first,W2 started seducing W4 first
1348,NA,NA,NA,NA,survey-likert-extra-labels,135,548144,0.0-49.0-2.0,anomymised,656582028f794bf1617e53e2,656738fe7d5a246572db622d,4771,1,man,NA,NA,W4 is being seduced by W2,seduce1,rating_volition,"{""Q0"":2}",[0],W4 wanted to seduce W2,W2 wanted to seduce W4
null,Luke is being looked at by Fred,NA,NA,NA,html-keyboard-response,136,550158,0.0-50.0-0.0,anomymised,656582028f794bf1617e53e2,656738fe7d5a246572db622d,4771,1,man,NA,null,M1 is being looked at by M3,look2,sentence,NA,NA,NA,NA
25024,NA,NA,NA,NA,survey-likert-extra-labels,137,575184,0.0-50.0-1.0-0.0,anomymised,656582028f794bf1617e53e2,656738fe7d5a246572db622d,4771,1,man,NA,NA,M1 is being looked at by M3,look2,rating_causation,"{""Q0"":2}",[0],M3 looked at M1 first,M1 looked at M3 first
1827,NA,NA,NA,NA,survey-likert-extra-labels,138,577016,0.0-50.0-2.0,anomymised,656582028f794bf1617e53e2,656738fe7d5a246572db622d,4771,1,man,NA,NA,M1 is being looked at by M3,look2,rating_volition,"{""Q0"":2}",[0],M3 wanted to look at M1,M1 wanted to look at M3
null,Kate is being shouted at by Ruth,NA,NA,NA,html-keyboard-response,139,579035,0.0-51.0-0.0,anomymised,656582028f794bf1617e53e2,656738fe7d5a246572db622d,4771,1,man,NA,null,W3 is being shouted at by W1,shout1,sentence,NA,NA,NA,NA
25131,NA,NA,NA,NA,survey-likert-extra-labels,140,604169,0.0-51.0-2.0,anomymised,656582028f794bf1617e53e2,656738fe7d5a246572db622d,4771,1,man,NA,NA,W3 is being shouted at by W1,shout1,rating_volition,"{""Q0"":1}",[0],W3 wanted to shout at W1,W1 wanted to shout at W3
2713,NA,NA,NA,NA,survey-likert-extra-labels,141,606888,0.0-51.0-3.0-0.0,anomymised,656582028f794bf1617e53e2,656738fe7d5a246572db622d,4771,1,man,NA,NA,W3 is being shouted at by W1,shout1,rating_causation,"{""Q0"":2}",[0],W3 shouted at W1 first,W1 shouted at W3 first
null,Mike is posing for Dave,NA,NA,NA,html-keyboard-response,142,608892,0.0-52.0-0.0,anomymised,656582028f794bf1617e53e2,656738fe7d5a246572db622d,4771,1,man,NA,null,M2 is posing for M4,pose,sentence,NA,NA,NA,NA
17027,NA,NA,NA,NA,survey-likert-extra-labels,143,625920,0.0-52.0-2.0,anomymised,656582028f794bf1617e53e2,656738fe7d5a246572db622d,4771,1,man,NA,NA,M2 is posing for M4,pose,rating_volition,"{""Q0"":2}",[0],M2 is modelling for M4,M4 is modelling for M2
4064,NA,NA,NA,NA,survey-likert-extra-labels,144,629991,0.0-52.0-3.0-0.0,anomymised,656582028f794bf1617e53e2,656738fe7d5a246572db622d,4771,1,man,NA,NA,M2 is posing for M4,pose,rating_causation,"{""Q0"":4}",[0],M2 is photographing M4,M4 is photographing M2
null,Kate is feeding Luke,NA,NA,NA,html-keyboard-response,145,631995,0.0-53.0-0.0,anomymised,656582028f794bf1617e53e2,656738fe7d5a246572db622d,4771,1,man,NA,null,W3 is feeding M1,feed,sentence,NA,NA,NA,NA
10655,NA,NA,NA,NA,survey-likert-extra-labels,146,642650,0.0-53.0-1.0-0.0,anomymised,656582028f794bf1617e53e2,656738fe7d5a246572db622d,4771,1,man,NA,NA,W3 is feeding M1,feed,rating_causation,"{""Q0"":4}",[0],W3 is eating M1's food,M1 is eating W3's food
2015,NA,NA,NA,NA,survey-likert-extra-labels,147,644672,0.0-53.0-2.0,anomymised,656582028f794bf1617e53e2,656738fe7d5a246572db622d,4771,1,man,NA,NA,W3 is feeding M1,feed,rating_volition,"{""Q0"":2}",[0],W3 cooked for M1,M1 cooked for W3
null,Kate is being hugged by Ruth,NA,NA,NA,html-keyboard-response,148,646680,0.0-54.0-0.0,anomymised,656582028f794bf1617e53e2,656738fe7d5a246572db622d,4771,1,man,NA,null,W3 is being hugged by W1,hug1,sentence,NA,NA,NA,NA
341041,NA,NA,NA,NA,survey-likert-extra-labels,149,987723,0.0-54.0-1.0-0.0,anomymised,656582028f794bf1617e53e2,656738fe7d5a246572db622d,4771,1,man,NA,NA,W3 is being hugged by W1,hug1,rating_causation,"{""Q0"":1}",[0],W3 asked to hug W1,W1 asked to hug W3
3036,NA,NA,NA,NA,survey-likert-extra-labels,150,990766,0.0-54.0-2.0,anomymised,656582028f794bf1617e53e2,656738fe7d5a246572db622d,4771,1,man,NA,NA,W3 is being hugged by W1,hug1,rating_volition,"{""Q0"":2}",[0],W3 wanted to hug W1,W1 wanted to hug W3
1180,<p>Thank you for completing that task.</p><p>The final part of this session is a short questionnaire.</p><p>Press Continue.</p>,0,Continue,Continue,html-button-response,151,991948,0.0-55.0,anomymised,656582028f794bf1617e53e2,656738fe7d5a246572db622d,4771,1,man,NA,NA,NA,NA,NA,NA,NA,NA,NA
21580,NA,NA,NA,NA,survey-text,152,1014546,0.0-56.0,anomymised,656582028f794bf1617e53e2,656738fe7d5a246572db622d,4771,1,man,NA,NA,NA,NA,demographics,"{""Q0"":""35"",""Q1"":""english"",""Q2"":""english"",""Q3"":""wales"",""Q4"":""welsh"",""Q5"":""white"",""Q6"":""male""}",NA,NA,NA
3460,<p>This is the last question - thank you for taking part! Have you lived in the UK for the last 5 years or more?</p>,0,"Yes,No",Yes,html-button-response,153,1018007,0.0-57.0,anomymised,656582028f794bf1617e53e2,656738fe7d5a246572db622d,4771,1,man,NA,NA,NA,NA,fiveyears,NA,NA,NA,NA
