rt,stimulus,button_pressed,choices,ChosenStimulus,trial_type,trial_index,time_elapsed,internal_node_id,subject_id,study_id,session_id,subject,list,ppt_gender,url,key_press,sentence_type,verb,test_part,responses,question_order,left_part,right_part
1264,Welcome to the experiment. Press Continue to begin.,0,Continue,Continue,html-button-response,0,1265,0.0-0.0,anomymised,6560c12449ad4f4ac5122a81,6565e3fdbdcef69dfd8880a8,5020,1A,man,NA,NA,NA,NA,NA,NA,NA,NA,NA
4807,NA,NA,NA,NA,external-html,1,7106,0.0-1.0,anomymised,6560c12449ad4f4ac5122a81,6565e3fdbdcef69dfd8880a8,5020,1A,man,consent.html,NA,NA,NA,NA,NA,NA,NA,NA
3253,"<p>Welcome.</p><p>In this experiment we will ask you to imagine some situations.</p><p>Each trial starts with a description of an event.</p><p>Then you will see alternative descriptions of that event, and you will rate on a scale how best they match the original description.</p><p>You will give your answer by clicking a button on a rating scale.</p><p>To do this task, you will have to use your imagination to visualise these events.</p><br><p>Ready?</p>",0,Continue,Continue,html-button-response,2,10360,0.0-2.0,anomymised,6560c12449ad4f4ac5122a81,6565e3fdbdcef69dfd8880a8,5020,1A,man,NA,NA,NA,NA,NA,NA,NA,NA,NA
2106,"<p>Before the experiment starts, you will watch an example trial. Press 'Continue'.</p>",0,Continue,Continue,html-button-response,3,13475,0.0-3.0,anomymised,6560c12449ad4f4ac5122a81,6565e3fdbdcef69dfd8880a8,5020,1A,man,NA,NA,NA,NA,NA,NA,NA,NA,NA
null,The police officer is arresting the robber,NA,NA,NA,html-keyboard-response,4,16500,0.0-4.0,anomymised,6560c12449ad4f4ac5122a81,6565e3fdbdcef69dfd8880a8,5020,1A,man,NA,null,NA,NA,NA,NA,NA,NA,NA
11564,<img src='img/Example-trial.jpg' style='height:550px;''></img>,0,Continue,Continue,html-button-response,5,28065,0.0-5.0,anomymised,6560c12449ad4f4ac5122a81,6565e3fdbdcef69dfd8880a8,5020,1A,man,NA,NA,NA,NA,NA,NA,NA,NA,NA
3055,<p>Ready to start the experiment?</p><br><p><strong>Remember to give an answer by clicking a button on the rating scale.</strong></p><p>Press 'Continue' to begin.</p>,0,Continue,Continue,html-button-response,6,32123,0.0-6.0,anomymised,6560c12449ad4f4ac5122a81,6565e3fdbdcef69dfd8880a8,5020,1A,man,NA,NA,NA,NA,NA,NA,NA,NA,NA
null,Luke is being opposed by Fred,NA,NA,NA,html-keyboard-response,7,35146,0.0-7.0-0.0,anomymised,6560c12449ad4f4ac5122a81,6565e3fdbdcef69dfd8880a8,5020,1A,man,NA,null,M1 is being opposed by M3,oppose2,sentence,NA,NA,NA,NA
8705,NA,NA,NA,NA,survey-likert-extra-labels,8,43851,0.0-7.0-1.0-0.0,anomymised,6560c12449ad4f4ac5122a81,6565e3fdbdcef69dfd8880a8,5020,1A,man,NA,NA,M1 is being opposed by M3,oppose2,rating_causation,"{""Q0"":6}",[0],M1 started opposing M3,M3 started opposing M1
6886,NA,NA,NA,NA,survey-likert-extra-labels,9,50738,0.0-7.0-2.0,anomymised,6560c12449ad4f4ac5122a81,6565e3fdbdcef69dfd8880a8,5020,1A,man,NA,NA,M1 is being opposed by M3,oppose2,rating_volition,"{""Q0"":6}",[0],M1 wanted to oppose M3,M3 wanted to oppose M1
null,Luke is being copied by Kate,NA,NA,NA,html-keyboard-response,10,52744,0.0-8.0-0.0,anomymised,6560c12449ad4f4ac5122a81,6565e3fdbdcef69dfd8880a8,5020,1A,man,NA,null,M1 is being copied by W3,copy3,sentence,NA,NA,NA,NA
3346,NA,NA,NA,NA,survey-likert-extra-labels,11,56091,0.0-8.0-2.0,anomymised,6560c12449ad4f4ac5122a81,6565e3fdbdcef69dfd8880a8,5020,1A,man,NA,NA,M1 is being copied by W3,copy3,rating_volition,"{""Q0"":0}",[0],W3 wanted to copy M1,M1 wanted to copy W3
5282,NA,NA,NA,NA,survey-likert-extra-labels,12,61374,0.0-8.0-3.0-0.0,anomymised,6560c12449ad4f4ac5122a81,6565e3fdbdcef69dfd8880a8,5020,1A,man,NA,NA,M1 is being copied by W3,copy3,rating_causation,"{""Q0"":1}",[0],W3 started copying M1 first,M1 started copying W3 first
null,Mike is being shouted at by Beth,NA,NA,NA,html-keyboard-response,13,63385,0.0-9.0-0.0,anomymised,6560c12449ad4f4ac5122a81,6565e3fdbdcef69dfd8880a8,5020,1A,man,NA,null,M2 is being shouted at by W4,shout3,sentence,NA,NA,NA,NA
24231,NA,NA,NA,NA,survey-likert-extra-labels,14,87616,0.0-9.0-1.0-0.0,anomymised,6560c12449ad4f4ac5122a81,6565e3fdbdcef69dfd8880a8,5020,1A,man,NA,NA,M2 is being shouted at by W4,shout3,rating_causation,"{""Q0"":6}",[0],M2 shouted at W4 first,W4 shouted at M2 first
3286,NA,NA,NA,NA,survey-likert-extra-labels,15,90904,0.0-9.0-2.0,anomymised,6560c12449ad4f4ac5122a81,6565e3fdbdcef69dfd8880a8,5020,1A,man,NA,NA,M2 is being shouted at by W4,shout3,rating_volition,"{""Q0"":6}",[0],M2 wanted to shout at W4,W4 wanted to shout at M2
null,Fred is being seduced by Ruth,NA,NA,NA,html-keyboard-response,16,92915,0.0-10.0-0.0,anomymised,6560c12449ad4f4ac5122a81,6565e3fdbdcef69dfd8880a8,5020,1A,man,NA,null,M3 is being seduced by W1,seduce4,sentence,NA,NA,NA,NA
3061,NA,NA,NA,NA,survey-likert-extra-labels,17,95976,0.0-10.0-1.0-0.0,anomymised,6560c12449ad4f4ac5122a81,6565e3fdbdcef69dfd8880a8,5020,1A,man,NA,NA,M3 is being seduced by W1,seduce4,rating_causation,"{""Q0"":6}",[0],M3 started seducing W1 first,W1 started seducing M3 first
7311,NA,NA,NA,NA,survey-likert-extra-labels,18,103288,0.0-10.0-2.0,anomymised,6560c12449ad4f4ac5122a81,6565e3fdbdcef69dfd8880a8,5020,1A,man,NA,NA,M3 is being seduced by W1,seduce4,rating_volition,"{""Q0"":5}",[0],M3 wanted to seducing W1,W1 wanted to seducing M3
null,Jane is being opposed by Dave,NA,NA,NA,html-keyboard-response,19,105301,0.0-11.0-0.0,anomymised,6560c12449ad4f4ac5122a81,6565e3fdbdcef69dfd8880a8,5020,1A,man,NA,null,W2 is being opposed by M4,oppose3,sentence,NA,NA,NA,NA
16008,NA,NA,NA,NA,survey-likert-extra-labels,20,121309,0.0-11.0-2.0,anomymised,6560c12449ad4f4ac5122a81,6565e3fdbdcef69dfd8880a8,5020,1A,man,NA,NA,W2 is being opposed by M4,oppose3,rating_volition,"{""Q0"":6}",[0],W2 wanted to oppose M4,M4 wanted to oppose W2
7872,NA,NA,NA,NA,survey-likert-extra-labels,21,129182,0.0-11.0-3.0-0.0,anomymised,6560c12449ad4f4ac5122a81,6565e3fdbdcef69dfd8880a8,5020,1A,man,NA,NA,W2 is being opposed by M4,oppose3,rating_causation,"{""Q0"":6}",[0],W2 started opposing M4,M4 started opposing W2
null,Jane is being touched by Beth,NA,NA,NA,html-keyboard-response,22,131187,0.0-12.0-0.0,anomymised,6560c12449ad4f4ac5122a81,6565e3fdbdcef69dfd8880a8,5020,1A,man,NA,null,W2 is being touched by W4,touch1,sentence,NA,NA,NA,NA
16398,NA,NA,NA,NA,survey-likert-extra-labels,23,147585,0.0-12.0-1.0-0.0,anomymised,6560c12449ad4f4ac5122a81,6565e3fdbdcef69dfd8880a8,5020,1A,man,NA,NA,W2 is being touched by W4,touch1,rating_causation,"{""Q0"":5}",[0],W2 asked to touch W4,W4 asked to touch W2
3498,NA,NA,NA,NA,survey-likert-extra-labels,24,151084,0.0-12.0-2.0,anomymised,6560c12449ad4f4ac5122a81,6565e3fdbdcef69dfd8880a8,5020,1A,man,NA,NA,W2 is being touched by W4,touch1,rating_volition,"{""Q0"":5}",[0],W2 wanted to touch W4,W4 wanted to touch W2
null,Kate is being looked at by Ruth,NA,NA,NA,html-keyboard-response,25,153097,0.0-13.0-0.0,anomymised,6560c12449ad4f4ac5122a81,6565e3fdbdcef69dfd8880a8,5020,1A,man,NA,null,W3 is being looked at by W1,look1,sentence,NA,NA,NA,NA
13907,NA,NA,NA,NA,survey-likert-extra-labels,26,167006,0.0-13.0-2.0,anomymised,6560c12449ad4f4ac5122a81,6565e3fdbdcef69dfd8880a8,5020,1A,man,NA,NA,W3 is being looked at by W1,look1,rating_volition,"{""Q0"":0}",[0],W1 wanted to look at W3,W3 wanted to look at W1
4793,NA,NA,NA,NA,survey-likert-extra-labels,27,171799,0.0-13.0-3.0-0.0,anomymised,6560c12449ad4f4ac5122a81,6565e3fdbdcef69dfd8880a8,5020,1A,man,NA,NA,W3 is being looked at by W1,look1,rating_causation,"{""Q0"":0}",[0],W1 looked at W3 first,W3 looked at W1 first
null,Dave is being looked at by Jane,NA,NA,NA,html-keyboard-response,28,173881,0.0-14.0-0.0,anomymised,6560c12449ad4f4ac5122a81,6565e3fdbdcef69dfd8880a8,5020,1A,man,NA,null,M4 is being looked at by W2,look3,sentence,NA,NA,NA,NA
4040,NA,NA,NA,NA,survey-likert-extra-labels,29,177921,0.0-14.0-1.0-0.0,anomymised,6560c12449ad4f4ac5122a81,6565e3fdbdcef69dfd8880a8,5020,1A,man,NA,NA,M4 is being looked at by W2,look3,rating_causation,"{""Q0"":0}",[0],W2 looked at M4 first,M4 looked at W2 first
2380,NA,NA,NA,NA,survey-likert-extra-labels,30,180301,0.0-14.0-2.0,anomymised,6560c12449ad4f4ac5122a81,6565e3fdbdcef69dfd8880a8,5020,1A,man,NA,NA,M4 is being looked at by W2,look3,rating_volition,"{""Q0"":6}",[0],W2 wanted to look at M4,M4 wanted to look at W2
null,Dave is being greeted by Mike,NA,NA,NA,html-keyboard-response,31,182305,0.0-15.0-0.0,anomymised,6560c12449ad4f4ac5122a81,6565e3fdbdcef69dfd8880a8,5020,1A,man,NA,null,M4 is being greeted by M2,greet2,sentence,NA,NA,NA,NA
2789,NA,NA,NA,NA,survey-likert-extra-labels,32,185093,0.0-15.0-1.0-0.0,anomymised,6560c12449ad4f4ac5122a81,6565e3fdbdcef69dfd8880a8,5020,1A,man,NA,NA,M4 is being greeted by M2,greet2,rating_causation,"{""Q0"":0}",[0],M2 started greeting M4 first,M4 started greeting M2 first
3007,NA,NA,NA,NA,survey-likert-extra-labels,33,188103,0.0-15.0-2.0,anomymised,6560c12449ad4f4ac5122a81,6565e3fdbdcef69dfd8880a8,5020,1A,man,NA,NA,M4 is being greeted by M2,greet2,rating_volition,"{""Q0"":1}",[0],M2 wanted to greet M4,M4 wanted to greet M2
null,Beth is being copied by Jane,NA,NA,NA,html-keyboard-response,34,190103,0.0-16.0-0.0,anomymised,6560c12449ad4f4ac5122a81,6565e3fdbdcef69dfd8880a8,5020,1A,man,NA,null,W4 is being copied by W2,copy1,sentence,NA,NA,NA,NA
2827,NA,NA,NA,NA,survey-likert-extra-labels,35,192933,0.0-16.0-1.0-0.0,anomymised,6560c12449ad4f4ac5122a81,6565e3fdbdcef69dfd8880a8,5020,1A,man,NA,NA,W4 is being copied by W2,copy1,rating_causation,"{""Q0"":1}",[0],W2 started copying W4 first,W4 started copying W2 first
3324,NA,NA,NA,NA,survey-likert-extra-labels,36,196256,0.0-16.0-2.0,anomymised,6560c12449ad4f4ac5122a81,6565e3fdbdcef69dfd8880a8,5020,1A,man,NA,NA,W4 is being copied by W2,copy1,rating_volition,"{""Q0"":1}",[0],W2 wanted to copy W4,W4 wanted to copy W2
null,Ruth is chasing Kate,NA,NA,NA,html-keyboard-response,37,198259,0.0-17.0-0.0,anomymised,6560c12449ad4f4ac5122a81,6565e3fdbdcef69dfd8880a8,5020,1A,man,NA,null,W1 is chasing W3,chase,sentence,NA,NA,NA,NA
3385,NA,NA,NA,NA,survey-likert-extra-labels,38,201645,0.0-17.0-1.0-0.0,anomymised,6560c12449ad4f4ac5122a81,6565e3fdbdcef69dfd8880a8,5020,1A,man,NA,NA,W1 is chasing W3,chase,rating_causation,"{""Q0"":6}",[0],W1 is running away from W3,W3 is running away from W1
2589,NA,NA,NA,NA,survey-likert-extra-labels,39,204236,0.0-17.0-2.0,anomymised,6560c12449ad4f4ac5122a81,6565e3fdbdcef69dfd8880a8,5020,1A,man,NA,NA,W1 is chasing W3,chase,rating_volition,"{""Q0"":0}",[0],W1 is behind W3,W3 is behind W1
null,Mike is posing for Dave,NA,NA,NA,html-keyboard-response,40,206314,0.0-18.0-0.0,anomymised,6560c12449ad4f4ac5122a81,6565e3fdbdcef69dfd8880a8,5020,1A,man,NA,null,M2 is posing for M4,pose,sentence,NA,NA,NA,NA
3170,NA,NA,NA,NA,survey-likert-extra-labels,41,209485,0.0-18.0-2.0,anomymised,6560c12449ad4f4ac5122a81,6565e3fdbdcef69dfd8880a8,5020,1A,man,NA,NA,M2 is posing for M4,pose,rating_volition,"{""Q0"":0}",[0],M2 is modelling for M4,M4 is modelling for M2
19735,NA,NA,NA,NA,survey-likert-extra-labels,42,229220,0.0-18.0-3.0-0.0,anomymised,6560c12449ad4f4ac5122a81,6565e3fdbdcef69dfd8880a8,5020,1A,man,NA,NA,M2 is posing for M4,pose,rating_causation,"{""Q0"":6}",[0],M2 is photographing M4,M4 is photographing M2
null,Kate is being seduced by Luke,NA,NA,NA,html-keyboard-response,43,231288,0.0-19.0-0.0,anomymised,6560c12449ad4f4ac5122a81,6565e3fdbdcef69dfd8880a8,5020,1A,man,NA,null,W3 is being seduced by M1,seduce3,sentence,NA,NA,NA,NA
2375,NA,NA,NA,NA,survey-likert-extra-labels,44,233664,0.0-19.0-2.0,anomymised,6560c12449ad4f4ac5122a81,6565e3fdbdcef69dfd8880a8,5020,1A,man,NA,NA,W3 is being seduced by M1,seduce3,rating_volition,"{""Q0"":5}",[0],W3 wanted to seduce M1,M1 wanted to seduce W3
2344,NA,NA,NA,NA,survey-likert-extra-labels,45,236009,0.0-19.0-3.0-0.0,anomymised,6560c12449ad4f4ac5122a81,6565e3fdbdcef69dfd8880a8,5020,1A,man,NA,NA,W3 is being seduced by M1,seduce3,rating_causation,"{""Q0"":5}",[0],W3 started seducing M1 first,M1 started seducing W3 first
null,Mike is being seduced by Dave,NA,NA,NA,html-keyboard-response,46,238011,0.0-20.0-0.0,anomymised,6560c12449ad4f4ac5122a81,6565e3fdbdcef69dfd8880a8,5020,1A,man,NA,null,M2 is being seduced by M4,seduce2,sentence,NA,NA,NA,NA
3316,NA,NA,NA,NA,survey-likert-extra-labels,47,241327,0.0-20.0-2.0,anomymised,6560c12449ad4f4ac5122a81,6565e3fdbdcef69dfd8880a8,5020,1A,man,NA,NA,M2 is being seduced by M4,seduce2,rating_volition,"{""Q0"":5}",[0],M2 wanted to seduce M4,M4 wanted to seduce M2
2310,NA,NA,NA,NA,survey-likert-extra-labels,48,243637,0.0-20.0-3.0-0.0,anomymised,6560c12449ad4f4ac5122a81,6565e3fdbdcef69dfd8880a8,5020,1A,man,NA,NA,M2 is being seduced by M4,seduce2,rating_causation,"{""Q0"":5}",[0],M2 started seducing M4 first,M4 started seducing M2 first
null,Jane is being shouted at by Dave,NA,NA,NA,html-keyboard-response,49,245649,0.0-21.0-0.0,anomymised,6560c12449ad4f4ac5122a81,6565e3fdbdcef69dfd8880a8,5020,1A,man,NA,null,W2 is being shouted at by M4,shout4,sentence,NA,NA,NA,NA
6561,NA,NA,NA,NA,survey-likert-extra-labels,50,252209,0.0-21.0-2.0,anomymised,6560c12449ad4f4ac5122a81,6565e3fdbdcef69dfd8880a8,5020,1A,man,NA,NA,W2 is being shouted at by M4,shout4,rating_volition,"{""Q0"":1}",[0],W2 wanted to shout at M4,M4 wanted to shout at W2
1644,NA,NA,NA,NA,survey-likert-extra-labels,51,253855,0.0-21.0-3.0-0.0,anomymised,6560c12449ad4f4ac5122a81,6565e3fdbdcef69dfd8880a8,5020,1A,man,NA,NA,W2 is being shouted at by M4,shout4,rating_causation,"{""Q0"":5}",[0],W2 shouted at M4 first,M4 shouted at W2 first
null,Beth is being greeted by Jane,NA,NA,NA,html-keyboard-response,52,255870,0.0-22.0-0.0,anomymised,6560c12449ad4f4ac5122a81,6565e3fdbdcef69dfd8880a8,5020,1A,man,NA,null,W4 is being greeted by W2,greet1,sentence,NA,NA,NA,NA
5438,NA,NA,NA,NA,survey-likert-extra-labels,53,261309,0.0-22.0-2.0,anomymised,6560c12449ad4f4ac5122a81,6565e3fdbdcef69dfd8880a8,5020,1A,man,NA,NA,W4 is being greeted by W2,greet1,rating_volition,"{""Q0"":1}",[0],W2 wanted to greet W4,W4 wanted to greet W2
3604,NA,NA,NA,NA,survey-likert-extra-labels,54,264914,0.0-22.0-3.0-0.0,anomymised,6560c12449ad4f4ac5122a81,6565e3fdbdcef69dfd8880a8,5020,1A,man,NA,NA,W4 is being greeted by W2,greet1,rating_causation,"{""Q0"":1}",[0],W2 started greeting W4 first,W4 started greeting W2 first
null,Luke is being shouted at by Fred,NA,NA,NA,html-keyboard-response,55,266918,0.0-23.0-0.0,anomymised,6560c12449ad4f4ac5122a81,6565e3fdbdcef69dfd8880a8,5020,1A,man,NA,null,M1 is being shouted at by M3,shout2,sentence,NA,NA,NA,NA
2649,NA,NA,NA,NA,survey-likert-extra-labels,56,269569,0.0-23.0-2.0,anomymised,6560c12449ad4f4ac5122a81,6565e3fdbdcef69dfd8880a8,5020,1A,man,NA,NA,M1 is being shouted at by M3,shout2,rating_volition,"{""Q0"":6}",[0],M1 wanted to shout at M3,M3 wanted to shout at M1
3112,NA,NA,NA,NA,survey-likert-extra-labels,57,272682,0.0-23.0-3.0-0.0,anomymised,6560c12449ad4f4ac5122a81,6565e3fdbdcef69dfd8880a8,5020,1A,man,NA,NA,M1 is being shouted at by M3,shout2,rating_causation,"{""Q0"":5}",[0],M1 shouted at M3 first,M3 shouted at M1 first
null,Kate is being touched by Luke,NA,NA,NA,html-keyboard-response,58,274820,0.0-24.0-0.0,anomymised,6560c12449ad4f4ac5122a81,6565e3fdbdcef69dfd8880a8,5020,1A,man,NA,null,W3 is being touched by M1,touch3,sentence,NA,NA,NA,NA
3914,NA,NA,NA,NA,survey-likert-extra-labels,59,278736,0.0-24.0-1.0-0.0,anomymised,6560c12449ad4f4ac5122a81,6565e3fdbdcef69dfd8880a8,5020,1A,man,NA,NA,W3 is being touched by M1,touch3,rating_causation,"{""Q0"":5}",[0],W3 asked to touch M1,M1 asked to touch W3
2238,NA,NA,NA,NA,survey-likert-extra-labels,60,280975,0.0-24.0-2.0,anomymised,6560c12449ad4f4ac5122a81,6565e3fdbdcef69dfd8880a8,5020,1A,man,NA,NA,W3 is being touched by M1,touch3,rating_volition,"{""Q0"":5}",[0],W3 wanted to touch M1,M1 wanted to touch W3
null,Kate is feeding Luke,NA,NA,NA,html-keyboard-response,61,282977,0.0-25.0-0.0,anomymised,6560c12449ad4f4ac5122a81,6565e3fdbdcef69dfd8880a8,5020,1A,man,NA,null,W3 is feeding M1,feed,sentence,NA,NA,NA,NA
2057,NA,NA,NA,NA,survey-likert-extra-labels,62,285034,0.0-25.0-2.0,anomymised,6560c12449ad4f4ac5122a81,6565e3fdbdcef69dfd8880a8,5020,1A,man,NA,NA,W3 is feeding M1,feed,rating_volition,"{""Q0"":1}",[0],W3 cooked for M1,M1 cooked for W3
1959,NA,NA,NA,NA,survey-likert-extra-labels,63,286994,0.0-25.0-3.0-0.0,anomymised,6560c12449ad4f4ac5122a81,6565e3fdbdcef69dfd8880a8,5020,1A,man,NA,NA,W3 is feeding M1,feed,rating_causation,"{""Q0"":5}",[0],W3 is eating M1's food,M1 is eating W3's food
null,Jane is being challenged by Beth,NA,NA,NA,html-keyboard-response,64,289147,0.0-26.0-0.0,anomymised,6560c12449ad4f4ac5122a81,6565e3fdbdcef69dfd8880a8,5020,1A,man,NA,null,W2 is being challenged by W4,challenge1,sentence,NA,NA,NA,NA
3656,NA,NA,NA,NA,survey-likert-extra-labels,65,292803,0.0-26.0-2.0,anomymised,6560c12449ad4f4ac5122a81,6565e3fdbdcef69dfd8880a8,5020,1A,man,NA,NA,W2 is being challenged by W4,challenge1,rating_volition,"{""Q0"":6}",[0],W2 wanted to challenge W4,W4 wanted to challenge W2
1188,NA,NA,NA,NA,survey-likert-extra-labels,66,293993,0.0-26.0-3.0-0.0,anomymised,6560c12449ad4f4ac5122a81,6565e3fdbdcef69dfd8880a8,5020,1A,man,NA,NA,W2 is being challenged by W4,challenge1,rating_causation,"{""Q0"":1}",[0],W2 started challenging W4 first,W4 started challenging W2 first
null,Kate is being kissed by Ruth,NA,NA,NA,html-keyboard-response,67,296209,0.0-27.0-0.0,anomymised,6560c12449ad4f4ac5122a81,6565e3fdbdcef69dfd8880a8,5020,1A,man,NA,null,W3 is being kissed by W1,kiss1,sentence,NA,NA,NA,NA
6743,NA,NA,NA,NA,survey-likert-extra-labels,68,302952,0.0-27.0-2.0,anomymised,6560c12449ad4f4ac5122a81,6565e3fdbdcef69dfd8880a8,5020,1A,man,NA,NA,W3 is being kissed by W1,kiss1,rating_volition,"{""Q0"":5}",[0],W1 wanted to kiss W3,W3 wanted to kiss W1
3182,NA,NA,NA,NA,survey-likert-extra-labels,69,306135,0.0-27.0-3.0-0.0,anomymised,6560c12449ad4f4ac5122a81,6565e3fdbdcef69dfd8880a8,5020,1A,man,NA,NA,W3 is being kissed by W1,kiss1,rating_causation,"{""Q0"":1}",[0],W1 asked to kiss W3,W3 asked to kiss W1
null,Jane is being hugged by Dave,NA,NA,NA,html-keyboard-response,70,308181,0.0-28.0-0.0,anomymised,6560c12449ad4f4ac5122a81,6565e3fdbdcef69dfd8880a8,5020,1A,man,NA,null,W2 is being hugged by M4,hug3,sentence,NA,NA,NA,NA
2575,NA,NA,NA,NA,survey-likert-extra-labels,71,310756,0.0-28.0-1.0-0.0,anomymised,6560c12449ad4f4ac5122a81,6565e3fdbdcef69dfd8880a8,5020,1A,man,NA,NA,W2 is being hugged by M4,hug3,rating_causation,"{""Q0"":5}",[0],W2 asked to hug M4,M4 asked to hug W2
1784,NA,NA,NA,NA,survey-likert-extra-labels,72,312540,0.0-28.0-2.0,anomymised,6560c12449ad4f4ac5122a81,6565e3fdbdcef69dfd8880a8,5020,1A,man,NA,NA,W2 is being hugged by M4,hug3,rating_volition,"{""Q0"":5}",[0],W2 wanted to hug M4,M4 wanted to hug W2
null,Dave is being copied by Mike,NA,NA,NA,html-keyboard-response,73,314615,0.0-29.0-0.0,anomymised,6560c12449ad4f4ac5122a81,6565e3fdbdcef69dfd8880a8,5020,1A,man,NA,null,M4 is being copied by M2,copy2,sentence,NA,NA,NA,NA
2229,NA,NA,NA,NA,survey-likert-extra-labels,74,316845,0.0-29.0-1.0-0.0,anomymised,6560c12449ad4f4ac5122a81,6565e3fdbdcef69dfd8880a8,5020,1A,man,NA,NA,M4 is being copied by M2,copy2,rating_causation,"{""Q0"":5}",[0],M2 started copying M4 first,M4 started copying M2 first
1714,NA,NA,NA,NA,survey-likert-extra-labels,75,318559,0.0-29.0-2.0,anomymised,6560c12449ad4f4ac5122a81,6565e3fdbdcef69dfd8880a8,5020,1A,man,NA,NA,M4 is being copied by M2,copy2,rating_volition,"{""Q0"":0}",[0],M2 wanted to copy M4,M4 wanted to copy M2
null,Mike is being challenged by Dave,NA,NA,NA,html-keyboard-response,76,320615,0.0-30.0-0.0,anomymised,6560c12449ad4f4ac5122a81,6565e3fdbdcef69dfd8880a8,5020,1A,man,NA,null,M2 is being challenged by M4,challenge2,sentence,NA,NA,NA,NA
3894,NA,NA,NA,NA,survey-likert-extra-labels,77,324508,0.0-30.0-1.0-0.0,anomymised,6560c12449ad4f4ac5122a81,6565e3fdbdcef69dfd8880a8,5020,1A,man,NA,NA,M2 is being challenged by M4,challenge2,rating_causation,"{""Q0"":1}",[0],M2 started challenging M4 first,M4 started challenging M2 first
2834,NA,NA,NA,NA,survey-likert-extra-labels,78,327343,0.0-30.0-2.0,anomymised,6560c12449ad4f4ac5122a81,6565e3fdbdcef69dfd8880a8,5020,1A,man,NA,NA,M2 is being challenged by M4,challenge2,rating_volition,"{""Q0"":5}",[0],M2 wanted to challenge M4,M4 wanted to challenge M2
null,Luke is being hugged by Fred,NA,NA,NA,html-keyboard-response,79,329358,0.0-31.0-0.0,anomymised,6560c12449ad4f4ac5122a81,6565e3fdbdcef69dfd8880a8,5020,1A,man,NA,null,M1 is being hugged by M3,hug2,sentence,NA,NA,NA,NA
2778,NA,NA,NA,NA,survey-likert-extra-labels,80,332137,0.0-31.0-1.0-0.0,anomymised,6560c12449ad4f4ac5122a81,6565e3fdbdcef69dfd8880a8,5020,1A,man,NA,NA,M1 is being hugged by M3,hug2,rating_causation,"{""Q0"":1}",[0],M1 asked to hug M3,M3 asked to hug M1
1576,NA,NA,NA,NA,survey-likert-extra-labels,81,333712,0.0-31.0-2.0,anomymised,6560c12449ad4f4ac5122a81,6565e3fdbdcef69dfd8880a8,5020,1A,man,NA,NA,M1 is being hugged by M3,hug2,rating_volition,"{""Q0"":5}",[0],M1 wanted to hug M3,M3 wanted to hug M1
null,Ruth is being hugged by Kate,NA,NA,NA,html-keyboard-response,82,335718,0.0-32.0-0.0,anomymised,6560c12449ad4f4ac5122a81,6565e3fdbdcef69dfd8880a8,5020,1A,man,NA,null,W1 is being hugged by W3,hug1,sentence,NA,NA,NA,NA
2752,NA,NA,NA,NA,survey-likert-extra-labels,83,338471,0.0-32.0-1.0-0.0,anomymised,6560c12449ad4f4ac5122a81,6565e3fdbdcef69dfd8880a8,5020,1A,man,NA,NA,W1 is being hugged by W3,hug1,rating_causation,"{""Q0"":5}",[0],W1 asked to hug W3,W3 asked to hug W1
2272,NA,NA,NA,NA,survey-likert-extra-labels,84,340745,0.0-32.0-2.0,anomymised,6560c12449ad4f4ac5122a81,6565e3fdbdcef69dfd8880a8,5020,1A,man,NA,NA,W1 is being hugged by W3,hug1,rating_volition,"{""Q0"":5}",[0],W1 wanted to hug W3,W3 wanted to hug W1
null,Ruth is being shouted at by Kate,NA,NA,NA,html-keyboard-response,85,342759,0.0-33.0-0.0,anomymised,6560c12449ad4f4ac5122a81,6565e3fdbdcef69dfd8880a8,5020,1A,man,NA,null,W1 is being shouted at by W3,shout1,sentence,NA,NA,NA,NA
2220,NA,NA,NA,NA,survey-likert-extra-labels,86,344979,0.0-33.0-2.0,anomymised,6560c12449ad4f4ac5122a81,6565e3fdbdcef69dfd8880a8,5020,1A,man,NA,NA,W1 is being shouted at by W3,shout1,rating_volition,"{""Q0"":5}",[0],W1 wanted to shout at W3,W3 wanted to shout at W1
1294,NA,NA,NA,NA,survey-likert-extra-labels,87,346273,0.0-33.0-3.0-0.0,anomymised,6560c12449ad4f4ac5122a81,6565e3fdbdcef69dfd8880a8,5020,1A,man,NA,NA,W1 is being shouted at by W3,shout1,rating_causation,"{""Q0"":1}",[0],W1 shouted at W3 first,W3 shouted at W1 first
null,Mike is being opposed by Beth,NA,NA,NA,html-keyboard-response,88,348294,0.0-34.0-0.0,anomymised,6560c12449ad4f4ac5122a81,6565e3fdbdcef69dfd8880a8,5020,1A,man,NA,null,M2 is being opposed by W4,oppose4,sentence,NA,NA,NA,NA
4207,NA,NA,NA,NA,survey-likert-extra-labels,89,352503,0.0-34.0-1.0-0.0,anomymised,6560c12449ad4f4ac5122a81,6565e3fdbdcef69dfd8880a8,5020,1A,man,NA,NA,M2 is being opposed by W4,oppose4,rating_causation,"{""Q0"":5}",[0],M2 started opposing W4,W4 started opposing M2
1713,NA,NA,NA,NA,survey-likert-extra-labels,90,354217,0.0-34.0-2.0,anomymised,6560c12449ad4f4ac5122a81,6565e3fdbdcef69dfd8880a8,5020,1A,man,NA,NA,M2 is being opposed by W4,oppose4,rating_volition,"{""Q0"":5}",[0],M2 wanted to oppose W4,W4 wanted to oppose M2
null,Fred is hiring Ruth,NA,NA,NA,html-keyboard-response,91,356224,0.0-35.0-0.0,anomymised,6560c12449ad4f4ac5122a81,6565e3fdbdcef69dfd8880a8,5020,1A,man,NA,null,M3 is hiring W1,hire,sentence,NA,NA,NA,NA
4153,NA,NA,NA,NA,survey-likert-extra-labels,92,360377,0.0-35.0-1.0-0.0,anomymised,6560c12449ad4f4ac5122a81,6565e3fdbdcef69dfd8880a8,5020,1A,man,NA,NA,M3 is hiring W1,hire,rating_causation,"{""Q0"":5}",[0],M3 will work for W1,W1 will work for M3
1853,NA,NA,NA,NA,survey-likert-extra-labels,93,362231,0.0-35.0-2.0,anomymised,6560c12449ad4f4ac5122a81,6565e3fdbdcef69dfd8880a8,5020,1A,man,NA,NA,M3 is hiring W1,hire,rating_volition,"{""Q0"":1}",[0],M3 is employing W1,W1 is employing M3
null,Beth is being looked at by Mike,NA,NA,NA,html-keyboard-response,94,364395,0.0-36.0-0.0,anomymised,6560c12449ad4f4ac5122a81,6565e3fdbdcef69dfd8880a8,5020,1A,man,NA,null,W4 is being looked at by M2,look4,sentence,NA,NA,NA,NA
1476,NA,NA,NA,NA,survey-likert-extra-labels,95,365871,0.0-36.0-2.0,anomymised,6560c12449ad4f4ac5122a81,6565e3fdbdcef69dfd8880a8,5020,1A,man,NA,NA,W4 is being looked at by M2,look4,rating_volition,"{""Q0"":0}",[0],M2 wanted to look at W4,W4 wanted to look at M2
1678,NA,NA,NA,NA,survey-likert-extra-labels,96,367552,0.0-36.0-3.0-0.0,anomymised,6560c12449ad4f4ac5122a81,6565e3fdbdcef69dfd8880a8,5020,1A,man,NA,NA,W4 is being looked at by M2,look4,rating_causation,"{""Q0"":0}",[0],M2 looked at W4 first,W4 looked at M2 first
null,Beth is being kissed by Mike,NA,NA,NA,html-keyboard-response,97,369620,0.0-37.0-0.0,anomymised,6560c12449ad4f4ac5122a81,6565e3fdbdcef69dfd8880a8,5020,1A,man,NA,null,W4 is being kissed by M2,kiss3,sentence,NA,NA,NA,NA
3249,NA,NA,NA,NA,survey-likert-extra-labels,98,372870,0.0-37.0-1.0-0.0,anomymised,6560c12449ad4f4ac5122a81,6565e3fdbdcef69dfd8880a8,5020,1A,man,NA,NA,W4 is being kissed by M2,kiss3,rating_causation,"{""Q0"":1}",[0],M2 asked to kiss W4,W4 asked to kiss M2
2659,NA,NA,NA,NA,survey-likert-extra-labels,99,375530,0.0-37.0-2.0,anomymised,6560c12449ad4f4ac5122a81,6565e3fdbdcef69dfd8880a8,5020,1A,man,NA,NA,W4 is being kissed by M2,kiss3,rating_volition,"{""Q0"":0}",[0],M2 wanted to kiss W4,W4 wanted to kiss M2
null,Ruth is being opposed by Kate,NA,NA,NA,html-keyboard-response,100,377534,0.0-38.0-0.0,anomymised,6560c12449ad4f4ac5122a81,6565e3fdbdcef69dfd8880a8,5020,1A,man,NA,null,W1 is being opposed by W3,oppose1,sentence,NA,NA,NA,NA
3383,NA,NA,NA,NA,survey-likert-extra-labels,101,380919,0.0-38.0-2.0,anomymised,6560c12449ad4f4ac5122a81,6565e3fdbdcef69dfd8880a8,5020,1A,man,NA,NA,W1 is being opposed by W3,oppose1,rating_volition,"{""Q0"":5}",[0],W1 wanted to oppose W3,W3 wanted to oppose W1
2169,NA,NA,NA,NA,survey-likert-extra-labels,102,383088,0.0-38.0-3.0-0.0,anomymised,6560c12449ad4f4ac5122a81,6565e3fdbdcef69dfd8880a8,5020,1A,man,NA,NA,W1 is being opposed by W3,oppose1,rating_causation,"{""Q0"":6}",[0],W1 started opposing W3,W3 started opposing W1
null,Fred is being challenged by Ruth,NA,NA,NA,html-keyboard-response,103,385151,0.0-39.0-0.0,anomymised,6560c12449ad4f4ac5122a81,6565e3fdbdcef69dfd8880a8,5020,1A,man,NA,null,M3 is being challenged by W1,challenge3,sentence,NA,NA,NA,NA
2871,NA,NA,NA,NA,survey-likert-extra-labels,104,388023,0.0-39.0-2.0,anomymised,6560c12449ad4f4ac5122a81,6565e3fdbdcef69dfd8880a8,5020,1A,man,NA,NA,M3 is being challenged by W1,challenge3,rating_volition,"{""Q0"":6}",[0],M3 wanted to challenge W1,W1 wanted to challenge M3
1993,NA,NA,NA,NA,survey-likert-extra-labels,105,390018,0.0-39.0-3.0-0.0,anomymised,6560c12449ad4f4ac5122a81,6565e3fdbdcef69dfd8880a8,5020,1A,man,NA,NA,M3 is being challenged by W1,challenge3,rating_causation,"{""Q0"":""""}",[0],M3 started challenging W1 first,W1 started challenging M3 first
null,Jane is teaching Dave,NA,NA,NA,html-keyboard-response,106,392231,0.0-40.0-0.0,anomymised,6560c12449ad4f4ac5122a81,6565e3fdbdcef69dfd8880a8,5020,1A,man,NA,null,W2 is teaching M4,teach,sentence,NA,NA,NA,NA
1845,NA,NA,NA,NA,survey-likert-extra-labels,107,394077,0.0-40.0-1.0-0.0,anomymised,6560c12449ad4f4ac5122a81,6565e3fdbdcef69dfd8880a8,5020,1A,man,NA,NA,W2 is teaching M4,teach,rating_causation,"{""Q0"":6}",[0],W2 is learning from M4,M4 is learning from W2
2273,NA,NA,NA,NA,survey-likert-extra-labels,108,396351,0.0-40.0-2.0,anomymised,6560c12449ad4f4ac5122a81,6565e3fdbdcef69dfd8880a8,5020,1A,man,NA,NA,W2 is teaching M4,teach,rating_volition,"{""Q0"":0}",[0],W2 is educating M4,M4 is educating W2
null,Fred is being looked at by Luke,NA,NA,NA,html-keyboard-response,109,398351,0.0-41.0-0.0,anomymised,6560c12449ad4f4ac5122a81,6565e3fdbdcef69dfd8880a8,5020,1A,man,NA,null,M3 is being looked at by M1,look2,sentence,NA,NA,NA,NA
2023,NA,NA,NA,NA,survey-likert-extra-labels,110,400376,0.0-41.0-1.0-0.0,anomymised,6560c12449ad4f4ac5122a81,6565e3fdbdcef69dfd8880a8,5020,1A,man,NA,NA,M3 is being looked at by M1,look2,rating_causation,"{""Q0"":0}",[0],M1 looked at M3 first,M3 looked at M1 first
1575,NA,NA,NA,NA,survey-likert-extra-labels,111,401952,0.0-41.0-2.0,anomymised,6560c12449ad4f4ac5122a81,6565e3fdbdcef69dfd8880a8,5020,1A,man,NA,NA,M3 is being looked at by M1,look2,rating_volition,"{""Q0"":0}",[0],M1 wanted to look at M3,M3 wanted to look at M1
null,Fred is being touched by Ruth,NA,NA,NA,html-keyboard-response,112,403962,0.0-42.0-0.0,anomymised,6560c12449ad4f4ac5122a81,6565e3fdbdcef69dfd8880a8,5020,1A,man,NA,null,M3 is being touched by W1,touch4,sentence,NA,NA,NA,NA
4357,NA,NA,NA,NA,survey-likert-extra-labels,113,408319,0.0-42.0-2.0,anomymised,6560c12449ad4f4ac5122a81,6565e3fdbdcef69dfd8880a8,5020,1A,man,NA,NA,M3 is being touched by W1,touch4,rating_volition,"{""Q0"":6}",[0],M3 wanted to touch W1,W1 wanted to touch M3
1994,NA,NA,NA,NA,survey-likert-extra-labels,114,410314,0.0-42.0-3.0-0.0,anomymised,6560c12449ad4f4ac5122a81,6565e3fdbdcef69dfd8880a8,5020,1A,man,NA,NA,M3 is being touched by W1,touch4,rating_causation,"{""Q0"":6}",[0],M3 asked to touch W1,W1 asked to touch M3
null,Luke is being greeted by Kate,NA,NA,NA,html-keyboard-response,115,412400,0.0-43.0-0.0,anomymised,6560c12449ad4f4ac5122a81,6565e3fdbdcef69dfd8880a8,5020,1A,man,NA,null,M1 is being greeted by W3,greet4,sentence,NA,NA,NA,NA
3269,NA,NA,NA,NA,survey-likert-extra-labels,116,415669,0.0-43.0-2.0,anomymised,6560c12449ad4f4ac5122a81,6565e3fdbdcef69dfd8880a8,5020,1A,man,NA,NA,M1 is being greeted by W3,greet4,rating_volition,"{""Q0"":6}",[0],W3 wanted to greet M1,M1 wanted to greet W3
2275,NA,NA,NA,NA,survey-likert-extra-labels,117,417945,0.0-43.0-3.0-0.0,anomymised,6560c12449ad4f4ac5122a81,6565e3fdbdcef69dfd8880a8,5020,1A,man,NA,NA,M1 is being greeted by W3,greet4,rating_causation,"{""Q0"":1}",[0],W3 started greeting M1 first,M1 started greeting W3 first
null,Luke is driving Fred,NA,NA,NA,html-keyboard-response,118,419987,0.0-44.0-0.0,anomymised,6560c12449ad4f4ac5122a81,6565e3fdbdcef69dfd8880a8,5020,1A,man,NA,null,M1 is driving M3,drive,sentence,NA,NA,NA,NA
3905,NA,NA,NA,NA,survey-likert-extra-labels,119,423893,0.0-44.0-2.0,anomymised,6560c12449ad4f4ac5122a81,6565e3fdbdcef69dfd8880a8,5020,1A,man,NA,NA,M1 is driving M3,drive,rating_volition,"{""Q0"":6}",[0],M1 is M3's passenger,M3 is M1's passenger
2624,NA,NA,NA,NA,survey-likert-extra-labels,120,426518,0.0-44.0-3.0-0.0,anomymised,6560c12449ad4f4ac5122a81,6565e3fdbdcef69dfd8880a8,5020,1A,man,NA,NA,M1 is driving M3,drive,rating_causation,"{""Q0"":0}",[0],M1 is taking M3 somewhere,M3 is taking M1 somewhere
null,Ruth is being copied by Fred,NA,NA,NA,html-keyboard-response,121,428526,0.0-45.0-0.0,anomymised,6560c12449ad4f4ac5122a81,6565e3fdbdcef69dfd8880a8,5020,1A,man,NA,null,W1 is being copied by M3,copy4,sentence,NA,NA,NA,NA
1841,NA,NA,NA,NA,survey-likert-extra-labels,122,430368,0.0-45.0-1.0-0.0,anomymised,6560c12449ad4f4ac5122a81,6565e3fdbdcef69dfd8880a8,5020,1A,man,NA,NA,W1 is being copied by M3,copy4,rating_causation,"{""Q0"":0}",[0],M3 started copying W1 first,W1 started copying M3 first
1399,NA,NA,NA,NA,survey-likert-extra-labels,123,431768,0.0-45.0-2.0,anomymised,6560c12449ad4f4ac5122a81,6565e3fdbdcef69dfd8880a8,5020,1A,man,NA,NA,W1 is being copied by M3,copy4,rating_volition,"{""Q0"":0}",[0],M3 wanted to copy W1,W1 wanted to copy M3
null,Jane is carrying Beth,NA,NA,NA,html-keyboard-response,124,433773,0.0-46.0-0.0,anomymised,6560c12449ad4f4ac5122a81,6565e3fdbdcef69dfd8880a8,5020,1A,man,NA,null,W2 is carrying W4,carry,sentence,NA,NA,NA,NA
4189,NA,NA,NA,NA,survey-likert-extra-labels,125,437962,0.0-46.0-1.0-0.0,anomymised,6560c12449ad4f4ac5122a81,6565e3fdbdcef69dfd8880a8,5020,1A,man,NA,NA,W2 is carrying W4,carry,rating_causation,"{""Q0"":5}",[0],W2 is being moved by W4,W4 is being moved by W2
2484,NA,NA,NA,NA,survey-likert-extra-labels,126,440446,0.0-46.0-2.0,anomymised,6560c12449ad4f4ac5122a81,6565e3fdbdcef69dfd8880a8,5020,1A,man,NA,NA,W2 is carrying W4,carry,rating_volition,"{""Q0"":1}",[0],W2 is transporting W4,W4 is transporting W2
null,Mike is being touched by Dave,NA,NA,NA,html-keyboard-response,127,442461,0.0-47.0-0.0,anomymised,6560c12449ad4f4ac5122a81,6565e3fdbdcef69dfd8880a8,5020,1A,man,NA,null,M2 is being touched by M4,touch2,sentence,NA,NA,NA,NA
4040,NA,NA,NA,NA,survey-likert-extra-labels,128,446502,0.0-47.0-1.0-0.0,anomymised,6560c12449ad4f4ac5122a81,6565e3fdbdcef69dfd8880a8,5020,1A,man,NA,NA,M2 is being touched by M4,touch2,rating_causation,"{""Q0"":6}",[0],M2 asked to touch M4,M4 asked to touch M2
2624,NA,NA,NA,NA,survey-likert-extra-labels,129,449127,0.0-47.0-2.0,anomymised,6560c12449ad4f4ac5122a81,6565e3fdbdcef69dfd8880a8,5020,1A,man,NA,NA,M2 is being touched by M4,touch2,rating_volition,"{""Q0"":1}",[0],M2 wanted to touch M4,M4 wanted to touch M2
null,Dave is being kissed by Jane,NA,NA,NA,html-keyboard-response,130,451129,0.0-48.0-0.0,anomymised,6560c12449ad4f4ac5122a81,6565e3fdbdcef69dfd8880a8,5020,1A,man,NA,null,M4 is being kissed by W2,kiss4,sentence,NA,NA,NA,NA
1848,NA,NA,NA,NA,survey-likert-extra-labels,131,452977,0.0-48.0-1.0-0.0,anomymised,6560c12449ad4f4ac5122a81,6565e3fdbdcef69dfd8880a8,5020,1A,man,NA,NA,M4 is being kissed by W2,kiss4,rating_causation,"{""Q0"":6}",[0],W2 asked to kiss M4,M4 asked to kiss W2
1748,NA,NA,NA,NA,survey-likert-extra-labels,132,454726,0.0-48.0-2.0,anomymised,6560c12449ad4f4ac5122a81,6565e3fdbdcef69dfd8880a8,5020,1A,man,NA,NA,M4 is being kissed by W2,kiss4,rating_volition,"{""Q0"":1}",[0],W2 wanted to kiss M4,M4 wanted to kiss W2
null,Mike is reminding Beth,NA,NA,NA,html-keyboard-response,133,456729,0.0-49.0-0.0,anomymised,6560c12449ad4f4ac5122a81,6565e3fdbdcef69dfd8880a8,5020,1A,man,NA,null,M2 is reminding W4,remind,sentence,NA,NA,NA,NA
2687,NA,NA,NA,NA,survey-likert-extra-labels,134,459417,0.0-49.0-2.0,anomymised,6560c12449ad4f4ac5122a81,6565e3fdbdcef69dfd8880a8,5020,1A,man,NA,NA,M2 is reminding W4,remind,rating_volition,"{""Q0"":1}",[0],M2 is telling W4 again,W4 is telling M2 again
2449,NA,NA,NA,NA,survey-likert-extra-labels,135,461867,0.0-49.0-3.0-0.0,anomymised,6560c12449ad4f4ac5122a81,6565e3fdbdcef69dfd8880a8,5020,1A,man,NA,NA,M2 is reminding W4,remind,rating_causation,"{""Q0"":5}",[0],M2 is remembering,W4 is remembering
null,Ruth is being greeted by Fred,NA,NA,NA,html-keyboard-response,136,463873,0.0-50.0-0.0,anomymised,6560c12449ad4f4ac5122a81,6565e3fdbdcef69dfd8880a8,5020,1A,man,NA,null,W1 is being greeted by M3,greet3,sentence,NA,NA,NA,NA
5831,NA,NA,NA,NA,survey-likert-extra-labels,137,469706,0.0-50.0-2.0,anomymised,6560c12449ad4f4ac5122a81,6565e3fdbdcef69dfd8880a8,5020,1A,man,NA,NA,W1 is being greeted by M3,greet3,rating_volition,"{""Q0"":0}",[0],M3 wanted to greet W1,W1 wanted to greet M3
2239,NA,NA,NA,NA,survey-likert-extra-labels,138,471946,0.0-50.0-3.0-0.0,anomymised,6560c12449ad4f4ac5122a81,6565e3fdbdcef69dfd8880a8,5020,1A,man,NA,NA,W1 is being greeted by M3,greet3,rating_causation,"{""Q0"":1}",[0],M3 started greeting W1 first,W1 started greeting M3 first
null,Jane is being seduced by Beth,NA,NA,NA,html-keyboard-response,139,474166,0.0-51.0-0.0,anomymised,6560c12449ad4f4ac5122a81,6565e3fdbdcef69dfd8880a8,5020,1A,man,NA,null,W2 is being seduced by W4,seduce1,sentence,NA,NA,NA,NA
3833,NA,NA,NA,NA,survey-likert-extra-labels,140,477999,0.0-51.0-1.0-0.0,anomymised,6560c12449ad4f4ac5122a81,6565e3fdbdcef69dfd8880a8,5020,1A,man,NA,NA,W2 is being seduced by W4,seduce1,rating_causation,"{""Q0"":5}",[0],W2 started seducing W4 first,W4 started seducing W2 first
2729,NA,NA,NA,NA,survey-likert-extra-labels,141,480729,0.0-51.0-2.0,anomymised,6560c12449ad4f4ac5122a81,6565e3fdbdcef69dfd8880a8,5020,1A,man,NA,NA,W2 is being seduced by W4,seduce1,rating_volition,"{""Q0"":5}",[0],W2 wanted to seduce W4,W4 wanted to seduce W2
null,Mike is being hugged by Beth,NA,NA,NA,html-keyboard-response,142,482729,0.0-52.0-0.0,anomymised,6560c12449ad4f4ac5122a81,6565e3fdbdcef69dfd8880a8,5020,1A,man,NA,null,M2 is being hugged by W4,hug4,sentence,NA,NA,NA,NA
6224,NA,NA,NA,NA,survey-likert-extra-labels,143,488953,0.0-52.0-2.0,anomymised,6560c12449ad4f4ac5122a81,6565e3fdbdcef69dfd8880a8,5020,1A,man,NA,NA,M2 is being hugged by W4,hug4,rating_volition,"{""Q0"":5}",[0],M2 wanted to hug W4,W4 wanted to hug M2
2272,NA,NA,NA,NA,survey-likert-extra-labels,144,491226,0.0-52.0-3.0-0.0,anomymised,6560c12449ad4f4ac5122a81,6565e3fdbdcef69dfd8880a8,5020,1A,man,NA,NA,M2 is being hugged by W4,hug4,rating_causation,"{""Q0"":5}",[0],M2 asked to hug W4,W4 asked to hug M2
null,Fred is being kissed by Luke,NA,NA,NA,html-keyboard-response,145,493229,0.0-53.0-0.0,anomymised,6560c12449ad4f4ac5122a81,6565e3fdbdcef69dfd8880a8,5020,1A,man,NA,null,M3 is being kissed by M1,kiss2,sentence,NA,NA,NA,NA
3071,NA,NA,NA,NA,survey-likert-extra-labels,146,496300,0.0-53.0-1.0-0.0,anomymised,6560c12449ad4f4ac5122a81,6565e3fdbdcef69dfd8880a8,5020,1A,man,NA,NA,M3 is being kissed by M1,kiss2,rating_causation,"{""Q0"":5}",[0],M1 asked to kiss M3,M3 asked to kiss M1
2800,NA,NA,NA,NA,survey-likert-extra-labels,147,499099,0.0-53.0-2.0,anomymised,6560c12449ad4f4ac5122a81,6565e3fdbdcef69dfd8880a8,5020,1A,man,NA,NA,M3 is being kissed by M1,kiss2,rating_volition,"{""Q0"":5}",[0],M1 wanted to kiss M3,M3 wanted to kiss M1
null,Kate is being challenged by Luke,NA,NA,NA,html-keyboard-response,148,501145,0.0-54.0-0.0,anomymised,6560c12449ad4f4ac5122a81,6565e3fdbdcef69dfd8880a8,5020,1A,man,NA,null,W3 is being challenged by M1,challenge4,sentence,NA,NA,NA,NA
2296,NA,NA,NA,NA,survey-likert-extra-labels,149,503441,0.0-54.0-2.0,anomymised,6560c12449ad4f4ac5122a81,6565e3fdbdcef69dfd8880a8,5020,1A,man,NA,NA,W3 is being challenged by M1,challenge4,rating_volition,"{""Q0"":0}",[0],W3 wanted to challenge M1,M1 wanted to challenge W3
1573,NA,NA,NA,NA,survey-likert-extra-labels,150,505015,0.0-54.0-3.0-0.0,anomymised,6560c12449ad4f4ac5122a81,6565e3fdbdcef69dfd8880a8,5020,1A,man,NA,NA,W3 is being challenged by M1,challenge4,rating_causation,"{""Q0"":0}",[0],W3 started challenging M1 first,M1 started challenging W3 first
1574,<p>Thank you for completing that task.</p><p>The final part of this session is a short questionnaire.</p><p>Press Continue.</p>,0,Continue,Continue,html-button-response,151,506590,0.0-55.0,anomymised,6560c12449ad4f4ac5122a81,6565e3fdbdcef69dfd8880a8,5020,1A,man,NA,NA,NA,NA,NA,NA,NA,NA,NA
13612,NA,NA,NA,NA,survey-text,152,521218,0.0-56.0,anomymised,6560c12449ad4f4ac5122a81,6565e3fdbdcef69dfd8880a8,5020,1A,man,NA,NA,NA,NA,demographics,"{""Q0"":""29"",""Q1"":""English"",""Q2"":""English"",""Q3"":""United Kingdom"",""Q4"":""British"",""Q5"":""White"",""Q6"":""Male""}",NA,NA,NA
2904,<p>This is the last question - thank you for taking part! Have you lived in the UK for the last 5 years or more?</p>,0,"Yes,No",Yes,html-button-response,153,524123,0.0-57.0,anomymised,6560c12449ad4f4ac5122a81,6565e3fdbdcef69dfd8880a8,5020,1A,man,NA,NA,NA,NA,fiveyears,NA,NA,NA,NA
