rt,stimulus,button_pressed,choices,ChosenStimulus,trial_type,trial_index,time_elapsed,internal_node_id,subject_id,study_id,session_id,subject,list,ppt_gender,url,key_press,sentence_type,verb,test_part,responses,question_order,left_part,right_part
11413.400000035763,Welcome to the experiment. Press Continue to begin.,0,Continue,Continue,html-button-response,0,11427,0.0-0.0,anomymised,6560bfa89caa13ce6a65a5b5,6565e40f3099960a1bb49e76,50992,1A,woman,NA,NA,NA,NA,NA,NA,NA,NA,NA
8194.600000023842,NA,NA,NA,NA,external-html,1,20834,0.0-1.0,anomymised,6560bfa89caa13ce6a65a5b5,6565e40f3099960a1bb49e76,50992,1A,woman,consent.html,NA,NA,NA,NA,NA,NA,NA,NA
138484.10000002384,"<p>Welcome.</p><p>In this experiment we will ask you to imagine some situations.</p><p>Each trial starts with a description of an event.</p><p>Then you will see alternative descriptions of that event, and you will rate on a scale how best they match the original description.</p><p>You will give your answer by clicking a button on a rating scale.</p><p>To do this task, you will have to use your imagination to visualise these events.</p><br><p>Ready?</p>",0,Continue,Continue,html-button-response,2,159320,0.0-2.0,anomymised,6560bfa89caa13ce6a65a5b5,6565e40f3099960a1bb49e76,50992,1A,woman,NA,NA,NA,NA,NA,NA,NA,NA,NA
171617.5,"<p>Before the experiment starts, you will watch an example trial. Press 'Continue'.</p>",0,Continue,Continue,html-button-response,3,331945,0.0-3.0,anomymised,6560bfa89caa13ce6a65a5b5,6565e40f3099960a1bb49e76,50992,1A,woman,NA,NA,NA,NA,NA,NA,NA,NA,NA
null,The police officer is arresting the robber,NA,NA,NA,html-keyboard-response,4,334949,0.0-4.0,anomymised,6560bfa89caa13ce6a65a5b5,6565e40f3099960a1bb49e76,50992,1A,woman,NA,null,NA,NA,NA,NA,NA,NA,NA
9863.900000035763,<img src='img/Example-trial.jpg' style='height:550px;''></img>,0,Continue,Continue,html-button-response,5,344814,0.0-5.0,anomymised,6560bfa89caa13ce6a65a5b5,6565e40f3099960a1bb49e76,50992,1A,woman,NA,NA,NA,NA,NA,NA,NA,NA,NA
2138.199999988079,<p>Ready to start the experiment?</p><br><p><strong>Remember to give an answer by clicking a button on the rating scale.</strong></p><p>Press 'Continue' to begin.</p>,0,Continue,Continue,html-button-response,6,347963,0.0-6.0,anomymised,6560bfa89caa13ce6a65a5b5,6565e40f3099960a1bb49e76,50992,1A,woman,NA,NA,NA,NA,NA,NA,NA,NA,NA
null,Dave is being copied by Mike,NA,NA,NA,html-keyboard-response,7,350982,0.0-7.0-0.0,anomymised,6560bfa89caa13ce6a65a5b5,6565e40f3099960a1bb49e76,50992,1A,woman,NA,null,M4 is being copied by M2,copy2,sentence,NA,NA,NA,NA
7526.099999964237,NA,NA,NA,NA,survey-likert-extra-labels,8,358512,0.0-7.0-1.0-0.0,anomymised,6560bfa89caa13ce6a65a5b5,6565e40f3099960a1bb49e76,50992,1A,woman,NA,NA,M4 is being copied by M2,copy2,rating_causation,"{""Q0"":0}",[0],M2 started copying M4 first,M4 started copying M2 first
6484.399999976158,NA,NA,NA,NA,survey-likert-extra-labels,9,364999,0.0-7.0-2.0,anomymised,6560bfa89caa13ce6a65a5b5,6565e40f3099960a1bb49e76,50992,1A,woman,NA,NA,M4 is being copied by M2,copy2,rating_volition,"{""Q0"":0}",[0],M2 wanted to copy M4,M4 wanted to copy M2
null,Beth is being greeted by Jane,NA,NA,NA,html-keyboard-response,10,367002,0.0-8.0-0.0,anomymised,6560bfa89caa13ce6a65a5b5,6565e40f3099960a1bb49e76,50992,1A,woman,NA,null,W4 is being greeted by W2,greet1,sentence,NA,NA,NA,NA
6680,NA,NA,NA,NA,survey-likert-extra-labels,11,373684,0.0-8.0-2.0,anomymised,6560bfa89caa13ce6a65a5b5,6565e40f3099960a1bb49e76,50992,1A,woman,NA,NA,W4 is being greeted by W2,greet1,rating_volition,"{""Q0"":0}",[0],W2 wanted to greet W4,W4 wanted to greet W2
7740.599999964237,NA,NA,NA,NA,survey-likert-extra-labels,12,381427,0.0-8.0-3.0-0.0,anomymised,6560bfa89caa13ce6a65a5b5,6565e40f3099960a1bb49e76,50992,1A,woman,NA,NA,W4 is being greeted by W2,greet1,rating_causation,"{""Q0"":0}",[0],W2 started greeting W4 first,W4 started greeting W2 first
null,Mike is being challenged by Dave,NA,NA,NA,html-keyboard-response,13,383445,0.0-9.0-0.0,anomymised,6560bfa89caa13ce6a65a5b5,6565e40f3099960a1bb49e76,50992,1A,woman,NA,null,M2 is being challenged by M4,challenge2,sentence,NA,NA,NA,NA
6053.900000035763,NA,NA,NA,NA,survey-likert-extra-labels,14,389500,0.0-9.0-2.0,anomymised,6560bfa89caa13ce6a65a5b5,6565e40f3099960a1bb49e76,50992,1A,woman,NA,NA,M2 is being challenged by M4,challenge2,rating_volition,"{""Q0"":6}",[0],M2 wanted to challenge M4,M4 wanted to challenge M2
26560.69999998808,NA,NA,NA,NA,survey-likert-extra-labels,15,416063,0.0-9.0-3.0-0.0,anomymised,6560bfa89caa13ce6a65a5b5,6565e40f3099960a1bb49e76,50992,1A,woman,NA,NA,M2 is being challenged by M4,challenge2,rating_causation,"{""Q0"":6}",[0],M2 started challenging M4 first,M4 started challenging M2 first
null,Jane is being shouted at by Dave,NA,NA,NA,html-keyboard-response,16,418074,0.0-10.0-0.0,anomymised,6560bfa89caa13ce6a65a5b5,6565e40f3099960a1bb49e76,50992,1A,woman,NA,null,W2 is being shouted at by M4,shout4,sentence,NA,NA,NA,NA
5080.400000035763,NA,NA,NA,NA,survey-likert-extra-labels,17,423156,0.0-10.0-1.0-0.0,anomymised,6560bfa89caa13ce6a65a5b5,6565e40f3099960a1bb49e76,50992,1A,woman,NA,NA,W2 is being shouted at by M4,shout4,rating_causation,"{""Q0"":5}",[0],W2 shouted at M4 first,M4 shouted at W2 first
6272,NA,NA,NA,NA,survey-likert-extra-labels,18,429431,0.0-10.0-2.0,anomymised,6560bfa89caa13ce6a65a5b5,6565e40f3099960a1bb49e76,50992,1A,woman,NA,NA,W2 is being shouted at by M4,shout4,rating_volition,"{""Q0"":5}",[0],W2 wanted to shout at M4,M4 wanted to shout at W2
null,Kate is feeding Luke,NA,NA,NA,html-keyboard-response,19,431438,0.0-11.0-0.0,anomymised,6560bfa89caa13ce6a65a5b5,6565e40f3099960a1bb49e76,50992,1A,woman,NA,null,W3 is feeding M1,feed,sentence,NA,NA,NA,NA
9970.199999988079,NA,NA,NA,NA,survey-likert-extra-labels,20,441410,0.0-11.0-2.0,anomymised,6560bfa89caa13ce6a65a5b5,6565e40f3099960a1bb49e76,50992,1A,woman,NA,NA,W3 is feeding M1,feed,rating_volition,"{""Q0"":1}",[0],W3 cooked for M1,M1 cooked for W3
5596.699999988079,NA,NA,NA,NA,survey-likert-extra-labels,21,447009,0.0-11.0-3.0-0.0,anomymised,6560bfa89caa13ce6a65a5b5,6565e40f3099960a1bb49e76,50992,1A,woman,NA,NA,W3 is feeding M1,feed,rating_causation,"{""Q0"":5}",[0],W3 is eating M1's food,M1 is eating W3's food
null,Luke is driving Fred,NA,NA,NA,html-keyboard-response,22,449024,0.0-12.0-0.0,anomymised,6560bfa89caa13ce6a65a5b5,6565e40f3099960a1bb49e76,50992,1A,woman,NA,null,M1 is driving M3,drive,sentence,NA,NA,NA,NA
15701.5,NA,NA,NA,NA,survey-likert-extra-labels,23,464728,0.0-12.0-1.0-0.0,anomymised,6560bfa89caa13ce6a65a5b5,6565e40f3099960a1bb49e76,50992,1A,woman,NA,NA,M1 is driving M3,drive,rating_causation,"{""Q0"":0}",[0],M1 is taking M3 somewhere,M3 is taking M1 somewhere
32073.900000035763,NA,NA,NA,NA,survey-likert-extra-labels,24,496804,0.0-12.0-2.0,anomymised,6560bfa89caa13ce6a65a5b5,6565e40f3099960a1bb49e76,50992,1A,woman,NA,NA,M1 is driving M3,drive,rating_volition,"{""Q0"":6}",[0],M1 is M3's passenger,M3 is M1's passenger
null,Fred is being looked at by Luke,NA,NA,NA,html-keyboard-response,25,498813,0.0-13.0-0.0,anomymised,6560bfa89caa13ce6a65a5b5,6565e40f3099960a1bb49e76,50992,1A,woman,NA,null,M3 is being looked at by M1,look2,sentence,NA,NA,NA,NA
16286.199999988079,NA,NA,NA,NA,survey-likert-extra-labels,26,515100,0.0-13.0-1.0-0.0,anomymised,6560bfa89caa13ce6a65a5b5,6565e40f3099960a1bb49e76,50992,1A,woman,NA,NA,M3 is being looked at by M1,look2,rating_causation,"{""Q0"":1}",[0],M1 looked at M3 first,M3 looked at M1 first
133791.80000001192,NA,NA,NA,NA,survey-likert-extra-labels,27,648897,0.0-13.0-2.0,anomymised,6560bfa89caa13ce6a65a5b5,6565e40f3099960a1bb49e76,50992,1A,woman,NA,NA,M3 is being looked at by M1,look2,rating_volition,"{""Q0"":6}",[0],M1 wanted to look at M3,M3 wanted to look at M1
null,Ruth is being hugged by Kate,NA,NA,NA,html-keyboard-response,28,650904,0.0-14.0-0.0,anomymised,6560bfa89caa13ce6a65a5b5,6565e40f3099960a1bb49e76,50992,1A,woman,NA,null,W1 is being hugged by W3,hug1,sentence,NA,NA,NA,NA
9305.399999976158,NA,NA,NA,NA,survey-likert-extra-labels,29,660212,0.0-14.0-2.0,anomymised,6560bfa89caa13ce6a65a5b5,6565e40f3099960a1bb49e76,50992,1A,woman,NA,NA,W1 is being hugged by W3,hug1,rating_volition,"{""Q0"":6}",[0],W1 wanted to hug W3,W3 wanted to hug W1
10511.600000023842,NA,NA,NA,NA,survey-likert-extra-labels,30,670725,0.0-14.0-3.0-0.0,anomymised,6560bfa89caa13ce6a65a5b5,6565e40f3099960a1bb49e76,50992,1A,woman,NA,NA,W1 is being hugged by W3,hug1,rating_causation,"{""Q0"":3}",[0],W1 asked to hug W3,W3 asked to hug W1
null,Ruth is being greeted by Fred,NA,NA,NA,html-keyboard-response,31,672741,0.0-15.0-0.0,anomymised,6560bfa89caa13ce6a65a5b5,6565e40f3099960a1bb49e76,50992,1A,woman,NA,null,W1 is being greeted by M3,greet3,sentence,NA,NA,NA,NA
16551.69999998808,NA,NA,NA,NA,survey-likert-extra-labels,32,689293,0.0-15.0-2.0,anomymised,6560bfa89caa13ce6a65a5b5,6565e40f3099960a1bb49e76,50992,1A,woman,NA,NA,W1 is being greeted by M3,greet3,rating_volition,"{""Q0"":6}",[0],M3 wanted to greet W1,W1 wanted to greet M3
93218,NA,NA,NA,NA,survey-likert-extra-labels,33,782514,0.0-15.0-3.0-0.0,anomymised,6560bfa89caa13ce6a65a5b5,6565e40f3099960a1bb49e76,50992,1A,woman,NA,NA,W1 is being greeted by M3,greet3,rating_causation,"{""Q0"":6}",[0],M3 started greeting W1 first,W1 started greeting M3 first
null,Mike is being hugged by Beth,NA,NA,NA,html-keyboard-response,34,784531,0.0-16.0-0.0,anomymised,6560bfa89caa13ce6a65a5b5,6565e40f3099960a1bb49e76,50992,1A,woman,NA,null,M2 is being hugged by W4,hug4,sentence,NA,NA,NA,NA
30748.399999976158,NA,NA,NA,NA,survey-likert-extra-labels,35,815281,0.0-16.0-1.0-0.0,anomymised,6560bfa89caa13ce6a65a5b5,6565e40f3099960a1bb49e76,50992,1A,woman,NA,NA,M2 is being hugged by W4,hug4,rating_causation,"{""Q0"":3}",[0],M2 asked to hug W4,W4 asked to hug M2
9039,NA,NA,NA,NA,survey-likert-extra-labels,36,824324,0.0-16.0-2.0,anomymised,6560bfa89caa13ce6a65a5b5,6565e40f3099960a1bb49e76,50992,1A,woman,NA,NA,M2 is being hugged by W4,hug4,rating_volition,"{""Q0"":5}",[0],M2 wanted to hug W4,W4 wanted to hug M2
null,Jane is being hugged by Dave,NA,NA,NA,html-keyboard-response,37,826338,0.0-17.0-0.0,anomymised,6560bfa89caa13ce6a65a5b5,6565e40f3099960a1bb49e76,50992,1A,woman,NA,null,W2 is being hugged by M4,hug3,sentence,NA,NA,NA,NA
5271.699999988079,NA,NA,NA,NA,survey-likert-extra-labels,38,831612,0.0-17.0-2.0,anomymised,6560bfa89caa13ce6a65a5b5,6565e40f3099960a1bb49e76,50992,1A,woman,NA,NA,W2 is being hugged by M4,hug3,rating_volition,"{""Q0"":1}",[0],W2 wanted to hug M4,M4 wanted to hug W2
27617.30000001192,NA,NA,NA,NA,survey-likert-extra-labels,39,859233,0.0-17.0-3.0-0.0,anomymised,6560bfa89caa13ce6a65a5b5,6565e40f3099960a1bb49e76,50992,1A,woman,NA,NA,W2 is being hugged by M4,hug3,rating_causation,"{""Q0"":6}",[0],W2 asked to hug M4,M4 asked to hug W2
null,Kate is being touched by Luke,NA,NA,NA,html-keyboard-response,40,861240,0.0-18.0-0.0,anomymised,6560bfa89caa13ce6a65a5b5,6565e40f3099960a1bb49e76,50992,1A,woman,NA,null,W3 is being touched by M1,touch3,sentence,NA,NA,NA,NA
9519.600000023842,NA,NA,NA,NA,survey-likert-extra-labels,41,870761,0.0-18.0-2.0,anomymised,6560bfa89caa13ce6a65a5b5,6565e40f3099960a1bb49e76,50992,1A,woman,NA,NA,W3 is being touched by M1,touch3,rating_volition,"{""Q0"":6}",[0],W3 wanted to touch M1,M1 wanted to touch W3
5780.800000011921,NA,NA,NA,NA,survey-likert-extra-labels,42,876544,0.0-18.0-3.0-0.0,anomymised,6560bfa89caa13ce6a65a5b5,6565e40f3099960a1bb49e76,50992,1A,woman,NA,NA,W3 is being touched by M1,touch3,rating_causation,"{""Q0"":3}",[0],W3 asked to touch M1,M1 asked to touch W3
null,Luke is being greeted by Kate,NA,NA,NA,html-keyboard-response,43,878562,0.0-19.0-0.0,anomymised,6560bfa89caa13ce6a65a5b5,6565e40f3099960a1bb49e76,50992,1A,woman,NA,null,M1 is being greeted by W3,greet4,sentence,NA,NA,NA,NA
56020.80000001192,NA,NA,NA,NA,survey-likert-extra-labels,44,934585,0.0-19.0-1.0-0.0,anomymised,6560bfa89caa13ce6a65a5b5,6565e40f3099960a1bb49e76,50992,1A,woman,NA,NA,M1 is being greeted by W3,greet4,rating_causation,"{""Q0"":0}",[0],W3 started greeting M1 first,M1 started greeting W3 first
29538.100000023842,NA,NA,NA,NA,survey-likert-extra-labels,45,964125,0.0-19.0-2.0,anomymised,6560bfa89caa13ce6a65a5b5,6565e40f3099960a1bb49e76,50992,1A,woman,NA,NA,M1 is being greeted by W3,greet4,rating_volition,"{""Q0"":0}",[0],W3 wanted to greet M1,M1 wanted to greet W3
null,Mike is being seduced by Dave,NA,NA,NA,html-keyboard-response,46,966133,0.0-20.0-0.0,anomymised,6560bfa89caa13ce6a65a5b5,6565e40f3099960a1bb49e76,50992,1A,woman,NA,null,M2 is being seduced by M4,seduce2,sentence,NA,NA,NA,NA
5766.099999964237,NA,NA,NA,NA,survey-likert-extra-labels,47,971901,0.0-20.0-1.0-0.0,anomymised,6560bfa89caa13ce6a65a5b5,6565e40f3099960a1bb49e76,50992,1A,woman,NA,NA,M2 is being seduced by M4,seduce2,rating_causation,"{""Q0"":6}",[0],M2 started seducing M4 first,M4 started seducing M2 first
17814.299999952316,NA,NA,NA,NA,survey-likert-extra-labels,48,989717,0.0-20.0-2.0,anomymised,6560bfa89caa13ce6a65a5b5,6565e40f3099960a1bb49e76,50992,1A,woman,NA,NA,M2 is being seduced by M4,seduce2,rating_volition,"{""Q0"":6}",[0],M2 wanted to seduce M4,M4 wanted to seduce M2
null,Beth is being kissed by Mike,NA,NA,NA,html-keyboard-response,49,991734,0.0-21.0-0.0,anomymised,6560bfa89caa13ce6a65a5b5,6565e40f3099960a1bb49e76,50992,1A,woman,NA,null,W4 is being kissed by M2,kiss3,sentence,NA,NA,NA,NA
4138.900000035763,NA,NA,NA,NA,survey-likert-extra-labels,50,995874,0.0-21.0-1.0-0.0,anomymised,6560bfa89caa13ce6a65a5b5,6565e40f3099960a1bb49e76,50992,1A,woman,NA,NA,W4 is being kissed by M2,kiss3,rating_causation,"{""Q0"":3}",[0],M2 asked to kiss W4,W4 asked to kiss M2
7101.699999988079,NA,NA,NA,NA,survey-likert-extra-labels,51,1002978,0.0-21.0-2.0,anomymised,6560bfa89caa13ce6a65a5b5,6565e40f3099960a1bb49e76,50992,1A,woman,NA,NA,W4 is being kissed by M2,kiss3,rating_volition,"{""Q0"":0}",[0],M2 wanted to kiss W4,W4 wanted to kiss M2
null,Kate is being kissed by Ruth,NA,NA,NA,html-keyboard-response,52,1004993,0.0-22.0-0.0,anomymised,6560bfa89caa13ce6a65a5b5,6565e40f3099960a1bb49e76,50992,1A,woman,NA,null,W3 is being kissed by W1,kiss1,sentence,NA,NA,NA,NA
73975.30000001192,NA,NA,NA,NA,survey-likert-extra-labels,53,1078970,0.0-22.0-2.0,anomymised,6560bfa89caa13ce6a65a5b5,6565e40f3099960a1bb49e76,50992,1A,woman,NA,NA,W3 is being kissed by W1,kiss1,rating_volition,"{""Q0"":0}",[0],W1 wanted to kiss W3,W3 wanted to kiss W1
20083.799999952316,NA,NA,NA,NA,survey-likert-extra-labels,54,1099058,0.0-22.0-3.0-0.0,anomymised,6560bfa89caa13ce6a65a5b5,6565e40f3099960a1bb49e76,50992,1A,woman,NA,NA,W3 is being kissed by W1,kiss1,rating_causation,"{""Q0"":3}",[0],W1 asked to kiss W3,W3 asked to kiss W1
null,Ruth is being copied by Fred,NA,NA,NA,html-keyboard-response,55,1101070,0.0-23.0-0.0,anomymised,6560bfa89caa13ce6a65a5b5,6565e40f3099960a1bb49e76,50992,1A,woman,NA,null,W1 is being copied by M3,copy4,sentence,NA,NA,NA,NA
3059.600000023842,NA,NA,NA,NA,survey-likert-extra-labels,56,1104132,0.0-23.0-1.0-0.0,anomymised,6560bfa89caa13ce6a65a5b5,6565e40f3099960a1bb49e76,50992,1A,woman,NA,NA,W1 is being copied by M3,copy4,rating_causation,"{""Q0"":0}",[0],M3 started copying W1 first,W1 started copying M3 first
5386.5,NA,NA,NA,NA,survey-likert-extra-labels,57,1109521,0.0-23.0-2.0,anomymised,6560bfa89caa13ce6a65a5b5,6565e40f3099960a1bb49e76,50992,1A,woman,NA,NA,W1 is being copied by M3,copy4,rating_volition,"{""Q0"":0}",[0],M3 wanted to copy W1,W1 wanted to copy M3
null,Mike is being opposed by Beth,NA,NA,NA,html-keyboard-response,58,1111535,0.0-24.0-0.0,anomymised,6560bfa89caa13ce6a65a5b5,6565e40f3099960a1bb49e76,50992,1A,woman,NA,null,M2 is being opposed by W4,oppose4,sentence,NA,NA,NA,NA
7607.599999964237,NA,NA,NA,NA,survey-likert-extra-labels,59,1119144,0.0-24.0-1.0-0.0,anomymised,6560bfa89caa13ce6a65a5b5,6565e40f3099960a1bb49e76,50992,1A,woman,NA,NA,M2 is being opposed by W4,oppose4,rating_causation,"{""Q0"":6}",[0],M2 started opposing W4,W4 started opposing M2
12043.5,NA,NA,NA,NA,survey-likert-extra-labels,60,1131190,0.0-24.0-2.0,anomymised,6560bfa89caa13ce6a65a5b5,6565e40f3099960a1bb49e76,50992,1A,woman,NA,NA,M2 is being opposed by W4,oppose4,rating_volition,"{""Q0"":6}",[0],M2 wanted to oppose W4,W4 wanted to oppose M2
null,Mike is being touched by Dave,NA,NA,NA,html-keyboard-response,61,1133197,0.0-25.0-0.0,anomymised,6560bfa89caa13ce6a65a5b5,6565e40f3099960a1bb49e76,50992,1A,woman,NA,null,M2 is being touched by M4,touch2,sentence,NA,NA,NA,NA
4696.100000023842,NA,NA,NA,NA,survey-likert-extra-labels,62,1137895,0.0-25.0-1.0-0.0,anomymised,6560bfa89caa13ce6a65a5b5,6565e40f3099960a1bb49e76,50992,1A,woman,NA,NA,M2 is being touched by M4,touch2,rating_causation,"{""Q0"":3}",[0],M2 asked to touch M4,M4 asked to touch M2
5372.699999988079,NA,NA,NA,NA,survey-likert-extra-labels,63,1143269,0.0-25.0-2.0,anomymised,6560bfa89caa13ce6a65a5b5,6565e40f3099960a1bb49e76,50992,1A,woman,NA,NA,M2 is being touched by M4,touch2,rating_volition,"{""Q0"":6}",[0],M2 wanted to touch M4,M4 wanted to touch M2
null,Luke is being hugged by Fred,NA,NA,NA,html-keyboard-response,64,1145279,0.0-26.0-0.0,anomymised,6560bfa89caa13ce6a65a5b5,6565e40f3099960a1bb49e76,50992,1A,woman,NA,null,M1 is being hugged by M3,hug2,sentence,NA,NA,NA,NA
15335.399999976158,NA,NA,NA,NA,survey-likert-extra-labels,65,1160616,0.0-26.0-2.0,anomymised,6560bfa89caa13ce6a65a5b5,6565e40f3099960a1bb49e76,50992,1A,woman,NA,NA,M1 is being hugged by M3,hug2,rating_volition,"{""Q0"":6}",[0],M1 wanted to hug M3,M3 wanted to hug M1
31408.5,NA,NA,NA,NA,survey-likert-extra-labels,66,1192027,0.0-26.0-3.0-0.0,anomymised,6560bfa89caa13ce6a65a5b5,6565e40f3099960a1bb49e76,50992,1A,woman,NA,NA,M1 is being hugged by M3,hug2,rating_causation,"{""Q0"":3}",[0],M1 asked to hug M3,M3 asked to hug M1
null,Ruth is being opposed by Kate,NA,NA,NA,html-keyboard-response,67,1194037,0.0-27.0-0.0,anomymised,6560bfa89caa13ce6a65a5b5,6565e40f3099960a1bb49e76,50992,1A,woman,NA,null,W1 is being opposed by W3,oppose1,sentence,NA,NA,NA,NA
4429,NA,NA,NA,NA,survey-likert-extra-labels,68,1198467,0.0-27.0-1.0-0.0,anomymised,6560bfa89caa13ce6a65a5b5,6565e40f3099960a1bb49e76,50992,1A,woman,NA,NA,W1 is being opposed by W3,oppose1,rating_causation,"{""Q0"":6}",[0],W1 started opposing W3,W3 started opposing W1
14194.099999964237,NA,NA,NA,NA,survey-likert-extra-labels,69,1212663,0.0-27.0-2.0,anomymised,6560bfa89caa13ce6a65a5b5,6565e40f3099960a1bb49e76,50992,1A,woman,NA,NA,W1 is being opposed by W3,oppose1,rating_volition,"{""Q0"":0}",[0],W1 wanted to oppose W3,W3 wanted to oppose W1
null,Dave is being greeted by Mike,NA,NA,NA,html-keyboard-response,70,1214676,0.0-28.0-0.0,anomymised,6560bfa89caa13ce6a65a5b5,6565e40f3099960a1bb49e76,50992,1A,woman,NA,null,M4 is being greeted by M2,greet2,sentence,NA,NA,NA,NA
52518.89999997616,NA,NA,NA,NA,survey-likert-extra-labels,71,1267196,0.0-28.0-2.0,anomymised,6560bfa89caa13ce6a65a5b5,6565e40f3099960a1bb49e76,50992,1A,woman,NA,NA,M4 is being greeted by M2,greet2,rating_volition,"{""Q0"":0}",[0],M2 wanted to greet M4,M4 wanted to greet M2
44313.89999997616,NA,NA,NA,NA,survey-likert-extra-labels,72,1311514,0.0-28.0-3.0-0.0,anomymised,6560bfa89caa13ce6a65a5b5,6565e40f3099960a1bb49e76,50992,1A,woman,NA,NA,M4 is being greeted by M2,greet2,rating_causation,"{""Q0"":0}",[0],M2 started greeting M4 first,M4 started greeting M2 first
null,Beth is being looked at by Mike,NA,NA,NA,html-keyboard-response,73,1313517,0.0-29.0-0.0,anomymised,6560bfa89caa13ce6a65a5b5,6565e40f3099960a1bb49e76,50992,1A,woman,NA,null,W4 is being looked at by M2,look4,sentence,NA,NA,NA,NA
8766.800000011921,NA,NA,NA,NA,survey-likert-extra-labels,74,1322286,0.0-29.0-1.0-0.0,anomymised,6560bfa89caa13ce6a65a5b5,6565e40f3099960a1bb49e76,50992,1A,woman,NA,NA,W4 is being looked at by M2,look4,rating_causation,"{""Q0"":1}",[0],M2 looked at W4 first,W4 looked at M2 first
36192.60000002384,NA,NA,NA,NA,survey-likert-extra-labels,75,1358482,0.0-29.0-2.0,anomymised,6560bfa89caa13ce6a65a5b5,6565e40f3099960a1bb49e76,50992,1A,woman,NA,NA,W4 is being looked at by M2,look4,rating_volition,"{""Q0"":0}",[0],M2 wanted to look at W4,W4 wanted to look at M2
null,Jane is being touched by Beth,NA,NA,NA,html-keyboard-response,76,1360493,0.0-30.0-0.0,anomymised,6560bfa89caa13ce6a65a5b5,6565e40f3099960a1bb49e76,50992,1A,woman,NA,null,W2 is being touched by W4,touch1,sentence,NA,NA,NA,NA
13860.300000011921,NA,NA,NA,NA,survey-likert-extra-labels,77,1374354,0.0-30.0-1.0-0.0,anomymised,6560bfa89caa13ce6a65a5b5,6565e40f3099960a1bb49e76,50992,1A,woman,NA,NA,W2 is being touched by W4,touch1,rating_causation,"{""Q0"":3}",[0],W2 asked to touch W4,W4 asked to touch W2
5697.699999988079,NA,NA,NA,NA,survey-likert-extra-labels,78,1380054,0.0-30.0-2.0,anomymised,6560bfa89caa13ce6a65a5b5,6565e40f3099960a1bb49e76,50992,1A,woman,NA,NA,W2 is being touched by W4,touch1,rating_volition,"{""Q0"":5}",[0],W2 wanted to touch W4,W4 wanted to touch W2
null,Luke is being shouted at by Fred,NA,NA,NA,html-keyboard-response,79,1382055,0.0-31.0-0.0,anomymised,6560bfa89caa13ce6a65a5b5,6565e40f3099960a1bb49e76,50992,1A,woman,NA,null,M1 is being shouted at by M3,shout2,sentence,NA,NA,NA,NA
6189.900000035763,NA,NA,NA,NA,survey-likert-extra-labels,80,1388246,0.0-31.0-2.0,anomymised,6560bfa89caa13ce6a65a5b5,6565e40f3099960a1bb49e76,50992,1A,woman,NA,NA,M1 is being shouted at by M3,shout2,rating_volition,"{""Q0"":5}",[0],M1 wanted to shout at M3,M3 wanted to shout at M1
12245.600000023842,NA,NA,NA,NA,survey-likert-extra-labels,81,1400497,0.0-31.0-3.0-0.0,anomymised,6560bfa89caa13ce6a65a5b5,6565e40f3099960a1bb49e76,50992,1A,woman,NA,NA,M1 is being shouted at by M3,shout2,rating_causation,"{""Q0"":5}",[0],M1 shouted at M3 first,M3 shouted at M1 first
null,Mike is reminding Beth,NA,NA,NA,html-keyboard-response,82,1402503,0.0-32.0-0.0,anomymised,6560bfa89caa13ce6a65a5b5,6565e40f3099960a1bb49e76,50992,1A,woman,NA,null,M2 is reminding W4,remind,sentence,NA,NA,NA,NA
4990.399999976158,NA,NA,NA,NA,survey-likert-extra-labels,83,1407495,0.0-32.0-1.0-0.0,anomymised,6560bfa89caa13ce6a65a5b5,6565e40f3099960a1bb49e76,50992,1A,woman,NA,NA,M2 is reminding W4,remind,rating_causation,"{""Q0"":3}",[0],M2 is remembering,W4 is remembering
4240.400000035763,NA,NA,NA,NA,survey-likert-extra-labels,84,1411738,0.0-32.0-2.0,anomymised,6560bfa89caa13ce6a65a5b5,6565e40f3099960a1bb49e76,50992,1A,woman,NA,NA,M2 is reminding W4,remind,rating_volition,"{""Q0"":1}",[0],M2 is telling W4 again,W4 is telling M2 again
null,Kate is being challenged by Luke,NA,NA,NA,html-keyboard-response,85,1413749,0.0-33.0-0.0,anomymised,6560bfa89caa13ce6a65a5b5,6565e40f3099960a1bb49e76,50992,1A,woman,NA,null,W3 is being challenged by M1,challenge4,sentence,NA,NA,NA,NA
20894.400000035763,NA,NA,NA,NA,survey-likert-extra-labels,86,1434645,0.0-33.0-2.0,anomymised,6560bfa89caa13ce6a65a5b5,6565e40f3099960a1bb49e76,50992,1A,woman,NA,NA,W3 is being challenged by M1,challenge4,rating_volition,"{""Q0"":5}",[0],W3 wanted to challenge M1,M1 wanted to challenge W3
31959.69999998808,NA,NA,NA,NA,survey-likert-extra-labels,87,1466609,0.0-33.0-3.0-0.0,anomymised,6560bfa89caa13ce6a65a5b5,6565e40f3099960a1bb49e76,50992,1A,woman,NA,NA,W3 is being challenged by M1,challenge4,rating_causation,"{""Q0"":5}",[0],W3 started challenging M1 first,M1 started challenging W3 first
null,Dave is being kissed by Jane,NA,NA,NA,html-keyboard-response,88,1468611,0.0-34.0-0.0,anomymised,6560bfa89caa13ce6a65a5b5,6565e40f3099960a1bb49e76,50992,1A,woman,NA,null,M4 is being kissed by W2,kiss4,sentence,NA,NA,NA,NA
3605.800000011921,NA,NA,NA,NA,survey-likert-extra-labels,89,1472218,0.0-34.0-1.0-0.0,anomymised,6560bfa89caa13ce6a65a5b5,6565e40f3099960a1bb49e76,50992,1A,woman,NA,NA,M4 is being kissed by W2,kiss4,rating_causation,"{""Q0"":3}",[0],W2 asked to kiss M4,M4 asked to kiss W2
6300,NA,NA,NA,NA,survey-likert-extra-labels,90,1478520,0.0-34.0-2.0,anomymised,6560bfa89caa13ce6a65a5b5,6565e40f3099960a1bb49e76,50992,1A,woman,NA,NA,M4 is being kissed by W2,kiss4,rating_volition,"{""Q0"":6}",[0],W2 wanted to kiss M4,M4 wanted to kiss W2
null,Jane is being opposed by Dave,NA,NA,NA,html-keyboard-response,91,1480526,0.0-35.0-0.0,anomymised,6560bfa89caa13ce6a65a5b5,6565e40f3099960a1bb49e76,50992,1A,woman,NA,null,W2 is being opposed by M4,oppose3,sentence,NA,NA,NA,NA
5628.800000011921,NA,NA,NA,NA,survey-likert-extra-labels,92,1486157,0.0-35.0-1.0-0.0,anomymised,6560bfa89caa13ce6a65a5b5,6565e40f3099960a1bb49e76,50992,1A,woman,NA,NA,W2 is being opposed by M4,oppose3,rating_causation,"{""Q0"":5}",[0],W2 started opposing M4,M4 started opposing W2
56646.30000001192,NA,NA,NA,NA,survey-likert-extra-labels,93,1542805,0.0-35.0-2.0,anomymised,6560bfa89caa13ce6a65a5b5,6565e40f3099960a1bb49e76,50992,1A,woman,NA,NA,W2 is being opposed by M4,oppose3,rating_volition,"{""Q0"":5}",[0],W2 wanted to oppose M4,M4 wanted to oppose W2
null,Fred is being touched by Ruth,NA,NA,NA,html-keyboard-response,94,1544810,0.0-36.0-0.0,anomymised,6560bfa89caa13ce6a65a5b5,6565e40f3099960a1bb49e76,50992,1A,woman,NA,null,M3 is being touched by W1,touch4,sentence,NA,NA,NA,NA
2969.399999976158,NA,NA,NA,NA,survey-likert-extra-labels,95,1547781,0.0-36.0-1.0-0.0,anomymised,6560bfa89caa13ce6a65a5b5,6565e40f3099960a1bb49e76,50992,1A,woman,NA,NA,M3 is being touched by W1,touch4,rating_causation,"{""Q0"":3}",[0],M3 asked to touch W1,W1 asked to touch M3
7865.5,NA,NA,NA,NA,survey-likert-extra-labels,96,1555648,0.0-36.0-2.0,anomymised,6560bfa89caa13ce6a65a5b5,6565e40f3099960a1bb49e76,50992,1A,woman,NA,NA,M3 is being touched by W1,touch4,rating_volition,"{""Q0"":5}",[0],M3 wanted to touch W1,W1 wanted to touch M3
null,Dave is being looked at by Jane,NA,NA,NA,html-keyboard-response,97,1557653,0.0-37.0-0.0,anomymised,6560bfa89caa13ce6a65a5b5,6565e40f3099960a1bb49e76,50992,1A,woman,NA,null,M4 is being looked at by W2,look3,sentence,NA,NA,NA,NA
5964.5,NA,NA,NA,NA,survey-likert-extra-labels,98,1563620,0.0-37.0-1.0-0.0,anomymised,6560bfa89caa13ce6a65a5b5,6565e40f3099960a1bb49e76,50992,1A,woman,NA,NA,M4 is being looked at by W2,look3,rating_causation,"{""Q0"":1}",[0],W2 looked at M4 first,M4 looked at W2 first
7519.800000011921,NA,NA,NA,NA,survey-likert-extra-labels,99,1571142,0.0-37.0-2.0,anomymised,6560bfa89caa13ce6a65a5b5,6565e40f3099960a1bb49e76,50992,1A,woman,NA,NA,M4 is being looked at by W2,look3,rating_volition,"{""Q0"":0}",[0],W2 wanted to look at M4,M4 wanted to look at W2
null,Fred is being challenged by Ruth,NA,NA,NA,html-keyboard-response,100,1573150,0.0-38.0-0.0,anomymised,6560bfa89caa13ce6a65a5b5,6565e40f3099960a1bb49e76,50992,1A,woman,NA,null,M3 is being challenged by W1,challenge3,sentence,NA,NA,NA,NA
13822.800000011921,NA,NA,NA,NA,survey-likert-extra-labels,101,1586973,0.0-38.0-1.0-0.0,anomymised,6560bfa89caa13ce6a65a5b5,6565e40f3099960a1bb49e76,50992,1A,woman,NA,NA,M3 is being challenged by W1,challenge3,rating_causation,"{""Q0"":5}",[0],M3 started challenging W1 first,W1 started challenging M3 first
28345.19999998808,NA,NA,NA,NA,survey-likert-extra-labels,102,1615320,0.0-38.0-2.0,anomymised,6560bfa89caa13ce6a65a5b5,6565e40f3099960a1bb49e76,50992,1A,woman,NA,NA,M3 is being challenged by W1,challenge3,rating_volition,"{""Q0"":5}",[0],M3 wanted to challenge W1,W1 wanted to challenge M3
null,Ruth is being shouted at by Kate,NA,NA,NA,html-keyboard-response,103,1617335,0.0-39.0-0.0,anomymised,6560bfa89caa13ce6a65a5b5,6565e40f3099960a1bb49e76,50992,1A,woman,NA,null,W1 is being shouted at by W3,shout1,sentence,NA,NA,NA,NA
7205.899999976158,NA,NA,NA,NA,survey-likert-extra-labels,104,1624542,0.0-39.0-1.0-0.0,anomymised,6560bfa89caa13ce6a65a5b5,6565e40f3099960a1bb49e76,50992,1A,woman,NA,NA,W1 is being shouted at by W3,shout1,rating_causation,"{""Q0"":2}",[0],W1 shouted at W3 first,W3 shouted at W1 first
46478.89999997616,NA,NA,NA,NA,survey-likert-extra-labels,105,1671025,0.0-39.0-2.0,anomymised,6560bfa89caa13ce6a65a5b5,6565e40f3099960a1bb49e76,50992,1A,woman,NA,NA,W1 is being shouted at by W3,shout1,rating_volition,"{""Q0"":5}",[0],W1 wanted to shout at W3,W3 wanted to shout at W1
null,Jane is teaching Dave,NA,NA,NA,html-keyboard-response,106,1673033,0.0-40.0-0.0,anomymised,6560bfa89caa13ce6a65a5b5,6565e40f3099960a1bb49e76,50992,1A,woman,NA,null,W2 is teaching M4,teach,sentence,NA,NA,NA,NA
7792.699999988079,NA,NA,NA,NA,survey-likert-extra-labels,107,1680827,0.0-40.0-1.0-0.0,anomymised,6560bfa89caa13ce6a65a5b5,6565e40f3099960a1bb49e76,50992,1A,woman,NA,NA,W2 is teaching M4,teach,rating_causation,"{""Q0"":6}",[0],W2 is learning from M4,M4 is learning from W2
3880.5,NA,NA,NA,NA,survey-likert-extra-labels,108,1684709,0.0-40.0-2.0,anomymised,6560bfa89caa13ce6a65a5b5,6565e40f3099960a1bb49e76,50992,1A,woman,NA,NA,W2 is teaching M4,teach,rating_volition,"{""Q0"":0}",[0],W2 is educating M4,M4 is educating W2
null,Fred is hiring Ruth,NA,NA,NA,html-keyboard-response,109,1686717,0.0-41.0-0.0,anomymised,6560bfa89caa13ce6a65a5b5,6565e40f3099960a1bb49e76,50992,1A,woman,NA,null,M3 is hiring W1,hire,sentence,NA,NA,NA,NA
12311.699999988079,NA,NA,NA,NA,survey-likert-extra-labels,110,1699030,0.0-41.0-1.0-0.0,anomymised,6560bfa89caa13ce6a65a5b5,6565e40f3099960a1bb49e76,50992,1A,woman,NA,NA,M3 is hiring W1,hire,rating_causation,"{""Q0"":6}",[0],M3 will work for W1,W1 will work for M3
5147.400000035763,NA,NA,NA,NA,survey-likert-extra-labels,111,1704181,0.0-41.0-2.0,anomymised,6560bfa89caa13ce6a65a5b5,6565e40f3099960a1bb49e76,50992,1A,woman,NA,NA,M3 is hiring W1,hire,rating_volition,"{""Q0"":0}",[0],M3 is employing W1,W1 is employing M3
null,Luke is being opposed by Fred,NA,NA,NA,html-keyboard-response,112,1706184,0.0-42.0-0.0,anomymised,6560bfa89caa13ce6a65a5b5,6565e40f3099960a1bb49e76,50992,1A,woman,NA,null,M1 is being opposed by M3,oppose2,sentence,NA,NA,NA,NA
9586.799999952316,NA,NA,NA,NA,survey-likert-extra-labels,113,1715773,0.0-42.0-1.0-0.0,anomymised,6560bfa89caa13ce6a65a5b5,6565e40f3099960a1bb49e76,50992,1A,woman,NA,NA,M1 is being opposed by M3,oppose2,rating_causation,"{""Q0"":6}",[0],M1 started opposing M3,M3 started opposing M1
20672,NA,NA,NA,NA,survey-likert-extra-labels,114,1736446,0.0-42.0-2.0,anomymised,6560bfa89caa13ce6a65a5b5,6565e40f3099960a1bb49e76,50992,1A,woman,NA,NA,M1 is being opposed by M3,oppose2,rating_volition,"{""Q0"":5}",[0],M1 wanted to oppose M3,M3 wanted to oppose M1
null,Luke is being copied by Kate,NA,NA,NA,html-keyboard-response,115,1738449,0.0-43.0-0.0,anomymised,6560bfa89caa13ce6a65a5b5,6565e40f3099960a1bb49e76,50992,1A,woman,NA,null,M1 is being copied by W3,copy3,sentence,NA,NA,NA,NA
67676.10000002384,NA,NA,NA,NA,survey-likert-extra-labels,116,1806127,0.0-43.0-2.0,anomymised,6560bfa89caa13ce6a65a5b5,6565e40f3099960a1bb49e76,50992,1A,woman,NA,NA,M1 is being copied by W3,copy3,rating_volition,"{""Q0"":0}",[0],W3 wanted to copy M1,M1 wanted to copy W3
21243.30000001192,NA,NA,NA,NA,survey-likert-extra-labels,117,1827373,0.0-43.0-3.0-0.0,anomymised,6560bfa89caa13ce6a65a5b5,6565e40f3099960a1bb49e76,50992,1A,woman,NA,NA,M1 is being copied by W3,copy3,rating_causation,"{""Q0"":0}",[0],W3 started copying M1 first,M1 started copying W3 first
null,Jane is being seduced by Beth,NA,NA,NA,html-keyboard-response,118,1829387,0.0-44.0-0.0,anomymised,6560bfa89caa13ce6a65a5b5,6565e40f3099960a1bb49e76,50992,1A,woman,NA,null,W2 is being seduced by W4,seduce1,sentence,NA,NA,NA,NA
18850.69999998808,NA,NA,NA,NA,survey-likert-extra-labels,119,1848240,0.0-44.0-2.0,anomymised,6560bfa89caa13ce6a65a5b5,6565e40f3099960a1bb49e76,50992,1A,woman,NA,NA,W2 is being seduced by W4,seduce1,rating_volition,"{""Q0"":6}",[0],W2 wanted to seduce W4,W4 wanted to seduce W2
51399.30000001192,NA,NA,NA,NA,survey-likert-extra-labels,120,1899641,0.0-44.0-3.0-0.0,anomymised,6560bfa89caa13ce6a65a5b5,6565e40f3099960a1bb49e76,50992,1A,woman,NA,NA,W2 is being seduced by W4,seduce1,rating_causation,"{""Q0"":6}",[0],W2 started seducing W4 first,W4 started seducing W2 first
null,Mike is being shouted at by Beth,NA,NA,NA,html-keyboard-response,121,1901647,0.0-45.0-0.0,anomymised,6560bfa89caa13ce6a65a5b5,6565e40f3099960a1bb49e76,50992,1A,woman,NA,null,M2 is being shouted at by W4,shout3,sentence,NA,NA,NA,NA
62136.69999998808,NA,NA,NA,NA,survey-likert-extra-labels,122,1963785,0.0-45.0-2.0,anomymised,6560bfa89caa13ce6a65a5b5,6565e40f3099960a1bb49e76,50992,1A,woman,NA,NA,M2 is being shouted at by W4,shout3,rating_volition,"{""Q0"":6}",[0],M2 wanted to shout at W4,W4 wanted to shout at M2
6607.600000023842,NA,NA,NA,NA,survey-likert-extra-labels,123,1970396,0.0-45.0-3.0-0.0,anomymised,6560bfa89caa13ce6a65a5b5,6565e40f3099960a1bb49e76,50992,1A,woman,NA,NA,M2 is being shouted at by W4,shout3,rating_causation,"{""Q0"":6}",[0],M2 shouted at W4 first,W4 shouted at M2 first
null,Fred is being kissed by Luke,NA,NA,NA,html-keyboard-response,124,1972405,0.0-46.0-0.0,anomymised,6560bfa89caa13ce6a65a5b5,6565e40f3099960a1bb49e76,50992,1A,woman,NA,null,M3 is being kissed by M1,kiss2,sentence,NA,NA,NA,NA
3646.199999988079,NA,NA,NA,NA,survey-likert-extra-labels,125,1976053,0.0-46.0-1.0-0.0,anomymised,6560bfa89caa13ce6a65a5b5,6565e40f3099960a1bb49e76,50992,1A,woman,NA,NA,M3 is being kissed by M1,kiss2,rating_causation,"{""Q0"":3}",[0],M1 asked to kiss M3,M3 asked to kiss M1
9108.100000023842,NA,NA,NA,NA,survey-likert-extra-labels,126,1985164,0.0-46.0-2.0,anomymised,6560bfa89caa13ce6a65a5b5,6565e40f3099960a1bb49e76,50992,1A,woman,NA,NA,M3 is being kissed by M1,kiss2,rating_volition,"{""Q0"":0}",[0],M1 wanted to kiss M3,M3 wanted to kiss M1
null,Jane is carrying Beth,NA,NA,NA,html-keyboard-response,127,1987169,0.0-47.0-0.0,anomymised,6560bfa89caa13ce6a65a5b5,6565e40f3099960a1bb49e76,50992,1A,woman,NA,null,W2 is carrying W4,carry,sentence,NA,NA,NA,NA
137669.10000002384,NA,NA,NA,NA,survey-likert-extra-labels,128,2124840,0.0-47.0-2.0,anomymised,6560bfa89caa13ce6a65a5b5,6565e40f3099960a1bb49e76,50992,1A,woman,NA,NA,W2 is carrying W4,carry,rating_volition,"{""Q0"":0}",[0],W2 is transporting W4,W4 is transporting W2
5970.100000023842,NA,NA,NA,NA,survey-likert-extra-labels,129,2130813,0.0-47.0-3.0-0.0,anomymised,6560bfa89caa13ce6a65a5b5,6565e40f3099960a1bb49e76,50992,1A,woman,NA,NA,W2 is carrying W4,carry,rating_causation,"{""Q0"":6}",[0],W2 is being moved by W4,W4 is being moved by W2
null,Kate is being seduced by Luke,NA,NA,NA,html-keyboard-response,130,2132816,0.0-48.0-0.0,anomymised,6560bfa89caa13ce6a65a5b5,6565e40f3099960a1bb49e76,50992,1A,woman,NA,null,W3 is being seduced by M1,seduce3,sentence,NA,NA,NA,NA
3773.800000011921,NA,NA,NA,NA,survey-likert-extra-labels,131,2136591,0.0-48.0-2.0,anomymised,6560bfa89caa13ce6a65a5b5,6565e40f3099960a1bb49e76,50992,1A,woman,NA,NA,W3 is being seduced by M1,seduce3,rating_volition,"{""Q0"":6}",[0],W3 wanted to seduce M1,M1 wanted to seduce W3
44887.10000002384,NA,NA,NA,NA,survey-likert-extra-labels,132,2181481,0.0-48.0-3.0-0.0,anomymised,6560bfa89caa13ce6a65a5b5,6565e40f3099960a1bb49e76,50992,1A,woman,NA,NA,W3 is being seduced by M1,seduce3,rating_causation,"{""Q0"":6}",[0],W3 started seducing M1 first,M1 started seducing W3 first
null,Kate is being looked at by Ruth,NA,NA,NA,html-keyboard-response,133,2183496,0.0-49.0-0.0,anomymised,6560bfa89caa13ce6a65a5b5,6565e40f3099960a1bb49e76,50992,1A,woman,NA,null,W3 is being looked at by W1,look1,sentence,NA,NA,NA,NA
5448.699999988079,NA,NA,NA,NA,survey-likert-extra-labels,134,2188946,0.0-49.0-1.0-0.0,anomymised,6560bfa89caa13ce6a65a5b5,6565e40f3099960a1bb49e76,50992,1A,woman,NA,NA,W3 is being looked at by W1,look1,rating_causation,"{""Q0"":0}",[0],W1 looked at W3 first,W3 looked at W1 first
24630,NA,NA,NA,NA,survey-likert-extra-labels,135,2213580,0.0-49.0-2.0,anomymised,6560bfa89caa13ce6a65a5b5,6565e40f3099960a1bb49e76,50992,1A,woman,NA,NA,W3 is being looked at by W1,look1,rating_volition,"{""Q0"":0}",[0],W1 wanted to look at W3,W3 wanted to look at W1
null,Mike is posing for Dave,NA,NA,NA,html-keyboard-response,136,2215584,0.0-50.0-0.0,anomymised,6560bfa89caa13ce6a65a5b5,6565e40f3099960a1bb49e76,50992,1A,woman,NA,null,M2 is posing for M4,pose,sentence,NA,NA,NA,NA
7793.700000047684,NA,NA,NA,NA,survey-likert-extra-labels,137,2223379,0.0-50.0-1.0-0.0,anomymised,6560bfa89caa13ce6a65a5b5,6565e40f3099960a1bb49e76,50992,1A,woman,NA,NA,M2 is posing for M4,pose,rating_causation,"{""Q0"":6}",[0],M2 is photographing M4,M4 is photographing M2
6571.799999952316,NA,NA,NA,NA,survey-likert-extra-labels,138,2229955,0.0-50.0-2.0,anomymised,6560bfa89caa13ce6a65a5b5,6565e40f3099960a1bb49e76,50992,1A,woman,NA,NA,M2 is posing for M4,pose,rating_volition,"{""Q0"":0}",[0],M2 is modelling for M4,M4 is modelling for M2
null,Ruth is chasing Kate,NA,NA,NA,html-keyboard-response,139,2231966,0.0-51.0-0.0,anomymised,6560bfa89caa13ce6a65a5b5,6565e40f3099960a1bb49e76,50992,1A,woman,NA,null,W1 is chasing W3,chase,sentence,NA,NA,NA,NA
4383.899999976158,NA,NA,NA,NA,survey-likert-extra-labels,140,2236351,0.0-51.0-1.0-0.0,anomymised,6560bfa89caa13ce6a65a5b5,6565e40f3099960a1bb49e76,50992,1A,woman,NA,NA,W1 is chasing W3,chase,rating_causation,"{""Q0"":6}",[0],W1 is running away from W3,W3 is running away from W1
28948.19999998808,NA,NA,NA,NA,survey-likert-extra-labels,141,2265301,0.0-51.0-2.0,anomymised,6560bfa89caa13ce6a65a5b5,6565e40f3099960a1bb49e76,50992,1A,woman,NA,NA,W1 is chasing W3,chase,rating_volition,"{""Q0"":0}",[0],W1 is behind W3,W3 is behind W1
null,Beth is being copied by Jane,NA,NA,NA,html-keyboard-response,142,2267312,0.0-52.0-0.0,anomymised,6560bfa89caa13ce6a65a5b5,6565e40f3099960a1bb49e76,50992,1A,woman,NA,null,W4 is being copied by W2,copy1,sentence,NA,NA,NA,NA
121656.40000003576,NA,NA,NA,NA,survey-likert-extra-labels,143,2388972,0.0-52.0-2.0,anomymised,6560bfa89caa13ce6a65a5b5,6565e40f3099960a1bb49e76,50992,1A,woman,NA,NA,W4 is being copied by W2,copy1,rating_volition,"{""Q0"":0}",[0],W2 wanted to copy W4,W4 wanted to copy W2
4289.199999988079,NA,NA,NA,NA,survey-likert-extra-labels,144,2393265,0.0-52.0-3.0-0.0,anomymised,6560bfa89caa13ce6a65a5b5,6565e40f3099960a1bb49e76,50992,1A,woman,NA,NA,W4 is being copied by W2,copy1,rating_causation,"{""Q0"":0}",[0],W2 started copying W4 first,W4 started copying W2 first
null,Jane is being challenged by Beth,NA,NA,NA,html-keyboard-response,145,2395281,0.0-53.0-0.0,anomymised,6560bfa89caa13ce6a65a5b5,6565e40f3099960a1bb49e76,50992,1A,woman,NA,null,W2 is being challenged by W4,challenge1,sentence,NA,NA,NA,NA
65797.30000001192,NA,NA,NA,NA,survey-likert-extra-labels,146,2461078,0.0-53.0-1.0-0.0,anomymised,6560bfa89caa13ce6a65a5b5,6565e40f3099960a1bb49e76,50992,1A,woman,NA,NA,W2 is being challenged by W4,challenge1,rating_causation,"{""Q0"":6}",[0],W2 started challenging W4 first,W4 started challenging W2 first
5491.600000023842,NA,NA,NA,NA,survey-likert-extra-labels,147,2466572,0.0-53.0-2.0,anomymised,6560bfa89caa13ce6a65a5b5,6565e40f3099960a1bb49e76,50992,1A,woman,NA,NA,W2 is being challenged by W4,challenge1,rating_volition,"{""Q0"":6}",[0],W2 wanted to challenge W4,W4 wanted to challenge W2
null,Fred is being seduced by Ruth,NA,NA,NA,html-keyboard-response,148,2468587,0.0-54.0-0.0,anomymised,6560bfa89caa13ce6a65a5b5,6565e40f3099960a1bb49e76,50992,1A,woman,NA,null,M3 is being seduced by W1,seduce4,sentence,NA,NA,NA,NA
4662.5,NA,NA,NA,NA,survey-likert-extra-labels,149,2473252,0.0-54.0-1.0-0.0,anomymised,6560bfa89caa13ce6a65a5b5,6565e40f3099960a1bb49e76,50992,1A,woman,NA,NA,M3 is being seduced by W1,seduce4,rating_causation,"{""Q0"":6}",[0],M3 started seducing W1 first,W1 started seducing M3 first
4076.800000011921,NA,NA,NA,NA,survey-likert-extra-labels,150,2477332,0.0-54.0-2.0,anomymised,6560bfa89caa13ce6a65a5b5,6565e40f3099960a1bb49e76,50992,1A,woman,NA,NA,M3 is being seduced by W1,seduce4,rating_volition,"{""Q0"":6}",[0],M3 wanted to seducing W1,W1 wanted to seducing M3
1554.1000000238419,<p>Thank you for completing that task.</p><p>The final part of this session is a short questionnaire.</p><p>Press Continue.</p>,0,Continue,Continue,html-button-response,151,2478889,0.0-55.0,anomymised,6560bfa89caa13ce6a65a5b5,6565e40f3099960a1bb49e76,50992,1A,woman,NA,NA,NA,NA,NA,NA,NA,NA,NA
23462.100000023842,NA,NA,NA,NA,survey-text,152,2503356,0.0-56.0,anomymised,6560bfa89caa13ce6a65a5b5,6565e40f3099960a1bb49e76,50992,1A,woman,NA,NA,NA,NA,demographics,"{""Q0"":""27"",""Q1"":""English"",""Q2"":""English"",""Q3"":""UK"",""Q4"":""British"",""Q5"":""White"",""Q6"":""female""}",NA,NA,NA
3508.899999976158,<p>This is the last question - thank you for taking part! Have you lived in the UK for the last 5 years or more?</p>,0,"Yes,No",Yes,html-button-response,153,2506866,0.0-57.0,anomymised,6560bfa89caa13ce6a65a5b5,6565e40f3099960a1bb49e76,50992,1A,woman,NA,NA,NA,NA,fiveyears,NA,NA,NA,NA
