rt,stimulus,button_pressed,choices,ChosenStimulus,trial_type,trial_index,time_elapsed,internal_node_id,subject_id,study_id,session_id,subject,list,ppt_gender,url,key_press,sentence_type,verb,test_part,responses,question_order,left_part,right_part
4791.5,Welcome to the experiment. Press Continue to begin.,0,Continue,Continue,html-button-response,0,4796,0.0-0.0,anomymised,6560bfa89caa13ce6a65a5b5,6565e338ca33d9f0170519ae,51468,1A,woman,NA,NA,NA,NA,NA,NA,NA,NA,NA
20208.19999998808,NA,NA,NA,NA,external-html,1,26111,0.0-1.0,anomymised,6560bfa89caa13ce6a65a5b5,6565e338ca33d9f0170519ae,51468,1A,woman,consent.html,NA,NA,NA,NA,NA,NA,NA,NA
15272.70000000298,"<p>Welcome.</p><p>In this experiment we will ask you to imagine some situations.</p><p>Each trial starts with a description of an event.</p><p>Then you will see alternative descriptions of that event, and you will rate on a scale how best they match the original description.</p><p>You will give your answer by clicking a button on a rating scale.</p><p>To do this task, you will have to use your imagination to visualise these events.</p><br><p>Ready?</p>",0,Continue,Continue,html-button-response,2,41385,0.0-2.0,anomymised,6560bfa89caa13ce6a65a5b5,6565e338ca33d9f0170519ae,51468,1A,woman,NA,NA,NA,NA,NA,NA,NA,NA,NA
2452.4000000059605,"<p>Before the experiment starts, you will watch an example trial. Press 'Continue'.</p>",0,Continue,Continue,html-button-response,3,44841,0.0-3.0,anomymised,6560bfa89caa13ce6a65a5b5,6565e338ca33d9f0170519ae,51468,1A,woman,NA,NA,NA,NA,NA,NA,NA,NA,NA
null,The police officer is arresting the robber,NA,NA,NA,html-keyboard-response,4,47849,0.0-4.0,anomymised,6560bfa89caa13ce6a65a5b5,6565e338ca33d9f0170519ae,51468,1A,woman,NA,null,NA,NA,NA,NA,NA,NA,NA
20746,<img src='img/Example-trial.jpg' style='height:550px;''></img>,0,Continue,Continue,html-button-response,5,68597,0.0-5.0,anomymised,6560bfa89caa13ce6a65a5b5,6565e338ca33d9f0170519ae,51468,1A,woman,NA,NA,NA,NA,NA,NA,NA,NA,NA
2503.7000000029802,<p>Ready to start the experiment?</p><br><p><strong>Remember to give an answer by clicking a button on the rating scale.</strong></p><p>Press 'Continue' to begin.</p>,0,Continue,Continue,html-button-response,6,72104,0.0-6.0,anomymised,6560bfa89caa13ce6a65a5b5,6565e338ca33d9f0170519ae,51468,1A,woman,NA,NA,NA,NA,NA,NA,NA,NA,NA
null,Kate is being seduced by Luke,NA,NA,NA,html-keyboard-response,7,75115,0.0-7.0-0.0,anomymised,6560bfa89caa13ce6a65a5b5,6565e338ca33d9f0170519ae,51468,1A,woman,NA,null,W3 is being seduced by M1,seduce3,sentence,NA,NA,NA,NA
14220.59999999404,NA,NA,NA,NA,survey-likert-extra-labels,8,89339,0.0-7.0-1.0-0.0,anomymised,6560bfa89caa13ce6a65a5b5,6565e338ca33d9f0170519ae,51468,1A,woman,NA,NA,W3 is being seduced by M1,seduce3,rating_causation,"{""Q0"":5}",[0],W3 started seducing M1 first,M1 started seducing W3 first
7100.399999991059,NA,NA,NA,NA,survey-likert-extra-labels,9,96444,0.0-7.0-2.0,anomymised,6560bfa89caa13ce6a65a5b5,6565e338ca33d9f0170519ae,51468,1A,woman,NA,NA,W3 is being seduced by M1,seduce3,rating_volition,"{""Q0"":5}",[0],W3 wanted to seduce M1,M1 wanted to seduce W3
null,Beth is being kissed by Mike,NA,NA,NA,html-keyboard-response,10,98451,0.0-8.0-0.0,anomymised,6560bfa89caa13ce6a65a5b5,6565e338ca33d9f0170519ae,51468,1A,woman,NA,null,W4 is being kissed by M2,kiss3,sentence,NA,NA,NA,NA
13972.5,NA,NA,NA,NA,survey-likert-extra-labels,11,112425,0.0-8.0-1.0-0.0,anomymised,6560bfa89caa13ce6a65a5b5,6565e338ca33d9f0170519ae,51468,1A,woman,NA,NA,W4 is being kissed by M2,kiss3,rating_causation,"{""Q0"":1}",[0],M2 asked to kiss W4,W4 asked to kiss M2
8390.5,NA,NA,NA,NA,survey-likert-extra-labels,12,120819,0.0-8.0-2.0,anomymised,6560bfa89caa13ce6a65a5b5,6565e338ca33d9f0170519ae,51468,1A,woman,NA,NA,W4 is being kissed by M2,kiss3,rating_volition,"{""Q0"":1}",[0],M2 wanted to kiss W4,W4 wanted to kiss M2
null,Luke is being opposed by Fred,NA,NA,NA,html-keyboard-response,13,122823,0.0-9.0-0.0,anomymised,6560bfa89caa13ce6a65a5b5,6565e338ca33d9f0170519ae,51468,1A,woman,NA,null,M1 is being opposed by M3,oppose2,sentence,NA,NA,NA,NA
10243.09999999404,NA,NA,NA,NA,survey-likert-extra-labels,14,133068,0.0-9.0-1.0-0.0,anomymised,6560bfa89caa13ce6a65a5b5,6565e338ca33d9f0170519ae,51468,1A,woman,NA,NA,M1 is being opposed by M3,oppose2,rating_causation,"{""Q0"":5}",[0],M1 started opposing M3,M3 started opposing M1
13241.79999999702,NA,NA,NA,NA,survey-likert-extra-labels,15,146316,0.0-9.0-2.0,anomymised,6560bfa89caa13ce6a65a5b5,6565e338ca33d9f0170519ae,51468,1A,woman,NA,NA,M1 is being opposed by M3,oppose2,rating_volition,"{""Q0"":5}",[0],M1 wanted to oppose M3,M3 wanted to oppose M1
null,Beth is being copied by Jane,NA,NA,NA,html-keyboard-response,16,148319,0.0-10.0-0.0,anomymised,6560bfa89caa13ce6a65a5b5,6565e338ca33d9f0170519ae,51468,1A,woman,NA,null,W4 is being copied by W2,copy1,sentence,NA,NA,NA,NA
12529.90000000596,NA,NA,NA,NA,survey-likert-extra-labels,17,160851,0.0-10.0-2.0,anomymised,6560bfa89caa13ce6a65a5b5,6565e338ca33d9f0170519ae,51468,1A,woman,NA,NA,W4 is being copied by W2,copy1,rating_volition,"{""Q0"":1}",[0],W2 wanted to copy W4,W4 wanted to copy W2
9194,NA,NA,NA,NA,survey-likert-extra-labels,18,170049,0.0-10.0-3.0-0.0,anomymised,6560bfa89caa13ce6a65a5b5,6565e338ca33d9f0170519ae,51468,1A,woman,NA,NA,W4 is being copied by W2,copy1,rating_causation,"{""Q0"":2}",[0],W2 started copying W4 first,W4 started copying W2 first
null,Mike is being touched by Dave,NA,NA,NA,html-keyboard-response,19,172053,0.0-11.0-0.0,anomymised,6560bfa89caa13ce6a65a5b5,6565e338ca33d9f0170519ae,51468,1A,woman,NA,null,M2 is being touched by M4,touch2,sentence,NA,NA,NA,NA
8994,NA,NA,NA,NA,survey-likert-extra-labels,20,181049,0.0-11.0-2.0,anomymised,6560bfa89caa13ce6a65a5b5,6565e338ca33d9f0170519ae,51468,1A,woman,NA,NA,M2 is being touched by M4,touch2,rating_volition,"{""Q0"":2}",[0],M2 wanted to touch M4,M4 wanted to touch M2
8000.5,NA,NA,NA,NA,survey-likert-extra-labels,21,189053,0.0-11.0-3.0-0.0,anomymised,6560bfa89caa13ce6a65a5b5,6565e338ca33d9f0170519ae,51468,1A,woman,NA,NA,M2 is being touched by M4,touch2,rating_causation,"{""Q0"":3}",[0],M2 asked to touch M4,M4 asked to touch M2
null,Kate is being looked at by Ruth,NA,NA,NA,html-keyboard-response,22,191060,0.0-12.0-0.0,anomymised,6560bfa89caa13ce6a65a5b5,6565e338ca33d9f0170519ae,51468,1A,woman,NA,null,W3 is being looked at by W1,look1,sentence,NA,NA,NA,NA
10461.90000000596,NA,NA,NA,NA,survey-likert-extra-labels,23,201523,0.0-12.0-2.0,anomymised,6560bfa89caa13ce6a65a5b5,6565e338ca33d9f0170519ae,51468,1A,woman,NA,NA,W3 is being looked at by W1,look1,rating_volition,"{""Q0"":1}",[0],W1 wanted to look at W3,W3 wanted to look at W1
10138.10000000894,NA,NA,NA,NA,survey-likert-extra-labels,24,211664,0.0-12.0-3.0-0.0,anomymised,6560bfa89caa13ce6a65a5b5,6565e338ca33d9f0170519ae,51468,1A,woman,NA,NA,W3 is being looked at by W1,look1,rating_causation,"{""Q0"":3}",[0],W1 looked at W3 first,W3 looked at W1 first
null,Fred is being looked at by Luke,NA,NA,NA,html-keyboard-response,25,213668,0.0-13.0-0.0,anomymised,6560bfa89caa13ce6a65a5b5,6565e338ca33d9f0170519ae,51468,1A,woman,NA,null,M3 is being looked at by M1,look2,sentence,NA,NA,NA,NA
5123.20000000298,NA,NA,NA,NA,survey-likert-extra-labels,26,218793,0.0-13.0-2.0,anomymised,6560bfa89caa13ce6a65a5b5,6565e338ca33d9f0170519ae,51468,1A,woman,NA,NA,M3 is being looked at by M1,look2,rating_volition,"{""Q0"":1}",[0],M1 wanted to look at M3,M3 wanted to look at M1
4828.199999988079,NA,NA,NA,NA,survey-likert-extra-labels,27,223626,0.0-13.0-3.0-0.0,anomymised,6560bfa89caa13ce6a65a5b5,6565e338ca33d9f0170519ae,51468,1A,woman,NA,NA,M3 is being looked at by M1,look2,rating_causation,"{""Q0"":3}",[0],M1 looked at M3 first,M3 looked at M1 first
null,Jane is being seduced by Beth,NA,NA,NA,html-keyboard-response,28,225633,0.0-14.0-0.0,anomymised,6560bfa89caa13ce6a65a5b5,6565e338ca33d9f0170519ae,51468,1A,woman,NA,null,W2 is being seduced by W4,seduce1,sentence,NA,NA,NA,NA
15540.40000000596,NA,NA,NA,NA,survey-likert-extra-labels,29,241175,0.0-14.0-2.0,anomymised,6560bfa89caa13ce6a65a5b5,6565e338ca33d9f0170519ae,51468,1A,woman,NA,NA,W2 is being seduced by W4,seduce1,rating_volition,"{""Q0"":5}",[0],W2 wanted to seduce W4,W4 wanted to seduce W2
10366.10000000894,NA,NA,NA,NA,survey-likert-extra-labels,30,251544,0.0-14.0-3.0-0.0,anomymised,6560bfa89caa13ce6a65a5b5,6565e338ca33d9f0170519ae,51468,1A,woman,NA,NA,W2 is being seduced by W4,seduce1,rating_causation,"{""Q0"":4}",[0],W2 started seducing W4 first,W4 started seducing W2 first
null,Fred is being kissed by Luke,NA,NA,NA,html-keyboard-response,31,253551,0.0-15.0-0.0,anomymised,6560bfa89caa13ce6a65a5b5,6565e338ca33d9f0170519ae,51468,1A,woman,NA,null,M3 is being kissed by M1,kiss2,sentence,NA,NA,NA,NA
8896.5,NA,NA,NA,NA,survey-likert-extra-labels,32,262449,0.0-15.0-1.0-0.0,anomymised,6560bfa89caa13ce6a65a5b5,6565e338ca33d9f0170519ae,51468,1A,woman,NA,NA,M3 is being kissed by M1,kiss2,rating_causation,"{""Q0"":3}",[0],M1 asked to kiss M3,M3 asked to kiss M1
4171.899999991059,NA,NA,NA,NA,survey-likert-extra-labels,33,266624,0.0-15.0-2.0,anomymised,6560bfa89caa13ce6a65a5b5,6565e338ca33d9f0170519ae,51468,1A,woman,NA,NA,M3 is being kissed by M1,kiss2,rating_volition,"{""Q0"":""""}",[0],M1 wanted to kiss M3,M3 wanted to kiss M1
null,Ruth is chasing Kate,NA,NA,NA,html-keyboard-response,34,268629,0.0-16.0-0.0,anomymised,6560bfa89caa13ce6a65a5b5,6565e338ca33d9f0170519ae,51468,1A,woman,NA,null,W1 is chasing W3,chase,sentence,NA,NA,NA,NA
18206.5,NA,NA,NA,NA,survey-likert-extra-labels,35,286837,0.0-16.0-2.0,anomymised,6560bfa89caa13ce6a65a5b5,6565e338ca33d9f0170519ae,51468,1A,woman,NA,NA,W1 is chasing W3,chase,rating_volition,"{""Q0"":0}",[0],W1 is behind W3,W3 is behind W1
8085.70000000298,NA,NA,NA,NA,survey-likert-extra-labels,36,294925,0.0-16.0-3.0-0.0,anomymised,6560bfa89caa13ce6a65a5b5,6565e338ca33d9f0170519ae,51468,1A,woman,NA,NA,W1 is chasing W3,chase,rating_causation,"{""Q0"":6}",[0],W1 is running away from W3,W3 is running away from W1
null,Fred is being challenged by Ruth,NA,NA,NA,html-keyboard-response,37,296931,0.0-17.0-0.0,anomymised,6560bfa89caa13ce6a65a5b5,6565e338ca33d9f0170519ae,51468,1A,woman,NA,null,M3 is being challenged by W1,challenge3,sentence,NA,NA,NA,NA
6857.79999999702,NA,NA,NA,NA,survey-likert-extra-labels,38,303790,0.0-17.0-1.0-0.0,anomymised,6560bfa89caa13ce6a65a5b5,6565e338ca33d9f0170519ae,51468,1A,woman,NA,NA,M3 is being challenged by W1,challenge3,rating_causation,"{""Q0"":3}",[0],M3 started challenging W1 first,W1 started challenging M3 first
10344,NA,NA,NA,NA,survey-likert-extra-labels,39,314137,0.0-17.0-2.0,anomymised,6560bfa89caa13ce6a65a5b5,6565e338ca33d9f0170519ae,51468,1A,woman,NA,NA,M3 is being challenged by W1,challenge3,rating_volition,"{""Q0"":4}",[0],M3 wanted to challenge W1,W1 wanted to challenge M3
null,Fred is hiring Ruth,NA,NA,NA,html-keyboard-response,40,316144,0.0-18.0-0.0,anomymised,6560bfa89caa13ce6a65a5b5,6565e338ca33d9f0170519ae,51468,1A,woman,NA,null,M3 is hiring W1,hire,sentence,NA,NA,NA,NA
13840,NA,NA,NA,NA,survey-likert-extra-labels,41,329985,0.0-18.0-2.0,anomymised,6560bfa89caa13ce6a65a5b5,6565e338ca33d9f0170519ae,51468,1A,woman,NA,NA,M3 is hiring W1,hire,rating_volition,"{""Q0"":0}",[0],M3 is employing W1,W1 is employing M3
8168.4000000059605,NA,NA,NA,NA,survey-likert-extra-labels,42,338158,0.0-18.0-3.0-0.0,anomymised,6560bfa89caa13ce6a65a5b5,6565e338ca33d9f0170519ae,51468,1A,woman,NA,NA,M3 is hiring W1,hire,rating_causation,"{""Q0"":5}",[0],M3 will work for W1,W1 will work for M3
null,Ruth is being greeted by Fred,NA,NA,NA,html-keyboard-response,43,340162,0.0-19.0-0.0,anomymised,6560bfa89caa13ce6a65a5b5,6565e338ca33d9f0170519ae,51468,1A,woman,NA,null,W1 is being greeted by M3,greet3,sentence,NA,NA,NA,NA
8717.199999988079,NA,NA,NA,NA,survey-likert-extra-labels,44,348880,0.0-19.0-2.0,anomymised,6560bfa89caa13ce6a65a5b5,6565e338ca33d9f0170519ae,51468,1A,woman,NA,NA,W1 is being greeted by M3,greet3,rating_volition,"{""Q0"":1}",[0],M3 wanted to greet W1,W1 wanted to greet M3
10380.89999999106,NA,NA,NA,NA,survey-likert-extra-labels,45,359267,0.0-19.0-3.0-0.0,anomymised,6560bfa89caa13ce6a65a5b5,6565e338ca33d9f0170519ae,51468,1A,woman,NA,NA,W1 is being greeted by M3,greet3,rating_causation,"{""Q0"":2}",[0],M3 started greeting W1 first,W1 started greeting M3 first
null,Luke is being hugged by Fred,NA,NA,NA,html-keyboard-response,46,361272,0.0-20.0-0.0,anomymised,6560bfa89caa13ce6a65a5b5,6565e338ca33d9f0170519ae,51468,1A,woman,NA,null,M1 is being hugged by M3,hug2,sentence,NA,NA,NA,NA
14528.10000000894,NA,NA,NA,NA,survey-likert-extra-labels,47,375801,0.0-20.0-2.0,anomymised,6560bfa89caa13ce6a65a5b5,6565e338ca33d9f0170519ae,51468,1A,woman,NA,NA,M1 is being hugged by M3,hug2,rating_volition,"{""Q0"":5}",[0],M1 wanted to hug M3,M3 wanted to hug M1
7117.600000008941,NA,NA,NA,NA,survey-likert-extra-labels,48,382920,0.0-20.0-3.0-0.0,anomymised,6560bfa89caa13ce6a65a5b5,6565e338ca33d9f0170519ae,51468,1A,woman,NA,NA,M1 is being hugged by M3,hug2,rating_causation,"{""Q0"":3}",[0],M1 asked to hug M3,M3 asked to hug M1
null,Dave is being greeted by Mike,NA,NA,NA,html-keyboard-response,49,384924,0.0-21.0-0.0,anomymised,6560bfa89caa13ce6a65a5b5,6565e338ca33d9f0170519ae,51468,1A,woman,NA,null,M4 is being greeted by M2,greet2,sentence,NA,NA,NA,NA
13634.29999999702,NA,NA,NA,NA,survey-likert-extra-labels,50,398559,0.0-21.0-1.0-0.0,anomymised,6560bfa89caa13ce6a65a5b5,6565e338ca33d9f0170519ae,51468,1A,woman,NA,NA,M4 is being greeted by M2,greet2,rating_causation,"{""Q0"":2}",[0],M2 started greeting M4 first,M4 started greeting M2 first
7965.5,NA,NA,NA,NA,survey-likert-extra-labels,51,406526,0.0-21.0-2.0,anomymised,6560bfa89caa13ce6a65a5b5,6565e338ca33d9f0170519ae,51468,1A,woman,NA,NA,M4 is being greeted by M2,greet2,rating_volition,"{""Q0"":1}",[0],M2 wanted to greet M4,M4 wanted to greet M2
null,Fred is being touched by Ruth,NA,NA,NA,html-keyboard-response,52,408532,0.0-22.0-0.0,anomymised,6560bfa89caa13ce6a65a5b5,6565e338ca33d9f0170519ae,51468,1A,woman,NA,null,M3 is being touched by W1,touch4,sentence,NA,NA,NA,NA
9437.10000000894,NA,NA,NA,NA,survey-likert-extra-labels,53,417970,0.0-22.0-1.0-0.0,anomymised,6560bfa89caa13ce6a65a5b5,6565e338ca33d9f0170519ae,51468,1A,woman,NA,NA,M3 is being touched by W1,touch4,rating_causation,"{""Q0"":3}",[0],M3 asked to touch W1,W1 asked to touch M3
8119.800000011921,NA,NA,NA,NA,survey-likert-extra-labels,54,426091,0.0-22.0-2.0,anomymised,6560bfa89caa13ce6a65a5b5,6565e338ca33d9f0170519ae,51468,1A,woman,NA,NA,M3 is being touched by W1,touch4,rating_volition,"{""Q0"":4}",[0],M3 wanted to touch W1,W1 wanted to touch M3
null,Luke is driving Fred,NA,NA,NA,html-keyboard-response,55,428096,0.0-23.0-0.0,anomymised,6560bfa89caa13ce6a65a5b5,6565e338ca33d9f0170519ae,51468,1A,woman,NA,null,M1 is driving M3,drive,sentence,NA,NA,NA,NA
12027,NA,NA,NA,NA,survey-likert-extra-labels,56,440124,0.0-23.0-1.0-0.0,anomymised,6560bfa89caa13ce6a65a5b5,6565e338ca33d9f0170519ae,51468,1A,woman,NA,NA,M1 is driving M3,drive,rating_causation,"{""Q0"":0}",[0],M1 is taking M3 somewhere,M3 is taking M1 somewhere
6026.29999999702,NA,NA,NA,NA,survey-likert-extra-labels,57,446152,0.0-23.0-2.0,anomymised,6560bfa89caa13ce6a65a5b5,6565e338ca33d9f0170519ae,51468,1A,woman,NA,NA,M1 is driving M3,drive,rating_volition,"{""Q0"":6}",[0],M1 is M3's passenger,M3 is M1's passenger
null,Dave is being looked at by Jane,NA,NA,NA,html-keyboard-response,58,448155,0.0-24.0-0.0,anomymised,6560bfa89caa13ce6a65a5b5,6565e338ca33d9f0170519ae,51468,1A,woman,NA,null,M4 is being looked at by W2,look3,sentence,NA,NA,NA,NA
18889.59999999404,NA,NA,NA,NA,survey-likert-extra-labels,59,467045,0.0-24.0-2.0,anomymised,6560bfa89caa13ce6a65a5b5,6565e338ca33d9f0170519ae,51468,1A,woman,NA,NA,M4 is being looked at by W2,look3,rating_volition,"{""Q0"":1}",[0],W2 wanted to look at M4,M4 wanted to look at W2
5403.399999991059,NA,NA,NA,NA,survey-likert-extra-labels,60,472450,0.0-24.0-3.0-0.0,anomymised,6560bfa89caa13ce6a65a5b5,6565e338ca33d9f0170519ae,51468,1A,woman,NA,NA,M4 is being looked at by W2,look3,rating_causation,"{""Q0"":3}",[0],W2 looked at M4 first,M4 looked at W2 first
null,Mike is reminding Beth,NA,NA,NA,html-keyboard-response,61,474453,0.0-25.0-0.0,anomymised,6560bfa89caa13ce6a65a5b5,6565e338ca33d9f0170519ae,51468,1A,woman,NA,null,M2 is reminding W4,remind,sentence,NA,NA,NA,NA
9096.800000011921,NA,NA,NA,NA,survey-likert-extra-labels,62,483550,0.0-25.0-1.0-0.0,anomymised,6560bfa89caa13ce6a65a5b5,6565e338ca33d9f0170519ae,51468,1A,woman,NA,NA,M2 is reminding W4,remind,rating_causation,"{""Q0"":5}",[0],M2 is remembering,W4 is remembering
7556.600000008941,NA,NA,NA,NA,survey-likert-extra-labels,63,491109,0.0-25.0-2.0,anomymised,6560bfa89caa13ce6a65a5b5,6565e338ca33d9f0170519ae,51468,1A,woman,NA,NA,M2 is reminding W4,remind,rating_volition,"{""Q0"":0}",[0],M2 is telling W4 again,W4 is telling M2 again
null,Dave is being copied by Mike,NA,NA,NA,html-keyboard-response,64,493113,0.0-26.0-0.0,anomymised,6560bfa89caa13ce6a65a5b5,6565e338ca33d9f0170519ae,51468,1A,woman,NA,null,M4 is being copied by M2,copy2,sentence,NA,NA,NA,NA
10288.89999999106,NA,NA,NA,NA,survey-likert-extra-labels,65,503403,0.0-26.0-2.0,anomymised,6560bfa89caa13ce6a65a5b5,6565e338ca33d9f0170519ae,51468,1A,woman,NA,NA,M4 is being copied by M2,copy2,rating_volition,"{""Q0"":1}",[0],M2 wanted to copy M4,M4 wanted to copy M2
7962.20000000298,NA,NA,NA,NA,survey-likert-extra-labels,66,511367,0.0-26.0-3.0-0.0,anomymised,6560bfa89caa13ce6a65a5b5,6565e338ca33d9f0170519ae,51468,1A,woman,NA,NA,M4 is being copied by M2,copy2,rating_causation,"{""Q0"":3}",[0],M2 started copying M4 first,M4 started copying M2 first
null,Luke is being shouted at by Fred,NA,NA,NA,html-keyboard-response,67,513372,0.0-27.0-0.0,anomymised,6560bfa89caa13ce6a65a5b5,6565e338ca33d9f0170519ae,51468,1A,woman,NA,null,M1 is being shouted at by M3,shout2,sentence,NA,NA,NA,NA
6525.20000000298,NA,NA,NA,NA,survey-likert-extra-labels,68,519898,0.0-27.0-2.0,anomymised,6560bfa89caa13ce6a65a5b5,6565e338ca33d9f0170519ae,51468,1A,woman,NA,NA,M1 is being shouted at by M3,shout2,rating_volition,"{""Q0"":4}",[0],M1 wanted to shout at M3,M3 wanted to shout at M1
5010.70000000298,NA,NA,NA,NA,survey-likert-extra-labels,69,524910,0.0-27.0-3.0-0.0,anomymised,6560bfa89caa13ce6a65a5b5,6565e338ca33d9f0170519ae,51468,1A,woman,NA,NA,M1 is being shouted at by M3,shout2,rating_causation,"{""Q0"":3}",[0],M1 shouted at M3 first,M3 shouted at M1 first
null,Luke is being greeted by Kate,NA,NA,NA,html-keyboard-response,70,526913,0.0-28.0-0.0,anomymised,6560bfa89caa13ce6a65a5b5,6565e338ca33d9f0170519ae,51468,1A,woman,NA,null,M1 is being greeted by W3,greet4,sentence,NA,NA,NA,NA
7041.800000011921,NA,NA,NA,NA,survey-likert-extra-labels,71,533956,0.0-28.0-2.0,anomymised,6560bfa89caa13ce6a65a5b5,6565e338ca33d9f0170519ae,51468,1A,woman,NA,NA,M1 is being greeted by W3,greet4,rating_volition,"{""Q0"":2}",[0],W3 wanted to greet M1,M1 wanted to greet W3
6945.9000000059605,NA,NA,NA,NA,survey-likert-extra-labels,72,540903,0.0-28.0-3.0-0.0,anomymised,6560bfa89caa13ce6a65a5b5,6565e338ca33d9f0170519ae,51468,1A,woman,NA,NA,M1 is being greeted by W3,greet4,rating_causation,"{""Q0"":2}",[0],W3 started greeting M1 first,M1 started greeting W3 first
null,Ruth is being hugged by Kate,NA,NA,NA,html-keyboard-response,73,542906,0.0-29.0-0.0,anomymised,6560bfa89caa13ce6a65a5b5,6565e338ca33d9f0170519ae,51468,1A,woman,NA,null,W1 is being hugged by W3,hug1,sentence,NA,NA,NA,NA
9055.29999999702,NA,NA,NA,NA,survey-likert-extra-labels,74,551962,0.0-29.0-1.0-0.0,anomymised,6560bfa89caa13ce6a65a5b5,6565e338ca33d9f0170519ae,51468,1A,woman,NA,NA,W1 is being hugged by W3,hug1,rating_causation,"{""Q0"":3}",[0],W1 asked to hug W3,W3 asked to hug W1
8872.60000000894,NA,NA,NA,NA,survey-likert-extra-labels,75,560836,0.0-29.0-2.0,anomymised,6560bfa89caa13ce6a65a5b5,6565e338ca33d9f0170519ae,51468,1A,woman,NA,NA,W1 is being hugged by W3,hug1,rating_volition,"{""Q0"":3}",[0],W1 wanted to hug W3,W3 wanted to hug W1
null,Jane is being touched by Beth,NA,NA,NA,html-keyboard-response,76,562841,0.0-30.0-0.0,anomymised,6560bfa89caa13ce6a65a5b5,6565e338ca33d9f0170519ae,51468,1A,woman,NA,null,W2 is being touched by W4,touch1,sentence,NA,NA,NA,NA
7232.9000000059605,NA,NA,NA,NA,survey-likert-extra-labels,77,570075,0.0-30.0-2.0,anomymised,6560bfa89caa13ce6a65a5b5,6565e338ca33d9f0170519ae,51468,1A,woman,NA,NA,W2 is being touched by W4,touch1,rating_volition,"{""Q0"":3}",[0],W2 wanted to touch W4,W4 wanted to touch W2
7879.100000008941,NA,NA,NA,NA,survey-likert-extra-labels,78,577956,0.0-30.0-3.0-0.0,anomymised,6560bfa89caa13ce6a65a5b5,6565e338ca33d9f0170519ae,51468,1A,woman,NA,NA,W2 is being touched by W4,touch1,rating_causation,"{""Q0"":3}",[0],W2 asked to touch W4,W4 asked to touch W2
null,Jane is being shouted at by Dave,NA,NA,NA,html-keyboard-response,79,579957,0.0-31.0-0.0,anomymised,6560bfa89caa13ce6a65a5b5,6565e338ca33d9f0170519ae,51468,1A,woman,NA,null,W2 is being shouted at by M4,shout4,sentence,NA,NA,NA,NA
17952.5,NA,NA,NA,NA,survey-likert-extra-labels,80,597910,0.0-31.0-1.0-0.0,anomymised,6560bfa89caa13ce6a65a5b5,6565e338ca33d9f0170519ae,51468,1A,woman,NA,NA,W2 is being shouted at by M4,shout4,rating_causation,"{""Q0"":4}",[0],W2 shouted at M4 first,M4 shouted at W2 first
5968.70000000298,NA,NA,NA,NA,survey-likert-extra-labels,81,603880,0.0-31.0-2.0,anomymised,6560bfa89caa13ce6a65a5b5,6565e338ca33d9f0170519ae,51468,1A,woman,NA,NA,W2 is being shouted at by M4,shout4,rating_volition,"{""Q0"":3}",[0],W2 wanted to shout at M4,M4 wanted to shout at W2
null,Dave is being kissed by Jane,NA,NA,NA,html-keyboard-response,82,605884,0.0-32.0-0.0,anomymised,6560bfa89caa13ce6a65a5b5,6565e338ca33d9f0170519ae,51468,1A,woman,NA,null,M4 is being kissed by W2,kiss4,sentence,NA,NA,NA,NA
10158.699999988079,NA,NA,NA,NA,survey-likert-extra-labels,83,616044,0.0-32.0-2.0,anomymised,6560bfa89caa13ce6a65a5b5,6565e338ca33d9f0170519ae,51468,1A,woman,NA,NA,M4 is being kissed by W2,kiss4,rating_volition,"{""Q0"":2}",[0],W2 wanted to kiss M4,M4 wanted to kiss W2
5212.20000000298,NA,NA,NA,NA,survey-likert-extra-labels,84,621258,0.0-32.0-3.0-0.0,anomymised,6560bfa89caa13ce6a65a5b5,6565e338ca33d9f0170519ae,51468,1A,woman,NA,NA,M4 is being kissed by W2,kiss4,rating_causation,"{""Q0"":2}",[0],W2 asked to kiss M4,M4 asked to kiss W2
null,Mike is being seduced by Dave,NA,NA,NA,html-keyboard-response,85,623264,0.0-33.0-0.0,anomymised,6560bfa89caa13ce6a65a5b5,6565e338ca33d9f0170519ae,51468,1A,woman,NA,null,M2 is being seduced by M4,seduce2,sentence,NA,NA,NA,NA
7510.600000008941,NA,NA,NA,NA,survey-likert-extra-labels,86,630776,0.0-33.0-2.0,anomymised,6560bfa89caa13ce6a65a5b5,6565e338ca33d9f0170519ae,51468,1A,woman,NA,NA,M2 is being seduced by M4,seduce2,rating_volition,"{""Q0"":5}",[0],M2 wanted to seduce M4,M4 wanted to seduce M2
10669.90000000596,NA,NA,NA,NA,survey-likert-extra-labels,87,641448,0.0-33.0-3.0-0.0,anomymised,6560bfa89caa13ce6a65a5b5,6565e338ca33d9f0170519ae,51468,1A,woman,NA,NA,M2 is being seduced by M4,seduce2,rating_causation,"{""Q0"":5}",[0],M2 started seducing M4 first,M4 started seducing M2 first
null,Jane is being challenged by Beth,NA,NA,NA,html-keyboard-response,88,643449,0.0-34.0-0.0,anomymised,6560bfa89caa13ce6a65a5b5,6565e338ca33d9f0170519ae,51468,1A,woman,NA,null,W2 is being challenged by W4,challenge1,sentence,NA,NA,NA,NA
7694.0999999940395,NA,NA,NA,NA,survey-likert-extra-labels,89,651144,0.0-34.0-2.0,anomymised,6560bfa89caa13ce6a65a5b5,6565e338ca33d9f0170519ae,51468,1A,woman,NA,NA,W2 is being challenged by W4,challenge1,rating_volition,"{""Q0"":4}",[0],W2 wanted to challenge W4,W4 wanted to challenge W2
9293,NA,NA,NA,NA,survey-likert-extra-labels,90,660439,0.0-34.0-3.0-0.0,anomymised,6560bfa89caa13ce6a65a5b5,6565e338ca33d9f0170519ae,51468,1A,woman,NA,NA,W2 is being challenged by W4,challenge1,rating_causation,"{""Q0"":4}",[0],W2 started challenging W4 first,W4 started challenging W2 first
null,Beth is being greeted by Jane,NA,NA,NA,html-keyboard-response,91,662440,0.0-35.0-0.0,anomymised,6560bfa89caa13ce6a65a5b5,6565e338ca33d9f0170519ae,51468,1A,woman,NA,null,W4 is being greeted by W2,greet1,sentence,NA,NA,NA,NA
19029.40000000596,NA,NA,NA,NA,survey-likert-extra-labels,92,681470,0.0-35.0-2.0,anomymised,6560bfa89caa13ce6a65a5b5,6565e338ca33d9f0170519ae,51468,1A,woman,NA,NA,W4 is being greeted by W2,greet1,rating_volition,"{""Q0"":2}",[0],W2 wanted to greet W4,W4 wanted to greet W2
3022,NA,NA,NA,NA,survey-likert-extra-labels,93,684494,0.0-35.0-3.0-0.0,anomymised,6560bfa89caa13ce6a65a5b5,6565e338ca33d9f0170519ae,51468,1A,woman,NA,NA,W4 is being greeted by W2,greet1,rating_causation,"{""Q0"":3}",[0],W2 started greeting W4 first,W4 started greeting W2 first
null,Mike is posing for Dave,NA,NA,NA,html-keyboard-response,94,686498,0.0-36.0-0.0,anomymised,6560bfa89caa13ce6a65a5b5,6565e338ca33d9f0170519ae,51468,1A,woman,NA,null,M2 is posing for M4,pose,sentence,NA,NA,NA,NA
8160.4000000059605,NA,NA,NA,NA,survey-likert-extra-labels,95,694660,0.0-36.0-1.0-0.0,anomymised,6560bfa89caa13ce6a65a5b5,6565e338ca33d9f0170519ae,51468,1A,woman,NA,NA,M2 is posing for M4,pose,rating_causation,"{""Q0"":2}",[0],M2 is photographing M4,M4 is photographing M2
8611.300000011921,NA,NA,NA,NA,survey-likert-extra-labels,96,703272,0.0-36.0-2.0,anomymised,6560bfa89caa13ce6a65a5b5,6565e338ca33d9f0170519ae,51468,1A,woman,NA,NA,M2 is posing for M4,pose,rating_volition,"{""Q0"":1}",[0],M2 is modelling for M4,M4 is modelling for M2
null,Luke is being copied by Kate,NA,NA,NA,html-keyboard-response,97,705275,0.0-37.0-0.0,anomymised,6560bfa89caa13ce6a65a5b5,6565e338ca33d9f0170519ae,51468,1A,woman,NA,null,M1 is being copied by W3,copy3,sentence,NA,NA,NA,NA
5803.199999988079,NA,NA,NA,NA,survey-likert-extra-labels,98,711080,0.0-37.0-1.0-0.0,anomymised,6560bfa89caa13ce6a65a5b5,6565e338ca33d9f0170519ae,51468,1A,woman,NA,NA,M1 is being copied by W3,copy3,rating_causation,"{""Q0"":2}",[0],W3 started copying M1 first,M1 started copying W3 first
5947.79999999702,NA,NA,NA,NA,survey-likert-extra-labels,99,717029,0.0-37.0-2.0,anomymised,6560bfa89caa13ce6a65a5b5,6565e338ca33d9f0170519ae,51468,1A,woman,NA,NA,M1 is being copied by W3,copy3,rating_volition,"{""Q0"":1}",[0],W3 wanted to copy M1,M1 wanted to copy W3
null,Jane is being opposed by Dave,NA,NA,NA,html-keyboard-response,100,719034,0.0-38.0-0.0,anomymised,6560bfa89caa13ce6a65a5b5,6565e338ca33d9f0170519ae,51468,1A,woman,NA,null,W2 is being opposed by M4,oppose3,sentence,NA,NA,NA,NA
6757.0999999940395,NA,NA,NA,NA,survey-likert-extra-labels,101,725791,0.0-38.0-2.0,anomymised,6560bfa89caa13ce6a65a5b5,6565e338ca33d9f0170519ae,51468,1A,woman,NA,NA,W2 is being opposed by M4,oppose3,rating_volition,"{""Q0"":4}",[0],W2 wanted to oppose M4,M4 wanted to oppose W2
4099.29999999702,NA,NA,NA,NA,survey-likert-extra-labels,102,729892,0.0-38.0-3.0-0.0,anomymised,6560bfa89caa13ce6a65a5b5,6565e338ca33d9f0170519ae,51468,1A,woman,NA,NA,W2 is being opposed by M4,oppose3,rating_causation,"{""Q0"":4}",[0],W2 started opposing M4,M4 started opposing W2
null,Ruth is being copied by Fred,NA,NA,NA,html-keyboard-response,103,731896,0.0-39.0-0.0,anomymised,6560bfa89caa13ce6a65a5b5,6565e338ca33d9f0170519ae,51468,1A,woman,NA,null,W1 is being copied by M3,copy4,sentence,NA,NA,NA,NA
10024.59999999404,NA,NA,NA,NA,survey-likert-extra-labels,104,741921,0.0-39.0-2.0,anomymised,6560bfa89caa13ce6a65a5b5,6565e338ca33d9f0170519ae,51468,1A,woman,NA,NA,W1 is being copied by M3,copy4,rating_volition,"{""Q0"":2}",[0],M3 wanted to copy W1,W1 wanted to copy M3
3787.1000000089407,NA,NA,NA,NA,survey-likert-extra-labels,105,745710,0.0-39.0-3.0-0.0,anomymised,6560bfa89caa13ce6a65a5b5,6565e338ca33d9f0170519ae,51468,1A,woman,NA,NA,W1 is being copied by M3,copy4,rating_causation,"{""Q0"":2}",[0],M3 started copying W1 first,W1 started copying M3 first
null,Ruth is being shouted at by Kate,NA,NA,NA,html-keyboard-response,106,747716,0.0-40.0-0.0,anomymised,6560bfa89caa13ce6a65a5b5,6565e338ca33d9f0170519ae,51468,1A,woman,NA,null,W1 is being shouted at by W3,shout1,sentence,NA,NA,NA,NA
5110.5999999940395,NA,NA,NA,NA,survey-likert-extra-labels,107,752828,0.0-40.0-2.0,anomymised,6560bfa89caa13ce6a65a5b5,6565e338ca33d9f0170519ae,51468,1A,woman,NA,NA,W1 is being shouted at by W3,shout1,rating_volition,"{""Q0"":3}",[0],W1 wanted to shout at W3,W3 wanted to shout at W1
5702.399999991059,NA,NA,NA,NA,survey-likert-extra-labels,108,758532,0.0-40.0-3.0-0.0,anomymised,6560bfa89caa13ce6a65a5b5,6565e338ca33d9f0170519ae,51468,1A,woman,NA,NA,W1 is being shouted at by W3,shout1,rating_causation,"{""Q0"":3}",[0],W1 shouted at W3 first,W3 shouted at W1 first
null,Kate is being kissed by Ruth,NA,NA,NA,html-keyboard-response,109,760536,0.0-41.0-0.0,anomymised,6560bfa89caa13ce6a65a5b5,6565e338ca33d9f0170519ae,51468,1A,woman,NA,null,W3 is being kissed by W1,kiss1,sentence,NA,NA,NA,NA
4992.600000008941,NA,NA,NA,NA,survey-likert-extra-labels,110,765529,0.0-41.0-2.0,anomymised,6560bfa89caa13ce6a65a5b5,6565e338ca33d9f0170519ae,51468,1A,woman,NA,NA,W3 is being kissed by W1,kiss1,rating_volition,"{""Q0"":2}",[0],W1 wanted to kiss W3,W3 wanted to kiss W1
3481.5,NA,NA,NA,NA,survey-likert-extra-labels,111,769012,0.0-41.0-3.0-0.0,anomymised,6560bfa89caa13ce6a65a5b5,6565e338ca33d9f0170519ae,51468,1A,woman,NA,NA,W3 is being kissed by W1,kiss1,rating_causation,"{""Q0"":3}",[0],W1 asked to kiss W3,W3 asked to kiss W1
null,Kate is being touched by Luke,NA,NA,NA,html-keyboard-response,112,771016,0.0-42.0-0.0,anomymised,6560bfa89caa13ce6a65a5b5,6565e338ca33d9f0170519ae,51468,1A,woman,NA,null,W3 is being touched by M1,touch3,sentence,NA,NA,NA,NA
11037.60000000894,NA,NA,NA,NA,survey-likert-extra-labels,113,782054,0.0-42.0-2.0,anomymised,6560bfa89caa13ce6a65a5b5,6565e338ca33d9f0170519ae,51468,1A,woman,NA,NA,W3 is being touched by M1,touch3,rating_volition,"{""Q0"":4}",[0],W3 wanted to touch M1,M1 wanted to touch W3
7545.100000008941,NA,NA,NA,NA,survey-likert-extra-labels,114,789601,0.0-42.0-3.0-0.0,anomymised,6560bfa89caa13ce6a65a5b5,6565e338ca33d9f0170519ae,51468,1A,woman,NA,NA,W3 is being touched by M1,touch3,rating_causation,"{""Q0"":3}",[0],W3 asked to touch M1,M1 asked to touch W3
null,Jane is teaching Dave,NA,NA,NA,html-keyboard-response,115,791606,0.0-43.0-0.0,anomymised,6560bfa89caa13ce6a65a5b5,6565e338ca33d9f0170519ae,51468,1A,woman,NA,null,W2 is teaching M4,teach,sentence,NA,NA,NA,NA
5614.9000000059605,NA,NA,NA,NA,survey-likert-extra-labels,116,797222,0.0-43.0-2.0,anomymised,6560bfa89caa13ce6a65a5b5,6565e338ca33d9f0170519ae,51468,1A,woman,NA,NA,W2 is teaching M4,teach,rating_volition,"{""Q0"":0}",[0],W2 is educating M4,M4 is educating W2
4668.100000008941,NA,NA,NA,NA,survey-likert-extra-labels,117,801891,0.0-43.0-3.0-0.0,anomymised,6560bfa89caa13ce6a65a5b5,6565e338ca33d9f0170519ae,51468,1A,woman,NA,NA,W2 is teaching M4,teach,rating_causation,"{""Q0"":6}",[0],W2 is learning from M4,M4 is learning from W2
null,Jane is being hugged by Dave,NA,NA,NA,html-keyboard-response,118,803897,0.0-44.0-0.0,anomymised,6560bfa89caa13ce6a65a5b5,6565e338ca33d9f0170519ae,51468,1A,woman,NA,null,W2 is being hugged by M4,hug3,sentence,NA,NA,NA,NA
6218.70000000298,NA,NA,NA,NA,survey-likert-extra-labels,119,810118,0.0-44.0-1.0-0.0,anomymised,6560bfa89caa13ce6a65a5b5,6565e338ca33d9f0170519ae,51468,1A,woman,NA,NA,W2 is being hugged by M4,hug3,rating_causation,"{""Q0"":4}",[0],W2 asked to hug M4,M4 asked to hug W2
4422.20000000298,NA,NA,NA,NA,survey-likert-extra-labels,120,814541,0.0-44.0-2.0,anomymised,6560bfa89caa13ce6a65a5b5,6565e338ca33d9f0170519ae,51468,1A,woman,NA,NA,W2 is being hugged by M4,hug3,rating_volition,"{""Q0"":3}",[0],W2 wanted to hug M4,M4 wanted to hug W2
null,Ruth is being opposed by Kate,NA,NA,NA,html-keyboard-response,121,816547,0.0-45.0-0.0,anomymised,6560bfa89caa13ce6a65a5b5,6565e338ca33d9f0170519ae,51468,1A,woman,NA,null,W1 is being opposed by W3,oppose1,sentence,NA,NA,NA,NA
5128.9000000059605,NA,NA,NA,NA,survey-likert-extra-labels,122,821676,0.0-45.0-1.0-0.0,anomymised,6560bfa89caa13ce6a65a5b5,6565e338ca33d9f0170519ae,51468,1A,woman,NA,NA,W1 is being opposed by W3,oppose1,rating_causation,"{""Q0"":2}",[0],W1 started opposing W3,W3 started opposing W1
9224.800000011921,NA,NA,NA,NA,survey-likert-extra-labels,123,830903,0.0-45.0-2.0,anomymised,6560bfa89caa13ce6a65a5b5,6565e338ca33d9f0170519ae,51468,1A,woman,NA,NA,W1 is being opposed by W3,oppose1,rating_volition,"{""Q0"":2}",[0],W1 wanted to oppose W3,W3 wanted to oppose W1
null,Mike is being shouted at by Beth,NA,NA,NA,html-keyboard-response,124,832906,0.0-46.0-0.0,anomymised,6560bfa89caa13ce6a65a5b5,6565e338ca33d9f0170519ae,51468,1A,woman,NA,null,M2 is being shouted at by W4,shout3,sentence,NA,NA,NA,NA
7431.79999999702,NA,NA,NA,NA,survey-likert-extra-labels,125,840339,0.0-46.0-2.0,anomymised,6560bfa89caa13ce6a65a5b5,6565e338ca33d9f0170519ae,51468,1A,woman,NA,NA,M2 is being shouted at by W4,shout3,rating_volition,"{""Q0"":3}",[0],M2 wanted to shout at W4,W4 wanted to shout at M2
7623.20000000298,NA,NA,NA,NA,survey-likert-extra-labels,126,847964,0.0-46.0-3.0-0.0,anomymised,6560bfa89caa13ce6a65a5b5,6565e338ca33d9f0170519ae,51468,1A,woman,NA,NA,M2 is being shouted at by W4,shout3,rating_causation,"{""Q0"":4}",[0],M2 shouted at W4 first,W4 shouted at M2 first
null,Mike is being opposed by Beth,NA,NA,NA,html-keyboard-response,127,849966,0.0-47.0-0.0,anomymised,6560bfa89caa13ce6a65a5b5,6565e338ca33d9f0170519ae,51468,1A,woman,NA,null,M2 is being opposed by W4,oppose4,sentence,NA,NA,NA,NA
5472.0999999940395,NA,NA,NA,NA,survey-likert-extra-labels,128,855439,0.0-47.0-1.0-0.0,anomymised,6560bfa89caa13ce6a65a5b5,6565e338ca33d9f0170519ae,51468,1A,woman,NA,NA,M2 is being opposed by W4,oppose4,rating_causation,"{""Q0"":4}",[0],M2 started opposing W4,W4 started opposing M2
3866.2999999970198,NA,NA,NA,NA,survey-likert-extra-labels,129,859307,0.0-47.0-2.0,anomymised,6560bfa89caa13ce6a65a5b5,6565e338ca33d9f0170519ae,51468,1A,woman,NA,NA,M2 is being opposed by W4,oppose4,rating_volition,"{""Q0"":2}",[0],M2 wanted to oppose W4,W4 wanted to oppose M2
null,Fred is being seduced by Ruth,NA,NA,NA,html-keyboard-response,130,861310,0.0-48.0-0.0,anomymised,6560bfa89caa13ce6a65a5b5,6565e338ca33d9f0170519ae,51468,1A,woman,NA,null,M3 is being seduced by W1,seduce4,sentence,NA,NA,NA,NA
15930.39999999106,NA,NA,NA,NA,survey-likert-extra-labels,131,877242,0.0-48.0-2.0,anomymised,6560bfa89caa13ce6a65a5b5,6565e338ca33d9f0170519ae,51468,1A,woman,NA,NA,M3 is being seduced by W1,seduce4,rating_volition,"{""Q0"":2}",[0],M3 wanted to seducing W1,W1 wanted to seducing M3
13445.09999999404,NA,NA,NA,NA,survey-likert-extra-labels,132,890688,0.0-48.0-3.0-0.0,anomymised,6560bfa89caa13ce6a65a5b5,6565e338ca33d9f0170519ae,51468,1A,woman,NA,NA,M3 is being seduced by W1,seduce4,rating_causation,"{""Q0"":4}",[0],M3 started seducing W1 first,W1 started seducing M3 first
null,Beth is being looked at by Mike,NA,NA,NA,html-keyboard-response,133,892692,0.0-49.0-0.0,anomymised,6560bfa89caa13ce6a65a5b5,6565e338ca33d9f0170519ae,51468,1A,woman,NA,null,W4 is being looked at by M2,look4,sentence,NA,NA,NA,NA
28349.90000000596,NA,NA,NA,NA,survey-likert-extra-labels,134,921043,0.0-49.0-2.0,anomymised,6560bfa89caa13ce6a65a5b5,6565e338ca33d9f0170519ae,51468,1A,woman,NA,NA,W4 is being looked at by M2,look4,rating_volition,"{""Q0"":1}",[0],M2 wanted to look at W4,W4 wanted to look at M2
11830.699999988079,NA,NA,NA,NA,survey-likert-extra-labels,135,932875,0.0-49.0-3.0-0.0,anomymised,6560bfa89caa13ce6a65a5b5,6565e338ca33d9f0170519ae,51468,1A,woman,NA,NA,W4 is being looked at by M2,look4,rating_causation,"{""Q0"":2}",[0],M2 looked at W4 first,W4 looked at M2 first
null,Mike is being hugged by Beth,NA,NA,NA,html-keyboard-response,136,934877,0.0-50.0-0.0,anomymised,6560bfa89caa13ce6a65a5b5,6565e338ca33d9f0170519ae,51468,1A,woman,NA,null,M2 is being hugged by W4,hug4,sentence,NA,NA,NA,NA
6748.70000000298,NA,NA,NA,NA,survey-likert-extra-labels,137,941627,0.0-50.0-1.0-0.0,anomymised,6560bfa89caa13ce6a65a5b5,6565e338ca33d9f0170519ae,51468,1A,woman,NA,NA,M2 is being hugged by W4,hug4,rating_causation,"{""Q0"":4}",[0],M2 asked to hug W4,W4 asked to hug M2
5997.800000011921,NA,NA,NA,NA,survey-likert-extra-labels,138,947626,0.0-50.0-2.0,anomymised,6560bfa89caa13ce6a65a5b5,6565e338ca33d9f0170519ae,51468,1A,woman,NA,NA,M2 is being hugged by W4,hug4,rating_volition,"{""Q0"":4}",[0],M2 wanted to hug W4,W4 wanted to hug M2
null,Kate is being challenged by Luke,NA,NA,NA,html-keyboard-response,139,949628,0.0-51.0-0.0,anomymised,6560bfa89caa13ce6a65a5b5,6565e338ca33d9f0170519ae,51468,1A,woman,NA,null,W3 is being challenged by M1,challenge4,sentence,NA,NA,NA,NA
6922,NA,NA,NA,NA,survey-likert-extra-labels,140,956551,0.0-51.0-1.0-0.0,anomymised,6560bfa89caa13ce6a65a5b5,6565e338ca33d9f0170519ae,51468,1A,woman,NA,NA,W3 is being challenged by M1,challenge4,rating_causation,"{""Q0"":4}",[0],W3 started challenging M1 first,M1 started challenging W3 first
6064.29999999702,NA,NA,NA,NA,survey-likert-extra-labels,141,962616,0.0-51.0-2.0,anomymised,6560bfa89caa13ce6a65a5b5,6565e338ca33d9f0170519ae,51468,1A,woman,NA,NA,W3 is being challenged by M1,challenge4,rating_volition,"{""Q0"":2}",[0],W3 wanted to challenge M1,M1 wanted to challenge W3
null,Jane is carrying Beth,NA,NA,NA,html-keyboard-response,142,955632,0.0-52.0-0.0,anomymised,6560bfa89caa13ce6a65a5b5,6565e338ca33d9f0170519ae,51468,1A,woman,NA,null,W2 is carrying W4,carry,sentence,NA,NA,NA,NA
7089.600000008941,NA,NA,NA,NA,survey-likert-extra-labels,143,962722,0.0-52.0-2.0,anomymised,6560bfa89caa13ce6a65a5b5,6565e338ca33d9f0170519ae,51468,1A,woman,NA,NA,W2 is carrying W4,carry,rating_volition,"{""Q0"":0}",[0],W2 is transporting W4,W4 is transporting W2
5666.29999999702,NA,NA,NA,NA,survey-likert-extra-labels,144,968389,0.0-52.0-3.0-0.0,anomymised,6560bfa89caa13ce6a65a5b5,6565e338ca33d9f0170519ae,51468,1A,woman,NA,NA,W2 is carrying W4,carry,rating_causation,"{""Q0"":0}",[0],W2 is being moved by W4,W4 is being moved by W2
null,Kate is feeding Luke,NA,NA,NA,html-keyboard-response,145,970394,0.0-53.0-0.0,anomymised,6560bfa89caa13ce6a65a5b5,6565e338ca33d9f0170519ae,51468,1A,woman,NA,null,W3 is feeding M1,feed,sentence,NA,NA,NA,NA
8344.90000000596,NA,NA,NA,NA,survey-likert-extra-labels,146,978739,0.0-53.0-1.0-0.0,anomymised,6560bfa89caa13ce6a65a5b5,6565e338ca33d9f0170519ae,51468,1A,woman,NA,NA,W3 is feeding M1,feed,rating_causation,"{""Q0"":3}",[0],W3 is eating M1's food,M1 is eating W3's food
5405.199999988079,NA,NA,NA,NA,survey-likert-extra-labels,147,984146,0.0-53.0-2.0,anomymised,6560bfa89caa13ce6a65a5b5,6565e338ca33d9f0170519ae,51468,1A,woman,NA,NA,W3 is feeding M1,feed,rating_volition,"{""Q0"":2}",[0],W3 cooked for M1,M1 cooked for W3
null,Mike is being challenged by Dave,NA,NA,NA,html-keyboard-response,148,986148,0.0-54.0-0.0,anomymised,6560bfa89caa13ce6a65a5b5,6565e338ca33d9f0170519ae,51468,1A,woman,NA,null,M2 is being challenged by M4,challenge2,sentence,NA,NA,NA,NA
10944.300000011921,NA,NA,NA,NA,survey-likert-extra-labels,149,997093,0.0-54.0-2.0,anomymised,6560bfa89caa13ce6a65a5b5,6565e338ca33d9f0170519ae,51468,1A,woman,NA,NA,M2 is being challenged by M4,challenge2,rating_volition,"{""Q0"":4}",[0],M2 wanted to challenge M4,M4 wanted to challenge M2
4446.800000011921,NA,NA,NA,NA,survey-likert-extra-labels,150,1001541,0.0-54.0-3.0-0.0,anomymised,6560bfa89caa13ce6a65a5b5,6565e338ca33d9f0170519ae,51468,1A,woman,NA,NA,M2 is being challenged by M4,challenge2,rating_causation,"{""Q0"":3}",[0],M2 started challenging M4 first,M4 started challenging M2 first
2866.5,<p>Thank you for completing that task.</p><p>The final part of this session is a short questionnaire.</p><p>Press Continue.</p>,0,Continue,Continue,html-button-response,151,1004409,0.0-55.0,anomymised,6560bfa89caa13ce6a65a5b5,6565e338ca33d9f0170519ae,51468,1A,woman,NA,NA,NA,NA,NA,NA,NA,NA,NA
39450.60000000894,NA,NA,NA,NA,survey-text,152,1044863,0.0-56.0,anomymised,6560bfa89caa13ce6a65a5b5,6565e338ca33d9f0170519ae,51468,1A,woman,NA,NA,NA,NA,demographics,"{""Q0"":""36"",""Q1"":""English"",""Q2"":""English"",""Q3"":""Scotland"",""Q4"":""British"",""Q5"":""white"",""Q6"":""Female""}",NA,NA,NA
4976.79999999702,<p>This is the last question - thank you for taking part! Have you lived in the UK for the last 5 years or more?</p>,0,"Yes,No",Yes,html-button-response,153,1049841,0.0-57.0,anomymised,6560bfa89caa13ce6a65a5b5,6565e338ca33d9f0170519ae,51468,1A,woman,NA,NA,NA,NA,fiveyears,NA,NA,NA,NA
