rt,stimulus,button_pressed,choices,ChosenStimulus,trial_type,trial_index,time_elapsed,internal_node_id,subject_id,study_id,session_id,subject,list,ppt_gender,url,key_press,sentence_type,verb,test_part,responses,question_order,left_part,right_part
1982,Welcome to the experiment. Press Continue to begin.,0,Continue,Continue,html-button-response,0,1984,0.0-0.0,anomymised,656582028f794bf1617e53e2,65673917bf6d3d9b358affcd,52974,1,man,NA,NA,NA,NA,NA,NA,NA,NA,NA
26357,NA,NA,NA,NA,external-html,1,29570,0.0-1.0,anomymised,656582028f794bf1617e53e2,65673917bf6d3d9b358affcd,52974,1,man,consent.html,NA,NA,NA,NA,NA,NA,NA,NA
6748,"<p>Welcome.</p><p>In this experiment we will ask you to imagine some situations.</p><p>Each trial starts with a description of an event.</p><p>Then you will see alternative descriptions of that event, and you will rate on a scale how best they match the original description.</p><p>You will give your answer by clicking a button on a rating scale.</p><p>To do this task, you will have to use your imagination to visualise these events.</p><br><p>Ready?</p>",0,Continue,Continue,html-button-response,2,36321,0.0-2.0,anomymised,656582028f794bf1617e53e2,65673917bf6d3d9b358affcd,52974,1,man,NA,NA,NA,NA,NA,NA,NA,NA,NA
1676,"<p>Before the experiment starts, you will watch an example trial. Press 'Continue'.</p>",0,Continue,Continue,html-button-response,3,39013,0.0-3.0,anomymised,656582028f794bf1617e53e2,65673917bf6d3d9b358affcd,52974,1,man,NA,NA,NA,NA,NA,NA,NA,NA,NA
null,The police officer is arresting the robber,NA,NA,NA,html-keyboard-response,4,42023,0.0-4.0,anomymised,656582028f794bf1617e53e2,65673917bf6d3d9b358affcd,52974,1,man,NA,null,NA,NA,NA,NA,NA,NA,NA
11087,<img src='img/Example-trial.jpg' style='height:550px;''></img>,0,Continue,Continue,html-button-response,5,53112,0.0-5.0,anomymised,656582028f794bf1617e53e2,65673917bf6d3d9b358affcd,52974,1,man,NA,NA,NA,NA,NA,NA,NA,NA,NA
1650,<p>Ready to start the experiment?</p><br><p><strong>Remember to give an answer by clicking a button on the rating scale.</strong></p><p>Press 'Continue' to begin.</p>,0,Continue,Continue,html-button-response,6,55773,0.0-6.0,anomymised,656582028f794bf1617e53e2,65673917bf6d3d9b358affcd,52974,1,man,NA,NA,NA,NA,NA,NA,NA,NA,NA
null,Ruth is being kissed by Kate,NA,NA,NA,html-keyboard-response,7,58787,0.0-7.0-0.0,anomymised,656582028f794bf1617e53e2,65673917bf6d3d9b358affcd,52974,1,man,NA,null,W1 is being kissed by W3,kiss1,sentence,NA,NA,NA,NA
11048,NA,NA,NA,NA,survey-likert-extra-labels,8,69838,0.0-7.0-1.0-0.0,anomymised,656582028f794bf1617e53e2,65673917bf6d3d9b358affcd,52974,1,man,NA,NA,W1 is being kissed by W3,kiss1,rating_causation,"{""Q0"":1}",[0],W3 asked to kiss W1,W1 asked to kiss W3
5682,NA,NA,NA,NA,survey-likert-extra-labels,9,75523,0.0-7.0-2.0,anomymised,656582028f794bf1617e53e2,65673917bf6d3d9b358affcd,52974,1,man,NA,NA,W1 is being kissed by W3,kiss1,rating_volition,"{""Q0"":0}",[0],W3 wanted to kiss W1,W1 wanted to kiss W3
null,Luke is being touched by Kate,NA,NA,NA,html-keyboard-response,10,77531,0.0-8.0-0.0,anomymised,656582028f794bf1617e53e2,65673917bf6d3d9b358affcd,52974,1,man,NA,null,M1 is being touched by W3,touch3,sentence,NA,NA,NA,NA
10491,NA,NA,NA,NA,survey-likert-extra-labels,11,88024,0.0-8.0-1.0-0.0,anomymised,656582028f794bf1617e53e2,65673917bf6d3d9b358affcd,52974,1,man,NA,NA,M1 is being touched by W3,touch3,rating_causation,"{""Q0"":5}",[0],M1 asked to touch W3,W3 asked to touch M1
4359,NA,NA,NA,NA,survey-likert-extra-labels,12,92387,0.0-8.0-2.0,anomymised,656582028f794bf1617e53e2,65673917bf6d3d9b358affcd,52974,1,man,NA,NA,M1 is being touched by W3,touch3,rating_volition,"{""Q0"":6}",[0],M1 wanted to touch W3,W3 wanted to touch M1
null,Fred is being hugged by Luke,NA,NA,NA,html-keyboard-response,13,94394,0.0-9.0-0.0,anomymised,656582028f794bf1617e53e2,65673917bf6d3d9b358affcd,52974,1,man,NA,null,M3 is being hugged by M1,hug2,sentence,NA,NA,NA,NA
1513825,NA,NA,NA,NA,survey-likert-extra-labels,14,1608215,0.0-9.0-1.0-0.0,anomymised,656582028f794bf1617e53e2,65673917bf6d3d9b358affcd,52974,1,man,NA,NA,M3 is being hugged by M1,hug2,rating_causation,"{""Q0"":5}",[0],M3 asked to hug M1,M1 asked to hug M3
5599,NA,NA,NA,NA,survey-likert-extra-labels,15,1613816,0.0-9.0-2.0,anomymised,656582028f794bf1617e53e2,65673917bf6d3d9b358affcd,52974,1,man,NA,NA,M3 is being hugged by M1,hug2,rating_volition,"{""Q0"":6}",[0],M3 wanted to hug M1,M1 wanted to hug M3
null,Kate is being opposed by Ruth,NA,NA,NA,html-keyboard-response,16,1615821,0.0-10.0-0.0,anomymised,656582028f794bf1617e53e2,65673917bf6d3d9b358affcd,52974,1,man,NA,null,W3 is being opposed by W1,oppose1,sentence,NA,NA,NA,NA
7162,NA,NA,NA,NA,survey-likert-extra-labels,17,1622985,0.0-10.0-2.0,anomymised,656582028f794bf1617e53e2,65673917bf6d3d9b358affcd,52974,1,man,NA,NA,W3 is being opposed by W1,oppose1,rating_volition,"{""Q0"":6}",[0],W3 wanted to oppose W1,W1 wanted to oppose W3
5175,NA,NA,NA,NA,survey-likert-extra-labels,18,1628163,0.0-10.0-3.0-0.0,anomymised,656582028f794bf1617e53e2,65673917bf6d3d9b358affcd,52974,1,man,NA,NA,W3 is being opposed by W1,oppose1,rating_causation,"{""Q0"":6}",[0],W3 started opposing W1,W1 started opposing W3
null,Luke is driving Fred,NA,NA,NA,html-keyboard-response,19,1630170,0.0-11.0-0.0,anomymised,656582028f794bf1617e53e2,65673917bf6d3d9b358affcd,52974,1,man,NA,null,M1 is driving M3,drive,sentence,NA,NA,NA,NA
7150,NA,NA,NA,NA,survey-likert-extra-labels,20,1637322,0.0-11.0-2.0,anomymised,656582028f794bf1617e53e2,65673917bf6d3d9b358affcd,52974,1,man,NA,NA,M1 is driving M3,drive,rating_volition,"{""Q0"":6}",[0],M1 is M3's passenger,M3 is M1's passenger
7013,NA,NA,NA,NA,survey-likert-extra-labels,21,1644338,0.0-11.0-3.0-0.0,anomymised,656582028f794bf1617e53e2,65673917bf6d3d9b358affcd,52974,1,man,NA,NA,M1 is driving M3,drive,rating_causation,"{""Q0"":0}",[0],M1 is taking M3 somewhere,M3 is taking M1 somewhere
null,Beth is being seduced by Jane,NA,NA,NA,html-keyboard-response,22,1646346,0.0-12.0-0.0,anomymised,656582028f794bf1617e53e2,65673917bf6d3d9b358affcd,52974,1,man,NA,null,W4 is being seduced by W2,seduce1,sentence,NA,NA,NA,NA
14151,NA,NA,NA,NA,survey-likert-extra-labels,23,1660498,0.0-12.0-2.0,anomymised,656582028f794bf1617e53e2,65673917bf6d3d9b358affcd,52974,1,man,NA,NA,W4 is being seduced by W2,seduce1,rating_volition,"{""Q0"":6}",[0],W4 wanted to seduce W2,W2 wanted to seduce W4
10732,NA,NA,NA,NA,survey-likert-extra-labels,24,1671239,0.0-12.0-3.0-0.0,anomymised,656582028f794bf1617e53e2,65673917bf6d3d9b358affcd,52974,1,man,NA,NA,W4 is being seduced by W2,seduce1,rating_causation,"{""Q0"":6}",[0],W4 started seducing W2 first,W2 started seducing W4 first
null,Beth is being shouted at by Mike,NA,NA,NA,html-keyboard-response,25,1673253,0.0-13.0-0.0,anomymised,656582028f794bf1617e53e2,65673917bf6d3d9b358affcd,52974,1,man,NA,null,W4 is being shouted at by M2,shout3,sentence,NA,NA,NA,NA
7782,NA,NA,NA,NA,survey-likert-extra-labels,26,1681036,0.0-13.0-1.0-0.0,anomymised,656582028f794bf1617e53e2,65673917bf6d3d9b358affcd,52974,1,man,NA,NA,W4 is being shouted at by M2,shout3,rating_causation,"{""Q0"":4}",[0],W4 shouted at M2 first,M2 shouted at W4 first
5482,NA,NA,NA,NA,survey-likert-extra-labels,27,1686520,0.0-13.0-2.0,anomymised,656582028f794bf1617e53e2,65673917bf6d3d9b358affcd,52974,1,man,NA,NA,W4 is being shouted at by M2,shout3,rating_volition,"{""Q0"":6}",[0],W4 wanted to shout at M2,M2 wanted to shout at W4
null,Luke is being seduced by Kate,NA,NA,NA,html-keyboard-response,28,1688532,0.0-14.0-0.0,anomymised,656582028f794bf1617e53e2,65673917bf6d3d9b358affcd,52974,1,man,NA,null,M1 is being seduced by W3,seduce3,sentence,NA,NA,NA,NA
12604,NA,NA,NA,NA,survey-likert-extra-labels,29,1701137,0.0-14.0-1.0-0.0,anomymised,656582028f794bf1617e53e2,65673917bf6d3d9b358affcd,52974,1,man,NA,NA,M1 is being seduced by W3,seduce3,rating_causation,"{""Q0"":5}",[0],M1 started seducing W3 first,W3 started seducing M1 first
5074,NA,NA,NA,NA,survey-likert-extra-labels,30,1706214,0.0-14.0-2.0,anomymised,656582028f794bf1617e53e2,65673917bf6d3d9b358affcd,52974,1,man,NA,NA,M1 is being seduced by W3,seduce3,rating_volition,"{""Q0"":6}",[0],M1 wanted to seduce W3,W3 wanted to seduce M1
null,Luke is being looked at by Fred,NA,NA,NA,html-keyboard-response,31,1708224,0.0-15.0-0.0,anomymised,656582028f794bf1617e53e2,65673917bf6d3d9b358affcd,52974,1,man,NA,null,M1 is being looked at by M3,look2,sentence,NA,NA,NA,NA
52625,NA,NA,NA,NA,survey-likert-extra-labels,32,1760850,0.0-15.0-2.0,anomymised,656582028f794bf1617e53e2,65673917bf6d3d9b358affcd,52974,1,man,NA,NA,M1 is being looked at by M3,look2,rating_volition,"{""Q0"":0}",[0],M3 wanted to look at M1,M1 wanted to look at M3
5111,NA,NA,NA,NA,survey-likert-extra-labels,33,1765963,0.0-15.0-3.0-0.0,anomymised,656582028f794bf1617e53e2,65673917bf6d3d9b358affcd,52974,1,man,NA,NA,M1 is being looked at by M3,look2,rating_causation,"{""Q0"":3}",[0],M3 looked at M1 first,M1 looked at M3 first
null,Beth is being hugged by Mike,NA,NA,NA,html-keyboard-response,34,1767966,0.0-16.0-0.0,anomymised,656582028f794bf1617e53e2,65673917bf6d3d9b358affcd,52974,1,man,NA,null,W4 is being hugged by M2,hug4,sentence,NA,NA,NA,NA
4616,NA,NA,NA,NA,survey-likert-extra-labels,35,1772583,0.0-16.0-2.0,anomymised,656582028f794bf1617e53e2,65673917bf6d3d9b358affcd,52974,1,man,NA,NA,W4 is being hugged by M2,hug4,rating_volition,"{""Q0"":6}",[0],W4 wanted to hug M2,M2 wanted to hug W4
3692,NA,NA,NA,NA,survey-likert-extra-labels,36,1776277,0.0-16.0-3.0-0.0,anomymised,656582028f794bf1617e53e2,65673917bf6d3d9b358affcd,52974,1,man,NA,NA,W4 is being hugged by M2,hug4,rating_causation,"{""Q0"":3}",[0],W4 asked to hug M2,M2 asked to hug W4
null,Luke is being kissed by Fred,NA,NA,NA,html-keyboard-response,37,1778285,0.0-17.0-0.0,anomymised,656582028f794bf1617e53e2,65673917bf6d3d9b358affcd,52974,1,man,NA,null,M1 is being kissed by M3,kiss2,sentence,NA,NA,NA,NA
4373,NA,NA,NA,NA,survey-likert-extra-labels,38,1782660,0.0-17.0-1.0-0.0,anomymised,656582028f794bf1617e53e2,65673917bf6d3d9b358affcd,52974,1,man,NA,NA,M1 is being kissed by M3,kiss2,rating_causation,"{""Q0"":3}",[0],M3 asked to kiss M1,M1 asked to kiss M3
6238,NA,NA,NA,NA,survey-likert-extra-labels,39,1788901,0.0-17.0-2.0,anomymised,656582028f794bf1617e53e2,65673917bf6d3d9b358affcd,52974,1,man,NA,NA,M1 is being kissed by M3,kiss2,rating_volition,"{""Q0"":0}",[0],M3 wanted to kiss M1,M1 wanted to kiss M3
null,Beth is being opposed by Mike,NA,NA,NA,html-keyboard-response,40,1790914,0.0-18.0-0.0,anomymised,656582028f794bf1617e53e2,65673917bf6d3d9b358affcd,52974,1,man,NA,null,W4 is being opposed by M2,oppose4,sentence,NA,NA,NA,NA
8842,NA,NA,NA,NA,survey-likert-extra-labels,41,1799758,0.0-18.0-1.0-0.0,anomymised,656582028f794bf1617e53e2,65673917bf6d3d9b358affcd,52974,1,man,NA,NA,W4 is being opposed by M2,oppose4,rating_causation,"{""Q0"":6}",[0],W4 started opposing M2,M2 started opposing W4
3597,NA,NA,NA,NA,survey-likert-extra-labels,42,1803358,0.0-18.0-2.0,anomymised,656582028f794bf1617e53e2,65673917bf6d3d9b358affcd,52974,1,man,NA,NA,W4 is being opposed by M2,oppose4,rating_volition,"{""Q0"":6}",[0],W4 wanted to oppose M2,M2 wanted to oppose W4
null,Mike is being kissed by Beth,NA,NA,NA,html-keyboard-response,43,1805367,0.0-19.0-0.0,anomymised,656582028f794bf1617e53e2,65673917bf6d3d9b358affcd,52974,1,man,NA,null,M2 is being kissed by W4,kiss3,sentence,NA,NA,NA,NA
5674,NA,NA,NA,NA,survey-likert-extra-labels,44,1811043,0.0-19.0-2.0,anomymised,656582028f794bf1617e53e2,65673917bf6d3d9b358affcd,52974,1,man,NA,NA,M2 is being kissed by W4,kiss3,rating_volition,"{""Q0"":0}",[0],W4 wanted to kiss M2,M2 wanted to kiss W4
2842,NA,NA,NA,NA,survey-likert-extra-labels,45,1813889,0.0-19.0-3.0-0.0,anomymised,656582028f794bf1617e53e2,65673917bf6d3d9b358affcd,52974,1,man,NA,NA,M2 is being kissed by W4,kiss3,rating_causation,"{""Q0"":3}",[0],W4 asked to kiss M2,M2 asked to kiss W4
null,Beth is being challenged by Jane,NA,NA,NA,html-keyboard-response,46,1815901,0.0-20.0-0.0,anomymised,656582028f794bf1617e53e2,65673917bf6d3d9b358affcd,52974,1,man,NA,null,W4 is being challenged by W2,challenge1,sentence,NA,NA,NA,NA
6941,NA,NA,NA,NA,survey-likert-extra-labels,47,1822844,0.0-20.0-1.0-0.0,anomymised,656582028f794bf1617e53e2,65673917bf6d3d9b358affcd,52974,1,man,NA,NA,W4 is being challenged by W2,challenge1,rating_causation,"{""Q0"":1}",[0],W4 started challenging W2 first,W2 started challenging W4 first
2946,NA,NA,NA,NA,survey-likert-extra-labels,48,1825793,0.0-20.0-2.0,anomymised,656582028f794bf1617e53e2,65673917bf6d3d9b358affcd,52974,1,man,NA,NA,W4 is being challenged by W2,challenge1,rating_volition,"{""Q0"":0}",[0],W4 wanted to challenge W2,W2 wanted to challenge W4
null,Fred is being shouted at by Luke,NA,NA,NA,html-keyboard-response,49,1827802,0.0-21.0-0.0,anomymised,656582028f794bf1617e53e2,65673917bf6d3d9b358affcd,52974,1,man,NA,null,M3 is being shouted at by M1,shout2,sentence,NA,NA,NA,NA
4329,NA,NA,NA,NA,survey-likert-extra-labels,50,1832132,0.0-21.0-1.0-0.0,anomymised,656582028f794bf1617e53e2,65673917bf6d3d9b358affcd,52974,1,man,NA,NA,M3 is being shouted at by M1,shout2,rating_causation,"{""Q0"":1}",[0],M3 shouted at M1 first,M1 shouted at M3 first
3280,NA,NA,NA,NA,survey-likert-extra-labels,51,1835414,0.0-21.0-2.0,anomymised,656582028f794bf1617e53e2,65673917bf6d3d9b358affcd,52974,1,man,NA,NA,M3 is being shouted at by M1,shout2,rating_volition,"{""Q0"":0}",[0],M3 wanted to shout at M1,M1 wanted to shout at M3
null,Kate is being greeted by Luke,NA,NA,NA,html-keyboard-response,52,1837429,0.0-22.0-0.0,anomymised,656582028f794bf1617e53e2,65673917bf6d3d9b358affcd,52974,1,man,NA,null,W3 is being greeted by M1,greet4,sentence,NA,NA,NA,NA
9054,NA,NA,NA,NA,survey-likert-extra-labels,53,1846484,0.0-22.0-1.0-0.0,anomymised,656582028f794bf1617e53e2,65673917bf6d3d9b358affcd,52974,1,man,NA,NA,W3 is being greeted by M1,greet4,rating_causation,"{""Q0"":2}",[0],M1 started greeting W3 first,W3 started greeting M1 first
8006,NA,NA,NA,NA,survey-likert-extra-labels,54,1854493,0.0-22.0-2.0,anomymised,656582028f794bf1617e53e2,65673917bf6d3d9b358affcd,52974,1,man,NA,NA,W3 is being greeted by M1,greet4,rating_volition,"{""Q0"":0}",[0],M1 wanted to greet W3,W3 wanted to greet M1
null,Dave is being touched by Mike,NA,NA,NA,html-keyboard-response,55,1856501,0.0-23.0-0.0,anomymised,656582028f794bf1617e53e2,65673917bf6d3d9b358affcd,52974,1,man,NA,null,M4 is being touched by M2,touch2,sentence,NA,NA,NA,NA
3062,NA,NA,NA,NA,survey-likert-extra-labels,56,1859564,0.0-23.0-1.0-0.0,anomymised,656582028f794bf1617e53e2,65673917bf6d3d9b358affcd,52974,1,man,NA,NA,M4 is being touched by M2,touch2,rating_causation,"{""Q0"":3}",[0],M4 asked to touch M2,M2 asked to touch M4
5810,NA,NA,NA,NA,survey-likert-extra-labels,57,1865377,0.0-23.0-2.0,anomymised,656582028f794bf1617e53e2,65673917bf6d3d9b358affcd,52974,1,man,NA,NA,M4 is being touched by M2,touch2,rating_volition,"{""Q0"":6}",[0],M4 wanted to touch M2,M2 wanted to touch M4
null,Mike is reminding Beth,NA,NA,NA,html-keyboard-response,58,1867382,0.0-24.0-0.0,anomymised,656582028f794bf1617e53e2,65673917bf6d3d9b358affcd,52974,1,man,NA,null,M2 is reminding W4,remind,sentence,NA,NA,NA,NA
9371,NA,NA,NA,NA,survey-likert-extra-labels,59,1876753,0.0-24.0-1.0-0.0,anomymised,656582028f794bf1617e53e2,65673917bf6d3d9b358affcd,52974,1,man,NA,NA,M2 is reminding W4,remind,rating_causation,"{""Q0"":4}",[0],M2 is remembering,W4 is remembering
10106,NA,NA,NA,NA,survey-likert-extra-labels,60,1886861,0.0-24.0-2.0,anomymised,656582028f794bf1617e53e2,65673917bf6d3d9b358affcd,52974,1,man,NA,NA,M2 is reminding W4,remind,rating_volition,"{""Q0"":1}",[0],M2 is telling W4 again,W4 is telling M2 again
null,Dave is being hugged by Jane,NA,NA,NA,html-keyboard-response,61,1888873,0.0-25.0-0.0,anomymised,656582028f794bf1617e53e2,65673917bf6d3d9b358affcd,52974,1,man,NA,null,M4 is being hugged by W2,hug3,sentence,NA,NA,NA,NA
13817,NA,NA,NA,NA,survey-likert-extra-labels,62,1902692,0.0-25.0-1.0-0.0,anomymised,656582028f794bf1617e53e2,65673917bf6d3d9b358affcd,52974,1,man,NA,NA,M4 is being hugged by W2,hug3,rating_causation,"{""Q0"":3}",[0],M4 asked to hug W2,W2 asked to hug M4
5583,NA,NA,NA,NA,survey-likert-extra-labels,63,1908278,0.0-25.0-2.0,anomymised,656582028f794bf1617e53e2,65673917bf6d3d9b358affcd,52974,1,man,NA,NA,M4 is being hugged by W2,hug3,rating_volition,"{""Q0"":6}",[0],M4 wanted to hug W2,W2 wanted to hug M4
null,Beth is being touched by Jane,NA,NA,NA,html-keyboard-response,64,1910289,0.0-26.0-0.0,anomymised,656582028f794bf1617e53e2,65673917bf6d3d9b358affcd,52974,1,man,NA,null,W4 is being touched by W2,touch1,sentence,NA,NA,NA,NA
2646,NA,NA,NA,NA,survey-likert-extra-labels,65,1912936,0.0-26.0-1.0-0.0,anomymised,656582028f794bf1617e53e2,65673917bf6d3d9b358affcd,52974,1,man,NA,NA,W4 is being touched by W2,touch1,rating_causation,"{""Q0"":3}",[0],W4 asked to touch W2,W2 asked to touch W4
6453,NA,NA,NA,NA,survey-likert-extra-labels,66,1919393,0.0-26.0-2.0,anomymised,656582028f794bf1617e53e2,65673917bf6d3d9b358affcd,52974,1,man,NA,NA,W4 is being touched by W2,touch1,rating_volition,"{""Q0"":6}",[0],W4 wanted to touch W2,W2 wanted to touch W4
null,Mike is posing for Dave,NA,NA,NA,html-keyboard-response,67,1921402,0.0-27.0-0.0,anomymised,656582028f794bf1617e53e2,65673917bf6d3d9b358affcd,52974,1,man,NA,null,M2 is posing for M4,pose,sentence,NA,NA,NA,NA
6685,NA,NA,NA,NA,survey-likert-extra-labels,68,1928090,0.0-27.0-1.0-0.0,anomymised,656582028f794bf1617e53e2,65673917bf6d3d9b358affcd,52974,1,man,NA,NA,M2 is posing for M4,pose,rating_causation,"{""Q0"":5}",[0],M2 is photographing M4,M4 is photographing M2
6395,NA,NA,NA,NA,survey-likert-extra-labels,69,1934487,0.0-27.0-2.0,anomymised,656582028f794bf1617e53e2,65673917bf6d3d9b358affcd,52974,1,man,NA,NA,M2 is posing for M4,pose,rating_volition,"{""Q0"":0}",[0],M2 is modelling for M4,M4 is modelling for M2
null,Ruth is being challenged by Fred,NA,NA,NA,html-keyboard-response,70,1936497,0.0-28.0-0.0,anomymised,656582028f794bf1617e53e2,65673917bf6d3d9b358affcd,52974,1,man,NA,null,W1 is being challenged by M3,challenge3,sentence,NA,NA,NA,NA
7432,NA,NA,NA,NA,survey-likert-extra-labels,71,1943931,0.0-28.0-1.0-0.0,anomymised,656582028f794bf1617e53e2,65673917bf6d3d9b358affcd,52974,1,man,NA,NA,W1 is being challenged by M3,challenge3,rating_causation,"{""Q0"":5}",[0],W1 started challenging M3 first,M3 started challenging W1 first
3998,NA,NA,NA,NA,survey-likert-extra-labels,72,1947931,0.0-28.0-2.0,anomymised,656582028f794bf1617e53e2,65673917bf6d3d9b358affcd,52974,1,man,NA,NA,W1 is being challenged by M3,challenge3,rating_volition,"{""Q0"":6}",[0],W1 wanted to challenge M3,M3 wanted to challenge W1
null,Fred is being copied by Ruth,NA,NA,NA,html-keyboard-response,73,1949943,0.0-29.0-0.0,anomymised,656582028f794bf1617e53e2,65673917bf6d3d9b358affcd,52974,1,man,NA,null,M3 is being copied by W1,copy4,sentence,NA,NA,NA,NA
6149,NA,NA,NA,NA,survey-likert-extra-labels,74,1956093,0.0-29.0-2.0,anomymised,656582028f794bf1617e53e2,65673917bf6d3d9b358affcd,52974,1,man,NA,NA,M3 is being copied by W1,copy4,rating_volition,"{""Q0"":0}",[0],W1 wanted to copy M3,M3 wanted to copy W1
7492,NA,NA,NA,NA,survey-likert-extra-labels,75,1963587,0.0-29.0-3.0-0.0,anomymised,656582028f794bf1617e53e2,65673917bf6d3d9b358affcd,52974,1,man,NA,NA,M3 is being copied by W1,copy4,rating_causation,"{""Q0"":1}",[0],W1 started copying M3 first,M3 started copying W1 first
null,Jane is being looked at by Dave,NA,NA,NA,html-keyboard-response,76,1965594,0.0-30.0-0.0,anomymised,656582028f794bf1617e53e2,65673917bf6d3d9b358affcd,52974,1,man,NA,null,W2 is being looked at by M4,look3,sentence,NA,NA,NA,NA
4414,NA,NA,NA,NA,survey-likert-extra-labels,77,1970009,0.0-30.0-2.0,anomymised,656582028f794bf1617e53e2,65673917bf6d3d9b358affcd,52974,1,man,NA,NA,W2 is being looked at by M4,look3,rating_volition,"{""Q0"":0}",[0],M4 wanted to look at W2,W2 wanted to look at M4
3848,NA,NA,NA,NA,survey-likert-extra-labels,78,1973858,0.0-30.0-3.0-0.0,anomymised,656582028f794bf1617e53e2,65673917bf6d3d9b358affcd,52974,1,man,NA,NA,W2 is being looked at by M4,look3,rating_causation,"{""Q0"":2}",[0],M4 looked at W2 first,W2 looked at M4 first
null,Kate is feeding Luke,NA,NA,NA,html-keyboard-response,79,1975867,0.0-31.0-0.0,anomymised,656582028f794bf1617e53e2,65673917bf6d3d9b358affcd,52974,1,man,NA,null,W3 is feeding M1,feed,sentence,NA,NA,NA,NA
4934,NA,NA,NA,NA,survey-likert-extra-labels,80,1980803,0.0-31.0-1.0-0.0,anomymised,656582028f794bf1617e53e2,65673917bf6d3d9b358affcd,52974,1,man,NA,NA,W3 is feeding M1,feed,rating_causation,"{""Q0"":5}",[0],W3 is eating M1's food,M1 is eating W3's food
5545,NA,NA,NA,NA,survey-likert-extra-labels,81,1986350,0.0-31.0-2.0,anomymised,656582028f794bf1617e53e2,65673917bf6d3d9b358affcd,52974,1,man,NA,NA,W3 is feeding M1,feed,rating_volition,"{""Q0"":0}",[0],W3 cooked for M1,M1 cooked for W3
null,Ruth is chasing Kate,NA,NA,NA,html-keyboard-response,82,1988353,0.0-32.0-0.0,anomymised,656582028f794bf1617e53e2,65673917bf6d3d9b358affcd,52974,1,man,NA,null,W1 is chasing W3,chase,sentence,NA,NA,NA,NA
6003,NA,NA,NA,NA,survey-likert-extra-labels,83,1994359,0.0-32.0-1.0-0.0,anomymised,656582028f794bf1617e53e2,65673917bf6d3d9b358affcd,52974,1,man,NA,NA,W1 is chasing W3,chase,rating_causation,"{""Q0"":5}",[0],W1 is running away from W3,W3 is running away from W1
7146,NA,NA,NA,NA,survey-likert-extra-labels,84,2001503,0.0-32.0-2.0,anomymised,656582028f794bf1617e53e2,65673917bf6d3d9b358affcd,52974,1,man,NA,NA,W1 is chasing W3,chase,rating_volition,"{""Q0"":0}",[0],W1 is behind W3,W3 is behind W1
null,Fred is hiring Ruth,NA,NA,NA,html-keyboard-response,85,2003514,0.0-33.0-0.0,anomymised,656582028f794bf1617e53e2,65673917bf6d3d9b358affcd,52974,1,man,NA,null,M3 is hiring W1,hire,sentence,NA,NA,NA,NA
3752,NA,NA,NA,NA,survey-likert-extra-labels,86,2007267,0.0-33.0-2.0,anomymised,656582028f794bf1617e53e2,65673917bf6d3d9b358affcd,52974,1,man,NA,NA,M3 is hiring W1,hire,rating_volition,"{""Q0"":0}",[0],M3 is employing W1,W1 is employing M3
4450,NA,NA,NA,NA,survey-likert-extra-labels,87,2011720,0.0-33.0-3.0-0.0,anomymised,656582028f794bf1617e53e2,65673917bf6d3d9b358affcd,52974,1,man,NA,NA,M3 is hiring W1,hire,rating_causation,"{""Q0"":6}",[0],M3 will work for W1,W1 will work for M3
null,Jane is being kissed by Dave,NA,NA,NA,html-keyboard-response,88,2013727,0.0-34.0-0.0,anomymised,656582028f794bf1617e53e2,65673917bf6d3d9b358affcd,52974,1,man,NA,null,W2 is being kissed by M4,kiss4,sentence,NA,NA,NA,NA
3817,NA,NA,NA,NA,survey-likert-extra-labels,89,2017546,0.0-34.0-1.0-0.0,anomymised,656582028f794bf1617e53e2,65673917bf6d3d9b358affcd,52974,1,man,NA,NA,W2 is being kissed by M4,kiss4,rating_causation,"{""Q0"":3}",[0],M4 asked to kiss W2,W2 asked to kiss M4
5385,NA,NA,NA,NA,survey-likert-extra-labels,90,2022932,0.0-34.0-2.0,anomymised,656582028f794bf1617e53e2,65673917bf6d3d9b358affcd,52974,1,man,NA,NA,W2 is being kissed by M4,kiss4,rating_volition,"{""Q0"":0}",[0],M4 wanted to kiss W2,W2 wanted to kiss M4
null,Jane is carrying Beth,NA,NA,NA,html-keyboard-response,91,2024949,0.0-35.0-0.0,anomymised,656582028f794bf1617e53e2,65673917bf6d3d9b358affcd,52974,1,man,NA,null,W2 is carrying W4,carry,sentence,NA,NA,NA,NA
4241,NA,NA,NA,NA,survey-likert-extra-labels,92,2029192,0.0-35.0-2.0,anomymised,656582028f794bf1617e53e2,65673917bf6d3d9b358affcd,52974,1,man,NA,NA,W2 is carrying W4,carry,rating_volition,"{""Q0"":0}",[0],W2 is transporting W4,W4 is transporting W2
4016,NA,NA,NA,NA,survey-likert-extra-labels,93,2033210,0.0-35.0-3.0-0.0,anomymised,656582028f794bf1617e53e2,65673917bf6d3d9b358affcd,52974,1,man,NA,NA,W2 is carrying W4,carry,rating_causation,"{""Q0"":6}",[0],W2 is being moved by W4,W4 is being moved by W2
null,Jane is being greeted by Beth,NA,NA,NA,html-keyboard-response,94,2035214,0.0-36.0-0.0,anomymised,656582028f794bf1617e53e2,65673917bf6d3d9b358affcd,52974,1,man,NA,null,W2 is being greeted by W4,greet1,sentence,NA,NA,NA,NA
6749,NA,NA,NA,NA,survey-likert-extra-labels,95,2041964,0.0-36.0-2.0,anomymised,656582028f794bf1617e53e2,65673917bf6d3d9b358affcd,52974,1,man,NA,NA,W2 is being greeted by W4,greet1,rating_volition,"{""Q0"":0}",[0],W4 wanted to greet W2,W2 wanted to greet W4
3428,NA,NA,NA,NA,survey-likert-extra-labels,96,2045394,0.0-36.0-3.0-0.0,anomymised,656582028f794bf1617e53e2,65673917bf6d3d9b358affcd,52974,1,man,NA,NA,W2 is being greeted by W4,greet1,rating_causation,"{""Q0"":3}",[0],W4 started greeting W2 first,W2 started greeting W4 first
null,Dave is being seduced by Mike,NA,NA,NA,html-keyboard-response,97,2047396,0.0-37.0-0.0,anomymised,656582028f794bf1617e53e2,65673917bf6d3d9b358affcd,52974,1,man,NA,null,M4 is being seduced by M2,seduce2,sentence,NA,NA,NA,NA
3389,NA,NA,NA,NA,survey-likert-extra-labels,98,2050787,0.0-37.0-1.0-0.0,anomymised,656582028f794bf1617e53e2,65673917bf6d3d9b358affcd,52974,1,man,NA,NA,M4 is being seduced by M2,seduce2,rating_causation,"{""Q0"":3}",[0],M4 started seducing M2 first,M2 started seducing M4 first
5406,NA,NA,NA,NA,survey-likert-extra-labels,99,2056195,0.0-37.0-2.0,anomymised,656582028f794bf1617e53e2,65673917bf6d3d9b358affcd,52974,1,man,NA,NA,M4 is being seduced by M2,seduce2,rating_volition,"{""Q0"":6}",[0],M4 wanted to seduce M2,M2 wanted to seduce M4
null,Fred is being opposed by Luke,NA,NA,NA,html-keyboard-response,100,2058205,0.0-38.0-0.0,anomymised,656582028f794bf1617e53e2,65673917bf6d3d9b358affcd,52974,1,man,NA,null,M3 is being opposed by M1,oppose2,sentence,NA,NA,NA,NA
4399,NA,NA,NA,NA,survey-likert-extra-labels,101,2062604,0.0-38.0-2.0,anomymised,656582028f794bf1617e53e2,65673917bf6d3d9b358affcd,52974,1,man,NA,NA,M3 is being opposed by M1,oppose2,rating_volition,"{""Q0"":6}",[0],M3 wanted to oppose M1,M1 wanted to oppose M3
6210,NA,NA,NA,NA,survey-likert-extra-labels,102,2068817,0.0-38.0-3.0-0.0,anomymised,656582028f794bf1617e53e2,65673917bf6d3d9b358affcd,52974,1,man,NA,NA,M3 is being opposed by M1,oppose2,rating_causation,"{""Q0"":3}",[0],M3 started opposing M1,M1 started opposing M3
null,Mike is being copied by Dave,NA,NA,NA,html-keyboard-response,103,2070834,0.0-39.0-0.0,anomymised,656582028f794bf1617e53e2,65673917bf6d3d9b358affcd,52974,1,man,NA,null,M2 is being copied by M4,copy2,sentence,NA,NA,NA,NA
5945,NA,NA,NA,NA,survey-likert-extra-labels,104,2076779,0.0-39.0-1.0-0.0,anomymised,656582028f794bf1617e53e2,65673917bf6d3d9b358affcd,52974,1,man,NA,NA,M2 is being copied by M4,copy2,rating_causation,"{""Q0"":1}",[0],M4 started copying M2 first,M2 started copying M4 first
5942,NA,NA,NA,NA,survey-likert-extra-labels,105,2082723,0.0-39.0-2.0,anomymised,656582028f794bf1617e53e2,65673917bf6d3d9b358affcd,52974,1,man,NA,NA,M2 is being copied by M4,copy2,rating_volition,"{""Q0"":1}",[0],M4 wanted to copy M2,M2 wanted to copy M4
null,Ruth is being seduced by Fred,NA,NA,NA,html-keyboard-response,106,2084734,0.0-40.0-0.0,anomymised,656582028f794bf1617e53e2,65673917bf6d3d9b358affcd,52974,1,man,NA,null,W1 is being seduced by M3,seduce4,sentence,NA,NA,NA,NA
5047,NA,NA,NA,NA,survey-likert-extra-labels,107,2089782,0.0-40.0-2.0,anomymised,656582028f794bf1617e53e2,65673917bf6d3d9b358affcd,52974,1,man,NA,NA,W1 is being seduced by M3,seduce4,rating_volition,"{""Q0"":6}",[0],W1 wanted to seducing M3,M3 wanted to seducing W1
3754,NA,NA,NA,NA,survey-likert-extra-labels,108,2093539,0.0-40.0-3.0-0.0,anomymised,656582028f794bf1617e53e2,65673917bf6d3d9b358affcd,52974,1,man,NA,NA,W1 is being seduced by M3,seduce4,rating_causation,"{""Q0"":3}",[0],W1 started seducing M3 first,M3 started seducing W1 first
null,Dave is being shouted at by Jane,NA,NA,NA,html-keyboard-response,109,2095551,0.0-41.0-0.0,anomymised,656582028f794bf1617e53e2,65673917bf6d3d9b358affcd,52974,1,man,NA,null,M4 is being shouted at by W2,shout4,sentence,NA,NA,NA,NA
15372,NA,NA,NA,NA,survey-likert-extra-labels,110,2110925,0.0-41.0-2.0,anomymised,656582028f794bf1617e53e2,65673917bf6d3d9b358affcd,52974,1,man,NA,NA,M4 is being shouted at by W2,shout4,rating_volition,"{""Q0"":6}",[0],M4 wanted to shout at W2,W2 wanted to shout at M4
4339,NA,NA,NA,NA,survey-likert-extra-labels,111,2115265,0.0-41.0-3.0-0.0,anomymised,656582028f794bf1617e53e2,65673917bf6d3d9b358affcd,52974,1,man,NA,NA,M4 is being shouted at by W2,shout4,rating_causation,"{""Q0"":3}",[0],M4 shouted at W2 first,W2 shouted at M4 first
null,Dave is being opposed by Jane,NA,NA,NA,html-keyboard-response,112,2117271,0.0-42.0-0.0,anomymised,656582028f794bf1617e53e2,65673917bf6d3d9b358affcd,52974,1,man,NA,null,M4 is being opposed by W2,oppose3,sentence,NA,NA,NA,NA
8915,NA,NA,NA,NA,survey-likert-extra-labels,113,2126187,0.0-42.0-1.0-0.0,anomymised,656582028f794bf1617e53e2,65673917bf6d3d9b358affcd,52974,1,man,NA,NA,M4 is being opposed by W2,oppose3,rating_causation,"{""Q0"":5}",[0],M4 started opposing W2,W2 started opposing M4
3890,NA,NA,NA,NA,survey-likert-extra-labels,114,2130078,0.0-42.0-2.0,anomymised,656582028f794bf1617e53e2,65673917bf6d3d9b358affcd,52974,1,man,NA,NA,M4 is being opposed by W2,oppose3,rating_volition,"{""Q0"":5}",[0],M4 wanted to oppose W2,W2 wanted to oppose M4
null,Kate is being hugged by Ruth,NA,NA,NA,html-keyboard-response,115,2132084,0.0-43.0-0.0,anomymised,656582028f794bf1617e53e2,65673917bf6d3d9b358affcd,52974,1,man,NA,null,W3 is being hugged by W1,hug1,sentence,NA,NA,NA,NA
5046,NA,NA,NA,NA,survey-likert-extra-labels,116,2137131,0.0-43.0-2.0,anomymised,656582028f794bf1617e53e2,65673917bf6d3d9b358affcd,52974,1,man,NA,NA,W3 is being hugged by W1,hug1,rating_volition,"{""Q0"":6}",[0],W3 wanted to hug W1,W1 wanted to hug W3
4371,NA,NA,NA,NA,survey-likert-extra-labels,117,2141504,0.0-43.0-3.0-0.0,anomymised,656582028f794bf1617e53e2,65673917bf6d3d9b358affcd,52974,1,man,NA,NA,W3 is being hugged by W1,hug1,rating_causation,"{""Q0"":3}",[0],W3 asked to hug W1,W1 asked to hug W3
null,Jane is teaching Dave,NA,NA,NA,html-keyboard-response,118,2143513,0.0-44.0-0.0,anomymised,656582028f794bf1617e53e2,65673917bf6d3d9b358affcd,52974,1,man,NA,null,W2 is teaching M4,teach,sentence,NA,NA,NA,NA
12123,NA,NA,NA,NA,survey-likert-extra-labels,119,2155638,0.0-44.0-1.0-0.0,anomymised,656582028f794bf1617e53e2,65673917bf6d3d9b358affcd,52974,1,man,NA,NA,W2 is teaching M4,teach,rating_causation,"{""Q0"":6}",[0],W2 is learning from M4,M4 is learning from W2
4812,NA,NA,NA,NA,survey-likert-extra-labels,120,2160452,0.0-44.0-2.0,anomymised,656582028f794bf1617e53e2,65673917bf6d3d9b358affcd,52974,1,man,NA,NA,W2 is teaching M4,teach,rating_volition,"{""Q0"":0}",[0],W2 is educating M4,M4 is educating W2
null,Kate is being copied by Luke,NA,NA,NA,html-keyboard-response,121,2162465,0.0-45.0-0.0,anomymised,656582028f794bf1617e53e2,65673917bf6d3d9b358affcd,52974,1,man,NA,null,W3 is being copied by M1,copy3,sentence,NA,NA,NA,NA
7854,NA,NA,NA,NA,survey-likert-extra-labels,122,2170321,0.0-45.0-1.0-0.0,anomymised,656582028f794bf1617e53e2,65673917bf6d3d9b358affcd,52974,1,man,NA,NA,W3 is being copied by M1,copy3,rating_causation,"{""Q0"":1}",[0],M1 started copying W3 first,W3 started copying M1 first
4216,NA,NA,NA,NA,survey-likert-extra-labels,123,2174539,0.0-45.0-2.0,anomymised,656582028f794bf1617e53e2,65673917bf6d3d9b358affcd,52974,1,man,NA,NA,W3 is being copied by M1,copy3,rating_volition,"{""Q0"":0}",[0],M1 wanted to copy W3,W3 wanted to copy M1
null,Dave is being challenged by Mike,NA,NA,NA,html-keyboard-response,124,2176543,0.0-46.0-0.0,anomymised,656582028f794bf1617e53e2,65673917bf6d3d9b358affcd,52974,1,man,NA,null,M4 is being challenged by M2,challenge2,sentence,NA,NA,NA,NA
4208,NA,NA,NA,NA,survey-likert-extra-labels,125,2180753,0.0-46.0-2.0,anomymised,656582028f794bf1617e53e2,65673917bf6d3d9b358affcd,52974,1,man,NA,NA,M4 is being challenged by M2,challenge2,rating_volition,"{""Q0"":6}",[0],M4 wanted to challenge M2,M2 wanted to challenge M4
3309,NA,NA,NA,NA,survey-likert-extra-labels,126,2184064,0.0-46.0-3.0-0.0,anomymised,656582028f794bf1617e53e2,65673917bf6d3d9b358affcd,52974,1,man,NA,NA,M4 is being challenged by M2,challenge2,rating_causation,"{""Q0"":3}",[0],M4 started challenging M2 first,M2 started challenging M4 first
null,Ruth is being looked at by Kate,NA,NA,NA,html-keyboard-response,127,2186068,0.0-47.0-0.0,anomymised,656582028f794bf1617e53e2,65673917bf6d3d9b358affcd,52974,1,man,NA,null,W1 is being looked at by W3,look1,sentence,NA,NA,NA,NA
4842,NA,NA,NA,NA,survey-likert-extra-labels,128,2190912,0.0-47.0-1.0-0.0,anomymised,656582028f794bf1617e53e2,65673917bf6d3d9b358affcd,52974,1,man,NA,NA,W1 is being looked at by W3,look1,rating_causation,"{""Q0"":3}",[0],W3 looked at W1 first,W1 looked at W3 first
3742,NA,NA,NA,NA,survey-likert-extra-labels,129,2194656,0.0-47.0-2.0,anomymised,656582028f794bf1617e53e2,65673917bf6d3d9b358affcd,52974,1,man,NA,NA,W1 is being looked at by W3,look1,rating_volition,"{""Q0"":0}",[0],W3 wanted to look at W1,W1 wanted to look at W3
null,Fred is being greeted by Ruth,NA,NA,NA,html-keyboard-response,130,2196669,0.0-48.0-0.0,anomymised,656582028f794bf1617e53e2,65673917bf6d3d9b358affcd,52974,1,man,NA,null,M3 is being greeted by W1,greet3,sentence,NA,NA,NA,NA
3765,NA,NA,NA,NA,survey-likert-extra-labels,131,2200436,0.0-48.0-2.0,anomymised,656582028f794bf1617e53e2,65673917bf6d3d9b358affcd,52974,1,man,NA,NA,M3 is being greeted by W1,greet3,rating_volition,"{""Q0"":0}",[0],W1 wanted to greet M3,M3 wanted to greet W1
4023,NA,NA,NA,NA,survey-likert-extra-labels,132,2204460,0.0-48.0-3.0-0.0,anomymised,656582028f794bf1617e53e2,65673917bf6d3d9b358affcd,52974,1,man,NA,NA,M3 is being greeted by W1,greet3,rating_causation,"{""Q0"":3}",[0],W1 started greeting M3 first,M3 started greeting W1 first
null,Ruth is being touched by Fred,NA,NA,NA,html-keyboard-response,133,2206472,0.0-49.0-0.0,anomymised,656582028f794bf1617e53e2,65673917bf6d3d9b358affcd,52974,1,man,NA,null,W1 is being touched by M3,touch4,sentence,NA,NA,NA,NA
3384,NA,NA,NA,NA,survey-likert-extra-labels,134,2209858,0.0-49.0-1.0-0.0,anomymised,656582028f794bf1617e53e2,65673917bf6d3d9b358affcd,52974,1,man,NA,NA,W1 is being touched by M3,touch4,rating_causation,"{""Q0"":3}",[0],W1 asked to touch M3,M3 asked to touch W1
3433,NA,NA,NA,NA,survey-likert-extra-labels,135,2213293,0.0-49.0-2.0,anomymised,656582028f794bf1617e53e2,65673917bf6d3d9b358affcd,52974,1,man,NA,NA,W1 is being touched by M3,touch4,rating_volition,"{""Q0"":6}",[0],W1 wanted to touch M3,M3 wanted to touch W1
null,Mike is being looked at by Beth,NA,NA,NA,html-keyboard-response,136,2215301,0.0-50.0-0.0,anomymised,656582028f794bf1617e53e2,65673917bf6d3d9b358affcd,52974,1,man,NA,null,M2 is being looked at by W4,look4,sentence,NA,NA,NA,NA
2505,NA,NA,NA,NA,survey-likert-extra-labels,137,2217809,0.0-50.0-1.0-0.0,anomymised,656582028f794bf1617e53e2,65673917bf6d3d9b358affcd,52974,1,man,NA,NA,M2 is being looked at by W4,look4,rating_causation,"{""Q0"":3}",[0],W4 looked at M2 first,M2 looked at W4 first
3163,NA,NA,NA,NA,survey-likert-extra-labels,138,2220972,0.0-50.0-2.0,anomymised,656582028f794bf1617e53e2,65673917bf6d3d9b358affcd,52974,1,man,NA,NA,M2 is being looked at by W4,look4,rating_volition,"{""Q0"":0}",[0],W4 wanted to look at M2,M2 wanted to look at W4
null,Kate is being shouted at by Ruth,NA,NA,NA,html-keyboard-response,139,2222980,0.0-51.0-0.0,anomymised,656582028f794bf1617e53e2,65673917bf6d3d9b358affcd,52974,1,man,NA,null,W3 is being shouted at by W1,shout1,sentence,NA,NA,NA,NA
2108,NA,NA,NA,NA,survey-likert-extra-labels,140,2225090,0.0-51.0-1.0-0.0,anomymised,656582028f794bf1617e53e2,65673917bf6d3d9b358affcd,52974,1,man,NA,NA,W3 is being shouted at by W1,shout1,rating_causation,"{""Q0"":3}",[0],W3 shouted at W1 first,W1 shouted at W3 first
5217,NA,NA,NA,NA,survey-likert-extra-labels,141,2230310,0.0-51.0-2.0,anomymised,656582028f794bf1617e53e2,65673917bf6d3d9b358affcd,52974,1,man,NA,NA,W3 is being shouted at by W1,shout1,rating_volition,"{""Q0"":6}",[0],W3 wanted to shout at W1,W1 wanted to shout at W3
null,Mike is being greeted by Dave,NA,NA,NA,html-keyboard-response,142,2232322,0.0-52.0-0.0,anomymised,656582028f794bf1617e53e2,65673917bf6d3d9b358affcd,52974,1,man,NA,null,M2 is being greeted by M4,greet2,sentence,NA,NA,NA,NA
5420,NA,NA,NA,NA,survey-likert-extra-labels,143,2237744,0.0-52.0-2.0,anomymised,656582028f794bf1617e53e2,65673917bf6d3d9b358affcd,52974,1,man,NA,NA,M2 is being greeted by M4,greet2,rating_volition,"{""Q0"":0}",[0],M4 wanted to greet M2,M2 wanted to greet M4
1828,NA,NA,NA,NA,survey-likert-extra-labels,144,2239575,0.0-52.0-3.0-0.0,anomymised,656582028f794bf1617e53e2,65673917bf6d3d9b358affcd,52974,1,man,NA,NA,M2 is being greeted by M4,greet2,rating_causation,"{""Q0"":3}",[0],M4 started greeting M2 first,M2 started greeting M4 first
null,Jane is being copied by Beth,NA,NA,NA,html-keyboard-response,145,2241589,0.0-53.0-0.0,anomymised,656582028f794bf1617e53e2,65673917bf6d3d9b358affcd,52974,1,man,NA,null,W2 is being copied by W4,copy1,sentence,NA,NA,NA,NA
8248,NA,NA,NA,NA,survey-likert-extra-labels,146,2249840,0.0-53.0-2.0,anomymised,656582028f794bf1617e53e2,65673917bf6d3d9b358affcd,52974,1,man,NA,NA,W2 is being copied by W4,copy1,rating_volition,"{""Q0"":0}",[0],W4 wanted to copy W2,W2 wanted to copy W4
2539,NA,NA,NA,NA,survey-likert-extra-labels,147,2252381,0.0-53.0-3.0-0.0,anomymised,656582028f794bf1617e53e2,65673917bf6d3d9b358affcd,52974,1,man,NA,NA,W2 is being copied by W4,copy1,rating_causation,"{""Q0"":3}",[0],W4 started copying W2 first,W2 started copying W4 first
null,Luke is being challenged by Kate,NA,NA,NA,html-keyboard-response,148,2254390,0.0-54.0-0.0,anomymised,656582028f794bf1617e53e2,65673917bf6d3d9b358affcd,52974,1,man,NA,null,M1 is being challenged by W3,challenge4,sentence,NA,NA,NA,NA
4722,NA,NA,NA,NA,survey-likert-extra-labels,149,2259115,0.0-54.0-2.0,anomymised,656582028f794bf1617e53e2,65673917bf6d3d9b358affcd,52974,1,man,NA,NA,M1 is being challenged by W3,challenge4,rating_volition,"{""Q0"":6}",[0],M1 wanted to challenge W3,W3 wanted to challenge M1
3352,NA,NA,NA,NA,survey-likert-extra-labels,150,2262468,0.0-54.0-3.0-0.0,anomymised,656582028f794bf1617e53e2,65673917bf6d3d9b358affcd,52974,1,man,NA,NA,M1 is being challenged by W3,challenge4,rating_causation,"{""Q0"":3}",[0],M1 started challenging W3 first,W3 started challenging M1 first
1604,<p>Thank you for completing that task.</p><p>The final part of this session is a short questionnaire.</p><p>Press Continue.</p>,0,Continue,Continue,html-button-response,151,2264074,0.0-55.0,anomymised,656582028f794bf1617e53e2,65673917bf6d3d9b358affcd,52974,1,man,NA,NA,NA,NA,NA,NA,NA,NA,NA
20437,NA,NA,NA,NA,survey-text,152,2285527,0.0-56.0,anomymised,656582028f794bf1617e53e2,65673917bf6d3d9b358affcd,52974,1,man,NA,NA,NA,NA,demographics,"{""Q0"":""45"",""Q1"":""English"",""Q2"":""English"",""Q3"":""UK"",""Q4"":""British"",""Q5"":""White"",""Q6"":""Male""}",NA,NA,NA
2159,<p>This is the last question - thank you for taking part! Have you lived in the UK for the last 5 years or more?</p>,0,"Yes,No",Yes,html-button-response,153,2287689,0.0-57.0,anomymised,656582028f794bf1617e53e2,65673917bf6d3d9b358affcd,52974,1,man,NA,NA,NA,NA,fiveyears,NA,NA,NA,NA
