rt,stimulus,button_pressed,choices,ChosenStimulus,trial_type,trial_index,time_elapsed,internal_node_id,subject_id,study_id,session_id,subject,list,ppt_gender,url,key_press,sentence_type,verb,test_part,responses,question_order,left_part,right_part
4033.100000143051,Welcome to the experiment. Press Continue to begin.,0,Continue,Continue,html-button-response,0,4050,0.0-0.0,anomymised,656582dc9140dccdaa20d120,65671cc2482012ec2adc31c2,5344,1C,woman,NA,NA,NA,NA,NA,NA,NA,NA,NA
13433.199999809265,NA,NA,NA,NA,external-html,1,18670,0.0-1.0,anomymised,656582dc9140dccdaa20d120,65671cc2482012ec2adc31c2,5344,1C,woman,consent.html,NA,NA,NA,NA,NA,NA,NA,NA
2322.2000000476837,"<p>Welcome.</p><p>In this experiment we will ask you to imagine some situations.</p><p>Each trial starts with a description of an event.</p><p>Then you will see alternative descriptions of that event, and you will rate on a scale how best they match the original description.</p><p>You will give your answer by clicking a button on a rating scale.</p><p>To do this task, you will have to use your imagination to visualise these events.</p><br><p>Ready?</p>",0,Continue,Continue,html-button-response,2,21021,0.0-2.0,anomymised,656582dc9140dccdaa20d120,65671cc2482012ec2adc31c2,5344,1C,woman,NA,NA,NA,NA,NA,NA,NA,NA,NA
2225.800000190735,"<p>Before the experiment starts, you will watch an example trial. Press 'Continue'.</p>",0,Continue,Continue,html-button-response,3,24272,0.0-3.0,anomymised,656582dc9140dccdaa20d120,65671cc2482012ec2adc31c2,5344,1C,woman,NA,NA,NA,NA,NA,NA,NA,NA,NA
null,The police officer is arresting the robber,NA,NA,NA,html-keyboard-response,4,27307,0.0-4.0,anomymised,656582dc9140dccdaa20d120,65671cc2482012ec2adc31c2,5344,1C,woman,NA,null,NA,NA,NA,NA,NA,NA,NA
11879.700000047684,<img src='img/Example-trial.jpg' style='height:550px;''></img>,0,Continue,Continue,html-button-response,5,39189,0.0-5.0,anomymised,656582dc9140dccdaa20d120,65671cc2482012ec2adc31c2,5344,1C,woman,NA,NA,NA,NA,NA,NA,NA,NA,NA
1660,<p>Ready to start the experiment?</p><br><p><strong>Remember to give an answer by clicking a button on the rating scale.</strong></p><p>Press 'Continue' to begin.</p>,0,Continue,Continue,html-button-response,6,41854,0.0-6.0,anomymised,656582dc9140dccdaa20d120,65671cc2482012ec2adc31c2,5344,1C,woman,NA,NA,NA,NA,NA,NA,NA,NA,NA
null,Luke is being challenged by Kate,NA,NA,NA,html-keyboard-response,7,44873,0.0-7.0-0.0,anomymised,656582dc9140dccdaa20d120,65671cc2482012ec2adc31c2,5344,1C,woman,NA,null,M1 is being challenged by W3,challenge4,sentence,NA,NA,NA,NA
5349.799999952316,NA,NA,NA,NA,survey-likert-extra-labels,8,50230,0.0-7.0-1.0-0.0,anomymised,656582dc9140dccdaa20d120,65671cc2482012ec2adc31c2,5344,1C,woman,NA,NA,M1 is being challenged by W3,challenge4,rating_causation,"{""Q0"":0}",[0],W3 started challenging M1 first,M1 started challenging W3 first
27037.300000190735,NA,NA,NA,NA,survey-likert-extra-labels,9,77272,0.0-7.0-2.0,anomymised,656582dc9140dccdaa20d120,65671cc2482012ec2adc31c2,5344,1C,woman,NA,NA,M1 is being challenged by W3,challenge4,rating_volition,"{""Q0"":3}",[0],W3 wanted to challenge M1,M1 wanted to challenge W3
null,Dave is being hugged by Jane,NA,NA,NA,html-keyboard-response,10,79279,0.0-8.0-0.0,anomymised,656582dc9140dccdaa20d120,65671cc2482012ec2adc31c2,5344,1C,woman,NA,null,M4 is being hugged by W2,hug3,sentence,NA,NA,NA,NA
7652.299999952316,NA,NA,NA,NA,survey-likert-extra-labels,11,86934,0.0-8.0-1.0-0.0,anomymised,656582dc9140dccdaa20d120,65671cc2482012ec2adc31c2,5344,1C,woman,NA,NA,M4 is being hugged by W2,hug3,rating_causation,"{""Q0"":0}",[0],W2 asked to hug M4,M4 asked to hug W2
6456.900000095367,NA,NA,NA,NA,survey-likert-extra-labels,12,93396,0.0-8.0-2.0,anomymised,656582dc9140dccdaa20d120,65671cc2482012ec2adc31c2,5344,1C,woman,NA,NA,M4 is being hugged by W2,hug3,rating_volition,"{""Q0"":0}",[0],W2 wanted to hug M4,M4 wanted to hug W2
null,Ruth is being seduced by Fred,NA,NA,NA,html-keyboard-response,13,95527,0.0-9.0-0.0,anomymised,656582dc9140dccdaa20d120,65671cc2482012ec2adc31c2,5344,1C,woman,NA,null,W1 is being seduced by M3,seduce4,sentence,NA,NA,NA,NA
14459.200000047684,NA,NA,NA,NA,survey-likert-extra-labels,14,109990,0.0-9.0-2.0,anomymised,656582dc9140dccdaa20d120,65671cc2482012ec2adc31c2,5344,1C,woman,NA,NA,W1 is being seduced by M3,seduce4,rating_volition,"{""Q0"":0}",[0],M3 wanted to seducing W1,W1 wanted to seducing M3
6238.399999856949,NA,NA,NA,NA,survey-likert-extra-labels,15,116247,0.0-9.0-3.0-0.0,anomymised,656582dc9140dccdaa20d120,65671cc2482012ec2adc31c2,5344,1C,woman,NA,NA,W1 is being seduced by M3,seduce4,rating_causation,"{""Q0"":0}",[0],M3 started seducing W1 first,W1 started seducing M3 first
null,Dave is being seduced by Mike,NA,NA,NA,html-keyboard-response,16,118270,0.0-10.0-0.0,anomymised,656582dc9140dccdaa20d120,65671cc2482012ec2adc31c2,5344,1C,woman,NA,null,M4 is being seduced by M2,seduce2,sentence,NA,NA,NA,NA
5843.299999952316,NA,NA,NA,NA,survey-likert-extra-labels,17,124117,0.0-10.0-2.0,anomymised,656582dc9140dccdaa20d120,65671cc2482012ec2adc31c2,5344,1C,woman,NA,NA,M4 is being seduced by M2,seduce2,rating_volition,"{""Q0"":0}",[0],M2 wanted to seduce M4,M4 wanted to seduce M2
2535.0999999046326,NA,NA,NA,NA,survey-likert-extra-labels,18,126658,0.0-10.0-3.0-0.0,anomymised,656582dc9140dccdaa20d120,65671cc2482012ec2adc31c2,5344,1C,woman,NA,NA,M4 is being seduced by M2,seduce2,rating_causation,"{""Q0"":0}",[0],M2 started seducing M4 first,M4 started seducing M2 first
null,Fred is hiring Ruth,NA,NA,NA,html-keyboard-response,19,128667,0.0-11.0-0.0,anomymised,656582dc9140dccdaa20d120,65671cc2482012ec2adc31c2,5344,1C,woman,NA,null,M3 is hiring W1,hire,sentence,NA,NA,NA,NA
4755.900000095367,NA,NA,NA,NA,survey-likert-extra-labels,20,133426,0.0-11.0-2.0,anomymised,656582dc9140dccdaa20d120,65671cc2482012ec2adc31c2,5344,1C,woman,NA,NA,M3 is hiring W1,hire,rating_volition,"{""Q0"":0}",[0],M3 is employing W1,W1 is employing M3
8331,NA,NA,NA,NA,survey-likert-extra-labels,21,141765,0.0-11.0-3.0-0.0,anomymised,656582dc9140dccdaa20d120,65671cc2482012ec2adc31c2,5344,1C,woman,NA,NA,M3 is hiring W1,hire,rating_causation,"{""Q0"":5}",[0],M3 will work for W1,W1 will work for M3
null,Jane is being kissed by Dave,NA,NA,NA,html-keyboard-response,22,143784,0.0-12.0-0.0,anomymised,656582dc9140dccdaa20d120,65671cc2482012ec2adc31c2,5344,1C,woman,NA,null,W2 is being kissed by M4,kiss4,sentence,NA,NA,NA,NA
5710.899999856949,NA,NA,NA,NA,survey-likert-extra-labels,23,149497,0.0-12.0-2.0,anomymised,656582dc9140dccdaa20d120,65671cc2482012ec2adc31c2,5344,1C,woman,NA,NA,W2 is being kissed by M4,kiss4,rating_volition,"{""Q0"":6}",[0],W2 wanted to kiss M4,M4 wanted to kiss W2
5525.399999856949,NA,NA,NA,NA,survey-likert-extra-labels,24,155030,0.0-12.0-3.0-0.0,anomymised,656582dc9140dccdaa20d120,65671cc2482012ec2adc31c2,5344,1C,woman,NA,NA,W2 is being kissed by M4,kiss4,rating_causation,"{""Q0"":3}",[0],W2 asked to kiss M4,M4 asked to kiss W2
null,Dave is being opposed by Jane,NA,NA,NA,html-keyboard-response,25,157044,0.0-13.0-0.0,anomymised,656582dc9140dccdaa20d120,65671cc2482012ec2adc31c2,5344,1C,woman,NA,null,M4 is being opposed by W2,oppose3,sentence,NA,NA,NA,NA
4763,NA,NA,NA,NA,survey-likert-extra-labels,26,161812,0.0-13.0-2.0,anomymised,656582dc9140dccdaa20d120,65671cc2482012ec2adc31c2,5344,1C,woman,NA,NA,M4 is being opposed by W2,oppose3,rating_volition,"{""Q0"":0}",[0],W2 wanted to oppose M4,M4 wanted to oppose W2
5605.200000047684,NA,NA,NA,NA,survey-likert-extra-labels,27,167426,0.0-13.0-3.0-0.0,anomymised,656582dc9140dccdaa20d120,65671cc2482012ec2adc31c2,5344,1C,woman,NA,NA,M4 is being opposed by W2,oppose3,rating_causation,"{""Q0"":3}",[0],W2 started opposing M4,M4 started opposing W2
null,Ruth is being challenged by Fred,NA,NA,NA,html-keyboard-response,28,169440,0.0-14.0-0.0,anomymised,656582dc9140dccdaa20d120,65671cc2482012ec2adc31c2,5344,1C,woman,NA,null,W1 is being challenged by M3,challenge3,sentence,NA,NA,NA,NA
53767.60000014305,NA,NA,NA,NA,survey-likert-extra-labels,29,223212,0.0-14.0-1.0-0.0,anomymised,656582dc9140dccdaa20d120,65671cc2482012ec2adc31c2,5344,1C,woman,NA,NA,W1 is being challenged by M3,challenge3,rating_causation,"{""Q0"":0}",[0],M3 started challenging W1 first,W1 started challenging M3 first
5851.800000190735,NA,NA,NA,NA,survey-likert-extra-labels,30,229070,0.0-14.0-2.0,anomymised,656582dc9140dccdaa20d120,65671cc2482012ec2adc31c2,5344,1C,woman,NA,NA,W1 is being challenged by M3,challenge3,rating_volition,"{""Q0"":2}",[0],M3 wanted to challenge W1,W1 wanted to challenge M3
null,Ruth is chasing Kate,NA,NA,NA,html-keyboard-response,31,231087,0.0-15.0-0.0,anomymised,656582dc9140dccdaa20d120,65671cc2482012ec2adc31c2,5344,1C,woman,NA,null,W1 is chasing W3,chase,sentence,NA,NA,NA,NA
14270.599999904633,NA,NA,NA,NA,survey-likert-extra-labels,32,245360,0.0-15.0-2.0,anomymised,656582dc9140dccdaa20d120,65671cc2482012ec2adc31c2,5344,1C,woman,NA,NA,W1 is chasing W3,chase,rating_volition,"{""Q0"":0}",[0],W1 is behind W3,W3 is behind W1
5562,NA,NA,NA,NA,survey-likert-extra-labels,33,250930,0.0-15.0-3.0-0.0,anomymised,656582dc9140dccdaa20d120,65671cc2482012ec2adc31c2,5344,1C,woman,NA,NA,W1 is chasing W3,chase,rating_causation,"{""Q0"":6}",[0],W1 is running away from W3,W3 is running away from W1
null,Mike is being greeted by Dave,NA,NA,NA,html-keyboard-response,34,252950,0.0-16.0-0.0,anomymised,656582dc9140dccdaa20d120,65671cc2482012ec2adc31c2,5344,1C,woman,NA,null,M2 is being greeted by M4,greet2,sentence,NA,NA,NA,NA
7025.799999952316,NA,NA,NA,NA,survey-likert-extra-labels,35,259978,0.0-16.0-2.0,anomymised,656582dc9140dccdaa20d120,65671cc2482012ec2adc31c2,5344,1C,woman,NA,NA,M2 is being greeted by M4,greet2,rating_volition,"{""Q0"":6}",[0],M2 wanted to greet M4,M4 wanted to greet M2
124477.30000019073,NA,NA,NA,NA,survey-likert-extra-labels,36,384464,0.0-16.0-3.0-0.0,anomymised,656582dc9140dccdaa20d120,65671cc2482012ec2adc31c2,5344,1C,woman,NA,NA,M2 is being greeted by M4,greet2,rating_causation,"{""Q0"":6}",[0],M2 started greeting M4 first,M4 started greeting M2 first
null,Mike is being kissed by Beth,NA,NA,NA,html-keyboard-response,37,386476,0.0-17.0-0.0,anomymised,656582dc9140dccdaa20d120,65671cc2482012ec2adc31c2,5344,1C,woman,NA,null,M2 is being kissed by W4,kiss3,sentence,NA,NA,NA,NA
64479.89999985695,NA,NA,NA,NA,survey-likert-extra-labels,38,450959,0.0-17.0-1.0-0.0,anomymised,656582dc9140dccdaa20d120,65671cc2482012ec2adc31c2,5344,1C,woman,NA,NA,M2 is being kissed by W4,kiss3,rating_causation,"{""Q0"":6}",[0],M2 asked to kiss W4,W4 asked to kiss M2
818.5,NA,NA,NA,NA,survey-likert-extra-labels,39,451786,0.0-17.0-2.0,anomymised,656582dc9140dccdaa20d120,65671cc2482012ec2adc31c2,5344,1C,woman,NA,NA,M2 is being kissed by W4,kiss3,rating_volition,"{""Q0"":""""}",[0],M2 wanted to kiss W4,W4 wanted to kiss M2
null,Jane is carrying Beth,NA,NA,NA,html-keyboard-response,40,453797,0.0-18.0-0.0,anomymised,656582dc9140dccdaa20d120,65671cc2482012ec2adc31c2,5344,1C,woman,NA,null,W2 is carrying W4,carry,sentence,NA,NA,NA,NA
9305,NA,NA,NA,NA,survey-likert-extra-labels,41,463107,0.0-18.0-2.0,anomymised,656582dc9140dccdaa20d120,65671cc2482012ec2adc31c2,5344,1C,woman,NA,NA,W2 is carrying W4,carry,rating_volition,"{""Q0"":0}",[0],W2 is transporting W4,W4 is transporting W2
7983.899999856949,NA,NA,NA,NA,survey-likert-extra-labels,42,471098,0.0-18.0-3.0-0.0,anomymised,656582dc9140dccdaa20d120,65671cc2482012ec2adc31c2,5344,1C,woman,NA,NA,W2 is carrying W4,carry,rating_causation,"{""Q0"":6}",[0],W2 is being moved by W4,W4 is being moved by W2
null,Jane is being looked at by Dave,NA,NA,NA,html-keyboard-response,43,473113,0.0-19.0-0.0,anomymised,656582dc9140dccdaa20d120,65671cc2482012ec2adc31c2,5344,1C,woman,NA,null,W2 is being looked at by M4,look3,sentence,NA,NA,NA,NA
4371.299999952316,NA,NA,NA,NA,survey-likert-extra-labels,44,477487,0.0-19.0-2.0,anomymised,656582dc9140dccdaa20d120,65671cc2482012ec2adc31c2,5344,1C,woman,NA,NA,W2 is being looked at by M4,look3,rating_volition,"{""Q0"":6}",[0],W2 wanted to look at M4,M4 wanted to look at W2
22507.700000047684,NA,NA,NA,NA,survey-likert-extra-labels,45,500003,0.0-19.0-3.0-0.0,anomymised,656582dc9140dccdaa20d120,65671cc2482012ec2adc31c2,5344,1C,woman,NA,NA,W2 is being looked at by M4,look3,rating_causation,"{""Q0"":6}",[0],W2 looked at M4 first,M4 looked at W2 first
null,Luke is being touched by Kate,NA,NA,NA,html-keyboard-response,46,502011,0.0-20.0-0.0,anomymised,656582dc9140dccdaa20d120,65671cc2482012ec2adc31c2,5344,1C,woman,NA,null,M1 is being touched by W3,touch3,sentence,NA,NA,NA,NA
3720.899999856949,NA,NA,NA,NA,survey-likert-extra-labels,47,505738,0.0-20.0-2.0,anomymised,656582dc9140dccdaa20d120,65671cc2482012ec2adc31c2,5344,1C,woman,NA,NA,M1 is being touched by W3,touch3,rating_volition,"{""Q0"":0}",[0],W3 wanted to touch M1,M1 wanted to touch W3
7739.5,NA,NA,NA,NA,survey-likert-extra-labels,48,513484,0.0-20.0-3.0-0.0,anomymised,656582dc9140dccdaa20d120,65671cc2482012ec2adc31c2,5344,1C,woman,NA,NA,M1 is being touched by W3,touch3,rating_causation,"{""Q0"":2}",[0],W3 asked to touch M1,M1 asked to touch W3
null,Mike is reminding Beth,NA,NA,NA,html-keyboard-response,49,515495,0.0-21.0-0.0,anomymised,656582dc9140dccdaa20d120,65671cc2482012ec2adc31c2,5344,1C,woman,NA,null,M2 is reminding W4,remind,sentence,NA,NA,NA,NA
12615,NA,NA,NA,NA,survey-likert-extra-labels,50,528113,0.0-21.0-2.0,anomymised,656582dc9140dccdaa20d120,65671cc2482012ec2adc31c2,5344,1C,woman,NA,NA,M2 is reminding W4,remind,rating_volition,"{""Q0"":0}",[0],M2 is telling W4 again,W4 is telling M2 again
7026.900000095367,NA,NA,NA,NA,survey-likert-extra-labels,51,535147,0.0-21.0-3.0-0.0,anomymised,656582dc9140dccdaa20d120,65671cc2482012ec2adc31c2,5344,1C,woman,NA,NA,M2 is reminding W4,remind,rating_causation,"{""Q0"":6}",[0],M2 is remembering,W4 is remembering
null,Luke is being kissed by Fred,NA,NA,NA,html-keyboard-response,52,537158,0.0-22.0-0.0,anomymised,656582dc9140dccdaa20d120,65671cc2482012ec2adc31c2,5344,1C,woman,NA,null,M1 is being kissed by M3,kiss2,sentence,NA,NA,NA,NA
5373.200000047684,NA,NA,NA,NA,survey-likert-extra-labels,53,542533,0.0-22.0-1.0-0.0,anomymised,656582dc9140dccdaa20d120,65671cc2482012ec2adc31c2,5344,1C,woman,NA,NA,M1 is being kissed by M3,kiss2,rating_causation,"{""Q0"":6}",[0],M1 asked to kiss M3,M3 asked to kiss M1
6453,NA,NA,NA,NA,survey-likert-extra-labels,54,548993,0.0-22.0-2.0,anomymised,656582dc9140dccdaa20d120,65671cc2482012ec2adc31c2,5344,1C,woman,NA,NA,M1 is being kissed by M3,kiss2,rating_volition,"{""Q0"":6}",[0],M1 wanted to kiss M3,M3 wanted to kiss M1
null,Jane is being copied by Beth,NA,NA,NA,html-keyboard-response,55,550998,0.0-23.0-0.0,anomymised,656582dc9140dccdaa20d120,65671cc2482012ec2adc31c2,5344,1C,woman,NA,null,W2 is being copied by W4,copy1,sentence,NA,NA,NA,NA
14771.400000095367,NA,NA,NA,NA,survey-likert-extra-labels,56,565777,0.0-23.0-1.0-0.0,anomymised,656582dc9140dccdaa20d120,65671cc2482012ec2adc31c2,5344,1C,woman,NA,NA,W2 is being copied by W4,copy1,rating_causation,"{""Q0"":6}",[0],W2 started copying W4 first,W4 started copying W2 first
5746.900000095367,NA,NA,NA,NA,survey-likert-extra-labels,57,571533,0.0-23.0-2.0,anomymised,656582dc9140dccdaa20d120,65671cc2482012ec2adc31c2,5344,1C,woman,NA,NA,W2 is being copied by W4,copy1,rating_volition,"{""Q0"":6}",[0],W2 wanted to copy W4,W4 wanted to copy W2
null,Kate is being shouted at by Ruth,NA,NA,NA,html-keyboard-response,58,573550,0.0-24.0-0.0,anomymised,656582dc9140dccdaa20d120,65671cc2482012ec2adc31c2,5344,1C,woman,NA,null,W3 is being shouted at by W1,shout1,sentence,NA,NA,NA,NA
6806.700000047684,NA,NA,NA,NA,survey-likert-extra-labels,59,580385,0.0-24.0-1.0-0.0,anomymised,656582dc9140dccdaa20d120,65671cc2482012ec2adc31c2,5344,1C,woman,NA,NA,W3 is being shouted at by W1,shout1,rating_causation,"{""Q0"":3}",[0],W1 shouted at W3 first,W3 shouted at W1 first
5816,NA,NA,NA,NA,survey-likert-extra-labels,60,586209,0.0-24.0-2.0,anomymised,656582dc9140dccdaa20d120,65671cc2482012ec2adc31c2,5344,1C,woman,NA,NA,W3 is being shouted at by W1,shout1,rating_volition,"{""Q0"":3}",[0],W1 wanted to shout at W3,W3 wanted to shout at W1
null,Beth is being shouted at by Mike,NA,NA,NA,html-keyboard-response,61,588220,0.0-25.0-0.0,anomymised,656582dc9140dccdaa20d120,65671cc2482012ec2adc31c2,5344,1C,woman,NA,null,W4 is being shouted at by M2,shout3,sentence,NA,NA,NA,NA
2101.9000000953674,NA,NA,NA,NA,survey-likert-extra-labels,62,590327,0.0-25.0-2.0,anomymised,656582dc9140dccdaa20d120,65671cc2482012ec2adc31c2,5344,1C,woman,NA,NA,W4 is being shouted at by M2,shout3,rating_volition,"{""Q0"":3}",[0],M2 wanted to shout at W4,W4 wanted to shout at M2
2306,NA,NA,NA,NA,survey-likert-extra-labels,63,592638,0.0-25.0-3.0-0.0,anomymised,656582dc9140dccdaa20d120,65671cc2482012ec2adc31c2,5344,1C,woman,NA,NA,W4 is being shouted at by M2,shout3,rating_causation,"{""Q0"":3}",[0],M2 shouted at W4 first,W4 shouted at M2 first
null,Jane is being greeted by Beth,NA,NA,NA,html-keyboard-response,64,594652,0.0-26.0-0.0,anomymised,656582dc9140dccdaa20d120,65671cc2482012ec2adc31c2,5344,1C,woman,NA,null,W2 is being greeted by W4,greet1,sentence,NA,NA,NA,NA
3848.699999809265,NA,NA,NA,NA,survey-likert-extra-labels,65,598504,0.0-26.0-2.0,anomymised,656582dc9140dccdaa20d120,65671cc2482012ec2adc31c2,5344,1C,woman,NA,NA,W2 is being greeted by W4,greet1,rating_volition,"{""Q0"":0}",[0],W2 wanted to greet W4,W4 wanted to greet W2
204799,NA,NA,NA,NA,survey-likert-extra-labels,66,803308,0.0-26.0-3.0-0.0,anomymised,656582dc9140dccdaa20d120,65671cc2482012ec2adc31c2,5344,1C,woman,NA,NA,W2 is being greeted by W4,greet1,rating_causation,"{""Q0"":6}",[0],W2 started greeting W4 first,W4 started greeting W2 first
null,Kate is being hugged by Ruth,NA,NA,NA,html-keyboard-response,67,805323,0.0-27.0-0.0,anomymised,656582dc9140dccdaa20d120,65671cc2482012ec2adc31c2,5344,1C,woman,NA,null,W3 is being hugged by W1,hug1,sentence,NA,NA,NA,NA
42152.299999952316,NA,NA,NA,NA,survey-likert-extra-labels,68,847478,0.0-27.0-2.0,anomymised,656582dc9140dccdaa20d120,65671cc2482012ec2adc31c2,5344,1C,woman,NA,NA,W3 is being hugged by W1,hug1,rating_volition,"{""Q0"":0}",[0],W1 wanted to hug W3,W3 wanted to hug W1
8327.5,NA,NA,NA,NA,survey-likert-extra-labels,69,855817,0.0-27.0-3.0-0.0,anomymised,656582dc9140dccdaa20d120,65671cc2482012ec2adc31c2,5344,1C,woman,NA,NA,W3 is being hugged by W1,hug1,rating_causation,"{""Q0"":0}",[0],W1 asked to hug W3,W3 asked to hug W1
null,Mike is posing for Dave,NA,NA,NA,html-keyboard-response,70,857837,0.0-28.0-0.0,anomymised,656582dc9140dccdaa20d120,65671cc2482012ec2adc31c2,5344,1C,woman,NA,null,M2 is posing for M4,pose,sentence,NA,NA,NA,NA
3739.7000000476837,NA,NA,NA,NA,survey-likert-extra-labels,71,861583,0.0-28.0-2.0,anomymised,656582dc9140dccdaa20d120,65671cc2482012ec2adc31c2,5344,1C,woman,NA,NA,M2 is posing for M4,pose,rating_volition,"{""Q0"":0}",[0],M2 is modelling for M4,M4 is modelling for M2
2937.7000000476837,NA,NA,NA,NA,survey-likert-extra-labels,72,864526,0.0-28.0-3.0-0.0,anomymised,656582dc9140dccdaa20d120,65671cc2482012ec2adc31c2,5344,1C,woman,NA,NA,M2 is posing for M4,pose,rating_causation,"{""Q0"":0}",[0],M2 is photographing M4,M4 is photographing M2
null,Kate is being greeted by Luke,NA,NA,NA,html-keyboard-response,73,866542,0.0-29.0-0.0,anomymised,656582dc9140dccdaa20d120,65671cc2482012ec2adc31c2,5344,1C,woman,NA,null,W3 is being greeted by M1,greet4,sentence,NA,NA,NA,NA
4238.299999952316,NA,NA,NA,NA,survey-likert-extra-labels,74,870783,0.0-29.0-2.0,anomymised,656582dc9140dccdaa20d120,65671cc2482012ec2adc31c2,5344,1C,woman,NA,NA,W3 is being greeted by M1,greet4,rating_volition,"{""Q0"":6}",[0],W3 wanted to greet M1,M1 wanted to greet W3
1600.7000000476837,NA,NA,NA,NA,survey-likert-extra-labels,75,872390,0.0-29.0-3.0-0.0,anomymised,656582dc9140dccdaa20d120,65671cc2482012ec2adc31c2,5344,1C,woman,NA,NA,W3 is being greeted by M1,greet4,rating_causation,"{""Q0"":""""}",[0],W3 started greeting M1 first,M1 started greeting W3 first
null,Beth is being seduced by Jane,NA,NA,NA,html-keyboard-response,76,874396,0.0-30.0-0.0,anomymised,656582dc9140dccdaa20d120,65671cc2482012ec2adc31c2,5344,1C,woman,NA,null,W4 is being seduced by W2,seduce1,sentence,NA,NA,NA,NA
39862.90000009537,NA,NA,NA,NA,survey-likert-extra-labels,77,914261,0.0-30.0-2.0,anomymised,656582dc9140dccdaa20d120,65671cc2482012ec2adc31c2,5344,1C,woman,NA,NA,W4 is being seduced by W2,seduce1,rating_volition,"{""Q0"":0}",[0],W2 wanted to seduce W4,W4 wanted to seduce W2
34703.09999990463,NA,NA,NA,NA,survey-likert-extra-labels,78,948970,0.0-30.0-3.0-0.0,anomymised,656582dc9140dccdaa20d120,65671cc2482012ec2adc31c2,5344,1C,woman,NA,NA,W4 is being seduced by W2,seduce1,rating_causation,"{""Q0"":0}",[0],W2 started seducing W4 first,W4 started seducing W2 first
null,Fred is being copied by Ruth,NA,NA,NA,html-keyboard-response,79,951000,0.0-31.0-0.0,anomymised,656582dc9140dccdaa20d120,65671cc2482012ec2adc31c2,5344,1C,woman,NA,null,M3 is being copied by W1,copy4,sentence,NA,NA,NA,NA
29147.700000047684,NA,NA,NA,NA,survey-likert-extra-labels,80,980171,0.0-31.0-2.0,anomymised,656582dc9140dccdaa20d120,65671cc2482012ec2adc31c2,5344,1C,woman,NA,NA,M3 is being copied by W1,copy4,rating_volition,"{""Q0"":6}",[0],M3 wanted to copy W1,W1 wanted to copy M3
7212.200000047684,NA,NA,NA,NA,survey-likert-extra-labels,81,987420,0.0-31.0-3.0-0.0,anomymised,656582dc9140dccdaa20d120,65671cc2482012ec2adc31c2,5344,1C,woman,NA,NA,M3 is being copied by W1,copy4,rating_causation,"{""Q0"":3}",[0],M3 started copying W1 first,W1 started copying M3 first
null,Kate is being opposed by Ruth,NA,NA,NA,html-keyboard-response,82,989435,0.0-32.0-0.0,anomymised,656582dc9140dccdaa20d120,65671cc2482012ec2adc31c2,5344,1C,woman,NA,null,W3 is being opposed by W1,oppose1,sentence,NA,NA,NA,NA
7031.700000047684,NA,NA,NA,NA,survey-likert-extra-labels,83,996469,0.0-32.0-1.0-0.0,anomymised,656582dc9140dccdaa20d120,65671cc2482012ec2adc31c2,5344,1C,woman,NA,NA,W3 is being opposed by W1,oppose1,rating_causation,"{""Q0"":4}",[0],W1 started opposing W3,W3 started opposing W1
2486.2000000476837,NA,NA,NA,NA,survey-likert-extra-labels,84,998958,0.0-32.0-2.0,anomymised,656582dc9140dccdaa20d120,65671cc2482012ec2adc31c2,5344,1C,woman,NA,NA,W3 is being opposed by W1,oppose1,rating_volition,"{""Q0"":3}",[0],W1 wanted to oppose W3,W3 wanted to oppose W1
null,Fred is being opposed by Luke,NA,NA,NA,html-keyboard-response,85,1000961,0.0-33.0-0.0,anomymised,656582dc9140dccdaa20d120,65671cc2482012ec2adc31c2,5344,1C,woman,NA,null,M3 is being opposed by M1,oppose2,sentence,NA,NA,NA,NA
2163.600000143051,NA,NA,NA,NA,survey-likert-extra-labels,86,1003127,0.0-33.0-2.0,anomymised,656582dc9140dccdaa20d120,65671cc2482012ec2adc31c2,5344,1C,woman,NA,NA,M3 is being opposed by M1,oppose2,rating_volition,"{""Q0"":0}",[0],M1 wanted to oppose M3,M3 wanted to oppose M1
3175,NA,NA,NA,NA,survey-likert-extra-labels,87,1006304,0.0-33.0-3.0-0.0,anomymised,656582dc9140dccdaa20d120,65671cc2482012ec2adc31c2,5344,1C,woman,NA,NA,M3 is being opposed by M1,oppose2,rating_causation,"{""Q0"":0}",[0],M1 started opposing M3,M3 started opposing M1
null,Beth is being challenged by Jane,NA,NA,NA,html-keyboard-response,88,1008312,0.0-34.0-0.0,anomymised,656582dc9140dccdaa20d120,65671cc2482012ec2adc31c2,5344,1C,woman,NA,null,W4 is being challenged by W2,challenge1,sentence,NA,NA,NA,NA
2069.2000000476837,NA,NA,NA,NA,survey-likert-extra-labels,89,1010384,0.0-34.0-1.0-0.0,anomymised,656582dc9140dccdaa20d120,65671cc2482012ec2adc31c2,5344,1C,woman,NA,NA,W4 is being challenged by W2,challenge1,rating_causation,"{""Q0"":0}",[0],W2 started challenging W4 first,W4 started challenging W2 first
2034.0999999046326,NA,NA,NA,NA,survey-likert-extra-labels,90,1012421,0.0-34.0-2.0,anomymised,656582dc9140dccdaa20d120,65671cc2482012ec2adc31c2,5344,1C,woman,NA,NA,W4 is being challenged by W2,challenge1,rating_volition,"{""Q0"":0}",[0],W2 wanted to challenge W4,W4 wanted to challenge W2
null,Ruth is being touched by Fred,NA,NA,NA,html-keyboard-response,91,1014432,0.0-35.0-0.0,anomymised,656582dc9140dccdaa20d120,65671cc2482012ec2adc31c2,5344,1C,woman,NA,null,W1 is being touched by M3,touch4,sentence,NA,NA,NA,NA
2232.899999856949,NA,NA,NA,NA,survey-likert-extra-labels,92,1016668,0.0-35.0-1.0-0.0,anomymised,656582dc9140dccdaa20d120,65671cc2482012ec2adc31c2,5344,1C,woman,NA,NA,W1 is being touched by M3,touch4,rating_causation,"{""Q0"":0}",[0],M3 asked to touch W1,W1 asked to touch M3
3093.800000190735,NA,NA,NA,NA,survey-likert-extra-labels,93,1019764,0.0-35.0-2.0,anomymised,656582dc9140dccdaa20d120,65671cc2482012ec2adc31c2,5344,1C,woman,NA,NA,W1 is being touched by M3,touch4,rating_volition,"{""Q0"":0}",[0],M3 wanted to touch W1,W1 wanted to touch M3
null,Fred is being hugged by Luke,NA,NA,NA,html-keyboard-response,94,1021766,0.0-36.0-0.0,anomymised,656582dc9140dccdaa20d120,65671cc2482012ec2adc31c2,5344,1C,woman,NA,null,M3 is being hugged by M1,hug2,sentence,NA,NA,NA,NA
22869.799999952316,NA,NA,NA,NA,survey-likert-extra-labels,95,1044637,0.0-36.0-1.0-0.0,anomymised,656582dc9140dccdaa20d120,65671cc2482012ec2adc31c2,5344,1C,woman,NA,NA,M3 is being hugged by M1,hug2,rating_causation,"{""Q0"":0}",[0],M1 asked to hug M3,M3 asked to hug M1
2008.4000000953674,NA,NA,NA,NA,survey-likert-extra-labels,96,1046719,0.0-36.0-2.0,anomymised,656582dc9140dccdaa20d120,65671cc2482012ec2adc31c2,5344,1C,woman,NA,NA,M3 is being hugged by M1,hug2,rating_volition,"{""Q0"":0}",[0],M1 wanted to hug M3,M3 wanted to hug M1
null,Jane is teaching Dave,NA,NA,NA,html-keyboard-response,97,1048732,0.0-37.0-0.0,anomymised,656582dc9140dccdaa20d120,65671cc2482012ec2adc31c2,5344,1C,woman,NA,null,W2 is teaching M4,teach,sentence,NA,NA,NA,NA
2434.7999999523163,NA,NA,NA,NA,survey-likert-extra-labels,98,1051169,0.0-37.0-2.0,anomymised,656582dc9140dccdaa20d120,65671cc2482012ec2adc31c2,5344,1C,woman,NA,NA,W2 is teaching M4,teach,rating_volition,"{""Q0"":0}",[0],W2 is educating M4,M4 is educating W2
2529.5,NA,NA,NA,NA,survey-likert-extra-labels,99,1053702,0.0-37.0-3.0-0.0,anomymised,656582dc9140dccdaa20d120,65671cc2482012ec2adc31c2,5344,1C,woman,NA,NA,W2 is teaching M4,teach,rating_causation,"{""Q0"":6}",[0],W2 is learning from M4,M4 is learning from W2
null,Beth is being opposed by Mike,NA,NA,NA,html-keyboard-response,100,1055714,0.0-38.0-0.0,anomymised,656582dc9140dccdaa20d120,65671cc2482012ec2adc31c2,5344,1C,woman,NA,null,W4 is being opposed by M2,oppose4,sentence,NA,NA,NA,NA
4162.800000190735,NA,NA,NA,NA,survey-likert-extra-labels,101,1059878,0.0-38.0-1.0-0.0,anomymised,656582dc9140dccdaa20d120,65671cc2482012ec2adc31c2,5344,1C,woman,NA,NA,W4 is being opposed by M2,oppose4,rating_causation,"{""Q0"":1}",[0],M2 started opposing W4,W4 started opposing M2
1261.2999999523163,NA,NA,NA,NA,survey-likert-extra-labels,102,1061143,0.0-38.0-2.0,anomymised,656582dc9140dccdaa20d120,65671cc2482012ec2adc31c2,5344,1C,woman,NA,NA,W4 is being opposed by M2,oppose4,rating_volition,"{""Q0"":""""}",[0],M2 wanted to oppose W4,W4 wanted to oppose M2
null,Dave is being challenged by Mike,NA,NA,NA,html-keyboard-response,103,1063153,0.0-39.0-0.0,anomymised,656582dc9140dccdaa20d120,65671cc2482012ec2adc31c2,5344,1C,woman,NA,null,M4 is being challenged by M2,challenge2,sentence,NA,NA,NA,NA
1778.5,NA,NA,NA,NA,survey-likert-extra-labels,104,1064933,0.0-39.0-1.0-0.0,anomymised,656582dc9140dccdaa20d120,65671cc2482012ec2adc31c2,5344,1C,woman,NA,NA,M4 is being challenged by M2,challenge2,rating_causation,"{""Q0"":4}",[0],M2 started challenging M4 first,M4 started challenging M2 first
1337.3000001907349,NA,NA,NA,NA,survey-likert-extra-labels,105,1066276,0.0-39.0-2.0,anomymised,656582dc9140dccdaa20d120,65671cc2482012ec2adc31c2,5344,1C,woman,NA,NA,M4 is being challenged by M2,challenge2,rating_volition,"{""Q0"":2}",[0],M2 wanted to challenge M4,M4 wanted to challenge M2
null,Ruth is being looked at by Kate,NA,NA,NA,html-keyboard-response,106,1068281,0.0-40.0-0.0,anomymised,656582dc9140dccdaa20d120,65671cc2482012ec2adc31c2,5344,1C,woman,NA,null,W1 is being looked at by W3,look1,sentence,NA,NA,NA,NA
3266,NA,NA,NA,NA,survey-likert-extra-labels,107,1071549,0.0-40.0-2.0,anomymised,656582dc9140dccdaa20d120,65671cc2482012ec2adc31c2,5344,1C,woman,NA,NA,W1 is being looked at by W3,look1,rating_volition,"{""Q0"":5}",[0],W1 wanted to look at W3,W3 wanted to look at W1
4085,NA,NA,NA,NA,survey-likert-extra-labels,108,1075637,0.0-40.0-3.0-0.0,anomymised,656582dc9140dccdaa20d120,65671cc2482012ec2adc31c2,5344,1C,woman,NA,NA,W1 is being looked at by W3,look1,rating_causation,"{""Q0"":5}",[0],W1 looked at W3 first,W3 looked at W1 first
null,Beth is being hugged by Mike,NA,NA,NA,html-keyboard-response,109,1077642,0.0-41.0-0.0,anomymised,656582dc9140dccdaa20d120,65671cc2482012ec2adc31c2,5344,1C,woman,NA,null,W4 is being hugged by M2,hug4,sentence,NA,NA,NA,NA
68065.70000004768,NA,NA,NA,NA,survey-likert-extra-labels,110,1145721,0.0-41.0-2.0,anomymised,656582dc9140dccdaa20d120,65671cc2482012ec2adc31c2,5344,1C,woman,NA,NA,W4 is being hugged by M2,hug4,rating_volition,"{""Q0"":0}",[0],M2 wanted to hug W4,W4 wanted to hug M2
1657.6999998092651,NA,NA,NA,NA,survey-likert-extra-labels,111,1147400,0.0-41.0-3.0-0.0,anomymised,656582dc9140dccdaa20d120,65671cc2482012ec2adc31c2,5344,1C,woman,NA,NA,W4 is being hugged by M2,hug4,rating_causation,"{""Q0"":0}",[0],M2 asked to hug W4,W4 asked to hug M2
null,Mike is being looked at by Beth,NA,NA,NA,html-keyboard-response,112,1149410,0.0-42.0-0.0,anomymised,656582dc9140dccdaa20d120,65671cc2482012ec2adc31c2,5344,1C,woman,NA,null,M2 is being looked at by W4,look4,sentence,NA,NA,NA,NA
2303.300000190735,NA,NA,NA,NA,survey-likert-extra-labels,113,1151716,0.0-42.0-1.0-0.0,anomymised,656582dc9140dccdaa20d120,65671cc2482012ec2adc31c2,5344,1C,woman,NA,NA,M2 is being looked at by W4,look4,rating_causation,"{""Q0"":6}",[0],M2 looked at W4 first,W4 looked at M2 first
2052.2000000476837,NA,NA,NA,NA,survey-likert-extra-labels,114,1153770,0.0-42.0-2.0,anomymised,656582dc9140dccdaa20d120,65671cc2482012ec2adc31c2,5344,1C,woman,NA,NA,M2 is being looked at by W4,look4,rating_volition,"{""Q0"":6}",[0],M2 wanted to look at W4,W4 wanted to look at M2
null,Mike is being copied by Dave,NA,NA,NA,html-keyboard-response,115,1155777,0.0-43.0-0.0,anomymised,656582dc9140dccdaa20d120,65671cc2482012ec2adc31c2,5344,1C,woman,NA,null,M2 is being copied by M4,copy2,sentence,NA,NA,NA,NA
14665.200000047684,NA,NA,NA,NA,survey-likert-extra-labels,116,1170444,0.0-43.0-1.0-0.0,anomymised,656582dc9140dccdaa20d120,65671cc2482012ec2adc31c2,5344,1C,woman,NA,NA,M2 is being copied by M4,copy2,rating_causation,"{""Q0"":5}",[0],M2 started copying M4 first,M4 started copying M2 first
32,NA,NA,NA,NA,survey-likert-extra-labels,117,1170523,0.0-43.0-2.0,anomymised,656582dc9140dccdaa20d120,65671cc2482012ec2adc31c2,5344,1C,woman,NA,NA,M2 is being copied by M4,copy2,rating_volition,"{""Q0"":""""}",[0],M2 wanted to copy M4,M4 wanted to copy M2
null,Fred is being shouted at by Luke,NA,NA,NA,html-keyboard-response,118,1172690,0.0-44.0-0.0,anomymised,656582dc9140dccdaa20d120,65671cc2482012ec2adc31c2,5344,1C,woman,NA,null,M3 is being shouted at by M1,shout2,sentence,NA,NA,NA,NA
8699.700000047684,NA,NA,NA,NA,survey-likert-extra-labels,119,1181392,0.0-44.0-1.0-0.0,anomymised,656582dc9140dccdaa20d120,65671cc2482012ec2adc31c2,5344,1C,woman,NA,NA,M3 is being shouted at by M1,shout2,rating_causation,"{""Q0"":2}",[0],M1 shouted at M3 first,M3 shouted at M1 first
1447.7000000476837,NA,NA,NA,NA,survey-likert-extra-labels,120,1182842,0.0-44.0-2.0,anomymised,656582dc9140dccdaa20d120,65671cc2482012ec2adc31c2,5344,1C,woman,NA,NA,M3 is being shouted at by M1,shout2,rating_volition,"{""Q0"":3}",[0],M1 wanted to shout at M3,M3 wanted to shout at M1
null,Fred is being greeted by Ruth,NA,NA,NA,html-keyboard-response,121,1184850,0.0-45.0-0.0,anomymised,656582dc9140dccdaa20d120,65671cc2482012ec2adc31c2,5344,1C,woman,NA,null,M3 is being greeted by W1,greet3,sentence,NA,NA,NA,NA
1231.2000000476837,NA,NA,NA,NA,survey-likert-extra-labels,122,1186083,0.0-45.0-1.0-0.0,anomymised,656582dc9140dccdaa20d120,65671cc2482012ec2adc31c2,5344,1C,woman,NA,NA,M3 is being greeted by W1,greet3,rating_causation,"{""Q0"":3}",[0],M3 started greeting W1 first,W1 started greeting M3 first
1059.4000000953674,NA,NA,NA,NA,survey-likert-extra-labels,123,1187146,0.0-45.0-2.0,anomymised,656582dc9140dccdaa20d120,65671cc2482012ec2adc31c2,5344,1C,woman,NA,NA,M3 is being greeted by W1,greet3,rating_volition,"{""Q0"":4}",[0],M3 wanted to greet W1,W1 wanted to greet M3
null,Luke is being seduced by Kate,NA,NA,NA,html-keyboard-response,124,1189149,0.0-46.0-0.0,anomymised,656582dc9140dccdaa20d120,65671cc2482012ec2adc31c2,5344,1C,woman,NA,null,M1 is being seduced by W3,seduce3,sentence,NA,NA,NA,NA
1050.7000000476837,NA,NA,NA,NA,survey-likert-extra-labels,125,1190201,0.0-46.0-2.0,anomymised,656582dc9140dccdaa20d120,65671cc2482012ec2adc31c2,5344,1C,woman,NA,NA,M1 is being seduced by W3,seduce3,rating_volition,"{""Q0"":4}",[0],W3 wanted to seduce M1,M1 wanted to seduce W3
1538.9000000953674,NA,NA,NA,NA,survey-likert-extra-labels,126,1191743,0.0-46.0-3.0-0.0,anomymised,656582dc9140dccdaa20d120,65671cc2482012ec2adc31c2,5344,1C,woman,NA,NA,M1 is being seduced by W3,seduce3,rating_causation,"{""Q0"":4}",[0],W3 started seducing M1 first,M1 started seducing W3 first
null,Luke is being looked at by Fred,NA,NA,NA,html-keyboard-response,127,1193744,0.0-47.0-0.0,anomymised,656582dc9140dccdaa20d120,65671cc2482012ec2adc31c2,5344,1C,woman,NA,null,M1 is being looked at by M3,look2,sentence,NA,NA,NA,NA
901.1000001430511,NA,NA,NA,NA,survey-likert-extra-labels,128,1194647,0.0-47.0-2.0,anomymised,656582dc9140dccdaa20d120,65671cc2482012ec2adc31c2,5344,1C,woman,NA,NA,M1 is being looked at by M3,look2,rating_volition,"{""Q0"":5}",[0],M1 wanted to look at M3,M3 wanted to look at M1
536.2999999523163,NA,NA,NA,NA,survey-likert-extra-labels,129,1195185,0.0-47.0-3.0-0.0,anomymised,656582dc9140dccdaa20d120,65671cc2482012ec2adc31c2,5344,1C,woman,NA,NA,M1 is being looked at by M3,look2,rating_causation,"{""Q0"":""""}",[0],M1 looked at M3 first,M3 looked at M1 first
null,Ruth is being kissed by Kate,NA,NA,NA,html-keyboard-response,130,1197194,0.0-48.0-0.0,anomymised,656582dc9140dccdaa20d120,65671cc2482012ec2adc31c2,5344,1C,woman,NA,null,W1 is being kissed by W3,kiss1,sentence,NA,NA,NA,NA
1060.5999999046326,NA,NA,NA,NA,survey-likert-extra-labels,131,1198256,0.0-48.0-1.0-0.0,anomymised,656582dc9140dccdaa20d120,65671cc2482012ec2adc31c2,5344,1C,woman,NA,NA,W1 is being kissed by W3,kiss1,rating_causation,"{""Q0"":4}",[0],W1 asked to kiss W3,W3 asked to kiss W1
1017.9000000953674,NA,NA,NA,NA,survey-likert-extra-labels,132,1199275,0.0-48.0-2.0,anomymised,656582dc9140dccdaa20d120,65671cc2482012ec2adc31c2,5344,1C,woman,NA,NA,W1 is being kissed by W3,kiss1,rating_volition,"{""Q0"":4}",[0],W1 wanted to kiss W3,W3 wanted to kiss W1
null,Luke is driving Fred,NA,NA,NA,html-keyboard-response,133,1201290,0.0-49.0-0.0,anomymised,656582dc9140dccdaa20d120,65671cc2482012ec2adc31c2,5344,1C,woman,NA,null,M1 is driving M3,drive,sentence,NA,NA,NA,NA
988.1999998092651,NA,NA,NA,NA,survey-likert-extra-labels,134,1202281,0.0-49.0-1.0-0.0,anomymised,656582dc9140dccdaa20d120,65671cc2482012ec2adc31c2,5344,1C,woman,NA,NA,M1 is driving M3,drive,rating_causation,"{""Q0"":2}",[0],M1 is taking M3 somewhere,M3 is taking M1 somewhere
1650.0999999046326,NA,NA,NA,NA,survey-likert-extra-labels,135,1203933,0.0-49.0-2.0,anomymised,656582dc9140dccdaa20d120,65671cc2482012ec2adc31c2,5344,1C,woman,NA,NA,M1 is driving M3,drive,rating_volition,"{""Q0"":1}",[0],M1 is M3's passenger,M3 is M1's passenger
null,Beth is being touched by Jane,NA,NA,NA,html-keyboard-response,136,1205942,0.0-50.0-0.0,anomymised,656582dc9140dccdaa20d120,65671cc2482012ec2adc31c2,5344,1C,woman,NA,null,W4 is being touched by W2,touch1,sentence,NA,NA,NA,NA
4773.700000047684,NA,NA,NA,NA,survey-likert-extra-labels,137,1210718,0.0-50.0-1.0-0.0,anomymised,656582dc9140dccdaa20d120,65671cc2482012ec2adc31c2,5344,1C,woman,NA,NA,W4 is being touched by W2,touch1,rating_causation,"{""Q0"":5}",[0],W2 asked to touch W4,W4 asked to touch W2
13107,NA,NA,NA,NA,survey-likert-extra-labels,138,1223829,0.0-50.0-2.0,anomymised,656582dc9140dccdaa20d120,65671cc2482012ec2adc31c2,5344,1C,woman,NA,NA,W4 is being touched by W2,touch1,rating_volition,"{""Q0"":4}",[0],W2 wanted to touch W4,W4 wanted to touch W2
null,Dave is being shouted at by Jane,NA,NA,NA,html-keyboard-response,139,1225835,0.0-51.0-0.0,anomymised,656582dc9140dccdaa20d120,65671cc2482012ec2adc31c2,5344,1C,woman,NA,null,M4 is being shouted at by W2,shout4,sentence,NA,NA,NA,NA
1313.2999999523163,NA,NA,NA,NA,survey-likert-extra-labels,140,1227150,0.0-51.0-2.0,anomymised,656582dc9140dccdaa20d120,65671cc2482012ec2adc31c2,5344,1C,woman,NA,NA,M4 is being shouted at by W2,shout4,rating_volition,"{""Q0"":5}",[0],W2 wanted to shout at M4,M4 wanted to shout at W2
1709.6000001430511,NA,NA,NA,NA,survey-likert-extra-labels,141,1228862,0.0-51.0-3.0-0.0,anomymised,656582dc9140dccdaa20d120,65671cc2482012ec2adc31c2,5344,1C,woman,NA,NA,M4 is being shouted at by W2,shout4,rating_causation,"{""Q0"":2}",[0],W2 shouted at M4 first,M4 shouted at W2 first
null,Kate is feeding Luke,NA,NA,NA,html-keyboard-response,142,1230877,0.0-52.0-0.0,anomymised,656582dc9140dccdaa20d120,65671cc2482012ec2adc31c2,5344,1C,woman,NA,null,W3 is feeding M1,feed,sentence,NA,NA,NA,NA
3467,NA,NA,NA,NA,survey-likert-extra-labels,143,1234345,0.0-52.0-1.0-0.0,anomymised,656582dc9140dccdaa20d120,65671cc2482012ec2adc31c2,5344,1C,woman,NA,NA,W3 is feeding M1,feed,rating_causation,"{""Q0"":2}",[0],W3 is eating M1's food,M1 is eating W3's food
1067.0999999046326,NA,NA,NA,NA,survey-likert-extra-labels,144,1235416,0.0-52.0-2.0,anomymised,656582dc9140dccdaa20d120,65671cc2482012ec2adc31c2,5344,1C,woman,NA,NA,W3 is feeding M1,feed,rating_volition,"{""Q0"":2}",[0],W3 cooked for M1,M1 cooked for W3
null,Kate is being copied by Luke,NA,NA,NA,html-keyboard-response,145,1237429,0.0-53.0-0.0,anomymised,656582dc9140dccdaa20d120,65671cc2482012ec2adc31c2,5344,1C,woman,NA,null,W3 is being copied by M1,copy3,sentence,NA,NA,NA,NA
1218.5,NA,NA,NA,NA,survey-likert-extra-labels,146,1238649,0.0-53.0-2.0,anomymised,656582dc9140dccdaa20d120,65671cc2482012ec2adc31c2,5344,1C,woman,NA,NA,W3 is being copied by M1,copy3,rating_volition,"{""Q0"":2}",[0],W3 wanted to copy M1,M1 wanted to copy W3
1009.1000001430511,NA,NA,NA,NA,survey-likert-extra-labels,147,1239660,0.0-53.0-3.0-0.0,anomymised,656582dc9140dccdaa20d120,65671cc2482012ec2adc31c2,5344,1C,woman,NA,NA,W3 is being copied by M1,copy3,rating_causation,"{""Q0"":2}",[0],W3 started copying M1 first,M1 started copying W3 first
null,Dave is being touched by Mike,NA,NA,NA,html-keyboard-response,148,1241672,0.0-54.0-0.0,anomymised,656582dc9140dccdaa20d120,65671cc2482012ec2adc31c2,5344,1C,woman,NA,null,M4 is being touched by M2,touch2,sentence,NA,NA,NA,NA
879.4000000953674,NA,NA,NA,NA,survey-likert-extra-labels,149,1242553,0.0-54.0-1.0-0.0,anomymised,656582dc9140dccdaa20d120,65671cc2482012ec2adc31c2,5344,1C,woman,NA,NA,M4 is being touched by M2,touch2,rating_causation,"{""Q0"":3}",[0],M2 asked to touch M4,M4 asked to touch M2
868.3000001907349,NA,NA,NA,NA,survey-likert-extra-labels,150,1243424,0.0-54.0-2.0,anomymised,656582dc9140dccdaa20d120,65671cc2482012ec2adc31c2,5344,1C,woman,NA,NA,M4 is being touched by M2,touch2,rating_volition,"{""Q0"":3}",[0],M2 wanted to touch M4,M4 wanted to touch M2
538.5,<p>Thank you for completing that task.</p><p>The final part of this session is a short questionnaire.</p><p>Press Continue.</p>,0,Continue,Continue,html-button-response,151,1243974,0.0-55.0,anomymised,656582dc9140dccdaa20d120,65671cc2482012ec2adc31c2,5344,1C,woman,NA,NA,NA,NA,NA,NA,NA,NA,NA
30041.299999952316,NA,NA,NA,NA,survey-text,152,1276356,0.0-56.0,anomymised,656582dc9140dccdaa20d120,65671cc2482012ec2adc31c2,5344,1C,woman,NA,NA,NA,NA,demographics,"{""Q0"":""21"",""Q1"":""english"",""Q2"":""english"",""Q3"":""UK"",""Q4"":""british "",""Q5"":""white "",""Q6"":""female""}",NA,NA,NA
4698.5,<p>This is the last question - thank you for taking part! Have you lived in the UK for the last 5 years or more?</p>,1,"Yes,No",No,html-button-response,153,1281058,0.0-57.0,anomymised,656582dc9140dccdaa20d120,65671cc2482012ec2adc31c2,5344,1C,woman,NA,NA,NA,NA,fiveyears,NA,NA,NA,NA
