rt,stimulus,button_pressed,choices,ChosenStimulus,trial_type,trial_index,time_elapsed,internal_node_id,subject_id,study_id,session_id,subject,list,ppt_gender,url,key_press,sentence_type,verb,test_part,responses,question_order,left_part,right_part
9869,Welcome to the experiment. Press Continue to begin.,0,Continue,Continue,html-button-response,0,9902,0.0-0.0,anomymised,656582bcfaaa3e760f369b3c,656608ad05d073b3a3e45479,55774,2A,woman,NA,NA,NA,NA,NA,NA,NA,NA,NA
10870,NA,NA,NA,NA,external-html,1,21931,0.0-1.0,anomymised,656582bcfaaa3e760f369b3c,656608ad05d073b3a3e45479,55774,2A,woman,consent.html,NA,NA,NA,NA,NA,NA,NA,NA
16790,"<p>Welcome.</p><p>In this experiment we will ask you to imagine some situations.</p><p>Each trial starts with a description of an event.</p><p>Then you will see alternative descriptions of that event, and you will rate on a scale how best they match the original description.</p><p>You will give your answer by clicking a button on a rating scale.</p><p>To do this task, you will have to use your imagination to visualise these events.</p><br><p>Ready?</p>",0,Continue,Continue,html-button-response,2,38729,0.0-2.0,anomymised,656582bcfaaa3e760f369b3c,656608ad05d073b3a3e45479,55774,2A,woman,NA,NA,NA,NA,NA,NA,NA,NA,NA
1824,"<p>Before the experiment starts, you will watch an example trial. Press 'Continue'.</p>",0,Continue,Continue,html-button-response,3,41556,0.0-3.0,anomymised,656582bcfaaa3e760f369b3c,656608ad05d073b3a3e45479,55774,2A,woman,NA,NA,NA,NA,NA,NA,NA,NA,NA
null,The police officer is arresting the robber,NA,NA,NA,html-keyboard-response,4,44564,0.0-4.0,anomymised,656582bcfaaa3e760f369b3c,656608ad05d073b3a3e45479,55774,2A,woman,NA,null,NA,NA,NA,NA,NA,NA,NA
13130,<img src='img/Example-trial.jpg' style='height:550px;''></img>,0,Continue,Continue,html-button-response,5,57696,0.0-5.0,anomymised,656582bcfaaa3e760f369b3c,656608ad05d073b3a3e45479,55774,2A,woman,NA,NA,NA,NA,NA,NA,NA,NA,NA
2992,<p>Ready to start the experiment?</p><br><p><strong>Remember to give an answer by clicking a button on the rating scale.</strong></p><p>Press 'Continue' to begin.</p>,0,Continue,Continue,html-button-response,6,61693,0.0-6.0,anomymised,656582bcfaaa3e760f369b3c,656608ad05d073b3a3e45479,55774,2A,woman,NA,NA,NA,NA,NA,NA,NA,NA,NA
null,Luke is being kissed by Fred,NA,NA,NA,html-keyboard-response,7,64697,0.0-7.0-0.0,anomymised,656582bcfaaa3e760f369b3c,656608ad05d073b3a3e45479,55774,2A,woman,NA,null,M3 is being kissed by M1,kiss2,sentence,NA,NA,NA,NA
12790,NA,NA,NA,NA,survey-likert-extra-labels,8,77494,0.0-7.0-2.0,anomymised,656582bcfaaa3e760f369b3c,656608ad05d073b3a3e45479,55774,2A,woman,NA,NA,M3 is being kissed by M1,kiss2,rating_volition,"{""Q0"":0}",[0],M1 wanted to kiss M3,M3 wanted to kiss M1
12078,NA,NA,NA,NA,survey-likert-extra-labels,9,89578,0.0-7.0-3.0-0.0,anomymised,656582bcfaaa3e760f369b3c,656608ad05d073b3a3e45479,55774,2A,woman,NA,NA,M3 is being kissed by M1,kiss2,rating_causation,"{""Q0"":1}",[0],M1 asked to kiss M3,M3 asked to kiss M1
null,Luke is being challenged by Beth,NA,NA,NA,html-keyboard-response,10,91585,0.0-8.0-0.0,anomymised,656582bcfaaa3e760f369b3c,656608ad05d073b3a3e45479,55774,2A,woman,NA,null,M3 is being challenged by W1,challenge3,sentence,NA,NA,NA,NA
6162,NA,NA,NA,NA,survey-likert-extra-labels,11,97751,0.0-8.0-2.0,anomymised,656582bcfaaa3e760f369b3c,656608ad05d073b3a3e45479,55774,2A,woman,NA,NA,M3 is being challenged by W1,challenge3,rating_volition,"{""Q0"":6}",[0],M3 wanted to challenge W1,W1 wanted to challenge M3
6850,NA,NA,NA,NA,survey-likert-extra-labels,12,104608,0.0-8.0-3.0-0.0,anomymised,656582bcfaaa3e760f369b3c,656608ad05d073b3a3e45479,55774,2A,woman,NA,NA,M3 is being challenged by W1,challenge3,rating_causation,"{""Q0"":5}",[0],M3 started challenging W1 first,W1 started challenging M3 first
null,Fred is being opposed by Luke,NA,NA,NA,html-keyboard-response,13,106613,0.0-9.0-0.0,anomymised,656582bcfaaa3e760f369b3c,656608ad05d073b3a3e45479,55774,2A,woman,NA,null,M1 is being opposed by M3,oppose2,sentence,NA,NA,NA,NA
6713,NA,NA,NA,NA,survey-likert-extra-labels,14,113329,0.0-9.0-2.0,anomymised,656582bcfaaa3e760f369b3c,656608ad05d073b3a3e45479,55774,2A,woman,NA,NA,M1 is being opposed by M3,oppose2,rating_volition,"{""Q0"":6}",[0],M1 wanted to oppose M3,M3 wanted to oppose M1
9987,NA,NA,NA,NA,survey-likert-extra-labels,15,123324,0.0-9.0-3.0-0.0,anomymised,656582bcfaaa3e760f369b3c,656608ad05d073b3a3e45479,55774,2A,woman,NA,NA,M1 is being opposed by M3,oppose2,rating_causation,"{""Q0"":4}",[0],M1 started opposing M3,M3 started opposing M1
null,Dave is being touched by Mike,NA,NA,NA,html-keyboard-response,16,125330,0.0-10.0-0.0,anomymised,656582bcfaaa3e760f369b3c,656608ad05d073b3a3e45479,55774,2A,woman,NA,null,M2 is being touched by M4,touch2,sentence,NA,NA,NA,NA
4437,NA,NA,NA,NA,survey-likert-extra-labels,17,129769,0.0-10.0-2.0,anomymised,656582bcfaaa3e760f369b3c,656608ad05d073b3a3e45479,55774,2A,woman,NA,NA,M2 is being touched by M4,touch2,rating_volition,"{""Q0"":6}",[0],M2 wanted to touch M4,M4 wanted to touch M2
23570,NA,NA,NA,NA,survey-likert-extra-labels,18,153347,0.0-10.0-3.0-0.0,anomymised,656582bcfaaa3e760f369b3c,656608ad05d073b3a3e45479,55774,2A,woman,NA,NA,M2 is being touched by M4,touch2,rating_causation,"{""Q0"":4}",[0],M2 asked to touch M4,M4 asked to touch M2
null,Jane is feeding Fred,NA,NA,NA,html-keyboard-response,19,155354,0.0-11.0-0.0,anomymised,656582bcfaaa3e760f369b3c,656608ad05d073b3a3e45479,55774,2A,woman,NA,null,W3 is feeding M1,feed,sentence,NA,NA,NA,NA
6143,NA,NA,NA,NA,survey-likert-extra-labels,20,161498,0.0-11.0-2.0,anomymised,656582bcfaaa3e760f369b3c,656608ad05d073b3a3e45479,55774,2A,woman,NA,NA,W3 is feeding M1,feed,rating_volition,"{""Q0"":1}",[0],W3 cooked for M1,M1 cooked for W3
5434,NA,NA,NA,NA,survey-likert-extra-labels,21,166935,0.0-11.0-3.0-0.0,anomymised,656582bcfaaa3e760f369b3c,656608ad05d073b3a3e45479,55774,2A,woman,NA,NA,W3 is feeding M1,feed,rating_causation,"{""Q0"":5}",[0],W3 is eating M1's food,M1 is eating W3's food
null,Mike is being looked at by Kate,NA,NA,NA,html-keyboard-response,22,168940,0.0-12.0-0.0,anomymised,656582bcfaaa3e760f369b3c,656608ad05d073b3a3e45479,55774,2A,woman,NA,null,M4 is being looked at by W2,look3,sentence,NA,NA,NA,NA
11386,NA,NA,NA,NA,survey-likert-extra-labels,23,180331,0.0-12.0-1.0-0.0,anomymised,656582bcfaaa3e760f369b3c,656608ad05d073b3a3e45479,55774,2A,woman,NA,NA,M4 is being looked at by W2,look3,rating_causation,"{""Q0"":3}",[0],W2 looked at M4 first,M4 looked at W2 first
8169,NA,NA,NA,NA,survey-likert-extra-labels,24,188509,0.0-12.0-2.0,anomymised,656582bcfaaa3e760f369b3c,656608ad05d073b3a3e45479,55774,2A,woman,NA,NA,M4 is being looked at by W2,look3,rating_volition,"{""Q0"":""""}",[0],W2 wanted to look at M4,M4 wanted to look at W2
null,Dave is posing for Mike,NA,NA,NA,html-keyboard-response,25,190515,0.0-13.0-0.0,anomymised,656582bcfaaa3e760f369b3c,656608ad05d073b3a3e45479,55774,2A,woman,NA,null,M2 is posing for M4,pose,sentence,NA,NA,NA,NA
8858,NA,NA,NA,NA,survey-likert-extra-labels,26,199377,0.0-13.0-1.0-0.0,anomymised,656582bcfaaa3e760f369b3c,656608ad05d073b3a3e45479,55774,2A,woman,NA,NA,M2 is posing for M4,pose,rating_causation,"{""Q0"":4}",[0],M2 is photographing M4,M4 is photographing M2
38498,NA,NA,NA,NA,survey-likert-extra-labels,27,237879,0.0-13.0-2.0,anomymised,656582bcfaaa3e760f369b3c,656608ad05d073b3a3e45479,55774,2A,woman,NA,NA,M2 is posing for M4,pose,rating_volition,"{""Q0"":1}",[0],M2 is modelling for M4,M4 is modelling for M2
null,Mike is being kissed by Kate,NA,NA,NA,html-keyboard-response,28,239885,0.0-14.0-0.0,anomymised,656582bcfaaa3e760f369b3c,656608ad05d073b3a3e45479,55774,2A,woman,NA,null,M4 is being kissed by W2,kiss4,sentence,NA,NA,NA,NA
12912,NA,NA,NA,NA,survey-likert-extra-labels,29,252800,0.0-14.0-1.0-0.0,anomymised,656582bcfaaa3e760f369b3c,656608ad05d073b3a3e45479,55774,2A,woman,NA,NA,M4 is being kissed by W2,kiss4,rating_causation,"{""Q0"":1}",[0],W2 asked to kiss M4,M4 asked to kiss W2
4902,NA,NA,NA,NA,survey-likert-extra-labels,30,257708,0.0-14.0-2.0,anomymised,656582bcfaaa3e760f369b3c,656608ad05d073b3a3e45479,55774,2A,woman,NA,NA,M4 is being kissed by W2,kiss4,rating_volition,"{""Q0"":1}",[0],W2 wanted to kiss M4,M4 wanted to kiss W2
null,Beth is being hugged by Jane,NA,NA,NA,html-keyboard-response,31,259714,0.0-15.0-0.0,anomymised,656582bcfaaa3e760f369b3c,656608ad05d073b3a3e45479,55774,2A,woman,NA,null,W1 is being hugged by W3,hug1,sentence,NA,NA,NA,NA
7375,NA,NA,NA,NA,survey-likert-extra-labels,32,267092,0.0-15.0-1.0-0.0,anomymised,656582bcfaaa3e760f369b3c,656608ad05d073b3a3e45479,55774,2A,woman,NA,NA,W1 is being hugged by W3,hug1,rating_causation,"{""Q0"":5}",[0],W1 asked to hug W3,W3 asked to hug W1
13202,NA,NA,NA,NA,survey-likert-extra-labels,33,280297,0.0-15.0-2.0,anomymised,656582bcfaaa3e760f369b3c,656608ad05d073b3a3e45479,55774,2A,woman,NA,NA,W1 is being hugged by W3,hug1,rating_volition,"{""Q0"":5}",[0],W1 wanted to hug W3,W3 wanted to hug W1
null,Dave is being challenged by Mike,NA,NA,NA,html-keyboard-response,34,282300,0.0-16.0-0.0,anomymised,656582bcfaaa3e760f369b3c,656608ad05d073b3a3e45479,55774,2A,woman,NA,null,M2 is being challenged by M4,challenge2,sentence,NA,NA,NA,NA
17995,NA,NA,NA,NA,survey-likert-extra-labels,35,300296,0.0-16.0-2.0,anomymised,656582bcfaaa3e760f369b3c,656608ad05d073b3a3e45479,55774,2A,woman,NA,NA,M2 is being challenged by M4,challenge2,rating_volition,"{""Q0"":6}",[0],M2 wanted to challenge M4,M4 wanted to challenge M2
12842,NA,NA,NA,NA,survey-likert-extra-labels,36,313144,0.0-16.0-3.0-0.0,anomymised,656582bcfaaa3e760f369b3c,656608ad05d073b3a3e45479,55774,2A,woman,NA,NA,M2 is being challenged by M4,challenge2,rating_causation,"{""Q0"":4}",[0],M2 started challenging M4 first,M4 started challenging M2 first
null,Kate is being challenged by Ruth,NA,NA,NA,html-keyboard-response,37,315146,0.0-17.0-0.0,anomymised,656582bcfaaa3e760f369b3c,656608ad05d073b3a3e45479,55774,2A,woman,NA,null,W2 is being challenged by W4,challenge1,sentence,NA,NA,NA,NA
5627,NA,NA,NA,NA,survey-likert-extra-labels,38,320778,0.0-17.0-2.0,anomymised,656582bcfaaa3e760f369b3c,656608ad05d073b3a3e45479,55774,2A,woman,NA,NA,W2 is being challenged by W4,challenge1,rating_volition,"{""Q0"":5}",[0],W2 wanted to challenge W4,W4 wanted to challenge W2
19756,NA,NA,NA,NA,survey-likert-extra-labels,39,340537,0.0-17.0-3.0-0.0,anomymised,656582bcfaaa3e760f369b3c,656608ad05d073b3a3e45479,55774,2A,woman,NA,NA,W2 is being challenged by W4,challenge1,rating_causation,"{""Q0"":5}",[0],W2 started challenging W4 first,W4 started challenging W2 first
null,Ruth is being copied by Kate,NA,NA,NA,html-keyboard-response,40,342542,0.0-18.0-0.0,anomymised,656582bcfaaa3e760f369b3c,656608ad05d073b3a3e45479,55774,2A,woman,NA,null,W4 is being copied by W2,copy1,sentence,NA,NA,NA,NA
25024,NA,NA,NA,NA,survey-likert-extra-labels,41,367571,0.0-18.0-1.0-0.0,anomymised,656582bcfaaa3e760f369b3c,656608ad05d073b3a3e45479,55774,2A,woman,NA,NA,W4 is being copied by W2,copy1,rating_causation,"{""Q0"":0}",[0],W2 started copying W4 first,W4 started copying W2 first
12027,NA,NA,NA,NA,survey-likert-extra-labels,42,379606,0.0-18.0-2.0,anomymised,656582bcfaaa3e760f369b3c,656608ad05d073b3a3e45479,55774,2A,woman,NA,NA,W4 is being copied by W2,copy1,rating_volition,"{""Q0"":1}",[0],W2 wanted to copy W4,W4 wanted to copy W2
null,Fred is being hugged by Luke,NA,NA,NA,html-keyboard-response,43,381609,0.0-19.0-0.0,anomymised,656582bcfaaa3e760f369b3c,656608ad05d073b3a3e45479,55774,2A,woman,NA,null,M1 is being hugged by M3,hug2,sentence,NA,NA,NA,NA
8747,NA,NA,NA,NA,survey-likert-extra-labels,44,390360,0.0-19.0-1.0-0.0,anomymised,656582bcfaaa3e760f369b3c,656608ad05d073b3a3e45479,55774,2A,woman,NA,NA,M1 is being hugged by M3,hug2,rating_causation,"{""Q0"":5}",[0],M1 asked to hug M3,M3 asked to hug M1
7173,NA,NA,NA,NA,survey-likert-extra-labels,45,397536,0.0-19.0-2.0,anomymised,656582bcfaaa3e760f369b3c,656608ad05d073b3a3e45479,55774,2A,woman,NA,NA,M1 is being hugged by M3,hug2,rating_volition,"{""Q0"":5}",[0],M1 wanted to hug M3,M3 wanted to hug M1
null,Dave is being seduced by Mike,NA,NA,NA,html-keyboard-response,46,399544,0.0-20.0-0.0,anomymised,656582bcfaaa3e760f369b3c,656608ad05d073b3a3e45479,55774,2A,woman,NA,null,M2 is being seduced by M4,seduce2,sentence,NA,NA,NA,NA
4032,NA,NA,NA,NA,survey-likert-extra-labels,47,403580,0.0-20.0-2.0,anomymised,656582bcfaaa3e760f369b3c,656608ad05d073b3a3e45479,55774,2A,woman,NA,NA,M2 is being seduced by M4,seduce2,rating_volition,"{""Q0"":6}",[0],M2 wanted to seduce M4,M4 wanted to seduce M2
8091,NA,NA,NA,NA,survey-likert-extra-labels,48,411676,0.0-20.0-3.0-0.0,anomymised,656582bcfaaa3e760f369b3c,656608ad05d073b3a3e45479,55774,2A,woman,NA,NA,M2 is being seduced by M4,seduce2,rating_causation,"{""Q0"":3}",[0],M2 started seducing M4 first,M4 started seducing M2 first
null,Beth is being shouted at by Jane,NA,NA,NA,html-keyboard-response,49,413682,0.0-21.0-0.0,anomymised,656582bcfaaa3e760f369b3c,656608ad05d073b3a3e45479,55774,2A,woman,NA,null,W1 is being shouted at by W3,shout1,sentence,NA,NA,NA,NA
15845,NA,NA,NA,NA,survey-likert-extra-labels,50,429532,0.0-21.0-2.0,anomymised,656582bcfaaa3e760f369b3c,656608ad05d073b3a3e45479,55774,2A,woman,NA,NA,W1 is being shouted at by W3,shout1,rating_volition,"{""Q0"":5}",[0],W1 wanted to shout at W3,W3 wanted to shout at W1
4202,NA,NA,NA,NA,survey-likert-extra-labels,51,433739,0.0-21.0-3.0-0.0,anomymised,656582bcfaaa3e760f369b3c,656608ad05d073b3a3e45479,55774,2A,woman,NA,NA,W1 is being shouted at by W3,shout1,rating_causation,"{""Q0"":3}",[0],W1 shouted at W3 first,W3 shouted at W1 first
null,Mike is being greeted by Dave,NA,NA,NA,html-keyboard-response,52,435741,0.0-22.0-0.0,anomymised,656582bcfaaa3e760f369b3c,656608ad05d073b3a3e45479,55774,2A,woman,NA,null,M4 is being greeted by M2,greet2,sentence,NA,NA,NA,NA
4681,NA,NA,NA,NA,survey-likert-extra-labels,53,440428,0.0-22.0-2.0,anomymised,656582bcfaaa3e760f369b3c,656608ad05d073b3a3e45479,55774,2A,woman,NA,NA,M4 is being greeted by M2,greet2,rating_volition,"{""Q0"":0}",[0],M2 wanted to greet M4,M4 wanted to greet M2
5541,NA,NA,NA,NA,survey-likert-extra-labels,54,445977,0.0-22.0-3.0-0.0,anomymised,656582bcfaaa3e760f369b3c,656608ad05d073b3a3e45479,55774,2A,woman,NA,NA,M4 is being greeted by M2,greet2,rating_causation,"{""Q0"":3}",[0],M2 started greeting M4 first,M4 started greeting M2 first
null,Fred is being copied by Jane,NA,NA,NA,html-keyboard-response,55,447983,0.0-23.0-0.0,anomymised,656582bcfaaa3e760f369b3c,656608ad05d073b3a3e45479,55774,2A,woman,NA,null,M1 is being copied by W3,copy3,sentence,NA,NA,NA,NA
11760,NA,NA,NA,NA,survey-likert-extra-labels,56,459745,0.0-23.0-1.0-0.0,anomymised,656582bcfaaa3e760f369b3c,656608ad05d073b3a3e45479,55774,2A,woman,NA,NA,M1 is being copied by W3,copy3,rating_causation,"{""Q0"":1}",[0],W3 started copying M1 first,M1 started copying W3 first
7018,NA,NA,NA,NA,survey-likert-extra-labels,57,466773,0.0-23.0-2.0,anomymised,656582bcfaaa3e760f369b3c,656608ad05d073b3a3e45479,55774,2A,woman,NA,NA,M1 is being copied by W3,copy3,rating_volition,"{""Q0"":0}",[0],W3 wanted to copy M1,M1 wanted to copy W3
null,Luke is being looked at by Fred,NA,NA,NA,html-keyboard-response,58,468779,0.0-24.0-0.0,anomymised,656582bcfaaa3e760f369b3c,656608ad05d073b3a3e45479,55774,2A,woman,NA,null,M3 is being looked at by M1,look2,sentence,NA,NA,NA,NA
33614,NA,NA,NA,NA,survey-likert-extra-labels,59,502397,0.0-24.0-2.0,anomymised,656582bcfaaa3e760f369b3c,656608ad05d073b3a3e45479,55774,2A,woman,NA,NA,M3 is being looked at by M1,look2,rating_volition,"{""Q0"":0}",[0],M1 wanted to look at M3,M3 wanted to look at M1
30417,NA,NA,NA,NA,survey-likert-extra-labels,60,532821,0.0-24.0-3.0-0.0,anomymised,656582bcfaaa3e760f369b3c,656608ad05d073b3a3e45479,55774,2A,woman,NA,NA,M3 is being looked at by M1,look2,rating_causation,"{""Q0"":2}",[0],M1 looked at M3 first,M3 looked at M1 first
null,Kate is teaching Mike,NA,NA,NA,html-keyboard-response,61,534823,0.0-25.0-0.0,anomymised,656582bcfaaa3e760f369b3c,656608ad05d073b3a3e45479,55774,2A,woman,NA,null,W2 is teaching M4,teach,sentence,NA,NA,NA,NA
6452,NA,NA,NA,NA,survey-likert-extra-labels,62,541280,0.0-25.0-1.0-0.0,anomymised,656582bcfaaa3e760f369b3c,656608ad05d073b3a3e45479,55774,2A,woman,NA,NA,W2 is teaching M4,teach,rating_causation,"{""Q0"":5}",[0],W2 is learning from M4,M4 is learning from W2
6258,NA,NA,NA,NA,survey-likert-extra-labels,63,547545,0.0-25.0-2.0,anomymised,656582bcfaaa3e760f369b3c,656608ad05d073b3a3e45479,55774,2A,woman,NA,NA,W2 is teaching M4,teach,rating_volition,"{""Q0"":0}",[0],W2 is educating M4,M4 is educating W2
null,Dave is being opposed by Ruth,NA,NA,NA,html-keyboard-response,64,549549,0.0-26.0-0.0,anomymised,656582bcfaaa3e760f369b3c,656608ad05d073b3a3e45479,55774,2A,woman,NA,null,M2 is being opposed by W4,oppose4,sentence,NA,NA,NA,NA
5572,NA,NA,NA,NA,survey-likert-extra-labels,65,555124,0.0-26.0-2.0,anomymised,656582bcfaaa3e760f369b3c,656608ad05d073b3a3e45479,55774,2A,woman,NA,NA,M2 is being opposed by W4,oppose4,rating_volition,"{""Q0"":5}",[0],M2 wanted to oppose W4,W4 wanted to oppose M2
6032,NA,NA,NA,NA,survey-likert-extra-labels,66,561164,0.0-26.0-3.0-0.0,anomymised,656582bcfaaa3e760f369b3c,656608ad05d073b3a3e45479,55774,2A,woman,NA,NA,M2 is being opposed by W4,oppose4,rating_causation,"{""Q0"":4}",[0],M2 started opposing W4,W4 started opposing M2
null,Beth is being copied by Luke,NA,NA,NA,html-keyboard-response,67,563171,0.0-27.0-0.0,anomymised,656582bcfaaa3e760f369b3c,656608ad05d073b3a3e45479,55774,2A,woman,NA,null,W1 is being copied by M3,copy4,sentence,NA,NA,NA,NA
13748,NA,NA,NA,NA,survey-likert-extra-labels,68,576922,0.0-27.0-2.0,anomymised,656582bcfaaa3e760f369b3c,656608ad05d073b3a3e45479,55774,2A,woman,NA,NA,W1 is being copied by M3,copy4,rating_volition,"{""Q0"":0}",[0],M3 wanted to copy W1,W1 wanted to copy M3
9377,NA,NA,NA,NA,survey-likert-extra-labels,69,586305,0.0-27.0-3.0-0.0,anomymised,656582bcfaaa3e760f369b3c,656608ad05d073b3a3e45479,55774,2A,woman,NA,NA,W1 is being copied by M3,copy4,rating_causation,"{""Q0"":1}",[0],M3 started copying W1 first,W1 started copying M3 first
null,Dave is reminding Ruth,NA,NA,NA,html-keyboard-response,70,588307,0.0-28.0-0.0,anomymised,656582bcfaaa3e760f369b3c,656608ad05d073b3a3e45479,55774,2A,woman,NA,null,M2 is reminding W4,remind,sentence,NA,NA,NA,NA
7271,NA,NA,NA,NA,survey-likert-extra-labels,71,595583,0.0-28.0-2.0,anomymised,656582bcfaaa3e760f369b3c,656608ad05d073b3a3e45479,55774,2A,woman,NA,NA,M2 is reminding W4,remind,rating_volition,"{""Q0"":0}",[0],M2 is telling W4 again,W4 is telling M2 again
8324,NA,NA,NA,NA,survey-likert-extra-labels,72,603915,0.0-28.0-3.0-0.0,anomymised,656582bcfaaa3e760f369b3c,656608ad05d073b3a3e45479,55774,2A,woman,NA,NA,M2 is reminding W4,remind,rating_causation,"{""Q0"":1}",[0],M2 is remembering,W4 is remembering
null,Beth is being greeted by Luke,NA,NA,NA,html-keyboard-response,73,605922,0.0-29.0-0.0,anomymised,656582bcfaaa3e760f369b3c,656608ad05d073b3a3e45479,55774,2A,woman,NA,null,W1 is being greeted by M3,greet3,sentence,NA,NA,NA,NA
11160,NA,NA,NA,NA,survey-likert-extra-labels,74,617085,0.0-29.0-1.0-0.0,anomymised,656582bcfaaa3e760f369b3c,656608ad05d073b3a3e45479,55774,2A,woman,NA,NA,W1 is being greeted by M3,greet3,rating_causation,"{""Q0"":1}",[0],M3 started greeting W1 first,W1 started greeting M3 first
8348,NA,NA,NA,NA,survey-likert-extra-labels,75,625436,0.0-29.0-2.0,anomymised,656582bcfaaa3e760f369b3c,656608ad05d073b3a3e45479,55774,2A,woman,NA,NA,W1 is being greeted by M3,greet3,rating_volition,"{""Q0"":1}",[0],M3 wanted to greet W1,W1 wanted to greet M3
null,Jane is being looked at by Beth,NA,NA,NA,html-keyboard-response,76,627439,0.0-30.0-0.0,anomymised,656582bcfaaa3e760f369b3c,656608ad05d073b3a3e45479,55774,2A,woman,NA,null,W3 is being looked at by W1,look1,sentence,NA,NA,NA,NA
4939,NA,NA,NA,NA,survey-likert-extra-labels,77,632383,0.0-30.0-2.0,anomymised,656582bcfaaa3e760f369b3c,656608ad05d073b3a3e45479,55774,2A,woman,NA,NA,W3 is being looked at by W1,look1,rating_volition,"{""Q0"":1}",[0],W1 wanted to look at W3,W3 wanted to look at W1
10609,NA,NA,NA,NA,survey-likert-extra-labels,78,642995,0.0-30.0-3.0-0.0,anomymised,656582bcfaaa3e760f369b3c,656608ad05d073b3a3e45479,55774,2A,woman,NA,NA,W3 is being looked at by W1,look1,rating_causation,"{""Q0"":2}",[0],W1 looked at W3 first,W3 looked at W1 first
null,Luke is being touched by Beth,NA,NA,NA,html-keyboard-response,79,644998,0.0-31.0-0.0,anomymised,656582bcfaaa3e760f369b3c,656608ad05d073b3a3e45479,55774,2A,woman,NA,null,M3 is being touched by W1,touch4,sentence,NA,NA,NA,NA
16711,NA,NA,NA,NA,survey-likert-extra-labels,80,661712,0.0-31.0-1.0-0.0,anomymised,656582bcfaaa3e760f369b3c,656608ad05d073b3a3e45479,55774,2A,woman,NA,NA,M3 is being touched by W1,touch4,rating_causation,"{""Q0"":4}",[0],M3 asked to touch W1,W1 asked to touch M3
5656,NA,NA,NA,NA,survey-likert-extra-labels,81,667370,0.0-31.0-2.0,anomymised,656582bcfaaa3e760f369b3c,656608ad05d073b3a3e45479,55774,2A,woman,NA,NA,M3 is being touched by W1,touch4,rating_volition,"{""Q0"":5}",[0],M3 wanted to touch W1,W1 wanted to touch M3
null,Fred is being greeted by Jane,NA,NA,NA,html-keyboard-response,82,669374,0.0-32.0-0.0,anomymised,656582bcfaaa3e760f369b3c,656608ad05d073b3a3e45479,55774,2A,woman,NA,null,M1 is being greeted by W3,greet4,sentence,NA,NA,NA,NA
5598,NA,NA,NA,NA,survey-likert-extra-labels,83,674974,0.0-32.0-2.0,anomymised,656582bcfaaa3e760f369b3c,656608ad05d073b3a3e45479,55774,2A,woman,NA,NA,M1 is being greeted by W3,greet4,rating_volition,"{""Q0"":1}",[0],W3 wanted to greet M1,M1 wanted to greet W3
15070,NA,NA,NA,NA,survey-likert-extra-labels,84,690047,0.0-32.0-3.0-0.0,anomymised,656582bcfaaa3e760f369b3c,656608ad05d073b3a3e45479,55774,2A,woman,NA,NA,M1 is being greeted by W3,greet4,rating_causation,"{""Q0"":2}",[0],W3 started greeting M1 first,M1 started greeting W3 first
null,Ruth is being kissed by Dave,NA,NA,NA,html-keyboard-response,85,692049,0.0-33.0-0.0,anomymised,656582bcfaaa3e760f369b3c,656608ad05d073b3a3e45479,55774,2A,woman,NA,null,W4 is being kissed by M2,kiss3,sentence,NA,NA,NA,NA
14400,NA,NA,NA,NA,survey-likert-extra-labels,86,706454,0.0-33.0-2.0,anomymised,656582bcfaaa3e760f369b3c,656608ad05d073b3a3e45479,55774,2A,woman,NA,NA,W4 is being kissed by M2,kiss3,rating_volition,"{""Q0"":0}",[0],M2 wanted to kiss W4,W4 wanted to kiss M2
1915,NA,NA,NA,NA,survey-likert-extra-labels,87,708378,0.0-33.0-3.0-0.0,anomymised,656582bcfaaa3e760f369b3c,656608ad05d073b3a3e45479,55774,2A,woman,NA,NA,W4 is being kissed by M2,kiss3,rating_causation,"{""Q0"":""""}",[0],M2 asked to kiss W4,W4 asked to kiss M2
null,Ruth is being looked at by Dave,NA,NA,NA,html-keyboard-response,88,710379,0.0-34.0-0.0,anomymised,656582bcfaaa3e760f369b3c,656608ad05d073b3a3e45479,55774,2A,woman,NA,null,W4 is being looked at by M2,look4,sentence,NA,NA,NA,NA
19566,NA,NA,NA,NA,survey-likert-extra-labels,89,729949,0.0-34.0-2.0,anomymised,656582bcfaaa3e760f369b3c,656608ad05d073b3a3e45479,55774,2A,woman,NA,NA,W4 is being looked at by M2,look4,rating_volition,"{""Q0"":0}",[0],M2 wanted to look at W4,W4 wanted to look at M2
6565,NA,NA,NA,NA,survey-likert-extra-labels,90,736522,0.0-34.0-3.0-0.0,anomymised,656582bcfaaa3e760f369b3c,656608ad05d073b3a3e45479,55774,2A,woman,NA,NA,W4 is being looked at by M2,look4,rating_causation,"{""Q0"":3}",[0],M2 looked at W4 first,W4 looked at M2 first
null,Jane is being challenged by Fred,NA,NA,NA,html-keyboard-response,91,738528,0.0-35.0-0.0,anomymised,656582bcfaaa3e760f369b3c,656608ad05d073b3a3e45479,55774,2A,woman,NA,null,W3 is being challenged by M1,challenge4,sentence,NA,NA,NA,NA
5351,NA,NA,NA,NA,survey-likert-extra-labels,92,743880,0.0-35.0-1.0-0.0,anomymised,656582bcfaaa3e760f369b3c,656608ad05d073b3a3e45479,55774,2A,woman,NA,NA,W3 is being challenged by M1,challenge4,rating_causation,"{""Q0"":4}",[0],W3 started challenging M1 first,M1 started challenging W3 first
9639,NA,NA,NA,NA,survey-likert-extra-labels,93,753523,0.0-35.0-2.0,anomymised,656582bcfaaa3e760f369b3c,656608ad05d073b3a3e45479,55774,2A,woman,NA,NA,W3 is being challenged by M1,challenge4,rating_volition,"{""Q0"":5}",[0],W3 wanted to challenge M1,M1 wanted to challenge W3
null,Kate is carrying Ruth,NA,NA,NA,html-keyboard-response,94,755525,0.0-36.0-0.0,anomymised,656582bcfaaa3e760f369b3c,656608ad05d073b3a3e45479,55774,2A,woman,NA,null,W2 is carrying W4,carry,sentence,NA,NA,NA,NA
6076,NA,NA,NA,NA,survey-likert-extra-labels,95,761605,0.0-36.0-2.0,anomymised,656582bcfaaa3e760f369b3c,656608ad05d073b3a3e45479,55774,2A,woman,NA,NA,W2 is carrying W4,carry,rating_volition,"{""Q0"":0}",[0],W2 is transporting W4,W4 is transporting W2
11648,NA,NA,NA,NA,survey-likert-extra-labels,96,773259,0.0-36.0-3.0-0.0,anomymised,656582bcfaaa3e760f369b3c,656608ad05d073b3a3e45479,55774,2A,woman,NA,NA,W2 is carrying W4,carry,rating_causation,"{""Q0"":6}",[0],W2 is being moved by W4,W4 is being moved by W2
null,Ruth is being greeted by Kate,NA,NA,NA,html-keyboard-response,97,775261,0.0-37.0-0.0,anomymised,656582bcfaaa3e760f369b3c,656608ad05d073b3a3e45479,55774,2A,woman,NA,null,W4 is being greeted by W2,greet1,sentence,NA,NA,NA,NA
5014,NA,NA,NA,NA,survey-likert-extra-labels,98,780276,0.0-37.0-1.0-0.0,anomymised,656582bcfaaa3e760f369b3c,656608ad05d073b3a3e45479,55774,2A,woman,NA,NA,W4 is being greeted by W2,greet1,rating_causation,"{""Q0"":3}",[0],W2 started greeting W4 first,W4 started greeting W2 first
11913,NA,NA,NA,NA,survey-likert-extra-labels,99,792194,0.0-37.0-2.0,anomymised,656582bcfaaa3e760f369b3c,656608ad05d073b3a3e45479,55774,2A,woman,NA,NA,W4 is being greeted by W2,greet1,rating_volition,"{""Q0"":0}",[0],W2 wanted to greet W4,W4 wanted to greet W2
null,Mike is being copied by Dave,NA,NA,NA,html-keyboard-response,100,794200,0.0-38.0-0.0,anomymised,656582bcfaaa3e760f369b3c,656608ad05d073b3a3e45479,55774,2A,woman,NA,null,M4 is being copied by M2,copy2,sentence,NA,NA,NA,NA
22123,NA,NA,NA,NA,survey-likert-extra-labels,101,816325,0.0-38.0-1.0-0.0,anomymised,656582bcfaaa3e760f369b3c,656608ad05d073b3a3e45479,55774,2A,woman,NA,NA,M4 is being copied by M2,copy2,rating_causation,"{""Q0"":1}",[0],M2 started copying M4 first,M4 started copying M2 first
4201,NA,NA,NA,NA,survey-likert-extra-labels,102,820529,0.0-38.0-2.0,anomymised,656582bcfaaa3e760f369b3c,656608ad05d073b3a3e45479,55774,2A,woman,NA,NA,M4 is being copied by M2,copy2,rating_volition,"{""Q0"":0}",[0],M2 wanted to copy M4,M4 wanted to copy M2
null,Jane is being kissed by Beth,NA,NA,NA,html-keyboard-response,103,822536,0.0-39.0-0.0,anomymised,656582bcfaaa3e760f369b3c,656608ad05d073b3a3e45479,55774,2A,woman,NA,null,W3 is being kissed by W1,kiss1,sentence,NA,NA,NA,NA
5270,NA,NA,NA,NA,survey-likert-extra-labels,104,827809,0.0-39.0-2.0,anomymised,656582bcfaaa3e760f369b3c,656608ad05d073b3a3e45479,55774,2A,woman,NA,NA,W3 is being kissed by W1,kiss1,rating_volition,"{""Q0"":0}",[0],W1 wanted to kiss W3,W3 wanted to kiss W1
5086,NA,NA,NA,NA,survey-likert-extra-labels,105,832897,0.0-39.0-3.0-0.0,anomymised,656582bcfaaa3e760f369b3c,656608ad05d073b3a3e45479,55774,2A,woman,NA,NA,W3 is being kissed by W1,kiss1,rating_causation,"{""Q0"":1}",[0],W1 asked to kiss W3,W3 asked to kiss W1
null,Dave is being shouted at by Ruth,NA,NA,NA,html-keyboard-response,106,834901,0.0-40.0-0.0,anomymised,656582bcfaaa3e760f369b3c,656608ad05d073b3a3e45479,55774,2A,woman,NA,null,M2 is being shouted at by W4,shout3,sentence,NA,NA,NA,NA
45116,NA,NA,NA,NA,survey-likert-extra-labels,107,880020,0.0-40.0-1.0-0.0,anomymised,656582bcfaaa3e760f369b3c,656608ad05d073b3a3e45479,55774,2A,woman,NA,NA,M2 is being shouted at by W4,shout3,rating_causation,"{""Q0"":3}",[0],M2 shouted at W4 first,W4 shouted at M2 first
6136,NA,NA,NA,NA,survey-likert-extra-labels,108,886165,0.0-40.0-2.0,anomymised,656582bcfaaa3e760f369b3c,656608ad05d073b3a3e45479,55774,2A,woman,NA,NA,M2 is being shouted at by W4,shout3,rating_volition,"{""Q0"":6}",[0],M2 wanted to shout at W4,W4 wanted to shout at M2
null,Kate is being opposed by Mike,NA,NA,NA,html-keyboard-response,109,888169,0.0-41.0-0.0,anomymised,656582bcfaaa3e760f369b3c,656608ad05d073b3a3e45479,55774,2A,woman,NA,null,W2 is being opposed by M4,oppose3,sentence,NA,NA,NA,NA
8714,NA,NA,NA,NA,survey-likert-extra-labels,110,896885,0.0-41.0-1.0-0.0,anomymised,656582bcfaaa3e760f369b3c,656608ad05d073b3a3e45479,55774,2A,woman,NA,NA,W2 is being opposed by M4,oppose3,rating_causation,"{""Q0"":4}",[0],W2 started opposing M4,M4 started opposing W2
4241,NA,NA,NA,NA,survey-likert-extra-labels,111,901132,0.0-41.0-2.0,anomymised,656582bcfaaa3e760f369b3c,656608ad05d073b3a3e45479,55774,2A,woman,NA,NA,W2 is being opposed by M4,oppose3,rating_volition,"{""Q0"":6}",[0],W2 wanted to oppose M4,M4 wanted to oppose W2
null,Dave is being hugged by Ruth,NA,NA,NA,html-keyboard-response,112,903134,0.0-42.0-0.0,anomymised,656582bcfaaa3e760f369b3c,656608ad05d073b3a3e45479,55774,2A,woman,NA,null,M2 is being hugged by W4,hug4,sentence,NA,NA,NA,NA
8406,NA,NA,NA,NA,survey-likert-extra-labels,113,911544,0.0-42.0-2.0,anomymised,656582bcfaaa3e760f369b3c,656608ad05d073b3a3e45479,55774,2A,woman,NA,NA,M2 is being hugged by W4,hug4,rating_volition,"{""Q0"":6}",[0],M2 wanted to hug W4,W4 wanted to hug M2
5896,NA,NA,NA,NA,survey-likert-extra-labels,114,917446,0.0-42.0-3.0-0.0,anomymised,656582bcfaaa3e760f369b3c,656608ad05d073b3a3e45479,55774,2A,woman,NA,NA,M2 is being hugged by W4,hug4,rating_causation,"{""Q0"":4}",[0],M2 asked to hug W4,W4 asked to hug M2
null,Jane is being seduced by Fred,NA,NA,NA,html-keyboard-response,115,919456,0.0-43.0-0.0,anomymised,656582bcfaaa3e760f369b3c,656608ad05d073b3a3e45479,55774,2A,woman,NA,null,W3 is being seduced by M1,seduce3,sentence,NA,NA,NA,NA
17274,NA,NA,NA,NA,survey-likert-extra-labels,116,936732,0.0-43.0-1.0-0.0,anomymised,656582bcfaaa3e760f369b3c,656608ad05d073b3a3e45479,55774,2A,woman,NA,NA,W3 is being seduced by M1,seduce3,rating_causation,"{""Q0"":5}",[0],W3 started seducing M1 first,M1 started seducing W3 first
9555,NA,NA,NA,NA,survey-likert-extra-labels,117,946295,0.0-43.0-2.0,anomymised,656582bcfaaa3e760f369b3c,656608ad05d073b3a3e45479,55774,2A,woman,NA,NA,W3 is being seduced by M1,seduce3,rating_volition,"{""Q0"":6}",[0],W3 wanted to seduce M1,M1 wanted to seduce W3
null,Fred is being shouted at by Luke,NA,NA,NA,html-keyboard-response,118,948297,0.0-44.0-0.0,anomymised,656582bcfaaa3e760f369b3c,656608ad05d073b3a3e45479,55774,2A,woman,NA,null,M1 is being shouted at by M3,shout2,sentence,NA,NA,NA,NA
6275,NA,NA,NA,NA,survey-likert-extra-labels,119,954575,0.0-44.0-2.0,anomymised,656582bcfaaa3e760f369b3c,656608ad05d073b3a3e45479,55774,2A,woman,NA,NA,M1 is being shouted at by M3,shout2,rating_volition,"{""Q0"":6}",[0],M1 wanted to shout at M3,M3 wanted to shout at M1
3905,NA,NA,NA,NA,survey-likert-extra-labels,120,958488,0.0-44.0-3.0-0.0,anomymised,656582bcfaaa3e760f369b3c,656608ad05d073b3a3e45479,55774,2A,woman,NA,NA,M1 is being shouted at by M3,shout2,rating_causation,"{""Q0"":5}",[0],M1 shouted at M3 first,M3 shouted at M1 first
null,Luke is being seduced by Beth,NA,NA,NA,html-keyboard-response,121,960494,0.0-45.0-0.0,anomymised,656582bcfaaa3e760f369b3c,656608ad05d073b3a3e45479,55774,2A,woman,NA,null,M3 is being seduced by W1,seduce4,sentence,NA,NA,NA,NA
5274,NA,NA,NA,NA,survey-likert-extra-labels,122,965773,0.0-45.0-2.0,anomymised,656582bcfaaa3e760f369b3c,656608ad05d073b3a3e45479,55774,2A,woman,NA,NA,M3 is being seduced by W1,seduce4,rating_volition,"{""Q0"":6}",[0],M3 wanted to seducing W1,W1 wanted to seducing M3
6245,NA,NA,NA,NA,survey-likert-extra-labels,123,972025,0.0-45.0-3.0-0.0,anomymised,656582bcfaaa3e760f369b3c,656608ad05d073b3a3e45479,55774,2A,woman,NA,NA,M3 is being seduced by W1,seduce4,rating_causation,"{""Q0"":4}",[0],M3 started seducing W1 first,W1 started seducing M3 first
null,Jane is being touched by Fred,NA,NA,NA,html-keyboard-response,124,974029,0.0-46.0-0.0,anomymised,656582bcfaaa3e760f369b3c,656608ad05d073b3a3e45479,55774,2A,woman,NA,null,W3 is being touched by M1,touch3,sentence,NA,NA,NA,NA
12277,NA,NA,NA,NA,survey-likert-extra-labels,125,986309,0.0-46.0-2.0,anomymised,656582bcfaaa3e760f369b3c,656608ad05d073b3a3e45479,55774,2A,woman,NA,NA,W3 is being touched by M1,touch3,rating_volition,"{""Q0"":6}",[0],W3 wanted to touch M1,M1 wanted to touch W3
6051,NA,NA,NA,NA,survey-likert-extra-labels,126,992365,0.0-46.0-3.0-0.0,anomymised,656582bcfaaa3e760f369b3c,656608ad05d073b3a3e45479,55774,2A,woman,NA,NA,W3 is being touched by M1,touch3,rating_causation,"{""Q0"":4}",[0],W3 asked to touch M1,M1 asked to touch W3
null,Kate is being shouted at by Mike,NA,NA,NA,html-keyboard-response,127,994372,0.0-47.0-0.0,anomymised,656582bcfaaa3e760f369b3c,656608ad05d073b3a3e45479,55774,2A,woman,NA,null,W2 is being shouted at by M4,shout4,sentence,NA,NA,NA,NA
14905,NA,NA,NA,NA,survey-likert-extra-labels,128,1009281,0.0-47.0-2.0,anomymised,656582bcfaaa3e760f369b3c,656608ad05d073b3a3e45479,55774,2A,woman,NA,NA,W2 is being shouted at by M4,shout4,rating_volition,"{""Q0"":6}",[0],W2 wanted to shout at M4,M4 wanted to shout at W2
18331,NA,NA,NA,NA,survey-likert-extra-labels,129,1027621,0.0-47.0-3.0-0.0,anomymised,656582bcfaaa3e760f369b3c,656608ad05d073b3a3e45479,55774,2A,woman,NA,NA,W2 is being shouted at by M4,shout4,rating_causation,"{""Q0"":4}",[0],W2 shouted at M4 first,M4 shouted at W2 first
null,Beth is being opposed by Jane,NA,NA,NA,html-keyboard-response,130,1029625,0.0-48.0-0.0,anomymised,656582bcfaaa3e760f369b3c,656608ad05d073b3a3e45479,55774,2A,woman,NA,null,W1 is being opposed by W3,oppose1,sentence,NA,NA,NA,NA
3790,NA,NA,NA,NA,survey-likert-extra-labels,131,1033419,0.0-48.0-2.0,anomymised,656582bcfaaa3e760f369b3c,656608ad05d073b3a3e45479,55774,2A,woman,NA,NA,W1 is being opposed by W3,oppose1,rating_volition,"{""Q0"":5}",[0],W1 wanted to oppose W3,W3 wanted to oppose W1
4661,NA,NA,NA,NA,survey-likert-extra-labels,132,1038089,0.0-48.0-3.0-0.0,anomymised,656582bcfaaa3e760f369b3c,656608ad05d073b3a3e45479,55774,2A,woman,NA,NA,W1 is being opposed by W3,oppose1,rating_causation,"{""Q0"":4}",[0],W1 started opposing W3,W3 started opposing W1
null,Beth is chasing Jane,NA,NA,NA,html-keyboard-response,133,1040094,0.0-49.0-0.0,anomymised,656582bcfaaa3e760f369b3c,656608ad05d073b3a3e45479,55774,2A,woman,NA,null,W1 is chasing W3,chase,sentence,NA,NA,NA,NA
9464,NA,NA,NA,NA,survey-likert-extra-labels,134,1049563,0.0-49.0-2.0,anomymised,656582bcfaaa3e760f369b3c,656608ad05d073b3a3e45479,55774,2A,woman,NA,NA,W1 is chasing W3,chase,rating_volition,"{""Q0"":6}",[0],W1 is behind W3,W3 is behind W1
19928,NA,NA,NA,NA,survey-likert-extra-labels,135,1069496,0.0-49.0-3.0-0.0,anomymised,656582bcfaaa3e760f369b3c,656608ad05d073b3a3e45479,55774,2A,woman,NA,NA,W1 is chasing W3,chase,rating_causation,"{""Q0"":6}",[0],W1 is running away from W3,W3 is running away from W1
null,Kate is being touched by Ruth,NA,NA,NA,html-keyboard-response,136,1071503,0.0-50.0-0.0,anomymised,656582bcfaaa3e760f369b3c,656608ad05d073b3a3e45479,55774,2A,woman,NA,null,W2 is being touched by W4,touch1,sentence,NA,NA,NA,NA
10498,NA,NA,NA,NA,survey-likert-extra-labels,137,1082004,0.0-50.0-2.0,anomymised,656582bcfaaa3e760f369b3c,656608ad05d073b3a3e45479,55774,2A,woman,NA,NA,W2 is being touched by W4,touch1,rating_volition,"{""Q0"":5}",[0],W2 wanted to touch W4,W4 wanted to touch W2
7978,NA,NA,NA,NA,survey-likert-extra-labels,138,1089986,0.0-50.0-3.0-0.0,anomymised,656582bcfaaa3e760f369b3c,656608ad05d073b3a3e45479,55774,2A,woman,NA,NA,W2 is being touched by W4,touch1,rating_causation,"{""Q0"":4}",[0],W2 asked to touch W4,W4 asked to touch W2
null,Fred is driving Luke,NA,NA,NA,html-keyboard-response,139,1091991,0.0-51.0-0.0,anomymised,656582bcfaaa3e760f369b3c,656608ad05d073b3a3e45479,55774,2A,woman,NA,null,M1 is driving M3,drive,sentence,NA,NA,NA,NA
30227,NA,NA,NA,NA,survey-likert-extra-labels,140,1122221,0.0-51.0-1.0-0.0,anomymised,656582bcfaaa3e760f369b3c,656608ad05d073b3a3e45479,55774,2A,woman,NA,NA,M1 is driving M3,drive,rating_causation,"{""Q0"":0}",[0],M1 is taking M3 somewhere,M3 is taking M1 somewhere
4510,NA,NA,NA,NA,survey-likert-extra-labels,141,1126735,0.0-51.0-2.0,anomymised,656582bcfaaa3e760f369b3c,656608ad05d073b3a3e45479,55774,2A,woman,NA,NA,M1 is driving M3,drive,rating_volition,"{""Q0"":6}",[0],M1 is M3's passenger,M3 is M1's passenger
null,Kate is being hugged by Mike,NA,NA,NA,html-keyboard-response,142,1128738,0.0-52.0-0.0,anomymised,656582bcfaaa3e760f369b3c,656608ad05d073b3a3e45479,55774,2A,woman,NA,null,W2 is being hugged by M4,hug3,sentence,NA,NA,NA,NA
30187,NA,NA,NA,NA,survey-likert-extra-labels,143,1158928,0.0-52.0-1.0-0.0,anomymised,656582bcfaaa3e760f369b3c,656608ad05d073b3a3e45479,55774,2A,woman,NA,NA,W2 is being hugged by M4,hug3,rating_causation,"{""Q0"":5}",[0],W2 asked to hug M4,M4 asked to hug W2
19151,NA,NA,NA,NA,survey-likert-extra-labels,144,1178084,0.0-52.0-2.0,anomymised,656582bcfaaa3e760f369b3c,656608ad05d073b3a3e45479,55774,2A,woman,NA,NA,W2 is being hugged by M4,hug3,rating_volition,"{""Q0"":5}",[0],W2 wanted to hug M4,M4 wanted to hug W2
null,Kate is being seduced by Ruth,NA,NA,NA,html-keyboard-response,145,1180089,0.0-53.0-0.0,anomymised,656582bcfaaa3e760f369b3c,656608ad05d073b3a3e45479,55774,2A,woman,NA,null,W2 is being seduced by W4,seduce1,sentence,NA,NA,NA,NA
16755,NA,NA,NA,NA,survey-likert-extra-labels,146,1196849,0.0-53.0-1.0-0.0,anomymised,656582bcfaaa3e760f369b3c,656608ad05d073b3a3e45479,55774,2A,woman,NA,NA,W2 is being seduced by W4,seduce1,rating_causation,"{""Q0"":5}",[0],W2 started seducing W4 first,W4 started seducing W2 first
29496,NA,NA,NA,NA,survey-likert-extra-labels,147,1226353,0.0-53.0-2.0,anomymised,656582bcfaaa3e760f369b3c,656608ad05d073b3a3e45479,55774,2A,woman,NA,NA,W2 is being seduced by W4,seduce1,rating_volition,"{""Q0"":6}",[0],W2 wanted to seduce W4,W4 wanted to seduce W2
null,Luke is hiring Beth,NA,NA,NA,html-keyboard-response,148,1228357,0.0-54.0-0.0,anomymised,656582bcfaaa3e760f369b3c,656608ad05d073b3a3e45479,55774,2A,woman,NA,null,M3 is hiring W1,hire,sentence,NA,NA,NA,NA
4890,NA,NA,NA,NA,survey-likert-extra-labels,149,1233249,0.0-54.0-2.0,anomymised,656582bcfaaa3e760f369b3c,656608ad05d073b3a3e45479,55774,2A,woman,NA,NA,M3 is hiring W1,hire,rating_volition,"{""Q0"":0}",[0],M3 is employing W1,W1 is employing M3
6917,NA,NA,NA,NA,survey-likert-extra-labels,150,1240170,0.0-54.0-3.0-0.0,anomymised,656582bcfaaa3e760f369b3c,656608ad05d073b3a3e45479,55774,2A,woman,NA,NA,M3 is hiring W1,hire,rating_causation,"{""Q0"":5}",[0],M3 will work for W1,W1 will work for M3
1929,<p>Thank you for completing that task.</p><p>The final part of this session is a short questionnaire.</p><p>Press Continue.</p>,0,Continue,Continue,html-button-response,151,1242106,0.0-55.0,anomymised,656582bcfaaa3e760f369b3c,656608ad05d073b3a3e45479,55774,2A,woman,NA,NA,NA,NA,NA,NA,NA,NA,NA
31886,NA,NA,NA,NA,survey-text,152,1275014,0.0-56.0,anomymised,656582bcfaaa3e760f369b3c,656608ad05d073b3a3e45479,55774,2A,woman,NA,NA,NA,NA,demographics,"{""Q0"":""27"",""Q1"":""English"",""Q2"":""English"",""Q3"":""uk"",""Q4"":""British"",""Q5"":""White"",""Q6"":""Female""}",NA,NA,NA
2664,<p>This is the last question - thank you for taking part! Have you lived in the UK for the last 5 years or more?</p>,0,"Yes,No",Yes,html-button-response,153,1277681,0.0-57.0,anomymised,656582bcfaaa3e760f369b3c,656608ad05d073b3a3e45479,55774,2A,woman,NA,NA,NA,NA,fiveyears,NA,NA,NA,NA
