rt,stimulus,button_pressed,choices,ChosenStimulus,trial_type,trial_index,time_elapsed,internal_node_id,subject_id,study_id,session_id,subject,list,ppt_gender,url,key_press,sentence_type,verb,test_part,responses,question_order,left_part,right_part
3806.5,Welcome to the experiment. Press Continue to begin.,0,Continue,Continue,html-button-response,0,3810,0.0-0.0,anomymised,6565812bd48bb6bd55b14982,656703bad07b24c4dd19e8f4,5667,2B,man,NA,NA,NA,NA,NA,NA,NA,NA,NA
20871.90000000596,NA,NA,NA,NA,external-html,1,25803,0.0-1.0,anomymised,6565812bd48bb6bd55b14982,656703bad07b24c4dd19e8f4,5667,2B,man,consent.html,NA,NA,NA,NA,NA,NA,NA,NA
60514.10000000894,"<p>Welcome.</p><p>In this experiment we will ask you to imagine some situations.</p><p>Each trial starts with a description of an event.</p><p>Then you will see alternative descriptions of that event, and you will rate on a scale how best they match the original description.</p><p>You will give your answer by clicking a button on a rating scale.</p><p>To do this task, you will have to use your imagination to visualise these events.</p><br><p>Ready?</p>",0,Continue,Continue,html-button-response,2,86317,0.0-2.0,anomymised,6565812bd48bb6bd55b14982,656703bad07b24c4dd19e8f4,5667,2B,man,NA,NA,NA,NA,NA,NA,NA,NA,NA
9706.09999999404,"<p>Before the experiment starts, you will watch an example trial. Press 'Continue'.</p>",0,Continue,Continue,html-button-response,3,97038,0.0-3.0,anomymised,6565812bd48bb6bd55b14982,656703bad07b24c4dd19e8f4,5667,2B,man,NA,NA,NA,NA,NA,NA,NA,NA,NA
null,The police officer is arresting the robber,NA,NA,NA,html-keyboard-response,4,100046,0.0-4.0,anomymised,6565812bd48bb6bd55b14982,656703bad07b24c4dd19e8f4,5667,2B,man,NA,null,NA,NA,NA,NA,NA,NA,NA
26574.79999999702,<img src='img/Example-trial.jpg' style='height:550px;''></img>,0,Continue,Continue,html-button-response,5,126622,0.0-5.0,anomymised,6565812bd48bb6bd55b14982,656703bad07b24c4dd19e8f4,5667,2B,man,NA,NA,NA,NA,NA,NA,NA,NA,NA
3623.5,<p>Ready to start the experiment?</p><br><p><strong>Remember to give an answer by clicking a button on the rating scale.</strong></p><p>Press 'Continue' to begin.</p>,0,Continue,Continue,html-button-response,6,131252,0.0-6.0,anomymised,6565812bd48bb6bd55b14982,656703bad07b24c4dd19e8f4,5667,2B,man,NA,NA,NA,NA,NA,NA,NA,NA,NA
null,Kate is being seduced by Ruth,NA,NA,NA,html-keyboard-response,7,134269,0.0-7.0-0.0,anomymised,6565812bd48bb6bd55b14982,656703bad07b24c4dd19e8f4,5667,2B,man,NA,null,W2 is being seduced by W4,seduce1,sentence,NA,NA,NA,NA
8263.800000011921,NA,NA,NA,NA,survey-likert-extra-labels,8,142535,0.0-7.0-2.0,anomymised,6565812bd48bb6bd55b14982,656703bad07b24c4dd19e8f4,5667,2B,man,NA,NA,W2 is being seduced by W4,seduce1,rating_volition,"{""Q0"":0}",[0],W4 wanted to seduce W2,W2 wanted to seduce W4
9655.5,NA,NA,NA,NA,survey-likert-extra-labels,9,152192,0.0-7.0-3.0-0.0,anomymised,6565812bd48bb6bd55b14982,656703bad07b24c4dd19e8f4,5667,2B,man,NA,NA,W2 is being seduced by W4,seduce1,rating_causation,"{""Q0"":0}",[0],W4 started seducing W2 first,W2 started seducing W4 first
null,Dave is being hugged by Ruth,NA,NA,NA,html-keyboard-response,10,154195,0.0-8.0-0.0,anomymised,6565812bd48bb6bd55b14982,656703bad07b24c4dd19e8f4,5667,2B,man,NA,null,M2 is being hugged by W4,hug4,sentence,NA,NA,NA,NA
24471.70000000298,NA,NA,NA,NA,survey-likert-extra-labels,11,178668,0.0-8.0-1.0-0.0,anomymised,6565812bd48bb6bd55b14982,656703bad07b24c4dd19e8f4,5667,2B,man,NA,NA,M2 is being hugged by W4,hug4,rating_causation,"{""Q0"":5}",[0],W4 asked to hug M2,M2 asked to hug W4
7196.5999999940395,NA,NA,NA,NA,survey-likert-extra-labels,12,185866,0.0-8.0-2.0,anomymised,6565812bd48bb6bd55b14982,656703bad07b24c4dd19e8f4,5667,2B,man,NA,NA,M2 is being hugged by W4,hug4,rating_volition,"{""Q0"":2}",[0],W4 wanted to hug M2,M2 wanted to hug W4
null,Kate is teaching Mike,NA,NA,NA,html-keyboard-response,13,187892,0.0-9.0-0.0,anomymised,6565812bd48bb6bd55b14982,656703bad07b24c4dd19e8f4,5667,2B,man,NA,null,W2 is teaching M4,teach,sentence,NA,NA,NA,NA
10300.5,NA,NA,NA,NA,survey-likert-extra-labels,14,198194,0.0-9.0-1.0-0.0,anomymised,6565812bd48bb6bd55b14982,656703bad07b24c4dd19e8f4,5667,2B,man,NA,NA,W2 is teaching M4,teach,rating_causation,"{""Q0"":5}",[0],W2 is learning from M4,M4 is learning from W2
7425.29999999702,NA,NA,NA,NA,survey-likert-extra-labels,15,205621,0.0-9.0-2.0,anomymised,6565812bd48bb6bd55b14982,656703bad07b24c4dd19e8f4,5667,2B,man,NA,NA,W2 is teaching M4,teach,rating_volition,"{""Q0"":1}",[0],W2 is educating M4,M4 is educating W2
null,Kate is being challenged by Ruth,NA,NA,NA,html-keyboard-response,16,207633,0.0-10.0-0.0,anomymised,6565812bd48bb6bd55b14982,656703bad07b24c4dd19e8f4,5667,2B,man,NA,null,W2 is being challenged by W4,challenge1,sentence,NA,NA,NA,NA
15026.89999999106,NA,NA,NA,NA,survey-likert-extra-labels,17,222663,0.0-10.0-1.0-0.0,anomymised,6565812bd48bb6bd55b14982,656703bad07b24c4dd19e8f4,5667,2B,man,NA,NA,W2 is being challenged by W4,challenge1,rating_causation,"{""Q0"":2}",[0],W4 started challenging W2 first,W2 started challenging W4 first
8552.5,NA,NA,NA,NA,survey-likert-extra-labels,18,231217,0.0-10.0-2.0,anomymised,6565812bd48bb6bd55b14982,656703bad07b24c4dd19e8f4,5667,2B,man,NA,NA,W2 is being challenged by W4,challenge1,rating_volition,"{""Q0"":5}",[0],W4 wanted to challenge W2,W2 wanted to challenge W4
null,Ruth is being kissed by Dave,NA,NA,NA,html-keyboard-response,19,233234,0.0-11.0-0.0,anomymised,6565812bd48bb6bd55b14982,656703bad07b24c4dd19e8f4,5667,2B,man,NA,null,W4 is being kissed by M2,kiss3,sentence,NA,NA,NA,NA
7897.20000000298,NA,NA,NA,NA,survey-likert-extra-labels,20,241132,0.0-11.0-2.0,anomymised,6565812bd48bb6bd55b14982,656703bad07b24c4dd19e8f4,5667,2B,man,NA,NA,W4 is being kissed by M2,kiss3,rating_volition,"{""Q0"":5}",[0],W4 wanted to kiss M2,M2 wanted to kiss W4
6978.70000000298,NA,NA,NA,NA,survey-likert-extra-labels,21,248113,0.0-11.0-3.0-0.0,anomymised,6565812bd48bb6bd55b14982,656703bad07b24c4dd19e8f4,5667,2B,man,NA,NA,W4 is being kissed by M2,kiss3,rating_causation,"{""Q0"":3}",[0],W4 asked to kiss M2,M2 asked to kiss W4
null,Beth is being copied by Luke,NA,NA,NA,html-keyboard-response,22,250123,0.0-12.0-0.0,anomymised,6565812bd48bb6bd55b14982,656703bad07b24c4dd19e8f4,5667,2B,man,NA,null,W1 is being copied by M3,copy4,sentence,NA,NA,NA,NA
6310.70000000298,NA,NA,NA,NA,survey-likert-extra-labels,23,256435,0.0-12.0-2.0,anomymised,6565812bd48bb6bd55b14982,656703bad07b24c4dd19e8f4,5667,2B,man,NA,NA,W1 is being copied by M3,copy4,rating_volition,"{""Q0"":6}",[0],W1 wanted to copy M3,M3 wanted to copy W1
16028.09999999404,NA,NA,NA,NA,survey-likert-extra-labels,24,272465,0.0-12.0-3.0-0.0,anomymised,6565812bd48bb6bd55b14982,656703bad07b24c4dd19e8f4,5667,2B,man,NA,NA,W1 is being copied by M3,copy4,rating_causation,"{""Q0"":5}",[0],W1 started copying M3 first,M3 started copying W1 first
null,Luke is hiring Beth,NA,NA,NA,html-keyboard-response,25,274474,0.0-13.0-0.0,anomymised,6565812bd48bb6bd55b14982,656703bad07b24c4dd19e8f4,5667,2B,man,NA,null,M3 is hiring W1,hire,sentence,NA,NA,NA,NA
11887.5,NA,NA,NA,NA,survey-likert-extra-labels,26,286362,0.0-13.0-1.0-0.0,anomymised,6565812bd48bb6bd55b14982,656703bad07b24c4dd19e8f4,5667,2B,man,NA,NA,M3 is hiring W1,hire,rating_causation,"{""Q0"":6}",[0],M3 will work for W1,W1 will work for M3
8297.90000000596,NA,NA,NA,NA,survey-likert-extra-labels,27,294662,0.0-13.0-2.0,anomymised,6565812bd48bb6bd55b14982,656703bad07b24c4dd19e8f4,5667,2B,man,NA,NA,M3 is hiring W1,hire,rating_volition,"{""Q0"":0}",[0],M3 is employing W1,W1 is employing M3
null,Ruth is being greeted by Kate,NA,NA,NA,html-keyboard-response,28,296671,0.0-14.0-0.0,anomymised,6565812bd48bb6bd55b14982,656703bad07b24c4dd19e8f4,5667,2B,man,NA,null,W4 is being greeted by W2,greet1,sentence,NA,NA,NA,NA
7514.20000000298,NA,NA,NA,NA,survey-likert-extra-labels,29,304186,0.0-14.0-1.0-0.0,anomymised,6565812bd48bb6bd55b14982,656703bad07b24c4dd19e8f4,5667,2B,man,NA,NA,W4 is being greeted by W2,greet1,rating_causation,"{""Q0"":0}",[0],W4 started greeting W2 first,W2 started greeting W4 first
5479,NA,NA,NA,NA,survey-likert-extra-labels,30,309667,0.0-14.0-2.0,anomymised,6565812bd48bb6bd55b14982,656703bad07b24c4dd19e8f4,5667,2B,man,NA,NA,W4 is being greeted by W2,greet1,rating_volition,"{""Q0"":1}",[0],W4 wanted to greet W2,W2 wanted to greet W4
null,Beth is being shouted at by Jane,NA,NA,NA,html-keyboard-response,31,311686,0.0-15.0-0.0,anomymised,6565812bd48bb6bd55b14982,656703bad07b24c4dd19e8f4,5667,2B,man,NA,null,W1 is being shouted at by W3,shout1,sentence,NA,NA,NA,NA
20546.90000000596,NA,NA,NA,NA,survey-likert-extra-labels,32,332235,0.0-15.0-1.0-0.0,anomymised,6565812bd48bb6bd55b14982,656703bad07b24c4dd19e8f4,5667,2B,man,NA,NA,W1 is being shouted at by W3,shout1,rating_causation,"{""Q0"":3}",[0],W3 shouted at W1 first,W1 shouted at W3 first
6071.79999999702,NA,NA,NA,NA,survey-likert-extra-labels,33,338309,0.0-15.0-2.0,anomymised,6565812bd48bb6bd55b14982,656703bad07b24c4dd19e8f4,5667,2B,man,NA,NA,W1 is being shouted at by W3,shout1,rating_volition,"{""Q0"":5}",[0],W3 wanted to shout at W1,W1 wanted to shout at W3
null,Mike is being greeted by Dave,NA,NA,NA,html-keyboard-response,34,340330,0.0-16.0-0.0,anomymised,6565812bd48bb6bd55b14982,656703bad07b24c4dd19e8f4,5667,2B,man,NA,null,M4 is being greeted by M2,greet2,sentence,NA,NA,NA,NA
8589.39999999106,NA,NA,NA,NA,survey-likert-extra-labels,35,348921,0.0-16.0-2.0,anomymised,6565812bd48bb6bd55b14982,656703bad07b24c4dd19e8f4,5667,2B,man,NA,NA,M4 is being greeted by M2,greet2,rating_volition,"{""Q0"":6}",[0],M4 wanted to greet M2,M2 wanted to greet M4
6805.5999999940395,NA,NA,NA,NA,survey-likert-extra-labels,36,355729,0.0-16.0-3.0-0.0,anomymised,6565812bd48bb6bd55b14982,656703bad07b24c4dd19e8f4,5667,2B,man,NA,NA,M4 is being greeted by M2,greet2,rating_causation,"{""Q0"":6}",[0],M4 started greeting M2 first,M2 started greeting M4 first
null,Ruth is being looked at by Dave,NA,NA,NA,html-keyboard-response,37,357739,0.0-17.0-0.0,anomymised,6565812bd48bb6bd55b14982,656703bad07b24c4dd19e8f4,5667,2B,man,NA,null,W4 is being looked at by M2,look4,sentence,NA,NA,NA,NA
12803.699999988079,NA,NA,NA,NA,survey-likert-extra-labels,38,370544,0.0-17.0-2.0,anomymised,6565812bd48bb6bd55b14982,656703bad07b24c4dd19e8f4,5667,2B,man,NA,NA,W4 is being looked at by M2,look4,rating_volition,"{""Q0"":6}",[0],W4 wanted to look at M2,M2 wanted to look at W4
6878.5999999940395,NA,NA,NA,NA,survey-likert-extra-labels,39,377425,0.0-17.0-3.0-0.0,anomymised,6565812bd48bb6bd55b14982,656703bad07b24c4dd19e8f4,5667,2B,man,NA,NA,W4 is being looked at by M2,look4,rating_causation,"{""Q0"":5}",[0],W4 looked at M2 first,M2 looked at W4 first
null,Jane is being looked at by Beth,NA,NA,NA,html-keyboard-response,40,379429,0.0-18.0-0.0,anomymised,6565812bd48bb6bd55b14982,656703bad07b24c4dd19e8f4,5667,2B,man,NA,null,W3 is being looked at by W1,look1,sentence,NA,NA,NA,NA
19043,NA,NA,NA,NA,survey-likert-extra-labels,41,398474,0.0-18.0-1.0-0.0,anomymised,6565812bd48bb6bd55b14982,656703bad07b24c4dd19e8f4,5667,2B,man,NA,NA,W3 is being looked at by W1,look1,rating_causation,"{""Q0"":3}",[0],W3 looked at W1 first,W1 looked at W3 first
13730.5,NA,NA,NA,NA,survey-likert-extra-labels,42,412206,0.0-18.0-2.0,anomymised,6565812bd48bb6bd55b14982,656703bad07b24c4dd19e8f4,5667,2B,man,NA,NA,W3 is being looked at by W1,look1,rating_volition,"{""Q0"":3}",[0],W3 wanted to look at W1,W1 wanted to look at W3
null,Luke is being seduced by Beth,NA,NA,NA,html-keyboard-response,43,414212,0.0-19.0-0.0,anomymised,6565812bd48bb6bd55b14982,656703bad07b24c4dd19e8f4,5667,2B,man,NA,null,M3 is being seduced by W1,seduce4,sentence,NA,NA,NA,NA
10403.699999988079,NA,NA,NA,NA,survey-likert-extra-labels,44,424617,0.0-19.0-1.0-0.0,anomymised,6565812bd48bb6bd55b14982,656703bad07b24c4dd19e8f4,5667,2B,man,NA,NA,M3 is being seduced by W1,seduce4,rating_causation,"{""Q0"":2}",[0],W1 started seducing M3 first,M3 started seducing W1 first
119082.29999999702,NA,NA,NA,NA,survey-likert-extra-labels,45,543702,0.0-19.0-2.0,anomymised,6565812bd48bb6bd55b14982,656703bad07b24c4dd19e8f4,5667,2B,man,NA,NA,M3 is being seduced by W1,seduce4,rating_volition,"{""Q0"":1}",[0],W1 wanted to seducing M3,M3 wanted to seducing W1
null,Kate is carrying Ruth,NA,NA,NA,html-keyboard-response,46,545716,0.0-20.0-0.0,anomymised,6565812bd48bb6bd55b14982,656703bad07b24c4dd19e8f4,5667,2B,man,NA,null,W2 is carrying W4,carry,sentence,NA,NA,NA,NA
8045.899999991059,NA,NA,NA,NA,survey-likert-extra-labels,47,553764,0.0-20.0-2.0,anomymised,6565812bd48bb6bd55b14982,656703bad07b24c4dd19e8f4,5667,2B,man,NA,NA,W2 is carrying W4,carry,rating_volition,"{""Q0"":1}",[0],W2 is transporting W4,W4 is transporting W2
41006.70000000298,NA,NA,NA,NA,survey-likert-extra-labels,48,594771,0.0-20.0-3.0-0.0,anomymised,6565812bd48bb6bd55b14982,656703bad07b24c4dd19e8f4,5667,2B,man,NA,NA,W2 is carrying W4,carry,rating_causation,"{""Q0"":1}",[0],W2 is being moved by W4,W4 is being moved by W2
null,Mike is being copied by Dave,NA,NA,NA,html-keyboard-response,49,596776,0.0-21.0-0.0,anomymised,6565812bd48bb6bd55b14982,656703bad07b24c4dd19e8f4,5667,2B,man,NA,null,M4 is being copied by M2,copy2,sentence,NA,NA,NA,NA
4346,NA,NA,NA,NA,survey-likert-extra-labels,50,601123,0.0-21.0-1.0-0.0,anomymised,6565812bd48bb6bd55b14982,656703bad07b24c4dd19e8f4,5667,2B,man,NA,NA,M4 is being copied by M2,copy2,rating_causation,"{""Q0"":1}",[0],M4 started copying M2 first,M2 started copying M4 first
3871,NA,NA,NA,NA,survey-likert-extra-labels,51,604995,0.0-21.0-2.0,anomymised,6565812bd48bb6bd55b14982,656703bad07b24c4dd19e8f4,5667,2B,man,NA,NA,M4 is being copied by M2,copy2,rating_volition,"{""Q0"":0}",[0],M4 wanted to copy M2,M2 wanted to copy M4
null,Jane is being touched by Fred,NA,NA,NA,html-keyboard-response,52,607008,0.0-22.0-0.0,anomymised,6565812bd48bb6bd55b14982,656703bad07b24c4dd19e8f4,5667,2B,man,NA,null,W3 is being touched by M1,touch3,sentence,NA,NA,NA,NA
3982.5,NA,NA,NA,NA,survey-likert-extra-labels,53,610991,0.0-22.0-2.0,anomymised,6565812bd48bb6bd55b14982,656703bad07b24c4dd19e8f4,5667,2B,man,NA,NA,W3 is being touched by M1,touch3,rating_volition,"{""Q0"":0}",[0],M1 wanted to touch W3,W3 wanted to touch M1
6038.5999999940395,NA,NA,NA,NA,survey-likert-extra-labels,54,617032,0.0-22.0-3.0-0.0,anomymised,6565812bd48bb6bd55b14982,656703bad07b24c4dd19e8f4,5667,2B,man,NA,NA,W3 is being touched by M1,touch3,rating_causation,"{""Q0"":3}",[0],M1 asked to touch W3,W3 asked to touch M1
null,Fred is being opposed by Luke,NA,NA,NA,html-keyboard-response,55,619041,0.0-23.0-0.0,anomymised,6565812bd48bb6bd55b14982,656703bad07b24c4dd19e8f4,5667,2B,man,NA,null,M1 is being opposed by M3,oppose2,sentence,NA,NA,NA,NA
8699.29999999702,NA,NA,NA,NA,survey-likert-extra-labels,56,627741,0.0-23.0-1.0-0.0,anomymised,6565812bd48bb6bd55b14982,656703bad07b24c4dd19e8f4,5667,2B,man,NA,NA,M1 is being opposed by M3,oppose2,rating_causation,"{""Q0"":1}",[0],M3 started opposing M1,M1 started opposing M3
4408.0999999940395,NA,NA,NA,NA,survey-likert-extra-labels,57,632151,0.0-23.0-2.0,anomymised,6565812bd48bb6bd55b14982,656703bad07b24c4dd19e8f4,5667,2B,man,NA,NA,M1 is being opposed by M3,oppose2,rating_volition,"{""Q0"":0}",[0],M3 wanted to oppose M1,M1 wanted to oppose M3
null,Dave is being shouted at by Ruth,NA,NA,NA,html-keyboard-response,58,634157,0.0-24.0-0.0,anomymised,6565812bd48bb6bd55b14982,656703bad07b24c4dd19e8f4,5667,2B,man,NA,null,M2 is being shouted at by W4,shout3,sentence,NA,NA,NA,NA
36346.90000000596,NA,NA,NA,NA,survey-likert-extra-labels,59,670505,0.0-24.0-2.0,anomymised,6565812bd48bb6bd55b14982,656703bad07b24c4dd19e8f4,5667,2B,man,NA,NA,M2 is being shouted at by W4,shout3,rating_volition,"{""Q0"":1}",[0],W4 wanted to shout at M2,M2 wanted to shout at W4
6866.699999988079,NA,NA,NA,NA,survey-likert-extra-labels,60,677373,0.0-24.0-3.0-0.0,anomymised,6565812bd48bb6bd55b14982,656703bad07b24c4dd19e8f4,5667,2B,man,NA,NA,M2 is being shouted at by W4,shout3,rating_causation,"{""Q0"":3}",[0],W4 shouted at M2 first,M2 shouted at W4 first
null,Fred is being hugged by Luke,NA,NA,NA,html-keyboard-response,61,679391,0.0-25.0-0.0,anomymised,6565812bd48bb6bd55b14982,656703bad07b24c4dd19e8f4,5667,2B,man,NA,null,M1 is being hugged by M3,hug2,sentence,NA,NA,NA,NA
19397.60000000894,NA,NA,NA,NA,survey-likert-extra-labels,62,698789,0.0-25.0-1.0-0.0,anomymised,6565812bd48bb6bd55b14982,656703bad07b24c4dd19e8f4,5667,2B,man,NA,NA,M1 is being hugged by M3,hug2,rating_causation,"{""Q0"":4}",[0],M3 asked to hug M1,M1 asked to hug M3
5259.20000000298,NA,NA,NA,NA,survey-likert-extra-labels,63,704051,0.0-25.0-2.0,anomymised,6565812bd48bb6bd55b14982,656703bad07b24c4dd19e8f4,5667,2B,man,NA,NA,M1 is being hugged by M3,hug2,rating_volition,"{""Q0"":5}",[0],M3 wanted to hug M1,M1 wanted to hug M3
null,Jane is feeding Fred,NA,NA,NA,html-keyboard-response,64,706061,0.0-26.0-0.0,anomymised,6565812bd48bb6bd55b14982,656703bad07b24c4dd19e8f4,5667,2B,man,NA,null,W3 is feeding M1,feed,sentence,NA,NA,NA,NA
7159.600000008941,NA,NA,NA,NA,survey-likert-extra-labels,65,713223,0.0-26.0-2.0,anomymised,6565812bd48bb6bd55b14982,656703bad07b24c4dd19e8f4,5667,2B,man,NA,NA,W3 is feeding M1,feed,rating_volition,"{""Q0"":2}",[0],W3 cooked for M1,M1 cooked for W3
6779.5,NA,NA,NA,NA,survey-likert-extra-labels,66,720004,0.0-26.0-3.0-0.0,anomymised,6565812bd48bb6bd55b14982,656703bad07b24c4dd19e8f4,5667,2B,man,NA,NA,W3 is feeding M1,feed,rating_causation,"{""Q0"":5}",[0],W3 is eating M1's food,M1 is eating W3's food
null,Dave is being challenged by Mike,NA,NA,NA,html-keyboard-response,67,722020,0.0-27.0-0.0,anomymised,6565812bd48bb6bd55b14982,656703bad07b24c4dd19e8f4,5667,2B,man,NA,null,M2 is being challenged by M4,challenge2,sentence,NA,NA,NA,NA
8708.90000000596,NA,NA,NA,NA,survey-likert-extra-labels,68,730731,0.0-27.0-1.0-0.0,anomymised,6565812bd48bb6bd55b14982,656703bad07b24c4dd19e8f4,5667,2B,man,NA,NA,M2 is being challenged by M4,challenge2,rating_causation,"{""Q0"":2}",[0],M4 started challenging M2 first,M2 started challenging M4 first
159690.69999998808,NA,NA,NA,NA,survey-likert-extra-labels,69,890422,0.0-27.0-2.0,anomymised,6565812bd48bb6bd55b14982,656703bad07b24c4dd19e8f4,5667,2B,man,NA,NA,M2 is being challenged by M4,challenge2,rating_volition,"{""Q0"":4}",[0],M4 wanted to challenge M2,M2 wanted to challenge M4
null,Jane is being challenged by Fred,NA,NA,NA,html-keyboard-response,70,892431,0.0-28.0-0.0,anomymised,6565812bd48bb6bd55b14982,656703bad07b24c4dd19e8f4,5667,2B,man,NA,null,W3 is being challenged by M1,challenge4,sentence,NA,NA,NA,NA
277862,NA,NA,NA,NA,survey-likert-extra-labels,71,1170294,0.0-28.0-1.0-0.0,anomymised,6565812bd48bb6bd55b14982,656703bad07b24c4dd19e8f4,5667,2B,man,NA,NA,W3 is being challenged by M1,challenge4,rating_causation,"{""Q0"":1}",[0],M1 started challenging W3 first,W3 started challenging M1 first
6381.800000011921,NA,NA,NA,NA,survey-likert-extra-labels,72,1176677,0.0-28.0-2.0,anomymised,6565812bd48bb6bd55b14982,656703bad07b24c4dd19e8f4,5667,2B,man,NA,NA,W3 is being challenged by M1,challenge4,rating_volition,"{""Q0"":4}",[0],M1 wanted to challenge W3,W3 wanted to challenge M1
null,Luke is being touched by Beth,NA,NA,NA,html-keyboard-response,73,1178688,0.0-29.0-0.0,anomymised,6565812bd48bb6bd55b14982,656703bad07b24c4dd19e8f4,5667,2B,man,NA,null,M3 is being touched by W1,touch4,sentence,NA,NA,NA,NA
8493.70000000298,NA,NA,NA,NA,survey-likert-extra-labels,74,1187183,0.0-29.0-2.0,anomymised,6565812bd48bb6bd55b14982,656703bad07b24c4dd19e8f4,5667,2B,man,NA,NA,M3 is being touched by W1,touch4,rating_volition,"{""Q0"":0}",[0],W1 wanted to touch M3,M3 wanted to touch W1
8592.70000000298,NA,NA,NA,NA,survey-likert-extra-labels,75,1195778,0.0-29.0-3.0-0.0,anomymised,6565812bd48bb6bd55b14982,656703bad07b24c4dd19e8f4,5667,2B,man,NA,NA,M3 is being touched by W1,touch4,rating_causation,"{""Q0"":2}",[0],W1 asked to touch M3,M3 asked to touch W1
null,Beth is being greeted by Luke,NA,NA,NA,html-keyboard-response,76,1197783,0.0-30.0-0.0,anomymised,6565812bd48bb6bd55b14982,656703bad07b24c4dd19e8f4,5667,2B,man,NA,null,W1 is being greeted by M3,greet3,sentence,NA,NA,NA,NA
135173.89999999106,NA,NA,NA,NA,survey-likert-extra-labels,77,1332958,0.0-30.0-1.0-0.0,anomymised,6565812bd48bb6bd55b14982,656703bad07b24c4dd19e8f4,5667,2B,man,NA,NA,W1 is being greeted by M3,greet3,rating_causation,"{""Q0"":5}",[0],W1 started greeting M3 first,M3 started greeting W1 first
4175.70000000298,NA,NA,NA,NA,survey-likert-extra-labels,78,1337136,0.0-30.0-2.0,anomymised,6565812bd48bb6bd55b14982,656703bad07b24c4dd19e8f4,5667,2B,man,NA,NA,W1 is being greeted by M3,greet3,rating_volition,"{""Q0"":6}",[0],W1 wanted to greet M3,M3 wanted to greet W1
null,Beth is chasing Jane,NA,NA,NA,html-keyboard-response,79,1339156,0.0-31.0-0.0,anomymised,6565812bd48bb6bd55b14982,656703bad07b24c4dd19e8f4,5667,2B,man,NA,null,W1 is chasing W3,chase,sentence,NA,NA,NA,NA
5658.70000000298,NA,NA,NA,NA,survey-likert-extra-labels,80,1344816,0.0-31.0-2.0,anomymised,6565812bd48bb6bd55b14982,656703bad07b24c4dd19e8f4,5667,2B,man,NA,NA,W1 is chasing W3,chase,rating_volition,"{""Q0"":0}",[0],W1 is behind W3,W3 is behind W1
382020.5,NA,NA,NA,NA,survey-likert-extra-labels,81,1726835,0.0-31.0-3.0-0.0,anomymised,6565812bd48bb6bd55b14982,656703bad07b24c4dd19e8f4,5667,2B,man,NA,NA,W1 is chasing W3,chase,rating_causation,"{""Q0"":5}",[0],W1 is running away from W3,W3 is running away from W1
null,Luke is being challenged by Beth,NA,NA,NA,html-keyboard-response,82,1728844,0.0-32.0-0.0,anomymised,6565812bd48bb6bd55b14982,656703bad07b24c4dd19e8f4,5667,2B,man,NA,null,M3 is being challenged by W1,challenge3,sentence,NA,NA,NA,NA
7221.4000000059605,NA,NA,NA,NA,survey-likert-extra-labels,83,1736067,0.0-32.0-1.0-0.0,anomymised,6565812bd48bb6bd55b14982,656703bad07b24c4dd19e8f4,5667,2B,man,NA,NA,M3 is being challenged by W1,challenge3,rating_causation,"{""Q0"":1}",[0],W1 started challenging M3 first,M3 started challenging W1 first
8117.399999991059,NA,NA,NA,NA,survey-likert-extra-labels,84,1744186,0.0-32.0-2.0,anomymised,6565812bd48bb6bd55b14982,656703bad07b24c4dd19e8f4,5667,2B,man,NA,NA,M3 is being challenged by W1,challenge3,rating_volition,"{""Q0"":1}",[0],W1 wanted to challenge M3,M3 wanted to challenge W1
null,Jane is being kissed by Beth,NA,NA,NA,html-keyboard-response,85,1746199,0.0-33.0-0.0,anomymised,6565812bd48bb6bd55b14982,656703bad07b24c4dd19e8f4,5667,2B,man,NA,null,W3 is being kissed by W1,kiss1,sentence,NA,NA,NA,NA
3976.1000000089407,NA,NA,NA,NA,survey-likert-extra-labels,86,1750177,0.0-33.0-1.0-0.0,anomymised,6565812bd48bb6bd55b14982,656703bad07b24c4dd19e8f4,5667,2B,man,NA,NA,W3 is being kissed by W1,kiss1,rating_causation,"{""Q0"":3}",[0],W3 asked to kiss W1,W1 asked to kiss W3
4870.9000000059605,NA,NA,NA,NA,survey-likert-extra-labels,87,1755049,0.0-33.0-2.0,anomymised,6565812bd48bb6bd55b14982,656703bad07b24c4dd19e8f4,5667,2B,man,NA,NA,W3 is being kissed by W1,kiss1,rating_volition,"{""Q0"":6}",[0],W3 wanted to kiss W1,W1 wanted to kiss W3
null,Dave is being touched by Mike,NA,NA,NA,html-keyboard-response,88,1757069,0.0-34.0-0.0,anomymised,6565812bd48bb6bd55b14982,656703bad07b24c4dd19e8f4,5667,2B,man,NA,null,M2 is being touched by M4,touch2,sentence,NA,NA,NA,NA
51090.90000000596,NA,NA,NA,NA,survey-likert-extra-labels,89,1808160,0.0-34.0-1.0-0.0,anomymised,6565812bd48bb6bd55b14982,656703bad07b24c4dd19e8f4,5667,2B,man,NA,NA,M2 is being touched by M4,touch2,rating_causation,"{""Q0"":3}",[0],M4 asked to touch M2,M2 asked to touch M4
7795.899999991059,NA,NA,NA,NA,survey-likert-extra-labels,90,1815957,0.0-34.0-2.0,anomymised,6565812bd48bb6bd55b14982,656703bad07b24c4dd19e8f4,5667,2B,man,NA,NA,M2 is being touched by M4,touch2,rating_volition,"{""Q0"":1}",[0],M4 wanted to touch M2,M2 wanted to touch M4
null,Luke is being kissed by Fred,NA,NA,NA,html-keyboard-response,91,1817974,0.0-35.0-0.0,anomymised,6565812bd48bb6bd55b14982,656703bad07b24c4dd19e8f4,5667,2B,man,NA,null,M3 is being kissed by M1,kiss2,sentence,NA,NA,NA,NA
2778,NA,NA,NA,NA,survey-likert-extra-labels,92,1820755,0.0-35.0-1.0-0.0,anomymised,6565812bd48bb6bd55b14982,656703bad07b24c4dd19e8f4,5667,2B,man,NA,NA,M3 is being kissed by M1,kiss2,rating_causation,"{""Q0"":3}",[0],M3 asked to kiss M1,M1 asked to kiss M3
7559.0999999940395,NA,NA,NA,NA,survey-likert-extra-labels,93,1828316,0.0-35.0-2.0,anomymised,6565812bd48bb6bd55b14982,656703bad07b24c4dd19e8f4,5667,2B,man,NA,NA,M3 is being kissed by M1,kiss2,rating_volition,"{""Q0"":6}",[0],M3 wanted to kiss M1,M1 wanted to kiss M3
null,Dave is posing for Mike,NA,NA,NA,html-keyboard-response,94,1830328,0.0-36.0-0.0,anomymised,6565812bd48bb6bd55b14982,656703bad07b24c4dd19e8f4,5667,2B,man,NA,null,M2 is posing for M4,pose,sentence,NA,NA,NA,NA
12470.20000000298,NA,NA,NA,NA,survey-likert-extra-labels,95,1842800,0.0-36.0-2.0,anomymised,6565812bd48bb6bd55b14982,656703bad07b24c4dd19e8f4,5667,2B,man,NA,NA,M2 is posing for M4,pose,rating_volition,"{""Q0"":2}",[0],M2 is modelling for M4,M4 is modelling for M2
4329.199999988079,NA,NA,NA,NA,survey-likert-extra-labels,96,1847131,0.0-36.0-3.0-0.0,anomymised,6565812bd48bb6bd55b14982,656703bad07b24c4dd19e8f4,5667,2B,man,NA,NA,M2 is posing for M4,pose,rating_causation,"{""Q0"":5}",[0],M2 is photographing M4,M4 is photographing M2
null,Fred is being copied by Jane,NA,NA,NA,html-keyboard-response,97,1849146,0.0-37.0-0.0,anomymised,6565812bd48bb6bd55b14982,656703bad07b24c4dd19e8f4,5667,2B,man,NA,null,M1 is being copied by W3,copy3,sentence,NA,NA,NA,NA
128319.90000000596,NA,NA,NA,NA,survey-likert-extra-labels,98,1977466,0.0-37.0-1.0-0.0,anomymised,6565812bd48bb6bd55b14982,656703bad07b24c4dd19e8f4,5667,2B,man,NA,NA,M1 is being copied by W3,copy3,rating_causation,"{""Q0"":5}",[0],M1 started copying W3 first,W3 started copying M1 first
4649.5,NA,NA,NA,NA,survey-likert-extra-labels,99,1982118,0.0-37.0-2.0,anomymised,6565812bd48bb6bd55b14982,656703bad07b24c4dd19e8f4,5667,2B,man,NA,NA,M1 is being copied by W3,copy3,rating_volition,"{""Q0"":6}",[0],M1 wanted to copy W3,W3 wanted to copy M1
null,Kate is being touched by Ruth,NA,NA,NA,html-keyboard-response,100,1984138,0.0-38.0-0.0,anomymised,6565812bd48bb6bd55b14982,656703bad07b24c4dd19e8f4,5667,2B,man,NA,null,W2 is being touched by W4,touch1,sentence,NA,NA,NA,NA
4043.2000000029802,NA,NA,NA,NA,survey-likert-extra-labels,101,1988183,0.0-38.0-2.0,anomymised,6565812bd48bb6bd55b14982,656703bad07b24c4dd19e8f4,5667,2B,man,NA,NA,W2 is being touched by W4,touch1,rating_volition,"{""Q0"":0}",[0],W4 wanted to touch W2,W2 wanted to touch W4
4642,NA,NA,NA,NA,survey-likert-extra-labels,102,1992827,0.0-38.0-3.0-0.0,anomymised,6565812bd48bb6bd55b14982,656703bad07b24c4dd19e8f4,5667,2B,man,NA,NA,W2 is being touched by W4,touch1,rating_causation,"{""Q0"":3}",[0],W4 asked to touch W2,W2 asked to touch W4
null,Kate is being shouted at by Mike,NA,NA,NA,html-keyboard-response,103,1994845,0.0-39.0-0.0,anomymised,6565812bd48bb6bd55b14982,656703bad07b24c4dd19e8f4,5667,2B,man,NA,null,W2 is being shouted at by M4,shout4,sentence,NA,NA,NA,NA
5955.800000011921,NA,NA,NA,NA,survey-likert-extra-labels,104,2000802,0.0-39.0-2.0,anomymised,6565812bd48bb6bd55b14982,656703bad07b24c4dd19e8f4,5667,2B,man,NA,NA,W2 is being shouted at by M4,shout4,rating_volition,"{""Q0"":1}",[0],M4 wanted to shout at W2,W2 wanted to shout at M4
3144,NA,NA,NA,NA,survey-likert-extra-labels,105,2003948,0.0-39.0-3.0-0.0,anomymised,6565812bd48bb6bd55b14982,656703bad07b24c4dd19e8f4,5667,2B,man,NA,NA,W2 is being shouted at by M4,shout4,rating_causation,"{""Q0"":3}",[0],M4 shouted at W2 first,W2 shouted at M4 first
null,Fred is being greeted by Jane,NA,NA,NA,html-keyboard-response,106,2005951,0.0-40.0-0.0,anomymised,6565812bd48bb6bd55b14982,656703bad07b24c4dd19e8f4,5667,2B,man,NA,null,M1 is being greeted by W3,greet4,sentence,NA,NA,NA,NA
9603.70000000298,NA,NA,NA,NA,survey-likert-extra-labels,107,2015557,0.0-40.0-1.0-0.0,anomymised,6565812bd48bb6bd55b14982,656703bad07b24c4dd19e8f4,5667,2B,man,NA,NA,M1 is being greeted by W3,greet4,rating_causation,"{""Q0"":5}",[0],M1 started greeting W3 first,W3 started greeting M1 first
8569.79999999702,NA,NA,NA,NA,survey-likert-extra-labels,108,2024129,0.0-40.0-2.0,anomymised,6565812bd48bb6bd55b14982,656703bad07b24c4dd19e8f4,5667,2B,man,NA,NA,M1 is being greeted by W3,greet4,rating_volition,"{""Q0"":5}",[0],M1 wanted to greet W3,W3 wanted to greet M1
null,Kate is being hugged by Mike,NA,NA,NA,html-keyboard-response,109,2026146,0.0-41.0-0.0,anomymised,6565812bd48bb6bd55b14982,656703bad07b24c4dd19e8f4,5667,2B,man,NA,null,W2 is being hugged by M4,hug3,sentence,NA,NA,NA,NA
21385.5,NA,NA,NA,NA,survey-likert-extra-labels,110,2047531,0.0-41.0-2.0,anomymised,6565812bd48bb6bd55b14982,656703bad07b24c4dd19e8f4,5667,2B,man,NA,NA,W2 is being hugged by M4,hug3,rating_volition,"{""Q0"":0}",[0],M4 wanted to hug W2,W2 wanted to hug M4
4540,NA,NA,NA,NA,survey-likert-extra-labels,111,2052073,0.0-41.0-3.0-0.0,anomymised,6565812bd48bb6bd55b14982,656703bad07b24c4dd19e8f4,5667,2B,man,NA,NA,W2 is being hugged by M4,hug3,rating_causation,"{""Q0"":3}",[0],M4 asked to hug W2,W2 asked to hug M4
null,Fred is driving Luke,NA,NA,NA,html-keyboard-response,112,2054079,0.0-42.0-0.0,anomymised,6565812bd48bb6bd55b14982,656703bad07b24c4dd19e8f4,5667,2B,man,NA,null,M1 is driving M3,drive,sentence,NA,NA,NA,NA
8144.4000000059605,NA,NA,NA,NA,survey-likert-extra-labels,113,2062225,0.0-42.0-1.0-0.0,anomymised,6565812bd48bb6bd55b14982,656703bad07b24c4dd19e8f4,5667,2B,man,NA,NA,M1 is driving M3,drive,rating_causation,"{""Q0"":0}",[0],M1 is taking M3 somewhere,M3 is taking M1 somewhere
5868,NA,NA,NA,NA,survey-likert-extra-labels,114,2068095,0.0-42.0-2.0,anomymised,6565812bd48bb6bd55b14982,656703bad07b24c4dd19e8f4,5667,2B,man,NA,NA,M1 is driving M3,drive,rating_volition,"{""Q0"":6}",[0],M1 is M3's passenger,M3 is M1's passenger
null,Beth is being opposed by Jane,NA,NA,NA,html-keyboard-response,115,2070108,0.0-43.0-0.0,anomymised,6565812bd48bb6bd55b14982,656703bad07b24c4dd19e8f4,5667,2B,man,NA,null,W1 is being opposed by W3,oppose1,sentence,NA,NA,NA,NA
5895.4000000059605,NA,NA,NA,NA,survey-likert-extra-labels,116,2076005,0.0-43.0-1.0-0.0,anomymised,6565812bd48bb6bd55b14982,656703bad07b24c4dd19e8f4,5667,2B,man,NA,NA,W1 is being opposed by W3,oppose1,rating_causation,"{""Q0"":0}",[0],W3 started opposing W1,W1 started opposing W3
6504.399999991059,NA,NA,NA,NA,survey-likert-extra-labels,117,2082512,0.0-43.0-2.0,anomymised,6565812bd48bb6bd55b14982,656703bad07b24c4dd19e8f4,5667,2B,man,NA,NA,W1 is being opposed by W3,oppose1,rating_volition,"{""Q0"":1}",[0],W3 wanted to oppose W1,W1 wanted to oppose W3
null,Kate is being opposed by Mike,NA,NA,NA,html-keyboard-response,118,2084529,0.0-44.0-0.0,anomymised,6565812bd48bb6bd55b14982,656703bad07b24c4dd19e8f4,5667,2B,man,NA,null,W2 is being opposed by M4,oppose3,sentence,NA,NA,NA,NA
118810.29999999702,NA,NA,NA,NA,survey-likert-extra-labels,119,2203342,0.0-44.0-1.0-0.0,anomymised,6565812bd48bb6bd55b14982,656703bad07b24c4dd19e8f4,5667,2B,man,NA,NA,W2 is being opposed by M4,oppose3,rating_causation,"{""Q0"":1}",[0],M4 started opposing W2,W2 started opposing M4
3680.7999999970198,NA,NA,NA,NA,survey-likert-extra-labels,120,2207024,0.0-44.0-2.0,anomymised,6565812bd48bb6bd55b14982,656703bad07b24c4dd19e8f4,5667,2B,man,NA,NA,W2 is being opposed by M4,oppose3,rating_volition,"{""Q0"":0}",[0],M4 wanted to oppose W2,W2 wanted to oppose M4
null,Dave is reminding Ruth,NA,NA,NA,html-keyboard-response,121,2209042,0.0-45.0-0.0,anomymised,6565812bd48bb6bd55b14982,656703bad07b24c4dd19e8f4,5667,2B,man,NA,null,M2 is reminding W4,remind,sentence,NA,NA,NA,NA
5763.199999988079,NA,NA,NA,NA,survey-likert-extra-labels,122,2214806,0.0-45.0-1.0-0.0,anomymised,6565812bd48bb6bd55b14982,656703bad07b24c4dd19e8f4,5667,2B,man,NA,NA,M2 is reminding W4,remind,rating_causation,"{""Q0"":6}",[0],M2 is remembering,W4 is remembering
5118.20000000298,NA,NA,NA,NA,survey-likert-extra-labels,123,2219926,0.0-45.0-2.0,anomymised,6565812bd48bb6bd55b14982,656703bad07b24c4dd19e8f4,5667,2B,man,NA,NA,M2 is reminding W4,remind,rating_volition,"{""Q0"":0}",[0],M2 is telling W4 again,W4 is telling M2 again
null,Dave is being seduced by Mike,NA,NA,NA,html-keyboard-response,124,2221933,0.0-46.0-0.0,anomymised,6565812bd48bb6bd55b14982,656703bad07b24c4dd19e8f4,5667,2B,man,NA,null,M2 is being seduced by M4,seduce2,sentence,NA,NA,NA,NA
3683.0999999940395,NA,NA,NA,NA,survey-likert-extra-labels,125,2225617,0.0-46.0-1.0-0.0,anomymised,6565812bd48bb6bd55b14982,656703bad07b24c4dd19e8f4,5667,2B,man,NA,NA,M2 is being seduced by M4,seduce2,rating_causation,"{""Q0"":0}",[0],M4 started seducing M2 first,M2 started seducing M4 first
3377.6000000089407,NA,NA,NA,NA,survey-likert-extra-labels,126,2228997,0.0-46.0-2.0,anomymised,6565812bd48bb6bd55b14982,656703bad07b24c4dd19e8f4,5667,2B,man,NA,NA,M2 is being seduced by M4,seduce2,rating_volition,"{""Q0"":0}",[0],M4 wanted to seduce M2,M2 wanted to seduce M4
null,Mike is being looked at by Kate,NA,NA,NA,html-keyboard-response,127,2231020,0.0-47.0-0.0,anomymised,6565812bd48bb6bd55b14982,656703bad07b24c4dd19e8f4,5667,2B,man,NA,null,M4 is being looked at by W2,look3,sentence,NA,NA,NA,NA
3134.7000000029802,NA,NA,NA,NA,survey-likert-extra-labels,128,2234156,0.0-47.0-2.0,anomymised,6565812bd48bb6bd55b14982,656703bad07b24c4dd19e8f4,5667,2B,man,NA,NA,M4 is being looked at by W2,look3,rating_volition,"{""Q0"":5}",[0],M4 wanted to look at W2,W2 wanted to look at M4
5673.20000000298,NA,NA,NA,NA,survey-likert-extra-labels,129,2239831,0.0-47.0-3.0-0.0,anomymised,6565812bd48bb6bd55b14982,656703bad07b24c4dd19e8f4,5667,2B,man,NA,NA,M4 is being looked at by W2,look3,rating_causation,"{""Q0"":3}",[0],M4 looked at W2 first,W2 looked at M4 first
null,Fred is being shouted at by Luke,NA,NA,NA,html-keyboard-response,130,2241853,0.0-48.0-0.0,anomymised,6565812bd48bb6bd55b14982,656703bad07b24c4dd19e8f4,5667,2B,man,NA,null,M1 is being shouted at by M3,shout2,sentence,NA,NA,NA,NA
547319.200000003,NA,NA,NA,NA,survey-likert-extra-labels,131,2789172,0.0-48.0-1.0-0.0,anomymised,6565812bd48bb6bd55b14982,656703bad07b24c4dd19e8f4,5667,2B,man,NA,NA,M1 is being shouted at by M3,shout2,rating_causation,"{""Q0"":3}",[0],M3 shouted at M1 first,M1 shouted at M3 first
6459.5999999940395,NA,NA,NA,NA,survey-likert-extra-labels,132,2795634,0.0-48.0-2.0,anomymised,6565812bd48bb6bd55b14982,656703bad07b24c4dd19e8f4,5667,2B,man,NA,NA,M1 is being shouted at by M3,shout2,rating_volition,"{""Q0"":1}",[0],M3 wanted to shout at M1,M1 wanted to shout at M3
null,Luke is being looked at by Fred,NA,NA,NA,html-keyboard-response,133,2797645,0.0-49.0-0.0,anomymised,6565812bd48bb6bd55b14982,656703bad07b24c4dd19e8f4,5667,2B,man,NA,null,M3 is being looked at by M1,look2,sentence,NA,NA,NA,NA
23062.90000000596,NA,NA,NA,NA,survey-likert-extra-labels,134,2820709,0.0-49.0-1.0-0.0,anomymised,6565812bd48bb6bd55b14982,656703bad07b24c4dd19e8f4,5667,2B,man,NA,NA,M3 is being looked at by M1,look2,rating_causation,"{""Q0"":3}",[0],M3 looked at M1 first,M1 looked at M3 first
4024.6000000089407,NA,NA,NA,NA,survey-likert-extra-labels,135,2824735,0.0-49.0-2.0,anomymised,6565812bd48bb6bd55b14982,656703bad07b24c4dd19e8f4,5667,2B,man,NA,NA,M3 is being looked at by M1,look2,rating_volition,"{""Q0"":5}",[0],M3 wanted to look at M1,M1 wanted to look at M3
null,Ruth is being copied by Kate,NA,NA,NA,html-keyboard-response,136,2826738,0.0-50.0-0.0,anomymised,6565812bd48bb6bd55b14982,656703bad07b24c4dd19e8f4,5667,2B,man,NA,null,W4 is being copied by W2,copy1,sentence,NA,NA,NA,NA
4563.4000000059605,NA,NA,NA,NA,survey-likert-extra-labels,137,2831303,0.0-50.0-1.0-0.0,anomymised,6565812bd48bb6bd55b14982,656703bad07b24c4dd19e8f4,5667,2B,man,NA,NA,W4 is being copied by W2,copy1,rating_causation,"{""Q0"":5}",[0],W4 started copying W2 first,W2 started copying W4 first
5036.4000000059605,NA,NA,NA,NA,survey-likert-extra-labels,138,2836341,0.0-50.0-2.0,anomymised,6565812bd48bb6bd55b14982,656703bad07b24c4dd19e8f4,5667,2B,man,NA,NA,W4 is being copied by W2,copy1,rating_volition,"{""Q0"":6}",[0],W4 wanted to copy W2,W2 wanted to copy W4
null,Beth is being hugged by Jane,NA,NA,NA,html-keyboard-response,139,2838361,0.0-51.0-0.0,anomymised,6565812bd48bb6bd55b14982,656703bad07b24c4dd19e8f4,5667,2B,man,NA,null,W1 is being hugged by W3,hug1,sentence,NA,NA,NA,NA
234068.59999999404,NA,NA,NA,NA,survey-likert-extra-labels,140,3072430,0.0-51.0-1.0-0.0,anomymised,6565812bd48bb6bd55b14982,656703bad07b24c4dd19e8f4,5667,2B,man,NA,NA,W1 is being hugged by W3,hug1,rating_causation,"{""Q0"":3}",[0],W3 asked to hug W1,W1 asked to hug W3
4518,NA,NA,NA,NA,survey-likert-extra-labels,141,3076950,0.0-51.0-2.0,anomymised,6565812bd48bb6bd55b14982,656703bad07b24c4dd19e8f4,5667,2B,man,NA,NA,W1 is being hugged by W3,hug1,rating_volition,"{""Q0"":0}",[0],W3 wanted to hug W1,W1 wanted to hug W3
null,Jane is being seduced by Fred,NA,NA,NA,html-keyboard-response,142,3078952,0.0-52.0-0.0,anomymised,6565812bd48bb6bd55b14982,656703bad07b24c4dd19e8f4,5667,2B,man,NA,null,W3 is being seduced by M1,seduce3,sentence,NA,NA,NA,NA
4808.70000000298,NA,NA,NA,NA,survey-likert-extra-labels,143,3083762,0.0-52.0-1.0-0.0,anomymised,6565812bd48bb6bd55b14982,656703bad07b24c4dd19e8f4,5667,2B,man,NA,NA,W3 is being seduced by M1,seduce3,rating_causation,"{""Q0"":0}",[0],M1 started seducing W3 first,W3 started seducing M1 first
2455.6000000089407,NA,NA,NA,NA,survey-likert-extra-labels,144,3086220,0.0-52.0-2.0,anomymised,6565812bd48bb6bd55b14982,656703bad07b24c4dd19e8f4,5667,2B,man,NA,NA,W3 is being seduced by M1,seduce3,rating_volition,"{""Q0"":0}",[0],M1 wanted to seduce W3,W3 wanted to seduce M1
null,Dave is being opposed by Ruth,NA,NA,NA,html-keyboard-response,145,3088232,0.0-53.0-0.0,anomymised,6565812bd48bb6bd55b14982,656703bad07b24c4dd19e8f4,5667,2B,man,NA,null,M2 is being opposed by W4,oppose4,sentence,NA,NA,NA,NA
26143.80000001192,NA,NA,NA,NA,survey-likert-extra-labels,146,3114377,0.0-53.0-2.0,anomymised,6565812bd48bb6bd55b14982,656703bad07b24c4dd19e8f4,5667,2B,man,NA,NA,M2 is being opposed by W4,oppose4,rating_volition,"{""Q0"":0}",[0],W4 wanted to oppose M2,M2 wanted to oppose W4
4033.5,NA,NA,NA,NA,survey-likert-extra-labels,147,3118412,0.0-53.0-3.0-0.0,anomymised,6565812bd48bb6bd55b14982,656703bad07b24c4dd19e8f4,5667,2B,man,NA,NA,M2 is being opposed by W4,oppose4,rating_causation,"{""Q0"":0}",[0],W4 started opposing M2,M2 started opposing W4
null,Mike is being kissed by Kate,NA,NA,NA,html-keyboard-response,148,3120433,0.0-54.0-0.0,anomymised,6565812bd48bb6bd55b14982,656703bad07b24c4dd19e8f4,5667,2B,man,NA,null,M4 is being kissed by W2,kiss4,sentence,NA,NA,NA,NA
4003.7000000029802,NA,NA,NA,NA,survey-likert-extra-labels,149,3124438,0.0-54.0-1.0-0.0,anomymised,6565812bd48bb6bd55b14982,656703bad07b24c4dd19e8f4,5667,2B,man,NA,NA,M4 is being kissed by W2,kiss4,rating_causation,"{""Q0"":3}",[0],M4 asked to kiss W2,W2 asked to kiss M4
3969.5999999940395,NA,NA,NA,NA,survey-likert-extra-labels,150,3128410,0.0-54.0-2.0,anomymised,6565812bd48bb6bd55b14982,656703bad07b24c4dd19e8f4,5667,2B,man,NA,NA,M4 is being kissed by W2,kiss4,rating_volition,"{""Q0"":6}",[0],M4 wanted to kiss W2,W2 wanted to kiss M4
2237.8999999910593,<p>Thank you for completing that task.</p><p>The final part of this session is a short questionnaire.</p><p>Press Continue.</p>,0,Continue,Continue,html-button-response,151,3130650,0.0-55.0,anomymised,6565812bd48bb6bd55b14982,656703bad07b24c4dd19e8f4,5667,2B,man,NA,NA,NA,NA,NA,NA,NA,NA,NA
22691.60000000894,NA,NA,NA,NA,survey-text,152,3154358,0.0-56.0,anomymised,6565812bd48bb6bd55b14982,656703bad07b24c4dd19e8f4,5667,2B,man,NA,NA,NA,NA,demographics,"{""Q0"":""34"",""Q1"":""English"",""Q2"":""English"",""Q3"":""England"",""Q4"":""English"",""Q5"":""White"",""Q6"":""Male""}",NA,NA,NA
5414.199999988079,<p>This is the last question - thank you for taking part! Have you lived in the UK for the last 5 years or more?</p>,0,"Yes,No",Yes,html-button-response,153,3159774,0.0-57.0,anomymised,6565812bd48bb6bd55b14982,656703bad07b24c4dd19e8f4,5667,2B,man,NA,NA,NA,NA,fiveyears,NA,NA,NA,NA
