rt,stimulus,button_pressed,choices,ChosenStimulus,trial_type,trial_index,time_elapsed,internal_node_id,subject_id,study_id,session_id,subject,list,ppt_gender,url,key_press,sentence_type,verb,test_part,responses,question_order,left_part,right_part
4197.0999999996275,Welcome to the experiment. Press Continue to begin.,0,Continue,Continue,html-button-response,0,4200,0.0-0.0,anomymised,656582028f794bf1617e53e2,65673889d4460c756794f057,58146,1,man,NA,NA,NA,NA,NA,NA,NA,NA,NA
5549.699999999255,NA,NA,NA,NA,external-html,1,10829,0.0-1.0,anomymised,656582028f794bf1617e53e2,65673889d4460c756794f057,58146,1,man,consent.html,NA,NA,NA,NA,NA,NA,NA,NA
2656.5,"<p>Welcome.</p><p>In this experiment we will ask you to imagine some situations.</p><p>Each trial starts with a description of an event.</p><p>Then you will see alternative descriptions of that event, and you will rate on a scale how best they match the original description.</p><p>You will give your answer by clicking a button on a rating scale.</p><p>To do this task, you will have to use your imagination to visualise these events.</p><br><p>Ready?</p>",0,Continue,Continue,html-button-response,2,13487,0.0-2.0,anomymised,656582028f794bf1617e53e2,65673889d4460c756794f057,58146,1,man,NA,NA,NA,NA,NA,NA,NA,NA,NA
1692.9000000003725,"<p>Before the experiment starts, you will watch an example trial. Press 'Continue'.</p>",0,Continue,Continue,html-button-response,3,16181,0.0-3.0,anomymised,656582028f794bf1617e53e2,65673889d4460c756794f057,58146,1,man,NA,NA,NA,NA,NA,NA,NA,NA,NA
null,The police officer is arresting the robber,NA,NA,NA,html-keyboard-response,4,19192,0.0-4.0,anomymised,656582028f794bf1617e53e2,65673889d4460c756794f057,58146,1,man,NA,null,NA,NA,NA,NA,NA,NA,NA
32107.800000000745,<img src='img/Example-trial.jpg' style='height:550px;''></img>,0,Continue,Continue,html-button-response,5,51301,0.0-5.0,anomymised,656582028f794bf1617e53e2,65673889d4460c756794f057,58146,1,man,NA,NA,NA,NA,NA,NA,NA,NA,NA
2020.5999999996275,<p>Ready to start the experiment?</p><br><p><strong>Remember to give an answer by clicking a button on the rating scale.</strong></p><p>Press 'Continue' to begin.</p>,0,Continue,Continue,html-button-response,6,54326,0.0-6.0,anomymised,656582028f794bf1617e53e2,65673889d4460c756794f057,58146,1,man,NA,NA,NA,NA,NA,NA,NA,NA,NA
null,Jane is being greeted by Beth,NA,NA,NA,html-keyboard-response,7,57346,0.0-7.0-0.0,anomymised,656582028f794bf1617e53e2,65673889d4460c756794f057,58146,1,man,NA,null,W2 is being greeted by W4,greet1,sentence,NA,NA,NA,NA
11138.599999999627,NA,NA,NA,NA,survey-likert-extra-labels,8,68487,0.0-7.0-2.0,anomymised,656582028f794bf1617e53e2,65673889d4460c756794f057,58146,1,man,NA,NA,W2 is being greeted by W4,greet1,rating_volition,"{""Q0"":0}",[0],W4 wanted to greet W2,W2 wanted to greet W4
7300.39999999851,NA,NA,NA,NA,survey-likert-extra-labels,9,75790,0.0-7.0-3.0-0.0,anomymised,656582028f794bf1617e53e2,65673889d4460c756794f057,58146,1,man,NA,NA,W2 is being greeted by W4,greet1,rating_causation,"{""Q0"":3}",[0],W4 started greeting W2 first,W2 started greeting W4 first
null,Kate is being hugged by Ruth,NA,NA,NA,html-keyboard-response,10,77807,0.0-8.0-0.0,anomymised,656582028f794bf1617e53e2,65673889d4460c756794f057,58146,1,man,NA,null,W3 is being hugged by W1,hug1,sentence,NA,NA,NA,NA
6668.9000000003725,NA,NA,NA,NA,survey-likert-extra-labels,11,84478,0.0-8.0-2.0,anomymised,656582028f794bf1617e53e2,65673889d4460c756794f057,58146,1,man,NA,NA,W3 is being hugged by W1,hug1,rating_volition,"{""Q0"":6}",[0],W3 wanted to hug W1,W1 wanted to hug W3
5062.299999998882,NA,NA,NA,NA,survey-likert-extra-labels,12,89542,0.0-8.0-3.0-0.0,anomymised,656582028f794bf1617e53e2,65673889d4460c756794f057,58146,1,man,NA,NA,W3 is being hugged by W1,hug1,rating_causation,"{""Q0"":3}",[0],W3 asked to hug W1,W1 asked to hug W3
null,Dave is being hugged by Jane,NA,NA,NA,html-keyboard-response,13,91548,0.0-9.0-0.0,anomymised,656582028f794bf1617e53e2,65673889d4460c756794f057,58146,1,man,NA,null,M4 is being hugged by W2,hug3,sentence,NA,NA,NA,NA
4263.799999998882,NA,NA,NA,NA,survey-likert-extra-labels,14,95813,0.0-9.0-1.0-0.0,anomymised,656582028f794bf1617e53e2,65673889d4460c756794f057,58146,1,man,NA,NA,M4 is being hugged by W2,hug3,rating_causation,"{""Q0"":3}",[0],M4 asked to hug W2,W2 asked to hug M4
5671.0999999996275,NA,NA,NA,NA,survey-likert-extra-labels,15,101486,0.0-9.0-2.0,anomymised,656582028f794bf1617e53e2,65673889d4460c756794f057,58146,1,man,NA,NA,M4 is being hugged by W2,hug3,rating_volition,"{""Q0"":6}",[0],M4 wanted to hug W2,W2 wanted to hug M4
null,Luke is being seduced by Kate,NA,NA,NA,html-keyboard-response,16,103492,0.0-10.0-0.0,anomymised,656582028f794bf1617e53e2,65673889d4460c756794f057,58146,1,man,NA,null,M1 is being seduced by W3,seduce3,sentence,NA,NA,NA,NA
3896.5,NA,NA,NA,NA,survey-likert-extra-labels,17,107390,0.0-10.0-1.0-0.0,anomymised,656582028f794bf1617e53e2,65673889d4460c756794f057,58146,1,man,NA,NA,M1 is being seduced by W3,seduce3,rating_causation,"{""Q0"":3}",[0],M1 started seducing W3 first,W3 started seducing M1 first
4511.4000000003725,NA,NA,NA,NA,survey-likert-extra-labels,18,111903,0.0-10.0-2.0,anomymised,656582028f794bf1617e53e2,65673889d4460c756794f057,58146,1,man,NA,NA,M1 is being seduced by W3,seduce3,rating_volition,"{""Q0"":6}",[0],M1 wanted to seduce W3,W3 wanted to seduce M1
null,Luke is being challenged by Kate,NA,NA,NA,html-keyboard-response,19,113917,0.0-11.0-0.0,anomymised,656582028f794bf1617e53e2,65673889d4460c756794f057,58146,1,man,NA,null,M1 is being challenged by W3,challenge4,sentence,NA,NA,NA,NA
4166.200000001118,NA,NA,NA,NA,survey-likert-extra-labels,20,118085,0.0-11.0-1.0-0.0,anomymised,656582028f794bf1617e53e2,65673889d4460c756794f057,58146,1,man,NA,NA,M1 is being challenged by W3,challenge4,rating_causation,"{""Q0"":3}",[0],M1 started challenging W3 first,W3 started challenging M1 first
4606.9000000003725,NA,NA,NA,NA,survey-likert-extra-labels,21,122694,0.0-11.0-2.0,anomymised,656582028f794bf1617e53e2,65673889d4460c756794f057,58146,1,man,NA,NA,M1 is being challenged by W3,challenge4,rating_volition,"{""Q0"":6}",[0],M1 wanted to challenge W3,W3 wanted to challenge M1
null,Beth is being opposed by Mike,NA,NA,NA,html-keyboard-response,22,124699,0.0-12.0-0.0,anomymised,656582028f794bf1617e53e2,65673889d4460c756794f057,58146,1,man,NA,null,W4 is being opposed by M2,oppose4,sentence,NA,NA,NA,NA
4152.300000000745,NA,NA,NA,NA,survey-likert-extra-labels,23,128853,0.0-12.0-1.0-0.0,anomymised,656582028f794bf1617e53e2,65673889d4460c756794f057,58146,1,man,NA,NA,W4 is being opposed by M2,oppose4,rating_causation,"{""Q0"":3}",[0],W4 started opposing M2,M2 started opposing W4
5021.5999999996275,NA,NA,NA,NA,survey-likert-extra-labels,24,133877,0.0-12.0-2.0,anomymised,656582028f794bf1617e53e2,65673889d4460c756794f057,58146,1,man,NA,NA,W4 is being opposed by M2,oppose4,rating_volition,"{""Q0"":6}",[0],W4 wanted to oppose M2,M2 wanted to oppose W4
null,Fred is being greeted by Ruth,NA,NA,NA,html-keyboard-response,25,135895,0.0-13.0-0.0,anomymised,656582028f794bf1617e53e2,65673889d4460c756794f057,58146,1,man,NA,null,M3 is being greeted by W1,greet3,sentence,NA,NA,NA,NA
4538.39999999851,NA,NA,NA,NA,survey-likert-extra-labels,26,140436,0.0-13.0-1.0-0.0,anomymised,656582028f794bf1617e53e2,65673889d4460c756794f057,58146,1,man,NA,NA,M3 is being greeted by W1,greet3,rating_causation,"{""Q0"":3}",[0],W1 started greeting M3 first,M3 started greeting W1 first
5296.39999999851,NA,NA,NA,NA,survey-likert-extra-labels,27,145734,0.0-13.0-2.0,anomymised,656582028f794bf1617e53e2,65673889d4460c756794f057,58146,1,man,NA,NA,M3 is being greeted by W1,greet3,rating_volition,"{""Q0"":0}",[0],W1 wanted to greet M3,M3 wanted to greet W1
null,Dave is being seduced by Mike,NA,NA,NA,html-keyboard-response,28,147746,0.0-14.0-0.0,anomymised,656582028f794bf1617e53e2,65673889d4460c756794f057,58146,1,man,NA,null,M4 is being seduced by M2,seduce2,sentence,NA,NA,NA,NA
8920.799999998882,NA,NA,NA,NA,survey-likert-extra-labels,29,156670,0.0-14.0-1.0-0.0,anomymised,656582028f794bf1617e53e2,65673889d4460c756794f057,58146,1,man,NA,NA,M4 is being seduced by M2,seduce2,rating_causation,"{""Q0"":3}",[0],M4 started seducing M2 first,M2 started seducing M4 first
4148.299999998882,NA,NA,NA,NA,survey-likert-extra-labels,30,160820,0.0-14.0-2.0,anomymised,656582028f794bf1617e53e2,65673889d4460c756794f057,58146,1,man,NA,NA,M4 is being seduced by M2,seduce2,rating_volition,"{""Q0"":6}",[0],M4 wanted to seduce M2,M2 wanted to seduce M4
null,Kate is being shouted at by Ruth,NA,NA,NA,html-keyboard-response,31,162835,0.0-15.0-0.0,anomymised,656582028f794bf1617e53e2,65673889d4460c756794f057,58146,1,man,NA,null,W3 is being shouted at by W1,shout1,sentence,NA,NA,NA,NA
2928.5,NA,NA,NA,NA,survey-likert-extra-labels,32,165766,0.0-15.0-2.0,anomymised,656582028f794bf1617e53e2,65673889d4460c756794f057,58146,1,man,NA,NA,W3 is being shouted at by W1,shout1,rating_volition,"{""Q0"":3}",[0],W3 wanted to shout at W1,W1 wanted to shout at W3
5862.199999999255,NA,NA,NA,NA,survey-likert-extra-labels,33,171630,0.0-15.0-3.0-0.0,anomymised,656582028f794bf1617e53e2,65673889d4460c756794f057,58146,1,man,NA,NA,W3 is being shouted at by W1,shout1,rating_causation,"{""Q0"":3}",[0],W3 shouted at W1 first,W1 shouted at W3 first
null,Jane is being copied by Beth,NA,NA,NA,html-keyboard-response,34,173644,0.0-16.0-0.0,anomymised,656582028f794bf1617e53e2,65673889d4460c756794f057,58146,1,man,NA,null,W2 is being copied by W4,copy1,sentence,NA,NA,NA,NA
3176.7000000011176,NA,NA,NA,NA,survey-likert-extra-labels,35,176822,0.0-16.0-1.0-0.0,anomymised,656582028f794bf1617e53e2,65673889d4460c756794f057,58146,1,man,NA,NA,W2 is being copied by W4,copy1,rating_causation,"{""Q0"":3}",[0],W4 started copying W2 first,W2 started copying W4 first
6287.5999999996275,NA,NA,NA,NA,survey-likert-extra-labels,36,183110,0.0-16.0-2.0,anomymised,656582028f794bf1617e53e2,65673889d4460c756794f057,58146,1,man,NA,NA,W2 is being copied by W4,copy1,rating_volition,"{""Q0"":0}",[0],W4 wanted to copy W2,W2 wanted to copy W4
null,Fred is being shouted at by Luke,NA,NA,NA,html-keyboard-response,37,185115,0.0-17.0-0.0,anomymised,656582028f794bf1617e53e2,65673889d4460c756794f057,58146,1,man,NA,null,M3 is being shouted at by M1,shout2,sentence,NA,NA,NA,NA
4498.299999998882,NA,NA,NA,NA,survey-likert-extra-labels,38,189615,0.0-17.0-2.0,anomymised,656582028f794bf1617e53e2,65673889d4460c756794f057,58146,1,man,NA,NA,M3 is being shouted at by M1,shout2,rating_volition,"{""Q0"":6}",[0],M3 wanted to shout at M1,M1 wanted to shout at M3
4141.4000000003725,NA,NA,NA,NA,survey-likert-extra-labels,39,193758,0.0-17.0-3.0-0.0,anomymised,656582028f794bf1617e53e2,65673889d4460c756794f057,58146,1,man,NA,NA,M3 is being shouted at by M1,shout2,rating_causation,"{""Q0"":3}",[0],M3 shouted at M1 first,M1 shouted at M3 first
null,Mike is being kissed by Beth,NA,NA,NA,html-keyboard-response,40,195775,0.0-18.0-0.0,anomymised,656582028f794bf1617e53e2,65673889d4460c756794f057,58146,1,man,NA,null,M2 is being kissed by W4,kiss3,sentence,NA,NA,NA,NA
2965.4000000003725,NA,NA,NA,NA,survey-likert-extra-labels,41,198742,0.0-18.0-1.0-0.0,anomymised,656582028f794bf1617e53e2,65673889d4460c756794f057,58146,1,man,NA,NA,M2 is being kissed by W4,kiss3,rating_causation,"{""Q0"":3}",[0],W4 asked to kiss M2,M2 asked to kiss W4
3046,NA,NA,NA,NA,survey-likert-extra-labels,42,201790,0.0-18.0-2.0,anomymised,656582028f794bf1617e53e2,65673889d4460c756794f057,58146,1,man,NA,NA,M2 is being kissed by W4,kiss3,rating_volition,"{""Q0"":0}",[0],W4 wanted to kiss M2,M2 wanted to kiss W4
null,Fred is being hugged by Luke,NA,NA,NA,html-keyboard-response,43,203800,0.0-19.0-0.0,anomymised,656582028f794bf1617e53e2,65673889d4460c756794f057,58146,1,man,NA,null,M3 is being hugged by M1,hug2,sentence,NA,NA,NA,NA
2173,NA,NA,NA,NA,survey-likert-extra-labels,44,205974,0.0-19.0-1.0-0.0,anomymised,656582028f794bf1617e53e2,65673889d4460c756794f057,58146,1,man,NA,NA,M3 is being hugged by M1,hug2,rating_causation,"{""Q0"":3}",[0],M3 asked to hug M1,M1 asked to hug M3
3142,NA,NA,NA,NA,survey-likert-extra-labels,45,209118,0.0-19.0-2.0,anomymised,656582028f794bf1617e53e2,65673889d4460c756794f057,58146,1,man,NA,NA,M3 is being hugged by M1,hug2,rating_volition,"{""Q0"":6}",[0],M3 wanted to hug M1,M1 wanted to hug M3
null,Mike is reminding Beth,NA,NA,NA,html-keyboard-response,46,211129,0.0-20.0-0.0,anomymised,656582028f794bf1617e53e2,65673889d4460c756794f057,58146,1,man,NA,null,M2 is reminding W4,remind,sentence,NA,NA,NA,NA
11339.300000000745,NA,NA,NA,NA,survey-likert-extra-labels,47,222471,0.0-20.0-1.0-0.0,anomymised,656582028f794bf1617e53e2,65673889d4460c756794f057,58146,1,man,NA,NA,M2 is reminding W4,remind,rating_causation,"{""Q0"":6}",[0],M2 is remembering,W4 is remembering
4148.5,NA,NA,NA,NA,survey-likert-extra-labels,48,226623,0.0-20.0-2.0,anomymised,656582028f794bf1617e53e2,65673889d4460c756794f057,58146,1,man,NA,NA,M2 is reminding W4,remind,rating_volition,"{""Q0"":0}",[0],M2 is telling W4 again,W4 is telling M2 again
null,Dave is being shouted at by Jane,NA,NA,NA,html-keyboard-response,49,228628,0.0-21.0-0.0,anomymised,656582028f794bf1617e53e2,65673889d4460c756794f057,58146,1,man,NA,null,M4 is being shouted at by W2,shout4,sentence,NA,NA,NA,NA
4128.5999999996275,NA,NA,NA,NA,survey-likert-extra-labels,50,232757,0.0-21.0-1.0-0.0,anomymised,656582028f794bf1617e53e2,65673889d4460c756794f057,58146,1,man,NA,NA,M4 is being shouted at by W2,shout4,rating_causation,"{""Q0"":3}",[0],M4 shouted at W2 first,W2 shouted at M4 first
11423.5,NA,NA,NA,NA,survey-likert-extra-labels,51,244182,0.0-21.0-2.0,anomymised,656582028f794bf1617e53e2,65673889d4460c756794f057,58146,1,man,NA,NA,M4 is being shouted at by W2,shout4,rating_volition,"{""Q0"":6}",[0],M4 wanted to shout at W2,W2 wanted to shout at M4
null,Ruth is being seduced by Fred,NA,NA,NA,html-keyboard-response,52,246194,0.0-22.0-0.0,anomymised,656582028f794bf1617e53e2,65673889d4460c756794f057,58146,1,man,NA,null,W1 is being seduced by M3,seduce4,sentence,NA,NA,NA,NA
17873.800000000745,NA,NA,NA,NA,survey-likert-extra-labels,53,264069,0.0-22.0-2.0,anomymised,656582028f794bf1617e53e2,65673889d4460c756794f057,58146,1,man,NA,NA,W1 is being seduced by M3,seduce4,rating_volition,"{""Q0"":6}",[0],W1 wanted to seducing M3,M3 wanted to seducing W1
2230.7999999988824,NA,NA,NA,NA,survey-likert-extra-labels,54,266301,0.0-22.0-3.0-0.0,anomymised,656582028f794bf1617e53e2,65673889d4460c756794f057,58146,1,man,NA,NA,W1 is being seduced by M3,seduce4,rating_causation,"{""Q0"":3}",[0],W1 started seducing M3 first,M3 started seducing W1 first
null,Mike is posing for Dave,NA,NA,NA,html-keyboard-response,55,268306,0.0-23.0-0.0,anomymised,656582028f794bf1617e53e2,65673889d4460c756794f057,58146,1,man,NA,null,M2 is posing for M4,pose,sentence,NA,NA,NA,NA
4394.10000000149,NA,NA,NA,NA,survey-likert-extra-labels,56,272701,0.0-23.0-1.0-0.0,anomymised,656582028f794bf1617e53e2,65673889d4460c756794f057,58146,1,man,NA,NA,M2 is posing for M4,pose,rating_causation,"{""Q0"":6}",[0],M2 is photographing M4,M4 is photographing M2
2670.5999999996275,NA,NA,NA,NA,survey-likert-extra-labels,57,275373,0.0-23.0-2.0,anomymised,656582028f794bf1617e53e2,65673889d4460c756794f057,58146,1,man,NA,NA,M2 is posing for M4,pose,rating_volition,"{""Q0"":0}",[0],M2 is modelling for M4,M4 is modelling for M2
null,Fred is being opposed by Luke,NA,NA,NA,html-keyboard-response,58,277375,0.0-24.0-0.0,anomymised,656582028f794bf1617e53e2,65673889d4460c756794f057,58146,1,man,NA,null,M3 is being opposed by M1,oppose2,sentence,NA,NA,NA,NA
10715.5,NA,NA,NA,NA,survey-likert-extra-labels,59,288093,0.0-24.0-1.0-0.0,anomymised,656582028f794bf1617e53e2,65673889d4460c756794f057,58146,1,man,NA,NA,M3 is being opposed by M1,oppose2,rating_causation,"{""Q0"":6}",[0],M3 started opposing M1,M1 started opposing M3
3767.300000000745,NA,NA,NA,NA,survey-likert-extra-labels,60,291862,0.0-24.0-2.0,anomymised,656582028f794bf1617e53e2,65673889d4460c756794f057,58146,1,man,NA,NA,M3 is being opposed by M1,oppose2,rating_volition,"{""Q0"":6}",[0],M3 wanted to oppose M1,M1 wanted to oppose M3
null,Beth is being hugged by Mike,NA,NA,NA,html-keyboard-response,61,293880,0.0-25.0-0.0,anomymised,656582028f794bf1617e53e2,65673889d4460c756794f057,58146,1,man,NA,null,W4 is being hugged by M2,hug4,sentence,NA,NA,NA,NA
2325.800000000745,NA,NA,NA,NA,survey-likert-extra-labels,62,296207,0.0-25.0-1.0-0.0,anomymised,656582028f794bf1617e53e2,65673889d4460c756794f057,58146,1,man,NA,NA,W4 is being hugged by M2,hug4,rating_causation,"{""Q0"":3}",[0],W4 asked to hug M2,M2 asked to hug W4
3446.5,NA,NA,NA,NA,survey-likert-extra-labels,63,299656,0.0-25.0-2.0,anomymised,656582028f794bf1617e53e2,65673889d4460c756794f057,58146,1,man,NA,NA,W4 is being hugged by M2,hug4,rating_volition,"{""Q0"":6}",[0],W4 wanted to hug M2,M2 wanted to hug W4
null,Luke is being looked at by Fred,NA,NA,NA,html-keyboard-response,64,301671,0.0-26.0-0.0,anomymised,656582028f794bf1617e53e2,65673889d4460c756794f057,58146,1,man,NA,null,M1 is being looked at by M3,look2,sentence,NA,NA,NA,NA
8061.700000001118,NA,NA,NA,NA,survey-likert-extra-labels,65,309735,0.0-26.0-2.0,anomymised,656582028f794bf1617e53e2,65673889d4460c756794f057,58146,1,man,NA,NA,M1 is being looked at by M3,look2,rating_volition,"{""Q0"":0}",[0],M3 wanted to look at M1,M1 wanted to look at M3
2653.10000000149,NA,NA,NA,NA,survey-likert-extra-labels,66,312391,0.0-26.0-3.0-0.0,anomymised,656582028f794bf1617e53e2,65673889d4460c756794f057,58146,1,man,NA,NA,M1 is being looked at by M3,look2,rating_causation,"{""Q0"":3}",[0],M3 looked at M1 first,M1 looked at M3 first
null,Jane is being kissed by Dave,NA,NA,NA,html-keyboard-response,67,314404,0.0-27.0-0.0,anomymised,656582028f794bf1617e53e2,65673889d4460c756794f057,58146,1,man,NA,null,W2 is being kissed by M4,kiss4,sentence,NA,NA,NA,NA
2416.2000000011176,NA,NA,NA,NA,survey-likert-extra-labels,68,316823,0.0-27.0-1.0-0.0,anomymised,656582028f794bf1617e53e2,65673889d4460c756794f057,58146,1,man,NA,NA,W2 is being kissed by M4,kiss4,rating_causation,"{""Q0"":3}",[0],M4 asked to kiss W2,W2 asked to kiss M4
6262.5999999996275,NA,NA,NA,NA,survey-likert-extra-labels,69,323087,0.0-27.0-2.0,anomymised,656582028f794bf1617e53e2,65673889d4460c756794f057,58146,1,man,NA,NA,W2 is being kissed by M4,kiss4,rating_volition,"{""Q0"":0}",[0],M4 wanted to kiss W2,W2 wanted to kiss M4
null,Beth is being shouted at by Mike,NA,NA,NA,html-keyboard-response,70,325104,0.0-28.0-0.0,anomymised,656582028f794bf1617e53e2,65673889d4460c756794f057,58146,1,man,NA,null,W4 is being shouted at by M2,shout3,sentence,NA,NA,NA,NA
1965.7999999988824,NA,NA,NA,NA,survey-likert-extra-labels,71,327071,0.0-28.0-1.0-0.0,anomymised,656582028f794bf1617e53e2,65673889d4460c756794f057,58146,1,man,NA,NA,W4 is being shouted at by M2,shout3,rating_causation,"{""Q0"":3}",[0],W4 shouted at M2 first,M2 shouted at W4 first
3246.10000000149,NA,NA,NA,NA,survey-likert-extra-labels,72,330318,0.0-28.0-2.0,anomymised,656582028f794bf1617e53e2,65673889d4460c756794f057,58146,1,man,NA,NA,W4 is being shouted at by M2,shout3,rating_volition,"{""Q0"":6}",[0],W4 wanted to shout at M2,M2 wanted to shout at W4
null,Ruth is being kissed by Kate,NA,NA,NA,html-keyboard-response,73,332336,0.0-29.0-0.0,anomymised,656582028f794bf1617e53e2,65673889d4460c756794f057,58146,1,man,NA,null,W1 is being kissed by W3,kiss1,sentence,NA,NA,NA,NA
4550.200000001118,NA,NA,NA,NA,survey-likert-extra-labels,74,336887,0.0-29.0-1.0-0.0,anomymised,656582028f794bf1617e53e2,65673889d4460c756794f057,58146,1,man,NA,NA,W1 is being kissed by W3,kiss1,rating_causation,"{""Q0"":3}",[0],W3 asked to kiss W1,W1 asked to kiss W3
5038.800000000745,NA,NA,NA,NA,survey-likert-extra-labels,75,341928,0.0-29.0-2.0,anomymised,656582028f794bf1617e53e2,65673889d4460c756794f057,58146,1,man,NA,NA,W1 is being kissed by W3,kiss1,rating_volition,"{""Q0"":0}",[0],W3 wanted to kiss W1,W1 wanted to kiss W3
null,Ruth is chasing Kate,NA,NA,NA,html-keyboard-response,76,343935,0.0-30.0-0.0,anomymised,656582028f794bf1617e53e2,65673889d4460c756794f057,58146,1,man,NA,null,W1 is chasing W3,chase,sentence,NA,NA,NA,NA
3845.300000000745,NA,NA,NA,NA,survey-likert-extra-labels,77,347783,0.0-30.0-2.0,anomymised,656582028f794bf1617e53e2,65673889d4460c756794f057,58146,1,man,NA,NA,W1 is chasing W3,chase,rating_volition,"{""Q0"":0}",[0],W1 is behind W3,W3 is behind W1
3165,NA,NA,NA,NA,survey-likert-extra-labels,78,350950,0.0-30.0-3.0-0.0,anomymised,656582028f794bf1617e53e2,65673889d4460c756794f057,58146,1,man,NA,NA,W1 is chasing W3,chase,rating_causation,"{""Q0"":6}",[0],W1 is running away from W3,W3 is running away from W1
null,Kate is feeding Luke,NA,NA,NA,html-keyboard-response,79,352962,0.0-31.0-0.0,anomymised,656582028f794bf1617e53e2,65673889d4460c756794f057,58146,1,man,NA,null,W3 is feeding M1,feed,sentence,NA,NA,NA,NA
3473.7999999988824,NA,NA,NA,NA,survey-likert-extra-labels,80,356437,0.0-31.0-1.0-0.0,anomymised,656582028f794bf1617e53e2,65673889d4460c756794f057,58146,1,man,NA,NA,W3 is feeding M1,feed,rating_causation,"{""Q0"":6}",[0],W3 is eating M1's food,M1 is eating W3's food
4254.699999999255,NA,NA,NA,NA,survey-likert-extra-labels,81,360693,0.0-31.0-2.0,anomymised,656582028f794bf1617e53e2,65673889d4460c756794f057,58146,1,man,NA,NA,W3 is feeding M1,feed,rating_volition,"{""Q0"":0}",[0],W3 cooked for M1,M1 cooked for W3
null,Jane is being looked at by Dave,NA,NA,NA,html-keyboard-response,82,362700,0.0-32.0-0.0,anomymised,656582028f794bf1617e53e2,65673889d4460c756794f057,58146,1,man,NA,null,W2 is being looked at by M4,look3,sentence,NA,NA,NA,NA
2856.199999999255,NA,NA,NA,NA,survey-likert-extra-labels,83,365558,0.0-32.0-1.0-0.0,anomymised,656582028f794bf1617e53e2,65673889d4460c756794f057,58146,1,man,NA,NA,W2 is being looked at by M4,look3,rating_causation,"{""Q0"":3}",[0],M4 looked at W2 first,W2 looked at M4 first
3144.5,NA,NA,NA,NA,survey-likert-extra-labels,84,368704,0.0-32.0-2.0,anomymised,656582028f794bf1617e53e2,65673889d4460c756794f057,58146,1,man,NA,NA,W2 is being looked at by M4,look3,rating_volition,"{""Q0"":0}",[0],M4 wanted to look at W2,W2 wanted to look at M4
null,Dave is being touched by Mike,NA,NA,NA,html-keyboard-response,85,370708,0.0-33.0-0.0,anomymised,656582028f794bf1617e53e2,65673889d4460c756794f057,58146,1,man,NA,null,M4 is being touched by M2,touch2,sentence,NA,NA,NA,NA
2870.5,NA,NA,NA,NA,survey-likert-extra-labels,86,373581,0.0-33.0-1.0-0.0,anomymised,656582028f794bf1617e53e2,65673889d4460c756794f057,58146,1,man,NA,NA,M4 is being touched by M2,touch2,rating_causation,"{""Q0"":3}",[0],M4 asked to touch M2,M2 asked to touch M4
3632.300000000745,NA,NA,NA,NA,survey-likert-extra-labels,87,377214,0.0-33.0-2.0,anomymised,656582028f794bf1617e53e2,65673889d4460c756794f057,58146,1,man,NA,NA,M4 is being touched by M2,touch2,rating_volition,"{""Q0"":6}",[0],M4 wanted to touch M2,M2 wanted to touch M4
null,Luke is being kissed by Fred,NA,NA,NA,html-keyboard-response,88,379226,0.0-34.0-0.0,anomymised,656582028f794bf1617e53e2,65673889d4460c756794f057,58146,1,man,NA,null,M1 is being kissed by M3,kiss2,sentence,NA,NA,NA,NA
4611.4000000003725,NA,NA,NA,NA,survey-likert-extra-labels,89,383840,0.0-34.0-2.0,anomymised,656582028f794bf1617e53e2,65673889d4460c756794f057,58146,1,man,NA,NA,M1 is being kissed by M3,kiss2,rating_volition,"{""Q0"":0}",[0],M3 wanted to kiss M1,M1 wanted to kiss M3
1979.4000000003725,NA,NA,NA,NA,survey-likert-extra-labels,90,385821,0.0-34.0-3.0-0.0,anomymised,656582028f794bf1617e53e2,65673889d4460c756794f057,58146,1,man,NA,NA,M1 is being kissed by M3,kiss2,rating_causation,"{""Q0"":3}",[0],M3 asked to kiss M1,M1 asked to kiss M3
null,Beth is being touched by Jane,NA,NA,NA,html-keyboard-response,91,387833,0.0-35.0-0.0,anomymised,656582028f794bf1617e53e2,65673889d4460c756794f057,58146,1,man,NA,null,W4 is being touched by W2,touch1,sentence,NA,NA,NA,NA
6876.60000000149,NA,NA,NA,NA,survey-likert-extra-labels,92,394710,0.0-35.0-1.0-0.0,anomymised,656582028f794bf1617e53e2,65673889d4460c756794f057,58146,1,man,NA,NA,W4 is being touched by W2,touch1,rating_causation,"{""Q0"":3}",[0],W4 asked to touch W2,W2 asked to touch W4
2781,NA,NA,NA,NA,survey-likert-extra-labels,93,397494,0.0-35.0-2.0,anomymised,656582028f794bf1617e53e2,65673889d4460c756794f057,58146,1,man,NA,NA,W4 is being touched by W2,touch1,rating_volition,"{""Q0"":6}",[0],W4 wanted to touch W2,W2 wanted to touch W4
null,Beth is being seduced by Jane,NA,NA,NA,html-keyboard-response,94,399497,0.0-36.0-0.0,anomymised,656582028f794bf1617e53e2,65673889d4460c756794f057,58146,1,man,NA,null,W4 is being seduced by W2,seduce1,sentence,NA,NA,NA,NA
2051.800000000745,NA,NA,NA,NA,survey-likert-extra-labels,95,401551,0.0-36.0-1.0-0.0,anomymised,656582028f794bf1617e53e2,65673889d4460c756794f057,58146,1,man,NA,NA,W4 is being seduced by W2,seduce1,rating_causation,"{""Q0"":3}",[0],W4 started seducing W2 first,W2 started seducing W4 first
3004.800000000745,NA,NA,NA,NA,survey-likert-extra-labels,96,404558,0.0-36.0-2.0,anomymised,656582028f794bf1617e53e2,65673889d4460c756794f057,58146,1,man,NA,NA,W4 is being seduced by W2,seduce1,rating_volition,"{""Q0"":6}",[0],W4 wanted to seduce W2,W2 wanted to seduce W4
null,Ruth is being looked at by Kate,NA,NA,NA,html-keyboard-response,97,406560,0.0-37.0-0.0,anomymised,656582028f794bf1617e53e2,65673889d4460c756794f057,58146,1,man,NA,null,W1 is being looked at by W3,look1,sentence,NA,NA,NA,NA
14692.099999999627,NA,NA,NA,NA,survey-likert-extra-labels,98,421255,0.0-37.0-1.0-0.0,anomymised,656582028f794bf1617e53e2,65673889d4460c756794f057,58146,1,man,NA,NA,W1 is being looked at by W3,look1,rating_causation,"{""Q0"":3}",[0],W3 looked at W1 first,W1 looked at W3 first
3924.4000000003725,NA,NA,NA,NA,survey-likert-extra-labels,99,425182,0.0-37.0-2.0,anomymised,656582028f794bf1617e53e2,65673889d4460c756794f057,58146,1,man,NA,NA,W1 is being looked at by W3,look1,rating_volition,"{""Q0"":0}",[0],W3 wanted to look at W1,W1 wanted to look at W3
null,Kate is being opposed by Ruth,NA,NA,NA,html-keyboard-response,100,427187,0.0-38.0-0.0,anomymised,656582028f794bf1617e53e2,65673889d4460c756794f057,58146,1,man,NA,null,W3 is being opposed by W1,oppose1,sentence,NA,NA,NA,NA
3170.699999999255,NA,NA,NA,NA,survey-likert-extra-labels,101,430359,0.0-38.0-2.0,anomymised,656582028f794bf1617e53e2,65673889d4460c756794f057,58146,1,man,NA,NA,W3 is being opposed by W1,oppose1,rating_volition,"{""Q0"":6}",[0],W3 wanted to oppose W1,W1 wanted to oppose W3
2309.4000000003725,NA,NA,NA,NA,survey-likert-extra-labels,102,432670,0.0-38.0-3.0-0.0,anomymised,656582028f794bf1617e53e2,65673889d4460c756794f057,58146,1,man,NA,NA,W3 is being opposed by W1,oppose1,rating_causation,"{""Q0"":3}",[0],W3 started opposing W1,W1 started opposing W3
null,Luke is driving Fred,NA,NA,NA,html-keyboard-response,103,434687,0.0-39.0-0.0,anomymised,656582028f794bf1617e53e2,65673889d4460c756794f057,58146,1,man,NA,null,M1 is driving M3,drive,sentence,NA,NA,NA,NA
3255.199999999255,NA,NA,NA,NA,survey-likert-extra-labels,104,437945,0.0-39.0-1.0-0.0,anomymised,656582028f794bf1617e53e2,65673889d4460c756794f057,58146,1,man,NA,NA,M1 is driving M3,drive,rating_causation,"{""Q0"":0}",[0],M1 is taking M3 somewhere,M3 is taking M1 somewhere
3002.800000000745,NA,NA,NA,NA,survey-likert-extra-labels,105,440949,0.0-39.0-2.0,anomymised,656582028f794bf1617e53e2,65673889d4460c756794f057,58146,1,man,NA,NA,M1 is driving M3,drive,rating_volition,"{""Q0"":6}",[0],M1 is M3's passenger,M3 is M1's passenger
null,Fred is being copied by Ruth,NA,NA,NA,html-keyboard-response,106,442952,0.0-40.0-0.0,anomymised,656582028f794bf1617e53e2,65673889d4460c756794f057,58146,1,man,NA,null,M3 is being copied by W1,copy4,sentence,NA,NA,NA,NA
3867.5999999996275,NA,NA,NA,NA,survey-likert-extra-labels,107,446822,0.0-40.0-2.0,anomymised,656582028f794bf1617e53e2,65673889d4460c756794f057,58146,1,man,NA,NA,M3 is being copied by W1,copy4,rating_volition,"{""Q0"":0}",[0],W1 wanted to copy M3,M3 wanted to copy W1
4534,NA,NA,NA,NA,survey-likert-extra-labels,108,451357,0.0-40.0-3.0-0.0,anomymised,656582028f794bf1617e53e2,65673889d4460c756794f057,58146,1,man,NA,NA,M3 is being copied by W1,copy4,rating_causation,"{""Q0"":0}",[0],W1 started copying M3 first,M3 started copying W1 first
null,Mike is being greeted by Dave,NA,NA,NA,html-keyboard-response,109,453367,0.0-41.0-0.0,anomymised,656582028f794bf1617e53e2,65673889d4460c756794f057,58146,1,man,NA,null,M2 is being greeted by M4,greet2,sentence,NA,NA,NA,NA
4021,NA,NA,NA,NA,survey-likert-extra-labels,110,457391,0.0-41.0-2.0,anomymised,656582028f794bf1617e53e2,65673889d4460c756794f057,58146,1,man,NA,NA,M2 is being greeted by M4,greet2,rating_volition,"{""Q0"":0}",[0],M4 wanted to greet M2,M2 wanted to greet M4
6836.9000000003725,NA,NA,NA,NA,survey-likert-extra-labels,111,464230,0.0-41.0-3.0-0.0,anomymised,656582028f794bf1617e53e2,65673889d4460c756794f057,58146,1,man,NA,NA,M2 is being greeted by M4,greet2,rating_causation,"{""Q0"":0}",[0],M4 started greeting M2 first,M2 started greeting M4 first
null,Luke is being touched by Kate,NA,NA,NA,html-keyboard-response,112,466235,0.0-42.0-0.0,anomymised,656582028f794bf1617e53e2,65673889d4460c756794f057,58146,1,man,NA,null,M1 is being touched by W3,touch3,sentence,NA,NA,NA,NA
3330.2000000011176,NA,NA,NA,NA,survey-likert-extra-labels,113,469567,0.0-42.0-1.0-0.0,anomymised,656582028f794bf1617e53e2,65673889d4460c756794f057,58146,1,man,NA,NA,M1 is being touched by W3,touch3,rating_causation,"{""Q0"":3}",[0],M1 asked to touch W3,W3 asked to touch M1
3397.300000000745,NA,NA,NA,NA,survey-likert-extra-labels,114,472966,0.0-42.0-2.0,anomymised,656582028f794bf1617e53e2,65673889d4460c756794f057,58146,1,man,NA,NA,M1 is being touched by W3,touch3,rating_volition,"{""Q0"":6}",[0],M1 wanted to touch W3,W3 wanted to touch M1
null,Mike is being copied by Dave,NA,NA,NA,html-keyboard-response,115,474977,0.0-43.0-0.0,anomymised,656582028f794bf1617e53e2,65673889d4460c756794f057,58146,1,man,NA,null,M2 is being copied by M4,copy2,sentence,NA,NA,NA,NA
6691.700000001118,NA,NA,NA,NA,survey-likert-extra-labels,116,481670,0.0-43.0-1.0-0.0,anomymised,656582028f794bf1617e53e2,65673889d4460c756794f057,58146,1,man,NA,NA,M2 is being copied by M4,copy2,rating_causation,"{""Q0"":0}",[0],M4 started copying M2 first,M2 started copying M4 first
2775.89999999851,NA,NA,NA,NA,survey-likert-extra-labels,117,484448,0.0-43.0-2.0,anomymised,656582028f794bf1617e53e2,65673889d4460c756794f057,58146,1,man,NA,NA,M2 is being copied by M4,copy2,rating_volition,"{""Q0"":0}",[0],M4 wanted to copy M2,M2 wanted to copy M4
null,Jane is carrying Beth,NA,NA,NA,html-keyboard-response,118,486452,0.0-44.0-0.0,anomymised,656582028f794bf1617e53e2,65673889d4460c756794f057,58146,1,man,NA,null,W2 is carrying W4,carry,sentence,NA,NA,NA,NA
3834.199999999255,NA,NA,NA,NA,survey-likert-extra-labels,119,490288,0.0-44.0-2.0,anomymised,656582028f794bf1617e53e2,65673889d4460c756794f057,58146,1,man,NA,NA,W2 is carrying W4,carry,rating_volition,"{""Q0"":0}",[0],W2 is transporting W4,W4 is transporting W2
2709.0999999996275,NA,NA,NA,NA,survey-likert-extra-labels,120,493000,0.0-44.0-3.0-0.0,anomymised,656582028f794bf1617e53e2,65673889d4460c756794f057,58146,1,man,NA,NA,W2 is carrying W4,carry,rating_causation,"{""Q0"":0}",[0],W2 is being moved by W4,W4 is being moved by W2
null,Dave is being opposed by Jane,NA,NA,NA,html-keyboard-response,121,495007,0.0-45.0-0.0,anomymised,656582028f794bf1617e53e2,65673889d4460c756794f057,58146,1,man,NA,null,M4 is being opposed by W2,oppose3,sentence,NA,NA,NA,NA
4974.300000000745,NA,NA,NA,NA,survey-likert-extra-labels,122,499984,0.0-45.0-2.0,anomymised,656582028f794bf1617e53e2,65673889d4460c756794f057,58146,1,man,NA,NA,M4 is being opposed by W2,oppose3,rating_volition,"{""Q0"":6}",[0],M4 wanted to oppose W2,W2 wanted to oppose M4
2197.0999999996275,NA,NA,NA,NA,survey-likert-extra-labels,123,502184,0.0-45.0-3.0-0.0,anomymised,656582028f794bf1617e53e2,65673889d4460c756794f057,58146,1,man,NA,NA,M4 is being opposed by W2,oppose3,rating_causation,"{""Q0"":6}",[0],M4 started opposing W2,W2 started opposing M4
null,Fred is hiring Ruth,NA,NA,NA,html-keyboard-response,124,504187,0.0-46.0-0.0,anomymised,656582028f794bf1617e53e2,65673889d4460c756794f057,58146,1,man,NA,null,M3 is hiring W1,hire,sentence,NA,NA,NA,NA
3025.9000000003725,NA,NA,NA,NA,survey-likert-extra-labels,125,507215,0.0-46.0-1.0-0.0,anomymised,656582028f794bf1617e53e2,65673889d4460c756794f057,58146,1,man,NA,NA,M3 is hiring W1,hire,rating_causation,"{""Q0"":6}",[0],M3 will work for W1,W1 will work for M3
2958.7000000011176,NA,NA,NA,NA,survey-likert-extra-labels,126,510176,0.0-46.0-2.0,anomymised,656582028f794bf1617e53e2,65673889d4460c756794f057,58146,1,man,NA,NA,M3 is hiring W1,hire,rating_volition,"{""Q0"":0}",[0],M3 is employing W1,W1 is employing M3
null,Kate is being greeted by Luke,NA,NA,NA,html-keyboard-response,127,512186,0.0-47.0-0.0,anomymised,656582028f794bf1617e53e2,65673889d4460c756794f057,58146,1,man,NA,null,W3 is being greeted by M1,greet4,sentence,NA,NA,NA,NA
3233.9000000003725,NA,NA,NA,NA,survey-likert-extra-labels,128,515422,0.0-47.0-2.0,anomymised,656582028f794bf1617e53e2,65673889d4460c756794f057,58146,1,man,NA,NA,W3 is being greeted by M1,greet4,rating_volition,"{""Q0"":0}",[0],M1 wanted to greet W3,W3 wanted to greet M1
1959.9000000003725,NA,NA,NA,NA,survey-likert-extra-labels,129,517383,0.0-47.0-3.0-0.0,anomymised,656582028f794bf1617e53e2,65673889d4460c756794f057,58146,1,man,NA,NA,W3 is being greeted by M1,greet4,rating_causation,"{""Q0"":3}",[0],M1 started greeting W3 first,W3 started greeting M1 first
null,Ruth is being challenged by Fred,NA,NA,NA,html-keyboard-response,130,519387,0.0-48.0-0.0,anomymised,656582028f794bf1617e53e2,65673889d4460c756794f057,58146,1,man,NA,null,W1 is being challenged by M3,challenge3,sentence,NA,NA,NA,NA
5539.199999999255,NA,NA,NA,NA,survey-likert-extra-labels,131,524928,0.0-48.0-2.0,anomymised,656582028f794bf1617e53e2,65673889d4460c756794f057,58146,1,man,NA,NA,W1 is being challenged by M3,challenge3,rating_volition,"{""Q0"":6}",[0],W1 wanted to challenge M3,M3 wanted to challenge W1
6140.0999999996275,NA,NA,NA,NA,survey-likert-extra-labels,132,531070,0.0-48.0-3.0-0.0,anomymised,656582028f794bf1617e53e2,65673889d4460c756794f057,58146,1,man,NA,NA,W1 is being challenged by M3,challenge3,rating_causation,"{""Q0"":3}",[0],W1 started challenging M3 first,M3 started challenging W1 first
null,Kate is being copied by Luke,NA,NA,NA,html-keyboard-response,133,533080,0.0-49.0-0.0,anomymised,656582028f794bf1617e53e2,65673889d4460c756794f057,58146,1,man,NA,null,W3 is being copied by M1,copy3,sentence,NA,NA,NA,NA
4724.9000000003725,NA,NA,NA,NA,survey-likert-extra-labels,134,537806,0.0-49.0-2.0,anomymised,656582028f794bf1617e53e2,65673889d4460c756794f057,58146,1,man,NA,NA,W3 is being copied by M1,copy3,rating_volition,"{""Q0"":0}",[0],M1 wanted to copy W3,W3 wanted to copy M1
3655,NA,NA,NA,NA,survey-likert-extra-labels,135,541462,0.0-49.0-3.0-0.0,anomymised,656582028f794bf1617e53e2,65673889d4460c756794f057,58146,1,man,NA,NA,W3 is being copied by M1,copy3,rating_causation,"{""Q0"":0}",[0],M1 started copying W3 first,W3 started copying M1 first
null,Dave is being challenged by Mike,NA,NA,NA,html-keyboard-response,136,543463,0.0-50.0-0.0,anomymised,656582028f794bf1617e53e2,65673889d4460c756794f057,58146,1,man,NA,null,M4 is being challenged by M2,challenge2,sentence,NA,NA,NA,NA
3973.10000000149,NA,NA,NA,NA,survey-likert-extra-labels,137,547437,0.0-50.0-1.0-0.0,anomymised,656582028f794bf1617e53e2,65673889d4460c756794f057,58146,1,man,NA,NA,M4 is being challenged by M2,challenge2,rating_causation,"{""Q0"":3}",[0],M4 started challenging M2 first,M2 started challenging M4 first
4143.0999999996275,NA,NA,NA,NA,survey-likert-extra-labels,138,551582,0.0-50.0-2.0,anomymised,656582028f794bf1617e53e2,65673889d4460c756794f057,58146,1,man,NA,NA,M4 is being challenged by M2,challenge2,rating_volition,"{""Q0"":6}",[0],M4 wanted to challenge M2,M2 wanted to challenge M4
null,Ruth is being touched by Fred,NA,NA,NA,html-keyboard-response,139,553590,0.0-51.0-0.0,anomymised,656582028f794bf1617e53e2,65673889d4460c756794f057,58146,1,man,NA,null,W1 is being touched by M3,touch4,sentence,NA,NA,NA,NA
6950.4000000003725,NA,NA,NA,NA,survey-likert-extra-labels,140,560541,0.0-51.0-1.0-0.0,anomymised,656582028f794bf1617e53e2,65673889d4460c756794f057,58146,1,man,NA,NA,W1 is being touched by M3,touch4,rating_causation,"{""Q0"":3}",[0],W1 asked to touch M3,M3 asked to touch W1
1870.5,NA,NA,NA,NA,survey-likert-extra-labels,141,562413,0.0-51.0-2.0,anomymised,656582028f794bf1617e53e2,65673889d4460c756794f057,58146,1,man,NA,NA,W1 is being touched by M3,touch4,rating_volition,"{""Q0"":6}",[0],W1 wanted to touch M3,M3 wanted to touch W1
null,Mike is being looked at by Beth,NA,NA,NA,html-keyboard-response,142,564417,0.0-52.0-0.0,anomymised,656582028f794bf1617e53e2,65673889d4460c756794f057,58146,1,man,NA,null,M2 is being looked at by W4,look4,sentence,NA,NA,NA,NA
3267.300000000745,NA,NA,NA,NA,survey-likert-extra-labels,143,567685,0.0-52.0-2.0,anomymised,656582028f794bf1617e53e2,65673889d4460c756794f057,58146,1,man,NA,NA,M2 is being looked at by W4,look4,rating_volition,"{""Q0"":0}",[0],W4 wanted to look at M2,M2 wanted to look at W4
2542.39999999851,NA,NA,NA,NA,survey-likert-extra-labels,144,570229,0.0-52.0-3.0-0.0,anomymised,656582028f794bf1617e53e2,65673889d4460c756794f057,58146,1,man,NA,NA,M2 is being looked at by W4,look4,rating_causation,"{""Q0"":3}",[0],W4 looked at M2 first,M2 looked at W4 first
null,Jane is teaching Dave,NA,NA,NA,html-keyboard-response,145,572234,0.0-53.0-0.0,anomymised,656582028f794bf1617e53e2,65673889d4460c756794f057,58146,1,man,NA,null,W2 is teaching M4,teach,sentence,NA,NA,NA,NA
3017.7999999988824,NA,NA,NA,NA,survey-likert-extra-labels,146,575254,0.0-53.0-2.0,anomymised,656582028f794bf1617e53e2,65673889d4460c756794f057,58146,1,man,NA,NA,W2 is teaching M4,teach,rating_volition,"{""Q0"":0}",[0],W2 is educating M4,M4 is educating W2
2736,NA,NA,NA,NA,survey-likert-extra-labels,147,577991,0.0-53.0-3.0-0.0,anomymised,656582028f794bf1617e53e2,65673889d4460c756794f057,58146,1,man,NA,NA,W2 is teaching M4,teach,rating_causation,"{""Q0"":6}",[0],W2 is learning from M4,M4 is learning from W2
null,Beth is being challenged by Jane,NA,NA,NA,html-keyboard-response,148,580006,0.0-54.0-0.0,anomymised,656582028f794bf1617e53e2,65673889d4460c756794f057,58146,1,man,NA,null,W4 is being challenged by W2,challenge1,sentence,NA,NA,NA,NA
8327.60000000149,NA,NA,NA,NA,survey-likert-extra-labels,149,588335,0.0-54.0-1.0-0.0,anomymised,656582028f794bf1617e53e2,65673889d4460c756794f057,58146,1,man,NA,NA,W4 is being challenged by W2,challenge1,rating_causation,"{""Q0"":3}",[0],W4 started challenging W2 first,W2 started challenging W4 first
2597.5,NA,NA,NA,NA,survey-likert-extra-labels,150,590935,0.0-54.0-2.0,anomymised,656582028f794bf1617e53e2,65673889d4460c756794f057,58146,1,man,NA,NA,W4 is being challenged by W2,challenge1,rating_volition,"{""Q0"":6}",[0],W4 wanted to challenge W2,W2 wanted to challenge W4
1262,<p>Thank you for completing that task.</p><p>The final part of this session is a short questionnaire.</p><p>Press Continue.</p>,0,Continue,Continue,html-button-response,151,592199,0.0-55.0,anomymised,656582028f794bf1617e53e2,65673889d4460c756794f057,58146,1,man,NA,NA,NA,NA,NA,NA,NA,NA,NA
18158.699999999255,NA,NA,NA,NA,survey-text,152,611370,0.0-56.0,anomymised,656582028f794bf1617e53e2,65673889d4460c756794f057,58146,1,man,NA,NA,NA,NA,demographics,"{""Q0"":""23"",""Q1"":""English"",""Q2"":""English"",""Q3"":""England"",""Q4"":""British"",""Q5"":""White"",""Q6"":""Male""}",NA,NA,NA
2075.60000000149,<p>This is the last question - thank you for taking part! Have you lived in the UK for the last 5 years or more?</p>,0,"Yes,No",Yes,html-button-response,153,613447,0.0-57.0,anomymised,656582028f794bf1617e53e2,65673889d4460c756794f057,58146,1,man,NA,NA,NA,NA,fiveyears,NA,NA,NA,NA
