rt,stimulus,button_pressed,choices,ChosenStimulus,trial_type,trial_index,time_elapsed,internal_node_id,subject_id,study_id,session_id,subject,list,ppt_gender,url,key_press,sentence_type,verb,test_part,responses,question_order,left_part,right_part
1816.800000011921,Welcome to the experiment. Press Continue to begin.,0,Continue,Continue,html-button-response,0,1824,0.0-0.0,anomymised,6560bfa89caa13ce6a65a5b5,6565e1a501248669cbc24a0b,60380,1A,woman,NA,NA,NA,NA,NA,NA,NA,NA,NA
11647,NA,NA,NA,NA,external-html,1,14599,0.0-1.0,anomymised,6560bfa89caa13ce6a65a5b5,6565e1a501248669cbc24a0b,60380,1A,woman,consent.html,NA,NA,NA,NA,NA,NA,NA,NA
15839,"<p>Welcome.</p><p>In this experiment we will ask you to imagine some situations.</p><p>Each trial starts with a description of an event.</p><p>Then you will see alternative descriptions of that event, and you will rate on a scale how best they match the original description.</p><p>You will give your answer by clicking a button on a rating scale.</p><p>To do this task, you will have to use your imagination to visualise these events.</p><br><p>Ready?</p>",0,Continue,Continue,html-button-response,2,30439,0.0-2.0,anomymised,6560bfa89caa13ce6a65a5b5,6565e1a501248669cbc24a0b,60380,1A,woman,NA,NA,NA,NA,NA,NA,NA,NA,NA
1935.4000000357628,"<p>Before the experiment starts, you will watch an example trial. Press 'Continue'.</p>",0,Continue,Continue,html-button-response,3,33391,0.0-3.0,anomymised,6560bfa89caa13ce6a65a5b5,6565e1a501248669cbc24a0b,60380,1A,woman,NA,NA,NA,NA,NA,NA,NA,NA,NA
null,The police officer is arresting the robber,NA,NA,NA,html-keyboard-response,4,36422,0.0-4.0,anomymised,6560bfa89caa13ce6a65a5b5,6565e1a501248669cbc24a0b,60380,1A,woman,NA,null,NA,NA,NA,NA,NA,NA,NA
18890.899999976158,<img src='img/Example-trial.jpg' style='height:550px;''></img>,0,Continue,Continue,html-button-response,5,55314,0.0-5.0,anomymised,6560bfa89caa13ce6a65a5b5,6565e1a501248669cbc24a0b,60380,1A,woman,NA,NA,NA,NA,NA,NA,NA,NA,NA
2374.099999964237,<p>Ready to start the experiment?</p><br><p><strong>Remember to give an answer by clicking a button on the rating scale.</strong></p><p>Press 'Continue' to begin.</p>,0,Continue,Continue,html-button-response,6,58696,0.0-6.0,anomymised,6560bfa89caa13ce6a65a5b5,6565e1a501248669cbc24a0b,60380,1A,woman,NA,NA,NA,NA,NA,NA,NA,NA,NA
null,Dave is being kissed by Jane,NA,NA,NA,html-keyboard-response,7,61706,0.0-7.0-0.0,anomymised,6560bfa89caa13ce6a65a5b5,6565e1a501248669cbc24a0b,60380,1A,woman,NA,null,M4 is being kissed by W2,kiss4,sentence,NA,NA,NA,NA
14143.300000011921,NA,NA,NA,NA,survey-likert-extra-labels,8,75853,0.0-7.0-1.0-0.0,anomymised,6560bfa89caa13ce6a65a5b5,6565e1a501248669cbc24a0b,60380,1A,woman,NA,NA,M4 is being kissed by W2,kiss4,rating_causation,"{""Q0"":2}",[0],W2 asked to kiss M4,M4 asked to kiss W2
7920.900000035763,NA,NA,NA,NA,survey-likert-extra-labels,9,83776,0.0-7.0-2.0,anomymised,6560bfa89caa13ce6a65a5b5,6565e1a501248669cbc24a0b,60380,1A,woman,NA,NA,M4 is being kissed by W2,kiss4,rating_volition,"{""Q0"":3}",[0],W2 wanted to kiss M4,M4 wanted to kiss W2
null,Fred is being touched by Ruth,NA,NA,NA,html-keyboard-response,10,85786,0.0-8.0-0.0,anomymised,6560bfa89caa13ce6a65a5b5,6565e1a501248669cbc24a0b,60380,1A,woman,NA,null,M3 is being touched by W1,touch4,sentence,NA,NA,NA,NA
8097,NA,NA,NA,NA,survey-likert-extra-labels,11,93885,0.0-8.0-2.0,anomymised,6560bfa89caa13ce6a65a5b5,6565e1a501248669cbc24a0b,60380,1A,woman,NA,NA,M3 is being touched by W1,touch4,rating_volition,"{""Q0"":4}",[0],M3 wanted to touch W1,W1 wanted to touch M3
5089,NA,NA,NA,NA,survey-likert-extra-labels,12,98976,0.0-8.0-3.0-0.0,anomymised,6560bfa89caa13ce6a65a5b5,6565e1a501248669cbc24a0b,60380,1A,woman,NA,NA,M3 is being touched by W1,touch4,rating_causation,"{""Q0"":3}",[0],M3 asked to touch W1,W1 asked to touch M3
null,Dave is being greeted by Mike,NA,NA,NA,html-keyboard-response,13,100982,0.0-9.0-0.0,anomymised,6560bfa89caa13ce6a65a5b5,6565e1a501248669cbc24a0b,60380,1A,woman,NA,null,M4 is being greeted by M2,greet2,sentence,NA,NA,NA,NA
10237.100000023842,NA,NA,NA,NA,survey-likert-extra-labels,14,111221,0.0-9.0-1.0-0.0,anomymised,6560bfa89caa13ce6a65a5b5,6565e1a501248669cbc24a0b,60380,1A,woman,NA,NA,M4 is being greeted by M2,greet2,rating_causation,"{""Q0"":1}",[0],M2 started greeting M4 first,M4 started greeting M2 first
9288.199999988079,NA,NA,NA,NA,survey-likert-extra-labels,15,120511,0.0-9.0-2.0,anomymised,6560bfa89caa13ce6a65a5b5,6565e1a501248669cbc24a0b,60380,1A,woman,NA,NA,M4 is being greeted by M2,greet2,rating_volition,"{""Q0"":2}",[0],M2 wanted to greet M4,M4 wanted to greet M2
null,Dave is being looked at by Jane,NA,NA,NA,html-keyboard-response,16,122525,0.0-10.0-0.0,anomymised,6560bfa89caa13ce6a65a5b5,6565e1a501248669cbc24a0b,60380,1A,woman,NA,null,M4 is being looked at by W2,look3,sentence,NA,NA,NA,NA
8428.199999988079,NA,NA,NA,NA,survey-likert-extra-labels,17,130955,0.0-10.0-1.0-0.0,anomymised,6560bfa89caa13ce6a65a5b5,6565e1a501248669cbc24a0b,60380,1A,woman,NA,NA,M4 is being looked at by W2,look3,rating_causation,"{""Q0"":1}",[0],W2 looked at M4 first,M4 looked at W2 first
4668.300000011921,NA,NA,NA,NA,survey-likert-extra-labels,18,135625,0.0-10.0-2.0,anomymised,6560bfa89caa13ce6a65a5b5,6565e1a501248669cbc24a0b,60380,1A,woman,NA,NA,M4 is being looked at by W2,look3,rating_volition,"{""Q0"":2}",[0],W2 wanted to look at M4,M4 wanted to look at W2
null,Kate is being touched by Luke,NA,NA,NA,html-keyboard-response,19,137641,0.0-11.0-0.0,anomymised,6560bfa89caa13ce6a65a5b5,6565e1a501248669cbc24a0b,60380,1A,woman,NA,null,W3 is being touched by M1,touch3,sentence,NA,NA,NA,NA
3622.100000023842,NA,NA,NA,NA,survey-likert-extra-labels,20,141264,0.0-11.0-2.0,anomymised,6560bfa89caa13ce6a65a5b5,6565e1a501248669cbc24a0b,60380,1A,woman,NA,NA,W3 is being touched by M1,touch3,rating_volition,"{""Q0"":2}",[0],W3 wanted to touch M1,M1 wanted to touch W3
14094.099999964237,NA,NA,NA,NA,survey-likert-extra-labels,21,155360,0.0-11.0-3.0-0.0,anomymised,6560bfa89caa13ce6a65a5b5,6565e1a501248669cbc24a0b,60380,1A,woman,NA,NA,W3 is being touched by M1,touch3,rating_causation,"{""Q0"":5}",[0],W3 asked to touch M1,M1 asked to touch W3
null,Dave is being copied by Mike,NA,NA,NA,html-keyboard-response,22,157371,0.0-12.0-0.0,anomymised,6560bfa89caa13ce6a65a5b5,6565e1a501248669cbc24a0b,60380,1A,woman,NA,null,M4 is being copied by M2,copy2,sentence,NA,NA,NA,NA
6381.199999988079,NA,NA,NA,NA,survey-likert-extra-labels,23,163754,0.0-12.0-2.0,anomymised,6560bfa89caa13ce6a65a5b5,6565e1a501248669cbc24a0b,60380,1A,woman,NA,NA,M4 is being copied by M2,copy2,rating_volition,"{""Q0"":1}",[0],M2 wanted to copy M4,M4 wanted to copy M2
4403.700000047684,NA,NA,NA,NA,survey-likert-extra-labels,24,168160,0.0-12.0-3.0-0.0,anomymised,6560bfa89caa13ce6a65a5b5,6565e1a501248669cbc24a0b,60380,1A,woman,NA,NA,M4 is being copied by M2,copy2,rating_causation,"{""Q0"":1}",[0],M2 started copying M4 first,M4 started copying M2 first
null,Kate is being kissed by Ruth,NA,NA,NA,html-keyboard-response,25,170168,0.0-13.0-0.0,anomymised,6560bfa89caa13ce6a65a5b5,6565e1a501248669cbc24a0b,60380,1A,woman,NA,null,W3 is being kissed by W1,kiss1,sentence,NA,NA,NA,NA
5999.100000023842,NA,NA,NA,NA,survey-likert-extra-labels,26,176169,0.0-13.0-2.0,anomymised,6560bfa89caa13ce6a65a5b5,6565e1a501248669cbc24a0b,60380,1A,woman,NA,NA,W3 is being kissed by W1,kiss1,rating_volition,"{""Q0"":1}",[0],W1 wanted to kiss W3,W3 wanted to kiss W1
4761.199999988079,NA,NA,NA,NA,survey-likert-extra-labels,27,180932,0.0-13.0-3.0-0.0,anomymised,6560bfa89caa13ce6a65a5b5,6565e1a501248669cbc24a0b,60380,1A,woman,NA,NA,W3 is being kissed by W1,kiss1,rating_causation,"{""Q0"":1}",[0],W1 asked to kiss W3,W3 asked to kiss W1
null,Luke is driving Fred,NA,NA,NA,html-keyboard-response,28,182934,0.0-14.0-0.0,anomymised,6560bfa89caa13ce6a65a5b5,6565e1a501248669cbc24a0b,60380,1A,woman,NA,null,M1 is driving M3,drive,sentence,NA,NA,NA,NA
36033.200000047684,NA,NA,NA,NA,survey-likert-extra-labels,29,218969,0.0-14.0-2.0,anomymised,6560bfa89caa13ce6a65a5b5,6565e1a501248669cbc24a0b,60380,1A,woman,NA,NA,M1 is driving M3,drive,rating_volition,"{""Q0"":5}",[0],M1 is M3's passenger,M3 is M1's passenger
5457.300000011921,NA,NA,NA,NA,survey-likert-extra-labels,30,224429,0.0-14.0-3.0-0.0,anomymised,6560bfa89caa13ce6a65a5b5,6565e1a501248669cbc24a0b,60380,1A,woman,NA,NA,M1 is driving M3,drive,rating_causation,"{""Q0"":0}",[0],M1 is taking M3 somewhere,M3 is taking M1 somewhere
null,Jane is being shouted at by Dave,NA,NA,NA,html-keyboard-response,31,226431,0.0-15.0-0.0,anomymised,6560bfa89caa13ce6a65a5b5,6565e1a501248669cbc24a0b,60380,1A,woman,NA,null,W2 is being shouted at by M4,shout4,sentence,NA,NA,NA,NA
7628,NA,NA,NA,NA,survey-likert-extra-labels,32,234061,0.0-15.0-1.0-0.0,anomymised,6560bfa89caa13ce6a65a5b5,6565e1a501248669cbc24a0b,60380,1A,woman,NA,NA,W2 is being shouted at by M4,shout4,rating_causation,"{""Q0"":5}",[0],W2 shouted at M4 first,M4 shouted at W2 first
4048.800000011921,NA,NA,NA,NA,survey-likert-extra-labels,33,238111,0.0-15.0-2.0,anomymised,6560bfa89caa13ce6a65a5b5,6565e1a501248669cbc24a0b,60380,1A,woman,NA,NA,W2 is being shouted at by M4,shout4,rating_volition,"{""Q0"":5}",[0],W2 wanted to shout at M4,M4 wanted to shout at W2
null,Luke is being greeted by Kate,NA,NA,NA,html-keyboard-response,34,240123,0.0-16.0-0.0,anomymised,6560bfa89caa13ce6a65a5b5,6565e1a501248669cbc24a0b,60380,1A,woman,NA,null,M1 is being greeted by W3,greet4,sentence,NA,NA,NA,NA
8956.900000035763,NA,NA,NA,NA,survey-likert-extra-labels,35,249082,0.0-16.0-1.0-0.0,anomymised,6560bfa89caa13ce6a65a5b5,6565e1a501248669cbc24a0b,60380,1A,woman,NA,NA,M1 is being greeted by W3,greet4,rating_causation,"{""Q0"":0}",[0],W3 started greeting M1 first,M1 started greeting W3 first
3521.400000035763,NA,NA,NA,NA,survey-likert-extra-labels,36,252606,0.0-16.0-2.0,anomymised,6560bfa89caa13ce6a65a5b5,6565e1a501248669cbc24a0b,60380,1A,woman,NA,NA,M1 is being greeted by W3,greet4,rating_volition,"{""Q0"":1}",[0],W3 wanted to greet M1,M1 wanted to greet W3
null,Fred is being seduced by Ruth,NA,NA,NA,html-keyboard-response,37,254610,0.0-17.0-0.0,anomymised,6560bfa89caa13ce6a65a5b5,6565e1a501248669cbc24a0b,60380,1A,woman,NA,null,M3 is being seduced by W1,seduce4,sentence,NA,NA,NA,NA
15093.600000023842,NA,NA,NA,NA,survey-likert-extra-labels,38,269706,0.0-17.0-2.0,anomymised,6560bfa89caa13ce6a65a5b5,6565e1a501248669cbc24a0b,60380,1A,woman,NA,NA,M3 is being seduced by W1,seduce4,rating_volition,"{""Q0"":5}",[0],M3 wanted to seducing W1,W1 wanted to seducing M3
4127.199999988079,NA,NA,NA,NA,survey-likert-extra-labels,39,273835,0.0-17.0-3.0-0.0,anomymised,6560bfa89caa13ce6a65a5b5,6565e1a501248669cbc24a0b,60380,1A,woman,NA,NA,M3 is being seduced by W1,seduce4,rating_causation,"{""Q0"":5}",[0],M3 started seducing W1 first,W1 started seducing M3 first
null,Jane is teaching Dave,NA,NA,NA,html-keyboard-response,40,275843,0.0-18.0-0.0,anomymised,6560bfa89caa13ce6a65a5b5,6565e1a501248669cbc24a0b,60380,1A,woman,NA,null,W2 is teaching M4,teach,sentence,NA,NA,NA,NA
6219.600000023842,NA,NA,NA,NA,survey-likert-extra-labels,41,282065,0.0-18.0-2.0,anomymised,6560bfa89caa13ce6a65a5b5,6565e1a501248669cbc24a0b,60380,1A,woman,NA,NA,W2 is teaching M4,teach,rating_volition,"{""Q0"":0}",[0],W2 is educating M4,M4 is educating W2
3920.599999964237,NA,NA,NA,NA,survey-likert-extra-labels,42,285987,0.0-18.0-3.0-0.0,anomymised,6560bfa89caa13ce6a65a5b5,6565e1a501248669cbc24a0b,60380,1A,woman,NA,NA,W2 is teaching M4,teach,rating_causation,"{""Q0"":6}",[0],W2 is learning from M4,M4 is learning from W2
null,Beth is being copied by Jane,NA,NA,NA,html-keyboard-response,43,287990,0.0-19.0-0.0,anomymised,6560bfa89caa13ce6a65a5b5,6565e1a501248669cbc24a0b,60380,1A,woman,NA,null,W4 is being copied by W2,copy1,sentence,NA,NA,NA,NA
10795.599999964237,NA,NA,NA,NA,survey-likert-extra-labels,44,298787,0.0-19.0-2.0,anomymised,6560bfa89caa13ce6a65a5b5,6565e1a501248669cbc24a0b,60380,1A,woman,NA,NA,W4 is being copied by W2,copy1,rating_volition,"{""Q0"":0}",[0],W2 wanted to copy W4,W4 wanted to copy W2
5935.899999976158,NA,NA,NA,NA,survey-likert-extra-labels,45,304725,0.0-19.0-3.0-0.0,anomymised,6560bfa89caa13ce6a65a5b5,6565e1a501248669cbc24a0b,60380,1A,woman,NA,NA,W4 is being copied by W2,copy1,rating_causation,"{""Q0"":1}",[0],W2 started copying W4 first,W4 started copying W2 first
null,Fred is being kissed by Luke,NA,NA,NA,html-keyboard-response,46,306738,0.0-20.0-0.0,anomymised,6560bfa89caa13ce6a65a5b5,6565e1a501248669cbc24a0b,60380,1A,woman,NA,null,M3 is being kissed by M1,kiss2,sentence,NA,NA,NA,NA
34693.19999998808,NA,NA,NA,NA,survey-likert-extra-labels,47,341432,0.0-20.0-1.0-0.0,anomymised,6560bfa89caa13ce6a65a5b5,6565e1a501248669cbc24a0b,60380,1A,woman,NA,NA,M3 is being kissed by M1,kiss2,rating_causation,"{""Q0"":1}",[0],M1 asked to kiss M3,M3 asked to kiss M1
6191.900000035763,NA,NA,NA,NA,survey-likert-extra-labels,48,347626,0.0-20.0-2.0,anomymised,6560bfa89caa13ce6a65a5b5,6565e1a501248669cbc24a0b,60380,1A,woman,NA,NA,M3 is being kissed by M1,kiss2,rating_volition,"{""Q0"":1}",[0],M1 wanted to kiss M3,M3 wanted to kiss M1
null,Luke is being shouted at by Fred,NA,NA,NA,html-keyboard-response,49,349630,0.0-21.0-0.0,anomymised,6560bfa89caa13ce6a65a5b5,6565e1a501248669cbc24a0b,60380,1A,woman,NA,null,M1 is being shouted at by M3,shout2,sentence,NA,NA,NA,NA
8901.600000023842,NA,NA,NA,NA,survey-likert-extra-labels,50,358533,0.0-21.0-2.0,anomymised,6560bfa89caa13ce6a65a5b5,6565e1a501248669cbc24a0b,60380,1A,woman,NA,NA,M1 is being shouted at by M3,shout2,rating_volition,"{""Q0"":5}",[0],M1 wanted to shout at M3,M3 wanted to shout at M1
4289,NA,NA,NA,NA,survey-likert-extra-labels,51,362825,0.0-21.0-3.0-0.0,anomymised,6560bfa89caa13ce6a65a5b5,6565e1a501248669cbc24a0b,60380,1A,woman,NA,NA,M1 is being shouted at by M3,shout2,rating_causation,"{""Q0"":6}",[0],M1 shouted at M3 first,M3 shouted at M1 first
null,Ruth is being copied by Fred,NA,NA,NA,html-keyboard-response,52,364828,0.0-22.0-0.0,anomymised,6560bfa89caa13ce6a65a5b5,6565e1a501248669cbc24a0b,60380,1A,woman,NA,null,W1 is being copied by M3,copy4,sentence,NA,NA,NA,NA
3939.199999988079,NA,NA,NA,NA,survey-likert-extra-labels,53,368769,0.0-22.0-2.0,anomymised,6560bfa89caa13ce6a65a5b5,6565e1a501248669cbc24a0b,60380,1A,woman,NA,NA,W1 is being copied by M3,copy4,rating_volition,"{""Q0"":1}",[0],M3 wanted to copy W1,W1 wanted to copy M3
3002.300000011921,NA,NA,NA,NA,survey-likert-extra-labels,54,371773,0.0-22.0-3.0-0.0,anomymised,6560bfa89caa13ce6a65a5b5,6565e1a501248669cbc24a0b,60380,1A,woman,NA,NA,W1 is being copied by M3,copy4,rating_causation,"{""Q0"":1}",[0],M3 started copying W1 first,W1 started copying M3 first
null,Jane is being touched by Beth,NA,NA,NA,html-keyboard-response,55,373784,0.0-23.0-0.0,anomymised,6560bfa89caa13ce6a65a5b5,6565e1a501248669cbc24a0b,60380,1A,woman,NA,null,W2 is being touched by W4,touch1,sentence,NA,NA,NA,NA
3867.899999976158,NA,NA,NA,NA,survey-likert-extra-labels,56,377653,0.0-23.0-1.0-0.0,anomymised,6560bfa89caa13ce6a65a5b5,6565e1a501248669cbc24a0b,60380,1A,woman,NA,NA,W2 is being touched by W4,touch1,rating_causation,"{""Q0"":5}",[0],W2 asked to touch W4,W4 asked to touch W2
3443.5,NA,NA,NA,NA,survey-likert-extra-labels,57,381098,0.0-23.0-2.0,anomymised,6560bfa89caa13ce6a65a5b5,6565e1a501248669cbc24a0b,60380,1A,woman,NA,NA,W2 is being touched by W4,touch1,rating_volition,"{""Q0"":5}",[0],W2 wanted to touch W4,W4 wanted to touch W2
null,Ruth is chasing Kate,NA,NA,NA,html-keyboard-response,58,383107,0.0-24.0-0.0,anomymised,6560bfa89caa13ce6a65a5b5,6565e1a501248669cbc24a0b,60380,1A,woman,NA,null,W1 is chasing W3,chase,sentence,NA,NA,NA,NA
4853.099999964237,NA,NA,NA,NA,survey-likert-extra-labels,59,387961,0.0-24.0-2.0,anomymised,6560bfa89caa13ce6a65a5b5,6565e1a501248669cbc24a0b,60380,1A,woman,NA,NA,W1 is chasing W3,chase,rating_volition,"{""Q0"":6}",[0],W1 is behind W3,W3 is behind W1
6085.300000011921,NA,NA,NA,NA,survey-likert-extra-labels,60,394048,0.0-24.0-3.0-0.0,anomymised,6560bfa89caa13ce6a65a5b5,6565e1a501248669cbc24a0b,60380,1A,woman,NA,NA,W1 is chasing W3,chase,rating_causation,"{""Q0"":6}",[0],W1 is running away from W3,W3 is running away from W1
null,Mike is being hugged by Beth,NA,NA,NA,html-keyboard-response,61,396056,0.0-25.0-0.0,anomymised,6560bfa89caa13ce6a65a5b5,6565e1a501248669cbc24a0b,60380,1A,woman,NA,null,M2 is being hugged by W4,hug4,sentence,NA,NA,NA,NA
15146.699999988079,NA,NA,NA,NA,survey-likert-extra-labels,62,411204,0.0-25.0-1.0-0.0,anomymised,6560bfa89caa13ce6a65a5b5,6565e1a501248669cbc24a0b,60380,1A,woman,NA,NA,M2 is being hugged by W4,hug4,rating_causation,"{""Q0"":5}",[0],M2 asked to hug W4,W4 asked to hug M2
2646.199999988079,NA,NA,NA,NA,survey-likert-extra-labels,63,413853,0.0-25.0-2.0,anomymised,6560bfa89caa13ce6a65a5b5,6565e1a501248669cbc24a0b,60380,1A,woman,NA,NA,M2 is being hugged by W4,hug4,rating_volition,"{""Q0"":5}",[0],M2 wanted to hug W4,W4 wanted to hug M2
null,Kate is feeding Luke,NA,NA,NA,html-keyboard-response,64,415857,0.0-26.0-0.0,anomymised,6560bfa89caa13ce6a65a5b5,6565e1a501248669cbc24a0b,60380,1A,woman,NA,null,W3 is feeding M1,feed,sentence,NA,NA,NA,NA
4316.700000047684,NA,NA,NA,NA,survey-likert-extra-labels,65,420175,0.0-26.0-2.0,anomymised,6560bfa89caa13ce6a65a5b5,6565e1a501248669cbc24a0b,60380,1A,woman,NA,NA,W3 is feeding M1,feed,rating_volition,"{""Q0"":0}",[0],W3 cooked for M1,M1 cooked for W3
3429.7000000476837,NA,NA,NA,NA,survey-likert-extra-labels,66,423607,0.0-26.0-3.0-0.0,anomymised,6560bfa89caa13ce6a65a5b5,6565e1a501248669cbc24a0b,60380,1A,woman,NA,NA,W3 is feeding M1,feed,rating_causation,"{""Q0"":6}",[0],W3 is eating M1's food,M1 is eating W3's food
null,Mike is posing for Dave,NA,NA,NA,html-keyboard-response,67,425619,0.0-27.0-0.0,anomymised,6560bfa89caa13ce6a65a5b5,6565e1a501248669cbc24a0b,60380,1A,woman,NA,null,M2 is posing for M4,pose,sentence,NA,NA,NA,NA
4919.900000035763,NA,NA,NA,NA,survey-likert-extra-labels,68,430540,0.0-27.0-1.0-0.0,anomymised,6560bfa89caa13ce6a65a5b5,6565e1a501248669cbc24a0b,60380,1A,woman,NA,NA,M2 is posing for M4,pose,rating_causation,"{""Q0"":6}",[0],M2 is photographing M4,M4 is photographing M2
4540.300000011921,NA,NA,NA,NA,survey-likert-extra-labels,69,435082,0.0-27.0-2.0,anomymised,6560bfa89caa13ce6a65a5b5,6565e1a501248669cbc24a0b,60380,1A,woman,NA,NA,M2 is posing for M4,pose,rating_volition,"{""Q0"":0}",[0],M2 is modelling for M4,M4 is modelling for M2
null,Mike is being touched by Dave,NA,NA,NA,html-keyboard-response,70,437088,0.0-28.0-0.0,anomymised,6560bfa89caa13ce6a65a5b5,6565e1a501248669cbc24a0b,60380,1A,woman,NA,null,M2 is being touched by M4,touch2,sentence,NA,NA,NA,NA
5867,NA,NA,NA,NA,survey-likert-extra-labels,71,442957,0.0-28.0-1.0-0.0,anomymised,6560bfa89caa13ce6a65a5b5,6565e1a501248669cbc24a0b,60380,1A,woman,NA,NA,M2 is being touched by M4,touch2,rating_causation,"{""Q0"":5}",[0],M2 asked to touch M4,M4 asked to touch M2
6496.800000011921,NA,NA,NA,NA,survey-likert-extra-labels,72,449456,0.0-28.0-2.0,anomymised,6560bfa89caa13ce6a65a5b5,6565e1a501248669cbc24a0b,60380,1A,woman,NA,NA,M2 is being touched by M4,touch2,rating_volition,"{""Q0"":5}",[0],M2 wanted to touch M4,M4 wanted to touch M2
null,Beth is being kissed by Mike,NA,NA,NA,html-keyboard-response,73,451466,0.0-29.0-0.0,anomymised,6560bfa89caa13ce6a65a5b5,6565e1a501248669cbc24a0b,60380,1A,woman,NA,null,W4 is being kissed by M2,kiss3,sentence,NA,NA,NA,NA
5157.699999988079,NA,NA,NA,NA,survey-likert-extra-labels,74,456625,0.0-29.0-1.0-0.0,anomymised,6560bfa89caa13ce6a65a5b5,6565e1a501248669cbc24a0b,60380,1A,woman,NA,NA,W4 is being kissed by M2,kiss3,rating_causation,"{""Q0"":1}",[0],M2 asked to kiss W4,W4 asked to kiss M2
4006.899999976158,NA,NA,NA,NA,survey-likert-extra-labels,75,460633,0.0-29.0-2.0,anomymised,6560bfa89caa13ce6a65a5b5,6565e1a501248669cbc24a0b,60380,1A,woman,NA,NA,W4 is being kissed by M2,kiss3,rating_volition,"{""Q0"":1}",[0],M2 wanted to kiss W4,W4 wanted to kiss M2
null,Jane is being challenged by Beth,NA,NA,NA,html-keyboard-response,76,462645,0.0-30.0-0.0,anomymised,6560bfa89caa13ce6a65a5b5,6565e1a501248669cbc24a0b,60380,1A,woman,NA,null,W2 is being challenged by W4,challenge1,sentence,NA,NA,NA,NA
8032.300000011921,NA,NA,NA,NA,survey-likert-extra-labels,77,470678,0.0-30.0-1.0-0.0,anomymised,6560bfa89caa13ce6a65a5b5,6565e1a501248669cbc24a0b,60380,1A,woman,NA,NA,W2 is being challenged by W4,challenge1,rating_causation,"{""Q0"":5}",[0],W2 started challenging W4 first,W4 started challenging W2 first
4470,NA,NA,NA,NA,survey-likert-extra-labels,78,475150,0.0-30.0-2.0,anomymised,6560bfa89caa13ce6a65a5b5,6565e1a501248669cbc24a0b,60380,1A,woman,NA,NA,W2 is being challenged by W4,challenge1,rating_volition,"{""Q0"":5}",[0],W2 wanted to challenge W4,W4 wanted to challenge W2
null,Jane is being opposed by Dave,NA,NA,NA,html-keyboard-response,79,477158,0.0-31.0-0.0,anomymised,6560bfa89caa13ce6a65a5b5,6565e1a501248669cbc24a0b,60380,1A,woman,NA,null,W2 is being opposed by M4,oppose3,sentence,NA,NA,NA,NA
3365.199999988079,NA,NA,NA,NA,survey-likert-extra-labels,80,480525,0.0-31.0-2.0,anomymised,6560bfa89caa13ce6a65a5b5,6565e1a501248669cbc24a0b,60380,1A,woman,NA,NA,W2 is being opposed by M4,oppose3,rating_volition,"{""Q0"":5}",[0],W2 wanted to oppose M4,M4 wanted to oppose W2
5700.699999988079,NA,NA,NA,NA,survey-likert-extra-labels,81,486228,0.0-31.0-3.0-0.0,anomymised,6560bfa89caa13ce6a65a5b5,6565e1a501248669cbc24a0b,60380,1A,woman,NA,NA,W2 is being opposed by M4,oppose3,rating_causation,"{""Q0"":6}",[0],W2 started opposing M4,M4 started opposing W2
null,Jane is being hugged by Dave,NA,NA,NA,html-keyboard-response,82,488242,0.0-32.0-0.0,anomymised,6560bfa89caa13ce6a65a5b5,6565e1a501248669cbc24a0b,60380,1A,woman,NA,null,W2 is being hugged by M4,hug3,sentence,NA,NA,NA,NA
2712.199999988079,NA,NA,NA,NA,survey-likert-extra-labels,83,490955,0.0-32.0-2.0,anomymised,6560bfa89caa13ce6a65a5b5,6565e1a501248669cbc24a0b,60380,1A,woman,NA,NA,W2 is being hugged by M4,hug3,rating_volition,"{""Q0"":5}",[0],W2 wanted to hug M4,M4 wanted to hug W2
2817.600000023842,NA,NA,NA,NA,survey-likert-extra-labels,84,493774,0.0-32.0-3.0-0.0,anomymised,6560bfa89caa13ce6a65a5b5,6565e1a501248669cbc24a0b,60380,1A,woman,NA,NA,W2 is being hugged by M4,hug3,rating_causation,"{""Q0"":5}",[0],W2 asked to hug M4,M4 asked to hug W2
null,Ruth is being greeted by Fred,NA,NA,NA,html-keyboard-response,85,495791,0.0-33.0-0.0,anomymised,6560bfa89caa13ce6a65a5b5,6565e1a501248669cbc24a0b,60380,1A,woman,NA,null,W1 is being greeted by M3,greet3,sentence,NA,NA,NA,NA
3969.199999988079,NA,NA,NA,NA,survey-likert-extra-labels,86,499762,0.0-33.0-1.0-0.0,anomymised,6560bfa89caa13ce6a65a5b5,6565e1a501248669cbc24a0b,60380,1A,woman,NA,NA,W1 is being greeted by M3,greet3,rating_causation,"{""Q0"":1}",[0],M3 started greeting W1 first,W1 started greeting M3 first
2347.699999988079,NA,NA,NA,NA,survey-likert-extra-labels,87,502112,0.0-33.0-2.0,anomymised,6560bfa89caa13ce6a65a5b5,6565e1a501248669cbc24a0b,60380,1A,woman,NA,NA,W1 is being greeted by M3,greet3,rating_volition,"{""Q0"":1}",[0],M3 wanted to greet W1,W1 wanted to greet M3
null,Mike is being challenged by Dave,NA,NA,NA,html-keyboard-response,88,504123,0.0-34.0-0.0,anomymised,6560bfa89caa13ce6a65a5b5,6565e1a501248669cbc24a0b,60380,1A,woman,NA,null,M2 is being challenged by M4,challenge2,sentence,NA,NA,NA,NA
74514.30000001192,NA,NA,NA,NA,survey-likert-extra-labels,89,578639,0.0-34.0-2.0,anomymised,6560bfa89caa13ce6a65a5b5,6565e1a501248669cbc24a0b,60380,1A,woman,NA,NA,M2 is being challenged by M4,challenge2,rating_volition,"{""Q0"":5}",[0],M2 wanted to challenge M4,M4 wanted to challenge M2
4119.699999988079,NA,NA,NA,NA,survey-likert-extra-labels,90,582761,0.0-34.0-3.0-0.0,anomymised,6560bfa89caa13ce6a65a5b5,6565e1a501248669cbc24a0b,60380,1A,woman,NA,NA,M2 is being challenged by M4,challenge2,rating_causation,"{""Q0"":5}",[0],M2 started challenging M4 first,M4 started challenging M2 first
null,Mike is being opposed by Beth,NA,NA,NA,html-keyboard-response,91,584767,0.0-35.0-0.0,anomymised,6560bfa89caa13ce6a65a5b5,6565e1a501248669cbc24a0b,60380,1A,woman,NA,null,M2 is being opposed by W4,oppose4,sentence,NA,NA,NA,NA
4178,NA,NA,NA,NA,survey-likert-extra-labels,92,588947,0.0-35.0-2.0,anomymised,6560bfa89caa13ce6a65a5b5,6565e1a501248669cbc24a0b,60380,1A,woman,NA,NA,M2 is being opposed by W4,oppose4,rating_volition,"{""Q0"":5}",[0],M2 wanted to oppose W4,W4 wanted to oppose M2
4725.199999988079,NA,NA,NA,NA,survey-likert-extra-labels,93,593674,0.0-35.0-3.0-0.0,anomymised,6560bfa89caa13ce6a65a5b5,6565e1a501248669cbc24a0b,60380,1A,woman,NA,NA,M2 is being opposed by W4,oppose4,rating_causation,"{""Q0"":5}",[0],M2 started opposing W4,W4 started opposing M2
null,Fred is being challenged by Ruth,NA,NA,NA,html-keyboard-response,94,595684,0.0-36.0-0.0,anomymised,6560bfa89caa13ce6a65a5b5,6565e1a501248669cbc24a0b,60380,1A,woman,NA,null,M3 is being challenged by W1,challenge3,sentence,NA,NA,NA,NA
7620.400000035763,NA,NA,NA,NA,survey-likert-extra-labels,95,603306,0.0-36.0-1.0-0.0,anomymised,6560bfa89caa13ce6a65a5b5,6565e1a501248669cbc24a0b,60380,1A,woman,NA,NA,M3 is being challenged by W1,challenge3,rating_causation,"{""Q0"":5}",[0],M3 started challenging W1 first,W1 started challenging M3 first
5600.099999964237,NA,NA,NA,NA,survey-likert-extra-labels,96,608908,0.0-36.0-2.0,anomymised,6560bfa89caa13ce6a65a5b5,6565e1a501248669cbc24a0b,60380,1A,woman,NA,NA,M3 is being challenged by W1,challenge3,rating_volition,"{""Q0"":5}",[0],M3 wanted to challenge W1,W1 wanted to challenge M3
null,Kate is being seduced by Luke,NA,NA,NA,html-keyboard-response,97,610915,0.0-37.0-0.0,anomymised,6560bfa89caa13ce6a65a5b5,6565e1a501248669cbc24a0b,60380,1A,woman,NA,null,W3 is being seduced by M1,seduce3,sentence,NA,NA,NA,NA
3075,NA,NA,NA,NA,survey-likert-extra-labels,98,613991,0.0-37.0-2.0,anomymised,6560bfa89caa13ce6a65a5b5,6565e1a501248669cbc24a0b,60380,1A,woman,NA,NA,W3 is being seduced by M1,seduce3,rating_volition,"{""Q0"":5}",[0],W3 wanted to seduce M1,M1 wanted to seduce W3
2611.699999988079,NA,NA,NA,NA,survey-likert-extra-labels,99,616604,0.0-37.0-3.0-0.0,anomymised,6560bfa89caa13ce6a65a5b5,6565e1a501248669cbc24a0b,60380,1A,woman,NA,NA,W3 is being seduced by M1,seduce3,rating_causation,"{""Q0"":5}",[0],W3 started seducing M1 first,M1 started seducing W3 first
null,Beth is being greeted by Jane,NA,NA,NA,html-keyboard-response,100,618608,0.0-38.0-0.0,anomymised,6560bfa89caa13ce6a65a5b5,6565e1a501248669cbc24a0b,60380,1A,woman,NA,null,W4 is being greeted by W2,greet1,sentence,NA,NA,NA,NA
3974.399999976158,NA,NA,NA,NA,survey-likert-extra-labels,101,622584,0.0-38.0-1.0-0.0,anomymised,6560bfa89caa13ce6a65a5b5,6565e1a501248669cbc24a0b,60380,1A,woman,NA,NA,W4 is being greeted by W2,greet1,rating_causation,"{""Q0"":1}",[0],W2 started greeting W4 first,W4 started greeting W2 first
6497.800000011921,NA,NA,NA,NA,survey-likert-extra-labels,102,629084,0.0-38.0-2.0,anomymised,6560bfa89caa13ce6a65a5b5,6565e1a501248669cbc24a0b,60380,1A,woman,NA,NA,W4 is being greeted by W2,greet1,rating_volition,"{""Q0"":1}",[0],W2 wanted to greet W4,W4 wanted to greet W2
null,Mike is being shouted at by Beth,NA,NA,NA,html-keyboard-response,103,631090,0.0-39.0-0.0,anomymised,6560bfa89caa13ce6a65a5b5,6565e1a501248669cbc24a0b,60380,1A,woman,NA,null,M2 is being shouted at by W4,shout3,sentence,NA,NA,NA,NA
3096,NA,NA,NA,NA,survey-likert-extra-labels,104,634188,0.0-39.0-1.0-0.0,anomymised,6560bfa89caa13ce6a65a5b5,6565e1a501248669cbc24a0b,60380,1A,woman,NA,NA,M2 is being shouted at by W4,shout3,rating_causation,"{""Q0"":5}",[0],M2 shouted at W4 first,W4 shouted at M2 first
4120.300000011921,NA,NA,NA,NA,survey-likert-extra-labels,105,638310,0.0-39.0-2.0,anomymised,6560bfa89caa13ce6a65a5b5,6565e1a501248669cbc24a0b,60380,1A,woman,NA,NA,M2 is being shouted at by W4,shout3,rating_volition,"{""Q0"":5}",[0],M2 wanted to shout at W4,W4 wanted to shout at M2
null,Luke is being copied by Kate,NA,NA,NA,html-keyboard-response,106,640324,0.0-40.0-0.0,anomymised,6560bfa89caa13ce6a65a5b5,6565e1a501248669cbc24a0b,60380,1A,woman,NA,null,M1 is being copied by W3,copy3,sentence,NA,NA,NA,NA
4498.600000023842,NA,NA,NA,NA,survey-likert-extra-labels,107,644824,0.0-40.0-1.0-0.0,anomymised,6560bfa89caa13ce6a65a5b5,6565e1a501248669cbc24a0b,60380,1A,woman,NA,NA,M1 is being copied by W3,copy3,rating_causation,"{""Q0"":1}",[0],W3 started copying M1 first,M1 started copying W3 first
2902.800000011921,NA,NA,NA,NA,survey-likert-extra-labels,108,647729,0.0-40.0-2.0,anomymised,6560bfa89caa13ce6a65a5b5,6565e1a501248669cbc24a0b,60380,1A,woman,NA,NA,M1 is being copied by W3,copy3,rating_volition,"{""Q0"":1}",[0],W3 wanted to copy M1,M1 wanted to copy W3
null,Luke is being hugged by Fred,NA,NA,NA,html-keyboard-response,109,649738,0.0-41.0-0.0,anomymised,6560bfa89caa13ce6a65a5b5,6565e1a501248669cbc24a0b,60380,1A,woman,NA,null,M1 is being hugged by M3,hug2,sentence,NA,NA,NA,NA
11281.199999988079,NA,NA,NA,NA,survey-likert-extra-labels,110,661021,0.0-41.0-2.0,anomymised,6560bfa89caa13ce6a65a5b5,6565e1a501248669cbc24a0b,60380,1A,woman,NA,NA,M1 is being hugged by M3,hug2,rating_volition,"{""Q0"":5}",[0],M1 wanted to hug M3,M3 wanted to hug M1
4332.600000023842,NA,NA,NA,NA,survey-likert-extra-labels,111,665355,0.0-41.0-3.0-0.0,anomymised,6560bfa89caa13ce6a65a5b5,6565e1a501248669cbc24a0b,60380,1A,woman,NA,NA,M1 is being hugged by M3,hug2,rating_causation,"{""Q0"":5}",[0],M1 asked to hug M3,M3 asked to hug M1
null,Beth is being looked at by Mike,NA,NA,NA,html-keyboard-response,112,667358,0.0-42.0-0.0,anomymised,6560bfa89caa13ce6a65a5b5,6565e1a501248669cbc24a0b,60380,1A,woman,NA,null,W4 is being looked at by M2,look4,sentence,NA,NA,NA,NA
3794.5,NA,NA,NA,NA,survey-likert-extra-labels,113,671154,0.0-42.0-1.0-0.0,anomymised,6560bfa89caa13ce6a65a5b5,6565e1a501248669cbc24a0b,60380,1A,woman,NA,NA,W4 is being looked at by M2,look4,rating_causation,"{""Q0"":1}",[0],M2 looked at W4 first,W4 looked at M2 first
7290,NA,NA,NA,NA,survey-likert-extra-labels,114,678446,0.0-42.0-2.0,anomymised,6560bfa89caa13ce6a65a5b5,6565e1a501248669cbc24a0b,60380,1A,woman,NA,NA,W4 is being looked at by M2,look4,rating_volition,"{""Q0"":1}",[0],M2 wanted to look at W4,W4 wanted to look at M2
null,Fred is being looked at by Luke,NA,NA,NA,html-keyboard-response,115,680449,0.0-43.0-0.0,anomymised,6560bfa89caa13ce6a65a5b5,6565e1a501248669cbc24a0b,60380,1A,woman,NA,null,M3 is being looked at by M1,look2,sentence,NA,NA,NA,NA
3115.899999976158,NA,NA,NA,NA,survey-likert-extra-labels,116,683566,0.0-43.0-2.0,anomymised,6560bfa89caa13ce6a65a5b5,6565e1a501248669cbc24a0b,60380,1A,woman,NA,NA,M3 is being looked at by M1,look2,rating_volition,"{""Q0"":1}",[0],M1 wanted to look at M3,M3 wanted to look at M1
2112.5,NA,NA,NA,NA,survey-likert-extra-labels,117,685681,0.0-43.0-3.0-0.0,anomymised,6560bfa89caa13ce6a65a5b5,6565e1a501248669cbc24a0b,60380,1A,woman,NA,NA,M3 is being looked at by M1,look2,rating_causation,"{""Q0"":1}",[0],M1 looked at M3 first,M3 looked at M1 first
null,Ruth is being opposed by Kate,NA,NA,NA,html-keyboard-response,118,687689,0.0-44.0-0.0,anomymised,6560bfa89caa13ce6a65a5b5,6565e1a501248669cbc24a0b,60380,1A,woman,NA,null,W1 is being opposed by W3,oppose1,sentence,NA,NA,NA,NA
3775.100000023842,NA,NA,NA,NA,survey-likert-extra-labels,119,691466,0.0-44.0-2.0,anomymised,6560bfa89caa13ce6a65a5b5,6565e1a501248669cbc24a0b,60380,1A,woman,NA,NA,W1 is being opposed by W3,oppose1,rating_volition,"{""Q0"":5}",[0],W1 wanted to oppose W3,W3 wanted to oppose W1
2033.1000000238419,NA,NA,NA,NA,survey-likert-extra-labels,120,693501,0.0-44.0-3.0-0.0,anomymised,6560bfa89caa13ce6a65a5b5,6565e1a501248669cbc24a0b,60380,1A,woman,NA,NA,W1 is being opposed by W3,oppose1,rating_causation,"{""Q0"":5}",[0],W1 started opposing W3,W3 started opposing W1
null,Ruth is being shouted at by Kate,NA,NA,NA,html-keyboard-response,121,695516,0.0-45.0-0.0,anomymised,6560bfa89caa13ce6a65a5b5,6565e1a501248669cbc24a0b,60380,1A,woman,NA,null,W1 is being shouted at by W3,shout1,sentence,NA,NA,NA,NA
5118.700000047684,NA,NA,NA,NA,survey-likert-extra-labels,122,700636,0.0-45.0-1.0-0.0,anomymised,6560bfa89caa13ce6a65a5b5,6565e1a501248669cbc24a0b,60380,1A,woman,NA,NA,W1 is being shouted at by W3,shout1,rating_causation,"{""Q0"":5}",[0],W1 shouted at W3 first,W3 shouted at W1 first
1997.5,NA,NA,NA,NA,survey-likert-extra-labels,123,702635,0.0-45.0-2.0,anomymised,6560bfa89caa13ce6a65a5b5,6565e1a501248669cbc24a0b,60380,1A,woman,NA,NA,W1 is being shouted at by W3,shout1,rating_volition,"{""Q0"":5}",[0],W1 wanted to shout at W3,W3 wanted to shout at W1
null,Jane is carrying Beth,NA,NA,NA,html-keyboard-response,124,704647,0.0-46.0-0.0,anomymised,6560bfa89caa13ce6a65a5b5,6565e1a501248669cbc24a0b,60380,1A,woman,NA,null,W2 is carrying W4,carry,sentence,NA,NA,NA,NA
8199.600000023842,NA,NA,NA,NA,survey-likert-extra-labels,125,712848,0.0-46.0-1.0-0.0,anomymised,6560bfa89caa13ce6a65a5b5,6565e1a501248669cbc24a0b,60380,1A,woman,NA,NA,W2 is carrying W4,carry,rating_causation,"{""Q0"":6}",[0],W2 is being moved by W4,W4 is being moved by W2
4654.600000023842,NA,NA,NA,NA,survey-likert-extra-labels,126,717505,0.0-46.0-2.0,anomymised,6560bfa89caa13ce6a65a5b5,6565e1a501248669cbc24a0b,60380,1A,woman,NA,NA,W2 is carrying W4,carry,rating_volition,"{""Q0"":0}",[0],W2 is transporting W4,W4 is transporting W2
null,Kate is being looked at by Ruth,NA,NA,NA,html-keyboard-response,127,719511,0.0-47.0-0.0,anomymised,6560bfa89caa13ce6a65a5b5,6565e1a501248669cbc24a0b,60380,1A,woman,NA,null,W3 is being looked at by W1,look1,sentence,NA,NA,NA,NA
4284.199999988079,NA,NA,NA,NA,survey-likert-extra-labels,128,723797,0.0-47.0-2.0,anomymised,6560bfa89caa13ce6a65a5b5,6565e1a501248669cbc24a0b,60380,1A,woman,NA,NA,W3 is being looked at by W1,look1,rating_volition,"{""Q0"":1}",[0],W1 wanted to look at W3,W3 wanted to look at W1
2283.399999976158,NA,NA,NA,NA,survey-likert-extra-labels,129,726082,0.0-47.0-3.0-0.0,anomymised,6560bfa89caa13ce6a65a5b5,6565e1a501248669cbc24a0b,60380,1A,woman,NA,NA,W3 is being looked at by W1,look1,rating_causation,"{""Q0"":1}",[0],W1 looked at W3 first,W3 looked at W1 first
null,Kate is being challenged by Luke,NA,NA,NA,html-keyboard-response,130,728098,0.0-48.0-0.0,anomymised,6560bfa89caa13ce6a65a5b5,6565e1a501248669cbc24a0b,60380,1A,woman,NA,null,W3 is being challenged by M1,challenge4,sentence,NA,NA,NA,NA
3881.399999976158,NA,NA,NA,NA,survey-likert-extra-labels,131,731981,0.0-48.0-1.0-0.0,anomymised,6560bfa89caa13ce6a65a5b5,6565e1a501248669cbc24a0b,60380,1A,woman,NA,NA,W3 is being challenged by M1,challenge4,rating_causation,"{""Q0"":5}",[0],W3 started challenging M1 first,M1 started challenging W3 first
2983.5,NA,NA,NA,NA,survey-likert-extra-labels,132,734967,0.0-48.0-2.0,anomymised,6560bfa89caa13ce6a65a5b5,6565e1a501248669cbc24a0b,60380,1A,woman,NA,NA,W3 is being challenged by M1,challenge4,rating_volition,"{""Q0"":5}",[0],W3 wanted to challenge M1,M1 wanted to challenge W3
null,Fred is hiring Ruth,NA,NA,NA,html-keyboard-response,133,736975,0.0-49.0-0.0,anomymised,6560bfa89caa13ce6a65a5b5,6565e1a501248669cbc24a0b,60380,1A,woman,NA,null,M3 is hiring W1,hire,sentence,NA,NA,NA,NA
3846.400000035763,NA,NA,NA,NA,survey-likert-extra-labels,134,740823,0.0-49.0-2.0,anomymised,6560bfa89caa13ce6a65a5b5,6565e1a501248669cbc24a0b,60380,1A,woman,NA,NA,M3 is hiring W1,hire,rating_volition,"{""Q0"":0}",[0],M3 is employing W1,W1 is employing M3
4161.800000011921,NA,NA,NA,NA,survey-likert-extra-labels,135,744987,0.0-49.0-3.0-0.0,anomymised,6560bfa89caa13ce6a65a5b5,6565e1a501248669cbc24a0b,60380,1A,woman,NA,NA,M3 is hiring W1,hire,rating_causation,"{""Q0"":6}",[0],M3 will work for W1,W1 will work for M3
null,Mike is reminding Beth,NA,NA,NA,html-keyboard-response,136,746994,0.0-50.0-0.0,anomymised,6560bfa89caa13ce6a65a5b5,6565e1a501248669cbc24a0b,60380,1A,woman,NA,null,M2 is reminding W4,remind,sentence,NA,NA,NA,NA
6083.5,NA,NA,NA,NA,survey-likert-extra-labels,137,753079,0.0-50.0-1.0-0.0,anomymised,6560bfa89caa13ce6a65a5b5,6565e1a501248669cbc24a0b,60380,1A,woman,NA,NA,M2 is reminding W4,remind,rating_causation,"{""Q0"":6}",[0],M2 is remembering,W4 is remembering
3961.600000023842,NA,NA,NA,NA,survey-likert-extra-labels,138,757043,0.0-50.0-2.0,anomymised,6560bfa89caa13ce6a65a5b5,6565e1a501248669cbc24a0b,60380,1A,woman,NA,NA,M2 is reminding W4,remind,rating_volition,"{""Q0"":0}",[0],M2 is telling W4 again,W4 is telling M2 again
null,Jane is being seduced by Beth,NA,NA,NA,html-keyboard-response,139,759057,0.0-51.0-0.0,anomymised,6560bfa89caa13ce6a65a5b5,6565e1a501248669cbc24a0b,60380,1A,woman,NA,null,W2 is being seduced by W4,seduce1,sentence,NA,NA,NA,NA
5489.600000023842,NA,NA,NA,NA,survey-likert-extra-labels,140,764548,0.0-51.0-1.0-0.0,anomymised,6560bfa89caa13ce6a65a5b5,6565e1a501248669cbc24a0b,60380,1A,woman,NA,NA,W2 is being seduced by W4,seduce1,rating_causation,"{""Q0"":5}",[0],W2 started seducing W4 first,W4 started seducing W2 first
3882.399999976158,NA,NA,NA,NA,survey-likert-extra-labels,141,768433,0.0-51.0-2.0,anomymised,6560bfa89caa13ce6a65a5b5,6565e1a501248669cbc24a0b,60380,1A,woman,NA,NA,W2 is being seduced by W4,seduce1,rating_volition,"{""Q0"":5}",[0],W2 wanted to seduce W4,W4 wanted to seduce W2
null,Luke is being opposed by Fred,NA,NA,NA,html-keyboard-response,142,770442,0.0-52.0-0.0,anomymised,6560bfa89caa13ce6a65a5b5,6565e1a501248669cbc24a0b,60380,1A,woman,NA,null,M1 is being opposed by M3,oppose2,sentence,NA,NA,NA,NA
4659.5,NA,NA,NA,NA,survey-likert-extra-labels,143,775103,0.0-52.0-1.0-0.0,anomymised,6560bfa89caa13ce6a65a5b5,6565e1a501248669cbc24a0b,60380,1A,woman,NA,NA,M1 is being opposed by M3,oppose2,rating_causation,"{""Q0"":5}",[0],M1 started opposing M3,M3 started opposing M1
2618.899999976158,NA,NA,NA,NA,survey-likert-extra-labels,144,777724,0.0-52.0-2.0,anomymised,6560bfa89caa13ce6a65a5b5,6565e1a501248669cbc24a0b,60380,1A,woman,NA,NA,M1 is being opposed by M3,oppose2,rating_volition,"{""Q0"":5}",[0],M1 wanted to oppose M3,M3 wanted to oppose M1
null,Mike is being seduced by Dave,NA,NA,NA,html-keyboard-response,145,779729,0.0-53.0-0.0,anomymised,6560bfa89caa13ce6a65a5b5,6565e1a501248669cbc24a0b,60380,1A,woman,NA,null,M2 is being seduced by M4,seduce2,sentence,NA,NA,NA,NA
4385.699999988079,NA,NA,NA,NA,survey-likert-extra-labels,146,784116,0.0-53.0-2.0,anomymised,6560bfa89caa13ce6a65a5b5,6565e1a501248669cbc24a0b,60380,1A,woman,NA,NA,M2 is being seduced by M4,seduce2,rating_volition,"{""Q0"":5}",[0],M2 wanted to seduce M4,M4 wanted to seduce M2
1948.3999999761581,NA,NA,NA,NA,survey-likert-extra-labels,147,786066,0.0-53.0-3.0-0.0,anomymised,6560bfa89caa13ce6a65a5b5,6565e1a501248669cbc24a0b,60380,1A,woman,NA,NA,M2 is being seduced by M4,seduce2,rating_causation,"{""Q0"":5}",[0],M2 started seducing M4 first,M4 started seducing M2 first
null,Ruth is being hugged by Kate,NA,NA,NA,html-keyboard-response,148,788071,0.0-54.0-0.0,anomymised,6560bfa89caa13ce6a65a5b5,6565e1a501248669cbc24a0b,60380,1A,woman,NA,null,W1 is being hugged by W3,hug1,sentence,NA,NA,NA,NA
4978.600000023842,NA,NA,NA,NA,survey-likert-extra-labels,149,793051,0.0-54.0-1.0-0.0,anomymised,6560bfa89caa13ce6a65a5b5,6565e1a501248669cbc24a0b,60380,1A,woman,NA,NA,W1 is being hugged by W3,hug1,rating_causation,"{""Q0"":5}",[0],W1 asked to hug W3,W3 asked to hug W1
3782.900000035763,NA,NA,NA,NA,survey-likert-extra-labels,150,796836,0.0-54.0-2.0,anomymised,6560bfa89caa13ce6a65a5b5,6565e1a501248669cbc24a0b,60380,1A,woman,NA,NA,W1 is being hugged by W3,hug1,rating_volition,"{""Q0"":5}",[0],W1 wanted to hug W3,W3 wanted to hug W1
1576.6000000238419,<p>Thank you for completing that task.</p><p>The final part of this session is a short questionnaire.</p><p>Press Continue.</p>,0,Continue,Continue,html-button-response,151,798414,0.0-55.0,anomymised,6560bfa89caa13ce6a65a5b5,6565e1a501248669cbc24a0b,60380,1A,woman,NA,NA,NA,NA,NA,NA,NA,NA,NA
19563.80000001192,NA,NA,NA,NA,survey-text,152,818991,0.0-56.0,anomymised,6560bfa89caa13ce6a65a5b5,6565e1a501248669cbc24a0b,60380,1A,woman,NA,NA,NA,NA,demographics,"{""Q0"":""25"",""Q1"":""english"",""Q2"":""english"",""Q3"":""england"",""Q4"":""english"",""Q5"":""mixed"",""Q6"":""female""}",NA,NA,NA
3989.699999988079,<p>This is the last question - thank you for taking part! Have you lived in the UK for the last 5 years or more?</p>,0,"Yes,No",Yes,html-button-response,153,822983,0.0-57.0,anomymised,6560bfa89caa13ce6a65a5b5,6565e1a501248669cbc24a0b,60380,1A,woman,NA,NA,NA,NA,fiveyears,NA,NA,NA,NA
