rt,stimulus,button_pressed,choices,ChosenStimulus,trial_type,trial_index,time_elapsed,internal_node_id,subject_id,study_id,session_id,subject,list,ppt_gender,url,key_press,sentence_type,verb,test_part,responses,question_order,left_part,right_part
1066.6000000089407,Welcome to the experiment. Press Continue to begin.,0,Continue,Continue,html-button-response,0,1069,0.0-0.0,anomymised,6565831db6b8903cc398def3,6567678d962a2215c3b763b9,63392,2C,woman,NA,NA,NA,NA,NA,NA,NA,NA,NA
8019.5999999940395,NA,NA,NA,NA,external-html,1,10146,0.0-1.0,anomymised,6565831db6b8903cc398def3,6567678d962a2215c3b763b9,63392,2C,woman,consent.html,NA,NA,NA,NA,NA,NA,NA,NA
11294.29999999702,"<p>Welcome.</p><p>In this experiment we will ask you to imagine some situations.</p><p>Each trial starts with a description of an event.</p><p>Then you will see alternative descriptions of that event, and you will rate on a scale how best they match the original description.</p><p>You will give your answer by clicking a button on a rating scale.</p><p>To do this task, you will have to use your imagination to visualise these events.</p><br><p>Ready?</p>",0,Continue,Continue,html-button-response,2,21440,0.0-2.0,anomymised,6565831db6b8903cc398def3,6567678d962a2215c3b763b9,63392,2C,woman,NA,NA,NA,NA,NA,NA,NA,NA,NA
4184.0999999940395,"<p>Before the experiment starts, you will watch an example trial. Press 'Continue'.</p>",0,Continue,Continue,html-button-response,3,26630,0.0-3.0,anomymised,6565831db6b8903cc398def3,6567678d962a2215c3b763b9,63392,2C,woman,NA,NA,NA,NA,NA,NA,NA,NA,NA
null,The police officer is arresting the robber,NA,NA,NA,html-keyboard-response,4,29637,0.0-4.0,anomymised,6565831db6b8903cc398def3,6567678d962a2215c3b763b9,63392,2C,woman,NA,null,NA,NA,NA,NA,NA,NA,NA
17047.09999999404,<img src='img/Example-trial.jpg' style='height:550px;''></img>,0,Continue,Continue,html-button-response,5,46685,0.0-5.0,anomymised,6565831db6b8903cc398def3,6567678d962a2215c3b763b9,63392,2C,woman,NA,NA,NA,NA,NA,NA,NA,NA,NA
2151.7000000029802,<p>Ready to start the experiment?</p><br><p><strong>Remember to give an answer by clicking a button on the rating scale.</strong></p><p>Press 'Continue' to begin.</p>,0,Continue,Continue,html-button-response,6,49838,0.0-6.0,anomymised,6565831db6b8903cc398def3,6567678d962a2215c3b763b9,63392,2C,woman,NA,NA,NA,NA,NA,NA,NA,NA,NA
null,Ruth is being seduced by Kate,NA,NA,NA,html-keyboard-response,7,52845,0.0-7.0-0.0,anomymised,6565831db6b8903cc398def3,6567678d962a2215c3b763b9,63392,2C,woman,NA,null,W4 is being seduced by W2,seduce1,sentence,NA,NA,NA,NA
10158,NA,NA,NA,NA,survey-likert-extra-labels,8,63004,0.0-7.0-2.0,anomymised,6565831db6b8903cc398def3,6567678d962a2215c3b763b9,63392,2C,woman,NA,NA,W4 is being seduced by W2,seduce1,rating_volition,"{""Q0"":1}",[0],W2 wanted to seduce W4,W4 wanted to seduce W2
5970,NA,NA,NA,NA,survey-likert-extra-labels,9,68976,0.0-7.0-3.0-0.0,anomymised,6565831db6b8903cc398def3,6567678d962a2215c3b763b9,63392,2C,woman,NA,NA,W4 is being seduced by W2,seduce1,rating_causation,"{""Q0"":1}",[0],W2 started seducing W4 first,W4 started seducing W2 first
null,Kate is being kissed by Mike,NA,NA,NA,html-keyboard-response,10,70981,0.0-8.0-0.0,anomymised,6565831db6b8903cc398def3,6567678d962a2215c3b763b9,63392,2C,woman,NA,null,W2 is being kissed by M4,kiss4,sentence,NA,NA,NA,NA
4051.5999999940395,NA,NA,NA,NA,survey-likert-extra-labels,11,75033,0.0-8.0-1.0-0.0,anomymised,6565831db6b8903cc398def3,6567678d962a2215c3b763b9,63392,2C,woman,NA,NA,W2 is being kissed by M4,kiss4,rating_causation,"{""Q0"":5}",[0],W2 asked to kiss M4,M4 asked to kiss W2
6572.5999999940395,NA,NA,NA,NA,survey-likert-extra-labels,12,81607,0.0-8.0-2.0,anomymised,6565831db6b8903cc398def3,6567678d962a2215c3b763b9,63392,2C,woman,NA,NA,W2 is being kissed by M4,kiss4,rating_volition,"{""Q0"":5}",[0],W2 wanted to kiss M4,M4 wanted to kiss W2
null,Jane is being opposed by Beth,NA,NA,NA,html-keyboard-response,13,83612,0.0-9.0-0.0,anomymised,6565831db6b8903cc398def3,6567678d962a2215c3b763b9,63392,2C,woman,NA,null,W3 is being opposed by W1,oppose1,sentence,NA,NA,NA,NA
5169.20000000298,NA,NA,NA,NA,survey-likert-extra-labels,14,88782,0.0-9.0-1.0-0.0,anomymised,6565831db6b8903cc398def3,6567678d962a2215c3b763b9,63392,2C,woman,NA,NA,W3 is being opposed by W1,oppose1,rating_causation,"{""Q0"":1}",[0],W1 started opposing W3,W3 started opposing W1
6189.199999988079,NA,NA,NA,NA,survey-likert-extra-labels,15,94972,0.0-9.0-2.0,anomymised,6565831db6b8903cc398def3,6567678d962a2215c3b763b9,63392,2C,woman,NA,NA,W3 is being opposed by W1,oppose1,rating_volition,"{""Q0"":1}",[0],W1 wanted to oppose W3,W3 wanted to oppose W1
null,Kate is being copied by Ruth,NA,NA,NA,html-keyboard-response,16,96975,0.0-10.0-0.0,anomymised,6565831db6b8903cc398def3,6567678d962a2215c3b763b9,63392,2C,woman,NA,null,W2 is being copied by W4,copy1,sentence,NA,NA,NA,NA
3418.0999999940395,NA,NA,NA,NA,survey-likert-extra-labels,17,100394,0.0-10.0-1.0-0.0,anomymised,6565831db6b8903cc398def3,6567678d962a2215c3b763b9,63392,2C,woman,NA,NA,W2 is being copied by W4,copy1,rating_causation,"{""Q0"":5}",[0],W2 started copying W4 first,W4 started copying W2 first
3953.3999999910593,NA,NA,NA,NA,survey-likert-extra-labels,18,104349,0.0-10.0-2.0,anomymised,6565831db6b8903cc398def3,6567678d962a2215c3b763b9,63392,2C,woman,NA,NA,W2 is being copied by W4,copy1,rating_volition,"{""Q0"":5}",[0],W2 wanted to copy W4,W4 wanted to copy W2
null,Fred is driving Luke,NA,NA,NA,html-keyboard-response,19,106355,0.0-11.0-0.0,anomymised,6565831db6b8903cc398def3,6567678d962a2215c3b763b9,63392,2C,woman,NA,null,M1 is driving M3,drive,sentence,NA,NA,NA,NA
4833.399999991059,NA,NA,NA,NA,survey-likert-extra-labels,20,111189,0.0-11.0-1.0-0.0,anomymised,6565831db6b8903cc398def3,6567678d962a2215c3b763b9,63392,2C,woman,NA,NA,M1 is driving M3,drive,rating_causation,"{""Q0"":1}",[0],M1 is taking M3 somewhere,M3 is taking M1 somewhere
3620.0999999940395,NA,NA,NA,NA,survey-likert-extra-labels,21,114810,0.0-11.0-2.0,anomymised,6565831db6b8903cc398def3,6567678d962a2215c3b763b9,63392,2C,woman,NA,NA,M1 is driving M3,drive,rating_volition,"{""Q0"":5}",[0],M1 is M3's passenger,M3 is M1's passenger
null,Luke is being hugged by Fred,NA,NA,NA,html-keyboard-response,22,116816,0.0-12.0-0.0,anomymised,6565831db6b8903cc398def3,6567678d962a2215c3b763b9,63392,2C,woman,NA,null,M3 is being hugged by M1,hug2,sentence,NA,NA,NA,NA
6951.9000000059605,NA,NA,NA,NA,survey-likert-extra-labels,23,123770,0.0-12.0-2.0,anomymised,6565831db6b8903cc398def3,6567678d962a2215c3b763b9,63392,2C,woman,NA,NA,M3 is being hugged by M1,hug2,rating_volition,"{""Q0"":1}",[0],M1 wanted to hug M3,M3 wanted to hug M1
4536.9000000059605,NA,NA,NA,NA,survey-likert-extra-labels,24,128308,0.0-12.0-3.0-0.0,anomymised,6565831db6b8903cc398def3,6567678d962a2215c3b763b9,63392,2C,woman,NA,NA,M3 is being hugged by M1,hug2,rating_causation,"{""Q0"":1}",[0],M1 asked to hug M3,M3 asked to hug M1
null,Jane is feeding Fred,NA,NA,NA,html-keyboard-response,25,130310,0.0-13.0-0.0,anomymised,6565831db6b8903cc398def3,6567678d962a2215c3b763b9,63392,2C,woman,NA,null,W3 is feeding M1,feed,sentence,NA,NA,NA,NA
3420.0999999940395,NA,NA,NA,NA,survey-likert-extra-labels,26,133731,0.0-13.0-1.0-0.0,anomymised,6565831db6b8903cc398def3,6567678d962a2215c3b763b9,63392,2C,woman,NA,NA,W3 is feeding M1,feed,rating_causation,"{""Q0"":5}",[0],W3 is eating M1's food,M1 is eating W3's food
4437.600000008941,NA,NA,NA,NA,survey-likert-extra-labels,27,138169,0.0-13.0-2.0,anomymised,6565831db6b8903cc398def3,6567678d962a2215c3b763b9,63392,2C,woman,NA,NA,W3 is feeding M1,feed,rating_volition,"{""Q0"":1}",[0],W3 cooked for M1,M1 cooked for W3
null,Dave is being kissed by Ruth,NA,NA,NA,html-keyboard-response,28,140171,0.0-14.0-0.0,anomymised,6565831db6b8903cc398def3,6567678d962a2215c3b763b9,63392,2C,woman,NA,null,M2 is being kissed by W4,kiss3,sentence,NA,NA,NA,NA
3687.4000000059605,NA,NA,NA,NA,survey-likert-extra-labels,29,143859,0.0-14.0-2.0,anomymised,6565831db6b8903cc398def3,6567678d962a2215c3b763b9,63392,2C,woman,NA,NA,M2 is being kissed by W4,kiss3,rating_volition,"{""Q0"":5}",[0],M2 wanted to kiss W4,W4 wanted to kiss M2
4153.0999999940395,NA,NA,NA,NA,survey-likert-extra-labels,30,148013,0.0-14.0-3.0-0.0,anomymised,6565831db6b8903cc398def3,6567678d962a2215c3b763b9,63392,2C,woman,NA,NA,M2 is being kissed by W4,kiss3,rating_causation,"{""Q0"":5}",[0],M2 asked to kiss W4,W4 asked to kiss M2
null,Kate is being greeted by Ruth,NA,NA,NA,html-keyboard-response,31,150016,0.0-15.0-0.0,anomymised,6565831db6b8903cc398def3,6567678d962a2215c3b763b9,63392,2C,woman,NA,null,W2 is being greeted by W4,greet1,sentence,NA,NA,NA,NA
4236.4000000059605,NA,NA,NA,NA,survey-likert-extra-labels,32,154253,0.0-15.0-1.0-0.0,anomymised,6565831db6b8903cc398def3,6567678d962a2215c3b763b9,63392,2C,woman,NA,NA,W2 is being greeted by W4,greet1,rating_causation,"{""Q0"":5}",[0],W2 started greeting W4 first,W4 started greeting W2 first
2986.2000000029802,NA,NA,NA,NA,survey-likert-extra-labels,33,157241,0.0-15.0-2.0,anomymised,6565831db6b8903cc398def3,6567678d962a2215c3b763b9,63392,2C,woman,NA,NA,W2 is being greeted by W4,greet1,rating_volition,"{""Q0"":5}",[0],W2 wanted to greet W4,W4 wanted to greet W2
null,Dave is reminding Ruth,NA,NA,NA,html-keyboard-response,34,159245,0.0-16.0-0.0,anomymised,6565831db6b8903cc398def3,6567678d962a2215c3b763b9,63392,2C,woman,NA,null,M2 is reminding W4,remind,sentence,NA,NA,NA,NA
3032.699999988079,NA,NA,NA,NA,survey-likert-extra-labels,35,162278,0.0-16.0-1.0-0.0,anomymised,6565831db6b8903cc398def3,6567678d962a2215c3b763b9,63392,2C,woman,NA,NA,M2 is reminding W4,remind,rating_causation,"{""Q0"":1}",[0],M2 is remembering,W4 is remembering
2819.5999999940395,NA,NA,NA,NA,survey-likert-extra-labels,36,165099,0.0-16.0-2.0,anomymised,6565831db6b8903cc398def3,6567678d962a2215c3b763b9,63392,2C,woman,NA,NA,M2 is reminding W4,remind,rating_volition,"{""Q0"":1}",[0],M2 is telling W4 again,W4 is telling M2 again
null,Fred is being touched by Jane,NA,NA,NA,html-keyboard-response,37,167105,0.0-17.0-0.0,anomymised,6565831db6b8903cc398def3,6567678d962a2215c3b763b9,63392,2C,woman,NA,null,M1 is being touched by W3,touch3,sentence,NA,NA,NA,NA
3198.7999999970198,NA,NA,NA,NA,survey-likert-extra-labels,38,170305,0.0-17.0-1.0-0.0,anomymised,6565831db6b8903cc398def3,6567678d962a2215c3b763b9,63392,2C,woman,NA,NA,M1 is being touched by W3,touch3,rating_causation,"{""Q0"":1}",[0],W3 asked to touch M1,M1 asked to touch W3
4253,NA,NA,NA,NA,survey-likert-extra-labels,39,174559,0.0-17.0-2.0,anomymised,6565831db6b8903cc398def3,6567678d962a2215c3b763b9,63392,2C,woman,NA,NA,M1 is being touched by W3,touch3,rating_volition,"{""Q0"":1}",[0],W3 wanted to touch M1,M1 wanted to touch W3
null,Jane is being greeted by Fred,NA,NA,NA,html-keyboard-response,40,176562,0.0-18.0-0.0,anomymised,6565831db6b8903cc398def3,6567678d962a2215c3b763b9,63392,2C,woman,NA,null,W3 is being greeted by M1,greet4,sentence,NA,NA,NA,NA
2568.300000011921,NA,NA,NA,NA,survey-likert-extra-labels,41,179131,0.0-18.0-2.0,anomymised,6565831db6b8903cc398def3,6567678d962a2215c3b763b9,63392,2C,woman,NA,NA,W3 is being greeted by M1,greet4,rating_volition,"{""Q0"":5}",[0],W3 wanted to greet M1,M1 wanted to greet W3
8575.70000000298,NA,NA,NA,NA,survey-likert-extra-labels,42,187708,0.0-18.0-3.0-0.0,anomymised,6565831db6b8903cc398def3,6567678d962a2215c3b763b9,63392,2C,woman,NA,NA,W3 is being greeted by M1,greet4,rating_causation,"{""Q0"":5}",[0],W3 started greeting M1 first,M1 started greeting W3 first
null,Ruth is being challenged by Kate,NA,NA,NA,html-keyboard-response,43,189714,0.0-19.0-0.0,anomymised,6565831db6b8903cc398def3,6567678d962a2215c3b763b9,63392,2C,woman,NA,null,W4 is being challenged by W2,challenge1,sentence,NA,NA,NA,NA
5083.70000000298,NA,NA,NA,NA,survey-likert-extra-labels,44,194798,0.0-19.0-1.0-0.0,anomymised,6565831db6b8903cc398def3,6567678d962a2215c3b763b9,63392,2C,woman,NA,NA,W4 is being challenged by W2,challenge1,rating_causation,"{""Q0"":0}",[0],W2 started challenging W4 first,W4 started challenging W2 first
5238,NA,NA,NA,NA,survey-likert-extra-labels,45,200037,0.0-19.0-2.0,anomymised,6565831db6b8903cc398def3,6567678d962a2215c3b763b9,63392,2C,woman,NA,NA,W4 is being challenged by W2,challenge1,rating_volition,"{""Q0"":1}",[0],W2 wanted to challenge W4,W4 wanted to challenge W2
null,Beth is chasing Jane,NA,NA,NA,html-keyboard-response,46,202043,0.0-20.0-0.0,anomymised,6565831db6b8903cc398def3,6567678d962a2215c3b763b9,63392,2C,woman,NA,null,W1 is chasing W3,chase,sentence,NA,NA,NA,NA
6101.199999988079,NA,NA,NA,NA,survey-likert-extra-labels,47,208146,0.0-20.0-2.0,anomymised,6565831db6b8903cc398def3,6567678d962a2215c3b763b9,63392,2C,woman,NA,NA,W1 is chasing W3,chase,rating_volition,"{""Q0"":1}",[0],W1 is behind W3,W3 is behind W1
2885.3999999910593,NA,NA,NA,NA,survey-likert-extra-labels,48,211033,0.0-20.0-3.0-0.0,anomymised,6565831db6b8903cc398def3,6567678d962a2215c3b763b9,63392,2C,woman,NA,NA,W1 is chasing W3,chase,rating_causation,"{""Q0"":6}",[0],W1 is running away from W3,W3 is running away from W1
null,Ruth is being opposed by Dave,NA,NA,NA,html-keyboard-response,49,213040,0.0-21.0-0.0,anomymised,6565831db6b8903cc398def3,6567678d962a2215c3b763b9,63392,2C,woman,NA,null,W4 is being opposed by M2,oppose4,sentence,NA,NA,NA,NA
2881.2000000029802,NA,NA,NA,NA,survey-likert-extra-labels,50,215922,0.0-21.0-2.0,anomymised,6565831db6b8903cc398def3,6567678d962a2215c3b763b9,63392,2C,woman,NA,NA,W4 is being opposed by M2,oppose4,rating_volition,"{""Q0"":1}",[0],M2 wanted to oppose W4,W4 wanted to oppose M2
2768.9000000059605,NA,NA,NA,NA,survey-likert-extra-labels,51,218692,0.0-21.0-3.0-0.0,anomymised,6565831db6b8903cc398def3,6567678d962a2215c3b763b9,63392,2C,woman,NA,NA,W4 is being opposed by M2,oppose4,rating_causation,"{""Q0"":1}",[0],M2 started opposing W4,W4 started opposing M2
null,Mike is being shouted at by Kate,NA,NA,NA,html-keyboard-response,52,220697,0.0-22.0-0.0,anomymised,6565831db6b8903cc398def3,6567678d962a2215c3b763b9,63392,2C,woman,NA,null,M4 is being shouted at by W2,shout4,sentence,NA,NA,NA,NA
4434.0999999940395,NA,NA,NA,NA,survey-likert-extra-labels,53,225132,0.0-22.0-2.0,anomymised,6565831db6b8903cc398def3,6567678d962a2215c3b763b9,63392,2C,woman,NA,NA,M4 is being shouted at by W2,shout4,rating_volition,"{""Q0"":0}",[0],W2 wanted to shout at M4,M4 wanted to shout at W2
2984.8999999910593,NA,NA,NA,NA,survey-likert-extra-labels,54,228118,0.0-22.0-3.0-0.0,anomymised,6565831db6b8903cc398def3,6567678d962a2215c3b763b9,63392,2C,woman,NA,NA,M4 is being shouted at by W2,shout4,rating_causation,"{""Q0"":1}",[0],W2 shouted at M4 first,M4 shouted at W2 first
null,Fred is being seduced by Jane,NA,NA,NA,html-keyboard-response,55,230124,0.0-23.0-0.0,anomymised,6565831db6b8903cc398def3,6567678d962a2215c3b763b9,63392,2C,woman,NA,null,M1 is being seduced by W3,seduce3,sentence,NA,NA,NA,NA
2364.800000011921,NA,NA,NA,NA,survey-likert-extra-labels,56,232490,0.0-23.0-2.0,anomymised,6565831db6b8903cc398def3,6567678d962a2215c3b763b9,63392,2C,woman,NA,NA,M1 is being seduced by W3,seduce3,rating_volition,"{""Q0"":0}",[0],W3 wanted to seduce M1,M1 wanted to seduce W3
3920.4000000059605,NA,NA,NA,NA,survey-likert-extra-labels,57,236411,0.0-23.0-3.0-0.0,anomymised,6565831db6b8903cc398def3,6567678d962a2215c3b763b9,63392,2C,woman,NA,NA,M1 is being seduced by W3,seduce3,rating_causation,"{""Q0"":1}",[0],W3 started seducing M1 first,M1 started seducing W3 first
null,Kate is carrying Ruth,NA,NA,NA,html-keyboard-response,58,238414,0.0-24.0-0.0,anomymised,6565831db6b8903cc398def3,6567678d962a2215c3b763b9,63392,2C,woman,NA,null,W2 is carrying W4,carry,sentence,NA,NA,NA,NA
4135.70000000298,NA,NA,NA,NA,survey-likert-extra-labels,59,242550,0.0-24.0-2.0,anomymised,6565831db6b8903cc398def3,6567678d962a2215c3b763b9,63392,2C,woman,NA,NA,W2 is carrying W4,carry,rating_volition,"{""Q0"":1}",[0],W2 is transporting W4,W4 is transporting W2
4437.79999999702,NA,NA,NA,NA,survey-likert-extra-labels,60,246989,0.0-24.0-3.0-0.0,anomymised,6565831db6b8903cc398def3,6567678d962a2215c3b763b9,63392,2C,woman,NA,NA,W2 is carrying W4,carry,rating_causation,"{""Q0"":6}",[0],W2 is being moved by W4,W4 is being moved by W2
null,Luke is being copied by Beth,NA,NA,NA,html-keyboard-response,61,248991,0.0-25.0-0.0,anomymised,6565831db6b8903cc398def3,6567678d962a2215c3b763b9,63392,2C,woman,NA,null,M3 is being copied by W1,copy4,sentence,NA,NA,NA,NA
4888,NA,NA,NA,NA,survey-likert-extra-labels,62,253880,0.0-25.0-1.0-0.0,anomymised,6565831db6b8903cc398def3,6567678d962a2215c3b763b9,63392,2C,woman,NA,NA,M3 is being copied by W1,copy4,rating_causation,"{""Q0"":5}",[0],M3 started copying W1 first,W1 started copying M3 first
3302.6000000089407,NA,NA,NA,NA,survey-likert-extra-labels,63,257183,0.0-25.0-2.0,anomymised,6565831db6b8903cc398def3,6567678d962a2215c3b763b9,63392,2C,woman,NA,NA,M3 is being copied by W1,copy4,rating_volition,"{""Q0"":5}",[0],M3 wanted to copy W1,W1 wanted to copy M3
null,Ruth is being shouted at by Dave,NA,NA,NA,html-keyboard-response,64,259185,0.0-26.0-0.0,anomymised,6565831db6b8903cc398def3,6567678d962a2215c3b763b9,63392,2C,woman,NA,null,W4 is being shouted at by M2,shout3,sentence,NA,NA,NA,NA
2386.0999999940395,NA,NA,NA,NA,survey-likert-extra-labels,65,261572,0.0-26.0-2.0,anomymised,6565831db6b8903cc398def3,6567678d962a2215c3b763b9,63392,2C,woman,NA,NA,W4 is being shouted at by M2,shout3,rating_volition,"{""Q0"":0}",[0],M2 wanted to shout at W4,W4 wanted to shout at M2
4487.600000008941,NA,NA,NA,NA,survey-likert-extra-labels,66,266060,0.0-26.0-3.0-0.0,anomymised,6565831db6b8903cc398def3,6567678d962a2215c3b763b9,63392,2C,woman,NA,NA,W4 is being shouted at by M2,shout3,rating_causation,"{""Q0"":5}",[0],M2 shouted at W4 first,W4 shouted at M2 first
null,Luke is being shouted at by Fred,NA,NA,NA,html-keyboard-response,67,268064,0.0-27.0-0.0,anomymised,6565831db6b8903cc398def3,6567678d962a2215c3b763b9,63392,2C,woman,NA,null,M3 is being shouted at by M1,shout2,sentence,NA,NA,NA,NA
2751.5,NA,NA,NA,NA,survey-likert-extra-labels,68,270816,0.0-27.0-1.0-0.0,anomymised,6565831db6b8903cc398def3,6567678d962a2215c3b763b9,63392,2C,woman,NA,NA,M3 is being shouted at by M1,shout2,rating_causation,"{""Q0"":1}",[0],M1 shouted at M3 first,M3 shouted at M1 first
4003,NA,NA,NA,NA,survey-likert-extra-labels,69,274820,0.0-27.0-2.0,anomymised,6565831db6b8903cc398def3,6567678d962a2215c3b763b9,63392,2C,woman,NA,NA,M3 is being shouted at by M1,shout2,rating_volition,"{""Q0"":0}",[0],M1 wanted to shout at M3,M3 wanted to shout at M1
null,Beth is being looked at by Jane,NA,NA,NA,html-keyboard-response,70,276825,0.0-28.0-0.0,anomymised,6565831db6b8903cc398def3,6567678d962a2215c3b763b9,63392,2C,woman,NA,null,W1 is being looked at by W3,look1,sentence,NA,NA,NA,NA
3049.3999999910593,NA,NA,NA,NA,survey-likert-extra-labels,71,279875,0.0-28.0-1.0-0.0,anomymised,6565831db6b8903cc398def3,6567678d962a2215c3b763b9,63392,2C,woman,NA,NA,W1 is being looked at by W3,look1,rating_causation,"{""Q0"":5}",[0],W1 looked at W3 first,W3 looked at W1 first
6722.70000000298,NA,NA,NA,NA,survey-likert-extra-labels,72,286599,0.0-28.0-2.0,anomymised,6565831db6b8903cc398def3,6567678d962a2215c3b763b9,63392,2C,woman,NA,NA,W1 is being looked at by W3,look1,rating_volition,"{""Q0"":5}",[0],W1 wanted to look at W3,W3 wanted to look at W1
null,Fred is being kissed by Luke,NA,NA,NA,html-keyboard-response,73,288601,0.0-29.0-0.0,anomymised,6565831db6b8903cc398def3,6567678d962a2215c3b763b9,63392,2C,woman,NA,null,M1 is being kissed by M3,kiss2,sentence,NA,NA,NA,NA
3270.699999988079,NA,NA,NA,NA,survey-likert-extra-labels,74,291872,0.0-29.0-1.0-0.0,anomymised,6565831db6b8903cc398def3,6567678d962a2215c3b763b9,63392,2C,woman,NA,NA,M1 is being kissed by M3,kiss2,rating_causation,"{""Q0"":5}",[0],M1 asked to kiss M3,M3 asked to kiss M1
3451.8999999910593,NA,NA,NA,NA,survey-likert-extra-labels,75,295325,0.0-29.0-2.0,anomymised,6565831db6b8903cc398def3,6567678d962a2215c3b763b9,63392,2C,woman,NA,NA,M1 is being kissed by M3,kiss2,rating_volition,"{""Q0"":5}",[0],M1 wanted to kiss M3,M3 wanted to kiss M1
null,Dave is posing for Mike,NA,NA,NA,html-keyboard-response,76,297328,0.0-30.0-0.0,anomymised,6565831db6b8903cc398def3,6567678d962a2215c3b763b9,63392,2C,woman,NA,null,M2 is posing for M4,pose,sentence,NA,NA,NA,NA
2868.3999999910593,NA,NA,NA,NA,survey-likert-extra-labels,77,300198,0.0-30.0-2.0,anomymised,6565831db6b8903cc398def3,6567678d962a2215c3b763b9,63392,2C,woman,NA,NA,M2 is posing for M4,pose,rating_volition,"{""Q0"":1}",[0],M2 is modelling for M4,M4 is modelling for M2
3903.4000000059605,NA,NA,NA,NA,survey-likert-extra-labels,78,304102,0.0-30.0-3.0-0.0,anomymised,6565831db6b8903cc398def3,6567678d962a2215c3b763b9,63392,2C,woman,NA,NA,M2 is posing for M4,pose,rating_causation,"{""Q0"":5}",[0],M2 is photographing M4,M4 is photographing M2
null,Luke is hiring Beth,NA,NA,NA,html-keyboard-response,79,306105,0.0-31.0-0.0,anomymised,6565831db6b8903cc398def3,6567678d962a2215c3b763b9,63392,2C,woman,NA,null,M3 is hiring W1,hire,sentence,NA,NA,NA,NA
2083.2000000029802,NA,NA,NA,NA,survey-likert-extra-labels,80,308189,0.0-31.0-2.0,anomymised,6565831db6b8903cc398def3,6567678d962a2215c3b763b9,63392,2C,woman,NA,NA,M3 is hiring W1,hire,rating_volition,"{""Q0"":0}",[0],M3 is employing W1,W1 is employing M3
2435.5,NA,NA,NA,NA,survey-likert-extra-labels,81,310626,0.0-31.0-3.0-0.0,anomymised,6565831db6b8903cc398def3,6567678d962a2215c3b763b9,63392,2C,woman,NA,NA,M3 is hiring W1,hire,rating_causation,"{""Q0"":5}",[0],M3 will work for W1,W1 will work for M3
null,Beth is being kissed by Jane,NA,NA,NA,html-keyboard-response,82,312630,0.0-32.0-0.0,anomymised,6565831db6b8903cc398def3,6567678d962a2215c3b763b9,63392,2C,woman,NA,null,W1 is being kissed by W3,kiss1,sentence,NA,NA,NA,NA
3250.5,NA,NA,NA,NA,survey-likert-extra-labels,83,315882,0.0-32.0-2.0,anomymised,6565831db6b8903cc398def3,6567678d962a2215c3b763b9,63392,2C,woman,NA,NA,W1 is being kissed by W3,kiss1,rating_volition,"{""Q0"":5}",[0],W1 wanted to kiss W3,W3 wanted to kiss W1
3603.1000000089407,NA,NA,NA,NA,survey-likert-extra-labels,84,319486,0.0-32.0-3.0-0.0,anomymised,6565831db6b8903cc398def3,6567678d962a2215c3b763b9,63392,2C,woman,NA,NA,W1 is being kissed by W3,kiss1,rating_causation,"{""Q0"":5}",[0],W1 asked to kiss W3,W3 asked to kiss W1
null,Kate is teaching Mike,NA,NA,NA,html-keyboard-response,85,321489,0.0-33.0-0.0,anomymised,6565831db6b8903cc398def3,6567678d962a2215c3b763b9,63392,2C,woman,NA,null,W2 is teaching M4,teach,sentence,NA,NA,NA,NA
5888.0999999940395,NA,NA,NA,NA,survey-likert-extra-labels,86,327378,0.0-33.0-1.0-0.0,anomymised,6565831db6b8903cc398def3,6567678d962a2215c3b763b9,63392,2C,woman,NA,NA,W2 is teaching M4,teach,rating_causation,"{""Q0"":5}",[0],W2 is learning from M4,M4 is learning from W2
5621.9000000059605,NA,NA,NA,NA,survey-likert-extra-labels,87,333000,0.0-33.0-2.0,anomymised,6565831db6b8903cc398def3,6567678d962a2215c3b763b9,63392,2C,woman,NA,NA,W2 is teaching M4,teach,rating_volition,"{""Q0"":0}",[0],W2 is educating M4,M4 is educating W2
null,Jane is being shouted at by Beth,NA,NA,NA,html-keyboard-response,88,335003,0.0-34.0-0.0,anomymised,6565831db6b8903cc398def3,6567678d962a2215c3b763b9,63392,2C,woman,NA,null,W3 is being shouted at by W1,shout1,sentence,NA,NA,NA,NA
4403.70000000298,NA,NA,NA,NA,survey-likert-extra-labels,89,339407,0.0-34.0-2.0,anomymised,6565831db6b8903cc398def3,6567678d962a2215c3b763b9,63392,2C,woman,NA,NA,W3 is being shouted at by W1,shout1,rating_volition,"{""Q0"":1}",[0],W1 wanted to shout at W3,W3 wanted to shout at W1
5655.600000008941,NA,NA,NA,NA,survey-likert-extra-labels,90,345064,0.0-34.0-3.0-0.0,anomymised,6565831db6b8903cc398def3,6567678d962a2215c3b763b9,63392,2C,woman,NA,NA,W3 is being shouted at by W1,shout1,rating_causation,"{""Q0"":0}",[0],W1 shouted at W3 first,W3 shouted at W1 first
null,Beth is being seduced by Luke,NA,NA,NA,html-keyboard-response,91,347065,0.0-35.0-0.0,anomymised,6565831db6b8903cc398def3,6567678d962a2215c3b763b9,63392,2C,woman,NA,null,W1 is being seduced by M3,seduce4,sentence,NA,NA,NA,NA
3169.5999999940395,NA,NA,NA,NA,survey-likert-extra-labels,92,350235,0.0-35.0-2.0,anomymised,6565831db6b8903cc398def3,6567678d962a2215c3b763b9,63392,2C,woman,NA,NA,W1 is being seduced by M3,seduce4,rating_volition,"{""Q0"":1}",[0],M3 wanted to seducing W1,W1 wanted to seducing M3
3203.5,NA,NA,NA,NA,survey-likert-extra-labels,93,353440,0.0-35.0-3.0-0.0,anomymised,6565831db6b8903cc398def3,6567678d962a2215c3b763b9,63392,2C,woman,NA,NA,W1 is being seduced by M3,seduce4,rating_causation,"{""Q0"":1}",[0],M3 started seducing W1 first,W1 started seducing M3 first
null,Fred is being challenged by Jane,NA,NA,NA,html-keyboard-response,94,355441,0.0-36.0-0.0,anomymised,6565831db6b8903cc398def3,6567678d962a2215c3b763b9,63392,2C,woman,NA,null,M1 is being challenged by W3,challenge4,sentence,NA,NA,NA,NA
3170.0999999940395,NA,NA,NA,NA,survey-likert-extra-labels,95,358612,0.0-36.0-2.0,anomymised,6565831db6b8903cc398def3,6567678d962a2215c3b763b9,63392,2C,woman,NA,NA,M1 is being challenged by W3,challenge4,rating_volition,"{""Q0"":1}",[0],W3 wanted to challenge M1,M1 wanted to challenge W3
2835.2000000029802,NA,NA,NA,NA,survey-likert-extra-labels,96,361448,0.0-36.0-3.0-0.0,anomymised,6565831db6b8903cc398def3,6567678d962a2215c3b763b9,63392,2C,woman,NA,NA,M1 is being challenged by W3,challenge4,rating_causation,"{""Q0"":1}",[0],W3 started challenging M1 first,M1 started challenging W3 first
null,Mike is being opposed by Kate,NA,NA,NA,html-keyboard-response,97,363450,0.0-37.0-0.0,anomymised,6565831db6b8903cc398def3,6567678d962a2215c3b763b9,63392,2C,woman,NA,null,M4 is being opposed by W2,oppose3,sentence,NA,NA,NA,NA
3036.2000000029802,NA,NA,NA,NA,survey-likert-extra-labels,98,366487,0.0-37.0-2.0,anomymised,6565831db6b8903cc398def3,6567678d962a2215c3b763b9,63392,2C,woman,NA,NA,M4 is being opposed by W2,oppose3,rating_volition,"{""Q0"":1}",[0],W2 wanted to oppose M4,M4 wanted to oppose W2
7490.4000000059605,NA,NA,NA,NA,survey-likert-extra-labels,99,373978,0.0-37.0-3.0-0.0,anomymised,6565831db6b8903cc398def3,6567678d962a2215c3b763b9,63392,2C,woman,NA,NA,M4 is being opposed by W2,oppose3,rating_causation,"{""Q0"":1}",[0],W2 started opposing M4,M4 started opposing W2
null,Dave is being greeted by Mike,NA,NA,NA,html-keyboard-response,100,375981,0.0-38.0-0.0,anomymised,6565831db6b8903cc398def3,6567678d962a2215c3b763b9,63392,2C,woman,NA,null,M2 is being greeted by M4,greet2,sentence,NA,NA,NA,NA
4971.5,NA,NA,NA,NA,survey-likert-extra-labels,101,380953,0.0-38.0-1.0-0.0,anomymised,6565831db6b8903cc398def3,6567678d962a2215c3b763b9,63392,2C,woman,NA,NA,M2 is being greeted by M4,greet2,rating_causation,"{""Q0"":5}",[0],M2 started greeting M4 first,M4 started greeting M2 first
4454.5,NA,NA,NA,NA,survey-likert-extra-labels,102,385408,0.0-38.0-2.0,anomymised,6565831db6b8903cc398def3,6567678d962a2215c3b763b9,63392,2C,woman,NA,NA,M2 is being greeted by M4,greet2,rating_volition,"{""Q0"":5}",[0],M2 wanted to greet M4,M4 wanted to greet M2
null,Dave is being copied by Mike,NA,NA,NA,html-keyboard-response,103,387410,0.0-39.0-0.0,anomymised,6565831db6b8903cc398def3,6567678d962a2215c3b763b9,63392,2C,woman,NA,null,M2 is being copied by M4,copy2,sentence,NA,NA,NA,NA
5872.899999991059,NA,NA,NA,NA,survey-likert-extra-labels,104,393283,0.0-39.0-1.0-0.0,anomymised,6565831db6b8903cc398def3,6567678d962a2215c3b763b9,63392,2C,woman,NA,NA,M2 is being copied by M4,copy2,rating_causation,"{""Q0"":5}",[0],M2 started copying M4 first,M4 started copying M2 first
4721.0999999940395,NA,NA,NA,NA,survey-likert-extra-labels,105,398005,0.0-39.0-2.0,anomymised,6565831db6b8903cc398def3,6567678d962a2215c3b763b9,63392,2C,woman,NA,NA,M2 is being copied by M4,copy2,rating_volition,"{""Q0"":6}",[0],M2 wanted to copy M4,M4 wanted to copy M2
null,Ruth is being touched by Kate,NA,NA,NA,html-keyboard-response,106,400010,0.0-40.0-0.0,anomymised,6565831db6b8903cc398def3,6567678d962a2215c3b763b9,63392,2C,woman,NA,null,W4 is being touched by W2,touch1,sentence,NA,NA,NA,NA
2299.300000011921,NA,NA,NA,NA,survey-likert-extra-labels,107,402310,0.0-40.0-1.0-0.0,anomymised,6565831db6b8903cc398def3,6567678d962a2215c3b763b9,63392,2C,woman,NA,NA,W4 is being touched by W2,touch1,rating_causation,"{""Q0"":1}",[0],W2 asked to touch W4,W4 asked to touch W2
4170.600000008941,NA,NA,NA,NA,survey-likert-extra-labels,108,406482,0.0-40.0-2.0,anomymised,6565831db6b8903cc398def3,6567678d962a2215c3b763b9,63392,2C,woman,NA,NA,W4 is being touched by W2,touch1,rating_volition,"{""Q0"":1}",[0],W2 wanted to touch W4,W4 wanted to touch W2
null,Dave is being looked at by Ruth,NA,NA,NA,html-keyboard-response,109,408484,0.0-41.0-0.0,anomymised,6565831db6b8903cc398def3,6567678d962a2215c3b763b9,63392,2C,woman,NA,null,M2 is being looked at by W4,look4,sentence,NA,NA,NA,NA
5754.9000000059605,NA,NA,NA,NA,survey-likert-extra-labels,110,414240,0.0-41.0-2.0,anomymised,6565831db6b8903cc398def3,6567678d962a2215c3b763b9,63392,2C,woman,NA,NA,M2 is being looked at by W4,look4,rating_volition,"{""Q0"":5}",[0],M2 wanted to look at W4,W4 wanted to look at M2
3419.4000000059605,NA,NA,NA,NA,survey-likert-extra-labels,111,417660,0.0-41.0-3.0-0.0,anomymised,6565831db6b8903cc398def3,6567678d962a2215c3b763b9,63392,2C,woman,NA,NA,M2 is being looked at by W4,look4,rating_causation,"{""Q0"":4}",[0],M2 looked at W4 first,W4 looked at M2 first
null,Jane is being hugged by Beth,NA,NA,NA,html-keyboard-response,112,419661,0.0-42.0-0.0,anomymised,6565831db6b8903cc398def3,6567678d962a2215c3b763b9,63392,2C,woman,NA,null,W3 is being hugged by W1,hug1,sentence,NA,NA,NA,NA
5573,NA,NA,NA,NA,survey-likert-extra-labels,113,425235,0.0-42.0-2.0,anomymised,6565831db6b8903cc398def3,6567678d962a2215c3b763b9,63392,2C,woman,NA,NA,W3 is being hugged by W1,hug1,rating_volition,"{""Q0"":1}",[0],W1 wanted to hug W3,W3 wanted to hug W1
4687.5,NA,NA,NA,NA,survey-likert-extra-labels,114,429924,0.0-42.0-3.0-0.0,anomymised,6565831db6b8903cc398def3,6567678d962a2215c3b763b9,63392,2C,woman,NA,NA,W3 is being hugged by W1,hug1,rating_causation,"{""Q0"":3}",[0],W1 asked to hug W3,W3 asked to hug W1
null,Beth is being touched by Luke,NA,NA,NA,html-keyboard-response,115,431925,0.0-43.0-0.0,anomymised,6565831db6b8903cc398def3,6567678d962a2215c3b763b9,63392,2C,woman,NA,null,W1 is being touched by M3,touch4,sentence,NA,NA,NA,NA
2335.9000000059605,NA,NA,NA,NA,survey-likert-extra-labels,116,434261,0.0-43.0-2.0,anomymised,6565831db6b8903cc398def3,6567678d962a2215c3b763b9,63392,2C,woman,NA,NA,W1 is being touched by M3,touch4,rating_volition,"{""Q0"":1}",[0],M3 wanted to touch W1,W1 wanted to touch M3
3002.5,NA,NA,NA,NA,survey-likert-extra-labels,117,437265,0.0-43.0-3.0-0.0,anomymised,6565831db6b8903cc398def3,6567678d962a2215c3b763b9,63392,2C,woman,NA,NA,W1 is being touched by M3,touch4,rating_causation,"{""Q0"":5}",[0],M3 asked to touch W1,W1 asked to touch M3
null,Mike is being challenged by Dave,NA,NA,NA,html-keyboard-response,118,439268,0.0-44.0-0.0,anomymised,6565831db6b8903cc398def3,6567678d962a2215c3b763b9,63392,2C,woman,NA,null,M4 is being challenged by M2,challenge2,sentence,NA,NA,NA,NA
2350,NA,NA,NA,NA,survey-likert-extra-labels,119,441620,0.0-44.0-2.0,anomymised,6565831db6b8903cc398def3,6567678d962a2215c3b763b9,63392,2C,woman,NA,NA,M4 is being challenged by M2,challenge2,rating_volition,"{""Q0"":5}",[0],M2 wanted to challenge M4,M4 wanted to challenge M2
2735.2000000029802,NA,NA,NA,NA,survey-likert-extra-labels,120,444356,0.0-44.0-3.0-0.0,anomymised,6565831db6b8903cc398def3,6567678d962a2215c3b763b9,63392,2C,woman,NA,NA,M4 is being challenged by M2,challenge2,rating_causation,"{""Q0"":1}",[0],M2 started challenging M4 first,M4 started challenging M2 first
null,Mike is being hugged by Kate,NA,NA,NA,html-keyboard-response,121,446357,0.0-45.0-0.0,anomymised,6565831db6b8903cc398def3,6567678d962a2215c3b763b9,63392,2C,woman,NA,null,M4 is being hugged by W2,hug3,sentence,NA,NA,NA,NA
1869,NA,NA,NA,NA,survey-likert-extra-labels,122,448227,0.0-45.0-2.0,anomymised,6565831db6b8903cc398def3,6567678d962a2215c3b763b9,63392,2C,woman,NA,NA,M4 is being hugged by W2,hug3,rating_volition,"{""Q0"":1}",[0],W2 wanted to hug M4,M4 wanted to hug W2
1534.199999988079,NA,NA,NA,NA,survey-likert-extra-labels,123,449762,0.0-45.0-3.0-0.0,anomymised,6565831db6b8903cc398def3,6567678d962a2215c3b763b9,63392,2C,woman,NA,NA,M4 is being hugged by W2,hug3,rating_causation,"{""Q0"":3}",[0],W2 asked to hug M4,M4 asked to hug W2
null,Beth is being challenged by Luke,NA,NA,NA,html-keyboard-response,124,451764,0.0-46.0-0.0,anomymised,6565831db6b8903cc398def3,6567678d962a2215c3b763b9,63392,2C,woman,NA,null,W1 is being challenged by M3,challenge3,sentence,NA,NA,NA,NA
3420.5,NA,NA,NA,NA,survey-likert-extra-labels,125,455185,0.0-46.0-1.0-0.0,anomymised,6565831db6b8903cc398def3,6567678d962a2215c3b763b9,63392,2C,woman,NA,NA,W1 is being challenged by M3,challenge3,rating_causation,"{""Q0"":4}",[0],M3 started challenging W1 first,W1 started challenging M3 first
1767.2000000029802,NA,NA,NA,NA,survey-likert-extra-labels,126,456953,0.0-46.0-2.0,anomymised,6565831db6b8903cc398def3,6567678d962a2215c3b763b9,63392,2C,woman,NA,NA,W1 is being challenged by M3,challenge3,rating_volition,"{""Q0"":2}",[0],M3 wanted to challenge W1,W1 wanted to challenge M3
null,Mike is being seduced by Dave,NA,NA,NA,html-keyboard-response,127,458956,0.0-47.0-0.0,anomymised,6565831db6b8903cc398def3,6567678d962a2215c3b763b9,63392,2C,woman,NA,null,M4 is being seduced by M2,seduce2,sentence,NA,NA,NA,NA
3436,NA,NA,NA,NA,survey-likert-extra-labels,128,462393,0.0-47.0-2.0,anomymised,6565831db6b8903cc398def3,6567678d962a2215c3b763b9,63392,2C,woman,NA,NA,M4 is being seduced by M2,seduce2,rating_volition,"{""Q0"":1}",[0],M2 wanted to seduce M4,M4 wanted to seduce M2
3119.4000000059605,NA,NA,NA,NA,survey-likert-extra-labels,129,465513,0.0-47.0-3.0-0.0,anomymised,6565831db6b8903cc398def3,6567678d962a2215c3b763b9,63392,2C,woman,NA,NA,M4 is being seduced by M2,seduce2,rating_causation,"{""Q0"":3}",[0],M2 started seducing M4 first,M4 started seducing M2 first
null,Kate is being looked at by Mike,NA,NA,NA,html-keyboard-response,130,467518,0.0-48.0-0.0,anomymised,6565831db6b8903cc398def3,6567678d962a2215c3b763b9,63392,2C,woman,NA,null,W2 is being looked at by M4,look3,sentence,NA,NA,NA,NA
4601.300000011921,NA,NA,NA,NA,survey-likert-extra-labels,131,472120,0.0-48.0-1.0-0.0,anomymised,6565831db6b8903cc398def3,6567678d962a2215c3b763b9,63392,2C,woman,NA,NA,W2 is being looked at by M4,look3,rating_causation,"{""Q0"":4}",[0],W2 looked at M4 first,M4 looked at W2 first
2167.199999988079,NA,NA,NA,NA,survey-likert-extra-labels,132,474289,0.0-48.0-2.0,anomymised,6565831db6b8903cc398def3,6567678d962a2215c3b763b9,63392,2C,woman,NA,NA,W2 is being looked at by M4,look3,rating_volition,"{""Q0"":2}",[0],W2 wanted to look at M4,M4 wanted to look at W2
null,Jane is being copied by Fred,NA,NA,NA,html-keyboard-response,133,476294,0.0-49.0-0.0,anomymised,6565831db6b8903cc398def3,6567678d962a2215c3b763b9,63392,2C,woman,NA,null,W3 is being copied by M1,copy3,sentence,NA,NA,NA,NA
2699.1000000089407,NA,NA,NA,NA,survey-likert-extra-labels,134,478994,0.0-49.0-1.0-0.0,anomymised,6565831db6b8903cc398def3,6567678d962a2215c3b763b9,63392,2C,woman,NA,NA,W3 is being copied by M1,copy3,rating_causation,"{""Q0"":5}",[0],W3 started copying M1 first,M1 started copying W3 first
1751.3999999910593,NA,NA,NA,NA,survey-likert-extra-labels,135,480747,0.0-49.0-2.0,anomymised,6565831db6b8903cc398def3,6567678d962a2215c3b763b9,63392,2C,woman,NA,NA,W3 is being copied by M1,copy3,rating_volition,"{""Q0"":3}",[0],W3 wanted to copy M1,M1 wanted to copy W3
null,Mike is being touched by Dave,NA,NA,NA,html-keyboard-response,136,482749,0.0-50.0-0.0,anomymised,6565831db6b8903cc398def3,6567678d962a2215c3b763b9,63392,2C,woman,NA,null,M4 is being touched by M2,touch2,sentence,NA,NA,NA,NA
2584.2000000029802,NA,NA,NA,NA,survey-likert-extra-labels,137,485334,0.0-50.0-1.0-0.0,anomymised,6565831db6b8903cc398def3,6567678d962a2215c3b763b9,63392,2C,woman,NA,NA,M4 is being touched by M2,touch2,rating_causation,"{""Q0"":3}",[0],M2 asked to touch M4,M4 asked to touch M2
5388.70000000298,NA,NA,NA,NA,survey-likert-extra-labels,138,490724,0.0-50.0-2.0,anomymised,6565831db6b8903cc398def3,6567678d962a2215c3b763b9,63392,2C,woman,NA,NA,M4 is being touched by M2,touch2,rating_volition,"{""Q0"":1}",[0],M2 wanted to touch M4,M4 wanted to touch M2
null,Fred is being looked at by Luke,NA,NA,NA,html-keyboard-response,139,492729,0.0-51.0-0.0,anomymised,6565831db6b8903cc398def3,6567678d962a2215c3b763b9,63392,2C,woman,NA,null,M1 is being looked at by M3,look2,sentence,NA,NA,NA,NA
7570.899999991059,NA,NA,NA,NA,survey-likert-extra-labels,140,500301,0.0-51.0-2.0,anomymised,6565831db6b8903cc398def3,6567678d962a2215c3b763b9,63392,2C,woman,NA,NA,M1 is being looked at by M3,look2,rating_volition,"{""Q0"":5}",[0],M1 wanted to look at M3,M3 wanted to look at M1
2401.7999999970198,NA,NA,NA,NA,survey-likert-extra-labels,141,502704,0.0-51.0-3.0-0.0,anomymised,6565831db6b8903cc398def3,6567678d962a2215c3b763b9,63392,2C,woman,NA,NA,M1 is being looked at by M3,look2,rating_causation,"{""Q0"":3}",[0],M1 looked at M3 first,M3 looked at M1 first
null,Ruth is being hugged by Dave,NA,NA,NA,html-keyboard-response,142,504705,0.0-52.0-0.0,anomymised,6565831db6b8903cc398def3,6567678d962a2215c3b763b9,63392,2C,woman,NA,null,W4 is being hugged by M2,hug4,sentence,NA,NA,NA,NA
1902.5999999940395,NA,NA,NA,NA,survey-likert-extra-labels,143,506608,0.0-52.0-2.0,anomymised,6565831db6b8903cc398def3,6567678d962a2215c3b763b9,63392,2C,woman,NA,NA,W4 is being hugged by M2,hug4,rating_volition,"{""Q0"":1}",[0],M2 wanted to hug W4,W4 wanted to hug M2
6973.399999991059,NA,NA,NA,NA,survey-likert-extra-labels,144,513582,0.0-52.0-3.0-0.0,anomymised,6565831db6b8903cc398def3,6567678d962a2215c3b763b9,63392,2C,woman,NA,NA,W4 is being hugged by M2,hug4,rating_causation,"{""Q0"":2}",[0],M2 asked to hug W4,W4 asked to hug M2
null,Luke is being opposed by Fred,NA,NA,NA,html-keyboard-response,145,515589,0.0-53.0-0.0,anomymised,6565831db6b8903cc398def3,6567678d962a2215c3b763b9,63392,2C,woman,NA,null,M3 is being opposed by M1,oppose2,sentence,NA,NA,NA,NA
5017.100000008941,NA,NA,NA,NA,survey-likert-extra-labels,146,520607,0.0-53.0-1.0-0.0,anomymised,6565831db6b8903cc398def3,6567678d962a2215c3b763b9,63392,2C,woman,NA,NA,M3 is being opposed by M1,oppose2,rating_causation,"{""Q0"":1}",[0],M1 started opposing M3,M3 started opposing M1
4087.4000000059605,NA,NA,NA,NA,survey-likert-extra-labels,147,524695,0.0-53.0-2.0,anomymised,6565831db6b8903cc398def3,6567678d962a2215c3b763b9,63392,2C,woman,NA,NA,M3 is being opposed by M1,oppose2,rating_volition,"{""Q0"":5}",[0],M1 wanted to oppose M3,M3 wanted to oppose M1
null,Luke is being greeted by Beth,NA,NA,NA,html-keyboard-response,148,526697,0.0-54.0-0.0,anomymised,6565831db6b8903cc398def3,6567678d962a2215c3b763b9,63392,2C,woman,NA,null,M3 is being greeted by W1,greet3,sentence,NA,NA,NA,NA
3135.6000000089407,NA,NA,NA,NA,survey-likert-extra-labels,149,529833,0.0-54.0-1.0-0.0,anomymised,6565831db6b8903cc398def3,6567678d962a2215c3b763b9,63392,2C,woman,NA,NA,M3 is being greeted by W1,greet3,rating_causation,"{""Q0"":4}",[0],M3 started greeting W1 first,W1 started greeting M3 first
6190,NA,NA,NA,NA,survey-likert-extra-labels,150,536024,0.0-54.0-2.0,anomymised,6565831db6b8903cc398def3,6567678d962a2215c3b763b9,63392,2C,woman,NA,NA,M3 is being greeted by W1,greet3,rating_volition,"{""Q0"":5}",[0],M3 wanted to greet W1,W1 wanted to greet M3
2267.9000000059605,<p>Thank you for completing that task.</p><p>The final part of this session is a short questionnaire.</p><p>Press Continue.</p>,0,Continue,Continue,html-button-response,151,538293,0.0-55.0,anomymised,6565831db6b8903cc398def3,6567678d962a2215c3b763b9,63392,2C,woman,NA,NA,NA,NA,NA,NA,NA,NA,NA
26007.40000000596,NA,NA,NA,NA,survey-text,152,565306,0.0-56.0,anomymised,6565831db6b8903cc398def3,6567678d962a2215c3b763b9,63392,2C,woman,NA,NA,NA,NA,demographics,"{""Q0"":""32"",""Q1"":""English"",""Q2"":""English"",""Q3"":""England"",""Q4"":""British"",""Q5"":""White"",""Q6"":""Female""}",NA,NA,NA
2935.1000000089407,<p>This is the last question - thank you for taking part! Have you lived in the UK for the last 5 years or more?</p>,0,"Yes,No",Yes,html-button-response,153,568242,0.0-57.0,anomymised,6565831db6b8903cc398def3,6567678d962a2215c3b763b9,63392,2C,woman,NA,NA,NA,NA,fiveyears,NA,NA,NA,NA
