rt,stimulus,button_pressed,choices,ChosenStimulus,trial_type,trial_index,time_elapsed,internal_node_id,subject_id,study_id,session_id,subject,list,ppt_gender,url,key_press,sentence_type,verb,test_part,responses,question_order,left_part,right_part
2831.600000023842,Welcome to the experiment. Press Continue to begin.,0,Continue,Continue,html-button-response,0,2837,0.0-0.0,anomymised,656582028f794bf1617e53e2,656738fe64ac0dc6e609a0bc,64315,1,man,NA,NA,NA,NA,NA,NA,NA,NA,NA
21107.900000035763,NA,NA,NA,NA,external-html,1,25014,0.0-1.0,anomymised,656582028f794bf1617e53e2,656738fe64ac0dc6e609a0bc,64315,1,man,consent.html,NA,NA,NA,NA,NA,NA,NA,NA
3767.199999988079,"<p>Welcome.</p><p>In this experiment we will ask you to imagine some situations.</p><p>Each trial starts with a description of an event.</p><p>Then you will see alternative descriptions of that event, and you will rate on a scale how best they match the original description.</p><p>You will give your answer by clicking a button on a rating scale.</p><p>To do this task, you will have to use your imagination to visualise these events.</p><br><p>Ready?</p>",0,Continue,Continue,html-button-response,2,28784,0.0-2.0,anomymised,656582028f794bf1617e53e2,656738fe64ac0dc6e609a0bc,64315,1,man,NA,NA,NA,NA,NA,NA,NA,NA,NA
2351.800000011921,"<p>Before the experiment starts, you will watch an example trial. Press 'Continue'.</p>",0,Continue,Continue,html-button-response,3,32143,0.0-3.0,anomymised,656582028f794bf1617e53e2,656738fe64ac0dc6e609a0bc,64315,1,man,NA,NA,NA,NA,NA,NA,NA,NA,NA
null,The police officer is arresting the robber,NA,NA,NA,html-keyboard-response,4,35148,0.0-4.0,anomymised,656582028f794bf1617e53e2,656738fe64ac0dc6e609a0bc,64315,1,man,NA,null,NA,NA,NA,NA,NA,NA,NA
6366.899999976158,<img src='img/Example-trial.jpg' style='height:550px;''></img>,0,Continue,Continue,html-button-response,5,41518,0.0-5.0,anomymised,656582028f794bf1617e53e2,656738fe64ac0dc6e609a0bc,64315,1,man,NA,NA,NA,NA,NA,NA,NA,NA,NA
1450.699999988079,<p>Ready to start the experiment?</p><br><p><strong>Remember to give an answer by clicking a button on the rating scale.</strong></p><p>Press 'Continue' to begin.</p>,0,Continue,Continue,html-button-response,6,43972,0.0-6.0,anomymised,656582028f794bf1617e53e2,656738fe64ac0dc6e609a0bc,64315,1,man,NA,NA,NA,NA,NA,NA,NA,NA,NA
null,Dave is being challenged by Mike,NA,NA,NA,html-keyboard-response,7,46983,0.0-7.0-0.0,anomymised,656582028f794bf1617e53e2,656738fe64ac0dc6e609a0bc,64315,1,man,NA,null,M4 is being challenged by M2,challenge2,sentence,NA,NA,NA,NA
9193.199999988079,NA,NA,NA,NA,survey-likert-extra-labels,8,56189,0.0-7.0-1.0-0.0,anomymised,656582028f794bf1617e53e2,656738fe64ac0dc6e609a0bc,64315,1,man,NA,NA,M4 is being challenged by M2,challenge2,rating_causation,"{""Q0"":6}",[0],M4 started challenging M2 first,M2 started challenging M4 first
9801.899999976158,NA,NA,NA,NA,survey-likert-extra-labels,9,65994,0.0-7.0-2.0,anomymised,656582028f794bf1617e53e2,656738fe64ac0dc6e609a0bc,64315,1,man,NA,NA,M4 is being challenged by M2,challenge2,rating_volition,"{""Q0"":1}",[0],M4 wanted to challenge M2,M2 wanted to challenge M4
null,Beth is being shouted at by Mike,NA,NA,NA,html-keyboard-response,10,68003,0.0-8.0-0.0,anomymised,656582028f794bf1617e53e2,656738fe64ac0dc6e609a0bc,64315,1,man,NA,null,W4 is being shouted at by M2,shout3,sentence,NA,NA,NA,NA
10913.699999988079,NA,NA,NA,NA,survey-likert-extra-labels,11,78922,0.0-8.0-1.0-0.0,anomymised,656582028f794bf1617e53e2,656738fe64ac0dc6e609a0bc,64315,1,man,NA,NA,W4 is being shouted at by M2,shout3,rating_causation,"{""Q0"":3}",[0],W4 shouted at M2 first,M2 shouted at W4 first
2781.800000011921,NA,NA,NA,NA,survey-likert-extra-labels,12,81709,0.0-8.0-2.0,anomymised,656582028f794bf1617e53e2,656738fe64ac0dc6e609a0bc,64315,1,man,NA,NA,W4 is being shouted at by M2,shout3,rating_volition,"{""Q0"":3}",[0],W4 wanted to shout at M2,M2 wanted to shout at W4
null,Ruth is being seduced by Fred,NA,NA,NA,html-keyboard-response,13,83717,0.0-9.0-0.0,anomymised,656582028f794bf1617e53e2,656738fe64ac0dc6e609a0bc,64315,1,man,NA,null,W1 is being seduced by M3,seduce4,sentence,NA,NA,NA,NA
8628.899999976158,NA,NA,NA,NA,survey-likert-extra-labels,14,92351,0.0-9.0-2.0,anomymised,656582028f794bf1617e53e2,656738fe64ac0dc6e609a0bc,64315,1,man,NA,NA,W1 is being seduced by M3,seduce4,rating_volition,"{""Q0"":5}",[0],W1 wanted to seducing M3,M3 wanted to seducing W1
2863.199999988079,NA,NA,NA,NA,survey-likert-extra-labels,15,95218,0.0-9.0-3.0-0.0,anomymised,656582028f794bf1617e53e2,656738fe64ac0dc6e609a0bc,64315,1,man,NA,NA,W1 is being seduced by M3,seduce4,rating_causation,"{""Q0"":5}",[0],W1 started seducing M3 first,M3 started seducing W1 first
null,Fred is being hugged by Luke,NA,NA,NA,html-keyboard-response,16,97221,0.0-10.0-0.0,anomymised,656582028f794bf1617e53e2,656738fe64ac0dc6e609a0bc,64315,1,man,NA,null,M3 is being hugged by M1,hug2,sentence,NA,NA,NA,NA
4623.5,NA,NA,NA,NA,survey-likert-extra-labels,17,101849,0.0-10.0-2.0,anomymised,656582028f794bf1617e53e2,656738fe64ac0dc6e609a0bc,64315,1,man,NA,NA,M3 is being hugged by M1,hug2,rating_volition,"{""Q0"":5}",[0],M3 wanted to hug M1,M1 wanted to hug M3
1798.199999988079,NA,NA,NA,NA,survey-likert-extra-labels,18,103652,0.0-10.0-3.0-0.0,anomymised,656582028f794bf1617e53e2,656738fe64ac0dc6e609a0bc,64315,1,man,NA,NA,M3 is being hugged by M1,hug2,rating_causation,"{""Q0"":5}",[0],M3 asked to hug M1,M1 asked to hug M3
null,Ruth is chasing Kate,NA,NA,NA,html-keyboard-response,19,105656,0.0-11.0-0.0,anomymised,656582028f794bf1617e53e2,656738fe64ac0dc6e609a0bc,64315,1,man,NA,null,W1 is chasing W3,chase,sentence,NA,NA,NA,NA
6397.399999976158,NA,NA,NA,NA,survey-likert-extra-labels,20,112060,0.0-11.0-1.0-0.0,anomymised,656582028f794bf1617e53e2,656738fe64ac0dc6e609a0bc,64315,1,man,NA,NA,W1 is chasing W3,chase,rating_causation,"{""Q0"":1}",[0],W1 is running away from W3,W3 is running away from W1
4377.600000023842,NA,NA,NA,NA,survey-likert-extra-labels,21,116442,0.0-11.0-2.0,anomymised,656582028f794bf1617e53e2,656738fe64ac0dc6e609a0bc,64315,1,man,NA,NA,W1 is chasing W3,chase,rating_volition,"{""Q0"":1}",[0],W1 is behind W3,W3 is behind W1
null,Fred is hiring Ruth,NA,NA,NA,html-keyboard-response,22,118446,0.0-12.0-0.0,anomymised,656582028f794bf1617e53e2,656738fe64ac0dc6e609a0bc,64315,1,man,NA,null,M3 is hiring W1,hire,sentence,NA,NA,NA,NA
6331.200000047684,NA,NA,NA,NA,survey-likert-extra-labels,23,124781,0.0-12.0-2.0,anomymised,656582028f794bf1617e53e2,656738fe64ac0dc6e609a0bc,64315,1,man,NA,NA,M3 is hiring W1,hire,rating_volition,"{""Q0"":1}",[0],M3 is employing W1,W1 is employing M3
4703.799999952316,NA,NA,NA,NA,survey-likert-extra-labels,24,129489,0.0-12.0-3.0-0.0,anomymised,656582028f794bf1617e53e2,656738fe64ac0dc6e609a0bc,64315,1,man,NA,NA,M3 is hiring W1,hire,rating_causation,"{""Q0"":3}",[0],M3 will work for W1,W1 will work for M3
null,Beth is being opposed by Mike,NA,NA,NA,html-keyboard-response,25,131497,0.0-13.0-0.0,anomymised,656582028f794bf1617e53e2,656738fe64ac0dc6e609a0bc,64315,1,man,NA,null,W4 is being opposed by M2,oppose4,sentence,NA,NA,NA,NA
3607.800000011921,NA,NA,NA,NA,survey-likert-extra-labels,26,135109,0.0-13.0-1.0-0.0,anomymised,656582028f794bf1617e53e2,656738fe64ac0dc6e609a0bc,64315,1,man,NA,NA,W4 is being opposed by M2,oppose4,rating_causation,"{""Q0"":3}",[0],W4 started opposing M2,M2 started opposing W4
2919.7999999523163,NA,NA,NA,NA,survey-likert-extra-labels,27,138032,0.0-13.0-2.0,anomymised,656582028f794bf1617e53e2,656738fe64ac0dc6e609a0bc,64315,1,man,NA,NA,W4 is being opposed by M2,oppose4,rating_volition,"{""Q0"":3}",[0],W4 wanted to oppose M2,M2 wanted to oppose W4
null,Fred is being opposed by Luke,NA,NA,NA,html-keyboard-response,28,140039,0.0-14.0-0.0,anomymised,656582028f794bf1617e53e2,656738fe64ac0dc6e609a0bc,64315,1,man,NA,null,M3 is being opposed by M1,oppose2,sentence,NA,NA,NA,NA
1524,NA,NA,NA,NA,survey-likert-extra-labels,29,141568,0.0-14.0-1.0-0.0,anomymised,656582028f794bf1617e53e2,656738fe64ac0dc6e609a0bc,64315,1,man,NA,NA,M3 is being opposed by M1,oppose2,rating_causation,"{""Q0"":3}",[0],M3 started opposing M1,M1 started opposing M3
1010.6000000238419,NA,NA,NA,NA,survey-likert-extra-labels,30,142582,0.0-14.0-2.0,anomymised,656582028f794bf1617e53e2,656738fe64ac0dc6e609a0bc,64315,1,man,NA,NA,M3 is being opposed by M1,oppose2,rating_volition,"{""Q0"":3}",[0],M3 wanted to oppose M1,M1 wanted to oppose M3
null,Beth is being seduced by Jane,NA,NA,NA,html-keyboard-response,31,144587,0.0-15.0-0.0,anomymised,656582028f794bf1617e53e2,656738fe64ac0dc6e609a0bc,64315,1,man,NA,null,W4 is being seduced by W2,seduce1,sentence,NA,NA,NA,NA
2889,NA,NA,NA,NA,survey-likert-extra-labels,32,147482,0.0-15.0-2.0,anomymised,656582028f794bf1617e53e2,656738fe64ac0dc6e609a0bc,64315,1,man,NA,NA,W4 is being seduced by W2,seduce1,rating_volition,"{""Q0"":5}",[0],W4 wanted to seduce W2,W2 wanted to seduce W4
1694.1000000238419,NA,NA,NA,NA,survey-likert-extra-labels,33,149179,0.0-15.0-3.0-0.0,anomymised,656582028f794bf1617e53e2,656738fe64ac0dc6e609a0bc,64315,1,man,NA,NA,W4 is being seduced by W2,seduce1,rating_causation,"{""Q0"":5}",[0],W4 started seducing W2 first,W2 started seducing W4 first
null,Beth is being touched by Jane,NA,NA,NA,html-keyboard-response,34,151182,0.0-16.0-0.0,anomymised,656582028f794bf1617e53e2,656738fe64ac0dc6e609a0bc,64315,1,man,NA,null,W4 is being touched by W2,touch1,sentence,NA,NA,NA,NA
5106.600000023842,NA,NA,NA,NA,survey-likert-extra-labels,35,156292,0.0-16.0-1.0-0.0,anomymised,656582028f794bf1617e53e2,656738fe64ac0dc6e609a0bc,64315,1,man,NA,NA,W4 is being touched by W2,touch1,rating_causation,"{""Q0"":3}",[0],W4 asked to touch W2,W2 asked to touch W4
3014,NA,NA,NA,NA,survey-likert-extra-labels,36,159311,0.0-16.0-2.0,anomymised,656582028f794bf1617e53e2,656738fe64ac0dc6e609a0bc,64315,1,man,NA,NA,W4 is being touched by W2,touch1,rating_volition,"{""Q0"":1}",[0],W4 wanted to touch W2,W2 wanted to touch W4
null,Dave is being hugged by Jane,NA,NA,NA,html-keyboard-response,37,161317,0.0-17.0-0.0,anomymised,656582028f794bf1617e53e2,656738fe64ac0dc6e609a0bc,64315,1,man,NA,null,M4 is being hugged by W2,hug3,sentence,NA,NA,NA,NA
2744.5,NA,NA,NA,NA,survey-likert-extra-labels,38,164068,0.0-17.0-1.0-0.0,anomymised,656582028f794bf1617e53e2,656738fe64ac0dc6e609a0bc,64315,1,man,NA,NA,M4 is being hugged by W2,hug3,rating_causation,"{""Q0"":5}",[0],M4 asked to hug W2,W2 asked to hug M4
1515.699999988079,NA,NA,NA,NA,survey-likert-extra-labels,39,165587,0.0-17.0-2.0,anomymised,656582028f794bf1617e53e2,656738fe64ac0dc6e609a0bc,64315,1,man,NA,NA,M4 is being hugged by W2,hug3,rating_volition,"{""Q0"":5}",[0],M4 wanted to hug W2,W2 wanted to hug M4
null,Jane is being copied by Beth,NA,NA,NA,html-keyboard-response,40,167591,0.0-18.0-0.0,anomymised,656582028f794bf1617e53e2,656738fe64ac0dc6e609a0bc,64315,1,man,NA,null,W2 is being copied by W4,copy1,sentence,NA,NA,NA,NA
3809.599999964237,NA,NA,NA,NA,survey-likert-extra-labels,41,171407,0.0-18.0-1.0-0.0,anomymised,656582028f794bf1617e53e2,656738fe64ac0dc6e609a0bc,64315,1,man,NA,NA,W2 is being copied by W4,copy1,rating_causation,"{""Q0"":0}",[0],W4 started copying W2 first,W2 started copying W4 first
1444,NA,NA,NA,NA,survey-likert-extra-labels,42,172855,0.0-18.0-2.0,anomymised,656582028f794bf1617e53e2,656738fe64ac0dc6e609a0bc,64315,1,man,NA,NA,W2 is being copied by W4,copy1,rating_volition,"{""Q0"":1}",[0],W4 wanted to copy W2,W2 wanted to copy W4
null,Ruth is being kissed by Kate,NA,NA,NA,html-keyboard-response,43,174859,0.0-19.0-0.0,anomymised,656582028f794bf1617e53e2,656738fe64ac0dc6e609a0bc,64315,1,man,NA,null,W1 is being kissed by W3,kiss1,sentence,NA,NA,NA,NA
3099.600000023842,NA,NA,NA,NA,survey-likert-extra-labels,44,177965,0.0-19.0-1.0-0.0,anomymised,656582028f794bf1617e53e2,656738fe64ac0dc6e609a0bc,64315,1,man,NA,NA,W1 is being kissed by W3,kiss1,rating_causation,"{""Q0"":1}",[0],W3 asked to kiss W1,W1 asked to kiss W3
914.8999999761581,NA,NA,NA,NA,survey-likert-extra-labels,45,178883,0.0-19.0-2.0,anomymised,656582028f794bf1617e53e2,656738fe64ac0dc6e609a0bc,64315,1,man,NA,NA,W1 is being kissed by W3,kiss1,rating_volition,"{""Q0"":1}",[0],W3 wanted to kiss W1,W1 wanted to kiss W3
null,Jane is being greeted by Beth,NA,NA,NA,html-keyboard-response,46,180891,0.0-20.0-0.0,anomymised,656582028f794bf1617e53e2,656738fe64ac0dc6e609a0bc,64315,1,man,NA,null,W2 is being greeted by W4,greet1,sentence,NA,NA,NA,NA
5673.199999988079,NA,NA,NA,NA,survey-likert-extra-labels,47,186569,0.0-20.0-2.0,anomymised,656582028f794bf1617e53e2,656738fe64ac0dc6e609a0bc,64315,1,man,NA,NA,W2 is being greeted by W4,greet1,rating_volition,"{""Q0"":1}",[0],W4 wanted to greet W2,W2 wanted to greet W4
1132.8999999761581,NA,NA,NA,NA,survey-likert-extra-labels,48,187706,0.0-20.0-3.0-0.0,anomymised,656582028f794bf1617e53e2,656738fe64ac0dc6e609a0bc,64315,1,man,NA,NA,W2 is being greeted by W4,greet1,rating_causation,"{""Q0"":1}",[0],W4 started greeting W2 first,W2 started greeting W4 first
null,Luke is being seduced by Kate,NA,NA,NA,html-keyboard-response,49,189712,0.0-21.0-0.0,anomymised,656582028f794bf1617e53e2,656738fe64ac0dc6e609a0bc,64315,1,man,NA,null,M1 is being seduced by W3,seduce3,sentence,NA,NA,NA,NA
2353.300000011921,NA,NA,NA,NA,survey-likert-extra-labels,50,192070,0.0-21.0-1.0-0.0,anomymised,656582028f794bf1617e53e2,656738fe64ac0dc6e609a0bc,64315,1,man,NA,NA,M1 is being seduced by W3,seduce3,rating_causation,"{""Q0"":5}",[0],M1 started seducing W3 first,W3 started seducing M1 first
1035.7000000476837,NA,NA,NA,NA,survey-likert-extra-labels,51,193109,0.0-21.0-2.0,anomymised,656582028f794bf1617e53e2,656738fe64ac0dc6e609a0bc,64315,1,man,NA,NA,M1 is being seduced by W3,seduce3,rating_volition,"{""Q0"":5}",[0],M1 wanted to seduce W3,W3 wanted to seduce M1
null,Fred is being copied by Ruth,NA,NA,NA,html-keyboard-response,52,195117,0.0-22.0-0.0,anomymised,656582028f794bf1617e53e2,656738fe64ac0dc6e609a0bc,64315,1,man,NA,null,M3 is being copied by W1,copy4,sentence,NA,NA,NA,NA
4066.199999988079,NA,NA,NA,NA,survey-likert-extra-labels,53,199189,0.0-22.0-2.0,anomymised,656582028f794bf1617e53e2,656738fe64ac0dc6e609a0bc,64315,1,man,NA,NA,M3 is being copied by W1,copy4,rating_volition,"{""Q0"":1}",[0],W1 wanted to copy M3,M3 wanted to copy W1
1214.5999999642372,NA,NA,NA,NA,survey-likert-extra-labels,54,200407,0.0-22.0-3.0-0.0,anomymised,656582028f794bf1617e53e2,656738fe64ac0dc6e609a0bc,64315,1,man,NA,NA,M3 is being copied by W1,copy4,rating_causation,"{""Q0"":1}",[0],W1 started copying M3 first,M3 started copying W1 first
null,Kate is being copied by Luke,NA,NA,NA,html-keyboard-response,55,202411,0.0-23.0-0.0,anomymised,656582028f794bf1617e53e2,656738fe64ac0dc6e609a0bc,64315,1,man,NA,null,W3 is being copied by M1,copy3,sentence,NA,NA,NA,NA
2657.899999976158,NA,NA,NA,NA,survey-likert-extra-labels,56,205074,0.0-23.0-1.0-0.0,anomymised,656582028f794bf1617e53e2,656738fe64ac0dc6e609a0bc,64315,1,man,NA,NA,W3 is being copied by M1,copy3,rating_causation,"{""Q0"":1}",[0],M1 started copying W3 first,W3 started copying M1 first
973.8999999761581,NA,NA,NA,NA,survey-likert-extra-labels,57,206051,0.0-23.0-2.0,anomymised,656582028f794bf1617e53e2,656738fe64ac0dc6e609a0bc,64315,1,man,NA,NA,W3 is being copied by M1,copy3,rating_volition,"{""Q0"":1}",[0],M1 wanted to copy W3,W3 wanted to copy M1
null,Jane is being looked at by Dave,NA,NA,NA,html-keyboard-response,58,208056,0.0-24.0-0.0,anomymised,656582028f794bf1617e53e2,656738fe64ac0dc6e609a0bc,64315,1,man,NA,null,W2 is being looked at by M4,look3,sentence,NA,NA,NA,NA
6080.699999988079,NA,NA,NA,NA,survey-likert-extra-labels,59,214142,0.0-24.0-1.0-0.0,anomymised,656582028f794bf1617e53e2,656738fe64ac0dc6e609a0bc,64315,1,man,NA,NA,W2 is being looked at by M4,look3,rating_causation,"{""Q0"":0}",[0],M4 looked at W2 first,W2 looked at M4 first
1258,NA,NA,NA,NA,survey-likert-extra-labels,60,215405,0.0-24.0-2.0,anomymised,656582028f794bf1617e53e2,656738fe64ac0dc6e609a0bc,64315,1,man,NA,NA,W2 is being looked at by M4,look3,rating_volition,"{""Q0"":1}",[0],M4 wanted to look at W2,W2 wanted to look at M4
null,Luke is being kissed by Fred,NA,NA,NA,html-keyboard-response,61,217409,0.0-25.0-0.0,anomymised,656582028f794bf1617e53e2,656738fe64ac0dc6e609a0bc,64315,1,man,NA,null,M1 is being kissed by M3,kiss2,sentence,NA,NA,NA,NA
2128.699999988079,NA,NA,NA,NA,survey-likert-extra-labels,62,219541,0.0-25.0-1.0-0.0,anomymised,656582028f794bf1617e53e2,656738fe64ac0dc6e609a0bc,64315,1,man,NA,NA,M1 is being kissed by M3,kiss2,rating_causation,"{""Q0"":1}",[0],M3 asked to kiss M1,M1 asked to kiss M3
1119.6000000238419,NA,NA,NA,NA,survey-likert-extra-labels,63,220664,0.0-25.0-2.0,anomymised,656582028f794bf1617e53e2,656738fe64ac0dc6e609a0bc,64315,1,man,NA,NA,M1 is being kissed by M3,kiss2,rating_volition,"{""Q0"":1}",[0],M3 wanted to kiss M1,M1 wanted to kiss M3
null,Beth is being challenged by Jane,NA,NA,NA,html-keyboard-response,64,222668,0.0-26.0-0.0,anomymised,656582028f794bf1617e53e2,656738fe64ac0dc6e609a0bc,64315,1,man,NA,null,W4 is being challenged by W2,challenge1,sentence,NA,NA,NA,NA
3014.199999988079,NA,NA,NA,NA,survey-likert-extra-labels,65,225687,0.0-26.0-1.0-0.0,anomymised,656582028f794bf1617e53e2,656738fe64ac0dc6e609a0bc,64315,1,man,NA,NA,W4 is being challenged by W2,challenge1,rating_causation,"{""Q0"":5}",[0],W4 started challenging W2 first,W2 started challenging W4 first
1455.8999999761581,NA,NA,NA,NA,survey-likert-extra-labels,66,227147,0.0-26.0-2.0,anomymised,656582028f794bf1617e53e2,656738fe64ac0dc6e609a0bc,64315,1,man,NA,NA,W4 is being challenged by W2,challenge1,rating_volition,"{""Q0"":5}",[0],W4 wanted to challenge W2,W2 wanted to challenge W4
null,Kate is being hugged by Ruth,NA,NA,NA,html-keyboard-response,67,229153,0.0-27.0-0.0,anomymised,656582028f794bf1617e53e2,656738fe64ac0dc6e609a0bc,64315,1,man,NA,null,W3 is being hugged by W1,hug1,sentence,NA,NA,NA,NA
2596.400000035763,NA,NA,NA,NA,survey-likert-extra-labels,68,231755,0.0-27.0-1.0-0.0,anomymised,656582028f794bf1617e53e2,656738fe64ac0dc6e609a0bc,64315,1,man,NA,NA,W3 is being hugged by W1,hug1,rating_causation,"{""Q0"":5}",[0],W3 asked to hug W1,W1 asked to hug W3
1962,NA,NA,NA,NA,survey-likert-extra-labels,69,233721,0.0-27.0-2.0,anomymised,656582028f794bf1617e53e2,656738fe64ac0dc6e609a0bc,64315,1,man,NA,NA,W3 is being hugged by W1,hug1,rating_volition,"{""Q0"":5}",[0],W3 wanted to hug W1,W1 wanted to hug W3
null,Luke is being looked at by Fred,NA,NA,NA,html-keyboard-response,70,235727,0.0-28.0-0.0,anomymised,656582028f794bf1617e53e2,656738fe64ac0dc6e609a0bc,64315,1,man,NA,null,M1 is being looked at by M3,look2,sentence,NA,NA,NA,NA
1928.5999999642372,NA,NA,NA,NA,survey-likert-extra-labels,71,237662,0.0-28.0-2.0,anomymised,656582028f794bf1617e53e2,656738fe64ac0dc6e609a0bc,64315,1,man,NA,NA,M1 is being looked at by M3,look2,rating_volition,"{""Q0"":1}",[0],M3 wanted to look at M1,M1 wanted to look at M3
2043.8999999761581,NA,NA,NA,NA,survey-likert-extra-labels,72,239710,0.0-28.0-3.0-0.0,anomymised,656582028f794bf1617e53e2,656738fe64ac0dc6e609a0bc,64315,1,man,NA,NA,M1 is being looked at by M3,look2,rating_causation,"{""Q0"":1}",[0],M3 looked at M1 first,M1 looked at M3 first
null,Kate is being greeted by Luke,NA,NA,NA,html-keyboard-response,73,241715,0.0-29.0-0.0,anomymised,656582028f794bf1617e53e2,656738fe64ac0dc6e609a0bc,64315,1,man,NA,null,W3 is being greeted by M1,greet4,sentence,NA,NA,NA,NA
5630.099999964237,NA,NA,NA,NA,survey-likert-extra-labels,74,247350,0.0-29.0-2.0,anomymised,656582028f794bf1617e53e2,656738fe64ac0dc6e609a0bc,64315,1,man,NA,NA,W3 is being greeted by M1,greet4,rating_volition,"{""Q0"":4}",[0],M1 wanted to greet W3,W3 wanted to greet M1
1634.199999988079,NA,NA,NA,NA,survey-likert-extra-labels,75,248988,0.0-29.0-3.0-0.0,anomymised,656582028f794bf1617e53e2,656738fe64ac0dc6e609a0bc,64315,1,man,NA,NA,W3 is being greeted by M1,greet4,rating_causation,"{""Q0"":4}",[0],M1 started greeting W3 first,W3 started greeting M1 first
null,Dave is being shouted at by Jane,NA,NA,NA,html-keyboard-response,76,250995,0.0-30.0-0.0,anomymised,656582028f794bf1617e53e2,656738fe64ac0dc6e609a0bc,64315,1,man,NA,null,M4 is being shouted at by W2,shout4,sentence,NA,NA,NA,NA
3325.599999964237,NA,NA,NA,NA,survey-likert-extra-labels,77,254325,0.0-30.0-1.0-0.0,anomymised,656582028f794bf1617e53e2,656738fe64ac0dc6e609a0bc,64315,1,man,NA,NA,M4 is being shouted at by W2,shout4,rating_causation,"{""Q0"":5}",[0],M4 shouted at W2 first,W2 shouted at M4 first
1179,NA,NA,NA,NA,survey-likert-extra-labels,78,255508,0.0-30.0-2.0,anomymised,656582028f794bf1617e53e2,656738fe64ac0dc6e609a0bc,64315,1,man,NA,NA,M4 is being shouted at by W2,shout4,rating_volition,"{""Q0"":5}",[0],M4 wanted to shout at W2,W2 wanted to shout at M4
null,Kate is feeding Luke,NA,NA,NA,html-keyboard-response,79,257512,0.0-31.0-0.0,anomymised,656582028f794bf1617e53e2,656738fe64ac0dc6e609a0bc,64315,1,man,NA,null,W3 is feeding M1,feed,sentence,NA,NA,NA,NA
4727.899999976158,NA,NA,NA,NA,survey-likert-extra-labels,80,262245,0.0-31.0-2.0,anomymised,656582028f794bf1617e53e2,656738fe64ac0dc6e609a0bc,64315,1,man,NA,NA,W3 is feeding M1,feed,rating_volition,"{""Q0"":3}",[0],W3 cooked for M1,M1 cooked for W3
5490,NA,NA,NA,NA,survey-likert-extra-labels,81,267739,0.0-31.0-3.0-0.0,anomymised,656582028f794bf1617e53e2,656738fe64ac0dc6e609a0bc,64315,1,man,NA,NA,W3 is feeding M1,feed,rating_causation,"{""Q0"":3}",[0],W3 is eating M1's food,M1 is eating W3's food
null,Mike is posing for Dave,NA,NA,NA,html-keyboard-response,82,269746,0.0-32.0-0.0,anomymised,656582028f794bf1617e53e2,656738fe64ac0dc6e609a0bc,64315,1,man,NA,null,M2 is posing for M4,pose,sentence,NA,NA,NA,NA
4494.5,NA,NA,NA,NA,survey-likert-extra-labels,83,274245,0.0-32.0-2.0,anomymised,656582028f794bf1617e53e2,656738fe64ac0dc6e609a0bc,64315,1,man,NA,NA,M2 is posing for M4,pose,rating_volition,"{""Q0"":1}",[0],M2 is modelling for M4,M4 is modelling for M2
1354.300000011921,NA,NA,NA,NA,survey-likert-extra-labels,84,275603,0.0-32.0-3.0-0.0,anomymised,656582028f794bf1617e53e2,656738fe64ac0dc6e609a0bc,64315,1,man,NA,NA,M2 is posing for M4,pose,rating_causation,"{""Q0"":1}",[0],M2 is photographing M4,M4 is photographing M2
null,Beth is being hugged by Mike,NA,NA,NA,html-keyboard-response,85,277608,0.0-33.0-0.0,anomymised,656582028f794bf1617e53e2,656738fe64ac0dc6e609a0bc,64315,1,man,NA,null,W4 is being hugged by M2,hug4,sentence,NA,NA,NA,NA
2324.5,NA,NA,NA,NA,survey-likert-extra-labels,86,279938,0.0-33.0-1.0-0.0,anomymised,656582028f794bf1617e53e2,656738fe64ac0dc6e609a0bc,64315,1,man,NA,NA,W4 is being hugged by M2,hug4,rating_causation,"{""Q0"":1}",[0],W4 asked to hug M2,M2 asked to hug W4
920.1999999880791,NA,NA,NA,NA,survey-likert-extra-labels,87,280861,0.0-33.0-2.0,anomymised,656582028f794bf1617e53e2,656738fe64ac0dc6e609a0bc,64315,1,man,NA,NA,W4 is being hugged by M2,hug4,rating_volition,"{""Q0"":4}",[0],W4 wanted to hug M2,M2 wanted to hug W4
null,Fred is being greeted by Ruth,NA,NA,NA,html-keyboard-response,88,282865,0.0-34.0-0.0,anomymised,656582028f794bf1617e53e2,656738fe64ac0dc6e609a0bc,64315,1,man,NA,null,M3 is being greeted by W1,greet3,sentence,NA,NA,NA,NA
1730.8999999761581,NA,NA,NA,NA,survey-likert-extra-labels,89,284601,0.0-34.0-1.0-0.0,anomymised,656582028f794bf1617e53e2,656738fe64ac0dc6e609a0bc,64315,1,man,NA,NA,M3 is being greeted by W1,greet3,rating_causation,"{""Q0"":1}",[0],W1 started greeting M3 first,M3 started greeting W1 first
878.3999999761581,NA,NA,NA,NA,survey-likert-extra-labels,90,285482,0.0-34.0-2.0,anomymised,656582028f794bf1617e53e2,656738fe64ac0dc6e609a0bc,64315,1,man,NA,NA,M3 is being greeted by W1,greet3,rating_volition,"{""Q0"":1}",[0],W1 wanted to greet M3,M3 wanted to greet W1
null,Kate is being shouted at by Ruth,NA,NA,NA,html-keyboard-response,91,287487,0.0-35.0-0.0,anomymised,656582028f794bf1617e53e2,656738fe64ac0dc6e609a0bc,64315,1,man,NA,null,W3 is being shouted at by W1,shout1,sentence,NA,NA,NA,NA
2070.300000011921,NA,NA,NA,NA,survey-likert-extra-labels,92,289563,0.0-35.0-2.0,anomymised,656582028f794bf1617e53e2,656738fe64ac0dc6e609a0bc,64315,1,man,NA,NA,W3 is being shouted at by W1,shout1,rating_volition,"{""Q0"":5}",[0],W3 wanted to shout at W1,W1 wanted to shout at W3
965.1999999880791,NA,NA,NA,NA,survey-likert-extra-labels,93,290531,0.0-35.0-3.0-0.0,anomymised,656582028f794bf1617e53e2,656738fe64ac0dc6e609a0bc,64315,1,man,NA,NA,W3 is being shouted at by W1,shout1,rating_causation,"{""Q0"":5}",[0],W3 shouted at W1 first,W1 shouted at W3 first
null,Dave is being seduced by Mike,NA,NA,NA,html-keyboard-response,94,292537,0.0-36.0-0.0,anomymised,656582028f794bf1617e53e2,656738fe64ac0dc6e609a0bc,64315,1,man,NA,null,M4 is being seduced by M2,seduce2,sentence,NA,NA,NA,NA
2198.199999988079,NA,NA,NA,NA,survey-likert-extra-labels,95,294741,0.0-36.0-1.0-0.0,anomymised,656582028f794bf1617e53e2,656738fe64ac0dc6e609a0bc,64315,1,man,NA,NA,M4 is being seduced by M2,seduce2,rating_causation,"{""Q0"":5}",[0],M4 started seducing M2 first,M2 started seducing M4 first
1601.0999999642372,NA,NA,NA,NA,survey-likert-extra-labels,96,296345,0.0-36.0-2.0,anomymised,656582028f794bf1617e53e2,656738fe64ac0dc6e609a0bc,64315,1,man,NA,NA,M4 is being seduced by M2,seduce2,rating_volition,"{""Q0"":5}",[0],M4 wanted to seduce M2,M2 wanted to seduce M4
null,Mike is being kissed by Beth,NA,NA,NA,html-keyboard-response,97,298349,0.0-37.0-0.0,anomymised,656582028f794bf1617e53e2,656738fe64ac0dc6e609a0bc,64315,1,man,NA,null,M2 is being kissed by W4,kiss3,sentence,NA,NA,NA,NA
2110.600000023842,NA,NA,NA,NA,survey-likert-extra-labels,98,300466,0.0-37.0-2.0,anomymised,656582028f794bf1617e53e2,656738fe64ac0dc6e609a0bc,64315,1,man,NA,NA,M2 is being kissed by W4,kiss3,rating_volition,"{""Q0"":5}",[0],W4 wanted to kiss M2,M2 wanted to kiss W4
1179.7000000476837,NA,NA,NA,NA,survey-likert-extra-labels,99,301650,0.0-37.0-3.0-0.0,anomymised,656582028f794bf1617e53e2,656738fe64ac0dc6e609a0bc,64315,1,man,NA,NA,M2 is being kissed by W4,kiss3,rating_causation,"{""Q0"":5}",[0],W4 asked to kiss M2,M2 asked to kiss W4
null,Mike is reminding Beth,NA,NA,NA,html-keyboard-response,100,303654,0.0-38.0-0.0,anomymised,656582028f794bf1617e53e2,656738fe64ac0dc6e609a0bc,64315,1,man,NA,null,M2 is reminding W4,remind,sentence,NA,NA,NA,NA
6407.399999976158,NA,NA,NA,NA,survey-likert-extra-labels,101,310066,0.0-38.0-1.0-0.0,anomymised,656582028f794bf1617e53e2,656738fe64ac0dc6e609a0bc,64315,1,man,NA,NA,M2 is reminding W4,remind,rating_causation,"{""Q0"":4}",[0],M2 is remembering,W4 is remembering
1069.7999999523163,NA,NA,NA,NA,survey-likert-extra-labels,102,311139,0.0-38.0-2.0,anomymised,656582028f794bf1617e53e2,656738fe64ac0dc6e609a0bc,64315,1,man,NA,NA,M2 is reminding W4,remind,rating_volition,"{""Q0"":4}",[0],M2 is telling W4 again,W4 is telling M2 again
null,Jane is teaching Dave,NA,NA,NA,html-keyboard-response,103,313144,0.0-39.0-0.0,anomymised,656582028f794bf1617e53e2,656738fe64ac0dc6e609a0bc,64315,1,man,NA,null,W2 is teaching M4,teach,sentence,NA,NA,NA,NA
1241.2999999523163,NA,NA,NA,NA,survey-likert-extra-labels,104,314392,0.0-39.0-2.0,anomymised,656582028f794bf1617e53e2,656738fe64ac0dc6e609a0bc,64315,1,man,NA,NA,W2 is teaching M4,teach,rating_volition,"{""Q0"":1}",[0],W2 is educating M4,M4 is educating W2
938.6999999880791,NA,NA,NA,NA,survey-likert-extra-labels,105,315334,0.0-39.0-3.0-0.0,anomymised,656582028f794bf1617e53e2,656738fe64ac0dc6e609a0bc,64315,1,man,NA,NA,W2 is teaching M4,teach,rating_causation,"{""Q0"":1}",[0],W2 is learning from M4,M4 is learning from W2
null,Kate is being opposed by Ruth,NA,NA,NA,html-keyboard-response,106,317339,0.0-40.0-0.0,anomymised,656582028f794bf1617e53e2,656738fe64ac0dc6e609a0bc,64315,1,man,NA,null,W3 is being opposed by W1,oppose1,sentence,NA,NA,NA,NA
1700.4000000357628,NA,NA,NA,NA,survey-likert-extra-labels,107,319044,0.0-40.0-1.0-0.0,anomymised,656582028f794bf1617e53e2,656738fe64ac0dc6e609a0bc,64315,1,man,NA,NA,W3 is being opposed by W1,oppose1,rating_causation,"{""Q0"":5}",[0],W3 started opposing W1,W1 started opposing W3
1205.7999999523163,NA,NA,NA,NA,survey-likert-extra-labels,108,320253,0.0-40.0-2.0,anomymised,656582028f794bf1617e53e2,656738fe64ac0dc6e609a0bc,64315,1,man,NA,NA,W3 is being opposed by W1,oppose1,rating_volition,"{""Q0"":5}",[0],W3 wanted to oppose W1,W1 wanted to oppose W3
null,Ruth is being looked at by Kate,NA,NA,NA,html-keyboard-response,109,322257,0.0-41.0-0.0,anomymised,656582028f794bf1617e53e2,656738fe64ac0dc6e609a0bc,64315,1,man,NA,null,W1 is being looked at by W3,look1,sentence,NA,NA,NA,NA
1124.3999999761581,NA,NA,NA,NA,survey-likert-extra-labels,110,323387,0.0-41.0-1.0-0.0,anomymised,656582028f794bf1617e53e2,656738fe64ac0dc6e609a0bc,64315,1,man,NA,NA,W1 is being looked at by W3,look1,rating_causation,"{""Q0"":5}",[0],W3 looked at W1 first,W1 looked at W3 first
865.8000000119209,NA,NA,NA,NA,survey-likert-extra-labels,111,324256,0.0-41.0-2.0,anomymised,656582028f794bf1617e53e2,656738fe64ac0dc6e609a0bc,64315,1,man,NA,NA,W1 is being looked at by W3,look1,rating_volition,"{""Q0"":5}",[0],W3 wanted to look at W1,W1 wanted to look at W3
null,Ruth is being touched by Fred,NA,NA,NA,html-keyboard-response,112,326260,0.0-42.0-0.0,anomymised,656582028f794bf1617e53e2,656738fe64ac0dc6e609a0bc,64315,1,man,NA,null,W1 is being touched by M3,touch4,sentence,NA,NA,NA,NA
1449.2000000476837,NA,NA,NA,NA,survey-likert-extra-labels,113,327715,0.0-42.0-1.0-0.0,anomymised,656582028f794bf1617e53e2,656738fe64ac0dc6e609a0bc,64315,1,man,NA,NA,W1 is being touched by M3,touch4,rating_causation,"{""Q0"":5}",[0],W1 asked to touch M3,M3 asked to touch W1
947.8000000119209,NA,NA,NA,NA,survey-likert-extra-labels,114,328666,0.0-42.0-2.0,anomymised,656582028f794bf1617e53e2,656738fe64ac0dc6e609a0bc,64315,1,man,NA,NA,W1 is being touched by M3,touch4,rating_volition,"{""Q0"":5}",[0],W1 wanted to touch M3,M3 wanted to touch W1
null,Dave is being opposed by Jane,NA,NA,NA,html-keyboard-response,115,330672,0.0-43.0-0.0,anomymised,656582028f794bf1617e53e2,656738fe64ac0dc6e609a0bc,64315,1,man,NA,null,M4 is being opposed by W2,oppose3,sentence,NA,NA,NA,NA
1639.5,NA,NA,NA,NA,survey-likert-extra-labels,116,332317,0.0-43.0-2.0,anomymised,656582028f794bf1617e53e2,656738fe64ac0dc6e609a0bc,64315,1,man,NA,NA,M4 is being opposed by W2,oppose3,rating_volition,"{""Q0"":5}",[0],M4 wanted to oppose W2,W2 wanted to oppose M4
1154.5,NA,NA,NA,NA,survey-likert-extra-labels,117,333474,0.0-43.0-3.0-0.0,anomymised,656582028f794bf1617e53e2,656738fe64ac0dc6e609a0bc,64315,1,man,NA,NA,M4 is being opposed by W2,oppose3,rating_causation,"{""Q0"":5}",[0],M4 started opposing W2,W2 started opposing M4
null,Mike is being copied by Dave,NA,NA,NA,html-keyboard-response,118,335479,0.0-44.0-0.0,anomymised,656582028f794bf1617e53e2,656738fe64ac0dc6e609a0bc,64315,1,man,NA,null,M2 is being copied by M4,copy2,sentence,NA,NA,NA,NA
2573.599999964237,NA,NA,NA,NA,survey-likert-extra-labels,119,338057,0.0-44.0-2.0,anomymised,656582028f794bf1617e53e2,656738fe64ac0dc6e609a0bc,64315,1,man,NA,NA,M2 is being copied by M4,copy2,rating_volition,"{""Q0"":5}",[0],M4 wanted to copy M2,M2 wanted to copy M4
970.5,NA,NA,NA,NA,survey-likert-extra-labels,120,339031,0.0-44.0-3.0-0.0,anomymised,656582028f794bf1617e53e2,656738fe64ac0dc6e609a0bc,64315,1,man,NA,NA,M2 is being copied by M4,copy2,rating_causation,"{""Q0"":5}",[0],M4 started copying M2 first,M2 started copying M4 first
null,Ruth is being challenged by Fred,NA,NA,NA,html-keyboard-response,121,341037,0.0-45.0-0.0,anomymised,656582028f794bf1617e53e2,656738fe64ac0dc6e609a0bc,64315,1,man,NA,null,W1 is being challenged by M3,challenge3,sentence,NA,NA,NA,NA
2335.7000000476837,NA,NA,NA,NA,survey-likert-extra-labels,122,343377,0.0-45.0-1.0-0.0,anomymised,656582028f794bf1617e53e2,656738fe64ac0dc6e609a0bc,64315,1,man,NA,NA,W1 is being challenged by M3,challenge3,rating_causation,"{""Q0"":5}",[0],W1 started challenging M3 first,M3 started challenging W1 first
988.3999999761581,NA,NA,NA,NA,survey-likert-extra-labels,123,344369,0.0-45.0-2.0,anomymised,656582028f794bf1617e53e2,656738fe64ac0dc6e609a0bc,64315,1,man,NA,NA,W1 is being challenged by M3,challenge3,rating_volition,"{""Q0"":5}",[0],W1 wanted to challenge M3,M3 wanted to challenge W1
null,Dave is being touched by Mike,NA,NA,NA,html-keyboard-response,124,346375,0.0-46.0-0.0,anomymised,656582028f794bf1617e53e2,656738fe64ac0dc6e609a0bc,64315,1,man,NA,null,M4 is being touched by M2,touch2,sentence,NA,NA,NA,NA
1265.5,NA,NA,NA,NA,survey-likert-extra-labels,125,347645,0.0-46.0-1.0-0.0,anomymised,656582028f794bf1617e53e2,656738fe64ac0dc6e609a0bc,64315,1,man,NA,NA,M4 is being touched by M2,touch2,rating_causation,"{""Q0"":5}",[0],M4 asked to touch M2,M2 asked to touch M4
855.1999999880791,NA,NA,NA,NA,survey-likert-extra-labels,126,348503,0.0-46.0-2.0,anomymised,656582028f794bf1617e53e2,656738fe64ac0dc6e609a0bc,64315,1,man,NA,NA,M4 is being touched by M2,touch2,rating_volition,"{""Q0"":5}",[0],M4 wanted to touch M2,M2 wanted to touch M4
null,Luke is being challenged by Kate,NA,NA,NA,html-keyboard-response,127,350507,0.0-47.0-0.0,anomymised,656582028f794bf1617e53e2,656738fe64ac0dc6e609a0bc,64315,1,man,NA,null,M1 is being challenged by W3,challenge4,sentence,NA,NA,NA,NA
1652.5,NA,NA,NA,NA,survey-likert-extra-labels,128,352164,0.0-47.0-2.0,anomymised,656582028f794bf1617e53e2,656738fe64ac0dc6e609a0bc,64315,1,man,NA,NA,M1 is being challenged by W3,challenge4,rating_volition,"{""Q0"":5}",[0],M1 wanted to challenge W3,W3 wanted to challenge M1
912.7000000476837,NA,NA,NA,NA,survey-likert-extra-labels,129,353080,0.0-47.0-3.0-0.0,anomymised,656582028f794bf1617e53e2,656738fe64ac0dc6e609a0bc,64315,1,man,NA,NA,M1 is being challenged by W3,challenge4,rating_causation,"{""Q0"":5}",[0],M1 started challenging W3 first,W3 started challenging M1 first
null,Jane is carrying Beth,NA,NA,NA,html-keyboard-response,130,355087,0.0-48.0-0.0,anomymised,656582028f794bf1617e53e2,656738fe64ac0dc6e609a0bc,64315,1,man,NA,null,W2 is carrying W4,carry,sentence,NA,NA,NA,NA
3132.599999964237,NA,NA,NA,NA,survey-likert-extra-labels,131,358225,0.0-48.0-1.0-0.0,anomymised,656582028f794bf1617e53e2,656738fe64ac0dc6e609a0bc,64315,1,man,NA,NA,W2 is carrying W4,carry,rating_causation,"{""Q0"":6}",[0],W2 is being moved by W4,W4 is being moved by W2
7840.699999988079,NA,NA,NA,NA,survey-likert-extra-labels,132,366069,0.0-48.0-2.0,anomymised,656582028f794bf1617e53e2,656738fe64ac0dc6e609a0bc,64315,1,man,NA,NA,W2 is carrying W4,carry,rating_volition,"{""Q0"":0}",[0],W2 is transporting W4,W4 is transporting W2
null,Jane is being kissed by Dave,NA,NA,NA,html-keyboard-response,133,368073,0.0-49.0-0.0,anomymised,656582028f794bf1617e53e2,656738fe64ac0dc6e609a0bc,64315,1,man,NA,null,W2 is being kissed by M4,kiss4,sentence,NA,NA,NA,NA
25382.69999998808,NA,NA,NA,NA,survey-likert-extra-labels,134,393461,0.0-49.0-1.0-0.0,anomymised,656582028f794bf1617e53e2,656738fe64ac0dc6e609a0bc,64315,1,man,NA,NA,W2 is being kissed by M4,kiss4,rating_causation,"{""Q0"":0}",[0],M4 asked to kiss W2,W2 asked to kiss M4
2492.099999964237,NA,NA,NA,NA,survey-likert-extra-labels,135,395957,0.0-49.0-2.0,anomymised,656582028f794bf1617e53e2,656738fe64ac0dc6e609a0bc,64315,1,man,NA,NA,W2 is being kissed by M4,kiss4,rating_volition,"{""Q0"":3}",[0],M4 wanted to kiss W2,W2 wanted to kiss M4
null,Fred is being shouted at by Luke,NA,NA,NA,html-keyboard-response,136,397963,0.0-50.0-0.0,anomymised,656582028f794bf1617e53e2,656738fe64ac0dc6e609a0bc,64315,1,man,NA,null,M3 is being shouted at by M1,shout2,sentence,NA,NA,NA,NA
3019.699999988079,NA,NA,NA,NA,survey-likert-extra-labels,137,400988,0.0-50.0-2.0,anomymised,656582028f794bf1617e53e2,656738fe64ac0dc6e609a0bc,64315,1,man,NA,NA,M3 is being shouted at by M1,shout2,rating_volition,"{""Q0"":0}",[0],M3 wanted to shout at M1,M1 wanted to shout at M3
1537.9000000357628,NA,NA,NA,NA,survey-likert-extra-labels,138,402530,0.0-50.0-3.0-0.0,anomymised,656582028f794bf1617e53e2,656738fe64ac0dc6e609a0bc,64315,1,man,NA,NA,M3 is being shouted at by M1,shout2,rating_causation,"{""Q0"":0}",[0],M3 shouted at M1 first,M1 shouted at M3 first
null,Luke is being touched by Kate,NA,NA,NA,html-keyboard-response,139,404536,0.0-51.0-0.0,anomymised,656582028f794bf1617e53e2,656738fe64ac0dc6e609a0bc,64315,1,man,NA,null,M1 is being touched by W3,touch3,sentence,NA,NA,NA,NA
18653.5,NA,NA,NA,NA,survey-likert-extra-labels,140,423195,0.0-51.0-1.0-0.0,anomymised,656582028f794bf1617e53e2,656738fe64ac0dc6e609a0bc,64315,1,man,NA,NA,M1 is being touched by W3,touch3,rating_causation,"{""Q0"":5}",[0],M1 asked to touch W3,W3 asked to touch M1
1754.7000000476837,NA,NA,NA,NA,survey-likert-extra-labels,141,424954,0.0-51.0-2.0,anomymised,656582028f794bf1617e53e2,656738fe64ac0dc6e609a0bc,64315,1,man,NA,NA,M1 is being touched by W3,touch3,rating_volition,"{""Q0"":5}",[0],M1 wanted to touch W3,W3 wanted to touch M1
null,Mike is being greeted by Dave,NA,NA,NA,html-keyboard-response,142,426960,0.0-52.0-0.0,anomymised,656582028f794bf1617e53e2,656738fe64ac0dc6e609a0bc,64315,1,man,NA,null,M2 is being greeted by M4,greet2,sentence,NA,NA,NA,NA
20217.19999998808,NA,NA,NA,NA,survey-likert-extra-labels,143,447182,0.0-52.0-2.0,anomymised,656582028f794bf1617e53e2,656738fe64ac0dc6e609a0bc,64315,1,man,NA,NA,M2 is being greeted by M4,greet2,rating_volition,"{""Q0"":5}",[0],M4 wanted to greet M2,M2 wanted to greet M4
1227,NA,NA,NA,NA,survey-likert-extra-labels,144,448414,0.0-52.0-3.0-0.0,anomymised,656582028f794bf1617e53e2,656738fe64ac0dc6e609a0bc,64315,1,man,NA,NA,M2 is being greeted by M4,greet2,rating_causation,"{""Q0"":5}",[0],M4 started greeting M2 first,M2 started greeting M4 first
null,Mike is being looked at by Beth,NA,NA,NA,html-keyboard-response,145,450418,0.0-53.0-0.0,anomymised,656582028f794bf1617e53e2,656738fe64ac0dc6e609a0bc,64315,1,man,NA,null,M2 is being looked at by W4,look4,sentence,NA,NA,NA,NA
18338.899999976158,NA,NA,NA,NA,survey-likert-extra-labels,146,468761,0.0-53.0-1.0-0.0,anomymised,656582028f794bf1617e53e2,656738fe64ac0dc6e609a0bc,64315,1,man,NA,NA,M2 is being looked at by W4,look4,rating_causation,"{""Q0"":5}",[0],W4 looked at M2 first,M2 looked at W4 first
955.1000000238419,NA,NA,NA,NA,survey-likert-extra-labels,147,469720,0.0-53.0-2.0,anomymised,656582028f794bf1617e53e2,656738fe64ac0dc6e609a0bc,64315,1,man,NA,NA,M2 is being looked at by W4,look4,rating_volition,"{""Q0"":5}",[0],W4 wanted to look at M2,M2 wanted to look at W4
null,Luke is driving Fred,NA,NA,NA,html-keyboard-response,148,471724,0.0-54.0-0.0,anomymised,656582028f794bf1617e53e2,656738fe64ac0dc6e609a0bc,64315,1,man,NA,null,M1 is driving M3,drive,sentence,NA,NA,NA,NA
13738.899999976158,NA,NA,NA,NA,survey-likert-extra-labels,149,485469,0.0-54.0-2.0,anomymised,656582028f794bf1617e53e2,656738fe64ac0dc6e609a0bc,64315,1,man,NA,NA,M1 is driving M3,drive,rating_volition,"{""Q0"":5}",[0],M1 is M3's passenger,M3 is M1's passenger
1401.699999988079,NA,NA,NA,NA,survey-likert-extra-labels,150,486874,0.0-54.0-3.0-0.0,anomymised,656582028f794bf1617e53e2,656738fe64ac0dc6e609a0bc,64315,1,man,NA,NA,M1 is driving M3,drive,rating_causation,"{""Q0"":5}",[0],M1 is taking M3 somewhere,M3 is taking M1 somewhere
1694.199999988079,<p>Thank you for completing that task.</p><p>The final part of this session is a short questionnaire.</p><p>Press Continue.</p>,0,Continue,Continue,html-button-response,151,488571,0.0-55.0,anomymised,656582028f794bf1617e53e2,656738fe64ac0dc6e609a0bc,64315,1,man,NA,NA,NA,NA,NA,NA,NA,NA,NA
21980.30000001192,NA,NA,NA,NA,survey-text,152,511575,0.0-56.0,anomymised,656582028f794bf1617e53e2,656738fe64ac0dc6e609a0bc,64315,1,man,NA,NA,NA,NA,demographics,"{""Q0"":""32"",""Q1"":""English"",""Q2"":""English"",""Q3"":""England"",""Q4"":""British "",""Q5"":""White"",""Q6"":""Male""}",NA,NA,NA
3087.899999976158,<p>This is the last question - thank you for taking part! Have you lived in the UK for the last 5 years or more?</p>,0,"Yes,No",Yes,html-button-response,153,514668,0.0-57.0,anomymised,656582028f794bf1617e53e2,656738fe64ac0dc6e609a0bc,64315,1,man,NA,NA,NA,NA,fiveyears,NA,NA,NA,NA
