rt,stimulus,button_pressed,choices,ChosenStimulus,trial_type,trial_index,time_elapsed,internal_node_id,subject_id,study_id,session_id,subject,list,ppt_gender,url,key_press,sentence_type,verb,test_part,responses,question_order,left_part,right_part
1325.7000000476837,Welcome to the experiment. Press Continue to begin.,0,Continue,Continue,html-button-response,0,1327,0.0-0.0,anomymised,65658159d48bb6bd55b14990,65671904f44ba3901dc10b0b,66605,1C,man,NA,NA,NA,NA,NA,NA,NA,NA,NA
9198,NA,NA,NA,NA,external-html,1,11567,0.0-1.0,anomymised,65658159d48bb6bd55b14990,65671904f44ba3901dc10b0b,66605,1C,man,consent.html,NA,NA,NA,NA,NA,NA,NA,NA
8541.700000047684,"<p>Welcome.</p><p>In this experiment we will ask you to imagine some situations.</p><p>Each trial starts with a description of an event.</p><p>Then you will see alternative descriptions of that event, and you will rate on a scale how best they match the original description.</p><p>You will give your answer by clicking a button on a rating scale.</p><p>To do this task, you will have to use your imagination to visualise these events.</p><br><p>Ready?</p>",0,Continue,Continue,html-button-response,2,20109,0.0-2.0,anomymised,65658159d48bb6bd55b14990,65671904f44ba3901dc10b0b,66605,1C,man,NA,NA,NA,NA,NA,NA,NA,NA,NA
2221.100000023842,"<p>Before the experiment starts, you will watch an example trial. Press 'Continue'.</p>",0,Continue,Continue,html-button-response,3,23334,0.0-3.0,anomymised,65658159d48bb6bd55b14990,65671904f44ba3901dc10b0b,66605,1C,man,NA,NA,NA,NA,NA,NA,NA,NA,NA
null,The police officer is arresting the robber,NA,NA,NA,html-keyboard-response,4,26351,0.0-4.0,anomymised,65658159d48bb6bd55b14990,65671904f44ba3901dc10b0b,66605,1C,man,NA,null,NA,NA,NA,NA,NA,NA,NA
9417.600000023842,<img src='img/Example-trial.jpg' style='height:550px;''></img>,0,Continue,Continue,html-button-response,5,35769,0.0-5.0,anomymised,65658159d48bb6bd55b14990,65671904f44ba3901dc10b0b,66605,1C,man,NA,NA,NA,NA,NA,NA,NA,NA,NA
1714.1000000238419,<p>Ready to start the experiment?</p><br><p><strong>Remember to give an answer by clicking a button on the rating scale.</strong></p><p>Press 'Continue' to begin.</p>,0,Continue,Continue,html-button-response,6,38497,0.0-6.0,anomymised,65658159d48bb6bd55b14990,65671904f44ba3901dc10b0b,66605,1C,man,NA,NA,NA,NA,NA,NA,NA,NA,NA
null,Luke is being challenged by Kate,NA,NA,NA,html-keyboard-response,7,41521,0.0-7.0-0.0,anomymised,65658159d48bb6bd55b14990,65671904f44ba3901dc10b0b,66605,1C,man,NA,null,M1 is being challenged by W3,challenge4,sentence,NA,NA,NA,NA
8065.800000071526,NA,NA,NA,NA,survey-likert-extra-labels,8,49588,0.0-7.0-1.0-0.0,anomymised,65658159d48bb6bd55b14990,65671904f44ba3901dc10b0b,66605,1C,man,NA,NA,M1 is being challenged by W3,challenge4,rating_causation,"{""Q0"":0}",[0],W3 started challenging M1 first,M1 started challenging W3 first
7421.100000023842,NA,NA,NA,NA,survey-likert-extra-labels,9,57010,0.0-7.0-2.0,anomymised,65658159d48bb6bd55b14990,65671904f44ba3901dc10b0b,66605,1C,man,NA,NA,M1 is being challenged by W3,challenge4,rating_volition,"{""Q0"":3}",[0],W3 wanted to challenge M1,M1 wanted to challenge W3
null,Fred is hiring Ruth,NA,NA,NA,html-keyboard-response,10,59016,0.0-8.0-0.0,anomymised,65658159d48bb6bd55b14990,65671904f44ba3901dc10b0b,66605,1C,man,NA,null,M3 is hiring W1,hire,sentence,NA,NA,NA,NA
3980.2000000476837,NA,NA,NA,NA,survey-likert-extra-labels,11,62996,0.0-8.0-1.0-0.0,anomymised,65658159d48bb6bd55b14990,65671904f44ba3901dc10b0b,66605,1C,man,NA,NA,M3 is hiring W1,hire,rating_causation,"{""Q0"":6}",[0],M3 will work for W1,W1 will work for M3
4239.600000023842,NA,NA,NA,NA,survey-likert-extra-labels,12,67236,0.0-8.0-2.0,anomymised,65658159d48bb6bd55b14990,65671904f44ba3901dc10b0b,66605,1C,man,NA,NA,M3 is hiring W1,hire,rating_volition,"{""Q0"":0}",[0],M3 is employing W1,W1 is employing M3
null,Ruth is being seduced by Fred,NA,NA,NA,html-keyboard-response,13,69238,0.0-9.0-0.0,anomymised,65658159d48bb6bd55b14990,65671904f44ba3901dc10b0b,66605,1C,man,NA,null,W1 is being seduced by M3,seduce4,sentence,NA,NA,NA,NA
4047.399999976158,NA,NA,NA,NA,survey-likert-extra-labels,14,73286,0.0-9.0-2.0,anomymised,65658159d48bb6bd55b14990,65671904f44ba3901dc10b0b,66605,1C,man,NA,NA,W1 is being seduced by M3,seduce4,rating_volition,"{""Q0"":0}",[0],M3 wanted to seducing W1,W1 wanted to seducing M3
5861.700000047684,NA,NA,NA,NA,survey-likert-extra-labels,15,79149,0.0-9.0-3.0-0.0,anomymised,65658159d48bb6bd55b14990,65671904f44ba3901dc10b0b,66605,1C,man,NA,NA,W1 is being seduced by M3,seduce4,rating_causation,"{""Q0"":3}",[0],M3 started seducing W1 first,W1 started seducing M3 first
null,Luke is being looked at by Fred,NA,NA,NA,html-keyboard-response,16,81155,0.0-10.0-0.0,anomymised,65658159d48bb6bd55b14990,65671904f44ba3901dc10b0b,66605,1C,man,NA,null,M1 is being looked at by M3,look2,sentence,NA,NA,NA,NA
5033.199999928474,NA,NA,NA,NA,survey-likert-extra-labels,17,86189,0.0-10.0-1.0-0.0,anomymised,65658159d48bb6bd55b14990,65671904f44ba3901dc10b0b,66605,1C,man,NA,NA,M1 is being looked at by M3,look2,rating_causation,"{""Q0"":3}",[0],M1 looked at M3 first,M3 looked at M1 first
3582.899999976158,NA,NA,NA,NA,survey-likert-extra-labels,18,89773,0.0-10.0-2.0,anomymised,65658159d48bb6bd55b14990,65671904f44ba3901dc10b0b,66605,1C,man,NA,NA,M1 is being looked at by M3,look2,rating_volition,"{""Q0"":3}",[0],M1 wanted to look at M3,M3 wanted to look at M1
null,Beth is being hugged by Mike,NA,NA,NA,html-keyboard-response,19,91775,0.0-11.0-0.0,anomymised,65658159d48bb6bd55b14990,65671904f44ba3901dc10b0b,66605,1C,man,NA,null,W4 is being hugged by M2,hug4,sentence,NA,NA,NA,NA
5796.299999952316,NA,NA,NA,NA,survey-likert-extra-labels,20,97572,0.0-11.0-1.0-0.0,anomymised,65658159d48bb6bd55b14990,65671904f44ba3901dc10b0b,66605,1C,man,NA,NA,W4 is being hugged by M2,hug4,rating_causation,"{""Q0"":3}",[0],M2 asked to hug W4,W4 asked to hug M2
2694.7999999523163,NA,NA,NA,NA,survey-likert-extra-labels,21,100268,0.0-11.0-2.0,anomymised,65658159d48bb6bd55b14990,65671904f44ba3901dc10b0b,66605,1C,man,NA,NA,W4 is being hugged by M2,hug4,rating_volition,"{""Q0"":3}",[0],M2 wanted to hug W4,W4 wanted to hug M2
null,Luke is driving Fred,NA,NA,NA,html-keyboard-response,22,102274,0.0-12.0-0.0,anomymised,65658159d48bb6bd55b14990,65671904f44ba3901dc10b0b,66605,1C,man,NA,null,M1 is driving M3,drive,sentence,NA,NA,NA,NA
5271.600000023842,NA,NA,NA,NA,survey-likert-extra-labels,23,107546,0.0-12.0-1.0-0.0,anomymised,65658159d48bb6bd55b14990,65671904f44ba3901dc10b0b,66605,1C,man,NA,NA,M1 is driving M3,drive,rating_causation,"{""Q0"":0}",[0],M1 is taking M3 somewhere,M3 is taking M1 somewhere
8032.100000023842,NA,NA,NA,NA,survey-likert-extra-labels,24,115579,0.0-12.0-2.0,anomymised,65658159d48bb6bd55b14990,65671904f44ba3901dc10b0b,66605,1C,man,NA,NA,M1 is driving M3,drive,rating_volition,"{""Q0"":6}",[0],M1 is M3's passenger,M3 is M1's passenger
null,Jane is teaching Dave,NA,NA,NA,html-keyboard-response,25,117585,0.0-13.0-0.0,anomymised,65658159d48bb6bd55b14990,65671904f44ba3901dc10b0b,66605,1C,man,NA,null,W2 is teaching M4,teach,sentence,NA,NA,NA,NA
4295.5,NA,NA,NA,NA,survey-likert-extra-labels,26,121882,0.0-13.0-2.0,anomymised,65658159d48bb6bd55b14990,65671904f44ba3901dc10b0b,66605,1C,man,NA,NA,W2 is teaching M4,teach,rating_volition,"{""Q0"":0}",[0],W2 is educating M4,M4 is educating W2
2894,NA,NA,NA,NA,survey-likert-extra-labels,27,124776,0.0-13.0-3.0-0.0,anomymised,65658159d48bb6bd55b14990,65671904f44ba3901dc10b0b,66605,1C,man,NA,NA,W2 is teaching M4,teach,rating_causation,"{""Q0"":6}",[0],W2 is learning from M4,M4 is learning from W2
null,Dave is being shouted at by Jane,NA,NA,NA,html-keyboard-response,28,126790,0.0-14.0-0.0,anomymised,65658159d48bb6bd55b14990,65671904f44ba3901dc10b0b,66605,1C,man,NA,null,M4 is being shouted at by W2,shout4,sentence,NA,NA,NA,NA
6668,NA,NA,NA,NA,survey-likert-extra-labels,29,133458,0.0-14.0-2.0,anomymised,65658159d48bb6bd55b14990,65671904f44ba3901dc10b0b,66605,1C,man,NA,NA,M4 is being shouted at by W2,shout4,rating_volition,"{""Q0"":0}",[0],W2 wanted to shout at M4,M4 wanted to shout at W2
13076.799999952316,NA,NA,NA,NA,survey-likert-extra-labels,30,146536,0.0-14.0-3.0-0.0,anomymised,65658159d48bb6bd55b14990,65671904f44ba3901dc10b0b,66605,1C,man,NA,NA,M4 is being shouted at by W2,shout4,rating_causation,"{""Q0"":3}",[0],W2 shouted at M4 first,M4 shouted at W2 first
null,Kate is being opposed by Ruth,NA,NA,NA,html-keyboard-response,31,148546,0.0-15.0-0.0,anomymised,65658159d48bb6bd55b14990,65671904f44ba3901dc10b0b,66605,1C,man,NA,null,W3 is being opposed by W1,oppose1,sentence,NA,NA,NA,NA
4414.300000071526,NA,NA,NA,NA,survey-likert-extra-labels,32,152960,0.0-15.0-1.0-0.0,anomymised,65658159d48bb6bd55b14990,65671904f44ba3901dc10b0b,66605,1C,man,NA,NA,W3 is being opposed by W1,oppose1,rating_causation,"{""Q0"":0}",[0],W1 started opposing W3,W3 started opposing W1
4826.200000047684,NA,NA,NA,NA,survey-likert-extra-labels,33,157787,0.0-15.0-2.0,anomymised,65658159d48bb6bd55b14990,65671904f44ba3901dc10b0b,66605,1C,man,NA,NA,W3 is being opposed by W1,oppose1,rating_volition,"{""Q0"":3}",[0],W1 wanted to oppose W3,W3 wanted to oppose W1
null,Luke is being touched by Kate,NA,NA,NA,html-keyboard-response,34,159789,0.0-16.0-0.0,anomymised,65658159d48bb6bd55b14990,65671904f44ba3901dc10b0b,66605,1C,man,NA,null,M1 is being touched by W3,touch3,sentence,NA,NA,NA,NA
5129.399999976158,NA,NA,NA,NA,survey-likert-extra-labels,35,164919,0.0-16.0-2.0,anomymised,65658159d48bb6bd55b14990,65671904f44ba3901dc10b0b,66605,1C,man,NA,NA,M1 is being touched by W3,touch3,rating_volition,"{""Q0"":0}",[0],W3 wanted to touch M1,M1 wanted to touch W3
2364.8000000715256,NA,NA,NA,NA,survey-likert-extra-labels,36,167284,0.0-16.0-3.0-0.0,anomymised,65658159d48bb6bd55b14990,65671904f44ba3901dc10b0b,66605,1C,man,NA,NA,M1 is being touched by W3,touch3,rating_causation,"{""Q0"":3}",[0],W3 asked to touch M1,M1 asked to touch W3
null,Fred is being greeted by Ruth,NA,NA,NA,html-keyboard-response,37,169291,0.0-17.0-0.0,anomymised,65658159d48bb6bd55b14990,65671904f44ba3901dc10b0b,66605,1C,man,NA,null,M3 is being greeted by W1,greet3,sentence,NA,NA,NA,NA
6742,NA,NA,NA,NA,survey-likert-extra-labels,38,176033,0.0-17.0-2.0,anomymised,65658159d48bb6bd55b14990,65671904f44ba3901dc10b0b,66605,1C,man,NA,NA,M3 is being greeted by W1,greet3,rating_volition,"{""Q0"":4}",[0],M3 wanted to greet W1,W1 wanted to greet M3
3230.4000000953674,NA,NA,NA,NA,survey-likert-extra-labels,39,179264,0.0-17.0-3.0-0.0,anomymised,65658159d48bb6bd55b14990,65671904f44ba3901dc10b0b,66605,1C,man,NA,NA,M3 is being greeted by W1,greet3,rating_causation,"{""Q0"":4}",[0],M3 started greeting W1 first,W1 started greeting M3 first
null,Dave is being opposed by Jane,NA,NA,NA,html-keyboard-response,40,181267,0.0-18.0-0.0,anomymised,65658159d48bb6bd55b14990,65671904f44ba3901dc10b0b,66605,1C,man,NA,null,M4 is being opposed by W2,oppose3,sentence,NA,NA,NA,NA
5822.100000023842,NA,NA,NA,NA,survey-likert-extra-labels,41,187089,0.0-18.0-1.0-0.0,anomymised,65658159d48bb6bd55b14990,65671904f44ba3901dc10b0b,66605,1C,man,NA,NA,M4 is being opposed by W2,oppose3,rating_causation,"{""Q0"":2}",[0],W2 started opposing M4,M4 started opposing W2
5678.100000023842,NA,NA,NA,NA,survey-likert-extra-labels,42,192768,0.0-18.0-2.0,anomymised,65658159d48bb6bd55b14990,65671904f44ba3901dc10b0b,66605,1C,man,NA,NA,M4 is being opposed by W2,oppose3,rating_volition,"{""Q0"":4}",[0],W2 wanted to oppose M4,M4 wanted to oppose W2
null,Mike is being copied by Dave,NA,NA,NA,html-keyboard-response,43,194770,0.0-19.0-0.0,anomymised,65658159d48bb6bd55b14990,65671904f44ba3901dc10b0b,66605,1C,man,NA,null,M2 is being copied by M4,copy2,sentence,NA,NA,NA,NA
4592.800000071526,NA,NA,NA,NA,survey-likert-extra-labels,44,199363,0.0-19.0-2.0,anomymised,65658159d48bb6bd55b14990,65671904f44ba3901dc10b0b,66605,1C,man,NA,NA,M2 is being copied by M4,copy2,rating_volition,"{""Q0"":4}",[0],M2 wanted to copy M4,M4 wanted to copy M2
6269.799999952316,NA,NA,NA,NA,survey-likert-extra-labels,45,205634,0.0-19.0-3.0-0.0,anomymised,65658159d48bb6bd55b14990,65671904f44ba3901dc10b0b,66605,1C,man,NA,NA,M2 is being copied by M4,copy2,rating_causation,"{""Q0"":4}",[0],M2 started copying M4 first,M4 started copying M2 first
null,Mike is being greeted by Dave,NA,NA,NA,html-keyboard-response,46,207648,0.0-20.0-0.0,anomymised,65658159d48bb6bd55b14990,65671904f44ba3901dc10b0b,66605,1C,man,NA,null,M2 is being greeted by M4,greet2,sentence,NA,NA,NA,NA
3278.5,NA,NA,NA,NA,survey-likert-extra-labels,47,210927,0.0-20.0-1.0-0.0,anomymised,65658159d48bb6bd55b14990,65671904f44ba3901dc10b0b,66605,1C,man,NA,NA,M2 is being greeted by M4,greet2,rating_causation,"{""Q0"":4}",[0],M2 started greeting M4 first,M4 started greeting M2 first
4626.399999976158,NA,NA,NA,NA,survey-likert-extra-labels,48,215554,0.0-20.0-2.0,anomymised,65658159d48bb6bd55b14990,65671904f44ba3901dc10b0b,66605,1C,man,NA,NA,M2 is being greeted by M4,greet2,rating_volition,"{""Q0"":4}",[0],M2 wanted to greet M4,M4 wanted to greet M2
null,Kate is being greeted by Luke,NA,NA,NA,html-keyboard-response,49,217556,0.0-21.0-0.0,anomymised,65658159d48bb6bd55b14990,65671904f44ba3901dc10b0b,66605,1C,man,NA,null,W3 is being greeted by M1,greet4,sentence,NA,NA,NA,NA
1852.6000000238419,NA,NA,NA,NA,survey-likert-extra-labels,50,219409,0.0-21.0-2.0,anomymised,65658159d48bb6bd55b14990,65671904f44ba3901dc10b0b,66605,1C,man,NA,NA,W3 is being greeted by M1,greet4,rating_volition,"{""Q0"":4}",[0],W3 wanted to greet M1,M1 wanted to greet W3
1520,NA,NA,NA,NA,survey-likert-extra-labels,51,220930,0.0-21.0-3.0-0.0,anomymised,65658159d48bb6bd55b14990,65671904f44ba3901dc10b0b,66605,1C,man,NA,NA,W3 is being greeted by M1,greet4,rating_causation,"{""Q0"":4}",[0],W3 started greeting M1 first,M1 started greeting W3 first
null,Fred is being copied by Ruth,NA,NA,NA,html-keyboard-response,52,222931,0.0-22.0-0.0,anomymised,65658159d48bb6bd55b14990,65671904f44ba3901dc10b0b,66605,1C,man,NA,null,M3 is being copied by W1,copy4,sentence,NA,NA,NA,NA
2283.2000000476837,NA,NA,NA,NA,survey-likert-extra-labels,53,225215,0.0-22.0-2.0,anomymised,65658159d48bb6bd55b14990,65671904f44ba3901dc10b0b,66605,1C,man,NA,NA,M3 is being copied by W1,copy4,rating_volition,"{""Q0"":4}",[0],M3 wanted to copy W1,W1 wanted to copy M3
1704.6999999284744,NA,NA,NA,NA,survey-likert-extra-labels,54,226920,0.0-22.0-3.0-0.0,anomymised,65658159d48bb6bd55b14990,65671904f44ba3901dc10b0b,66605,1C,man,NA,NA,M3 is being copied by W1,copy4,rating_causation,"{""Q0"":4}",[0],M3 started copying W1 first,W1 started copying M3 first
null,Beth is being opposed by Mike,NA,NA,NA,html-keyboard-response,55,228923,0.0-23.0-0.0,anomymised,65658159d48bb6bd55b14990,65671904f44ba3901dc10b0b,66605,1C,man,NA,null,W4 is being opposed by M2,oppose4,sentence,NA,NA,NA,NA
2902.8000000715256,NA,NA,NA,NA,survey-likert-extra-labels,56,231826,0.0-23.0-2.0,anomymised,65658159d48bb6bd55b14990,65671904f44ba3901dc10b0b,66605,1C,man,NA,NA,W4 is being opposed by M2,oppose4,rating_volition,"{""Q0"":2}",[0],M2 wanted to oppose W4,W4 wanted to oppose M2
2623.1999999284744,NA,NA,NA,NA,survey-likert-extra-labels,57,234450,0.0-23.0-3.0-0.0,anomymised,65658159d48bb6bd55b14990,65671904f44ba3901dc10b0b,66605,1C,man,NA,NA,W4 is being opposed by M2,oppose4,rating_causation,"{""Q0"":2}",[0],M2 started opposing W4,W4 started opposing M2
null,Kate is being hugged by Ruth,NA,NA,NA,html-keyboard-response,58,236460,0.0-24.0-0.0,anomymised,65658159d48bb6bd55b14990,65671904f44ba3901dc10b0b,66605,1C,man,NA,null,W3 is being hugged by W1,hug1,sentence,NA,NA,NA,NA
4768.700000047684,NA,NA,NA,NA,survey-likert-extra-labels,59,241229,0.0-24.0-2.0,anomymised,65658159d48bb6bd55b14990,65671904f44ba3901dc10b0b,66605,1C,man,NA,NA,W3 is being hugged by W1,hug1,rating_volition,"{""Q0"":2}",[0],W1 wanted to hug W3,W3 wanted to hug W1
7061.800000071526,NA,NA,NA,NA,survey-likert-extra-labels,60,248292,0.0-24.0-3.0-0.0,anomymised,65658159d48bb6bd55b14990,65671904f44ba3901dc10b0b,66605,1C,man,NA,NA,W3 is being hugged by W1,hug1,rating_causation,"{""Q0"":2}",[0],W1 asked to hug W3,W3 asked to hug W1
null,Mike is being kissed by Beth,NA,NA,NA,html-keyboard-response,61,250299,0.0-25.0-0.0,anomymised,65658159d48bb6bd55b14990,65671904f44ba3901dc10b0b,66605,1C,man,NA,null,M2 is being kissed by W4,kiss3,sentence,NA,NA,NA,NA
4152.900000095367,NA,NA,NA,NA,survey-likert-extra-labels,62,254452,0.0-25.0-2.0,anomymised,65658159d48bb6bd55b14990,65671904f44ba3901dc10b0b,66605,1C,man,NA,NA,M2 is being kissed by W4,kiss3,rating_volition,"{""Q0"":4}",[0],M2 wanted to kiss W4,W4 wanted to kiss M2
5767.200000047684,NA,NA,NA,NA,survey-likert-extra-labels,63,260220,0.0-25.0-3.0-0.0,anomymised,65658159d48bb6bd55b14990,65671904f44ba3901dc10b0b,66605,1C,man,NA,NA,M2 is being kissed by W4,kiss3,rating_causation,"{""Q0"":4}",[0],M2 asked to kiss W4,W4 asked to kiss M2
null,Luke is being kissed by Fred,NA,NA,NA,html-keyboard-response,64,262223,0.0-26.0-0.0,anomymised,65658159d48bb6bd55b14990,65671904f44ba3901dc10b0b,66605,1C,man,NA,null,M1 is being kissed by M3,kiss2,sentence,NA,NA,NA,NA
2372.399999976158,NA,NA,NA,NA,survey-likert-extra-labels,65,264596,0.0-26.0-2.0,anomymised,65658159d48bb6bd55b14990,65671904f44ba3901dc10b0b,66605,1C,man,NA,NA,M1 is being kissed by M3,kiss2,rating_volition,"{""Q0"":4}",[0],M1 wanted to kiss M3,M3 wanted to kiss M1
3391.7999999523163,NA,NA,NA,NA,survey-likert-extra-labels,66,267988,0.0-26.0-3.0-0.0,anomymised,65658159d48bb6bd55b14990,65671904f44ba3901dc10b0b,66605,1C,man,NA,NA,M1 is being kissed by M3,kiss2,rating_causation,"{""Q0"":4}",[0],M1 asked to kiss M3,M3 asked to kiss M1
null,Fred is being shouted at by Luke,NA,NA,NA,html-keyboard-response,67,270003,0.0-27.0-0.0,anomymised,65658159d48bb6bd55b14990,65671904f44ba3901dc10b0b,66605,1C,man,NA,null,M3 is being shouted at by M1,shout2,sentence,NA,NA,NA,NA
4735.899999976158,NA,NA,NA,NA,survey-likert-extra-labels,68,274739,0.0-27.0-2.0,anomymised,65658159d48bb6bd55b14990,65671904f44ba3901dc10b0b,66605,1C,man,NA,NA,M3 is being shouted at by M1,shout2,rating_volition,"{""Q0"":2}",[0],M1 wanted to shout at M3,M3 wanted to shout at M1
3376.5,NA,NA,NA,NA,survey-likert-extra-labels,69,278117,0.0-27.0-3.0-0.0,anomymised,65658159d48bb6bd55b14990,65671904f44ba3901dc10b0b,66605,1C,man,NA,NA,M3 is being shouted at by M1,shout2,rating_causation,"{""Q0"":2}",[0],M1 shouted at M3 first,M3 shouted at M1 first
null,Fred is being hugged by Luke,NA,NA,NA,html-keyboard-response,70,280126,0.0-28.0-0.0,anomymised,65658159d48bb6bd55b14990,65671904f44ba3901dc10b0b,66605,1C,man,NA,null,M3 is being hugged by M1,hug2,sentence,NA,NA,NA,NA
3989.5,NA,NA,NA,NA,survey-likert-extra-labels,71,284116,0.0-28.0-2.0,anomymised,65658159d48bb6bd55b14990,65671904f44ba3901dc10b0b,66605,1C,man,NA,NA,M3 is being hugged by M1,hug2,rating_volition,"{""Q0"":2}",[0],M1 wanted to hug M3,M3 wanted to hug M1
1720,NA,NA,NA,NA,survey-likert-extra-labels,72,285836,0.0-28.0-3.0-0.0,anomymised,65658159d48bb6bd55b14990,65671904f44ba3901dc10b0b,66605,1C,man,NA,NA,M3 is being hugged by M1,hug2,rating_causation,"{""Q0"":2}",[0],M1 asked to hug M3,M3 asked to hug M1
null,Ruth is being touched by Fred,NA,NA,NA,html-keyboard-response,73,287847,0.0-29.0-0.0,anomymised,65658159d48bb6bd55b14990,65671904f44ba3901dc10b0b,66605,1C,man,NA,null,W1 is being touched by M3,touch4,sentence,NA,NA,NA,NA
2588.100000023842,NA,NA,NA,NA,survey-likert-extra-labels,74,290436,0.0-29.0-2.0,anomymised,65658159d48bb6bd55b14990,65671904f44ba3901dc10b0b,66605,1C,man,NA,NA,W1 is being touched by M3,touch4,rating_volition,"{""Q0"":2}",[0],M3 wanted to touch W1,W1 wanted to touch M3
1687.3999999761581,NA,NA,NA,NA,survey-likert-extra-labels,75,292124,0.0-29.0-3.0-0.0,anomymised,65658159d48bb6bd55b14990,65671904f44ba3901dc10b0b,66605,1C,man,NA,NA,W1 is being touched by M3,touch4,rating_causation,"{""Q0"":2}",[0],M3 asked to touch W1,W1 asked to touch M3
null,Dave is being challenged by Mike,NA,NA,NA,html-keyboard-response,76,294133,0.0-30.0-0.0,anomymised,65658159d48bb6bd55b14990,65671904f44ba3901dc10b0b,66605,1C,man,NA,null,M4 is being challenged by M2,challenge2,sentence,NA,NA,NA,NA
1911.2999999523163,NA,NA,NA,NA,survey-likert-extra-labels,77,296044,0.0-30.0-2.0,anomymised,65658159d48bb6bd55b14990,65671904f44ba3901dc10b0b,66605,1C,man,NA,NA,M4 is being challenged by M2,challenge2,rating_volition,"{""Q0"":2}",[0],M2 wanted to challenge M4,M4 wanted to challenge M2
1654.7000000476837,NA,NA,NA,NA,survey-likert-extra-labels,78,297700,0.0-30.0-3.0-0.0,anomymised,65658159d48bb6bd55b14990,65671904f44ba3901dc10b0b,66605,1C,man,NA,NA,M4 is being challenged by M2,challenge2,rating_causation,"{""Q0"":2}",[0],M2 started challenging M4 first,M4 started challenging M2 first
null,Kate is feeding Luke,NA,NA,NA,html-keyboard-response,79,299706,0.0-31.0-0.0,anomymised,65658159d48bb6bd55b14990,65671904f44ba3901dc10b0b,66605,1C,man,NA,null,W3 is feeding M1,feed,sentence,NA,NA,NA,NA
6745.399999976158,NA,NA,NA,NA,survey-likert-extra-labels,80,306452,0.0-31.0-1.0-0.0,anomymised,65658159d48bb6bd55b14990,65671904f44ba3901dc10b0b,66605,1C,man,NA,NA,W3 is feeding M1,feed,rating_causation,"{""Q0"":4}",[0],W3 is eating M1's food,M1 is eating W3's food
3463.1999999284744,NA,NA,NA,NA,survey-likert-extra-labels,81,309916,0.0-31.0-2.0,anomymised,65658159d48bb6bd55b14990,65671904f44ba3901dc10b0b,66605,1C,man,NA,NA,W3 is feeding M1,feed,rating_volition,"{""Q0"":2}",[0],W3 cooked for M1,M1 cooked for W3
null,Mike is being looked at by Beth,NA,NA,NA,html-keyboard-response,82,311928,0.0-32.0-0.0,anomymised,65658159d48bb6bd55b14990,65671904f44ba3901dc10b0b,66605,1C,man,NA,null,M2 is being looked at by W4,look4,sentence,NA,NA,NA,NA
2267.3000000715256,NA,NA,NA,NA,survey-likert-extra-labels,83,314196,0.0-32.0-2.0,anomymised,65658159d48bb6bd55b14990,65671904f44ba3901dc10b0b,66605,1C,man,NA,NA,M2 is being looked at by W4,look4,rating_volition,"{""Q0"":2}",[0],M2 wanted to look at W4,W4 wanted to look at M2
2023,NA,NA,NA,NA,survey-likert-extra-labels,84,316220,0.0-32.0-3.0-0.0,anomymised,65658159d48bb6bd55b14990,65671904f44ba3901dc10b0b,66605,1C,man,NA,NA,M2 is being looked at by W4,look4,rating_causation,"{""Q0"":2}",[0],M2 looked at W4 first,W4 looked at M2 first
null,Ruth is being kissed by Kate,NA,NA,NA,html-keyboard-response,85,318231,0.0-33.0-0.0,anomymised,65658159d48bb6bd55b14990,65671904f44ba3901dc10b0b,66605,1C,man,NA,null,W1 is being kissed by W3,kiss1,sentence,NA,NA,NA,NA
4276.100000023842,NA,NA,NA,NA,survey-likert-extra-labels,86,322507,0.0-33.0-2.0,anomymised,65658159d48bb6bd55b14990,65671904f44ba3901dc10b0b,66605,1C,man,NA,NA,W1 is being kissed by W3,kiss1,rating_volition,"{""Q0"":4}",[0],W1 wanted to kiss W3,W3 wanted to kiss W1
1591.5,NA,NA,NA,NA,survey-likert-extra-labels,87,324100,0.0-33.0-3.0-0.0,anomymised,65658159d48bb6bd55b14990,65671904f44ba3901dc10b0b,66605,1C,man,NA,NA,W1 is being kissed by W3,kiss1,rating_causation,"{""Q0"":4}",[0],W1 asked to kiss W3,W3 asked to kiss W1
null,Ruth is chasing Kate,NA,NA,NA,html-keyboard-response,88,326111,0.0-34.0-0.0,anomymised,65658159d48bb6bd55b14990,65671904f44ba3901dc10b0b,66605,1C,man,NA,null,W1 is chasing W3,chase,sentence,NA,NA,NA,NA
4500.799999952316,NA,NA,NA,NA,survey-likert-extra-labels,89,330612,0.0-34.0-1.0-0.0,anomymised,65658159d48bb6bd55b14990,65671904f44ba3901dc10b0b,66605,1C,man,NA,NA,W1 is chasing W3,chase,rating_causation,"{""Q0"":4}",[0],W1 is running away from W3,W3 is running away from W1
5054.5,NA,NA,NA,NA,survey-likert-extra-labels,90,335667,0.0-34.0-2.0,anomymised,65658159d48bb6bd55b14990,65671904f44ba3901dc10b0b,66605,1C,man,NA,NA,W1 is chasing W3,chase,rating_volition,"{""Q0"":2}",[0],W1 is behind W3,W3 is behind W1
null,Jane is being kissed by Dave,NA,NA,NA,html-keyboard-response,91,337678,0.0-35.0-0.0,anomymised,65658159d48bb6bd55b14990,65671904f44ba3901dc10b0b,66605,1C,man,NA,null,W2 is being kissed by M4,kiss4,sentence,NA,NA,NA,NA
1757,NA,NA,NA,NA,survey-likert-extra-labels,92,339435,0.0-35.0-1.0-0.0,anomymised,65658159d48bb6bd55b14990,65671904f44ba3901dc10b0b,66605,1C,man,NA,NA,W2 is being kissed by M4,kiss4,rating_causation,"{""Q0"":4}",[0],W2 asked to kiss M4,M4 asked to kiss W2
1695.8999999761581,NA,NA,NA,NA,survey-likert-extra-labels,93,341132,0.0-35.0-2.0,anomymised,65658159d48bb6bd55b14990,65671904f44ba3901dc10b0b,66605,1C,man,NA,NA,W2 is being kissed by M4,kiss4,rating_volition,"{""Q0"":4}",[0],W2 wanted to kiss M4,M4 wanted to kiss W2
null,Beth is being touched by Jane,NA,NA,NA,html-keyboard-response,94,343144,0.0-36.0-0.0,anomymised,65658159d48bb6bd55b14990,65671904f44ba3901dc10b0b,66605,1C,man,NA,null,W4 is being touched by W2,touch1,sentence,NA,NA,NA,NA
5212.099999904633,NA,NA,NA,NA,survey-likert-extra-labels,95,348356,0.0-36.0-1.0-0.0,anomymised,65658159d48bb6bd55b14990,65671904f44ba3901dc10b0b,66605,1C,man,NA,NA,W4 is being touched by W2,touch1,rating_causation,"{""Q0"":2}",[0],W2 asked to touch W4,W4 asked to touch W2
3286.600000023842,NA,NA,NA,NA,survey-likert-extra-labels,96,351644,0.0-36.0-2.0,anomymised,65658159d48bb6bd55b14990,65671904f44ba3901dc10b0b,66605,1C,man,NA,NA,W4 is being touched by W2,touch1,rating_volition,"{""Q0"":2}",[0],W2 wanted to touch W4,W4 wanted to touch W2
null,Mike is posing for Dave,NA,NA,NA,html-keyboard-response,97,353650,0.0-37.0-0.0,anomymised,65658159d48bb6bd55b14990,65671904f44ba3901dc10b0b,66605,1C,man,NA,null,M2 is posing for M4,pose,sentence,NA,NA,NA,NA
3065.8000000715256,NA,NA,NA,NA,survey-likert-extra-labels,98,356716,0.0-37.0-1.0-0.0,anomymised,65658159d48bb6bd55b14990,65671904f44ba3901dc10b0b,66605,1C,man,NA,NA,M2 is posing for M4,pose,rating_causation,"{""Q0"":4}",[0],M2 is photographing M4,M4 is photographing M2
7318.899999976158,NA,NA,NA,NA,survey-likert-extra-labels,99,364035,0.0-37.0-2.0,anomymised,65658159d48bb6bd55b14990,65671904f44ba3901dc10b0b,66605,1C,man,NA,NA,M2 is posing for M4,pose,rating_volition,"{""Q0"":4}",[0],M2 is modelling for M4,M4 is modelling for M2
null,Dave is being seduced by Mike,NA,NA,NA,html-keyboard-response,100,366046,0.0-38.0-0.0,anomymised,65658159d48bb6bd55b14990,65671904f44ba3901dc10b0b,66605,1C,man,NA,null,M4 is being seduced by M2,seduce2,sentence,NA,NA,NA,NA
3108.100000023842,NA,NA,NA,NA,survey-likert-extra-labels,101,369155,0.0-38.0-2.0,anomymised,65658159d48bb6bd55b14990,65671904f44ba3901dc10b0b,66605,1C,man,NA,NA,M4 is being seduced by M2,seduce2,rating_volition,"{""Q0"":4}",[0],M2 wanted to seduce M4,M4 wanted to seduce M2
2159.6999999284744,NA,NA,NA,NA,survey-likert-extra-labels,102,371315,0.0-38.0-3.0-0.0,anomymised,65658159d48bb6bd55b14990,65671904f44ba3901dc10b0b,66605,1C,man,NA,NA,M4 is being seduced by M2,seduce2,rating_causation,"{""Q0"":4}",[0],M2 started seducing M4 first,M4 started seducing M2 first
null,Dave is being touched by Mike,NA,NA,NA,html-keyboard-response,103,373329,0.0-39.0-0.0,anomymised,65658159d48bb6bd55b14990,65671904f44ba3901dc10b0b,66605,1C,man,NA,null,M4 is being touched by M2,touch2,sentence,NA,NA,NA,NA
2897.2000000476837,NA,NA,NA,NA,survey-likert-extra-labels,104,376227,0.0-39.0-2.0,anomymised,65658159d48bb6bd55b14990,65671904f44ba3901dc10b0b,66605,1C,man,NA,NA,M4 is being touched by M2,touch2,rating_volition,"{""Q0"":2}",[0],M2 wanted to touch M4,M4 wanted to touch M2
1439.3999999761581,NA,NA,NA,NA,survey-likert-extra-labels,105,377667,0.0-39.0-3.0-0.0,anomymised,65658159d48bb6bd55b14990,65671904f44ba3901dc10b0b,66605,1C,man,NA,NA,M4 is being touched by M2,touch2,rating_causation,"{""Q0"":2}",[0],M2 asked to touch M4,M4 asked to touch M2
null,Kate is being copied by Luke,NA,NA,NA,html-keyboard-response,106,379680,0.0-40.0-0.0,anomymised,65658159d48bb6bd55b14990,65671904f44ba3901dc10b0b,66605,1C,man,NA,null,W3 is being copied by M1,copy3,sentence,NA,NA,NA,NA
6355.600000023842,NA,NA,NA,NA,survey-likert-extra-labels,107,386036,0.0-40.0-2.0,anomymised,65658159d48bb6bd55b14990,65671904f44ba3901dc10b0b,66605,1C,man,NA,NA,W3 is being copied by M1,copy3,rating_volition,"{""Q0"":4}",[0],W3 wanted to copy M1,M1 wanted to copy W3
4805.800000071526,NA,NA,NA,NA,survey-likert-extra-labels,108,390843,0.0-40.0-3.0-0.0,anomymised,65658159d48bb6bd55b14990,65671904f44ba3901dc10b0b,66605,1C,man,NA,NA,W3 is being copied by M1,copy3,rating_causation,"{""Q0"":4}",[0],W3 started copying M1 first,M1 started copying W3 first
null,Fred is being opposed by Luke,NA,NA,NA,html-keyboard-response,109,392858,0.0-41.0-0.0,anomymised,65658159d48bb6bd55b14990,65671904f44ba3901dc10b0b,66605,1C,man,NA,null,M3 is being opposed by M1,oppose2,sentence,NA,NA,NA,NA
7948.5,NA,NA,NA,NA,survey-likert-extra-labels,110,400807,0.0-41.0-2.0,anomymised,65658159d48bb6bd55b14990,65671904f44ba3901dc10b0b,66605,1C,man,NA,NA,M3 is being opposed by M1,oppose2,rating_volition,"{""Q0"":2}",[0],M1 wanted to oppose M3,M3 wanted to oppose M1
7090.5,NA,NA,NA,NA,survey-likert-extra-labels,111,407898,0.0-41.0-3.0-0.0,anomymised,65658159d48bb6bd55b14990,65671904f44ba3901dc10b0b,66605,1C,man,NA,NA,M3 is being opposed by M1,oppose2,rating_causation,"{""Q0"":2}",[0],M1 started opposing M3,M3 started opposing M1
null,Mike is reminding Beth,NA,NA,NA,html-keyboard-response,112,409910,0.0-42.0-0.0,anomymised,65658159d48bb6bd55b14990,65671904f44ba3901dc10b0b,66605,1C,man,NA,null,M2 is reminding W4,remind,sentence,NA,NA,NA,NA
3044.7000000476837,NA,NA,NA,NA,survey-likert-extra-labels,113,412955,0.0-42.0-2.0,anomymised,65658159d48bb6bd55b14990,65671904f44ba3901dc10b0b,66605,1C,man,NA,NA,M2 is reminding W4,remind,rating_volition,"{""Q0"":2}",[0],M2 is telling W4 again,W4 is telling M2 again
2527.2999999523163,NA,NA,NA,NA,survey-likert-extra-labels,114,415483,0.0-42.0-3.0-0.0,anomymised,65658159d48bb6bd55b14990,65671904f44ba3901dc10b0b,66605,1C,man,NA,NA,M2 is reminding W4,remind,rating_causation,"{""Q0"":4}",[0],M2 is remembering,W4 is remembering
null,Dave is being hugged by Jane,NA,NA,NA,html-keyboard-response,115,417498,0.0-43.0-0.0,anomymised,65658159d48bb6bd55b14990,65671904f44ba3901dc10b0b,66605,1C,man,NA,null,M4 is being hugged by W2,hug3,sentence,NA,NA,NA,NA
8512.800000071526,NA,NA,NA,NA,survey-likert-extra-labels,116,426012,0.0-43.0-1.0-0.0,anomymised,65658159d48bb6bd55b14990,65671904f44ba3901dc10b0b,66605,1C,man,NA,NA,M4 is being hugged by W2,hug3,rating_causation,"{""Q0"":4}",[0],W2 asked to hug M4,M4 asked to hug W2
8238.800000071526,NA,NA,NA,NA,survey-likert-extra-labels,117,434251,0.0-43.0-2.0,anomymised,65658159d48bb6bd55b14990,65671904f44ba3901dc10b0b,66605,1C,man,NA,NA,M4 is being hugged by W2,hug3,rating_volition,"{""Q0"":2}",[0],W2 wanted to hug M4,M4 wanted to hug W2
null,Beth is being seduced by Jane,NA,NA,NA,html-keyboard-response,118,436265,0.0-44.0-0.0,anomymised,65658159d48bb6bd55b14990,65671904f44ba3901dc10b0b,66605,1C,man,NA,null,W4 is being seduced by W2,seduce1,sentence,NA,NA,NA,NA
6721.099999904633,NA,NA,NA,NA,survey-likert-extra-labels,119,442987,0.0-44.0-1.0-0.0,anomymised,65658159d48bb6bd55b14990,65671904f44ba3901dc10b0b,66605,1C,man,NA,NA,W4 is being seduced by W2,seduce1,rating_causation,"{""Q0"":2}",[0],W2 started seducing W4 first,W4 started seducing W2 first
2239.7999999523163,NA,NA,NA,NA,survey-likert-extra-labels,120,445228,0.0-44.0-2.0,anomymised,65658159d48bb6bd55b14990,65671904f44ba3901dc10b0b,66605,1C,man,NA,NA,W4 is being seduced by W2,seduce1,rating_volition,"{""Q0"":2}",[0],W2 wanted to seduce W4,W4 wanted to seduce W2
null,Ruth is being looked at by Kate,NA,NA,NA,html-keyboard-response,121,447231,0.0-45.0-0.0,anomymised,65658159d48bb6bd55b14990,65671904f44ba3901dc10b0b,66605,1C,man,NA,null,W1 is being looked at by W3,look1,sentence,NA,NA,NA,NA
7603.700000047684,NA,NA,NA,NA,survey-likert-extra-labels,122,454835,0.0-45.0-1.0-0.0,anomymised,65658159d48bb6bd55b14990,65671904f44ba3901dc10b0b,66605,1C,man,NA,NA,W1 is being looked at by W3,look1,rating_causation,"{""Q0"":4}",[0],W1 looked at W3 first,W3 looked at W1 first
5014.5,NA,NA,NA,NA,survey-likert-extra-labels,123,459851,0.0-45.0-2.0,anomymised,65658159d48bb6bd55b14990,65671904f44ba3901dc10b0b,66605,1C,man,NA,NA,W1 is being looked at by W3,look1,rating_volition,"{""Q0"":4}",[0],W1 wanted to look at W3,W3 wanted to look at W1
null,Kate is being shouted at by Ruth,NA,NA,NA,html-keyboard-response,124,461861,0.0-46.0-0.0,anomymised,65658159d48bb6bd55b14990,65671904f44ba3901dc10b0b,66605,1C,man,NA,null,W3 is being shouted at by W1,shout1,sentence,NA,NA,NA,NA
7252.700000047684,NA,NA,NA,NA,survey-likert-extra-labels,125,469114,0.0-46.0-2.0,anomymised,65658159d48bb6bd55b14990,65671904f44ba3901dc10b0b,66605,1C,man,NA,NA,W3 is being shouted at by W1,shout1,rating_volition,"{""Q0"":2}",[0],W1 wanted to shout at W3,W3 wanted to shout at W1
2832.5,NA,NA,NA,NA,survey-likert-extra-labels,126,471947,0.0-46.0-3.0-0.0,anomymised,65658159d48bb6bd55b14990,65671904f44ba3901dc10b0b,66605,1C,man,NA,NA,W3 is being shouted at by W1,shout1,rating_causation,"{""Q0"":2}",[0],W1 shouted at W3 first,W3 shouted at W1 first
null,Beth is being shouted at by Mike,NA,NA,NA,html-keyboard-response,127,473961,0.0-47.0-0.0,anomymised,65658159d48bb6bd55b14990,65671904f44ba3901dc10b0b,66605,1C,man,NA,null,W4 is being shouted at by M2,shout3,sentence,NA,NA,NA,NA
21690.100000023842,NA,NA,NA,NA,survey-likert-extra-labels,128,495651,0.0-47.0-1.0-0.0,anomymised,65658159d48bb6bd55b14990,65671904f44ba3901dc10b0b,66605,1C,man,NA,NA,W4 is being shouted at by M2,shout3,rating_causation,"{""Q0"":2}",[0],M2 shouted at W4 first,W4 shouted at M2 first
5575,NA,NA,NA,NA,survey-likert-extra-labels,129,501227,0.0-47.0-2.0,anomymised,65658159d48bb6bd55b14990,65671904f44ba3901dc10b0b,66605,1C,man,NA,NA,W4 is being shouted at by M2,shout3,rating_volition,"{""Q0"":2}",[0],M2 wanted to shout at W4,W4 wanted to shout at M2
null,Jane is being looked at by Dave,NA,NA,NA,html-keyboard-response,130,503240,0.0-48.0-0.0,anomymised,65658159d48bb6bd55b14990,65671904f44ba3901dc10b0b,66605,1C,man,NA,null,W2 is being looked at by M4,look3,sentence,NA,NA,NA,NA
2938.1999999284744,NA,NA,NA,NA,survey-likert-extra-labels,131,506179,0.0-48.0-2.0,anomymised,65658159d48bb6bd55b14990,65671904f44ba3901dc10b0b,66605,1C,man,NA,NA,W2 is being looked at by M4,look3,rating_volition,"{""Q0"":4}",[0],W2 wanted to look at M4,M4 wanted to look at W2
5560,NA,NA,NA,NA,survey-likert-extra-labels,132,511739,0.0-48.0-3.0-0.0,anomymised,65658159d48bb6bd55b14990,65671904f44ba3901dc10b0b,66605,1C,man,NA,NA,W2 is being looked at by M4,look3,rating_causation,"{""Q0"":4}",[0],W2 looked at M4 first,M4 looked at W2 first
null,Luke is being seduced by Kate,NA,NA,NA,html-keyboard-response,133,513752,0.0-49.0-0.0,anomymised,65658159d48bb6bd55b14990,65671904f44ba3901dc10b0b,66605,1C,man,NA,null,M1 is being seduced by W3,seduce3,sentence,NA,NA,NA,NA
10580,NA,NA,NA,NA,survey-likert-extra-labels,134,524332,0.0-49.0-1.0-0.0,anomymised,65658159d48bb6bd55b14990,65671904f44ba3901dc10b0b,66605,1C,man,NA,NA,M1 is being seduced by W3,seduce3,rating_causation,"{""Q0"":2}",[0],W3 started seducing M1 first,M1 started seducing W3 first
2095.2000000476837,NA,NA,NA,NA,survey-likert-extra-labels,135,526428,0.0-49.0-2.0,anomymised,65658159d48bb6bd55b14990,65671904f44ba3901dc10b0b,66605,1C,man,NA,NA,M1 is being seduced by W3,seduce3,rating_volition,"{""Q0"":2}",[0],W3 wanted to seduce M1,M1 wanted to seduce W3
null,Jane is being copied by Beth,NA,NA,NA,html-keyboard-response,136,528443,0.0-50.0-0.0,anomymised,65658159d48bb6bd55b14990,65671904f44ba3901dc10b0b,66605,1C,man,NA,null,W2 is being copied by W4,copy1,sentence,NA,NA,NA,NA
3240.5,NA,NA,NA,NA,survey-likert-extra-labels,137,531684,0.0-50.0-1.0-0.0,anomymised,65658159d48bb6bd55b14990,65671904f44ba3901dc10b0b,66605,1C,man,NA,NA,W2 is being copied by W4,copy1,rating_causation,"{""Q0"":4}",[0],W2 started copying W4 first,W4 started copying W2 first
1695.2999999523163,NA,NA,NA,NA,survey-likert-extra-labels,138,533380,0.0-50.0-2.0,anomymised,65658159d48bb6bd55b14990,65671904f44ba3901dc10b0b,66605,1C,man,NA,NA,W2 is being copied by W4,copy1,rating_volition,"{""Q0"":4}",[0],W2 wanted to copy W4,W4 wanted to copy W2
null,Jane is carrying Beth,NA,NA,NA,html-keyboard-response,139,535394,0.0-51.0-0.0,anomymised,65658159d48bb6bd55b14990,65671904f44ba3901dc10b0b,66605,1C,man,NA,null,W2 is carrying W4,carry,sentence,NA,NA,NA,NA
5304.899999976158,NA,NA,NA,NA,survey-likert-extra-labels,140,540699,0.0-51.0-1.0-0.0,anomymised,65658159d48bb6bd55b14990,65671904f44ba3901dc10b0b,66605,1C,man,NA,NA,W2 is carrying W4,carry,rating_causation,"{""Q0"":4}",[0],W2 is being moved by W4,W4 is being moved by W2
3463,NA,NA,NA,NA,survey-likert-extra-labels,141,544163,0.0-51.0-2.0,anomymised,65658159d48bb6bd55b14990,65671904f44ba3901dc10b0b,66605,1C,man,NA,NA,W2 is carrying W4,carry,rating_volition,"{""Q0"":2}",[0],W2 is transporting W4,W4 is transporting W2
null,Beth is being challenged by Jane,NA,NA,NA,html-keyboard-response,142,546177,0.0-52.0-0.0,anomymised,65658159d48bb6bd55b14990,65671904f44ba3901dc10b0b,66605,1C,man,NA,null,W4 is being challenged by W2,challenge1,sentence,NA,NA,NA,NA
5521.5,NA,NA,NA,NA,survey-likert-extra-labels,143,551699,0.0-52.0-2.0,anomymised,65658159d48bb6bd55b14990,65671904f44ba3901dc10b0b,66605,1C,man,NA,NA,W4 is being challenged by W2,challenge1,rating_volition,"{""Q0"":2}",[0],W2 wanted to challenge W4,W4 wanted to challenge W2
1863.6000000238419,NA,NA,NA,NA,survey-likert-extra-labels,144,553563,0.0-52.0-3.0-0.0,anomymised,65658159d48bb6bd55b14990,65671904f44ba3901dc10b0b,66605,1C,man,NA,NA,W4 is being challenged by W2,challenge1,rating_causation,"{""Q0"":2}",[0],W2 started challenging W4 first,W4 started challenging W2 first
null,Jane is being greeted by Beth,NA,NA,NA,html-keyboard-response,145,555578,0.0-53.0-0.0,anomymised,65658159d48bb6bd55b14990,65671904f44ba3901dc10b0b,66605,1C,man,NA,null,W2 is being greeted by W4,greet1,sentence,NA,NA,NA,NA
4321.099999904633,NA,NA,NA,NA,survey-likert-extra-labels,146,559899,0.0-53.0-2.0,anomymised,65658159d48bb6bd55b14990,65671904f44ba3901dc10b0b,66605,1C,man,NA,NA,W2 is being greeted by W4,greet1,rating_volition,"{""Q0"":4}",[0],W2 wanted to greet W4,W4 wanted to greet W2
1783.3999999761581,NA,NA,NA,NA,survey-likert-extra-labels,147,561683,0.0-53.0-3.0-0.0,anomymised,65658159d48bb6bd55b14990,65671904f44ba3901dc10b0b,66605,1C,man,NA,NA,W2 is being greeted by W4,greet1,rating_causation,"{""Q0"":4}",[0],W2 started greeting W4 first,W4 started greeting W2 first
null,Ruth is being challenged by Fred,NA,NA,NA,html-keyboard-response,148,563692,0.0-54.0-0.0,anomymised,65658159d48bb6bd55b14990,65671904f44ba3901dc10b0b,66605,1C,man,NA,null,W1 is being challenged by M3,challenge3,sentence,NA,NA,NA,NA
2839.100000023842,NA,NA,NA,NA,survey-likert-extra-labels,149,566532,0.0-54.0-2.0,anomymised,65658159d48bb6bd55b14990,65671904f44ba3901dc10b0b,66605,1C,man,NA,NA,W1 is being challenged by M3,challenge3,rating_volition,"{""Q0"":2}",[0],M3 wanted to challenge W1,W1 wanted to challenge M3
9078.5,NA,NA,NA,NA,survey-likert-extra-labels,150,575611,0.0-54.0-3.0-0.0,anomymised,65658159d48bb6bd55b14990,65671904f44ba3901dc10b0b,66605,1C,man,NA,NA,W1 is being challenged by M3,challenge3,rating_causation,"{""Q0"":2}",[0],M3 started challenging W1 first,W1 started challenging M3 first
2333.5,<p>Thank you for completing that task.</p><p>The final part of this session is a short questionnaire.</p><p>Press Continue.</p>,0,Continue,Continue,html-button-response,151,577945,0.0-55.0,anomymised,65658159d48bb6bd55b14990,65671904f44ba3901dc10b0b,66605,1C,man,NA,NA,NA,NA,NA,NA,NA,NA,NA
21089,NA,NA,NA,NA,survey-text,152,600043,0.0-56.0,anomymised,65658159d48bb6bd55b14990,65671904f44ba3901dc10b0b,66605,1C,man,NA,NA,NA,NA,demographics,"{""Q0"":""34"",""Q1"":""English"",""Q2"":""English"",""Q3"":""England"",""Q4"":""British"",""Q5"":""White/British"",""Q6"":""Male""}",NA,NA,NA
3864.600000023842,<p>This is the last question - thank you for taking part! Have you lived in the UK for the last 5 years or more?</p>,0,"Yes,No",Yes,html-button-response,153,603908,0.0-57.0,anomymised,65658159d48bb6bd55b14990,65671904f44ba3901dc10b0b,66605,1C,man,NA,NA,NA,NA,fiveyears,NA,NA,NA,NA
