rt,stimulus,button_pressed,choices,ChosenStimulus,trial_type,trial_index,time_elapsed,internal_node_id,subject_id,study_id,session_id,subject,list,ppt_gender,url,key_press,sentence_type,verb,test_part,responses,question_order,left_part,right_part
1201.8999998569489,Welcome to the experiment. Press Continue to begin.,0,Continue,Continue,html-button-response,0,1204,0.0-0.0,anomymised,65658173739efdc811fa7bc3,65676825c75ae4de9831f3aa,70239,2C,man,NA,NA,NA,NA,NA,NA,NA,NA,NA
3487.5,NA,NA,NA,NA,external-html,1,5729,0.0-1.0,anomymised,65658173739efdc811fa7bc3,65676825c75ae4de9831f3aa,70239,2C,man,consent.html,NA,NA,NA,NA,NA,NA,NA,NA
5622.900000095367,"<p>Welcome.</p><p>In this experiment we will ask you to imagine some situations.</p><p>Each trial starts with a description of an event.</p><p>Then you will see alternative descriptions of that event, and you will rate on a scale how best they match the original description.</p><p>You will give your answer by clicking a button on a rating scale.</p><p>To do this task, you will have to use your imagination to visualise these events.</p><br><p>Ready?</p>",0,Continue,Continue,html-button-response,2,11353,0.0-2.0,anomymised,65658173739efdc811fa7bc3,65676825c75ae4de9831f3aa,70239,2C,man,NA,NA,NA,NA,NA,NA,NA,NA,NA
1537.5,"<p>Before the experiment starts, you will watch an example trial. Press 'Continue'.</p>",0,Continue,Continue,html-button-response,3,13894,0.0-3.0,anomymised,65658173739efdc811fa7bc3,65676825c75ae4de9831f3aa,70239,2C,man,NA,NA,NA,NA,NA,NA,NA,NA,NA
null,The police officer is arresting the robber,NA,NA,NA,html-keyboard-response,4,16910,0.0-4.0,anomymised,65658173739efdc811fa7bc3,65676825c75ae4de9831f3aa,70239,2C,man,NA,null,NA,NA,NA,NA,NA,NA,NA
6657.200000047684,<img src='img/Example-trial.jpg' style='height:550px;''></img>,0,Continue,Continue,html-button-response,5,23569,0.0-5.0,anomymised,65658173739efdc811fa7bc3,65676825c75ae4de9831f3aa,70239,2C,man,NA,NA,NA,NA,NA,NA,NA,NA,NA
1583.2000000476837,<p>Ready to start the experiment?</p><br><p><strong>Remember to give an answer by clicking a button on the rating scale.</strong></p><p>Press 'Continue' to begin.</p>,0,Continue,Continue,html-button-response,6,26160,0.0-6.0,anomymised,65658173739efdc811fa7bc3,65676825c75ae4de9831f3aa,70239,2C,man,NA,NA,NA,NA,NA,NA,NA,NA,NA
null,Mike is being challenged by Dave,NA,NA,NA,html-keyboard-response,7,29175,0.0-7.0-0.0,anomymised,65658173739efdc811fa7bc3,65676825c75ae4de9831f3aa,70239,2C,man,NA,null,M4 is being challenged by M2,challenge2,sentence,NA,NA,NA,NA
6006.299999952316,NA,NA,NA,NA,survey-likert-extra-labels,8,35184,0.0-7.0-2.0,anomymised,65658173739efdc811fa7bc3,65676825c75ae4de9831f3aa,70239,2C,man,NA,NA,M4 is being challenged by M2,challenge2,rating_volition,"{""Q0"":1}",[0],M2 wanted to challenge M4,M4 wanted to challenge M2
6347.200000047684,NA,NA,NA,NA,survey-likert-extra-labels,9,41533,0.0-7.0-3.0-0.0,anomymised,65658173739efdc811fa7bc3,65676825c75ae4de9831f3aa,70239,2C,man,NA,NA,M4 is being challenged by M2,challenge2,rating_causation,"{""Q0"":1}",[0],M2 started challenging M4 first,M4 started challenging M2 first
null,Jane is being greeted by Fred,NA,NA,NA,html-keyboard-response,10,43542,0.0-8.0-0.0,anomymised,65658173739efdc811fa7bc3,65676825c75ae4de9831f3aa,70239,2C,man,NA,null,W3 is being greeted by M1,greet4,sentence,NA,NA,NA,NA
4593.299999952316,NA,NA,NA,NA,survey-likert-extra-labels,11,48137,0.0-8.0-1.0-0.0,anomymised,65658173739efdc811fa7bc3,65676825c75ae4de9831f3aa,70239,2C,man,NA,NA,W3 is being greeted by M1,greet4,rating_causation,"{""Q0"":5}",[0],W3 started greeting M1 first,M1 started greeting W3 first
2921,NA,NA,NA,NA,survey-likert-extra-labels,12,51065,0.0-8.0-2.0,anomymised,65658173739efdc811fa7bc3,65676825c75ae4de9831f3aa,70239,2C,man,NA,NA,W3 is being greeted by M1,greet4,rating_volition,"{""Q0"":5}",[0],W3 wanted to greet M1,M1 wanted to greet W3
null,Luke is being hugged by Fred,NA,NA,NA,html-keyboard-response,13,53080,0.0-9.0-0.0,anomymised,65658173739efdc811fa7bc3,65676825c75ae4de9831f3aa,70239,2C,man,NA,null,M3 is being hugged by M1,hug2,sentence,NA,NA,NA,NA
3370.2000000476837,NA,NA,NA,NA,survey-likert-extra-labels,14,56452,0.0-9.0-2.0,anomymised,65658173739efdc811fa7bc3,65676825c75ae4de9831f3aa,70239,2C,man,NA,NA,M3 is being hugged by M1,hug2,rating_volition,"{""Q0"":1}",[0],M1 wanted to hug M3,M3 wanted to hug M1
6796.299999952316,NA,NA,NA,NA,survey-likert-extra-labels,15,63251,0.0-9.0-3.0-0.0,anomymised,65658173739efdc811fa7bc3,65676825c75ae4de9831f3aa,70239,2C,man,NA,NA,M3 is being hugged by M1,hug2,rating_causation,"{""Q0"":2}",[0],M1 asked to hug M3,M3 asked to hug M1
null,Jane is being copied by Fred,NA,NA,NA,html-keyboard-response,16,65255,0.0-10.0-0.0,anomymised,65658173739efdc811fa7bc3,65676825c75ae4de9831f3aa,70239,2C,man,NA,null,W3 is being copied by M1,copy3,sentence,NA,NA,NA,NA
4270.5,NA,NA,NA,NA,survey-likert-extra-labels,17,69528,0.0-10.0-1.0-0.0,anomymised,65658173739efdc811fa7bc3,65676825c75ae4de9831f3aa,70239,2C,man,NA,NA,W3 is being copied by M1,copy3,rating_causation,"{""Q0"":5}",[0],W3 started copying M1 first,M1 started copying W3 first
3390.5,NA,NA,NA,NA,survey-likert-extra-labels,18,72922,0.0-10.0-2.0,anomymised,65658173739efdc811fa7bc3,65676825c75ae4de9831f3aa,70239,2C,man,NA,NA,W3 is being copied by M1,copy3,rating_volition,"{""Q0"":5}",[0],W3 wanted to copy M1,M1 wanted to copy W3
null,Mike is being hugged by Kate,NA,NA,NA,html-keyboard-response,19,74931,0.0-11.0-0.0,anomymised,65658173739efdc811fa7bc3,65676825c75ae4de9831f3aa,70239,2C,man,NA,null,M4 is being hugged by W2,hug3,sentence,NA,NA,NA,NA
6264.5,NA,NA,NA,NA,survey-likert-extra-labels,20,81197,0.0-11.0-1.0-0.0,anomymised,65658173739efdc811fa7bc3,65676825c75ae4de9831f3aa,70239,2C,man,NA,NA,M4 is being hugged by W2,hug3,rating_causation,"{""Q0"":2}",[0],W2 asked to hug M4,M4 asked to hug W2
2682.2000000476837,NA,NA,NA,NA,survey-likert-extra-labels,21,83882,0.0-11.0-2.0,anomymised,65658173739efdc811fa7bc3,65676825c75ae4de9831f3aa,70239,2C,man,NA,NA,M4 is being hugged by W2,hug3,rating_volition,"{""Q0"":1}",[0],W2 wanted to hug M4,M4 wanted to hug W2
null,Fred is being looked at by Luke,NA,NA,NA,html-keyboard-response,22,85889,0.0-12.0-0.0,anomymised,65658173739efdc811fa7bc3,65676825c75ae4de9831f3aa,70239,2C,man,NA,null,M1 is being looked at by M3,look2,sentence,NA,NA,NA,NA
6251.200000047684,NA,NA,NA,NA,survey-likert-extra-labels,23,92142,0.0-12.0-1.0-0.0,anomymised,65658173739efdc811fa7bc3,65676825c75ae4de9831f3aa,70239,2C,man,NA,NA,M1 is being looked at by M3,look2,rating_causation,"{""Q0"":5}",[0],M1 looked at M3 first,M3 looked at M1 first
4101.300000190735,NA,NA,NA,NA,survey-likert-extra-labels,24,96246,0.0-12.0-2.0,anomymised,65658173739efdc811fa7bc3,65676825c75ae4de9831f3aa,70239,2C,man,NA,NA,M1 is being looked at by M3,look2,rating_volition,"{""Q0"":5}",[0],M1 wanted to look at M3,M3 wanted to look at M1
null,Jane is being opposed by Beth,NA,NA,NA,html-keyboard-response,25,98259,0.0-13.0-0.0,anomymised,65658173739efdc811fa7bc3,65676825c75ae4de9831f3aa,70239,2C,man,NA,null,W3 is being opposed by W1,oppose1,sentence,NA,NA,NA,NA
4718.5,NA,NA,NA,NA,survey-likert-extra-labels,26,102979,0.0-13.0-1.0-0.0,anomymised,65658173739efdc811fa7bc3,65676825c75ae4de9831f3aa,70239,2C,man,NA,NA,W3 is being opposed by W1,oppose1,rating_causation,"{""Q0"":1}",[0],W1 started opposing W3,W3 started opposing W1
11594.5,NA,NA,NA,NA,survey-likert-extra-labels,27,114576,0.0-13.0-2.0,anomymised,65658173739efdc811fa7bc3,65676825c75ae4de9831f3aa,70239,2C,man,NA,NA,W3 is being opposed by W1,oppose1,rating_volition,"{""Q0"":1}",[0],W1 wanted to oppose W3,W3 wanted to oppose W1
null,Dave is being looked at by Ruth,NA,NA,NA,html-keyboard-response,28,116580,0.0-14.0-0.0,anomymised,65658173739efdc811fa7bc3,65676825c75ae4de9831f3aa,70239,2C,man,NA,null,M2 is being looked at by W4,look4,sentence,NA,NA,NA,NA
4369.900000095367,NA,NA,NA,NA,survey-likert-extra-labels,29,120952,0.0-14.0-1.0-0.0,anomymised,65658173739efdc811fa7bc3,65676825c75ae4de9831f3aa,70239,2C,man,NA,NA,M2 is being looked at by W4,look4,rating_causation,"{""Q0"":5}",[0],M2 looked at W4 first,W4 looked at M2 first
2765,NA,NA,NA,NA,survey-likert-extra-labels,30,123720,0.0-14.0-2.0,anomymised,65658173739efdc811fa7bc3,65676825c75ae4de9831f3aa,70239,2C,man,NA,NA,M2 is being looked at by W4,look4,rating_volition,"{""Q0"":5}",[0],M2 wanted to look at W4,W4 wanted to look at M2
null,Kate is teaching Mike,NA,NA,NA,html-keyboard-response,31,125730,0.0-15.0-0.0,anomymised,65658173739efdc811fa7bc3,65676825c75ae4de9831f3aa,70239,2C,man,NA,null,W2 is teaching M4,teach,sentence,NA,NA,NA,NA
4243.900000095367,NA,NA,NA,NA,survey-likert-extra-labels,32,129976,0.0-15.0-2.0,anomymised,65658173739efdc811fa7bc3,65676825c75ae4de9831f3aa,70239,2C,man,NA,NA,W2 is teaching M4,teach,rating_volition,"{""Q0"":1}",[0],W2 is educating M4,M4 is educating W2
5310.400000095367,NA,NA,NA,NA,survey-likert-extra-labels,33,135289,0.0-15.0-3.0-0.0,anomymised,65658173739efdc811fa7bc3,65676825c75ae4de9831f3aa,70239,2C,man,NA,NA,W2 is teaching M4,teach,rating_causation,"{""Q0"":4}",[0],W2 is learning from M4,M4 is learning from W2
null,Dave is being kissed by Ruth,NA,NA,NA,html-keyboard-response,34,137294,0.0-16.0-0.0,anomymised,65658173739efdc811fa7bc3,65676825c75ae4de9831f3aa,70239,2C,man,NA,null,M2 is being kissed by W4,kiss3,sentence,NA,NA,NA,NA
5579.199999809265,NA,NA,NA,NA,survey-likert-extra-labels,35,142875,0.0-16.0-1.0-0.0,anomymised,65658173739efdc811fa7bc3,65676825c75ae4de9831f3aa,70239,2C,man,NA,NA,M2 is being kissed by W4,kiss3,rating_causation,"{""Q0"":4}",[0],M2 asked to kiss W4,W4 asked to kiss M2
3520.4000000953674,NA,NA,NA,NA,survey-likert-extra-labels,36,146398,0.0-16.0-2.0,anomymised,65658173739efdc811fa7bc3,65676825c75ae4de9831f3aa,70239,2C,man,NA,NA,M2 is being kissed by W4,kiss3,rating_volition,"{""Q0"":5}",[0],M2 wanted to kiss W4,W4 wanted to kiss M2
null,Mike is being touched by Dave,NA,NA,NA,html-keyboard-response,37,148403,0.0-17.0-0.0,anomymised,65658173739efdc811fa7bc3,65676825c75ae4de9831f3aa,70239,2C,man,NA,null,M4 is being touched by M2,touch2,sentence,NA,NA,NA,NA
14703.599999904633,NA,NA,NA,NA,survey-likert-extra-labels,38,163108,0.0-17.0-2.0,anomymised,65658173739efdc811fa7bc3,65676825c75ae4de9831f3aa,70239,2C,man,NA,NA,M4 is being touched by M2,touch2,rating_volition,"{""Q0"":1}",[0],M2 wanted to touch M4,M4 wanted to touch M2
4555.299999952316,NA,NA,NA,NA,survey-likert-extra-labels,39,167667,0.0-17.0-3.0-0.0,anomymised,65658173739efdc811fa7bc3,65676825c75ae4de9831f3aa,70239,2C,man,NA,NA,M4 is being touched by M2,touch2,rating_causation,"{""Q0"":2}",[0],M2 asked to touch M4,M4 asked to touch M2
null,Fred is being seduced by Jane,NA,NA,NA,html-keyboard-response,40,169670,0.0-18.0-0.0,anomymised,65658173739efdc811fa7bc3,65676825c75ae4de9831f3aa,70239,2C,man,NA,null,M1 is being seduced by W3,seduce3,sentence,NA,NA,NA,NA
3159,NA,NA,NA,NA,survey-likert-extra-labels,41,172831,0.0-18.0-2.0,anomymised,65658173739efdc811fa7bc3,65676825c75ae4de9831f3aa,70239,2C,man,NA,NA,M1 is being seduced by W3,seduce3,rating_volition,"{""Q0"":1}",[0],W3 wanted to seduce M1,M1 wanted to seduce W3
2991.699999809265,NA,NA,NA,NA,survey-likert-extra-labels,42,175824,0.0-18.0-3.0-0.0,anomymised,65658173739efdc811fa7bc3,65676825c75ae4de9831f3aa,70239,2C,man,NA,NA,M1 is being seduced by W3,seduce3,rating_causation,"{""Q0"":1}",[0],W3 started seducing M1 first,M1 started seducing W3 first
null,Ruth is being opposed by Dave,NA,NA,NA,html-keyboard-response,43,177834,0.0-19.0-0.0,anomymised,65658173739efdc811fa7bc3,65676825c75ae4de9831f3aa,70239,2C,man,NA,null,W4 is being opposed by M2,oppose4,sentence,NA,NA,NA,NA
2836.899999856949,NA,NA,NA,NA,survey-likert-extra-labels,44,180672,0.0-19.0-2.0,anomymised,65658173739efdc811fa7bc3,65676825c75ae4de9831f3aa,70239,2C,man,NA,NA,W4 is being opposed by M2,oppose4,rating_volition,"{""Q0"":1}",[0],M2 wanted to oppose W4,W4 wanted to oppose M2
2447.9000000953674,NA,NA,NA,NA,survey-likert-extra-labels,45,183122,0.0-19.0-3.0-0.0,anomymised,65658173739efdc811fa7bc3,65676825c75ae4de9831f3aa,70239,2C,man,NA,NA,W4 is being opposed by M2,oppose4,rating_causation,"{""Q0"":1}",[0],M2 started opposing W4,W4 started opposing M2
null,Beth is being challenged by Luke,NA,NA,NA,html-keyboard-response,46,185134,0.0-20.0-0.0,anomymised,65658173739efdc811fa7bc3,65676825c75ae4de9831f3aa,70239,2C,man,NA,null,W1 is being challenged by M3,challenge3,sentence,NA,NA,NA,NA
3399.9000000953674,NA,NA,NA,NA,survey-likert-extra-labels,47,188535,0.0-20.0-1.0-0.0,anomymised,65658173739efdc811fa7bc3,65676825c75ae4de9831f3aa,70239,2C,man,NA,NA,W1 is being challenged by M3,challenge3,rating_causation,"{""Q0"":1}",[0],M3 started challenging W1 first,W1 started challenging M3 first
2255.4000000953674,NA,NA,NA,NA,survey-likert-extra-labels,48,190793,0.0-20.0-2.0,anomymised,65658173739efdc811fa7bc3,65676825c75ae4de9831f3aa,70239,2C,man,NA,NA,W1 is being challenged by M3,challenge3,rating_volition,"{""Q0"":1}",[0],M3 wanted to challenge W1,W1 wanted to challenge M3
null,Fred is driving Luke,NA,NA,NA,html-keyboard-response,49,192798,0.0-21.0-0.0,anomymised,65658173739efdc811fa7bc3,65676825c75ae4de9831f3aa,70239,2C,man,NA,null,M1 is driving M3,drive,sentence,NA,NA,NA,NA
5031.800000190735,NA,NA,NA,NA,survey-likert-extra-labels,50,197832,0.0-21.0-2.0,anomymised,65658173739efdc811fa7bc3,65676825c75ae4de9831f3aa,70239,2C,man,NA,NA,M1 is driving M3,drive,rating_volition,"{""Q0"":5}",[0],M1 is M3's passenger,M3 is M1's passenger
4124,NA,NA,NA,NA,survey-likert-extra-labels,51,201960,0.0-21.0-3.0-0.0,anomymised,65658173739efdc811fa7bc3,65676825c75ae4de9831f3aa,70239,2C,man,NA,NA,M1 is driving M3,drive,rating_causation,"{""Q0"":1}",[0],M1 is taking M3 somewhere,M3 is taking M1 somewhere
null,Dave is being copied by Mike,NA,NA,NA,html-keyboard-response,52,203971,0.0-22.0-0.0,anomymised,65658173739efdc811fa7bc3,65676825c75ae4de9831f3aa,70239,2C,man,NA,null,M2 is being copied by M4,copy2,sentence,NA,NA,NA,NA
4902.299999952316,NA,NA,NA,NA,survey-likert-extra-labels,53,208875,0.0-22.0-2.0,anomymised,65658173739efdc811fa7bc3,65676825c75ae4de9831f3aa,70239,2C,man,NA,NA,M2 is being copied by M4,copy2,rating_volition,"{""Q0"":5}",[0],M2 wanted to copy M4,M4 wanted to copy M2
2701.7999999523163,NA,NA,NA,NA,survey-likert-extra-labels,54,211579,0.0-22.0-3.0-0.0,anomymised,65658173739efdc811fa7bc3,65676825c75ae4de9831f3aa,70239,2C,man,NA,NA,M2 is being copied by M4,copy2,rating_causation,"{""Q0"":5}",[0],M2 started copying M4 first,M4 started copying M2 first
null,Jane is being hugged by Beth,NA,NA,NA,html-keyboard-response,55,213595,0.0-23.0-0.0,anomymised,65658173739efdc811fa7bc3,65676825c75ae4de9831f3aa,70239,2C,man,NA,null,W3 is being hugged by W1,hug1,sentence,NA,NA,NA,NA
3529.300000190735,NA,NA,NA,NA,survey-likert-extra-labels,56,217127,0.0-23.0-2.0,anomymised,65658173739efdc811fa7bc3,65676825c75ae4de9831f3aa,70239,2C,man,NA,NA,W3 is being hugged by W1,hug1,rating_volition,"{""Q0"":1}",[0],W1 wanted to hug W3,W3 wanted to hug W1
3760.9000000953674,NA,NA,NA,NA,survey-likert-extra-labels,57,220890,0.0-23.0-3.0-0.0,anomymised,65658173739efdc811fa7bc3,65676825c75ae4de9831f3aa,70239,2C,man,NA,NA,W3 is being hugged by W1,hug1,rating_causation,"{""Q0"":2}",[0],W1 asked to hug W3,W3 asked to hug W1
null,Kate is being copied by Ruth,NA,NA,NA,html-keyboard-response,58,222900,0.0-24.0-0.0,anomymised,65658173739efdc811fa7bc3,65676825c75ae4de9831f3aa,70239,2C,man,NA,null,W2 is being copied by W4,copy1,sentence,NA,NA,NA,NA
3545.2000000476837,NA,NA,NA,NA,survey-likert-extra-labels,59,226447,0.0-24.0-1.0-0.0,anomymised,65658173739efdc811fa7bc3,65676825c75ae4de9831f3aa,70239,2C,man,NA,NA,W2 is being copied by W4,copy1,rating_causation,"{""Q0"":5}",[0],W2 started copying W4 first,W4 started copying W2 first
2505.9000000953674,NA,NA,NA,NA,survey-likert-extra-labels,60,228956,0.0-24.0-2.0,anomymised,65658173739efdc811fa7bc3,65676825c75ae4de9831f3aa,70239,2C,man,NA,NA,W2 is being copied by W4,copy1,rating_volition,"{""Q0"":5}",[0],W2 wanted to copy W4,W4 wanted to copy W2
null,Jane is feeding Fred,NA,NA,NA,html-keyboard-response,61,230969,0.0-25.0-0.0,anomymised,65658173739efdc811fa7bc3,65676825c75ae4de9831f3aa,70239,2C,man,NA,null,W3 is feeding M1,feed,sentence,NA,NA,NA,NA
5526.799999952316,NA,NA,NA,NA,survey-likert-extra-labels,62,236498,0.0-25.0-1.0-0.0,anomymised,65658173739efdc811fa7bc3,65676825c75ae4de9831f3aa,70239,2C,man,NA,NA,W3 is feeding M1,feed,rating_causation,"{""Q0"":3}",[0],W3 is eating M1's food,M1 is eating W3's food
6059.200000047684,NA,NA,NA,NA,survey-likert-extra-labels,63,242560,0.0-25.0-2.0,anomymised,65658173739efdc811fa7bc3,65676825c75ae4de9831f3aa,70239,2C,man,NA,NA,W3 is feeding M1,feed,rating_volition,"{""Q0"":3}",[0],W3 cooked for M1,M1 cooked for W3
null,Dave is reminding Ruth,NA,NA,NA,html-keyboard-response,64,244572,0.0-26.0-0.0,anomymised,65658173739efdc811fa7bc3,65676825c75ae4de9831f3aa,70239,2C,man,NA,null,M2 is reminding W4,remind,sentence,NA,NA,NA,NA
5524,NA,NA,NA,NA,survey-likert-extra-labels,65,250097,0.0-26.0-1.0-0.0,anomymised,65658173739efdc811fa7bc3,65676825c75ae4de9831f3aa,70239,2C,man,NA,NA,M2 is reminding W4,remind,rating_causation,"{""Q0"":4}",[0],M2 is remembering,W4 is remembering
3669.7000000476837,NA,NA,NA,NA,survey-likert-extra-labels,66,253771,0.0-26.0-2.0,anomymised,65658173739efdc811fa7bc3,65676825c75ae4de9831f3aa,70239,2C,man,NA,NA,M2 is reminding W4,remind,rating_volition,"{""Q0"":1}",[0],M2 is telling W4 again,W4 is telling M2 again
null,Luke is being shouted at by Fred,NA,NA,NA,html-keyboard-response,67,255788,0.0-27.0-0.0,anomymised,65658173739efdc811fa7bc3,65676825c75ae4de9831f3aa,70239,2C,man,NA,null,M3 is being shouted at by M1,shout2,sentence,NA,NA,NA,NA
5753.100000143051,NA,NA,NA,NA,survey-likert-extra-labels,68,261543,0.0-27.0-1.0-0.0,anomymised,65658173739efdc811fa7bc3,65676825c75ae4de9831f3aa,70239,2C,man,NA,NA,M3 is being shouted at by M1,shout2,rating_causation,"{""Q0"":1}",[0],M1 shouted at M3 first,M3 shouted at M1 first
5949.699999809265,NA,NA,NA,NA,survey-likert-extra-labels,69,267495,0.0-27.0-2.0,anomymised,65658173739efdc811fa7bc3,65676825c75ae4de9831f3aa,70239,2C,man,NA,NA,M3 is being shouted at by M1,shout2,rating_volition,"{""Q0"":1}",[0],M1 wanted to shout at M3,M3 wanted to shout at M1
null,Fred is being kissed by Luke,NA,NA,NA,html-keyboard-response,70,269504,0.0-28.0-0.0,anomymised,65658173739efdc811fa7bc3,65676825c75ae4de9831f3aa,70239,2C,man,NA,null,M1 is being kissed by M3,kiss2,sentence,NA,NA,NA,NA
6520.299999952316,NA,NA,NA,NA,survey-likert-extra-labels,71,276025,0.0-28.0-1.0-0.0,anomymised,65658173739efdc811fa7bc3,65676825c75ae4de9831f3aa,70239,2C,man,NA,NA,M1 is being kissed by M3,kiss2,rating_causation,"{""Q0"":4}",[0],M1 asked to kiss M3,M3 asked to kiss M1
4431.799999952316,NA,NA,NA,NA,survey-likert-extra-labels,72,280460,0.0-28.0-2.0,anomymised,65658173739efdc811fa7bc3,65676825c75ae4de9831f3aa,70239,2C,man,NA,NA,M1 is being kissed by M3,kiss2,rating_volition,"{""Q0"":5}",[0],M1 wanted to kiss M3,M3 wanted to kiss M1
null,Mike is being opposed by Kate,NA,NA,NA,html-keyboard-response,73,282468,0.0-29.0-0.0,anomymised,65658173739efdc811fa7bc3,65676825c75ae4de9831f3aa,70239,2C,man,NA,null,M4 is being opposed by W2,oppose3,sentence,NA,NA,NA,NA
3186.899999856949,NA,NA,NA,NA,survey-likert-extra-labels,74,285656,0.0-29.0-2.0,anomymised,65658173739efdc811fa7bc3,65676825c75ae4de9831f3aa,70239,2C,man,NA,NA,M4 is being opposed by W2,oppose3,rating_volition,"{""Q0"":1}",[0],W2 wanted to oppose M4,M4 wanted to oppose W2
2489.399999856949,NA,NA,NA,NA,survey-likert-extra-labels,75,288148,0.0-29.0-3.0-0.0,anomymised,65658173739efdc811fa7bc3,65676825c75ae4de9831f3aa,70239,2C,man,NA,NA,M4 is being opposed by W2,oppose3,rating_causation,"{""Q0"":1}",[0],W2 started opposing M4,M4 started opposing W2
null,Luke is being copied by Beth,NA,NA,NA,html-keyboard-response,76,290160,0.0-30.0-0.0,anomymised,65658173739efdc811fa7bc3,65676825c75ae4de9831f3aa,70239,2C,man,NA,null,M3 is being copied by W1,copy4,sentence,NA,NA,NA,NA
4305,NA,NA,NA,NA,survey-likert-extra-labels,77,294466,0.0-30.0-1.0-0.0,anomymised,65658173739efdc811fa7bc3,65676825c75ae4de9831f3aa,70239,2C,man,NA,NA,M3 is being copied by W1,copy4,rating_causation,"{""Q0"":5}",[0],M3 started copying W1 first,W1 started copying M3 first
3210.800000190735,NA,NA,NA,NA,survey-likert-extra-labels,78,297679,0.0-30.0-2.0,anomymised,65658173739efdc811fa7bc3,65676825c75ae4de9831f3aa,70239,2C,man,NA,NA,M3 is being copied by W1,copy4,rating_volition,"{""Q0"":5}",[0],M3 wanted to copy W1,W1 wanted to copy M3
null,Beth is chasing Jane,NA,NA,NA,html-keyboard-response,79,299685,0.0-31.0-0.0,anomymised,65658173739efdc811fa7bc3,65676825c75ae4de9831f3aa,70239,2C,man,NA,null,W1 is chasing W3,chase,sentence,NA,NA,NA,NA
5489.899999856949,NA,NA,NA,NA,survey-likert-extra-labels,80,305177,0.0-31.0-2.0,anomymised,65658173739efdc811fa7bc3,65676825c75ae4de9831f3aa,70239,2C,man,NA,NA,W1 is chasing W3,chase,rating_volition,"{""Q0"":1}",[0],W1 is behind W3,W3 is behind W1
6095.099999904633,NA,NA,NA,NA,survey-likert-extra-labels,81,311275,0.0-31.0-3.0-0.0,anomymised,65658173739efdc811fa7bc3,65676825c75ae4de9831f3aa,70239,2C,man,NA,NA,W1 is chasing W3,chase,rating_causation,"{""Q0"":4}",[0],W1 is running away from W3,W3 is running away from W1
null,Luke is hiring Beth,NA,NA,NA,html-keyboard-response,82,313286,0.0-32.0-0.0,anomymised,65658173739efdc811fa7bc3,65676825c75ae4de9831f3aa,70239,2C,man,NA,null,M3 is hiring W1,hire,sentence,NA,NA,NA,NA
4302.5,NA,NA,NA,NA,survey-likert-extra-labels,83,317591,0.0-32.0-1.0-0.0,anomymised,65658173739efdc811fa7bc3,65676825c75ae4de9831f3aa,70239,2C,man,NA,NA,M3 is hiring W1,hire,rating_causation,"{""Q0"":5}",[0],M3 will work for W1,W1 will work for M3
4502.600000143051,NA,NA,NA,NA,survey-likert-extra-labels,84,322096,0.0-32.0-2.0,anomymised,65658173739efdc811fa7bc3,65676825c75ae4de9831f3aa,70239,2C,man,NA,NA,M3 is hiring W1,hire,rating_volition,"{""Q0"":1}",[0],M3 is employing W1,W1 is employing M3
null,Luke is being greeted by Beth,NA,NA,NA,html-keyboard-response,85,324111,0.0-33.0-0.0,anomymised,65658173739efdc811fa7bc3,65676825c75ae4de9831f3aa,70239,2C,man,NA,null,M3 is being greeted by W1,greet3,sentence,NA,NA,NA,NA
5499.100000143051,NA,NA,NA,NA,survey-likert-extra-labels,86,329612,0.0-33.0-2.0,anomymised,65658173739efdc811fa7bc3,65676825c75ae4de9831f3aa,70239,2C,man,NA,NA,M3 is being greeted by W1,greet3,rating_volition,"{""Q0"":5}",[0],M3 wanted to greet W1,W1 wanted to greet M3
6122,NA,NA,NA,NA,survey-likert-extra-labels,87,335737,0.0-33.0-3.0-0.0,anomymised,65658173739efdc811fa7bc3,65676825c75ae4de9831f3aa,70239,2C,man,NA,NA,M3 is being greeted by W1,greet3,rating_causation,"{""Q0"":5}",[0],M3 started greeting W1 first,W1 started greeting M3 first
null,Fred is being challenged by Jane,NA,NA,NA,html-keyboard-response,88,337747,0.0-34.0-0.0,anomymised,65658173739efdc811fa7bc3,65676825c75ae4de9831f3aa,70239,2C,man,NA,null,M1 is being challenged by W3,challenge4,sentence,NA,NA,NA,NA
5082.200000047684,NA,NA,NA,NA,survey-likert-extra-labels,89,342832,0.0-34.0-1.0-0.0,anomymised,65658173739efdc811fa7bc3,65676825c75ae4de9831f3aa,70239,2C,man,NA,NA,M1 is being challenged by W3,challenge4,rating_causation,"{""Q0"":1}",[0],W3 started challenging M1 first,M1 started challenging W3 first
2671.2000000476837,NA,NA,NA,NA,survey-likert-extra-labels,90,345505,0.0-34.0-2.0,anomymised,65658173739efdc811fa7bc3,65676825c75ae4de9831f3aa,70239,2C,man,NA,NA,M1 is being challenged by W3,challenge4,rating_volition,"{""Q0"":1}",[0],W3 wanted to challenge M1,M1 wanted to challenge W3
null,Dave is posing for Mike,NA,NA,NA,html-keyboard-response,91,347519,0.0-35.0-0.0,anomymised,65658173739efdc811fa7bc3,65676825c75ae4de9831f3aa,70239,2C,man,NA,null,M2 is posing for M4,pose,sentence,NA,NA,NA,NA
4044.699999809265,NA,NA,NA,NA,survey-likert-extra-labels,92,351566,0.0-35.0-2.0,anomymised,65658173739efdc811fa7bc3,65676825c75ae4de9831f3aa,70239,2C,man,NA,NA,M2 is posing for M4,pose,rating_volition,"{""Q0"":1}",[0],M2 is modelling for M4,M4 is modelling for M2
3591.5,NA,NA,NA,NA,survey-likert-extra-labels,93,355161,0.0-35.0-3.0-0.0,anomymised,65658173739efdc811fa7bc3,65676825c75ae4de9831f3aa,70239,2C,man,NA,NA,M2 is posing for M4,pose,rating_causation,"{""Q0"":5}",[0],M2 is photographing M4,M4 is photographing M2
null,Ruth is being hugged by Dave,NA,NA,NA,html-keyboard-response,94,357172,0.0-36.0-0.0,anomymised,65658173739efdc811fa7bc3,65676825c75ae4de9831f3aa,70239,2C,man,NA,null,W4 is being hugged by M2,hug4,sentence,NA,NA,NA,NA
9854.400000095367,NA,NA,NA,NA,survey-likert-extra-labels,95,367028,0.0-36.0-2.0,anomymised,65658173739efdc811fa7bc3,65676825c75ae4de9831f3aa,70239,2C,man,NA,NA,W4 is being hugged by M2,hug4,rating_volition,"{""Q0"":1}",[0],M2 wanted to hug W4,W4 wanted to hug M2
6648.299999952316,NA,NA,NA,NA,survey-likert-extra-labels,96,373680,0.0-36.0-3.0-0.0,anomymised,65658173739efdc811fa7bc3,65676825c75ae4de9831f3aa,70239,2C,man,NA,NA,W4 is being hugged by M2,hug4,rating_causation,"{""Q0"":2}",[0],M2 asked to hug W4,W4 asked to hug M2
null,Ruth is being shouted at by Dave,NA,NA,NA,html-keyboard-response,97,375682,0.0-37.0-0.0,anomymised,65658173739efdc811fa7bc3,65676825c75ae4de9831f3aa,70239,2C,man,NA,null,W4 is being shouted at by M2,shout3,sentence,NA,NA,NA,NA
2855.5,NA,NA,NA,NA,survey-likert-extra-labels,98,378539,0.0-37.0-1.0-0.0,anomymised,65658173739efdc811fa7bc3,65676825c75ae4de9831f3aa,70239,2C,man,NA,NA,W4 is being shouted at by M2,shout3,rating_causation,"{""Q0"":1}",[0],M2 shouted at W4 first,W4 shouted at M2 first
3733.899999856949,NA,NA,NA,NA,survey-likert-extra-labels,99,382275,0.0-37.0-2.0,anomymised,65658173739efdc811fa7bc3,65676825c75ae4de9831f3aa,70239,2C,man,NA,NA,W4 is being shouted at by M2,shout3,rating_volition,"{""Q0"":1}",[0],M2 wanted to shout at W4,W4 wanted to shout at M2
null,Kate is being kissed by Mike,NA,NA,NA,html-keyboard-response,100,384280,0.0-38.0-0.0,anomymised,65658173739efdc811fa7bc3,65676825c75ae4de9831f3aa,70239,2C,man,NA,null,W2 is being kissed by M4,kiss4,sentence,NA,NA,NA,NA
5269,NA,NA,NA,NA,survey-likert-extra-labels,101,389550,0.0-38.0-2.0,anomymised,65658173739efdc811fa7bc3,65676825c75ae4de9831f3aa,70239,2C,man,NA,NA,W2 is being kissed by M4,kiss4,rating_volition,"{""Q0"":5}",[0],W2 wanted to kiss M4,M4 wanted to kiss W2
2690.9000000953674,NA,NA,NA,NA,survey-likert-extra-labels,102,392244,0.0-38.0-3.0-0.0,anomymised,65658173739efdc811fa7bc3,65676825c75ae4de9831f3aa,70239,2C,man,NA,NA,W2 is being kissed by M4,kiss4,rating_causation,"{""Q0"":4}",[0],W2 asked to kiss M4,M4 asked to kiss W2
null,Fred is being touched by Jane,NA,NA,NA,html-keyboard-response,103,394247,0.0-39.0-0.0,anomymised,65658173739efdc811fa7bc3,65676825c75ae4de9831f3aa,70239,2C,man,NA,null,M1 is being touched by W3,touch3,sentence,NA,NA,NA,NA
6951,NA,NA,NA,NA,survey-likert-extra-labels,104,401200,0.0-39.0-1.0-0.0,anomymised,65658173739efdc811fa7bc3,65676825c75ae4de9831f3aa,70239,2C,man,NA,NA,M1 is being touched by W3,touch3,rating_causation,"{""Q0"":2}",[0],W3 asked to touch M1,M1 asked to touch W3
3707.199999809265,NA,NA,NA,NA,survey-likert-extra-labels,105,404909,0.0-39.0-2.0,anomymised,65658173739efdc811fa7bc3,65676825c75ae4de9831f3aa,70239,2C,man,NA,NA,M1 is being touched by W3,touch3,rating_volition,"{""Q0"":1}",[0],W3 wanted to touch M1,M1 wanted to touch W3
null,Jane is being shouted at by Beth,NA,NA,NA,html-keyboard-response,106,406920,0.0-40.0-0.0,anomymised,65658173739efdc811fa7bc3,65676825c75ae4de9831f3aa,70239,2C,man,NA,null,W3 is being shouted at by W1,shout1,sentence,NA,NA,NA,NA
3658.5,NA,NA,NA,NA,survey-likert-extra-labels,107,410580,0.0-40.0-2.0,anomymised,65658173739efdc811fa7bc3,65676825c75ae4de9831f3aa,70239,2C,man,NA,NA,W3 is being shouted at by W1,shout1,rating_volition,"{""Q0"":1}",[0],W1 wanted to shout at W3,W3 wanted to shout at W1
2433.5,NA,NA,NA,NA,survey-likert-extra-labels,108,413016,0.0-40.0-3.0-0.0,anomymised,65658173739efdc811fa7bc3,65676825c75ae4de9831f3aa,70239,2C,man,NA,NA,W3 is being shouted at by W1,shout1,rating_causation,"{""Q0"":1}",[0],W1 shouted at W3 first,W3 shouted at W1 first
null,Luke is being opposed by Fred,NA,NA,NA,html-keyboard-response,109,415032,0.0-41.0-0.0,anomymised,65658173739efdc811fa7bc3,65676825c75ae4de9831f3aa,70239,2C,man,NA,null,M3 is being opposed by M1,oppose2,sentence,NA,NA,NA,NA
4242.099999904633,NA,NA,NA,NA,survey-likert-extra-labels,110,419276,0.0-41.0-1.0-0.0,anomymised,65658173739efdc811fa7bc3,65676825c75ae4de9831f3aa,70239,2C,man,NA,NA,M3 is being opposed by M1,oppose2,rating_causation,"{""Q0"":1}",[0],M1 started opposing M3,M3 started opposing M1
2970.2999999523163,NA,NA,NA,NA,survey-likert-extra-labels,111,422248,0.0-41.0-2.0,anomymised,65658173739efdc811fa7bc3,65676825c75ae4de9831f3aa,70239,2C,man,NA,NA,M3 is being opposed by M1,oppose2,rating_volition,"{""Q0"":1}",[0],M1 wanted to oppose M3,M3 wanted to oppose M1
null,Dave is being greeted by Mike,NA,NA,NA,html-keyboard-response,112,424252,0.0-42.0-0.0,anomymised,65658173739efdc811fa7bc3,65676825c75ae4de9831f3aa,70239,2C,man,NA,null,M2 is being greeted by M4,greet2,sentence,NA,NA,NA,NA
4961.400000095367,NA,NA,NA,NA,survey-likert-extra-labels,113,429215,0.0-42.0-1.0-0.0,anomymised,65658173739efdc811fa7bc3,65676825c75ae4de9831f3aa,70239,2C,man,NA,NA,M2 is being greeted by M4,greet2,rating_causation,"{""Q0"":4}",[0],M2 started greeting M4 first,M4 started greeting M2 first
2492.9000000953674,NA,NA,NA,NA,survey-likert-extra-labels,114,431711,0.0-42.0-2.0,anomymised,65658173739efdc811fa7bc3,65676825c75ae4de9831f3aa,70239,2C,man,NA,NA,M2 is being greeted by M4,greet2,rating_volition,"{""Q0"":5}",[0],M2 wanted to greet M4,M4 wanted to greet M2
null,Ruth is being touched by Kate,NA,NA,NA,html-keyboard-response,115,433721,0.0-43.0-0.0,anomymised,65658173739efdc811fa7bc3,65676825c75ae4de9831f3aa,70239,2C,man,NA,null,W4 is being touched by W2,touch1,sentence,NA,NA,NA,NA
3695.2999999523163,NA,NA,NA,NA,survey-likert-extra-labels,116,437418,0.0-43.0-2.0,anomymised,65658173739efdc811fa7bc3,65676825c75ae4de9831f3aa,70239,2C,man,NA,NA,W4 is being touched by W2,touch1,rating_volition,"{""Q0"":1}",[0],W2 wanted to touch W4,W4 wanted to touch W2
3128.399999856949,NA,NA,NA,NA,survey-likert-extra-labels,117,440549,0.0-43.0-3.0-0.0,anomymised,65658173739efdc811fa7bc3,65676825c75ae4de9831f3aa,70239,2C,man,NA,NA,W4 is being touched by W2,touch1,rating_causation,"{""Q0"":2}",[0],W2 asked to touch W4,W4 asked to touch W2
null,Beth is being kissed by Jane,NA,NA,NA,html-keyboard-response,118,442553,0.0-44.0-0.0,anomymised,65658173739efdc811fa7bc3,65676825c75ae4de9831f3aa,70239,2C,man,NA,null,W1 is being kissed by W3,kiss1,sentence,NA,NA,NA,NA
3174.800000190735,NA,NA,NA,NA,survey-likert-extra-labels,119,445729,0.0-44.0-2.0,anomymised,65658173739efdc811fa7bc3,65676825c75ae4de9831f3aa,70239,2C,man,NA,NA,W1 is being kissed by W3,kiss1,rating_volition,"{""Q0"":5}",[0],W1 wanted to kiss W3,W3 wanted to kiss W1
3987,NA,NA,NA,NA,survey-likert-extra-labels,120,449719,0.0-44.0-3.0-0.0,anomymised,65658173739efdc811fa7bc3,65676825c75ae4de9831f3aa,70239,2C,man,NA,NA,W1 is being kissed by W3,kiss1,rating_causation,"{""Q0"":4}",[0],W1 asked to kiss W3,W3 asked to kiss W1
null,Kate is being looked at by Mike,NA,NA,NA,html-keyboard-response,121,451722,0.0-45.0-0.0,anomymised,65658173739efdc811fa7bc3,65676825c75ae4de9831f3aa,70239,2C,man,NA,null,W2 is being looked at by M4,look3,sentence,NA,NA,NA,NA
4198.799999952316,NA,NA,NA,NA,survey-likert-extra-labels,122,455923,0.0-45.0-2.0,anomymised,65658173739efdc811fa7bc3,65676825c75ae4de9831f3aa,70239,2C,man,NA,NA,W2 is being looked at by M4,look3,rating_volition,"{""Q0"":5}",[0],W2 wanted to look at M4,M4 wanted to look at W2
3193.800000190735,NA,NA,NA,NA,survey-likert-extra-labels,123,459119,0.0-45.0-3.0-0.0,anomymised,65658173739efdc811fa7bc3,65676825c75ae4de9831f3aa,70239,2C,man,NA,NA,W2 is being looked at by M4,look3,rating_causation,"{""Q0"":4}",[0],W2 looked at M4 first,M4 looked at W2 first
null,Beth is being touched by Luke,NA,NA,NA,html-keyboard-response,124,461127,0.0-46.0-0.0,anomymised,65658173739efdc811fa7bc3,65676825c75ae4de9831f3aa,70239,2C,man,NA,null,W1 is being touched by M3,touch4,sentence,NA,NA,NA,NA
5111.5,NA,NA,NA,NA,survey-likert-extra-labels,125,466240,0.0-46.0-1.0-0.0,anomymised,65658173739efdc811fa7bc3,65676825c75ae4de9831f3aa,70239,2C,man,NA,NA,W1 is being touched by M3,touch4,rating_causation,"{""Q0"":2}",[0],M3 asked to touch W1,W1 asked to touch M3
2900.100000143051,NA,NA,NA,NA,survey-likert-extra-labels,126,469143,0.0-46.0-2.0,anomymised,65658173739efdc811fa7bc3,65676825c75ae4de9831f3aa,70239,2C,man,NA,NA,W1 is being touched by M3,touch4,rating_volition,"{""Q0"":1}",[0],M3 wanted to touch W1,W1 wanted to touch M3
null,Mike is being seduced by Dave,NA,NA,NA,html-keyboard-response,127,471160,0.0-47.0-0.0,anomymised,65658173739efdc811fa7bc3,65676825c75ae4de9831f3aa,70239,2C,man,NA,null,M4 is being seduced by M2,seduce2,sentence,NA,NA,NA,NA
3350.5999999046326,NA,NA,NA,NA,survey-likert-extra-labels,128,474513,0.0-47.0-1.0-0.0,anomymised,65658173739efdc811fa7bc3,65676825c75ae4de9831f3aa,70239,2C,man,NA,NA,M4 is being seduced by M2,seduce2,rating_causation,"{""Q0"":1}",[0],M2 started seducing M4 first,M4 started seducing M2 first
4266,NA,NA,NA,NA,survey-likert-extra-labels,129,478781,0.0-47.0-2.0,anomymised,65658173739efdc811fa7bc3,65676825c75ae4de9831f3aa,70239,2C,man,NA,NA,M4 is being seduced by M2,seduce2,rating_volition,"{""Q0"":1}",[0],M2 wanted to seduce M4,M4 wanted to seduce M2
null,Kate is carrying Ruth,NA,NA,NA,html-keyboard-response,130,480791,0.0-48.0-0.0,anomymised,65658173739efdc811fa7bc3,65676825c75ae4de9831f3aa,70239,2C,man,NA,null,W2 is carrying W4,carry,sentence,NA,NA,NA,NA
3886.5999999046326,NA,NA,NA,NA,survey-likert-extra-labels,131,484679,0.0-48.0-1.0-0.0,anomymised,65658173739efdc811fa7bc3,65676825c75ae4de9831f3aa,70239,2C,man,NA,NA,W2 is carrying W4,carry,rating_causation,"{""Q0"":1}",[0],W2 is being moved by W4,W4 is being moved by W2
2839.9000000953674,NA,NA,NA,NA,survey-likert-extra-labels,132,487522,0.0-48.0-2.0,anomymised,65658173739efdc811fa7bc3,65676825c75ae4de9831f3aa,70239,2C,man,NA,NA,W2 is carrying W4,carry,rating_volition,"{""Q0"":1}",[0],W2 is transporting W4,W4 is transporting W2
null,Kate is being greeted by Ruth,NA,NA,NA,html-keyboard-response,133,489532,0.0-49.0-0.0,anomymised,65658173739efdc811fa7bc3,65676825c75ae4de9831f3aa,70239,2C,man,NA,null,W2 is being greeted by W4,greet1,sentence,NA,NA,NA,NA
5785.299999952316,NA,NA,NA,NA,survey-likert-extra-labels,134,495318,0.0-49.0-1.0-0.0,anomymised,65658173739efdc811fa7bc3,65676825c75ae4de9831f3aa,70239,2C,man,NA,NA,W2 is being greeted by W4,greet1,rating_causation,"{""Q0"":5}",[0],W2 started greeting W4 first,W4 started greeting W2 first
2689.2000000476837,NA,NA,NA,NA,survey-likert-extra-labels,135,498009,0.0-49.0-2.0,anomymised,65658173739efdc811fa7bc3,65676825c75ae4de9831f3aa,70239,2C,man,NA,NA,W2 is being greeted by W4,greet1,rating_volition,"{""Q0"":5}",[0],W2 wanted to greet W4,W4 wanted to greet W2
null,Beth is being seduced by Luke,NA,NA,NA,html-keyboard-response,136,500013,0.0-50.0-0.0,anomymised,65658173739efdc811fa7bc3,65676825c75ae4de9831f3aa,70239,2C,man,NA,null,W1 is being seduced by M3,seduce4,sentence,NA,NA,NA,NA
3426.0999999046326,NA,NA,NA,NA,survey-likert-extra-labels,137,503441,0.0-50.0-2.0,anomymised,65658173739efdc811fa7bc3,65676825c75ae4de9831f3aa,70239,2C,man,NA,NA,W1 is being seduced by M3,seduce4,rating_volition,"{""Q0"":1}",[0],M3 wanted to seducing W1,W1 wanted to seducing M3
2528.2999999523163,NA,NA,NA,NA,survey-likert-extra-labels,138,505972,0.0-50.0-3.0-0.0,anomymised,65658173739efdc811fa7bc3,65676825c75ae4de9831f3aa,70239,2C,man,NA,NA,W1 is being seduced by M3,seduce4,rating_causation,"{""Q0"":1}",[0],M3 started seducing W1 first,W1 started seducing M3 first
null,Mike is being shouted at by Kate,NA,NA,NA,html-keyboard-response,139,507986,0.0-51.0-0.0,anomymised,65658173739efdc811fa7bc3,65676825c75ae4de9831f3aa,70239,2C,man,NA,null,M4 is being shouted at by W2,shout4,sentence,NA,NA,NA,NA
5341.099999904633,NA,NA,NA,NA,survey-likert-extra-labels,140,513329,0.0-51.0-1.0-0.0,anomymised,65658173739efdc811fa7bc3,65676825c75ae4de9831f3aa,70239,2C,man,NA,NA,M4 is being shouted at by W2,shout4,rating_causation,"{""Q0"":1}",[0],W2 shouted at M4 first,M4 shouted at W2 first
2625.600000143051,NA,NA,NA,NA,survey-likert-extra-labels,141,515958,0.0-51.0-2.0,anomymised,65658173739efdc811fa7bc3,65676825c75ae4de9831f3aa,70239,2C,man,NA,NA,M4 is being shouted at by W2,shout4,rating_volition,"{""Q0"":1}",[0],W2 wanted to shout at M4,M4 wanted to shout at W2
null,Ruth is being seduced by Kate,NA,NA,NA,html-keyboard-response,142,517975,0.0-52.0-0.0,anomymised,65658173739efdc811fa7bc3,65676825c75ae4de9831f3aa,70239,2C,man,NA,null,W4 is being seduced by W2,seduce1,sentence,NA,NA,NA,NA
2592.2999999523163,NA,NA,NA,NA,survey-likert-extra-labels,143,520569,0.0-52.0-2.0,anomymised,65658173739efdc811fa7bc3,65676825c75ae4de9831f3aa,70239,2C,man,NA,NA,W4 is being seduced by W2,seduce1,rating_volition,"{""Q0"":1}",[0],W2 wanted to seduce W4,W4 wanted to seduce W2
2560.7000000476837,NA,NA,NA,NA,survey-likert-extra-labels,144,523131,0.0-52.0-3.0-0.0,anomymised,65658173739efdc811fa7bc3,65676825c75ae4de9831f3aa,70239,2C,man,NA,NA,W4 is being seduced by W2,seduce1,rating_causation,"{""Q0"":1}",[0],W2 started seducing W4 first,W4 started seducing W2 first
null,Ruth is being challenged by Kate,NA,NA,NA,html-keyboard-response,145,525148,0.0-53.0-0.0,anomymised,65658173739efdc811fa7bc3,65676825c75ae4de9831f3aa,70239,2C,man,NA,null,W4 is being challenged by W2,challenge1,sentence,NA,NA,NA,NA
5012.700000047684,NA,NA,NA,NA,survey-likert-extra-labels,146,530162,0.0-53.0-1.0-0.0,anomymised,65658173739efdc811fa7bc3,65676825c75ae4de9831f3aa,70239,2C,man,NA,NA,W4 is being challenged by W2,challenge1,rating_causation,"{""Q0"":1}",[0],W2 started challenging W4 first,W4 started challenging W2 first
3084.4000000953674,NA,NA,NA,NA,survey-likert-extra-labels,147,533250,0.0-53.0-2.0,anomymised,65658173739efdc811fa7bc3,65676825c75ae4de9831f3aa,70239,2C,man,NA,NA,W4 is being challenged by W2,challenge1,rating_volition,"{""Q0"":1}",[0],W2 wanted to challenge W4,W4 wanted to challenge W2
null,Beth is being looked at by Jane,NA,NA,NA,html-keyboard-response,148,535260,0.0-54.0-0.0,anomymised,65658173739efdc811fa7bc3,65676825c75ae4de9831f3aa,70239,2C,man,NA,null,W1 is being looked at by W3,look1,sentence,NA,NA,NA,NA
4325.699999809265,NA,NA,NA,NA,survey-likert-extra-labels,149,539587,0.0-54.0-2.0,anomymised,65658173739efdc811fa7bc3,65676825c75ae4de9831f3aa,70239,2C,man,NA,NA,W1 is being looked at by W3,look1,rating_volition,"{""Q0"":5}",[0],W1 wanted to look at W3,W3 wanted to look at W1
3123.2999999523163,NA,NA,NA,NA,survey-likert-extra-labels,150,542714,0.0-54.0-3.0-0.0,anomymised,65658173739efdc811fa7bc3,65676825c75ae4de9831f3aa,70239,2C,man,NA,NA,W1 is being looked at by W3,look1,rating_causation,"{""Q0"":5}",[0],W1 looked at W3 first,W3 looked at W1 first
1930.5,<p>Thank you for completing that task.</p><p>The final part of this session is a short questionnaire.</p><p>Press Continue.</p>,0,Continue,Continue,html-button-response,151,544647,0.0-55.0,anomymised,65658173739efdc811fa7bc3,65676825c75ae4de9831f3aa,70239,2C,man,NA,NA,NA,NA,NA,NA,NA,NA,NA
18625.400000095367,NA,NA,NA,NA,survey-text,152,564292,0.0-56.0,anomymised,65658173739efdc811fa7bc3,65676825c75ae4de9831f3aa,70239,2C,man,NA,NA,NA,NA,demographics,"{""Q0"":""33"",""Q1"":""english"",""Q2"":""english"",""Q3"":""UK"",""Q4"":""British"",""Q5"":""White"",""Q6"":""Male""}",NA,NA,NA
2427.9000000953674,<p>This is the last question - thank you for taking part! Have you lived in the UK for the last 5 years or more?</p>,0,"Yes,No",Yes,html-button-response,153,566724,0.0-57.0,anomymised,65658173739efdc811fa7bc3,65676825c75ae4de9831f3aa,70239,2C,man,NA,NA,NA,NA,fiveyears,NA,NA,NA,NA
