rt,stimulus,button_pressed,choices,ChosenStimulus,trial_type,trial_index,time_elapsed,internal_node_id,subject_id,study_id,session_id,subject,list,ppt_gender,url,key_press,sentence_type,verb,test_part,responses,question_order,left_part,right_part
3077.7000000011176,Welcome to the experiment. Press Continue to begin.,0,Continue,Continue,html-button-response,0,3081,0.0-0.0,anomymised,65658173009eeb17459c8404,656778256fcbfe556d21ba61,70247,2,man,NA,NA,NA,NA,NA,NA,NA,NA,NA
4335.9000000003725,NA,NA,NA,NA,external-html,1,8459,0.0-1.0,anomymised,65658173009eeb17459c8404,656778256fcbfe556d21ba61,70247,2,man,consent.html,NA,NA,NA,NA,NA,NA,NA,NA
94133.90000000037,"<p>Welcome.</p><p>In this experiment we will ask you to imagine some situations.</p><p>Each trial starts with a description of an event.</p><p>Then you will see alternative descriptions of that event, and you will rate on a scale how best they match the original description.</p><p>You will give your answer by clicking a button on a rating scale.</p><p>To do this task, you will have to use your imagination to visualise these events.</p><br><p>Ready?</p>",0,Continue,Continue,html-button-response,2,102595,0.0-2.0,anomymised,65658173009eeb17459c8404,656778256fcbfe556d21ba61,70247,2,man,NA,NA,NA,NA,NA,NA,NA,NA,NA
2712.300000000745,"<p>Before the experiment starts, you will watch an example trial. Press 'Continue'.</p>",0,Continue,Continue,html-button-response,3,106545,0.0-3.0,anomymised,65658173009eeb17459c8404,656778256fcbfe556d21ba61,70247,2,man,NA,NA,NA,NA,NA,NA,NA,NA,NA
null,The police officer is arresting the robber,NA,NA,NA,html-keyboard-response,4,109555,0.0-4.0,anomymised,65658173009eeb17459c8404,656778256fcbfe556d21ba61,70247,2,man,NA,null,NA,NA,NA,NA,NA,NA,NA
5174.5,<img src='img/Example-trial.jpg' style='height:550px;''></img>,0,Continue,Continue,html-button-response,5,114730,0.0-5.0,anomymised,65658173009eeb17459c8404,656778256fcbfe556d21ba61,70247,2,man,NA,NA,NA,NA,NA,NA,NA,NA,NA
1305.0999999996275,<p>Ready to start the experiment?</p><br><p><strong>Remember to give an answer by clicking a button on the rating scale.</strong></p><p>Press 'Continue' to begin.</p>,0,Continue,Continue,html-button-response,6,117037,0.0-6.0,anomymised,65658173009eeb17459c8404,656778256fcbfe556d21ba61,70247,2,man,NA,NA,NA,NA,NA,NA,NA,NA,NA
null,Beth is being kissed by Jane,NA,NA,NA,html-keyboard-response,7,120039,0.0-7.0-0.0,anomymised,65658173009eeb17459c8404,656778256fcbfe556d21ba61,70247,2,man,NA,null,W1 is being kissed by W3,kiss1,sentence,NA,NA,NA,NA
4378.5,NA,NA,NA,NA,survey-likert-extra-labels,8,124419,0.0-7.0-2.0,anomymised,65658173009eeb17459c8404,656778256fcbfe556d21ba61,70247,2,man,NA,NA,W1 is being kissed by W3,kiss1,rating_volition,"{""Q0"":6}",[0],W3 wanted to kiss W1,W1 wanted to kiss W3
4749.60000000149,NA,NA,NA,NA,survey-likert-extra-labels,9,129170,0.0-7.0-3.0-0.0,anomymised,65658173009eeb17459c8404,656778256fcbfe556d21ba61,70247,2,man,NA,NA,W1 is being kissed by W3,kiss1,rating_causation,"{""Q0"":3}",[0],W3 asked to kiss W1,W1 asked to kiss W3
null,Ruth is being seduced by Kate,NA,NA,NA,html-keyboard-response,10,131177,0.0-8.0-0.0,anomymised,65658173009eeb17459c8404,656778256fcbfe556d21ba61,70247,2,man,NA,null,W4 is being seduced by W2,seduce1,sentence,NA,NA,NA,NA
6081.700000001118,NA,NA,NA,NA,survey-likert-extra-labels,11,137259,0.0-8.0-2.0,anomymised,65658173009eeb17459c8404,656778256fcbfe556d21ba61,70247,2,man,NA,NA,W4 is being seduced by W2,seduce1,rating_volition,"{""Q0"":1}",[0],W4 wanted to seduce W2,W2 wanted to seduce W4
3073.5,NA,NA,NA,NA,survey-likert-extra-labels,12,140335,0.0-8.0-3.0-0.0,anomymised,65658173009eeb17459c8404,656778256fcbfe556d21ba61,70247,2,man,NA,NA,W4 is being seduced by W2,seduce1,rating_causation,"{""Q0"":1}",[0],W4 started seducing W2 first,W2 started seducing W4 first
null,Fred is being looked at by Luke,NA,NA,NA,html-keyboard-response,13,142340,0.0-9.0-0.0,anomymised,65658173009eeb17459c8404,656778256fcbfe556d21ba61,70247,2,man,NA,null,M1 is being looked at by M3,look2,sentence,NA,NA,NA,NA
4656.699999999255,NA,NA,NA,NA,survey-likert-extra-labels,14,146997,0.0-9.0-1.0-0.0,anomymised,65658173009eeb17459c8404,656778256fcbfe556d21ba61,70247,2,man,NA,NA,M1 is being looked at by M3,look2,rating_causation,"{""Q0"":1}",[0],M3 looked at M1 first,M1 looked at M3 first
3921.5999999996275,NA,NA,NA,NA,survey-likert-extra-labels,15,150921,0.0-9.0-2.0,anomymised,65658173009eeb17459c8404,656778256fcbfe556d21ba61,70247,2,man,NA,NA,M1 is being looked at by M3,look2,rating_volition,"{""Q0"":5}",[0],M3 wanted to look at M1,M1 wanted to look at M3
null,Mike is being seduced by Dave,NA,NA,NA,html-keyboard-response,16,152931,0.0-10.0-0.0,anomymised,65658173009eeb17459c8404,656778256fcbfe556d21ba61,70247,2,man,NA,null,M4 is being seduced by M2,seduce2,sentence,NA,NA,NA,NA
2148,NA,NA,NA,NA,survey-likert-extra-labels,17,155080,0.0-10.0-1.0-0.0,anomymised,65658173009eeb17459c8404,656778256fcbfe556d21ba61,70247,2,man,NA,NA,M4 is being seduced by M2,seduce2,rating_causation,"{""Q0"":1}",[0],M4 started seducing M2 first,M2 started seducing M4 first
3742.5,NA,NA,NA,NA,survey-likert-extra-labels,18,158823,0.0-10.0-2.0,anomymised,65658173009eeb17459c8404,656778256fcbfe556d21ba61,70247,2,man,NA,NA,M4 is being seduced by M2,seduce2,rating_volition,"{""Q0"":1}",[0],M4 wanted to seduce M2,M2 wanted to seduce M4
null,Kate is being looked at by Mike,NA,NA,NA,html-keyboard-response,19,160837,0.0-11.0-0.0,anomymised,65658173009eeb17459c8404,656778256fcbfe556d21ba61,70247,2,man,NA,null,W2 is being looked at by M4,look3,sentence,NA,NA,NA,NA
12194.299999998882,NA,NA,NA,NA,survey-likert-extra-labels,20,173032,0.0-11.0-1.0-0.0,anomymised,65658173009eeb17459c8404,656778256fcbfe556d21ba61,70247,2,man,NA,NA,W2 is being looked at by M4,look3,rating_causation,"{""Q0"":5}",[0],M4 looked at W2 first,W2 looked at M4 first
1725.8999999985099,NA,NA,NA,NA,survey-likert-extra-labels,21,174759,0.0-11.0-2.0,anomymised,65658173009eeb17459c8404,656778256fcbfe556d21ba61,70247,2,man,NA,NA,W2 is being looked at by M4,look3,rating_volition,"{""Q0"":5}",[0],M4 wanted to look at W2,W2 wanted to look at M4
null,Mike is being touched by Dave,NA,NA,NA,html-keyboard-response,22,176822,0.0-12.0-0.0,anomymised,65658173009eeb17459c8404,656778256fcbfe556d21ba61,70247,2,man,NA,null,M4 is being touched by M2,touch2,sentence,NA,NA,NA,NA
5857.60000000149,NA,NA,NA,NA,survey-likert-extra-labels,23,182680,0.0-12.0-1.0-0.0,anomymised,65658173009eeb17459c8404,656778256fcbfe556d21ba61,70247,2,man,NA,NA,M4 is being touched by M2,touch2,rating_causation,"{""Q0"":2}",[0],M4 asked to touch M2,M2 asked to touch M4
7659.0999999996275,NA,NA,NA,NA,survey-likert-extra-labels,24,190341,0.0-12.0-2.0,anomymised,65658173009eeb17459c8404,656778256fcbfe556d21ba61,70247,2,man,NA,NA,M4 is being touched by M2,touch2,rating_volition,"{""Q0"":2}",[0],M4 wanted to touch M2,M2 wanted to touch M4
null,Kate is being kissed by Mike,NA,NA,NA,html-keyboard-response,25,192343,0.0-13.0-0.0,anomymised,65658173009eeb17459c8404,656778256fcbfe556d21ba61,70247,2,man,NA,null,W2 is being kissed by M4,kiss4,sentence,NA,NA,NA,NA
64153.90000000037,NA,NA,NA,NA,survey-likert-extra-labels,26,256497,0.0-13.0-1.0-0.0,anomymised,65658173009eeb17459c8404,656778256fcbfe556d21ba61,70247,2,man,NA,NA,W2 is being kissed by M4,kiss4,rating_causation,"{""Q0"":2}",[0],M4 asked to kiss W2,W2 asked to kiss M4
2722.4000000003725,NA,NA,NA,NA,survey-likert-extra-labels,27,259221,0.0-13.0-2.0,anomymised,65658173009eeb17459c8404,656778256fcbfe556d21ba61,70247,2,man,NA,NA,W2 is being kissed by M4,kiss4,rating_volition,"{""Q0"":0}",[0],M4 wanted to kiss W2,W2 wanted to kiss M4
null,Dave is being kissed by Ruth,NA,NA,NA,html-keyboard-response,28,261229,0.0-14.0-0.0,anomymised,65658173009eeb17459c8404,656778256fcbfe556d21ba61,70247,2,man,NA,null,M2 is being kissed by W4,kiss3,sentence,NA,NA,NA,NA
8909.60000000149,NA,NA,NA,NA,survey-likert-extra-labels,29,270140,0.0-14.0-1.0-0.0,anomymised,65658173009eeb17459c8404,656778256fcbfe556d21ba61,70247,2,man,NA,NA,M2 is being kissed by W4,kiss3,rating_causation,"{""Q0"":5}",[0],W4 asked to kiss M2,M2 asked to kiss W4
4958.699999999255,NA,NA,NA,NA,survey-likert-extra-labels,30,275100,0.0-14.0-2.0,anomymised,65658173009eeb17459c8404,656778256fcbfe556d21ba61,70247,2,man,NA,NA,M2 is being kissed by W4,kiss3,rating_volition,"{""Q0"":5}",[0],W4 wanted to kiss M2,M2 wanted to kiss W4
null,Dave is being looked at by Ruth,NA,NA,NA,html-keyboard-response,31,277106,0.0-15.0-0.0,anomymised,65658173009eeb17459c8404,656778256fcbfe556d21ba61,70247,2,man,NA,null,M2 is being looked at by W4,look4,sentence,NA,NA,NA,NA
2272.199999999255,NA,NA,NA,NA,survey-likert-extra-labels,32,279380,0.0-15.0-2.0,anomymised,65658173009eeb17459c8404,656778256fcbfe556d21ba61,70247,2,man,NA,NA,M2 is being looked at by W4,look4,rating_volition,"{""Q0"":4}",[0],W4 wanted to look at M2,M2 wanted to look at W4
2210.10000000149,NA,NA,NA,NA,survey-likert-extra-labels,33,281591,0.0-15.0-3.0-0.0,anomymised,65658173009eeb17459c8404,656778256fcbfe556d21ba61,70247,2,man,NA,NA,M2 is being looked at by W4,look4,rating_causation,"{""Q0"":5}",[0],W4 looked at M2 first,M2 looked at W4 first
null,Mike is being hugged by Kate,NA,NA,NA,html-keyboard-response,34,283593,0.0-16.0-0.0,anomymised,65658173009eeb17459c8404,656778256fcbfe556d21ba61,70247,2,man,NA,null,M4 is being hugged by W2,hug3,sentence,NA,NA,NA,NA
5182.5999999996275,NA,NA,NA,NA,survey-likert-extra-labels,35,288776,0.0-16.0-1.0-0.0,anomymised,65658173009eeb17459c8404,656778256fcbfe556d21ba61,70247,2,man,NA,NA,M4 is being hugged by W2,hug3,rating_causation,"{""Q0"":2}",[0],M4 asked to hug W2,W2 asked to hug M4
1678.2000000011176,NA,NA,NA,NA,survey-likert-extra-labels,36,290456,0.0-16.0-2.0,anomymised,65658173009eeb17459c8404,656778256fcbfe556d21ba61,70247,2,man,NA,NA,M4 is being hugged by W2,hug3,rating_volition,"{""Q0"":1}",[0],M4 wanted to hug W2,W2 wanted to hug M4
null,Beth is chasing Jane,NA,NA,NA,html-keyboard-response,37,292472,0.0-17.0-0.0,anomymised,65658173009eeb17459c8404,656778256fcbfe556d21ba61,70247,2,man,NA,null,W1 is chasing W3,chase,sentence,NA,NA,NA,NA
13100.300000000745,NA,NA,NA,NA,survey-likert-extra-labels,38,305573,0.0-17.0-2.0,anomymised,65658173009eeb17459c8404,656778256fcbfe556d21ba61,70247,2,man,NA,NA,W1 is chasing W3,chase,rating_volition,"{""Q0"":0}",[0],W1 is behind W3,W3 is behind W1
4355,NA,NA,NA,NA,survey-likert-extra-labels,39,309930,0.0-17.0-3.0-0.0,anomymised,65658173009eeb17459c8404,656778256fcbfe556d21ba61,70247,2,man,NA,NA,W1 is chasing W3,chase,rating_causation,"{""Q0"":4}",[0],W1 is running away from W3,W3 is running away from W1
null,Ruth is being opposed by Dave,NA,NA,NA,html-keyboard-response,40,311936,0.0-18.0-0.0,anomymised,65658173009eeb17459c8404,656778256fcbfe556d21ba61,70247,2,man,NA,null,W4 is being opposed by M2,oppose4,sentence,NA,NA,NA,NA
5767.800000000745,NA,NA,NA,NA,survey-likert-extra-labels,41,317704,0.0-18.0-1.0-0.0,anomymised,65658173009eeb17459c8404,656778256fcbfe556d21ba61,70247,2,man,NA,NA,W4 is being opposed by M2,oppose4,rating_causation,"{""Q0"":6}",[0],W4 started opposing M2,M2 started opposing W4
2124.300000000745,NA,NA,NA,NA,survey-likert-extra-labels,42,319830,0.0-18.0-2.0,anomymised,65658173009eeb17459c8404,656778256fcbfe556d21ba61,70247,2,man,NA,NA,W4 is being opposed by M2,oppose4,rating_volition,"{""Q0"":5}",[0],W4 wanted to oppose M2,M2 wanted to oppose W4
null,Jane is being opposed by Beth,NA,NA,NA,html-keyboard-response,43,321841,0.0-19.0-0.0,anomymised,65658173009eeb17459c8404,656778256fcbfe556d21ba61,70247,2,man,NA,null,W3 is being opposed by W1,oppose1,sentence,NA,NA,NA,NA
31506.599999999627,NA,NA,NA,NA,survey-likert-extra-labels,44,353348,0.0-19.0-2.0,anomymised,65658173009eeb17459c8404,656778256fcbfe556d21ba61,70247,2,man,NA,NA,W3 is being opposed by W1,oppose1,rating_volition,"{""Q0"":5}",[0],W3 wanted to oppose W1,W1 wanted to oppose W3
7144.0999999996275,NA,NA,NA,NA,survey-likert-extra-labels,45,360494,0.0-19.0-3.0-0.0,anomymised,65658173009eeb17459c8404,656778256fcbfe556d21ba61,70247,2,man,NA,NA,W3 is being opposed by W1,oppose1,rating_causation,"{""Q0"":5}",[0],W3 started opposing W1,W1 started opposing W3
null,Dave is being greeted by Mike,NA,NA,NA,html-keyboard-response,46,362501,0.0-20.0-0.0,anomymised,65658173009eeb17459c8404,656778256fcbfe556d21ba61,70247,2,man,NA,null,M2 is being greeted by M4,greet2,sentence,NA,NA,NA,NA
4592.300000000745,NA,NA,NA,NA,survey-likert-extra-labels,47,367094,0.0-20.0-2.0,anomymised,65658173009eeb17459c8404,656778256fcbfe556d21ba61,70247,2,man,NA,NA,M2 is being greeted by M4,greet2,rating_volition,"{""Q0"":1}",[0],M4 wanted to greet M2,M2 wanted to greet M4
2763.699999999255,NA,NA,NA,NA,survey-likert-extra-labels,48,369859,0.0-20.0-3.0-0.0,anomymised,65658173009eeb17459c8404,656778256fcbfe556d21ba61,70247,2,man,NA,NA,M2 is being greeted by M4,greet2,rating_causation,"{""Q0"":1}",[0],M4 started greeting M2 first,M2 started greeting M4 first
null,Luke is being shouted at by Fred,NA,NA,NA,html-keyboard-response,49,371875,0.0-21.0-0.0,anomymised,65658173009eeb17459c8404,656778256fcbfe556d21ba61,70247,2,man,NA,null,M3 is being shouted at by M1,shout2,sentence,NA,NA,NA,NA
5250.5,NA,NA,NA,NA,survey-likert-extra-labels,50,377127,0.0-21.0-2.0,anomymised,65658173009eeb17459c8404,656778256fcbfe556d21ba61,70247,2,man,NA,NA,M3 is being shouted at by M1,shout2,rating_volition,"{""Q0"":1}",[0],M3 wanted to shout at M1,M1 wanted to shout at M3
4056.5,NA,NA,NA,NA,survey-likert-extra-labels,51,381185,0.0-21.0-3.0-0.0,anomymised,65658173009eeb17459c8404,656778256fcbfe556d21ba61,70247,2,man,NA,NA,M3 is being shouted at by M1,shout2,rating_causation,"{""Q0"":2}",[0],M3 shouted at M1 first,M1 shouted at M3 first
null,Ruth is being hugged by Dave,NA,NA,NA,html-keyboard-response,52,383189,0.0-22.0-0.0,anomymised,65658173009eeb17459c8404,656778256fcbfe556d21ba61,70247,2,man,NA,null,W4 is being hugged by M2,hug4,sentence,NA,NA,NA,NA
23201.200000001118,NA,NA,NA,NA,survey-likert-extra-labels,53,406391,0.0-22.0-1.0-0.0,anomymised,65658173009eeb17459c8404,656778256fcbfe556d21ba61,70247,2,man,NA,NA,W4 is being hugged by M2,hug4,rating_causation,"{""Q0"":5}",[0],W4 asked to hug M2,M2 asked to hug W4
1845.2000000011176,NA,NA,NA,NA,survey-likert-extra-labels,54,408238,0.0-22.0-2.0,anomymised,65658173009eeb17459c8404,656778256fcbfe556d21ba61,70247,2,man,NA,NA,W4 is being hugged by M2,hug4,rating_volition,"{""Q0"":5}",[0],W4 wanted to hug M2,M2 wanted to hug W4
null,Luke is being hugged by Fred,NA,NA,NA,html-keyboard-response,55,410250,0.0-23.0-0.0,anomymised,65658173009eeb17459c8404,656778256fcbfe556d21ba61,70247,2,man,NA,null,M3 is being hugged by M1,hug2,sentence,NA,NA,NA,NA
6614.5999999996275,NA,NA,NA,NA,survey-likert-extra-labels,56,416866,0.0-23.0-1.0-0.0,anomymised,65658173009eeb17459c8404,656778256fcbfe556d21ba61,70247,2,man,NA,NA,M3 is being hugged by M1,hug2,rating_causation,"{""Q0"":1}",[0],M3 asked to hug M1,M1 asked to hug M3
5305.0999999996275,NA,NA,NA,NA,survey-likert-extra-labels,57,422172,0.0-23.0-2.0,anomymised,65658173009eeb17459c8404,656778256fcbfe556d21ba61,70247,2,man,NA,NA,M3 is being hugged by M1,hug2,rating_volition,"{""Q0"":5}",[0],M3 wanted to hug M1,M1 wanted to hug M3
null,Dave is posing for Mike,NA,NA,NA,html-keyboard-response,58,424175,0.0-24.0-0.0,anomymised,65658173009eeb17459c8404,656778256fcbfe556d21ba61,70247,2,man,NA,null,M2 is posing for M4,pose,sentence,NA,NA,NA,NA
8144.199999999255,NA,NA,NA,NA,survey-likert-extra-labels,59,432320,0.0-24.0-1.0-0.0,anomymised,65658173009eeb17459c8404,656778256fcbfe556d21ba61,70247,2,man,NA,NA,M2 is posing for M4,pose,rating_causation,"{""Q0"":5}",[0],M2 is photographing M4,M4 is photographing M2
2424.0999999996275,NA,NA,NA,NA,survey-likert-extra-labels,60,434745,0.0-24.0-2.0,anomymised,65658173009eeb17459c8404,656778256fcbfe556d21ba61,70247,2,man,NA,NA,M2 is posing for M4,pose,rating_volition,"{""Q0"":1}",[0],M2 is modelling for M4,M4 is modelling for M2
null,Luke is being copied by Beth,NA,NA,NA,html-keyboard-response,61,436758,0.0-25.0-0.0,anomymised,65658173009eeb17459c8404,656778256fcbfe556d21ba61,70247,2,man,NA,null,M3 is being copied by W1,copy4,sentence,NA,NA,NA,NA
4685.800000000745,NA,NA,NA,NA,survey-likert-extra-labels,62,441444,0.0-25.0-1.0-0.0,anomymised,65658173009eeb17459c8404,656778256fcbfe556d21ba61,70247,2,man,NA,NA,M3 is being copied by W1,copy4,rating_causation,"{""Q0"":1}",[0],W1 started copying M3 first,M3 started copying W1 first
1367.5999999996275,NA,NA,NA,NA,survey-likert-extra-labels,63,442814,0.0-25.0-2.0,anomymised,65658173009eeb17459c8404,656778256fcbfe556d21ba61,70247,2,man,NA,NA,M3 is being copied by W1,copy4,rating_volition,"{""Q0"":1}",[0],W1 wanted to copy M3,M3 wanted to copy W1
null,Ruth is being challenged by Kate,NA,NA,NA,html-keyboard-response,64,444826,0.0-26.0-0.0,anomymised,65658173009eeb17459c8404,656778256fcbfe556d21ba61,70247,2,man,NA,null,W4 is being challenged by W2,challenge1,sentence,NA,NA,NA,NA
60646.699999999255,NA,NA,NA,NA,survey-likert-extra-labels,65,505474,0.0-26.0-2.0,anomymised,65658173009eeb17459c8404,656778256fcbfe556d21ba61,70247,2,man,NA,NA,W4 is being challenged by W2,challenge1,rating_volition,"{""Q0"":5}",[0],W4 wanted to challenge W2,W2 wanted to challenge W4
2809.5,NA,NA,NA,NA,survey-likert-extra-labels,66,508285,0.0-26.0-3.0-0.0,anomymised,65658173009eeb17459c8404,656778256fcbfe556d21ba61,70247,2,man,NA,NA,W4 is being challenged by W2,challenge1,rating_causation,"{""Q0"":5}",[0],W4 started challenging W2 first,W2 started challenging W4 first
null,Fred is being challenged by Jane,NA,NA,NA,html-keyboard-response,67,510295,0.0-27.0-0.0,anomymised,65658173009eeb17459c8404,656778256fcbfe556d21ba61,70247,2,man,NA,null,M1 is being challenged by W3,challenge4,sentence,NA,NA,NA,NA
25474.400000000373,NA,NA,NA,NA,survey-likert-extra-labels,68,535771,0.0-27.0-2.0,anomymised,65658173009eeb17459c8404,656778256fcbfe556d21ba61,70247,2,man,NA,NA,M1 is being challenged by W3,challenge4,rating_volition,"{""Q0"":5}",[0],M1 wanted to challenge W3,W3 wanted to challenge M1
2787.9000000003725,NA,NA,NA,NA,survey-likert-extra-labels,69,538560,0.0-27.0-3.0-0.0,anomymised,65658173009eeb17459c8404,656778256fcbfe556d21ba61,70247,2,man,NA,NA,M1 is being challenged by W3,challenge4,rating_causation,"{""Q0"":""""}",[0],M1 started challenging W3 first,W3 started challenging M1 first
null,Jane is being greeted by Fred,NA,NA,NA,html-keyboard-response,70,540817,0.0-28.0-0.0,anomymised,65658173009eeb17459c8404,656778256fcbfe556d21ba61,70247,2,man,NA,null,W3 is being greeted by M1,greet4,sentence,NA,NA,NA,NA
105275.09999999963,NA,NA,NA,NA,survey-likert-extra-labels,71,646092,0.0-28.0-1.0-0.0,anomymised,65658173009eeb17459c8404,656778256fcbfe556d21ba61,70247,2,man,NA,NA,W3 is being greeted by M1,greet4,rating_causation,"{""Q0"":5}",[0],M1 started greeting W3 first,W3 started greeting M1 first
4746.5999999996275,NA,NA,NA,NA,survey-likert-extra-labels,72,650840,0.0-28.0-2.0,anomymised,65658173009eeb17459c8404,656778256fcbfe556d21ba61,70247,2,man,NA,NA,W3 is being greeted by M1,greet4,rating_volition,"{""Q0"":""""}",[0],M1 wanted to greet W3,W3 wanted to greet M1
null,Fred is being seduced by Jane,NA,NA,NA,html-keyboard-response,73,652850,0.0-29.0-0.0,anomymised,65658173009eeb17459c8404,656778256fcbfe556d21ba61,70247,2,man,NA,null,M1 is being seduced by W3,seduce3,sentence,NA,NA,NA,NA
51959.699999999255,NA,NA,NA,NA,survey-likert-extra-labels,74,704811,0.0-29.0-2.0,anomymised,65658173009eeb17459c8404,656778256fcbfe556d21ba61,70247,2,man,NA,NA,M1 is being seduced by W3,seduce3,rating_volition,"{""Q0"":1}",[0],M1 wanted to seduce W3,W3 wanted to seduce M1
3529.5,NA,NA,NA,NA,survey-likert-extra-labels,75,708342,0.0-29.0-3.0-0.0,anomymised,65658173009eeb17459c8404,656778256fcbfe556d21ba61,70247,2,man,NA,NA,M1 is being seduced by W3,seduce3,rating_causation,"{""Q0"":1}",[0],M1 started seducing W3 first,W3 started seducing M1 first
null,Luke is hiring Beth,NA,NA,NA,html-keyboard-response,76,710343,0.0-30.0-0.0,anomymised,65658173009eeb17459c8404,656778256fcbfe556d21ba61,70247,2,man,NA,null,M3 is hiring W1,hire,sentence,NA,NA,NA,NA
4982.5,NA,NA,NA,NA,survey-likert-extra-labels,77,715327,0.0-30.0-1.0-0.0,anomymised,65658173009eeb17459c8404,656778256fcbfe556d21ba61,70247,2,man,NA,NA,M3 is hiring W1,hire,rating_causation,"{""Q0"":6}",[0],M3 will work for W1,W1 will work for M3
2623.5,NA,NA,NA,NA,survey-likert-extra-labels,78,717952,0.0-30.0-2.0,anomymised,65658173009eeb17459c8404,656778256fcbfe556d21ba61,70247,2,man,NA,NA,M3 is hiring W1,hire,rating_volition,"{""Q0"":0}",[0],M3 is employing W1,W1 is employing M3
null,Dave is reminding Ruth,NA,NA,NA,html-keyboard-response,79,719961,0.0-31.0-0.0,anomymised,65658173009eeb17459c8404,656778256fcbfe556d21ba61,70247,2,man,NA,null,M2 is reminding W4,remind,sentence,NA,NA,NA,NA
48090.60000000149,NA,NA,NA,NA,survey-likert-extra-labels,80,768053,0.0-31.0-2.0,anomymised,65658173009eeb17459c8404,656778256fcbfe556d21ba61,70247,2,man,NA,NA,M2 is reminding W4,remind,rating_volition,"{""Q0"":0}",[0],M2 is telling W4 again,W4 is telling M2 again
2985.699999999255,NA,NA,NA,NA,survey-likert-extra-labels,81,771040,0.0-31.0-3.0-0.0,anomymised,65658173009eeb17459c8404,656778256fcbfe556d21ba61,70247,2,man,NA,NA,M2 is reminding W4,remind,rating_causation,"{""Q0"":5}",[0],M2 is remembering,W4 is remembering
null,Kate is being copied by Ruth,NA,NA,NA,html-keyboard-response,82,773054,0.0-32.0-0.0,anomymised,65658173009eeb17459c8404,656778256fcbfe556d21ba61,70247,2,man,NA,null,W2 is being copied by W4,copy1,sentence,NA,NA,NA,NA
2962.5,NA,NA,NA,NA,survey-likert-extra-labels,83,776018,0.0-32.0-1.0-0.0,anomymised,65658173009eeb17459c8404,656778256fcbfe556d21ba61,70247,2,man,NA,NA,W2 is being copied by W4,copy1,rating_causation,"{""Q0"":1}",[0],W4 started copying W2 first,W2 started copying W4 first
1795.4000000003725,NA,NA,NA,NA,survey-likert-extra-labels,84,777815,0.0-32.0-2.0,anomymised,65658173009eeb17459c8404,656778256fcbfe556d21ba61,70247,2,man,NA,NA,W2 is being copied by W4,copy1,rating_volition,"{""Q0"":1}",[0],W4 wanted to copy W2,W2 wanted to copy W4
null,Luke is being greeted by Beth,NA,NA,NA,html-keyboard-response,85,779827,0.0-33.0-0.0,anomymised,65658173009eeb17459c8404,656778256fcbfe556d21ba61,70247,2,man,NA,null,M3 is being greeted by W1,greet3,sentence,NA,NA,NA,NA
5836.39999999851,NA,NA,NA,NA,survey-likert-extra-labels,86,785665,0.0-33.0-1.0-0.0,anomymised,65658173009eeb17459c8404,656778256fcbfe556d21ba61,70247,2,man,NA,NA,M3 is being greeted by W1,greet3,rating_causation,"{""Q0"":5}",[0],W1 started greeting M3 first,M3 started greeting W1 first
1720.8999999985099,NA,NA,NA,NA,survey-likert-extra-labels,87,787387,0.0-33.0-2.0,anomymised,65658173009eeb17459c8404,656778256fcbfe556d21ba61,70247,2,man,NA,NA,M3 is being greeted by W1,greet3,rating_volition,"{""Q0"":2}",[0],W1 wanted to greet M3,M3 wanted to greet W1
null,Beth is being seduced by Luke,NA,NA,NA,html-keyboard-response,88,789398,0.0-34.0-0.0,anomymised,65658173009eeb17459c8404,656778256fcbfe556d21ba61,70247,2,man,NA,null,W1 is being seduced by M3,seduce4,sentence,NA,NA,NA,NA
7737.4000000003725,NA,NA,NA,NA,survey-likert-extra-labels,89,797137,0.0-34.0-1.0-0.0,anomymised,65658173009eeb17459c8404,656778256fcbfe556d21ba61,70247,2,man,NA,NA,W1 is being seduced by M3,seduce4,rating_causation,"{""Q0"":3}",[0],W1 started seducing M3 first,M3 started seducing W1 first
2089.199999999255,NA,NA,NA,NA,survey-likert-extra-labels,90,799228,0.0-34.0-2.0,anomymised,65658173009eeb17459c8404,656778256fcbfe556d21ba61,70247,2,man,NA,NA,W1 is being seduced by M3,seduce4,rating_volition,"{""Q0"":1}",[0],W1 wanted to seducing M3,M3 wanted to seducing W1
null,Jane is being shouted at by Beth,NA,NA,NA,html-keyboard-response,91,801240,0.0-35.0-0.0,anomymised,65658173009eeb17459c8404,656778256fcbfe556d21ba61,70247,2,man,NA,null,W3 is being shouted at by W1,shout1,sentence,NA,NA,NA,NA
32276.10000000149,NA,NA,NA,NA,survey-likert-extra-labels,92,833518,0.0-35.0-1.0-0.0,anomymised,65658173009eeb17459c8404,656778256fcbfe556d21ba61,70247,2,man,NA,NA,W3 is being shouted at by W1,shout1,rating_causation,"{""Q0"":1}",[0],W3 shouted at W1 first,W1 shouted at W3 first
6724,NA,NA,NA,NA,survey-likert-extra-labels,93,840243,0.0-35.0-2.0,anomymised,65658173009eeb17459c8404,656778256fcbfe556d21ba61,70247,2,man,NA,NA,W3 is being shouted at by W1,shout1,rating_volition,"{""Q0"":4}",[0],W3 wanted to shout at W1,W1 wanted to shout at W3
null,Kate is carrying Ruth,NA,NA,NA,html-keyboard-response,94,842255,0.0-36.0-0.0,anomymised,65658173009eeb17459c8404,656778256fcbfe556d21ba61,70247,2,man,NA,null,W2 is carrying W4,carry,sentence,NA,NA,NA,NA
125293.5,NA,NA,NA,NA,survey-likert-extra-labels,95,967549,0.0-36.0-2.0,anomymised,65658173009eeb17459c8404,656778256fcbfe556d21ba61,70247,2,man,NA,NA,W2 is carrying W4,carry,rating_volition,"{""Q0"":0}",[0],W2 is transporting W4,W4 is transporting W2
9170,NA,NA,NA,NA,survey-likert-extra-labels,96,976721,0.0-36.0-3.0-0.0,anomymised,65658173009eeb17459c8404,656778256fcbfe556d21ba61,70247,2,man,NA,NA,W2 is carrying W4,carry,rating_causation,"{""Q0"":5}",[0],W2 is being moved by W4,W4 is being moved by W2
null,Mike is being shouted at by Kate,NA,NA,NA,html-keyboard-response,97,978735,0.0-37.0-0.0,anomymised,65658173009eeb17459c8404,656778256fcbfe556d21ba61,70247,2,man,NA,null,M4 is being shouted at by W2,shout4,sentence,NA,NA,NA,NA
63250.699999999255,NA,NA,NA,NA,survey-likert-extra-labels,98,1041988,0.0-37.0-2.0,anomymised,65658173009eeb17459c8404,656778256fcbfe556d21ba61,70247,2,man,NA,NA,M4 is being shouted at by W2,shout4,rating_volition,"{""Q0"":5}",[0],M4 wanted to shout at W2,W2 wanted to shout at M4
4005.699999999255,NA,NA,NA,NA,survey-likert-extra-labels,99,1045995,0.0-37.0-3.0-0.0,anomymised,65658173009eeb17459c8404,656778256fcbfe556d21ba61,70247,2,man,NA,NA,M4 is being shouted at by W2,shout4,rating_causation,"{""Q0"":5}",[0],M4 shouted at W2 first,W2 shouted at M4 first
null,Ruth is being shouted at by Dave,NA,NA,NA,html-keyboard-response,100,1047998,0.0-38.0-0.0,anomymised,65658173009eeb17459c8404,656778256fcbfe556d21ba61,70247,2,man,NA,null,W4 is being shouted at by M2,shout3,sentence,NA,NA,NA,NA
15934.39999999851,NA,NA,NA,NA,survey-likert-extra-labels,101,1063933,0.0-38.0-1.0-0.0,anomymised,65658173009eeb17459c8404,656778256fcbfe556d21ba61,70247,2,man,NA,NA,W4 is being shouted at by M2,shout3,rating_causation,"{""Q0"":5}",[0],W4 shouted at M2 first,M2 shouted at W4 first
167922.79999999888,NA,NA,NA,NA,survey-likert-extra-labels,102,1231857,0.0-38.0-2.0,anomymised,65658173009eeb17459c8404,656778256fcbfe556d21ba61,70247,2,man,NA,NA,W4 is being shouted at by M2,shout3,rating_volition,"{""Q0"":5}",[0],W4 wanted to shout at M2,M2 wanted to shout at W4
null,Kate is teaching Mike,NA,NA,NA,html-keyboard-response,103,1233858,0.0-39.0-0.0,anomymised,65658173009eeb17459c8404,656778256fcbfe556d21ba61,70247,2,man,NA,null,W2 is teaching M4,teach,sentence,NA,NA,NA,NA
7248.89999999851,NA,NA,NA,NA,survey-likert-extra-labels,104,1241108,0.0-39.0-2.0,anomymised,65658173009eeb17459c8404,656778256fcbfe556d21ba61,70247,2,man,NA,NA,W2 is teaching M4,teach,rating_volition,"{""Q0"":1}",[0],W2 is educating M4,M4 is educating W2
2180.7999999988824,NA,NA,NA,NA,survey-likert-extra-labels,105,1243291,0.0-39.0-3.0-0.0,anomymised,65658173009eeb17459c8404,656778256fcbfe556d21ba61,70247,2,man,NA,NA,W2 is teaching M4,teach,rating_causation,"{""Q0"":5}",[0],W2 is learning from M4,M4 is learning from W2
null,Dave is being copied by Mike,NA,NA,NA,html-keyboard-response,106,1245295,0.0-40.0-0.0,anomymised,65658173009eeb17459c8404,656778256fcbfe556d21ba61,70247,2,man,NA,null,M2 is being copied by M4,copy2,sentence,NA,NA,NA,NA
133677.40000000037,NA,NA,NA,NA,survey-likert-extra-labels,107,1378974,0.0-40.0-2.0,anomymised,65658173009eeb17459c8404,656778256fcbfe556d21ba61,70247,2,man,NA,NA,M2 is being copied by M4,copy2,rating_volition,"{""Q0"":5}",[0],M4 wanted to copy M2,M2 wanted to copy M4
2419.9000000003725,NA,NA,NA,NA,survey-likert-extra-labels,108,1381396,0.0-40.0-3.0-0.0,anomymised,65658173009eeb17459c8404,656778256fcbfe556d21ba61,70247,2,man,NA,NA,M2 is being copied by M4,copy2,rating_causation,"{""Q0"":5}",[0],M4 started copying M2 first,M2 started copying M4 first
null,Ruth is being touched by Kate,NA,NA,NA,html-keyboard-response,109,1383405,0.0-41.0-0.0,anomymised,65658173009eeb17459c8404,656778256fcbfe556d21ba61,70247,2,man,NA,null,W4 is being touched by W2,touch1,sentence,NA,NA,NA,NA
25988.599999999627,NA,NA,NA,NA,survey-likert-extra-labels,110,1409395,0.0-41.0-2.0,anomymised,65658173009eeb17459c8404,656778256fcbfe556d21ba61,70247,2,man,NA,NA,W4 is being touched by W2,touch1,rating_volition,"{""Q0"":1}",[0],W4 wanted to touch W2,W2 wanted to touch W4
3658.199999999255,NA,NA,NA,NA,survey-likert-extra-labels,111,1413055,0.0-41.0-3.0-0.0,anomymised,65658173009eeb17459c8404,656778256fcbfe556d21ba61,70247,2,man,NA,NA,W4 is being touched by W2,touch1,rating_causation,"{""Q0"":5}",[0],W4 asked to touch W2,W2 asked to touch W4
null,Fred is driving Luke,NA,NA,NA,html-keyboard-response,112,1415057,0.0-42.0-0.0,anomymised,65658173009eeb17459c8404,656778256fcbfe556d21ba61,70247,2,man,NA,null,M1 is driving M3,drive,sentence,NA,NA,NA,NA
4406,NA,NA,NA,NA,survey-likert-extra-labels,113,1419464,0.0-42.0-1.0-0.0,anomymised,65658173009eeb17459c8404,656778256fcbfe556d21ba61,70247,2,man,NA,NA,M1 is driving M3,drive,rating_causation,"{""Q0"":1}",[0],M1 is taking M3 somewhere,M3 is taking M1 somewhere
1898.2000000011176,NA,NA,NA,NA,survey-likert-extra-labels,114,1421365,0.0-42.0-2.0,anomymised,65658173009eeb17459c8404,656778256fcbfe556d21ba61,70247,2,man,NA,NA,M1 is driving M3,drive,rating_volition,"{""Q0"":5}",[0],M1 is M3's passenger,M3 is M1's passenger
null,Beth is being touched by Luke,NA,NA,NA,html-keyboard-response,115,1423367,0.0-43.0-0.0,anomymised,65658173009eeb17459c8404,656778256fcbfe556d21ba61,70247,2,man,NA,null,W1 is being touched by M3,touch4,sentence,NA,NA,NA,NA
7706.5999999996275,NA,NA,NA,NA,survey-likert-extra-labels,116,1431075,0.0-43.0-2.0,anomymised,65658173009eeb17459c8404,656778256fcbfe556d21ba61,70247,2,man,NA,NA,W1 is being touched by M3,touch4,rating_volition,"{""Q0"":5}",[0],W1 wanted to touch M3,M3 wanted to touch W1
2491.199999999255,NA,NA,NA,NA,survey-likert-extra-labels,117,1433568,0.0-43.0-3.0-0.0,anomymised,65658173009eeb17459c8404,656778256fcbfe556d21ba61,70247,2,man,NA,NA,W1 is being touched by M3,touch4,rating_causation,"{""Q0"":5}",[0],W1 asked to touch M3,M3 asked to touch W1
null,Mike is being opposed by Kate,NA,NA,NA,html-keyboard-response,118,1435569,0.0-44.0-0.0,anomymised,65658173009eeb17459c8404,656778256fcbfe556d21ba61,70247,2,man,NA,null,M4 is being opposed by W2,oppose3,sentence,NA,NA,NA,NA
12404.900000000373,NA,NA,NA,NA,survey-likert-extra-labels,119,1447975,0.0-44.0-2.0,anomymised,65658173009eeb17459c8404,656778256fcbfe556d21ba61,70247,2,man,NA,NA,M4 is being opposed by W2,oppose3,rating_volition,"{""Q0"":5}",[0],M4 wanted to oppose W2,W2 wanted to oppose M4
232419.19999999925,NA,NA,NA,NA,survey-likert-extra-labels,120,1680396,0.0-44.0-3.0-0.0,anomymised,65658173009eeb17459c8404,656778256fcbfe556d21ba61,70247,2,man,NA,NA,M4 is being opposed by W2,oppose3,rating_causation,"{""Q0"":5}",[0],M4 started opposing W2,W2 started opposing M4
null,Beth is being challenged by Luke,NA,NA,NA,html-keyboard-response,121,1682398,0.0-45.0-0.0,anomymised,65658173009eeb17459c8404,656778256fcbfe556d21ba61,70247,2,man,NA,null,W1 is being challenged by M3,challenge3,sentence,NA,NA,NA,NA
9064.39999999851,NA,NA,NA,NA,survey-likert-extra-labels,122,1691464,0.0-45.0-2.0,anomymised,65658173009eeb17459c8404,656778256fcbfe556d21ba61,70247,2,man,NA,NA,W1 is being challenged by M3,challenge3,rating_volition,"{""Q0"":5}",[0],W1 wanted to challenge M3,M3 wanted to challenge W1
4301.0999999996275,NA,NA,NA,NA,survey-likert-extra-labels,123,1695767,0.0-45.0-3.0-0.0,anomymised,65658173009eeb17459c8404,656778256fcbfe556d21ba61,70247,2,man,NA,NA,W1 is being challenged by M3,challenge3,rating_causation,"{""Q0"":5}",[0],W1 started challenging M3 first,M3 started challenging W1 first
null,Jane is being copied by Fred,NA,NA,NA,html-keyboard-response,124,1697773,0.0-46.0-0.0,anomymised,65658173009eeb17459c8404,656778256fcbfe556d21ba61,70247,2,man,NA,null,W3 is being copied by M1,copy3,sentence,NA,NA,NA,NA
49736.800000000745,NA,NA,NA,NA,survey-likert-extra-labels,125,1747511,0.0-46.0-2.0,anomymised,65658173009eeb17459c8404,656778256fcbfe556d21ba61,70247,2,man,NA,NA,W3 is being copied by M1,copy3,rating_volition,"{""Q0"":5}",[0],M1 wanted to copy W3,W3 wanted to copy M1
50316.300000000745,NA,NA,NA,NA,survey-likert-extra-labels,126,1797828,0.0-46.0-3.0-0.0,anomymised,65658173009eeb17459c8404,656778256fcbfe556d21ba61,70247,2,man,NA,NA,W3 is being copied by M1,copy3,rating_causation,"{""Q0"":5}",[0],M1 started copying W3 first,W3 started copying M1 first
null,Kate is being greeted by Ruth,NA,NA,NA,html-keyboard-response,127,1799831,0.0-47.0-0.0,anomymised,65658173009eeb17459c8404,656778256fcbfe556d21ba61,70247,2,man,NA,null,W2 is being greeted by W4,greet1,sentence,NA,NA,NA,NA
5093.9000000003725,NA,NA,NA,NA,survey-likert-extra-labels,128,1804926,0.0-47.0-2.0,anomymised,65658173009eeb17459c8404,656778256fcbfe556d21ba61,70247,2,man,NA,NA,W2 is being greeted by W4,greet1,rating_volition,"{""Q0"":5}",[0],W4 wanted to greet W2,W2 wanted to greet W4
3549.5,NA,NA,NA,NA,survey-likert-extra-labels,129,1808477,0.0-47.0-3.0-0.0,anomymised,65658173009eeb17459c8404,656778256fcbfe556d21ba61,70247,2,man,NA,NA,W2 is being greeted by W4,greet1,rating_causation,"{""Q0"":5}",[0],W4 started greeting W2 first,W2 started greeting W4 first
null,Fred is being kissed by Luke,NA,NA,NA,html-keyboard-response,130,1810481,0.0-48.0-0.0,anomymised,65658173009eeb17459c8404,656778256fcbfe556d21ba61,70247,2,man,NA,null,M1 is being kissed by M3,kiss2,sentence,NA,NA,NA,NA
7759.5999999996275,NA,NA,NA,NA,survey-likert-extra-labels,131,1818241,0.0-48.0-1.0-0.0,anomymised,65658173009eeb17459c8404,656778256fcbfe556d21ba61,70247,2,man,NA,NA,M1 is being kissed by M3,kiss2,rating_causation,"{""Q0"":5}",[0],M3 asked to kiss M1,M1 asked to kiss M3
7908.299999998882,NA,NA,NA,NA,survey-likert-extra-labels,132,1826151,0.0-48.0-2.0,anomymised,65658173009eeb17459c8404,656778256fcbfe556d21ba61,70247,2,man,NA,NA,M1 is being kissed by M3,kiss2,rating_volition,"{""Q0"":4}",[0],M3 wanted to kiss M1,M1 wanted to kiss M3
null,Mike is being challenged by Dave,NA,NA,NA,html-keyboard-response,133,1828168,0.0-49.0-0.0,anomymised,65658173009eeb17459c8404,656778256fcbfe556d21ba61,70247,2,man,NA,null,M4 is being challenged by M2,challenge2,sentence,NA,NA,NA,NA
116188.5,NA,NA,NA,NA,survey-likert-extra-labels,134,1944358,0.0-49.0-2.0,anomymised,65658173009eeb17459c8404,656778256fcbfe556d21ba61,70247,2,man,NA,NA,M4 is being challenged by M2,challenge2,rating_volition,"{""Q0"":5}",[0],M4 wanted to challenge M2,M2 wanted to challenge M4
1994.4000000003725,NA,NA,NA,NA,survey-likert-extra-labels,135,1946354,0.0-49.0-3.0-0.0,anomymised,65658173009eeb17459c8404,656778256fcbfe556d21ba61,70247,2,man,NA,NA,M4 is being challenged by M2,challenge2,rating_causation,"{""Q0"":5}",[0],M4 started challenging M2 first,M2 started challenging M4 first
null,Fred is being touched by Jane,NA,NA,NA,html-keyboard-response,136,1948361,0.0-50.0-0.0,anomymised,65658173009eeb17459c8404,656778256fcbfe556d21ba61,70247,2,man,NA,null,M1 is being touched by W3,touch3,sentence,NA,NA,NA,NA
11113,NA,NA,NA,NA,survey-likert-extra-labels,137,1959474,0.0-50.0-2.0,anomymised,65658173009eeb17459c8404,656778256fcbfe556d21ba61,70247,2,man,NA,NA,M1 is being touched by W3,touch3,rating_volition,"{""Q0"":1}",[0],M1 wanted to touch W3,W3 wanted to touch M1
3154.2999999988824,NA,NA,NA,NA,survey-likert-extra-labels,138,1962630,0.0-50.0-3.0-0.0,anomymised,65658173009eeb17459c8404,656778256fcbfe556d21ba61,70247,2,man,NA,NA,M1 is being touched by W3,touch3,rating_causation,"{""Q0"":1}",[0],M1 asked to touch W3,W3 asked to touch M1
null,Luke is being opposed by Fred,NA,NA,NA,html-keyboard-response,139,1964642,0.0-51.0-0.0,anomymised,65658173009eeb17459c8404,656778256fcbfe556d21ba61,70247,2,man,NA,null,M3 is being opposed by M1,oppose2,sentence,NA,NA,NA,NA
6377.799999998882,NA,NA,NA,NA,survey-likert-extra-labels,140,1971021,0.0-51.0-2.0,anomymised,65658173009eeb17459c8404,656778256fcbfe556d21ba61,70247,2,man,NA,NA,M3 is being opposed by M1,oppose2,rating_volition,"{""Q0"":1}",[0],M3 wanted to oppose M1,M1 wanted to oppose M3
2316.7999999988824,NA,NA,NA,NA,survey-likert-extra-labels,141,1973340,0.0-51.0-3.0-0.0,anomymised,65658173009eeb17459c8404,656778256fcbfe556d21ba61,70247,2,man,NA,NA,M3 is being opposed by M1,oppose2,rating_causation,"{""Q0"":1}",[0],M3 started opposing M1,M1 started opposing M3
null,Beth is being looked at by Jane,NA,NA,NA,html-keyboard-response,142,1975356,0.0-52.0-0.0,anomymised,65658173009eeb17459c8404,656778256fcbfe556d21ba61,70247,2,man,NA,null,W1 is being looked at by W3,look1,sentence,NA,NA,NA,NA
195094.29999999888,NA,NA,NA,NA,survey-likert-extra-labels,143,2170452,0.0-52.0-1.0-0.0,anomymised,65658173009eeb17459c8404,656778256fcbfe556d21ba61,70247,2,man,NA,NA,W1 is being looked at by W3,look1,rating_causation,"{""Q0"":3}",[0],W3 looked at W1 first,W1 looked at W3 first
2785.0999999996275,NA,NA,NA,NA,survey-likert-extra-labels,144,2173239,0.0-52.0-2.0,anomymised,65658173009eeb17459c8404,656778256fcbfe556d21ba61,70247,2,man,NA,NA,W1 is being looked at by W3,look1,rating_volition,"{""Q0"":5}",[0],W3 wanted to look at W1,W1 wanted to look at W3
null,Jane is feeding Fred,NA,NA,NA,html-keyboard-response,145,2175255,0.0-53.0-0.0,anomymised,65658173009eeb17459c8404,656778256fcbfe556d21ba61,70247,2,man,NA,null,W3 is feeding M1,feed,sentence,NA,NA,NA,NA
44905.5,NA,NA,NA,NA,survey-likert-extra-labels,146,2220161,0.0-53.0-2.0,anomymised,65658173009eeb17459c8404,656778256fcbfe556d21ba61,70247,2,man,NA,NA,W3 is feeding M1,feed,rating_volition,"{""Q0"":3}",[0],W3 cooked for M1,M1 cooked for W3
4582.0999999996275,NA,NA,NA,NA,survey-likert-extra-labels,147,2224745,0.0-53.0-3.0-0.0,anomymised,65658173009eeb17459c8404,656778256fcbfe556d21ba61,70247,2,man,NA,NA,W3 is feeding M1,feed,rating_causation,"{""Q0"":6}",[0],W3 is eating M1's food,M1 is eating W3's food
null,Jane is being hugged by Beth,NA,NA,NA,html-keyboard-response,148,2226752,0.0-54.0-0.0,anomymised,65658173009eeb17459c8404,656778256fcbfe556d21ba61,70247,2,man,NA,null,W3 is being hugged by W1,hug1,sentence,NA,NA,NA,NA
4913.4000000003725,NA,NA,NA,NA,survey-likert-extra-labels,149,2231667,0.0-54.0-2.0,anomymised,65658173009eeb17459c8404,656778256fcbfe556d21ba61,70247,2,man,NA,NA,W3 is being hugged by W1,hug1,rating_volition,"{""Q0"":1}",[0],W3 wanted to hug W1,W1 wanted to hug W3
3516.300000000745,NA,NA,NA,NA,survey-likert-extra-labels,150,2235185,0.0-54.0-3.0-0.0,anomymised,65658173009eeb17459c8404,656778256fcbfe556d21ba61,70247,2,man,NA,NA,W3 is being hugged by W1,hug1,rating_causation,"{""Q0"":1}",[0],W3 asked to hug W1,W1 asked to hug W3
1284.2000000011176,<p>Thank you for completing that task.</p><p>The final part of this session is a short questionnaire.</p><p>Press Continue.</p>,0,Continue,Continue,html-button-response,151,2236470,0.0-55.0,anomymised,65658173009eeb17459c8404,656778256fcbfe556d21ba61,70247,2,man,NA,NA,NA,NA,NA,NA,NA,NA,NA
15903.300000000745,NA,NA,NA,NA,survey-text,152,2253381,0.0-56.0,anomymised,65658173009eeb17459c8404,656778256fcbfe556d21ba61,70247,2,man,NA,NA,NA,NA,demographics,"{""Q0"":""31"",""Q1"":""English"",""Q2"":""English"",""Q3"":""England"",""Q4"":""English"",""Q5"":""White"",""Q6"":""Male""}",NA,NA,NA
1706.0999999996275,<p>This is the last question - thank you for taking part! Have you lived in the UK for the last 5 years or more?</p>,0,"Yes,No",Yes,html-button-response,153,2255088,0.0-57.0,anomymised,65658173009eeb17459c8404,656778256fcbfe556d21ba61,70247,2,man,NA,NA,NA,NA,fiveyears,NA,NA,NA,NA
