rt,stimulus,button_pressed,choices,ChosenStimulus,trial_type,trial_index,time_elapsed,internal_node_id,subject_id,study_id,session_id,subject,list,ppt_gender,url,key_press,sentence_type,verb,test_part,responses,question_order,left_part,right_part
2479,Welcome to the experiment. Press Continue to begin.,0,Continue,Continue,html-button-response,0,2484,0.0-0.0,anomymised,656582dc9140dccdaa20d120,656719103fe220aa3b2826af,7492,1C,woman,NA,NA,NA,NA,NA,NA,NA,NA,NA
14425.69999999972,NA,NA,NA,NA,external-html,1,17964,0.0-1.0,anomymised,656582dc9140dccdaa20d120,656719103fe220aa3b2826af,7492,1C,woman,consent.html,NA,NA,NA,NA,NA,NA,NA,NA
10098.799999999814,"<p>Welcome.</p><p>In this experiment we will ask you to imagine some situations.</p><p>Each trial starts with a description of an event.</p><p>Then you will see alternative descriptions of that event, and you will rate on a scale how best they match the original description.</p><p>You will give your answer by clicking a button on a rating scale.</p><p>To do this task, you will have to use your imagination to visualise these events.</p><br><p>Ready?</p>",0,Continue,Continue,html-button-response,2,28067,0.0-2.0,anomymised,656582dc9140dccdaa20d120,656719103fe220aa3b2826af,7492,1C,woman,NA,NA,NA,NA,NA,NA,NA,NA,NA
3180,"<p>Before the experiment starts, you will watch an example trial. Press 'Continue'.</p>",0,Continue,Continue,html-button-response,3,32251,0.0-3.0,anomymised,656582dc9140dccdaa20d120,656719103fe220aa3b2826af,7492,1C,woman,NA,NA,NA,NA,NA,NA,NA,NA,NA
null,The police officer is arresting the robber,NA,NA,NA,html-keyboard-response,4,35257,0.0-4.0,anomymised,656582dc9140dccdaa20d120,656719103fe220aa3b2826af,7492,1C,woman,NA,null,NA,NA,NA,NA,NA,NA,NA
20213.799999999814,<img src='img/Example-trial.jpg' style='height:550px;''></img>,0,Continue,Continue,html-button-response,5,55475,0.0-5.0,anomymised,656582dc9140dccdaa20d120,656719103fe220aa3b2826af,7492,1C,woman,NA,NA,NA,NA,NA,NA,NA,NA,NA
2044.1000000000931,<p>Ready to start the experiment?</p><br><p><strong>Remember to give an answer by clicking a button on the rating scale.</strong></p><p>Press 'Continue' to begin.</p>,0,Continue,Continue,html-button-response,6,58523,0.0-6.0,anomymised,656582dc9140dccdaa20d120,656719103fe220aa3b2826af,7492,1C,woman,NA,NA,NA,NA,NA,NA,NA,NA,NA
null,Ruth is being looked at by Kate,NA,NA,NA,html-keyboard-response,7,61529,0.0-7.0-0.0,anomymised,656582dc9140dccdaa20d120,656719103fe220aa3b2826af,7492,1C,woman,NA,null,W1 is being looked at by W3,look1,sentence,NA,NA,NA,NA
8367.399999999907,NA,NA,NA,NA,survey-likert-extra-labels,8,69902,0.0-7.0-2.0,anomymised,656582dc9140dccdaa20d120,656719103fe220aa3b2826af,7492,1C,woman,NA,NA,W1 is being looked at by W3,look1,rating_volition,"{""Q0"":4}",[0],W1 wanted to look at W3,W3 wanted to look at W1
9389.900000000373,NA,NA,NA,NA,survey-likert-extra-labels,9,79302,0.0-7.0-3.0-0.0,anomymised,656582dc9140dccdaa20d120,656719103fe220aa3b2826af,7492,1C,woman,NA,NA,W1 is being looked at by W3,look1,rating_causation,"{""Q0"":3}",[0],W1 looked at W3 first,W3 looked at W1 first
null,Dave is being opposed by Jane,NA,NA,NA,html-keyboard-response,10,81309,0.0-8.0-0.0,anomymised,656582dc9140dccdaa20d120,656719103fe220aa3b2826af,7492,1C,woman,NA,null,M4 is being opposed by W2,oppose3,sentence,NA,NA,NA,NA
10347.200000000186,NA,NA,NA,NA,survey-likert-extra-labels,11,91661,0.0-8.0-2.0,anomymised,656582dc9140dccdaa20d120,656719103fe220aa3b2826af,7492,1C,woman,NA,NA,M4 is being opposed by W2,oppose3,rating_volition,"{""Q0"":2}",[0],W2 wanted to oppose M4,M4 wanted to oppose W2
7750.200000000186,NA,NA,NA,NA,survey-likert-extra-labels,12,99420,0.0-8.0-3.0-0.0,anomymised,656582dc9140dccdaa20d120,656719103fe220aa3b2826af,7492,1C,woman,NA,NA,M4 is being opposed by W2,oppose3,rating_causation,"{""Q0"":2}",[0],W2 started opposing M4,M4 started opposing W2
null,Kate is being greeted by Luke,NA,NA,NA,html-keyboard-response,13,101426,0.0-9.0-0.0,anomymised,656582dc9140dccdaa20d120,656719103fe220aa3b2826af,7492,1C,woman,NA,null,W3 is being greeted by M1,greet4,sentence,NA,NA,NA,NA
6773.700000000186,NA,NA,NA,NA,survey-likert-extra-labels,14,108205,0.0-9.0-2.0,anomymised,656582dc9140dccdaa20d120,656719103fe220aa3b2826af,7492,1C,woman,NA,NA,W3 is being greeted by M1,greet4,rating_volition,"{""Q0"":1}",[0],W3 wanted to greet M1,M1 wanted to greet W3
5535.100000000093,NA,NA,NA,NA,survey-likert-extra-labels,15,113749,0.0-9.0-3.0-0.0,anomymised,656582dc9140dccdaa20d120,656719103fe220aa3b2826af,7492,1C,woman,NA,NA,W3 is being greeted by M1,greet4,rating_causation,"{""Q0"":3}",[0],W3 started greeting M1 first,M1 started greeting W3 first
null,Beth is being shouted at by Mike,NA,NA,NA,html-keyboard-response,16,115755,0.0-10.0-0.0,anomymised,656582dc9140dccdaa20d120,656719103fe220aa3b2826af,7492,1C,woman,NA,null,W4 is being shouted at by M2,shout3,sentence,NA,NA,NA,NA
7188.5,NA,NA,NA,NA,survey-likert-extra-labels,17,122950,0.0-10.0-1.0-0.0,anomymised,656582dc9140dccdaa20d120,656719103fe220aa3b2826af,7492,1C,woman,NA,NA,W4 is being shouted at by M2,shout3,rating_causation,"{""Q0"":3}",[0],M2 shouted at W4 first,W4 shouted at M2 first
5805.699999999721,NA,NA,NA,NA,survey-likert-extra-labels,18,128765,0.0-10.0-2.0,anomymised,656582dc9140dccdaa20d120,656719103fe220aa3b2826af,7492,1C,woman,NA,NA,W4 is being shouted at by M2,shout3,rating_volition,"{""Q0"":1}",[0],M2 wanted to shout at W4,W4 wanted to shout at M2
null,Ruth is chasing Kate,NA,NA,NA,html-keyboard-response,19,130771,0.0-11.0-0.0,anomymised,656582dc9140dccdaa20d120,656719103fe220aa3b2826af,7492,1C,woman,NA,null,W1 is chasing W3,chase,sentence,NA,NA,NA,NA
9084.899999999907,NA,NA,NA,NA,survey-likert-extra-labels,20,139861,0.0-11.0-2.0,anomymised,656582dc9140dccdaa20d120,656719103fe220aa3b2826af,7492,1C,woman,NA,NA,W1 is chasing W3,chase,rating_volition,"{""Q0"":0}",[0],W1 is behind W3,W3 is behind W1
8685.799999999814,NA,NA,NA,NA,survey-likert-extra-labels,21,148556,0.0-11.0-3.0-0.0,anomymised,656582dc9140dccdaa20d120,656719103fe220aa3b2826af,7492,1C,woman,NA,NA,W1 is chasing W3,chase,rating_causation,"{""Q0"":6}",[0],W1 is running away from W3,W3 is running away from W1
null,Dave is being hugged by Jane,NA,NA,NA,html-keyboard-response,22,150563,0.0-12.0-0.0,anomymised,656582dc9140dccdaa20d120,656719103fe220aa3b2826af,7492,1C,woman,NA,null,M4 is being hugged by W2,hug3,sentence,NA,NA,NA,NA
4429.100000000093,NA,NA,NA,NA,survey-likert-extra-labels,23,154996,0.0-12.0-2.0,anomymised,656582dc9140dccdaa20d120,656719103fe220aa3b2826af,7492,1C,woman,NA,NA,M4 is being hugged by W2,hug3,rating_volition,"{""Q0"":1}",[0],W2 wanted to hug M4,M4 wanted to hug W2
5271.5999999996275,NA,NA,NA,NA,survey-likert-extra-labels,24,160278,0.0-12.0-3.0-0.0,anomymised,656582dc9140dccdaa20d120,656719103fe220aa3b2826af,7492,1C,woman,NA,NA,M4 is being hugged by W2,hug3,rating_causation,"{""Q0"":3}",[0],W2 asked to hug M4,M4 asked to hug W2
null,Mike is being kissed by Beth,NA,NA,NA,html-keyboard-response,25,162286,0.0-13.0-0.0,anomymised,656582dc9140dccdaa20d120,656719103fe220aa3b2826af,7492,1C,woman,NA,null,M2 is being kissed by W4,kiss3,sentence,NA,NA,NA,NA
7498.299999999814,NA,NA,NA,NA,survey-likert-extra-labels,26,169787,0.0-13.0-2.0,anomymised,656582dc9140dccdaa20d120,656719103fe220aa3b2826af,7492,1C,woman,NA,NA,M2 is being kissed by W4,kiss3,rating_volition,"{""Q0"":6}",[0],M2 wanted to kiss W4,W4 wanted to kiss M2
6845.299999999814,NA,NA,NA,NA,survey-likert-extra-labels,27,176637,0.0-13.0-3.0-0.0,anomymised,656582dc9140dccdaa20d120,656719103fe220aa3b2826af,7492,1C,woman,NA,NA,M2 is being kissed by W4,kiss3,rating_causation,"{""Q0"":3}",[0],M2 asked to kiss W4,W4 asked to kiss M2
null,Beth is being touched by Jane,NA,NA,NA,html-keyboard-response,28,178643,0.0-14.0-0.0,anomymised,656582dc9140dccdaa20d120,656719103fe220aa3b2826af,7492,1C,woman,NA,null,W4 is being touched by W2,touch1,sentence,NA,NA,NA,NA
7077.799999999814,NA,NA,NA,NA,survey-likert-extra-labels,29,185725,0.0-14.0-2.0,anomymised,656582dc9140dccdaa20d120,656719103fe220aa3b2826af,7492,1C,woman,NA,NA,W4 is being touched by W2,touch1,rating_volition,"{""Q0"":1}",[0],W2 wanted to touch W4,W4 wanted to touch W2
5301.399999999907,NA,NA,NA,NA,survey-likert-extra-labels,30,191034,0.0-14.0-3.0-0.0,anomymised,656582dc9140dccdaa20d120,656719103fe220aa3b2826af,7492,1C,woman,NA,NA,W4 is being touched by W2,touch1,rating_causation,"{""Q0"":3}",[0],W2 asked to touch W4,W4 asked to touch W2
null,Jane is teaching Dave,NA,NA,NA,html-keyboard-response,31,193039,0.0-15.0-0.0,anomymised,656582dc9140dccdaa20d120,656719103fe220aa3b2826af,7492,1C,woman,NA,null,W2 is teaching M4,teach,sentence,NA,NA,NA,NA
6345.600000000093,NA,NA,NA,NA,survey-likert-extra-labels,32,199388,0.0-15.0-1.0-0.0,anomymised,656582dc9140dccdaa20d120,656719103fe220aa3b2826af,7492,1C,woman,NA,NA,W2 is teaching M4,teach,rating_causation,"{""Q0"":5}",[0],W2 is learning from M4,M4 is learning from W2
6768,NA,NA,NA,NA,survey-likert-extra-labels,33,206163,0.0-15.0-2.0,anomymised,656582dc9140dccdaa20d120,656719103fe220aa3b2826af,7492,1C,woman,NA,NA,W2 is teaching M4,teach,rating_volition,"{""Q0"":0}",[0],W2 is educating M4,M4 is educating W2
null,Fred is being opposed by Luke,NA,NA,NA,html-keyboard-response,34,208167,0.0-16.0-0.0,anomymised,656582dc9140dccdaa20d120,656719103fe220aa3b2826af,7492,1C,woman,NA,null,M3 is being opposed by M1,oppose2,sentence,NA,NA,NA,NA
7225.199999999721,NA,NA,NA,NA,survey-likert-extra-labels,35,215397,0.0-16.0-1.0-0.0,anomymised,656582dc9140dccdaa20d120,656719103fe220aa3b2826af,7492,1C,woman,NA,NA,M3 is being opposed by M1,oppose2,rating_causation,"{""Q0"":2}",[0],M1 started opposing M3,M3 started opposing M1
6052,NA,NA,NA,NA,survey-likert-extra-labels,36,221456,0.0-16.0-2.0,anomymised,656582dc9140dccdaa20d120,656719103fe220aa3b2826af,7492,1C,woman,NA,NA,M3 is being opposed by M1,oppose2,rating_volition,"{""Q0"":5}",[0],M1 wanted to oppose M3,M3 wanted to oppose M1
null,Luke is being seduced by Kate,NA,NA,NA,html-keyboard-response,37,223463,0.0-17.0-0.0,anomymised,656582dc9140dccdaa20d120,656719103fe220aa3b2826af,7492,1C,woman,NA,null,M1 is being seduced by W3,seduce3,sentence,NA,NA,NA,NA
9736.700000000186,NA,NA,NA,NA,survey-likert-extra-labels,38,233206,0.0-17.0-1.0-0.0,anomymised,656582dc9140dccdaa20d120,656719103fe220aa3b2826af,7492,1C,woman,NA,NA,M1 is being seduced by W3,seduce3,rating_causation,"{""Q0"":2}",[0],W3 started seducing M1 first,M1 started seducing W3 first
6371.5,NA,NA,NA,NA,survey-likert-extra-labels,39,239586,0.0-17.0-2.0,anomymised,656582dc9140dccdaa20d120,656719103fe220aa3b2826af,7492,1C,woman,NA,NA,M1 is being seduced by W3,seduce3,rating_volition,"{""Q0"":2}",[0],W3 wanted to seduce M1,M1 wanted to seduce W3
null,Beth is being seduced by Jane,NA,NA,NA,html-keyboard-response,40,241590,0.0-18.0-0.0,anomymised,656582dc9140dccdaa20d120,656719103fe220aa3b2826af,7492,1C,woman,NA,null,W4 is being seduced by W2,seduce1,sentence,NA,NA,NA,NA
6674.5,NA,NA,NA,NA,survey-likert-extra-labels,41,248271,0.0-18.0-1.0-0.0,anomymised,656582dc9140dccdaa20d120,656719103fe220aa3b2826af,7492,1C,woman,NA,NA,W4 is being seduced by W2,seduce1,rating_causation,"{""Q0"":2}",[0],W2 started seducing W4 first,W4 started seducing W2 first
4979,NA,NA,NA,NA,survey-likert-extra-labels,42,253260,0.0-18.0-2.0,anomymised,656582dc9140dccdaa20d120,656719103fe220aa3b2826af,7492,1C,woman,NA,NA,W4 is being seduced by W2,seduce1,rating_volition,"{""Q0"":2}",[0],W2 wanted to seduce W4,W4 wanted to seduce W2
null,Luke is driving Fred,NA,NA,NA,html-keyboard-response,43,255265,0.0-19.0-0.0,anomymised,656582dc9140dccdaa20d120,656719103fe220aa3b2826af,7492,1C,woman,NA,null,M1 is driving M3,drive,sentence,NA,NA,NA,NA
6254.399999999907,NA,NA,NA,NA,survey-likert-extra-labels,44,261524,0.0-19.0-2.0,anomymised,656582dc9140dccdaa20d120,656719103fe220aa3b2826af,7492,1C,woman,NA,NA,M1 is driving M3,drive,rating_volition,"{""Q0"":6}",[0],M1 is M3's passenger,M3 is M1's passenger
5130,NA,NA,NA,NA,survey-likert-extra-labels,45,266658,0.0-19.0-3.0-0.0,anomymised,656582dc9140dccdaa20d120,656719103fe220aa3b2826af,7492,1C,woman,NA,NA,M1 is driving M3,drive,rating_causation,"{""Q0"":6}",[0],M1 is taking M3 somewhere,M3 is taking M1 somewhere
null,Dave is being challenged by Mike,NA,NA,NA,html-keyboard-response,46,268661,0.0-20.0-0.0,anomymised,656582dc9140dccdaa20d120,656719103fe220aa3b2826af,7492,1C,woman,NA,null,M4 is being challenged by M2,challenge2,sentence,NA,NA,NA,NA
3802.7000000001863,NA,NA,NA,NA,survey-likert-extra-labels,47,272469,0.0-20.0-1.0-0.0,anomymised,656582dc9140dccdaa20d120,656719103fe220aa3b2826af,7492,1C,woman,NA,NA,M4 is being challenged by M2,challenge2,rating_causation,"{""Q0"":3}",[0],M2 started challenging M4 first,M4 started challenging M2 first
5350.700000000186,NA,NA,NA,NA,survey-likert-extra-labels,48,277828,0.0-20.0-2.0,anomymised,656582dc9140dccdaa20d120,656719103fe220aa3b2826af,7492,1C,woman,NA,NA,M4 is being challenged by M2,challenge2,rating_volition,"{""Q0"":1}",[0],M2 wanted to challenge M4,M4 wanted to challenge M2
null,Jane is being copied by Beth,NA,NA,NA,html-keyboard-response,49,279834,0.0-21.0-0.0,anomymised,656582dc9140dccdaa20d120,656719103fe220aa3b2826af,7492,1C,woman,NA,null,W2 is being copied by W4,copy1,sentence,NA,NA,NA,NA
3822.2000000001863,NA,NA,NA,NA,survey-likert-extra-labels,50,283660,0.0-21.0-1.0-0.0,anomymised,656582dc9140dccdaa20d120,656719103fe220aa3b2826af,7492,1C,woman,NA,NA,W2 is being copied by W4,copy1,rating_causation,"{""Q0"":3}",[0],W2 started copying W4 first,W4 started copying W2 first
4056.7999999998137,NA,NA,NA,NA,survey-likert-extra-labels,51,287724,0.0-21.0-2.0,anomymised,656582dc9140dccdaa20d120,656719103fe220aa3b2826af,7492,1C,woman,NA,NA,W2 is being copied by W4,copy1,rating_volition,"{""Q0"":4}",[0],W2 wanted to copy W4,W4 wanted to copy W2
null,Beth is being challenged by Jane,NA,NA,NA,html-keyboard-response,52,289729,0.0-22.0-0.0,anomymised,656582dc9140dccdaa20d120,656719103fe220aa3b2826af,7492,1C,woman,NA,null,W4 is being challenged by W2,challenge1,sentence,NA,NA,NA,NA
5310.899999999907,NA,NA,NA,NA,survey-likert-extra-labels,53,295045,0.0-22.0-2.0,anomymised,656582dc9140dccdaa20d120,656719103fe220aa3b2826af,7492,1C,woman,NA,NA,W4 is being challenged by W2,challenge1,rating_volition,"{""Q0"":2}",[0],W2 wanted to challenge W4,W4 wanted to challenge W2
2798.4000000003725,NA,NA,NA,NA,survey-likert-extra-labels,54,297850,0.0-22.0-3.0-0.0,anomymised,656582dc9140dccdaa20d120,656719103fe220aa3b2826af,7492,1C,woman,NA,NA,W4 is being challenged by W2,challenge1,rating_causation,"{""Q0"":3}",[0],W2 started challenging W4 first,W4 started challenging W2 first
null,Kate is being hugged by Ruth,NA,NA,NA,html-keyboard-response,55,299854,0.0-23.0-0.0,anomymised,656582dc9140dccdaa20d120,656719103fe220aa3b2826af,7492,1C,woman,NA,null,W3 is being hugged by W1,hug1,sentence,NA,NA,NA,NA
9668,NA,NA,NA,NA,survey-likert-extra-labels,56,309526,0.0-23.0-1.0-0.0,anomymised,656582dc9140dccdaa20d120,656719103fe220aa3b2826af,7492,1C,woman,NA,NA,W3 is being hugged by W1,hug1,rating_causation,"{""Q0"":4}",[0],W1 asked to hug W3,W3 asked to hug W1
8573.700000000186,NA,NA,NA,NA,survey-likert-extra-labels,57,318108,0.0-23.0-2.0,anomymised,656582dc9140dccdaa20d120,656719103fe220aa3b2826af,7492,1C,woman,NA,NA,W3 is being hugged by W1,hug1,rating_volition,"{""Q0"":1}",[0],W1 wanted to hug W3,W3 wanted to hug W1
null,Dave is being shouted at by Jane,NA,NA,NA,html-keyboard-response,58,320114,0.0-24.0-0.0,anomymised,656582dc9140dccdaa20d120,656719103fe220aa3b2826af,7492,1C,woman,NA,null,M4 is being shouted at by W2,shout4,sentence,NA,NA,NA,NA
5684.699999999721,NA,NA,NA,NA,survey-likert-extra-labels,59,325803,0.0-24.0-2.0,anomymised,656582dc9140dccdaa20d120,656719103fe220aa3b2826af,7492,1C,woman,NA,NA,M4 is being shouted at by W2,shout4,rating_volition,"{""Q0"":1}",[0],W2 wanted to shout at M4,M4 wanted to shout at W2
4452.299999999814,NA,NA,NA,NA,survey-likert-extra-labels,60,330261,0.0-24.0-3.0-0.0,anomymised,656582dc9140dccdaa20d120,656719103fe220aa3b2826af,7492,1C,woman,NA,NA,M4 is being shouted at by W2,shout4,rating_causation,"{""Q0"":3}",[0],W2 shouted at M4 first,M4 shouted at W2 first
null,Fred is being shouted at by Luke,NA,NA,NA,html-keyboard-response,61,332268,0.0-25.0-0.0,anomymised,656582dc9140dccdaa20d120,656719103fe220aa3b2826af,7492,1C,woman,NA,null,M3 is being shouted at by M1,shout2,sentence,NA,NA,NA,NA
5259.699999999721,NA,NA,NA,NA,survey-likert-extra-labels,62,337532,0.0-25.0-1.0-0.0,anomymised,656582dc9140dccdaa20d120,656719103fe220aa3b2826af,7492,1C,woman,NA,NA,M3 is being shouted at by M1,shout2,rating_causation,"{""Q0"":3}",[0],M1 shouted at M3 first,M3 shouted at M1 first
4192.700000000186,NA,NA,NA,NA,survey-likert-extra-labels,63,341733,0.0-25.0-2.0,anomymised,656582dc9140dccdaa20d120,656719103fe220aa3b2826af,7492,1C,woman,NA,NA,M3 is being shouted at by M1,shout2,rating_volition,"{""Q0"":1}",[0],M1 wanted to shout at M3,M3 wanted to shout at M1
null,Luke is being looked at by Fred,NA,NA,NA,html-keyboard-response,64,343742,0.0-26.0-0.0,anomymised,656582dc9140dccdaa20d120,656719103fe220aa3b2826af,7492,1C,woman,NA,null,M1 is being looked at by M3,look2,sentence,NA,NA,NA,NA
5985.899999999907,NA,NA,NA,NA,survey-likert-extra-labels,65,349732,0.0-26.0-2.0,anomymised,656582dc9140dccdaa20d120,656719103fe220aa3b2826af,7492,1C,woman,NA,NA,M1 is being looked at by M3,look2,rating_volition,"{""Q0"":5}",[0],M1 wanted to look at M3,M3 wanted to look at M1
5696.799999999814,NA,NA,NA,NA,survey-likert-extra-labels,66,355436,0.0-26.0-3.0-0.0,anomymised,656582dc9140dccdaa20d120,656719103fe220aa3b2826af,7492,1C,woman,NA,NA,M1 is being looked at by M3,look2,rating_causation,"{""Q0"":3}",[0],M1 looked at M3 first,M3 looked at M1 first
null,Kate is being shouted at by Ruth,NA,NA,NA,html-keyboard-response,67,357442,0.0-27.0-0.0,anomymised,656582dc9140dccdaa20d120,656719103fe220aa3b2826af,7492,1C,woman,NA,null,W3 is being shouted at by W1,shout1,sentence,NA,NA,NA,NA
4294.699999999721,NA,NA,NA,NA,survey-likert-extra-labels,68,361741,0.0-27.0-2.0,anomymised,656582dc9140dccdaa20d120,656719103fe220aa3b2826af,7492,1C,woman,NA,NA,W3 is being shouted at by W1,shout1,rating_volition,"{""Q0"":1}",[0],W1 wanted to shout at W3,W3 wanted to shout at W1
2695.600000000093,NA,NA,NA,NA,survey-likert-extra-labels,69,364445,0.0-27.0-3.0-0.0,anomymised,656582dc9140dccdaa20d120,656719103fe220aa3b2826af,7492,1C,woman,NA,NA,W3 is being shouted at by W1,shout1,rating_causation,"{""Q0"":3}",[0],W1 shouted at W3 first,W3 shouted at W1 first
null,Mike is posing for Dave,NA,NA,NA,html-keyboard-response,70,366451,0.0-28.0-0.0,anomymised,656582dc9140dccdaa20d120,656719103fe220aa3b2826af,7492,1C,woman,NA,null,M2 is posing for M4,pose,sentence,NA,NA,NA,NA
9196.399999999907,NA,NA,NA,NA,survey-likert-extra-labels,71,375650,0.0-28.0-1.0-0.0,anomymised,656582dc9140dccdaa20d120,656719103fe220aa3b2826af,7492,1C,woman,NA,NA,M2 is posing for M4,pose,rating_causation,"{""Q0"":6}",[0],M2 is photographing M4,M4 is photographing M2
6452.299999999814,NA,NA,NA,NA,survey-likert-extra-labels,72,382108,0.0-28.0-2.0,anomymised,656582dc9140dccdaa20d120,656719103fe220aa3b2826af,7492,1C,woman,NA,NA,M2 is posing for M4,pose,rating_volition,"{""Q0"":0}",[0],M2 is modelling for M4,M4 is modelling for M2
null,Fred is being greeted by Ruth,NA,NA,NA,html-keyboard-response,73,384115,0.0-29.0-0.0,anomymised,656582dc9140dccdaa20d120,656719103fe220aa3b2826af,7492,1C,woman,NA,null,M3 is being greeted by W1,greet3,sentence,NA,NA,NA,NA
5109.200000000186,NA,NA,NA,NA,survey-likert-extra-labels,74,389229,0.0-29.0-2.0,anomymised,656582dc9140dccdaa20d120,656719103fe220aa3b2826af,7492,1C,woman,NA,NA,M3 is being greeted by W1,greet3,rating_volition,"{""Q0"":6}",[0],M3 wanted to greet W1,W1 wanted to greet M3
3583.100000000093,NA,NA,NA,NA,survey-likert-extra-labels,75,392821,0.0-29.0-3.0-0.0,anomymised,656582dc9140dccdaa20d120,656719103fe220aa3b2826af,7492,1C,woman,NA,NA,M3 is being greeted by W1,greet3,rating_causation,"{""Q0"":3}",[0],M3 started greeting W1 first,W1 started greeting M3 first
null,Fred is hiring Ruth,NA,NA,NA,html-keyboard-response,76,394828,0.0-30.0-0.0,anomymised,656582dc9140dccdaa20d120,656719103fe220aa3b2826af,7492,1C,woman,NA,null,M3 is hiring W1,hire,sentence,NA,NA,NA,NA
4492.799999999814,NA,NA,NA,NA,survey-likert-extra-labels,77,399324,0.0-30.0-1.0-0.0,anomymised,656582dc9140dccdaa20d120,656719103fe220aa3b2826af,7492,1C,woman,NA,NA,M3 is hiring W1,hire,rating_causation,"{""Q0"":6}",[0],M3 will work for W1,W1 will work for M3
4063.899999999907,NA,NA,NA,NA,survey-likert-extra-labels,78,403396,0.0-30.0-2.0,anomymised,656582dc9140dccdaa20d120,656719103fe220aa3b2826af,7492,1C,woman,NA,NA,M3 is hiring W1,hire,rating_volition,"{""Q0"":0}",[0],M3 is employing W1,W1 is employing M3
null,Mike is being greeted by Dave,NA,NA,NA,html-keyboard-response,79,405399,0.0-31.0-0.0,anomymised,656582dc9140dccdaa20d120,656719103fe220aa3b2826af,7492,1C,woman,NA,null,M2 is being greeted by M4,greet2,sentence,NA,NA,NA,NA
6336.600000000093,NA,NA,NA,NA,survey-likert-extra-labels,80,411740,0.0-31.0-2.0,anomymised,656582dc9140dccdaa20d120,656719103fe220aa3b2826af,7492,1C,woman,NA,NA,M2 is being greeted by M4,greet2,rating_volition,"{""Q0"":5}",[0],M2 wanted to greet M4,M4 wanted to greet M2
3616.2999999998137,NA,NA,NA,NA,survey-likert-extra-labels,81,415366,0.0-31.0-3.0-0.0,anomymised,656582dc9140dccdaa20d120,656719103fe220aa3b2826af,7492,1C,woman,NA,NA,M2 is being greeted by M4,greet2,rating_causation,"{""Q0"":3}",[0],M2 started greeting M4 first,M4 started greeting M2 first
null,Beth is being hugged by Mike,NA,NA,NA,html-keyboard-response,82,417372,0.0-32.0-0.0,anomymised,656582dc9140dccdaa20d120,656719103fe220aa3b2826af,7492,1C,woman,NA,null,W4 is being hugged by M2,hug4,sentence,NA,NA,NA,NA
7300,NA,NA,NA,NA,survey-likert-extra-labels,83,424676,0.0-32.0-1.0-0.0,anomymised,656582dc9140dccdaa20d120,656719103fe220aa3b2826af,7492,1C,woman,NA,NA,W4 is being hugged by M2,hug4,rating_causation,"{""Q0"":3}",[0],M2 asked to hug W4,W4 asked to hug M2
2656.600000000093,NA,NA,NA,NA,survey-likert-extra-labels,84,427341,0.0-32.0-2.0,anomymised,656582dc9140dccdaa20d120,656719103fe220aa3b2826af,7492,1C,woman,NA,NA,W4 is being hugged by M2,hug4,rating_volition,"{""Q0"":1}",[0],M2 wanted to hug W4,W4 wanted to hug M2
null,Luke is being kissed by Fred,NA,NA,NA,html-keyboard-response,85,429346,0.0-33.0-0.0,anomymised,656582dc9140dccdaa20d120,656719103fe220aa3b2826af,7492,1C,woman,NA,null,M1 is being kissed by M3,kiss2,sentence,NA,NA,NA,NA
3301.5999999996275,NA,NA,NA,NA,survey-likert-extra-labels,86,432652,0.0-33.0-1.0-0.0,anomymised,656582dc9140dccdaa20d120,656719103fe220aa3b2826af,7492,1C,woman,NA,NA,M1 is being kissed by M3,kiss2,rating_causation,"{""Q0"":3}",[0],M1 asked to kiss M3,M3 asked to kiss M1
2905.6999999997206,NA,NA,NA,NA,survey-likert-extra-labels,87,435565,0.0-33.0-2.0,anomymised,656582dc9140dccdaa20d120,656719103fe220aa3b2826af,7492,1C,woman,NA,NA,M1 is being kissed by M3,kiss2,rating_volition,"{""Q0"":5}",[0],M1 wanted to kiss M3,M3 wanted to kiss M1
null,Jane is being looked at by Dave,NA,NA,NA,html-keyboard-response,88,437571,0.0-34.0-0.0,anomymised,656582dc9140dccdaa20d120,656719103fe220aa3b2826af,7492,1C,woman,NA,null,W2 is being looked at by M4,look3,sentence,NA,NA,NA,NA
3085.899999999907,NA,NA,NA,NA,survey-likert-extra-labels,89,440661,0.0-34.0-1.0-0.0,anomymised,656582dc9140dccdaa20d120,656719103fe220aa3b2826af,7492,1C,woman,NA,NA,W2 is being looked at by M4,look3,rating_causation,"{""Q0"":3}",[0],W2 looked at M4 first,M4 looked at W2 first
3971,NA,NA,NA,NA,survey-likert-extra-labels,90,444636,0.0-34.0-2.0,anomymised,656582dc9140dccdaa20d120,656719103fe220aa3b2826af,7492,1C,woman,NA,NA,W2 is being looked at by M4,look3,rating_volition,"{""Q0"":5}",[0],W2 wanted to look at M4,M4 wanted to look at W2
null,Kate is feeding Luke,NA,NA,NA,html-keyboard-response,91,446639,0.0-35.0-0.0,anomymised,656582dc9140dccdaa20d120,656719103fe220aa3b2826af,7492,1C,woman,NA,null,W3 is feeding M1,feed,sentence,NA,NA,NA,NA
5633.5,NA,NA,NA,NA,survey-likert-extra-labels,92,452277,0.0-35.0-2.0,anomymised,656582dc9140dccdaa20d120,656719103fe220aa3b2826af,7492,1C,woman,NA,NA,W3 is feeding M1,feed,rating_volition,"{""Q0"":1}",[0],W3 cooked for M1,M1 cooked for W3
9484.69999999972,NA,NA,NA,NA,survey-likert-extra-labels,93,461771,0.0-35.0-3.0-0.0,anomymised,656582dc9140dccdaa20d120,656719103fe220aa3b2826af,7492,1C,woman,NA,NA,W3 is feeding M1,feed,rating_causation,"{""Q0"":5}",[0],W3 is eating M1's food,M1 is eating W3's food
null,Mike is being looked at by Beth,NA,NA,NA,html-keyboard-response,94,463777,0.0-36.0-0.0,anomymised,656582dc9140dccdaa20d120,656719103fe220aa3b2826af,7492,1C,woman,NA,null,M2 is being looked at by W4,look4,sentence,NA,NA,NA,NA
4695.100000000093,NA,NA,NA,NA,survey-likert-extra-labels,95,468476,0.0-36.0-1.0-0.0,anomymised,656582dc9140dccdaa20d120,656719103fe220aa3b2826af,7492,1C,woman,NA,NA,M2 is being looked at by W4,look4,rating_causation,"{""Q0"":3}",[0],M2 looked at W4 first,W4 looked at M2 first
4241.100000000093,NA,NA,NA,NA,survey-likert-extra-labels,96,472725,0.0-36.0-2.0,anomymised,656582dc9140dccdaa20d120,656719103fe220aa3b2826af,7492,1C,woman,NA,NA,M2 is being looked at by W4,look4,rating_volition,"{""Q0"":4}",[0],M2 wanted to look at W4,W4 wanted to look at M2
null,Dave is being seduced by Mike,NA,NA,NA,html-keyboard-response,97,474732,0.0-37.0-0.0,anomymised,656582dc9140dccdaa20d120,656719103fe220aa3b2826af,7492,1C,woman,NA,null,M4 is being seduced by M2,seduce2,sentence,NA,NA,NA,NA
2532,NA,NA,NA,NA,survey-likert-extra-labels,98,477268,0.0-37.0-1.0-0.0,anomymised,656582dc9140dccdaa20d120,656719103fe220aa3b2826af,7492,1C,woman,NA,NA,M4 is being seduced by M2,seduce2,rating_causation,"{""Q0"":3}",[0],M2 started seducing M4 first,M4 started seducing M2 first
3689.7000000001863,NA,NA,NA,NA,survey-likert-extra-labels,99,480964,0.0-37.0-2.0,anomymised,656582dc9140dccdaa20d120,656719103fe220aa3b2826af,7492,1C,woman,NA,NA,M4 is being seduced by M2,seduce2,rating_volition,"{""Q0"":1}",[0],M2 wanted to seduce M4,M4 wanted to seduce M2
null,Mike is reminding Beth,NA,NA,NA,html-keyboard-response,100,482970,0.0-38.0-0.0,anomymised,656582dc9140dccdaa20d120,656719103fe220aa3b2826af,7492,1C,woman,NA,null,M2 is reminding W4,remind,sentence,NA,NA,NA,NA
4734.200000000186,NA,NA,NA,NA,survey-likert-extra-labels,101,487708,0.0-38.0-1.0-0.0,anomymised,656582dc9140dccdaa20d120,656719103fe220aa3b2826af,7492,1C,woman,NA,NA,M2 is reminding W4,remind,rating_causation,"{""Q0"":5}",[0],M2 is remembering,W4 is remembering
3536.899999999907,NA,NA,NA,NA,survey-likert-extra-labels,102,491253,0.0-38.0-2.0,anomymised,656582dc9140dccdaa20d120,656719103fe220aa3b2826af,7492,1C,woman,NA,NA,M2 is reminding W4,remind,rating_volition,"{""Q0"":0}",[0],M2 is telling W4 again,W4 is telling M2 again
null,Kate is being opposed by Ruth,NA,NA,NA,html-keyboard-response,103,493257,0.0-39.0-0.0,anomymised,656582dc9140dccdaa20d120,656719103fe220aa3b2826af,7492,1C,woman,NA,null,W3 is being opposed by W1,oppose1,sentence,NA,NA,NA,NA
4159.699999999721,NA,NA,NA,NA,survey-likert-extra-labels,104,497421,0.0-39.0-2.0,anomymised,656582dc9140dccdaa20d120,656719103fe220aa3b2826af,7492,1C,woman,NA,NA,W3 is being opposed by W1,oppose1,rating_volition,"{""Q0"":1}",[0],W1 wanted to oppose W3,W3 wanted to oppose W1
4695.0999999996275,NA,NA,NA,NA,survey-likert-extra-labels,105,502125,0.0-39.0-3.0-0.0,anomymised,656582dc9140dccdaa20d120,656719103fe220aa3b2826af,7492,1C,woman,NA,NA,W3 is being opposed by W1,oppose1,rating_causation,"{""Q0"":3}",[0],W1 started opposing W3,W3 started opposing W1
null,Jane is being kissed by Dave,NA,NA,NA,html-keyboard-response,106,504130,0.0-40.0-0.0,anomymised,656582dc9140dccdaa20d120,656719103fe220aa3b2826af,7492,1C,woman,NA,null,W2 is being kissed by M4,kiss4,sentence,NA,NA,NA,NA
3437.9000000003725,NA,NA,NA,NA,survey-likert-extra-labels,107,507572,0.0-40.0-1.0-0.0,anomymised,656582dc9140dccdaa20d120,656719103fe220aa3b2826af,7492,1C,woman,NA,NA,W2 is being kissed by M4,kiss4,rating_causation,"{""Q0"":4}",[0],W2 asked to kiss M4,M4 asked to kiss W2
3714.7999999998137,NA,NA,NA,NA,survey-likert-extra-labels,108,511294,0.0-40.0-2.0,anomymised,656582dc9140dccdaa20d120,656719103fe220aa3b2826af,7492,1C,woman,NA,NA,W2 is being kissed by M4,kiss4,rating_volition,"{""Q0"":5}",[0],W2 wanted to kiss M4,M4 wanted to kiss W2
null,Kate is being copied by Luke,NA,NA,NA,html-keyboard-response,109,513302,0.0-41.0-0.0,anomymised,656582dc9140dccdaa20d120,656719103fe220aa3b2826af,7492,1C,woman,NA,null,W3 is being copied by M1,copy3,sentence,NA,NA,NA,NA
2850.2000000001863,NA,NA,NA,NA,survey-likert-extra-labels,110,516156,0.0-41.0-1.0-0.0,anomymised,656582dc9140dccdaa20d120,656719103fe220aa3b2826af,7492,1C,woman,NA,NA,W3 is being copied by M1,copy3,rating_causation,"{""Q0"":4}",[0],W3 started copying M1 first,M1 started copying W3 first
4056.600000000093,NA,NA,NA,NA,survey-likert-extra-labels,111,520220,0.0-41.0-2.0,anomymised,656582dc9140dccdaa20d120,656719103fe220aa3b2826af,7492,1C,woman,NA,NA,W3 is being copied by M1,copy3,rating_volition,"{""Q0"":5}",[0],W3 wanted to copy M1,M1 wanted to copy W3
null,Beth is being opposed by Mike,NA,NA,NA,html-keyboard-response,112,522226,0.0-42.0-0.0,anomymised,656582dc9140dccdaa20d120,656719103fe220aa3b2826af,7492,1C,woman,NA,null,W4 is being opposed by M2,oppose4,sentence,NA,NA,NA,NA
5310.899999999907,NA,NA,NA,NA,survey-likert-extra-labels,113,527541,0.0-42.0-1.0-0.0,anomymised,656582dc9140dccdaa20d120,656719103fe220aa3b2826af,7492,1C,woman,NA,NA,W4 is being opposed by M2,oppose4,rating_causation,"{""Q0"":3}",[0],M2 started opposing W4,W4 started opposing M2
3239.2000000001863,NA,NA,NA,NA,survey-likert-extra-labels,114,530789,0.0-42.0-2.0,anomymised,656582dc9140dccdaa20d120,656719103fe220aa3b2826af,7492,1C,woman,NA,NA,W4 is being opposed by M2,oppose4,rating_volition,"{""Q0"":1}",[0],M2 wanted to oppose W4,W4 wanted to oppose M2
null,Mike is being copied by Dave,NA,NA,NA,html-keyboard-response,115,532794,0.0-43.0-0.0,anomymised,656582dc9140dccdaa20d120,656719103fe220aa3b2826af,7492,1C,woman,NA,null,M2 is being copied by M4,copy2,sentence,NA,NA,NA,NA
3038.4000000003725,NA,NA,NA,NA,survey-likert-extra-labels,116,535837,0.0-43.0-2.0,anomymised,656582dc9140dccdaa20d120,656719103fe220aa3b2826af,7492,1C,woman,NA,NA,M2 is being copied by M4,copy2,rating_volition,"{""Q0"":5}",[0],M2 wanted to copy M4,M4 wanted to copy M2
4366.299999999814,NA,NA,NA,NA,survey-likert-extra-labels,117,540213,0.0-43.0-3.0-0.0,anomymised,656582dc9140dccdaa20d120,656719103fe220aa3b2826af,7492,1C,woman,NA,NA,M2 is being copied by M4,copy2,rating_causation,"{""Q0"":4}",[0],M2 started copying M4 first,M4 started copying M2 first
null,Luke is being challenged by Kate,NA,NA,NA,html-keyboard-response,118,542219,0.0-44.0-0.0,anomymised,656582dc9140dccdaa20d120,656719103fe220aa3b2826af,7492,1C,woman,NA,null,M1 is being challenged by W3,challenge4,sentence,NA,NA,NA,NA
3244.899999999907,NA,NA,NA,NA,survey-likert-extra-labels,119,545468,0.0-44.0-1.0-0.0,anomymised,656582dc9140dccdaa20d120,656719103fe220aa3b2826af,7492,1C,woman,NA,NA,M1 is being challenged by W3,challenge4,rating_causation,"{""Q0"":3}",[0],W3 started challenging M1 first,M1 started challenging W3 first
2610.100000000093,NA,NA,NA,NA,survey-likert-extra-labels,120,548084,0.0-44.0-2.0,anomymised,656582dc9140dccdaa20d120,656719103fe220aa3b2826af,7492,1C,woman,NA,NA,M1 is being challenged by W3,challenge4,rating_volition,"{""Q0"":1}",[0],W3 wanted to challenge M1,M1 wanted to challenge W3
null,Luke is being touched by Kate,NA,NA,NA,html-keyboard-response,121,550090,0.0-45.0-0.0,anomymised,656582dc9140dccdaa20d120,656719103fe220aa3b2826af,7492,1C,woman,NA,null,M1 is being touched by W3,touch3,sentence,NA,NA,NA,NA
4110.899999999907,NA,NA,NA,NA,survey-likert-extra-labels,122,554205,0.0-45.0-2.0,anomymised,656582dc9140dccdaa20d120,656719103fe220aa3b2826af,7492,1C,woman,NA,NA,M1 is being touched by W3,touch3,rating_volition,"{""Q0"":0}",[0],W3 wanted to touch M1,M1 wanted to touch W3
3317.7000000001863,NA,NA,NA,NA,survey-likert-extra-labels,123,557530,0.0-45.0-3.0-0.0,anomymised,656582dc9140dccdaa20d120,656719103fe220aa3b2826af,7492,1C,woman,NA,NA,M1 is being touched by W3,touch3,rating_causation,"{""Q0"":3}",[0],W3 asked to touch M1,M1 asked to touch W3
null,Jane is carrying Beth,NA,NA,NA,html-keyboard-response,124,559533,0.0-46.0-0.0,anomymised,656582dc9140dccdaa20d120,656719103fe220aa3b2826af,7492,1C,woman,NA,null,W2 is carrying W4,carry,sentence,NA,NA,NA,NA
8195.30000000028,NA,NA,NA,NA,survey-likert-extra-labels,125,567733,0.0-46.0-1.0-0.0,anomymised,656582dc9140dccdaa20d120,656719103fe220aa3b2826af,7492,1C,woman,NA,NA,W2 is carrying W4,carry,rating_causation,"{""Q0"":6}",[0],W2 is being moved by W4,W4 is being moved by W2
5615.100000000093,NA,NA,NA,NA,survey-likert-extra-labels,126,573357,0.0-46.0-2.0,anomymised,656582dc9140dccdaa20d120,656719103fe220aa3b2826af,7492,1C,woman,NA,NA,W2 is carrying W4,carry,rating_volition,"{""Q0"":0}",[0],W2 is transporting W4,W4 is transporting W2
null,Dave is being touched by Mike,NA,NA,NA,html-keyboard-response,127,575364,0.0-47.0-0.0,anomymised,656582dc9140dccdaa20d120,656719103fe220aa3b2826af,7492,1C,woman,NA,null,M4 is being touched by M2,touch2,sentence,NA,NA,NA,NA
9244.600000000093,NA,NA,NA,NA,survey-likert-extra-labels,128,584612,0.0-47.0-1.0-0.0,anomymised,656582dc9140dccdaa20d120,656719103fe220aa3b2826af,7492,1C,woman,NA,NA,M4 is being touched by M2,touch2,rating_causation,"{""Q0"":2}",[0],M2 asked to touch M4,M4 asked to touch M2
3416.1999999997206,NA,NA,NA,NA,survey-likert-extra-labels,129,588036,0.0-47.0-2.0,anomymised,656582dc9140dccdaa20d120,656719103fe220aa3b2826af,7492,1C,woman,NA,NA,M4 is being touched by M2,touch2,rating_volition,"{""Q0"":1}",[0],M2 wanted to touch M4,M4 wanted to touch M2
null,Jane is being greeted by Beth,NA,NA,NA,html-keyboard-response,130,590040,0.0-48.0-0.0,anomymised,656582dc9140dccdaa20d120,656719103fe220aa3b2826af,7492,1C,woman,NA,null,W2 is being greeted by W4,greet1,sentence,NA,NA,NA,NA
4439.700000000186,NA,NA,NA,NA,survey-likert-extra-labels,131,594485,0.0-48.0-2.0,anomymised,656582dc9140dccdaa20d120,656719103fe220aa3b2826af,7492,1C,woman,NA,NA,W2 is being greeted by W4,greet1,rating_volition,"{""Q0"":5}",[0],W2 wanted to greet W4,W4 wanted to greet W2
2316.1999999997206,NA,NA,NA,NA,survey-likert-extra-labels,132,596812,0.0-48.0-3.0-0.0,anomymised,656582dc9140dccdaa20d120,656719103fe220aa3b2826af,7492,1C,woman,NA,NA,W2 is being greeted by W4,greet1,rating_causation,"{""Q0"":3}",[0],W2 started greeting W4 first,W4 started greeting W2 first
null,Ruth is being seduced by Fred,NA,NA,NA,html-keyboard-response,133,598818,0.0-49.0-0.0,anomymised,656582dc9140dccdaa20d120,656719103fe220aa3b2826af,7492,1C,woman,NA,null,W1 is being seduced by M3,seduce4,sentence,NA,NA,NA,NA
4088,NA,NA,NA,NA,survey-likert-extra-labels,134,602910,0.0-49.0-1.0-0.0,anomymised,656582dc9140dccdaa20d120,656719103fe220aa3b2826af,7492,1C,woman,NA,NA,W1 is being seduced by M3,seduce4,rating_causation,"{""Q0"":3}",[0],M3 started seducing W1 first,W1 started seducing M3 first
5334.799999999814,NA,NA,NA,NA,survey-likert-extra-labels,135,608252,0.0-49.0-2.0,anomymised,656582dc9140dccdaa20d120,656719103fe220aa3b2826af,7492,1C,woman,NA,NA,W1 is being seduced by M3,seduce4,rating_volition,"{""Q0"":1}",[0],M3 wanted to seducing W1,W1 wanted to seducing M3
null,Ruth is being challenged by Fred,NA,NA,NA,html-keyboard-response,136,610257,0.0-50.0-0.0,anomymised,656582dc9140dccdaa20d120,656719103fe220aa3b2826af,7492,1C,woman,NA,null,W1 is being challenged by M3,challenge3,sentence,NA,NA,NA,NA
2694.600000000093,NA,NA,NA,NA,survey-likert-extra-labels,137,612956,0.0-50.0-1.0-0.0,anomymised,656582dc9140dccdaa20d120,656719103fe220aa3b2826af,7492,1C,woman,NA,NA,W1 is being challenged by M3,challenge3,rating_causation,"{""Q0"":3}",[0],M3 started challenging W1 first,W1 started challenging M3 first
3617.2000000001863,NA,NA,NA,NA,survey-likert-extra-labels,138,616580,0.0-50.0-2.0,anomymised,656582dc9140dccdaa20d120,656719103fe220aa3b2826af,7492,1C,woman,NA,NA,W1 is being challenged by M3,challenge3,rating_volition,"{""Q0"":1}",[0],M3 wanted to challenge W1,W1 wanted to challenge M3
null,Fred is being hugged by Luke,NA,NA,NA,html-keyboard-response,139,618585,0.0-51.0-0.0,anomymised,656582dc9140dccdaa20d120,656719103fe220aa3b2826af,7492,1C,woman,NA,null,M3 is being hugged by M1,hug2,sentence,NA,NA,NA,NA
5453.699999999721,NA,NA,NA,NA,survey-likert-extra-labels,140,624044,0.0-51.0-2.0,anomymised,656582dc9140dccdaa20d120,656719103fe220aa3b2826af,7492,1C,woman,NA,NA,M3 is being hugged by M1,hug2,rating_volition,"{""Q0"":0}",[0],M1 wanted to hug M3,M3 wanted to hug M1
4249.600000000093,NA,NA,NA,NA,survey-likert-extra-labels,141,628304,0.0-51.0-3.0-0.0,anomymised,656582dc9140dccdaa20d120,656719103fe220aa3b2826af,7492,1C,woman,NA,NA,M3 is being hugged by M1,hug2,rating_causation,"{""Q0"":3}",[0],M1 asked to hug M3,M3 asked to hug M1
null,Ruth is being kissed by Kate,NA,NA,NA,html-keyboard-response,142,630310,0.0-52.0-0.0,anomymised,656582dc9140dccdaa20d120,656719103fe220aa3b2826af,7492,1C,woman,NA,null,W1 is being kissed by W3,kiss1,sentence,NA,NA,NA,NA
3649.899999999907,NA,NA,NA,NA,survey-likert-extra-labels,143,633966,0.0-52.0-1.0-0.0,anomymised,656582dc9140dccdaa20d120,656719103fe220aa3b2826af,7492,1C,woman,NA,NA,W1 is being kissed by W3,kiss1,rating_causation,"{""Q0"":3}",[0],W1 asked to kiss W3,W3 asked to kiss W1
3436.899999999907,NA,NA,NA,NA,survey-likert-extra-labels,144,637410,0.0-52.0-2.0,anomymised,656582dc9140dccdaa20d120,656719103fe220aa3b2826af,7492,1C,woman,NA,NA,W1 is being kissed by W3,kiss1,rating_volition,"{""Q0"":5}",[0],W1 wanted to kiss W3,W3 wanted to kiss W1
null,Ruth is being touched by Fred,NA,NA,NA,html-keyboard-response,145,639414,0.0-53.0-0.0,anomymised,656582dc9140dccdaa20d120,656719103fe220aa3b2826af,7492,1C,woman,NA,null,W1 is being touched by M3,touch4,sentence,NA,NA,NA,NA
3600.6999999997206,NA,NA,NA,NA,survey-likert-extra-labels,146,643018,0.0-53.0-1.0-0.0,anomymised,656582dc9140dccdaa20d120,656719103fe220aa3b2826af,7492,1C,woman,NA,NA,W1 is being touched by M3,touch4,rating_causation,"{""Q0"":2}",[0],M3 asked to touch W1,W1 asked to touch M3
3948.8000000002794,NA,NA,NA,NA,survey-likert-extra-labels,147,646972,0.0-53.0-2.0,anomymised,656582dc9140dccdaa20d120,656719103fe220aa3b2826af,7492,1C,woman,NA,NA,W1 is being touched by M3,touch4,rating_volition,"{""Q0"":1}",[0],M3 wanted to touch W1,W1 wanted to touch M3
null,Fred is being copied by Ruth,NA,NA,NA,html-keyboard-response,148,648978,0.0-54.0-0.0,anomymised,656582dc9140dccdaa20d120,656719103fe220aa3b2826af,7492,1C,woman,NA,null,M3 is being copied by W1,copy4,sentence,NA,NA,NA,NA
6254.700000000186,NA,NA,NA,NA,survey-likert-extra-labels,149,655237,0.0-54.0-2.0,anomymised,656582dc9140dccdaa20d120,656719103fe220aa3b2826af,7492,1C,woman,NA,NA,M3 is being copied by W1,copy4,rating_volition,"{""Q0"":6}",[0],M3 wanted to copy W1,W1 wanted to copy M3
2199.2999999998137,NA,NA,NA,NA,survey-likert-extra-labels,150,657446,0.0-54.0-3.0-0.0,anomymised,656582dc9140dccdaa20d120,656719103fe220aa3b2826af,7492,1C,woman,NA,NA,M3 is being copied by W1,copy4,rating_causation,"{""Q0"":3}",[0],M3 started copying W1 first,W1 started copying M3 first
2021.8999999999069,<p>Thank you for completing that task.</p><p>The final part of this session is a short questionnaire.</p><p>Press Continue.</p>,0,Continue,Continue,html-button-response,151,659475,0.0-55.0,anomymised,656582dc9140dccdaa20d120,656719103fe220aa3b2826af,7492,1C,woman,NA,NA,NA,NA,NA,NA,NA,NA,NA
29078.700000000186,NA,NA,NA,NA,survey-text,152,689574,0.0-56.0,anomymised,656582dc9140dccdaa20d120,656719103fe220aa3b2826af,7492,1C,woman,NA,NA,NA,NA,demographics,"{""Q0"":""35"",""Q1"":""English"",""Q2"":""English"",""Q3"":""UK"",""Q4"":""British"",""Q5"":""White "",""Q6"":""Female""}",NA,NA,NA
2702.7999999998137,<p>This is the last question - thank you for taking part! Have you lived in the UK for the last 5 years or more?</p>,0,"Yes,No",Yes,html-button-response,153,692283,0.0-57.0,anomymised,656582dc9140dccdaa20d120,656719103fe220aa3b2826af,7492,1C,woman,NA,NA,NA,NA,fiveyears,NA,NA,NA,NA
