rt,stimulus,button_pressed,choices,ChosenStimulus,trial_type,trial_index,time_elapsed,internal_node_id,subject_id,study_id,session_id,subject,list,ppt_gender,url,key_press,sentence_type,verb,test_part,responses,question_order,left_part,right_part
2153.7000000001863,Welcome to the experiment. Press Continue to begin.,0,Continue,Continue,html-button-response,0,2157,0.0-0.0,anomymised,656580e591ab4d27a27b0c3d,6565f66ce069266b5b1eacdb,75459,1B,man,NA,NA,NA,NA,NA,NA,NA,NA,NA
6003.800000000279,NA,NA,NA,NA,external-html,1,9204,0.0-1.0,anomymised,656580e591ab4d27a27b0c3d,6565f66ce069266b5b1eacdb,75459,1B,man,consent.html,NA,NA,NA,NA,NA,NA,NA,NA
9105,"<p>Welcome.</p><p>In this experiment we will ask you to imagine some situations.</p><p>Each trial starts with a description of an event.</p><p>Then you will see alternative descriptions of that event, and you will rate on a scale how best they match the original description.</p><p>You will give your answer by clicking a button on a rating scale.</p><p>To do this task, you will have to use your imagination to visualise these events.</p><br><p>Ready?</p>",0,Continue,Continue,html-button-response,2,18310,0.0-2.0,anomymised,656580e591ab4d27a27b0c3d,6565f66ce069266b5b1eacdb,75459,1B,man,NA,NA,NA,NA,NA,NA,NA,NA,NA
2430.5,"<p>Before the experiment starts, you will watch an example trial. Press 'Continue'.</p>",0,Continue,Continue,html-button-response,3,21744,0.0-3.0,anomymised,656580e591ab4d27a27b0c3d,6565f66ce069266b5b1eacdb,75459,1B,man,NA,NA,NA,NA,NA,NA,NA,NA,NA
null,The police officer is arresting the robber,NA,NA,NA,html-keyboard-response,4,24762,0.0-4.0,anomymised,656580e591ab4d27a27b0c3d,6565f66ce069266b5b1eacdb,75459,1B,man,NA,null,NA,NA,NA,NA,NA,NA,NA
12577.69999999972,<img src='img/Example-trial.jpg' style='height:550px;''></img>,0,Continue,Continue,html-button-response,5,37344,0.0-5.0,anomymised,656580e591ab4d27a27b0c3d,6565f66ce069266b5b1eacdb,75459,1B,man,NA,NA,NA,NA,NA,NA,NA,NA,NA
2404,<p>Ready to start the experiment?</p><br><p><strong>Remember to give an answer by clicking a button on the rating scale.</strong></p><p>Press 'Continue' to begin.</p>,0,Continue,Continue,html-button-response,6,40752,0.0-6.0,anomymised,656580e591ab4d27a27b0c3d,6565f66ce069266b5b1eacdb,75459,1B,man,NA,NA,NA,NA,NA,NA,NA,NA,NA
null,Beth is being copied by Jane,NA,NA,NA,html-keyboard-response,7,43761,0.0-7.0-0.0,anomymised,656580e591ab4d27a27b0c3d,6565f66ce069266b5b1eacdb,75459,1B,man,NA,null,W4 is being copied by W2,copy1,sentence,NA,NA,NA,NA
12315.299999999814,NA,NA,NA,NA,survey-likert-extra-labels,8,56081,0.0-7.0-1.0-0.0,anomymised,656580e591ab4d27a27b0c3d,6565f66ce069266b5b1eacdb,75459,1B,man,NA,NA,W4 is being copied by W2,copy1,rating_causation,"{""Q0"":6}",[0],W4 started copying W2 first,W2 started copying W4 first
5919.700000000186,NA,NA,NA,NA,survey-likert-extra-labels,9,62002,0.0-7.0-2.0,anomymised,656580e591ab4d27a27b0c3d,6565f66ce069266b5b1eacdb,75459,1B,man,NA,NA,W4 is being copied by W2,copy1,rating_volition,"{""Q0"":6}",[0],W4 wanted to copy W2,W2 wanted to copy W4
null,Kate is being challenged by Luke,NA,NA,NA,html-keyboard-response,10,64010,0.0-8.0-0.0,anomymised,656580e591ab4d27a27b0c3d,6565f66ce069266b5b1eacdb,75459,1B,man,NA,null,W3 is being challenged by M1,challenge4,sentence,NA,NA,NA,NA
9186.200000000186,NA,NA,NA,NA,survey-likert-extra-labels,11,73198,0.0-8.0-2.0,anomymised,656580e591ab4d27a27b0c3d,6565f66ce069266b5b1eacdb,75459,1B,man,NA,NA,W3 is being challenged by M1,challenge4,rating_volition,"{""Q0"":0}",[0],M1 wanted to challenge W3,W3 wanted to challenge M1
4985.5,NA,NA,NA,NA,survey-likert-extra-labels,12,78186,0.0-8.0-3.0-0.0,anomymised,656580e591ab4d27a27b0c3d,6565f66ce069266b5b1eacdb,75459,1B,man,NA,NA,W3 is being challenged by M1,challenge4,rating_causation,"{""Q0"":0}",[0],M1 started challenging W3 first,W3 started challenging M1 first
null,Ruth is being opposed by Kate,NA,NA,NA,html-keyboard-response,13,80193,0.0-9.0-0.0,anomymised,656580e591ab4d27a27b0c3d,6565f66ce069266b5b1eacdb,75459,1B,man,NA,null,W1 is being opposed by W3,oppose1,sentence,NA,NA,NA,NA
4469.200000000186,NA,NA,NA,NA,survey-likert-extra-labels,14,84665,0.0-9.0-2.0,anomymised,656580e591ab4d27a27b0c3d,6565f66ce069266b5b1eacdb,75459,1B,man,NA,NA,W1 is being opposed by W3,oppose1,rating_volition,"{""Q0"":0}",[0],W3 wanted to oppose W1,W1 wanted to oppose W3
5059,NA,NA,NA,NA,survey-likert-extra-labels,15,89726,0.0-9.0-3.0-0.0,anomymised,656580e591ab4d27a27b0c3d,6565f66ce069266b5b1eacdb,75459,1B,man,NA,NA,W1 is being opposed by W3,oppose1,rating_causation,"{""Q0"":0}",[0],W3 started opposing W1,W1 started opposing W3
null,Beth is being looked at by Mike,NA,NA,NA,html-keyboard-response,16,91737,0.0-10.0-0.0,anomymised,656580e591ab4d27a27b0c3d,6565f66ce069266b5b1eacdb,75459,1B,man,NA,null,W4 is being looked at by M2,look4,sentence,NA,NA,NA,NA
3995,NA,NA,NA,NA,survey-likert-extra-labels,17,95738,0.0-10.0-1.0-0.0,anomymised,656580e591ab4d27a27b0c3d,6565f66ce069266b5b1eacdb,75459,1B,man,NA,NA,W4 is being looked at by M2,look4,rating_causation,"{""Q0"":6}",[0],W4 looked at M2 first,M2 looked at W4 first
9257.80000000028,NA,NA,NA,NA,survey-likert-extra-labels,18,104998,0.0-10.0-2.0,anomymised,656580e591ab4d27a27b0c3d,6565f66ce069266b5b1eacdb,75459,1B,man,NA,NA,W4 is being looked at by M2,look4,rating_volition,"{""Q0"":6}",[0],W4 wanted to look at M2,M2 wanted to look at W4
null,Jane is teaching Dave,NA,NA,NA,html-keyboard-response,19,107014,0.0-11.0-0.0,anomymised,656580e591ab4d27a27b0c3d,6565f66ce069266b5b1eacdb,75459,1B,man,NA,null,W2 is teaching M4,teach,sentence,NA,NA,NA,NA
5684.299999999814,NA,NA,NA,NA,survey-likert-extra-labels,20,112701,0.0-11.0-1.0-0.0,anomymised,656580e591ab4d27a27b0c3d,6565f66ce069266b5b1eacdb,75459,1B,man,NA,NA,W2 is teaching M4,teach,rating_causation,"{""Q0"":6}",[0],W2 is learning from M4,M4 is learning from W2
6414.800000000279,NA,NA,NA,NA,survey-likert-extra-labels,21,119118,0.0-11.0-2.0,anomymised,656580e591ab4d27a27b0c3d,6565f66ce069266b5b1eacdb,75459,1B,man,NA,NA,W2 is teaching M4,teach,rating_volition,"{""Q0"":0}",[0],W2 is educating M4,M4 is educating W2
null,Fred is being looked at by Luke,NA,NA,NA,html-keyboard-response,22,121129,0.0-12.0-0.0,anomymised,656580e591ab4d27a27b0c3d,6565f66ce069266b5b1eacdb,75459,1B,man,NA,null,M3 is being looked at by M1,look2,sentence,NA,NA,NA,NA
5538.899999999907,NA,NA,NA,NA,survey-likert-extra-labels,23,126670,0.0-12.0-1.0-0.0,anomymised,656580e591ab4d27a27b0c3d,6565f66ce069266b5b1eacdb,75459,1B,man,NA,NA,M3 is being looked at by M1,look2,rating_causation,"{""Q0"":6}",[0],M3 looked at M1 first,M1 looked at M3 first
7442.100000000093,NA,NA,NA,NA,survey-likert-extra-labels,24,134114,0.0-12.0-2.0,anomymised,656580e591ab4d27a27b0c3d,6565f66ce069266b5b1eacdb,75459,1B,man,NA,NA,M3 is being looked at by M1,look2,rating_volition,"{""Q0"":6}",[0],M3 wanted to look at M1,M1 wanted to look at M3
null,Mike is reminding Beth,NA,NA,NA,html-keyboard-response,25,136126,0.0-13.0-0.0,anomymised,656580e591ab4d27a27b0c3d,6565f66ce069266b5b1eacdb,75459,1B,man,NA,null,M2 is reminding W4,remind,sentence,NA,NA,NA,NA
6336.199999999721,NA,NA,NA,NA,survey-likert-extra-labels,26,142464,0.0-13.0-1.0-0.0,anomymised,656580e591ab4d27a27b0c3d,6565f66ce069266b5b1eacdb,75459,1B,man,NA,NA,M2 is reminding W4,remind,rating_causation,"{""Q0"":3}",[0],M2 is remembering,W4 is remembering
6538.0999999996275,NA,NA,NA,NA,survey-likert-extra-labels,27,149004,0.0-13.0-2.0,anomymised,656580e591ab4d27a27b0c3d,6565f66ce069266b5b1eacdb,75459,1B,man,NA,NA,M2 is reminding W4,remind,rating_volition,"{""Q0"":0}",[0],M2 is telling W4 again,W4 is telling M2 again
null,Kate is being seduced by Luke,NA,NA,NA,html-keyboard-response,28,151020,0.0-14.0-0.0,anomymised,656580e591ab4d27a27b0c3d,6565f66ce069266b5b1eacdb,75459,1B,man,NA,null,W3 is being seduced by M1,seduce3,sentence,NA,NA,NA,NA
5670.299999999814,NA,NA,NA,NA,survey-likert-extra-labels,29,156692,0.0-14.0-2.0,anomymised,656580e591ab4d27a27b0c3d,6565f66ce069266b5b1eacdb,75459,1B,man,NA,NA,W3 is being seduced by M1,seduce3,rating_volition,"{""Q0"":0}",[0],M1 wanted to seduce W3,W3 wanted to seduce M1
4766.0999999996275,NA,NA,NA,NA,survey-likert-extra-labels,30,161460,0.0-14.0-3.0-0.0,anomymised,656580e591ab4d27a27b0c3d,6565f66ce069266b5b1eacdb,75459,1B,man,NA,NA,W3 is being seduced by M1,seduce3,rating_causation,"{""Q0"":0}",[0],M1 started seducing W3 first,W3 started seducing M1 first
null,Luke is being shouted at by Fred,NA,NA,NA,html-keyboard-response,31,163472,0.0-15.0-0.0,anomymised,656580e591ab4d27a27b0c3d,6565f66ce069266b5b1eacdb,75459,1B,man,NA,null,M1 is being shouted at by M3,shout2,sentence,NA,NA,NA,NA
5060.700000000186,NA,NA,NA,NA,survey-likert-extra-labels,32,168534,0.0-15.0-2.0,anomymised,656580e591ab4d27a27b0c3d,6565f66ce069266b5b1eacdb,75459,1B,man,NA,NA,M1 is being shouted at by M3,shout2,rating_volition,"{""Q0"":0}",[0],M3 wanted to shout at M1,M1 wanted to shout at M3
4257.200000000186,NA,NA,NA,NA,survey-likert-extra-labels,33,172794,0.0-15.0-3.0-0.0,anomymised,656580e591ab4d27a27b0c3d,6565f66ce069266b5b1eacdb,75459,1B,man,NA,NA,M1 is being shouted at by M3,shout2,rating_causation,"{""Q0"":0}",[0],M3 shouted at M1 first,M1 shouted at M3 first
null,Mike is being hugged by Beth,NA,NA,NA,html-keyboard-response,34,174810,0.0-16.0-0.0,anomymised,656580e591ab4d27a27b0c3d,6565f66ce069266b5b1eacdb,75459,1B,man,NA,null,M2 is being hugged by W4,hug4,sentence,NA,NA,NA,NA
3828.7000000001863,NA,NA,NA,NA,survey-likert-extra-labels,35,178640,0.0-16.0-2.0,anomymised,656580e591ab4d27a27b0c3d,6565f66ce069266b5b1eacdb,75459,1B,man,NA,NA,M2 is being hugged by W4,hug4,rating_volition,"{""Q0"":0}",[0],W4 wanted to hug M2,M2 wanted to hug W4
6450.199999999721,NA,NA,NA,NA,survey-likert-extra-labels,36,185092,0.0-16.0-3.0-0.0,anomymised,656580e591ab4d27a27b0c3d,6565f66ce069266b5b1eacdb,75459,1B,man,NA,NA,M2 is being hugged by W4,hug4,rating_causation,"{""Q0"":0}",[0],W4 asked to hug M2,M2 asked to hug W4
null,Ruth is being greeted by Fred,NA,NA,NA,html-keyboard-response,37,187098,0.0-17.0-0.0,anomymised,656580e591ab4d27a27b0c3d,6565f66ce069266b5b1eacdb,75459,1B,man,NA,null,W1 is being greeted by M3,greet3,sentence,NA,NA,NA,NA
6452,NA,NA,NA,NA,survey-likert-extra-labels,38,193552,0.0-17.0-2.0,anomymised,656580e591ab4d27a27b0c3d,6565f66ce069266b5b1eacdb,75459,1B,man,NA,NA,W1 is being greeted by M3,greet3,rating_volition,"{""Q0"":6}",[0],W1 wanted to greet M3,M3 wanted to greet W1
6489.899999999907,NA,NA,NA,NA,survey-likert-extra-labels,39,200044,0.0-17.0-3.0-0.0,anomymised,656580e591ab4d27a27b0c3d,6565f66ce069266b5b1eacdb,75459,1B,man,NA,NA,W1 is being greeted by M3,greet3,rating_causation,"{""Q0"":6}",[0],W1 started greeting M3 first,M3 started greeting W1 first
null,Kate is being touched by Luke,NA,NA,NA,html-keyboard-response,40,202054,0.0-18.0-0.0,anomymised,656580e591ab4d27a27b0c3d,6565f66ce069266b5b1eacdb,75459,1B,man,NA,null,W3 is being touched by M1,touch3,sentence,NA,NA,NA,NA
6347.9000000003725,NA,NA,NA,NA,survey-likert-extra-labels,41,208404,0.0-18.0-2.0,anomymised,656580e591ab4d27a27b0c3d,6565f66ce069266b5b1eacdb,75459,1B,man,NA,NA,W3 is being touched by M1,touch3,rating_volition,"{""Q0"":0}",[0],M1 wanted to touch W3,W3 wanted to touch M1
4574.600000000093,NA,NA,NA,NA,survey-likert-extra-labels,42,212981,0.0-18.0-3.0-0.0,anomymised,656580e591ab4d27a27b0c3d,6565f66ce069266b5b1eacdb,75459,1B,man,NA,NA,W3 is being touched by M1,touch3,rating_causation,"{""Q0"":0}",[0],M1 asked to touch W3,W3 asked to touch M1
null,Dave is being kissed by Jane,NA,NA,NA,html-keyboard-response,43,214992,0.0-19.0-0.0,anomymised,656580e591ab4d27a27b0c3d,6565f66ce069266b5b1eacdb,75459,1B,man,NA,null,M4 is being kissed by W2,kiss4,sentence,NA,NA,NA,NA
5012.200000000186,NA,NA,NA,NA,survey-likert-extra-labels,44,220006,0.0-19.0-1.0-0.0,anomymised,656580e591ab4d27a27b0c3d,6565f66ce069266b5b1eacdb,75459,1B,man,NA,NA,M4 is being kissed by W2,kiss4,rating_causation,"{""Q0"":6}",[0],M4 asked to kiss W2,W2 asked to kiss M4
4910.200000000186,NA,NA,NA,NA,survey-likert-extra-labels,45,224918,0.0-19.0-2.0,anomymised,656580e591ab4d27a27b0c3d,6565f66ce069266b5b1eacdb,75459,1B,man,NA,NA,M4 is being kissed by W2,kiss4,rating_volition,"{""Q0"":6}",[0],M4 wanted to kiss W2,W2 wanted to kiss M4
null,Dave is being greeted by Mike,NA,NA,NA,html-keyboard-response,46,226922,0.0-20.0-0.0,anomymised,656580e591ab4d27a27b0c3d,6565f66ce069266b5b1eacdb,75459,1B,man,NA,null,M4 is being greeted by M2,greet2,sentence,NA,NA,NA,NA
4354.100000000093,NA,NA,NA,NA,survey-likert-extra-labels,47,231278,0.0-20.0-1.0-0.0,anomymised,656580e591ab4d27a27b0c3d,6565f66ce069266b5b1eacdb,75459,1B,man,NA,NA,M4 is being greeted by M2,greet2,rating_causation,"{""Q0"":6}",[0],M4 started greeting M2 first,M2 started greeting M4 first
2464.100000000093,NA,NA,NA,NA,survey-likert-extra-labels,48,233744,0.0-20.0-2.0,anomymised,656580e591ab4d27a27b0c3d,6565f66ce069266b5b1eacdb,75459,1B,man,NA,NA,M4 is being greeted by M2,greet2,rating_volition,"{""Q0"":6}",[0],M4 wanted to greet M2,M2 wanted to greet M4
null,Mike is being opposed by Beth,NA,NA,NA,html-keyboard-response,49,235749,0.0-21.0-0.0,anomymised,656580e591ab4d27a27b0c3d,6565f66ce069266b5b1eacdb,75459,1B,man,NA,null,M2 is being opposed by W4,oppose4,sentence,NA,NA,NA,NA
3322.899999999907,NA,NA,NA,NA,survey-likert-extra-labels,50,239074,0.0-21.0-1.0-0.0,anomymised,656580e591ab4d27a27b0c3d,6565f66ce069266b5b1eacdb,75459,1B,man,NA,NA,M2 is being opposed by W4,oppose4,rating_causation,"{""Q0"":0}",[0],W4 started opposing M2,M2 started opposing W4
8946.700000000186,NA,NA,NA,NA,survey-likert-extra-labels,51,248022,0.0-21.0-2.0,anomymised,656580e591ab4d27a27b0c3d,6565f66ce069266b5b1eacdb,75459,1B,man,NA,NA,M2 is being opposed by W4,oppose4,rating_volition,"{""Q0"":0}",[0],W4 wanted to oppose M2,M2 wanted to oppose W4
null,Luke is being copied by Kate,NA,NA,NA,html-keyboard-response,52,250029,0.0-22.0-0.0,anomymised,656580e591ab4d27a27b0c3d,6565f66ce069266b5b1eacdb,75459,1B,man,NA,null,M1 is being copied by W3,copy3,sentence,NA,NA,NA,NA
4178.899999999907,NA,NA,NA,NA,survey-likert-extra-labels,53,254210,0.0-22.0-2.0,anomymised,656580e591ab4d27a27b0c3d,6565f66ce069266b5b1eacdb,75459,1B,man,NA,NA,M1 is being copied by W3,copy3,rating_volition,"{""Q0"":6}",[0],M1 wanted to copy W3,W3 wanted to copy M1
5490.399999999907,NA,NA,NA,NA,survey-likert-extra-labels,54,259702,0.0-22.0-3.0-0.0,anomymised,656580e591ab4d27a27b0c3d,6565f66ce069266b5b1eacdb,75459,1B,man,NA,NA,M1 is being copied by W3,copy3,rating_causation,"{""Q0"":6}",[0],M1 started copying W3 first,W3 started copying M1 first
null,Fred is being kissed by Luke,NA,NA,NA,html-keyboard-response,55,261709,0.0-23.0-0.0,anomymised,656580e591ab4d27a27b0c3d,6565f66ce069266b5b1eacdb,75459,1B,man,NA,null,M3 is being kissed by M1,kiss2,sentence,NA,NA,NA,NA
5599.800000000279,NA,NA,NA,NA,survey-likert-extra-labels,56,267310,0.0-23.0-2.0,anomymised,656580e591ab4d27a27b0c3d,6565f66ce069266b5b1eacdb,75459,1B,man,NA,NA,M3 is being kissed by M1,kiss2,rating_volition,"{""Q0"":6}",[0],M3 wanted to kiss M1,M1 wanted to kiss M3
3866.100000000093,NA,NA,NA,NA,survey-likert-extra-labels,57,271178,0.0-23.0-3.0-0.0,anomymised,656580e591ab4d27a27b0c3d,6565f66ce069266b5b1eacdb,75459,1B,man,NA,NA,M3 is being kissed by M1,kiss2,rating_causation,"{""Q0"":6}",[0],M3 asked to kiss M1,M1 asked to kiss M3
null,Mike is being touched by Dave,NA,NA,NA,html-keyboard-response,58,273186,0.0-24.0-0.0,anomymised,656580e591ab4d27a27b0c3d,6565f66ce069266b5b1eacdb,75459,1B,man,NA,null,M2 is being touched by M4,touch2,sentence,NA,NA,NA,NA
5006,NA,NA,NA,NA,survey-likert-extra-labels,59,278194,0.0-24.0-1.0-0.0,anomymised,656580e591ab4d27a27b0c3d,6565f66ce069266b5b1eacdb,75459,1B,man,NA,NA,M2 is being touched by M4,touch2,rating_causation,"{""Q0"":0}",[0],M4 asked to touch M2,M2 asked to touch M4
4778.5,NA,NA,NA,NA,survey-likert-extra-labels,60,282974,0.0-24.0-2.0,anomymised,656580e591ab4d27a27b0c3d,6565f66ce069266b5b1eacdb,75459,1B,man,NA,NA,M2 is being touched by M4,touch2,rating_volition,"{""Q0"":0}",[0],M4 wanted to touch M2,M2 wanted to touch M4
null,Jane is being shouted at by Dave,NA,NA,NA,html-keyboard-response,61,284989,0.0-25.0-0.0,anomymised,656580e591ab4d27a27b0c3d,6565f66ce069266b5b1eacdb,75459,1B,man,NA,null,W2 is being shouted at by M4,shout4,sentence,NA,NA,NA,NA
3891.3000000002794,NA,NA,NA,NA,survey-likert-extra-labels,62,288882,0.0-25.0-1.0-0.0,anomymised,656580e591ab4d27a27b0c3d,6565f66ce069266b5b1eacdb,75459,1B,man,NA,NA,W2 is being shouted at by M4,shout4,rating_causation,"{""Q0"":0}",[0],M4 shouted at W2 first,W2 shouted at M4 first
7094.200000000186,NA,NA,NA,NA,survey-likert-extra-labels,63,295978,0.0-25.0-2.0,anomymised,656580e591ab4d27a27b0c3d,6565f66ce069266b5b1eacdb,75459,1B,man,NA,NA,W2 is being shouted at by M4,shout4,rating_volition,"{""Q0"":0}",[0],M4 wanted to shout at W2,W2 wanted to shout at M4
null,Mike is being seduced by Dave,NA,NA,NA,html-keyboard-response,64,297995,0.0-26.0-0.0,anomymised,656580e591ab4d27a27b0c3d,6565f66ce069266b5b1eacdb,75459,1B,man,NA,null,M2 is being seduced by M4,seduce2,sentence,NA,NA,NA,NA
3801.600000000093,NA,NA,NA,NA,survey-likert-extra-labels,65,301798,0.0-26.0-2.0,anomymised,656580e591ab4d27a27b0c3d,6565f66ce069266b5b1eacdb,75459,1B,man,NA,NA,M2 is being seduced by M4,seduce2,rating_volition,"{""Q0"":0}",[0],M4 wanted to seduce M2,M2 wanted to seduce M4
3370.399999999907,NA,NA,NA,NA,survey-likert-extra-labels,66,305170,0.0-26.0-3.0-0.0,anomymised,656580e591ab4d27a27b0c3d,6565f66ce069266b5b1eacdb,75459,1B,man,NA,NA,M2 is being seduced by M4,seduce2,rating_causation,"{""Q0"":0}",[0],M4 started seducing M2 first,M2 started seducing M4 first
null,Ruth is being hugged by Kate,NA,NA,NA,html-keyboard-response,67,307187,0.0-27.0-0.0,anomymised,656580e591ab4d27a27b0c3d,6565f66ce069266b5b1eacdb,75459,1B,man,NA,null,W1 is being hugged by W3,hug1,sentence,NA,NA,NA,NA
6567.100000000093,NA,NA,NA,NA,survey-likert-extra-labels,68,313756,0.0-27.0-2.0,anomymised,656580e591ab4d27a27b0c3d,6565f66ce069266b5b1eacdb,75459,1B,man,NA,NA,W1 is being hugged by W3,hug1,rating_volition,"{""Q0"":0}",[0],W3 wanted to hug W1,W1 wanted to hug W3
3930,NA,NA,NA,NA,survey-likert-extra-labels,69,317688,0.0-27.0-3.0-0.0,anomymised,656580e591ab4d27a27b0c3d,6565f66ce069266b5b1eacdb,75459,1B,man,NA,NA,W1 is being hugged by W3,hug1,rating_causation,"{""Q0"":0}",[0],W3 asked to hug W1,W1 asked to hug W3
null,Ruth is being shouted at by Kate,NA,NA,NA,html-keyboard-response,70,319691,0.0-28.0-0.0,anomymised,656580e591ab4d27a27b0c3d,6565f66ce069266b5b1eacdb,75459,1B,man,NA,null,W1 is being shouted at by W3,shout1,sentence,NA,NA,NA,NA
3616.2999999998137,NA,NA,NA,NA,survey-likert-extra-labels,71,323308,0.0-28.0-2.0,anomymised,656580e591ab4d27a27b0c3d,6565f66ce069266b5b1eacdb,75459,1B,man,NA,NA,W1 is being shouted at by W3,shout1,rating_volition,"{""Q0"":0}",[0],W3 wanted to shout at W1,W1 wanted to shout at W3
2928.2999999998137,NA,NA,NA,NA,survey-likert-extra-labels,72,326238,0.0-28.0-3.0-0.0,anomymised,656580e591ab4d27a27b0c3d,6565f66ce069266b5b1eacdb,75459,1B,man,NA,NA,W1 is being shouted at by W3,shout1,rating_causation,"{""Q0"":0}",[0],W3 shouted at W1 first,W1 shouted at W3 first
null,Luke is driving Fred,NA,NA,NA,html-keyboard-response,73,328255,0.0-29.0-0.0,anomymised,656580e591ab4d27a27b0c3d,6565f66ce069266b5b1eacdb,75459,1B,man,NA,null,M1 is driving M3,drive,sentence,NA,NA,NA,NA
9084.69999999972,NA,NA,NA,NA,survey-likert-extra-labels,74,337342,0.0-29.0-1.0-0.0,anomymised,656580e591ab4d27a27b0c3d,6565f66ce069266b5b1eacdb,75459,1B,man,NA,NA,M1 is driving M3,drive,rating_causation,"{""Q0"":0}",[0],M1 is taking M3 somewhere,M3 is taking M1 somewhere
4630.600000000093,NA,NA,NA,NA,survey-likert-extra-labels,75,341975,0.0-29.0-2.0,anomymised,656580e591ab4d27a27b0c3d,6565f66ce069266b5b1eacdb,75459,1B,man,NA,NA,M1 is driving M3,drive,rating_volition,"{""Q0"":6}",[0],M1 is M3's passenger,M3 is M1's passenger
null,Ruth is chasing Kate,NA,NA,NA,html-keyboard-response,76,343986,0.0-30.0-0.0,anomymised,656580e591ab4d27a27b0c3d,6565f66ce069266b5b1eacdb,75459,1B,man,NA,null,W1 is chasing W3,chase,sentence,NA,NA,NA,NA
6336.399999999907,NA,NA,NA,NA,survey-likert-extra-labels,77,350324,0.0-30.0-2.0,anomymised,656580e591ab4d27a27b0c3d,6565f66ce069266b5b1eacdb,75459,1B,man,NA,NA,W1 is chasing W3,chase,rating_volition,"{""Q0"":0}",[0],W1 is behind W3,W3 is behind W1
7351.799999999814,NA,NA,NA,NA,survey-likert-extra-labels,78,357678,0.0-30.0-3.0-0.0,anomymised,656580e591ab4d27a27b0c3d,6565f66ce069266b5b1eacdb,75459,1B,man,NA,NA,W1 is chasing W3,chase,rating_causation,"{""Q0"":6}",[0],W1 is running away from W3,W3 is running away from W1
null,Mike is posing for Dave,NA,NA,NA,html-keyboard-response,79,359689,0.0-31.0-0.0,anomymised,656580e591ab4d27a27b0c3d,6565f66ce069266b5b1eacdb,75459,1B,man,NA,null,M2 is posing for M4,pose,sentence,NA,NA,NA,NA
4503.299999999814,NA,NA,NA,NA,survey-likert-extra-labels,80,364194,0.0-31.0-1.0-0.0,anomymised,656580e591ab4d27a27b0c3d,6565f66ce069266b5b1eacdb,75459,1B,man,NA,NA,M2 is posing for M4,pose,rating_causation,"{""Q0"":6}",[0],M2 is photographing M4,M4 is photographing M2
5278,NA,NA,NA,NA,survey-likert-extra-labels,81,369474,0.0-31.0-2.0,anomymised,656580e591ab4d27a27b0c3d,6565f66ce069266b5b1eacdb,75459,1B,man,NA,NA,M2 is posing for M4,pose,rating_volition,"{""Q0"":0}",[0],M2 is modelling for M4,M4 is modelling for M2
null,Luke is being hugged by Fred,NA,NA,NA,html-keyboard-response,82,371484,0.0-32.0-0.0,anomymised,656580e591ab4d27a27b0c3d,6565f66ce069266b5b1eacdb,75459,1B,man,NA,null,M1 is being hugged by M3,hug2,sentence,NA,NA,NA,NA
4176,NA,NA,NA,NA,survey-likert-extra-labels,83,375662,0.0-32.0-1.0-0.0,anomymised,656580e591ab4d27a27b0c3d,6565f66ce069266b5b1eacdb,75459,1B,man,NA,NA,M1 is being hugged by M3,hug2,rating_causation,"{""Q0"":0}",[0],M3 asked to hug M1,M1 asked to hug M3
3780.100000000093,NA,NA,NA,NA,survey-likert-extra-labels,84,379444,0.0-32.0-2.0,anomymised,656580e591ab4d27a27b0c3d,6565f66ce069266b5b1eacdb,75459,1B,man,NA,NA,M1 is being hugged by M3,hug2,rating_volition,"{""Q0"":0}",[0],M3 wanted to hug M1,M1 wanted to hug M3
null,Fred is hiring Ruth,NA,NA,NA,html-keyboard-response,85,381461,0.0-33.0-0.0,anomymised,656580e591ab4d27a27b0c3d,6565f66ce069266b5b1eacdb,75459,1B,man,NA,null,M3 is hiring W1,hire,sentence,NA,NA,NA,NA
4069.5999999996275,NA,NA,NA,NA,survey-likert-extra-labels,86,385532,0.0-33.0-2.0,anomymised,656580e591ab4d27a27b0c3d,6565f66ce069266b5b1eacdb,75459,1B,man,NA,NA,M3 is hiring W1,hire,rating_volition,"{""Q0"":0}",[0],M3 is employing W1,W1 is employing M3
6380.199999999721,NA,NA,NA,NA,survey-likert-extra-labels,87,391914,0.0-33.0-3.0-0.0,anomymised,656580e591ab4d27a27b0c3d,6565f66ce069266b5b1eacdb,75459,1B,man,NA,NA,M3 is hiring W1,hire,rating_causation,"{""Q0"":6}",[0],M3 will work for W1,W1 will work for M3
null,Kate is being kissed by Ruth,NA,NA,NA,html-keyboard-response,88,393928,0.0-34.0-0.0,anomymised,656580e591ab4d27a27b0c3d,6565f66ce069266b5b1eacdb,75459,1B,man,NA,null,W3 is being kissed by W1,kiss1,sentence,NA,NA,NA,NA
5556.299999999814,NA,NA,NA,NA,survey-likert-extra-labels,89,399486,0.0-34.0-2.0,anomymised,656580e591ab4d27a27b0c3d,6565f66ce069266b5b1eacdb,75459,1B,man,NA,NA,W3 is being kissed by W1,kiss1,rating_volition,"{""Q0"":6}",[0],W3 wanted to kiss W1,W1 wanted to kiss W3
4857.899999999907,NA,NA,NA,NA,survey-likert-extra-labels,90,404346,0.0-34.0-3.0-0.0,anomymised,656580e591ab4d27a27b0c3d,6565f66ce069266b5b1eacdb,75459,1B,man,NA,NA,W3 is being kissed by W1,kiss1,rating_causation,"{""Q0"":6}",[0],W3 asked to kiss W1,W1 asked to kiss W3
null,Kate is feeding Luke,NA,NA,NA,html-keyboard-response,91,406352,0.0-35.0-0.0,anomymised,656580e591ab4d27a27b0c3d,6565f66ce069266b5b1eacdb,75459,1B,man,NA,null,W3 is feeding M1,feed,sentence,NA,NA,NA,NA
6112.5999999996275,NA,NA,NA,NA,survey-likert-extra-labels,92,412466,0.0-35.0-2.0,anomymised,656580e591ab4d27a27b0c3d,6565f66ce069266b5b1eacdb,75459,1B,man,NA,NA,W3 is feeding M1,feed,rating_volition,"{""Q0"":0}",[0],W3 cooked for M1,M1 cooked for W3
3594.2999999998137,NA,NA,NA,NA,survey-likert-extra-labels,93,416062,0.0-35.0-3.0-0.0,anomymised,656580e591ab4d27a27b0c3d,6565f66ce069266b5b1eacdb,75459,1B,man,NA,NA,W3 is feeding M1,feed,rating_causation,"{""Q0"":6}",[0],W3 is eating M1's food,M1 is eating W3's food
null,Mike is being shouted at by Beth,NA,NA,NA,html-keyboard-response,94,418070,0.0-36.0-0.0,anomymised,656580e591ab4d27a27b0c3d,6565f66ce069266b5b1eacdb,75459,1B,man,NA,null,M2 is being shouted at by W4,shout3,sentence,NA,NA,NA,NA
4475.899999999907,NA,NA,NA,NA,survey-likert-extra-labels,95,422548,0.0-36.0-1.0-0.0,anomymised,656580e591ab4d27a27b0c3d,6565f66ce069266b5b1eacdb,75459,1B,man,NA,NA,M2 is being shouted at by W4,shout3,rating_causation,"{""Q0"":6}",[0],W4 shouted at M2 first,M2 shouted at W4 first
5121.700000000186,NA,NA,NA,NA,survey-likert-extra-labels,96,427672,0.0-36.0-2.0,anomymised,656580e591ab4d27a27b0c3d,6565f66ce069266b5b1eacdb,75459,1B,man,NA,NA,M2 is being shouted at by W4,shout3,rating_volition,"{""Q0"":0}",[0],W4 wanted to shout at M2,M2 wanted to shout at W4
null,Jane is being seduced by Beth,NA,NA,NA,html-keyboard-response,97,429682,0.0-37.0-0.0,anomymised,656580e591ab4d27a27b0c3d,6565f66ce069266b5b1eacdb,75459,1B,man,NA,null,W2 is being seduced by W4,seduce1,sentence,NA,NA,NA,NA
5072.600000000093,NA,NA,NA,NA,survey-likert-extra-labels,98,434756,0.0-37.0-2.0,anomymised,656580e591ab4d27a27b0c3d,6565f66ce069266b5b1eacdb,75459,1B,man,NA,NA,W2 is being seduced by W4,seduce1,rating_volition,"{""Q0"":0}",[0],W4 wanted to seduce W2,W2 wanted to seduce W4
4764.299999999814,NA,NA,NA,NA,survey-likert-extra-labels,99,439522,0.0-37.0-3.0-0.0,anomymised,656580e591ab4d27a27b0c3d,6565f66ce069266b5b1eacdb,75459,1B,man,NA,NA,W2 is being seduced by W4,seduce1,rating_causation,"{""Q0"":0}",[0],W4 started seducing W2 first,W2 started seducing W4 first
null,Luke is being greeted by Kate,NA,NA,NA,html-keyboard-response,100,441527,0.0-38.0-0.0,anomymised,656580e591ab4d27a27b0c3d,6565f66ce069266b5b1eacdb,75459,1B,man,NA,null,M1 is being greeted by W3,greet4,sentence,NA,NA,NA,NA
3951.600000000093,NA,NA,NA,NA,survey-likert-extra-labels,101,445480,0.0-38.0-2.0,anomymised,656580e591ab4d27a27b0c3d,6565f66ce069266b5b1eacdb,75459,1B,man,NA,NA,M1 is being greeted by W3,greet4,rating_volition,"{""Q0"":6}",[0],M1 wanted to greet W3,W3 wanted to greet M1
3620.100000000093,NA,NA,NA,NA,survey-likert-extra-labels,102,449102,0.0-38.0-3.0-0.0,anomymised,656580e591ab4d27a27b0c3d,6565f66ce069266b5b1eacdb,75459,1B,man,NA,NA,M1 is being greeted by W3,greet4,rating_causation,"{""Q0"":6}",[0],M1 started greeting W3 first,W3 started greeting M1 first
null,Fred is being touched by Ruth,NA,NA,NA,html-keyboard-response,103,451106,0.0-39.0-0.0,anomymised,656580e591ab4d27a27b0c3d,6565f66ce069266b5b1eacdb,75459,1B,man,NA,null,M3 is being touched by W1,touch4,sentence,NA,NA,NA,NA
3926.2000000001863,NA,NA,NA,NA,survey-likert-extra-labels,104,455034,0.0-39.0-1.0-0.0,anomymised,656580e591ab4d27a27b0c3d,6565f66ce069266b5b1eacdb,75459,1B,man,NA,NA,M3 is being touched by W1,touch4,rating_causation,"{""Q0"":0}",[0],W1 asked to touch M3,M3 asked to touch W1
5159.899999999907,NA,NA,NA,NA,survey-likert-extra-labels,105,460195,0.0-39.0-2.0,anomymised,656580e591ab4d27a27b0c3d,6565f66ce069266b5b1eacdb,75459,1B,man,NA,NA,M3 is being touched by W1,touch4,rating_volition,"{""Q0"":0}",[0],W1 wanted to touch M3,M3 wanted to touch W1
null,Jane is being touched by Beth,NA,NA,NA,html-keyboard-response,106,462200,0.0-40.0-0.0,anomymised,656580e591ab4d27a27b0c3d,6565f66ce069266b5b1eacdb,75459,1B,man,NA,null,W2 is being touched by W4,touch1,sentence,NA,NA,NA,NA
9409.5,NA,NA,NA,NA,survey-likert-extra-labels,107,471611,0.0-40.0-2.0,anomymised,656580e591ab4d27a27b0c3d,6565f66ce069266b5b1eacdb,75459,1B,man,NA,NA,W2 is being touched by W4,touch1,rating_volition,"{""Q0"":0}",[0],W4 wanted to touch W2,W2 wanted to touch W4
3529.7999999998137,NA,NA,NA,NA,survey-likert-extra-labels,108,475143,0.0-40.0-3.0-0.0,anomymised,656580e591ab4d27a27b0c3d,6565f66ce069266b5b1eacdb,75459,1B,man,NA,NA,W2 is being touched by W4,touch1,rating_causation,"{""Q0"":0}",[0],W4 asked to touch W2,W2 asked to touch W4
null,Dave is being looked at by Jane,NA,NA,NA,html-keyboard-response,109,477155,0.0-41.0-0.0,anomymised,656580e591ab4d27a27b0c3d,6565f66ce069266b5b1eacdb,75459,1B,man,NA,null,M4 is being looked at by W2,look3,sentence,NA,NA,NA,NA
9468.600000000093,NA,NA,NA,NA,survey-likert-extra-labels,110,486625,0.0-41.0-1.0-0.0,anomymised,656580e591ab4d27a27b0c3d,6565f66ce069266b5b1eacdb,75459,1B,man,NA,NA,M4 is being looked at by W2,look3,rating_causation,"{""Q0"":6}",[0],M4 looked at W2 first,W2 looked at M4 first
5690.699999999721,NA,NA,NA,NA,survey-likert-extra-labels,111,492318,0.0-41.0-2.0,anomymised,656580e591ab4d27a27b0c3d,6565f66ce069266b5b1eacdb,75459,1B,man,NA,NA,M4 is being looked at by W2,look3,rating_volition,"{""Q0"":6}",[0],M4 wanted to look at W2,W2 wanted to look at M4
null,Beth is being greeted by Jane,NA,NA,NA,html-keyboard-response,112,494325,0.0-42.0-0.0,anomymised,656580e591ab4d27a27b0c3d,6565f66ce069266b5b1eacdb,75459,1B,man,NA,null,W4 is being greeted by W2,greet1,sentence,NA,NA,NA,NA
3266.2000000001863,NA,NA,NA,NA,survey-likert-extra-labels,113,497593,0.0-42.0-2.0,anomymised,656580e591ab4d27a27b0c3d,6565f66ce069266b5b1eacdb,75459,1B,man,NA,NA,W4 is being greeted by W2,greet1,rating_volition,"{""Q0"":6}",[0],W4 wanted to greet W2,W2 wanted to greet W4
2528.100000000093,NA,NA,NA,NA,survey-likert-extra-labels,114,500123,0.0-42.0-3.0-0.0,anomymised,656580e591ab4d27a27b0c3d,6565f66ce069266b5b1eacdb,75459,1B,man,NA,NA,W4 is being greeted by W2,greet1,rating_causation,"{""Q0"":6}",[0],W4 started greeting W2 first,W2 started greeting W4 first
null,Jane is being challenged by Beth,NA,NA,NA,html-keyboard-response,115,502136,0.0-43.0-0.0,anomymised,656580e591ab4d27a27b0c3d,6565f66ce069266b5b1eacdb,75459,1B,man,NA,null,W2 is being challenged by W4,challenge1,sentence,NA,NA,NA,NA
3128.8000000002794,NA,NA,NA,NA,survey-likert-extra-labels,116,505267,0.0-43.0-1.0-0.0,anomymised,656580e591ab4d27a27b0c3d,6565f66ce069266b5b1eacdb,75459,1B,man,NA,NA,W2 is being challenged by W4,challenge1,rating_causation,"{""Q0"":0}",[0],W4 started challenging W2 first,W2 started challenging W4 first
3219.600000000093,NA,NA,NA,NA,survey-likert-extra-labels,117,508489,0.0-43.0-2.0,anomymised,656580e591ab4d27a27b0c3d,6565f66ce069266b5b1eacdb,75459,1B,man,NA,NA,W2 is being challenged by W4,challenge1,rating_volition,"{""Q0"":0}",[0],W4 wanted to challenge W2,W2 wanted to challenge W4
null,Fred is being challenged by Ruth,NA,NA,NA,html-keyboard-response,118,510493,0.0-44.0-0.0,anomymised,656580e591ab4d27a27b0c3d,6565f66ce069266b5b1eacdb,75459,1B,man,NA,null,M3 is being challenged by W1,challenge3,sentence,NA,NA,NA,NA
3916.399999999907,NA,NA,NA,NA,survey-likert-extra-labels,119,514411,0.0-44.0-2.0,anomymised,656580e591ab4d27a27b0c3d,6565f66ce069266b5b1eacdb,75459,1B,man,NA,NA,M3 is being challenged by W1,challenge3,rating_volition,"{""Q0"":0}",[0],W1 wanted to challenge M3,M3 wanted to challenge W1
3489.899999999907,NA,NA,NA,NA,survey-likert-extra-labels,120,517904,0.0-44.0-3.0-0.0,anomymised,656580e591ab4d27a27b0c3d,6565f66ce069266b5b1eacdb,75459,1B,man,NA,NA,M3 is being challenged by W1,challenge3,rating_causation,"{""Q0"":0}",[0],W1 started challenging M3 first,M3 started challenging W1 first
null,Jane is carrying Beth,NA,NA,NA,html-keyboard-response,121,519918,0.0-45.0-0.0,anomymised,656580e591ab4d27a27b0c3d,6565f66ce069266b5b1eacdb,75459,1B,man,NA,null,W2 is carrying W4,carry,sentence,NA,NA,NA,NA
4332.100000000093,NA,NA,NA,NA,survey-likert-extra-labels,122,524252,0.0-45.0-1.0-0.0,anomymised,656580e591ab4d27a27b0c3d,6565f66ce069266b5b1eacdb,75459,1B,man,NA,NA,W2 is carrying W4,carry,rating_causation,"{""Q0"":0}",[0],W2 is being moved by W4,W4 is being moved by W2
5463.800000000279,NA,NA,NA,NA,survey-likert-extra-labels,123,529718,0.0-45.0-2.0,anomymised,656580e591ab4d27a27b0c3d,6565f66ce069266b5b1eacdb,75459,1B,man,NA,NA,W2 is carrying W4,carry,rating_volition,"{""Q0"":0}",[0],W2 is transporting W4,W4 is transporting W2
null,Ruth is being copied by Fred,NA,NA,NA,html-keyboard-response,124,531729,0.0-46.0-0.0,anomymised,656580e591ab4d27a27b0c3d,6565f66ce069266b5b1eacdb,75459,1B,man,NA,null,W1 is being copied by M3,copy4,sentence,NA,NA,NA,NA
4617.100000000093,NA,NA,NA,NA,survey-likert-extra-labels,125,536348,0.0-46.0-1.0-0.0,anomymised,656580e591ab4d27a27b0c3d,6565f66ce069266b5b1eacdb,75459,1B,man,NA,NA,W1 is being copied by M3,copy4,rating_causation,"{""Q0"":6}",[0],W1 started copying M3 first,M3 started copying W1 first
2751.2000000001863,NA,NA,NA,NA,survey-likert-extra-labels,126,539101,0.0-46.0-2.0,anomymised,656580e591ab4d27a27b0c3d,6565f66ce069266b5b1eacdb,75459,1B,man,NA,NA,W1 is being copied by M3,copy4,rating_volition,"{""Q0"":6}",[0],W1 wanted to copy M3,M3 wanted to copy W1
null,Luke is being opposed by Fred,NA,NA,NA,html-keyboard-response,127,541119,0.0-47.0-0.0,anomymised,656580e591ab4d27a27b0c3d,6565f66ce069266b5b1eacdb,75459,1B,man,NA,null,M1 is being opposed by M3,oppose2,sentence,NA,NA,NA,NA
4083.7999999998137,NA,NA,NA,NA,survey-likert-extra-labels,128,545204,0.0-47.0-2.0,anomymised,656580e591ab4d27a27b0c3d,6565f66ce069266b5b1eacdb,75459,1B,man,NA,NA,M1 is being opposed by M3,oppose2,rating_volition,"{""Q0"":0}",[0],M3 wanted to oppose M1,M1 wanted to oppose M3
3901.5,NA,NA,NA,NA,survey-likert-extra-labels,129,549108,0.0-47.0-3.0-0.0,anomymised,656580e591ab4d27a27b0c3d,6565f66ce069266b5b1eacdb,75459,1B,man,NA,NA,M1 is being opposed by M3,oppose2,rating_causation,"{""Q0"":0}",[0],M3 started opposing M1,M1 started opposing M3
null,Jane is being hugged by Dave,NA,NA,NA,html-keyboard-response,130,551122,0.0-48.0-0.0,anomymised,656580e591ab4d27a27b0c3d,6565f66ce069266b5b1eacdb,75459,1B,man,NA,null,W2 is being hugged by M4,hug3,sentence,NA,NA,NA,NA
3306.399999999907,NA,NA,NA,NA,survey-likert-extra-labels,131,554430,0.0-48.0-2.0,anomymised,656580e591ab4d27a27b0c3d,6565f66ce069266b5b1eacdb,75459,1B,man,NA,NA,W2 is being hugged by M4,hug3,rating_volition,"{""Q0"":0}",[0],M4 wanted to hug W2,W2 wanted to hug M4
2082.3000000002794,NA,NA,NA,NA,survey-likert-extra-labels,132,556513,0.0-48.0-3.0-0.0,anomymised,656580e591ab4d27a27b0c3d,6565f66ce069266b5b1eacdb,75459,1B,man,NA,NA,W2 is being hugged by M4,hug3,rating_causation,"{""Q0"":0}",[0],M4 asked to hug W2,W2 asked to hug M4
null,Fred is being seduced by Ruth,NA,NA,NA,html-keyboard-response,133,558521,0.0-49.0-0.0,anomymised,656580e591ab4d27a27b0c3d,6565f66ce069266b5b1eacdb,75459,1B,man,NA,null,M3 is being seduced by W1,seduce4,sentence,NA,NA,NA,NA
4697.200000000186,NA,NA,NA,NA,survey-likert-extra-labels,134,563220,0.0-49.0-1.0-0.0,anomymised,656580e591ab4d27a27b0c3d,6565f66ce069266b5b1eacdb,75459,1B,man,NA,NA,M3 is being seduced by W1,seduce4,rating_causation,"{""Q0"":0}",[0],W1 started seducing M3 first,M3 started seducing W1 first
2933.7999999998137,NA,NA,NA,NA,survey-likert-extra-labels,135,566156,0.0-49.0-2.0,anomymised,656580e591ab4d27a27b0c3d,6565f66ce069266b5b1eacdb,75459,1B,man,NA,NA,M3 is being seduced by W1,seduce4,rating_volition,"{""Q0"":0}",[0],W1 wanted to seducing M3,M3 wanted to seducing W1
null,Kate is being looked at by Ruth,NA,NA,NA,html-keyboard-response,136,568160,0.0-50.0-0.0,anomymised,656580e591ab4d27a27b0c3d,6565f66ce069266b5b1eacdb,75459,1B,man,NA,null,W3 is being looked at by W1,look1,sentence,NA,NA,NA,NA
3661.399999999907,NA,NA,NA,NA,survey-likert-extra-labels,137,571824,0.0-50.0-2.0,anomymised,656580e591ab4d27a27b0c3d,6565f66ce069266b5b1eacdb,75459,1B,man,NA,NA,W3 is being looked at by W1,look1,rating_volition,"{""Q0"":6}",[0],W3 wanted to look at W1,W1 wanted to look at W3
2796.100000000093,NA,NA,NA,NA,survey-likert-extra-labels,138,574622,0.0-50.0-3.0-0.0,anomymised,656580e591ab4d27a27b0c3d,6565f66ce069266b5b1eacdb,75459,1B,man,NA,NA,W3 is being looked at by W1,look1,rating_causation,"{""Q0"":6}",[0],W3 looked at W1 first,W1 looked at W3 first
null,Dave is being copied by Mike,NA,NA,NA,html-keyboard-response,139,576627,0.0-51.0-0.0,anomymised,656580e591ab4d27a27b0c3d,6565f66ce069266b5b1eacdb,75459,1B,man,NA,null,M4 is being copied by M2,copy2,sentence,NA,NA,NA,NA
4662.899999999907,NA,NA,NA,NA,survey-likert-extra-labels,140,581292,0.0-51.0-2.0,anomymised,656580e591ab4d27a27b0c3d,6565f66ce069266b5b1eacdb,75459,1B,man,NA,NA,M4 is being copied by M2,copy2,rating_volition,"{""Q0"":6}",[0],M4 wanted to copy M2,M2 wanted to copy M4
3296,NA,NA,NA,NA,survey-likert-extra-labels,141,584589,0.0-51.0-3.0-0.0,anomymised,656580e591ab4d27a27b0c3d,6565f66ce069266b5b1eacdb,75459,1B,man,NA,NA,M4 is being copied by M2,copy2,rating_causation,"{""Q0"":6}",[0],M4 started copying M2 first,M2 started copying M4 first
null,Mike is being challenged by Dave,NA,NA,NA,html-keyboard-response,142,586597,0.0-52.0-0.0,anomymised,656580e591ab4d27a27b0c3d,6565f66ce069266b5b1eacdb,75459,1B,man,NA,null,M2 is being challenged by M4,challenge2,sentence,NA,NA,NA,NA
3088.1999999997206,NA,NA,NA,NA,survey-likert-extra-labels,143,589687,0.0-52.0-2.0,anomymised,656580e591ab4d27a27b0c3d,6565f66ce069266b5b1eacdb,75459,1B,man,NA,NA,M2 is being challenged by M4,challenge2,rating_volition,"{""Q0"":0}",[0],M4 wanted to challenge M2,M2 wanted to challenge M4
2438.399999999907,NA,NA,NA,NA,survey-likert-extra-labels,144,592128,0.0-52.0-3.0-0.0,anomymised,656580e591ab4d27a27b0c3d,6565f66ce069266b5b1eacdb,75459,1B,man,NA,NA,M2 is being challenged by M4,challenge2,rating_causation,"{""Q0"":0}",[0],M4 started challenging M2 first,M2 started challenging M4 first
null,Jane is being opposed by Dave,NA,NA,NA,html-keyboard-response,145,594131,0.0-53.0-0.0,anomymised,656580e591ab4d27a27b0c3d,6565f66ce069266b5b1eacdb,75459,1B,man,NA,null,W2 is being opposed by M4,oppose3,sentence,NA,NA,NA,NA
4735.600000000093,NA,NA,NA,NA,survey-likert-extra-labels,146,598868,0.0-53.0-2.0,anomymised,656580e591ab4d27a27b0c3d,6565f66ce069266b5b1eacdb,75459,1B,man,NA,NA,W2 is being opposed by M4,oppose3,rating_volition,"{""Q0"":0}",[0],M4 wanted to oppose W2,W2 wanted to oppose M4
2057.0999999996275,NA,NA,NA,NA,survey-likert-extra-labels,147,600927,0.0-53.0-3.0-0.0,anomymised,656580e591ab4d27a27b0c3d,6565f66ce069266b5b1eacdb,75459,1B,man,NA,NA,W2 is being opposed by M4,oppose3,rating_causation,"{""Q0"":0}",[0],M4 started opposing W2,W2 started opposing M4
null,Beth is being kissed by Mike,NA,NA,NA,html-keyboard-response,148,602938,0.0-54.0-0.0,anomymised,656580e591ab4d27a27b0c3d,6565f66ce069266b5b1eacdb,75459,1B,man,NA,null,W4 is being kissed by M2,kiss3,sentence,NA,NA,NA,NA
2924.0999999996275,NA,NA,NA,NA,survey-likert-extra-labels,149,605864,0.0-54.0-1.0-0.0,anomymised,656580e591ab4d27a27b0c3d,6565f66ce069266b5b1eacdb,75459,1B,man,NA,NA,W4 is being kissed by M2,kiss3,rating_causation,"{""Q0"":6}",[0],W4 asked to kiss M2,M2 asked to kiss W4
3801.7999999998137,NA,NA,NA,NA,survey-likert-extra-labels,150,609667,0.0-54.0-2.0,anomymised,656580e591ab4d27a27b0c3d,6565f66ce069266b5b1eacdb,75459,1B,man,NA,NA,W4 is being kissed by M2,kiss3,rating_volition,"{""Q0"":6}",[0],W4 wanted to kiss M2,M2 wanted to kiss W4
3218.100000000093,<p>Thank you for completing that task.</p><p>The final part of this session is a short questionnaire.</p><p>Press Continue.</p>,0,Continue,Continue,html-button-response,151,612887,0.0-55.0,anomymised,656580e591ab4d27a27b0c3d,6565f66ce069266b5b1eacdb,75459,1B,man,NA,NA,NA,NA,NA,NA,NA,NA,NA
34018.799999999814,NA,NA,NA,NA,survey-text,152,647926,0.0-56.0,anomymised,656580e591ab4d27a27b0c3d,6565f66ce069266b5b1eacdb,75459,1B,man,NA,NA,NA,NA,demographics,"{""Q0"":""52"",""Q1"":""English"",""Q2"":""English"",""Q3"":""England"",""Q4"":""English"",""Q5"":""White"",""Q6"":""Male""}",NA,NA,NA
3109.6999999997206,<p>This is the last question - thank you for taking part! Have you lived in the UK for the last 5 years or more?</p>,0,"Yes,No",Yes,html-button-response,153,651037,0.0-57.0,anomymised,656580e591ab4d27a27b0c3d,6565f66ce069266b5b1eacdb,75459,1B,man,NA,NA,NA,NA,fiveyears,NA,NA,NA,NA
