rt,stimulus,button_pressed,choices,ChosenStimulus,trial_type,trial_index,time_elapsed,internal_node_id,subject_id,study_id,session_id,subject,list,ppt_gender,url,key_press,sentence_type,verb,test_part,responses,question_order,left_part,right_part
1362.5,Welcome to the experiment. Press Continue to begin.,0,Continue,Continue,html-button-response,0,1365,0.0-0.0,anomymised,65658173739efdc811fa7bc3,65676741f01ad871960f70ef,75873,2C,man,NA,NA,NA,NA,NA,NA,NA,NA,NA
4966.5,NA,NA,NA,NA,external-html,1,7485,0.0-1.0,anomymised,65658173739efdc811fa7bc3,65676741f01ad871960f70ef,75873,2C,man,consent.html,NA,NA,NA,NA,NA,NA,NA,NA
2878.800000190735,"<p>Welcome.</p><p>In this experiment we will ask you to imagine some situations.</p><p>Each trial starts with a description of an event.</p><p>Then you will see alternative descriptions of that event, and you will rate on a scale how best they match the original description.</p><p>You will give your answer by clicking a button on a rating scale.</p><p>To do this task, you will have to use your imagination to visualise these events.</p><br><p>Ready?</p>",0,Continue,Continue,html-button-response,2,10364,0.0-2.0,anomymised,65658173739efdc811fa7bc3,65676741f01ad871960f70ef,75873,2C,man,NA,NA,NA,NA,NA,NA,NA,NA,NA
1379.6999998092651,"<p>Before the experiment starts, you will watch an example trial. Press 'Continue'.</p>",0,Continue,Continue,html-button-response,3,12757,0.0-3.0,anomymised,65658173739efdc811fa7bc3,65676741f01ad871960f70ef,75873,2C,man,NA,NA,NA,NA,NA,NA,NA,NA,NA
null,The police officer is arresting the robber,NA,NA,NA,html-keyboard-response,4,15776,0.0-4.0,anomymised,65658173739efdc811fa7bc3,65676741f01ad871960f70ef,75873,2C,man,NA,null,NA,NA,NA,NA,NA,NA,NA
10243.10000038147,<img src='img/Example-trial.jpg' style='height:550px;''></img>,0,Continue,Continue,html-button-response,5,26020,0.0-5.0,anomymised,65658173739efdc811fa7bc3,65676741f01ad871960f70ef,75873,2C,man,NA,NA,NA,NA,NA,NA,NA,NA,NA
1494.3999996185303,<p>Ready to start the experiment?</p><br><p><strong>Remember to give an answer by clicking a button on the rating scale.</strong></p><p>Press 'Continue' to begin.</p>,0,Continue,Continue,html-button-response,6,28524,0.0-6.0,anomymised,65658173739efdc811fa7bc3,65676741f01ad871960f70ef,75873,2C,man,NA,NA,NA,NA,NA,NA,NA,NA,NA
null,Jane is being copied by Fred,NA,NA,NA,html-keyboard-response,7,31549,0.0-7.0-0.0,anomymised,65658173739efdc811fa7bc3,65676741f01ad871960f70ef,75873,2C,man,NA,null,W3 is being copied by M1,copy3,sentence,NA,NA,NA,NA
5672.099999427795,NA,NA,NA,NA,survey-likert-extra-labels,8,37222,0.0-7.0-2.0,anomymised,65658173739efdc811fa7bc3,65676741f01ad871960f70ef,75873,2C,man,NA,NA,W3 is being copied by M1,copy3,rating_volition,"{""Q0"":5}",[0],W3 wanted to copy M1,M1 wanted to copy W3
7885.800000190735,NA,NA,NA,NA,survey-likert-extra-labels,9,45109,0.0-7.0-3.0-0.0,anomymised,65658173739efdc811fa7bc3,65676741f01ad871960f70ef,75873,2C,man,NA,NA,W3 is being copied by M1,copy3,rating_causation,"{""Q0"":4}",[0],W3 started copying M1 first,M1 started copying W3 first
null,Luke is being copied by Beth,NA,NA,NA,html-keyboard-response,10,47123,0.0-8.0-0.0,anomymised,65658173739efdc811fa7bc3,65676741f01ad871960f70ef,75873,2C,man,NA,null,M3 is being copied by W1,copy4,sentence,NA,NA,NA,NA
17448.300000190735,NA,NA,NA,NA,survey-likert-extra-labels,11,64573,0.0-8.0-2.0,anomymised,65658173739efdc811fa7bc3,65676741f01ad871960f70ef,75873,2C,man,NA,NA,M3 is being copied by W1,copy4,rating_volition,"{""Q0"":5}",[0],M3 wanted to copy W1,W1 wanted to copy M3
6230,NA,NA,NA,NA,survey-likert-extra-labels,12,70805,0.0-8.0-3.0-0.0,anomymised,65658173739efdc811fa7bc3,65676741f01ad871960f70ef,75873,2C,man,NA,NA,M3 is being copied by W1,copy4,rating_causation,"{""Q0"":5}",[0],M3 started copying W1 first,W1 started copying M3 first
null,Mike is being touched by Dave,NA,NA,NA,html-keyboard-response,13,72811,0.0-9.0-0.0,anomymised,65658173739efdc811fa7bc3,65676741f01ad871960f70ef,75873,2C,man,NA,null,M4 is being touched by M2,touch2,sentence,NA,NA,NA,NA
17065.29999923706,NA,NA,NA,NA,survey-likert-extra-labels,14,89878,0.0-9.0-1.0-0.0,anomymised,65658173739efdc811fa7bc3,65676741f01ad871960f70ef,75873,2C,man,NA,NA,M4 is being touched by M2,touch2,rating_causation,"{""Q0"":2}",[0],M2 asked to touch M4,M4 asked to touch M2
5885,NA,NA,NA,NA,survey-likert-extra-labels,15,95764,0.0-9.0-2.0,anomymised,65658173739efdc811fa7bc3,65676741f01ad871960f70ef,75873,2C,man,NA,NA,M4 is being touched by M2,touch2,rating_volition,"{""Q0"":1}",[0],M2 wanted to touch M4,M4 wanted to touch M2
null,Fred is being touched by Jane,NA,NA,NA,html-keyboard-response,16,97775,0.0-10.0-0.0,anomymised,65658173739efdc811fa7bc3,65676741f01ad871960f70ef,75873,2C,man,NA,null,M1 is being touched by W3,touch3,sentence,NA,NA,NA,NA
4916.5,NA,NA,NA,NA,survey-likert-extra-labels,17,102693,0.0-10.0-1.0-0.0,anomymised,65658173739efdc811fa7bc3,65676741f01ad871960f70ef,75873,2C,man,NA,NA,M1 is being touched by W3,touch3,rating_causation,"{""Q0"":5}",[0],W3 asked to touch M1,M1 asked to touch W3
4069.800000190735,NA,NA,NA,NA,survey-likert-extra-labels,18,106765,0.0-10.0-2.0,anomymised,65658173739efdc811fa7bc3,65676741f01ad871960f70ef,75873,2C,man,NA,NA,M1 is being touched by W3,touch3,rating_volition,"{""Q0"":6}",[0],W3 wanted to touch M1,M1 wanted to touch W3
null,Dave is posing for Mike,NA,NA,NA,html-keyboard-response,19,108772,0.0-11.0-0.0,anomymised,65658173739efdc811fa7bc3,65676741f01ad871960f70ef,75873,2C,man,NA,null,M2 is posing for M4,pose,sentence,NA,NA,NA,NA
8239,NA,NA,NA,NA,survey-likert-extra-labels,20,117013,0.0-11.0-2.0,anomymised,65658173739efdc811fa7bc3,65676741f01ad871960f70ef,75873,2C,man,NA,NA,M2 is posing for M4,pose,rating_volition,"{""Q0"":0}",[0],M2 is modelling for M4,M4 is modelling for M2
4190.400000572205,NA,NA,NA,NA,survey-likert-extra-labels,21,121205,0.0-11.0-3.0-0.0,anomymised,65658173739efdc811fa7bc3,65676741f01ad871960f70ef,75873,2C,man,NA,NA,M2 is posing for M4,pose,rating_causation,"{""Q0"":6}",[0],M2 is photographing M4,M4 is photographing M2
null,Dave is being greeted by Mike,NA,NA,NA,html-keyboard-response,22,123207,0.0-12.0-0.0,anomymised,65658173739efdc811fa7bc3,65676741f01ad871960f70ef,75873,2C,man,NA,null,M2 is being greeted by M4,greet2,sentence,NA,NA,NA,NA
4948.199999809265,NA,NA,NA,NA,survey-likert-extra-labels,23,128157,0.0-12.0-2.0,anomymised,65658173739efdc811fa7bc3,65676741f01ad871960f70ef,75873,2C,man,NA,NA,M2 is being greeted by M4,greet2,rating_volition,"{""Q0"":3}",[0],M2 wanted to greet M4,M4 wanted to greet M2
3902,NA,NA,NA,NA,survey-likert-extra-labels,24,132061,0.0-12.0-3.0-0.0,anomymised,65658173739efdc811fa7bc3,65676741f01ad871960f70ef,75873,2C,man,NA,NA,M2 is being greeted by M4,greet2,rating_causation,"{""Q0"":4}",[0],M2 started greeting M4 first,M4 started greeting M2 first
null,Jane is being opposed by Beth,NA,NA,NA,html-keyboard-response,25,134070,0.0-13.0-0.0,anomymised,65658173739efdc811fa7bc3,65676741f01ad871960f70ef,75873,2C,man,NA,null,W3 is being opposed by W1,oppose1,sentence,NA,NA,NA,NA
2181.0999994277954,NA,NA,NA,NA,survey-likert-extra-labels,26,136253,0.0-13.0-1.0-0.0,anomymised,65658173739efdc811fa7bc3,65676741f01ad871960f70ef,75873,2C,man,NA,NA,W3 is being opposed by W1,oppose1,rating_causation,"{""Q0"":3}",[0],W1 started opposing W3,W3 started opposing W1
1614.6999998092651,NA,NA,NA,NA,survey-likert-extra-labels,27,137869,0.0-13.0-2.0,anomymised,65658173739efdc811fa7bc3,65676741f01ad871960f70ef,75873,2C,man,NA,NA,W3 is being opposed by W1,oppose1,rating_volition,"{""Q0"":3}",[0],W1 wanted to oppose W3,W3 wanted to oppose W1
null,Ruth is being seduced by Kate,NA,NA,NA,html-keyboard-response,28,139874,0.0-14.0-0.0,anomymised,65658173739efdc811fa7bc3,65676741f01ad871960f70ef,75873,2C,man,NA,null,W4 is being seduced by W2,seduce1,sentence,NA,NA,NA,NA
4625,NA,NA,NA,NA,survey-likert-extra-labels,29,144501,0.0-14.0-1.0-0.0,anomymised,65658173739efdc811fa7bc3,65676741f01ad871960f70ef,75873,2C,man,NA,NA,W4 is being seduced by W2,seduce1,rating_causation,"{""Q0"":1}",[0],W2 started seducing W4 first,W4 started seducing W2 first
3183.7000007629395,NA,NA,NA,NA,survey-likert-extra-labels,30,147686,0.0-14.0-2.0,anomymised,65658173739efdc811fa7bc3,65676741f01ad871960f70ef,75873,2C,man,NA,NA,W4 is being seduced by W2,seduce1,rating_volition,"{""Q0"":5}",[0],W2 wanted to seduce W4,W4 wanted to seduce W2
null,Mike is being shouted at by Kate,NA,NA,NA,html-keyboard-response,31,149696,0.0-15.0-0.0,anomymised,65658173739efdc811fa7bc3,65676741f01ad871960f70ef,75873,2C,man,NA,null,M4 is being shouted at by W2,shout4,sentence,NA,NA,NA,NA
4699.60000038147,NA,NA,NA,NA,survey-likert-extra-labels,32,154398,0.0-15.0-2.0,anomymised,65658173739efdc811fa7bc3,65676741f01ad871960f70ef,75873,2C,man,NA,NA,M4 is being shouted at by W2,shout4,rating_volition,"{""Q0"":0}",[0],W2 wanted to shout at M4,M4 wanted to shout at W2
3790.9000005722046,NA,NA,NA,NA,survey-likert-extra-labels,33,158190,0.0-15.0-3.0-0.0,anomymised,65658173739efdc811fa7bc3,65676741f01ad871960f70ef,75873,2C,man,NA,NA,M4 is being shouted at by W2,shout4,rating_causation,"{""Q0"":4}",[0],W2 shouted at M4 first,M4 shouted at W2 first
null,Mike is being seduced by Dave,NA,NA,NA,html-keyboard-response,34,160191,0.0-16.0-0.0,anomymised,65658173739efdc811fa7bc3,65676741f01ad871960f70ef,75873,2C,man,NA,null,M4 is being seduced by M2,seduce2,sentence,NA,NA,NA,NA
4413.199999809265,NA,NA,NA,NA,survey-likert-extra-labels,35,164606,0.0-16.0-2.0,anomymised,65658173739efdc811fa7bc3,65676741f01ad871960f70ef,75873,2C,man,NA,NA,M4 is being seduced by M2,seduce2,rating_volition,"{""Q0"":0}",[0],M2 wanted to seduce M4,M4 wanted to seduce M2
2477.5,NA,NA,NA,NA,survey-likert-extra-labels,36,167085,0.0-16.0-3.0-0.0,anomymised,65658173739efdc811fa7bc3,65676741f01ad871960f70ef,75873,2C,man,NA,NA,M4 is being seduced by M2,seduce2,rating_causation,"{""Q0"":0}",[0],M2 started seducing M4 first,M4 started seducing M2 first
null,Ruth is being hugged by Dave,NA,NA,NA,html-keyboard-response,37,169087,0.0-17.0-0.0,anomymised,65658173739efdc811fa7bc3,65676741f01ad871960f70ef,75873,2C,man,NA,null,W4 is being hugged by M2,hug4,sentence,NA,NA,NA,NA
3964.199999809265,NA,NA,NA,NA,survey-likert-extra-labels,38,173053,0.0-17.0-1.0-0.0,anomymised,65658173739efdc811fa7bc3,65676741f01ad871960f70ef,75873,2C,man,NA,NA,W4 is being hugged by M2,hug4,rating_causation,"{""Q0"":2}",[0],M2 asked to hug W4,W4 asked to hug M2
6615.10000038147,NA,NA,NA,NA,survey-likert-extra-labels,39,179670,0.0-17.0-2.0,anomymised,65658173739efdc811fa7bc3,65676741f01ad871960f70ef,75873,2C,man,NA,NA,W4 is being hugged by M2,hug4,rating_volition,"{""Q0"":1}",[0],M2 wanted to hug W4,W4 wanted to hug M2
null,Kate is being looked at by Mike,NA,NA,NA,html-keyboard-response,40,181675,0.0-18.0-0.0,anomymised,65658173739efdc811fa7bc3,65676741f01ad871960f70ef,75873,2C,man,NA,null,W2 is being looked at by M4,look3,sentence,NA,NA,NA,NA
4824.89999961853,NA,NA,NA,NA,survey-likert-extra-labels,41,186502,0.0-18.0-1.0-0.0,anomymised,65658173739efdc811fa7bc3,65676741f01ad871960f70ef,75873,2C,man,NA,NA,W2 is being looked at by M4,look3,rating_causation,"{""Q0"":5}",[0],W2 looked at M4 first,M4 looked at W2 first
4397.89999961853,NA,NA,NA,NA,survey-likert-extra-labels,42,190901,0.0-18.0-2.0,anomymised,65658173739efdc811fa7bc3,65676741f01ad871960f70ef,75873,2C,man,NA,NA,W2 is being looked at by M4,look3,rating_volition,"{""Q0"":6}",[0],W2 wanted to look at M4,M4 wanted to look at W2
null,Ruth is being shouted at by Dave,NA,NA,NA,html-keyboard-response,43,192915,0.0-19.0-0.0,anomymised,65658173739efdc811fa7bc3,65676741f01ad871960f70ef,75873,2C,man,NA,null,W4 is being shouted at by M2,shout3,sentence,NA,NA,NA,NA
3655.8999996185303,NA,NA,NA,NA,survey-likert-extra-labels,44,196573,0.0-19.0-2.0,anomymised,65658173739efdc811fa7bc3,65676741f01ad871960f70ef,75873,2C,man,NA,NA,W4 is being shouted at by M2,shout3,rating_volition,"{""Q0"":0}",[0],M2 wanted to shout at W4,W4 wanted to shout at M2
3646.5,NA,NA,NA,NA,survey-likert-extra-labels,45,200221,0.0-19.0-3.0-0.0,anomymised,65658173739efdc811fa7bc3,65676741f01ad871960f70ef,75873,2C,man,NA,NA,W4 is being shouted at by M2,shout3,rating_causation,"{""Q0"":1}",[0],M2 shouted at W4 first,W4 shouted at M2 first
null,Mike is being opposed by Kate,NA,NA,NA,html-keyboard-response,46,202236,0.0-20.0-0.0,anomymised,65658173739efdc811fa7bc3,65676741f01ad871960f70ef,75873,2C,man,NA,null,M4 is being opposed by W2,oppose3,sentence,NA,NA,NA,NA
1975.3000001907349,NA,NA,NA,NA,survey-likert-extra-labels,47,204213,0.0-20.0-1.0-0.0,anomymised,65658173739efdc811fa7bc3,65676741f01ad871960f70ef,75873,2C,man,NA,NA,M4 is being opposed by W2,oppose3,rating_causation,"{""Q0"":3}",[0],W2 started opposing M4,M4 started opposing W2
1174.4000005722046,NA,NA,NA,NA,survey-likert-extra-labels,48,205389,0.0-20.0-2.0,anomymised,65658173739efdc811fa7bc3,65676741f01ad871960f70ef,75873,2C,man,NA,NA,M4 is being opposed by W2,oppose3,rating_volition,"{""Q0"":3}",[0],W2 wanted to oppose M4,M4 wanted to oppose W2
null,Jane is being hugged by Beth,NA,NA,NA,html-keyboard-response,49,207391,0.0-21.0-0.0,anomymised,65658173739efdc811fa7bc3,65676741f01ad871960f70ef,75873,2C,man,NA,null,W3 is being hugged by W1,hug1,sentence,NA,NA,NA,NA
5012.900000572205,NA,NA,NA,NA,survey-likert-extra-labels,50,212405,0.0-21.0-1.0-0.0,anomymised,65658173739efdc811fa7bc3,65676741f01ad871960f70ef,75873,2C,man,NA,NA,W3 is being hugged by W1,hug1,rating_causation,"{""Q0"":3}",[0],W1 asked to hug W3,W3 asked to hug W1
5718.800000190735,NA,NA,NA,NA,survey-likert-extra-labels,51,218126,0.0-21.0-2.0,anomymised,65658173739efdc811fa7bc3,65676741f01ad871960f70ef,75873,2C,man,NA,NA,W3 is being hugged by W1,hug1,rating_volition,"{""Q0"":2}",[0],W1 wanted to hug W3,W3 wanted to hug W1
null,Kate is carrying Ruth,NA,NA,NA,html-keyboard-response,52,220131,0.0-22.0-0.0,anomymised,65658173739efdc811fa7bc3,65676741f01ad871960f70ef,75873,2C,man,NA,null,W2 is carrying W4,carry,sentence,NA,NA,NA,NA
6488.699999809265,NA,NA,NA,NA,survey-likert-extra-labels,53,226621,0.0-22.0-2.0,anomymised,65658173739efdc811fa7bc3,65676741f01ad871960f70ef,75873,2C,man,NA,NA,W2 is carrying W4,carry,rating_volition,"{""Q0"":0}",[0],W2 is transporting W4,W4 is transporting W2
6014.900000572205,NA,NA,NA,NA,survey-likert-extra-labels,54,232638,0.0-22.0-3.0-0.0,anomymised,65658173739efdc811fa7bc3,65676741f01ad871960f70ef,75873,2C,man,NA,NA,W2 is carrying W4,carry,rating_causation,"{""Q0"":6}",[0],W2 is being moved by W4,W4 is being moved by W2
null,Dave is being kissed by Ruth,NA,NA,NA,html-keyboard-response,55,234650,0.0-23.0-0.0,anomymised,65658173739efdc811fa7bc3,65676741f01ad871960f70ef,75873,2C,man,NA,null,M2 is being kissed by W4,kiss3,sentence,NA,NA,NA,NA
4904.800000190735,NA,NA,NA,NA,survey-likert-extra-labels,56,239557,0.0-23.0-1.0-0.0,anomymised,65658173739efdc811fa7bc3,65676741f01ad871960f70ef,75873,2C,man,NA,NA,M2 is being kissed by W4,kiss3,rating_causation,"{""Q0"":3}",[0],M2 asked to kiss W4,W4 asked to kiss M2
4414.60000038147,NA,NA,NA,NA,survey-likert-extra-labels,57,243973,0.0-23.0-2.0,anomymised,65658173739efdc811fa7bc3,65676741f01ad871960f70ef,75873,2C,man,NA,NA,M2 is being kissed by W4,kiss3,rating_volition,"{""Q0"":3}",[0],M2 wanted to kiss W4,W4 wanted to kiss M2
null,Beth is being touched by Luke,NA,NA,NA,html-keyboard-response,58,245988,0.0-24.0-0.0,anomymised,65658173739efdc811fa7bc3,65676741f01ad871960f70ef,75873,2C,man,NA,null,W1 is being touched by M3,touch4,sentence,NA,NA,NA,NA
4206.89999961853,NA,NA,NA,NA,survey-likert-extra-labels,59,250196,0.0-24.0-1.0-0.0,anomymised,65658173739efdc811fa7bc3,65676741f01ad871960f70ef,75873,2C,man,NA,NA,W1 is being touched by M3,touch4,rating_causation,"{""Q0"":3}",[0],M3 asked to touch W1,W1 asked to touch M3
1166.3000001907349,NA,NA,NA,NA,survey-likert-extra-labels,60,251364,0.0-24.0-2.0,anomymised,65658173739efdc811fa7bc3,65676741f01ad871960f70ef,75873,2C,man,NA,NA,W1 is being touched by M3,touch4,rating_volition,"{""Q0"":3}",[0],M3 wanted to touch W1,W1 wanted to touch M3
null,Fred is being challenged by Jane,NA,NA,NA,html-keyboard-response,61,253373,0.0-25.0-0.0,anomymised,65658173739efdc811fa7bc3,65676741f01ad871960f70ef,75873,2C,man,NA,null,M1 is being challenged by W3,challenge4,sentence,NA,NA,NA,NA
2829.4000005722046,NA,NA,NA,NA,survey-likert-extra-labels,62,256204,0.0-25.0-1.0-0.0,anomymised,65658173739efdc811fa7bc3,65676741f01ad871960f70ef,75873,2C,man,NA,NA,M1 is being challenged by W3,challenge4,rating_causation,"{""Q0"":2}",[0],W3 started challenging M1 first,M1 started challenging W3 first
4319.900000572205,NA,NA,NA,NA,survey-likert-extra-labels,63,260526,0.0-25.0-2.0,anomymised,65658173739efdc811fa7bc3,65676741f01ad871960f70ef,75873,2C,man,NA,NA,M1 is being challenged by W3,challenge4,rating_volition,"{""Q0"":2}",[0],W3 wanted to challenge M1,M1 wanted to challenge W3
null,Beth is being looked at by Jane,NA,NA,NA,html-keyboard-response,64,262534,0.0-26.0-0.0,anomymised,65658173739efdc811fa7bc3,65676741f01ad871960f70ef,75873,2C,man,NA,null,W1 is being looked at by W3,look1,sentence,NA,NA,NA,NA
2196.2999992370605,NA,NA,NA,NA,survey-likert-extra-labels,65,264732,0.0-26.0-2.0,anomymised,65658173739efdc811fa7bc3,65676741f01ad871960f70ef,75873,2C,man,NA,NA,W1 is being looked at by W3,look1,rating_volition,"{""Q0"":3}",[0],W1 wanted to look at W3,W3 wanted to look at W1
951,NA,NA,NA,NA,survey-likert-extra-labels,66,265684,0.0-26.0-3.0-0.0,anomymised,65658173739efdc811fa7bc3,65676741f01ad871960f70ef,75873,2C,man,NA,NA,W1 is being looked at by W3,look1,rating_causation,"{""Q0"":3}",[0],W1 looked at W3 first,W3 looked at W1 first
null,Ruth is being opposed by Dave,NA,NA,NA,html-keyboard-response,67,267691,0.0-27.0-0.0,anomymised,65658173739efdc811fa7bc3,65676741f01ad871960f70ef,75873,2C,man,NA,null,W4 is being opposed by M2,oppose4,sentence,NA,NA,NA,NA
1288.4000005722046,NA,NA,NA,NA,survey-likert-extra-labels,68,268980,0.0-27.0-1.0-0.0,anomymised,65658173739efdc811fa7bc3,65676741f01ad871960f70ef,75873,2C,man,NA,NA,W4 is being opposed by M2,oppose4,rating_causation,"{""Q0"":3}",[0],M2 started opposing W4,W4 started opposing M2
1070.6999998092651,NA,NA,NA,NA,survey-likert-extra-labels,69,270053,0.0-27.0-2.0,anomymised,65658173739efdc811fa7bc3,65676741f01ad871960f70ef,75873,2C,man,NA,NA,W4 is being opposed by M2,oppose4,rating_volition,"{""Q0"":3}",[0],M2 wanted to oppose W4,W4 wanted to oppose M2
null,Dave is reminding Ruth,NA,NA,NA,html-keyboard-response,70,272057,0.0-28.0-0.0,anomymised,65658173739efdc811fa7bc3,65676741f01ad871960f70ef,75873,2C,man,NA,null,M2 is reminding W4,remind,sentence,NA,NA,NA,NA
4089.8999996185303,NA,NA,NA,NA,survey-likert-extra-labels,71,276148,0.0-28.0-1.0-0.0,anomymised,65658173739efdc811fa7bc3,65676741f01ad871960f70ef,75873,2C,man,NA,NA,M2 is reminding W4,remind,rating_causation,"{""Q0"":1}",[0],M2 is remembering,W4 is remembering
7463.5,NA,NA,NA,NA,survey-likert-extra-labels,72,283613,0.0-28.0-2.0,anomymised,65658173739efdc811fa7bc3,65676741f01ad871960f70ef,75873,2C,man,NA,NA,M2 is reminding W4,remind,rating_volition,"{""Q0"":0}",[0],M2 is telling W4 again,W4 is telling M2 again
null,Jane is being greeted by Fred,NA,NA,NA,html-keyboard-response,73,285619,0.0-29.0-0.0,anomymised,65658173739efdc811fa7bc3,65676741f01ad871960f70ef,75873,2C,man,NA,null,W3 is being greeted by M1,greet4,sentence,NA,NA,NA,NA
6103.10000038147,NA,NA,NA,NA,survey-likert-extra-labels,74,291724,0.0-29.0-1.0-0.0,anomymised,65658173739efdc811fa7bc3,65676741f01ad871960f70ef,75873,2C,man,NA,NA,W3 is being greeted by M1,greet4,rating_causation,"{""Q0"":4}",[0],W3 started greeting M1 first,M1 started greeting W3 first
3583.5,NA,NA,NA,NA,survey-likert-extra-labels,75,295309,0.0-29.0-2.0,anomymised,65658173739efdc811fa7bc3,65676741f01ad871960f70ef,75873,2C,man,NA,NA,W3 is being greeted by M1,greet4,rating_volition,"{""Q0"":4}",[0],W3 wanted to greet M1,M1 wanted to greet W3
null,Beth is being seduced by Luke,NA,NA,NA,html-keyboard-response,76,297326,0.0-30.0-0.0,anomymised,65658173739efdc811fa7bc3,65676741f01ad871960f70ef,75873,2C,man,NA,null,W1 is being seduced by M3,seduce4,sentence,NA,NA,NA,NA
3581.300000190735,NA,NA,NA,NA,survey-likert-extra-labels,77,300909,0.0-30.0-1.0-0.0,anomymised,65658173739efdc811fa7bc3,65676741f01ad871960f70ef,75873,2C,man,NA,NA,W1 is being seduced by M3,seduce4,rating_causation,"{""Q0"":0}",[0],M3 started seducing W1 first,W1 started seducing M3 first
2838.0999994277954,NA,NA,NA,NA,survey-likert-extra-labels,78,303748,0.0-30.0-2.0,anomymised,65658173739efdc811fa7bc3,65676741f01ad871960f70ef,75873,2C,man,NA,NA,W1 is being seduced by M3,seduce4,rating_volition,"{""Q0"":0}",[0],M3 wanted to seducing W1,W1 wanted to seducing M3
null,Jane is being shouted at by Beth,NA,NA,NA,html-keyboard-response,79,305750,0.0-31.0-0.0,anomymised,65658173739efdc811fa7bc3,65676741f01ad871960f70ef,75873,2C,man,NA,null,W3 is being shouted at by W1,shout1,sentence,NA,NA,NA,NA
1317.1999998092651,NA,NA,NA,NA,survey-likert-extra-labels,80,307068,0.0-31.0-1.0-0.0,anomymised,65658173739efdc811fa7bc3,65676741f01ad871960f70ef,75873,2C,man,NA,NA,W3 is being shouted at by W1,shout1,rating_causation,"{""Q0"":3}",[0],W1 shouted at W3 first,W3 shouted at W1 first
1070.5999994277954,NA,NA,NA,NA,survey-likert-extra-labels,81,308140,0.0-31.0-2.0,anomymised,65658173739efdc811fa7bc3,65676741f01ad871960f70ef,75873,2C,man,NA,NA,W3 is being shouted at by W1,shout1,rating_volition,"{""Q0"":3}",[0],W1 wanted to shout at W3,W3 wanted to shout at W1
null,Dave is being copied by Mike,NA,NA,NA,html-keyboard-response,82,310152,0.0-32.0-0.0,anomymised,65658173739efdc811fa7bc3,65676741f01ad871960f70ef,75873,2C,man,NA,null,M2 is being copied by M4,copy2,sentence,NA,NA,NA,NA
3867.5999994277954,NA,NA,NA,NA,survey-likert-extra-labels,83,314021,0.0-32.0-1.0-0.0,anomymised,65658173739efdc811fa7bc3,65676741f01ad871960f70ef,75873,2C,man,NA,NA,M2 is being copied by M4,copy2,rating_causation,"{""Q0"":4}",[0],M2 started copying M4 first,M4 started copying M2 first
5125.699999809265,NA,NA,NA,NA,survey-likert-extra-labels,84,319148,0.0-32.0-2.0,anomymised,65658173739efdc811fa7bc3,65676741f01ad871960f70ef,75873,2C,man,NA,NA,M2 is being copied by M4,copy2,rating_volition,"{""Q0"":4}",[0],M2 wanted to copy M4,M4 wanted to copy M2
null,Beth is being kissed by Jane,NA,NA,NA,html-keyboard-response,85,321153,0.0-33.0-0.0,anomymised,65658173739efdc811fa7bc3,65676741f01ad871960f70ef,75873,2C,man,NA,null,W1 is being kissed by W3,kiss1,sentence,NA,NA,NA,NA
2009.1999998092651,NA,NA,NA,NA,survey-likert-extra-labels,86,323164,0.0-33.0-2.0,anomymised,65658173739efdc811fa7bc3,65676741f01ad871960f70ef,75873,2C,man,NA,NA,W1 is being kissed by W3,kiss1,rating_volition,"{""Q0"":3}",[0],W1 wanted to kiss W3,W3 wanted to kiss W1
1318.3999996185303,NA,NA,NA,NA,survey-likert-extra-labels,87,324484,0.0-33.0-3.0-0.0,anomymised,65658173739efdc811fa7bc3,65676741f01ad871960f70ef,75873,2C,man,NA,NA,W1 is being kissed by W3,kiss1,rating_causation,"{""Q0"":3}",[0],W1 asked to kiss W3,W3 asked to kiss W1
null,Beth is being challenged by Luke,NA,NA,NA,html-keyboard-response,88,326495,0.0-34.0-0.0,anomymised,65658173739efdc811fa7bc3,65676741f01ad871960f70ef,75873,2C,man,NA,null,W1 is being challenged by M3,challenge3,sentence,NA,NA,NA,NA
3260.199999809265,NA,NA,NA,NA,survey-likert-extra-labels,89,329756,0.0-34.0-1.0-0.0,anomymised,65658173739efdc811fa7bc3,65676741f01ad871960f70ef,75873,2C,man,NA,NA,W1 is being challenged by M3,challenge3,rating_causation,"{""Q0"":3}",[0],M3 started challenging W1 first,W1 started challenging M3 first
1103.3999996185303,NA,NA,NA,NA,survey-likert-extra-labels,90,330861,0.0-34.0-2.0,anomymised,65658173739efdc811fa7bc3,65676741f01ad871960f70ef,75873,2C,man,NA,NA,W1 is being challenged by M3,challenge3,rating_volition,"{""Q0"":3}",[0],M3 wanted to challenge W1,W1 wanted to challenge M3
null,Ruth is being touched by Kate,NA,NA,NA,html-keyboard-response,91,332873,0.0-35.0-0.0,anomymised,65658173739efdc811fa7bc3,65676741f01ad871960f70ef,75873,2C,man,NA,null,W4 is being touched by W2,touch1,sentence,NA,NA,NA,NA
6073.5,NA,NA,NA,NA,survey-likert-extra-labels,92,338948,0.0-35.0-1.0-0.0,anomymised,65658173739efdc811fa7bc3,65676741f01ad871960f70ef,75873,2C,man,NA,NA,W4 is being touched by W2,touch1,rating_causation,"{""Q0"":2}",[0],W2 asked to touch W4,W4 asked to touch W2
4502.199999809265,NA,NA,NA,NA,survey-likert-extra-labels,93,343452,0.0-35.0-2.0,anomymised,65658173739efdc811fa7bc3,65676741f01ad871960f70ef,75873,2C,man,NA,NA,W4 is being touched by W2,touch1,rating_volition,"{""Q0"":2}",[0],W2 wanted to touch W4,W4 wanted to touch W2
null,Luke is hiring Beth,NA,NA,NA,html-keyboard-response,94,345458,0.0-36.0-0.0,anomymised,65658173739efdc811fa7bc3,65676741f01ad871960f70ef,75873,2C,man,NA,null,M3 is hiring W1,hire,sentence,NA,NA,NA,NA
5720.60000038147,NA,NA,NA,NA,survey-likert-extra-labels,95,351180,0.0-36.0-1.0-0.0,anomymised,65658173739efdc811fa7bc3,65676741f01ad871960f70ef,75873,2C,man,NA,NA,M3 is hiring W1,hire,rating_causation,"{""Q0"":6}",[0],M3 will work for W1,W1 will work for M3
5406,NA,NA,NA,NA,survey-likert-extra-labels,96,356588,0.0-36.0-2.0,anomymised,65658173739efdc811fa7bc3,65676741f01ad871960f70ef,75873,2C,man,NA,NA,M3 is hiring W1,hire,rating_volition,"{""Q0"":0}",[0],M3 is employing W1,W1 is employing M3
null,Ruth is being challenged by Kate,NA,NA,NA,html-keyboard-response,97,358600,0.0-37.0-0.0,anomymised,65658173739efdc811fa7bc3,65676741f01ad871960f70ef,75873,2C,man,NA,null,W4 is being challenged by W2,challenge1,sentence,NA,NA,NA,NA
2954.300000190735,NA,NA,NA,NA,survey-likert-extra-labels,98,361556,0.0-37.0-1.0-0.0,anomymised,65658173739efdc811fa7bc3,65676741f01ad871960f70ef,75873,2C,man,NA,NA,W4 is being challenged by W2,challenge1,rating_causation,"{""Q0"":3}",[0],W2 started challenging W4 first,W4 started challenging W2 first
1214.0999994277954,NA,NA,NA,NA,survey-likert-extra-labels,99,362773,0.0-37.0-2.0,anomymised,65658173739efdc811fa7bc3,65676741f01ad871960f70ef,75873,2C,man,NA,NA,W4 is being challenged by W2,challenge1,rating_volition,"{""Q0"":3}",[0],W2 wanted to challenge W4,W4 wanted to challenge W2
null,Beth is chasing Jane,NA,NA,NA,html-keyboard-response,100,364778,0.0-38.0-0.0,anomymised,65658173739efdc811fa7bc3,65676741f01ad871960f70ef,75873,2C,man,NA,null,W1 is chasing W3,chase,sentence,NA,NA,NA,NA
4113.099999427795,NA,NA,NA,NA,survey-likert-extra-labels,101,368893,0.0-38.0-1.0-0.0,anomymised,65658173739efdc811fa7bc3,65676741f01ad871960f70ef,75873,2C,man,NA,NA,W1 is chasing W3,chase,rating_causation,"{""Q0"":6}",[0],W1 is running away from W3,W3 is running away from W1
5534.300000190735,NA,NA,NA,NA,survey-likert-extra-labels,102,374429,0.0-38.0-2.0,anomymised,65658173739efdc811fa7bc3,65676741f01ad871960f70ef,75873,2C,man,NA,NA,W1 is chasing W3,chase,rating_volition,"{""Q0"":0}",[0],W1 is behind W3,W3 is behind W1
null,Luke is being greeted by Beth,NA,NA,NA,html-keyboard-response,103,376437,0.0-39.0-0.0,anomymised,65658173739efdc811fa7bc3,65676741f01ad871960f70ef,75873,2C,man,NA,null,M3 is being greeted by W1,greet3,sentence,NA,NA,NA,NA
1086.7000007629395,NA,NA,NA,NA,survey-likert-extra-labels,104,377525,0.0-39.0-2.0,anomymised,65658173739efdc811fa7bc3,65676741f01ad871960f70ef,75873,2C,man,NA,NA,M3 is being greeted by W1,greet3,rating_volition,"{""Q0"":3}",[0],M3 wanted to greet W1,W1 wanted to greet M3
998.8000001907349,NA,NA,NA,NA,survey-likert-extra-labels,105,378525,0.0-39.0-3.0-0.0,anomymised,65658173739efdc811fa7bc3,65676741f01ad871960f70ef,75873,2C,man,NA,NA,M3 is being greeted by W1,greet3,rating_causation,"{""Q0"":3}",[0],M3 started greeting W1 first,W1 started greeting M3 first
null,Luke is being opposed by Fred,NA,NA,NA,html-keyboard-response,106,380534,0.0-40.0-0.0,anomymised,65658173739efdc811fa7bc3,65676741f01ad871960f70ef,75873,2C,man,NA,null,M3 is being opposed by M1,oppose2,sentence,NA,NA,NA,NA
1301.5,NA,NA,NA,NA,survey-likert-extra-labels,107,381837,0.0-40.0-1.0-0.0,anomymised,65658173739efdc811fa7bc3,65676741f01ad871960f70ef,75873,2C,man,NA,NA,M3 is being opposed by M1,oppose2,rating_causation,"{""Q0"":3}",[0],M1 started opposing M3,M3 started opposing M1
1150.3000001907349,NA,NA,NA,NA,survey-likert-extra-labels,108,382989,0.0-40.0-2.0,anomymised,65658173739efdc811fa7bc3,65676741f01ad871960f70ef,75873,2C,man,NA,NA,M3 is being opposed by M1,oppose2,rating_volition,"{""Q0"":3}",[0],M1 wanted to oppose M3,M3 wanted to oppose M1
null,Kate is being kissed by Mike,NA,NA,NA,html-keyboard-response,109,385004,0.0-41.0-0.0,anomymised,65658173739efdc811fa7bc3,65676741f01ad871960f70ef,75873,2C,man,NA,null,W2 is being kissed by M4,kiss4,sentence,NA,NA,NA,NA
2856.5,NA,NA,NA,NA,survey-likert-extra-labels,110,387862,0.0-41.0-2.0,anomymised,65658173739efdc811fa7bc3,65676741f01ad871960f70ef,75873,2C,man,NA,NA,W2 is being kissed by M4,kiss4,rating_volition,"{""Q0"":5}",[0],W2 wanted to kiss M4,M4 wanted to kiss W2
4149.300000190735,NA,NA,NA,NA,survey-likert-extra-labels,111,392012,0.0-41.0-3.0-0.0,anomymised,65658173739efdc811fa7bc3,65676741f01ad871960f70ef,75873,2C,man,NA,NA,W2 is being kissed by M4,kiss4,rating_causation,"{""Q0"":4}",[0],W2 asked to kiss M4,M4 asked to kiss W2
null,Mike is being hugged by Kate,NA,NA,NA,html-keyboard-response,112,394026,0.0-42.0-0.0,anomymised,65658173739efdc811fa7bc3,65676741f01ad871960f70ef,75873,2C,man,NA,null,M4 is being hugged by W2,hug3,sentence,NA,NA,NA,NA
1121.8999996185303,NA,NA,NA,NA,survey-likert-extra-labels,113,395150,0.0-42.0-1.0-0.0,anomymised,65658173739efdc811fa7bc3,65676741f01ad871960f70ef,75873,2C,man,NA,NA,M4 is being hugged by W2,hug3,rating_causation,"{""Q0"":3}",[0],W2 asked to hug M4,M4 asked to hug W2
925.6999998092651,NA,NA,NA,NA,survey-likert-extra-labels,114,396077,0.0-42.0-2.0,anomymised,65658173739efdc811fa7bc3,65676741f01ad871960f70ef,75873,2C,man,NA,NA,M4 is being hugged by W2,hug3,rating_volition,"{""Q0"":3}",[0],W2 wanted to hug M4,M4 wanted to hug W2
null,Luke is being hugged by Fred,NA,NA,NA,html-keyboard-response,115,398084,0.0-43.0-0.0,anomymised,65658173739efdc811fa7bc3,65676741f01ad871960f70ef,75873,2C,man,NA,null,M3 is being hugged by M1,hug2,sentence,NA,NA,NA,NA
1847.7000007629395,NA,NA,NA,NA,survey-likert-extra-labels,116,399934,0.0-43.0-1.0-0.0,anomymised,65658173739efdc811fa7bc3,65676741f01ad871960f70ef,75873,2C,man,NA,NA,M3 is being hugged by M1,hug2,rating_causation,"{""Q0"":3}",[0],M1 asked to hug M3,M3 asked to hug M1
926.1000003814697,NA,NA,NA,NA,survey-likert-extra-labels,117,400861,0.0-43.0-2.0,anomymised,65658173739efdc811fa7bc3,65676741f01ad871960f70ef,75873,2C,man,NA,NA,M3 is being hugged by M1,hug2,rating_volition,"{""Q0"":3}",[0],M1 wanted to hug M3,M3 wanted to hug M1
null,Jane is feeding Fred,NA,NA,NA,html-keyboard-response,118,402875,0.0-44.0-0.0,anomymised,65658173739efdc811fa7bc3,65676741f01ad871960f70ef,75873,2C,man,NA,null,W3 is feeding M1,feed,sentence,NA,NA,NA,NA
4783.900000572205,NA,NA,NA,NA,survey-likert-extra-labels,119,407661,0.0-44.0-1.0-0.0,anomymised,65658173739efdc811fa7bc3,65676741f01ad871960f70ef,75873,2C,man,NA,NA,W3 is feeding M1,feed,rating_causation,"{""Q0"":4}",[0],W3 is eating M1's food,M1 is eating W3's food
4174.099999427795,NA,NA,NA,NA,survey-likert-extra-labels,120,411837,0.0-44.0-2.0,anomymised,65658173739efdc811fa7bc3,65676741f01ad871960f70ef,75873,2C,man,NA,NA,W3 is feeding M1,feed,rating_volition,"{""Q0"":2}",[0],W3 cooked for M1,M1 cooked for W3
null,Fred is being looked at by Luke,NA,NA,NA,html-keyboard-response,121,413842,0.0-45.0-0.0,anomymised,65658173739efdc811fa7bc3,65676741f01ad871960f70ef,75873,2C,man,NA,null,M1 is being looked at by M3,look2,sentence,NA,NA,NA,NA
2993.3999996185303,NA,NA,NA,NA,survey-likert-extra-labels,122,416837,0.0-45.0-2.0,anomymised,65658173739efdc811fa7bc3,65676741f01ad871960f70ef,75873,2C,man,NA,NA,M1 is being looked at by M3,look2,rating_volition,"{""Q0"":3}",[0],M1 wanted to look at M3,M3 wanted to look at M1
1414.8000001907349,NA,NA,NA,NA,survey-likert-extra-labels,123,418254,0.0-45.0-3.0-0.0,anomymised,65658173739efdc811fa7bc3,65676741f01ad871960f70ef,75873,2C,man,NA,NA,M1 is being looked at by M3,look2,rating_causation,"{""Q0"":3}",[0],M1 looked at M3 first,M3 looked at M1 first
null,Fred is driving Luke,NA,NA,NA,html-keyboard-response,124,420262,0.0-46.0-0.0,anomymised,65658173739efdc811fa7bc3,65676741f01ad871960f70ef,75873,2C,man,NA,null,M1 is driving M3,drive,sentence,NA,NA,NA,NA
3973.3999996185303,NA,NA,NA,NA,survey-likert-extra-labels,125,424236,0.0-46.0-1.0-0.0,anomymised,65658173739efdc811fa7bc3,65676741f01ad871960f70ef,75873,2C,man,NA,NA,M1 is driving M3,drive,rating_causation,"{""Q0"":0}",[0],M1 is taking M3 somewhere,M3 is taking M1 somewhere
5670.099999427795,NA,NA,NA,NA,survey-likert-extra-labels,126,429908,0.0-46.0-2.0,anomymised,65658173739efdc811fa7bc3,65676741f01ad871960f70ef,75873,2C,man,NA,NA,M1 is driving M3,drive,rating_volition,"{""Q0"":6}",[0],M1 is M3's passenger,M3 is M1's passenger
null,Kate is being copied by Ruth,NA,NA,NA,html-keyboard-response,127,431910,0.0-47.0-0.0,anomymised,65658173739efdc811fa7bc3,65676741f01ad871960f70ef,75873,2C,man,NA,null,W2 is being copied by W4,copy1,sentence,NA,NA,NA,NA
3788.699999809265,NA,NA,NA,NA,survey-likert-extra-labels,128,435700,0.0-47.0-2.0,anomymised,65658173739efdc811fa7bc3,65676741f01ad871960f70ef,75873,2C,man,NA,NA,W2 is being copied by W4,copy1,rating_volition,"{""Q0"":4}",[0],W2 wanted to copy W4,W4 wanted to copy W2
4070.300000190735,NA,NA,NA,NA,survey-likert-extra-labels,129,439772,0.0-47.0-3.0-0.0,anomymised,65658173739efdc811fa7bc3,65676741f01ad871960f70ef,75873,2C,man,NA,NA,W2 is being copied by W4,copy1,rating_causation,"{""Q0"":4}",[0],W2 started copying W4 first,W4 started copying W2 first
null,Kate is teaching Mike,NA,NA,NA,html-keyboard-response,130,441783,0.0-48.0-0.0,anomymised,65658173739efdc811fa7bc3,65676741f01ad871960f70ef,75873,2C,man,NA,null,W2 is teaching M4,teach,sentence,NA,NA,NA,NA
4675.39999961853,NA,NA,NA,NA,survey-likert-extra-labels,131,446460,0.0-48.0-2.0,anomymised,65658173739efdc811fa7bc3,65676741f01ad871960f70ef,75873,2C,man,NA,NA,W2 is teaching M4,teach,rating_volition,"{""Q0"":0}",[0],W2 is educating M4,M4 is educating W2
3119.4000005722046,NA,NA,NA,NA,survey-likert-extra-labels,132,449581,0.0-48.0-3.0-0.0,anomymised,65658173739efdc811fa7bc3,65676741f01ad871960f70ef,75873,2C,man,NA,NA,W2 is teaching M4,teach,rating_causation,"{""Q0"":6}",[0],W2 is learning from M4,M4 is learning from W2
null,Luke is being shouted at by Fred,NA,NA,NA,html-keyboard-response,133,451597,0.0-49.0-0.0,anomymised,65658173739efdc811fa7bc3,65676741f01ad871960f70ef,75873,2C,man,NA,null,M3 is being shouted at by M1,shout2,sentence,NA,NA,NA,NA
1196.8000001907349,NA,NA,NA,NA,survey-likert-extra-labels,134,452795,0.0-49.0-2.0,anomymised,65658173739efdc811fa7bc3,65676741f01ad871960f70ef,75873,2C,man,NA,NA,M3 is being shouted at by M1,shout2,rating_volition,"{""Q0"":3}",[0],M1 wanted to shout at M3,M3 wanted to shout at M1
895.6999998092651,NA,NA,NA,NA,survey-likert-extra-labels,135,453692,0.0-49.0-3.0-0.0,anomymised,65658173739efdc811fa7bc3,65676741f01ad871960f70ef,75873,2C,man,NA,NA,M3 is being shouted at by M1,shout2,rating_causation,"{""Q0"":3}",[0],M1 shouted at M3 first,M3 shouted at M1 first
null,Mike is being challenged by Dave,NA,NA,NA,html-keyboard-response,136,456144,0.0-50.0-0.0,anomymised,65658173739efdc811fa7bc3,65676741f01ad871960f70ef,75873,2C,man,NA,null,M4 is being challenged by M2,challenge2,sentence,NA,NA,NA,NA
9458.099999427795,NA,NA,NA,NA,survey-likert-extra-labels,137,465604,0.0-50.0-1.0-0.0,anomymised,65658173739efdc811fa7bc3,65676741f01ad871960f70ef,75873,2C,man,NA,NA,M4 is being challenged by M2,challenge2,rating_causation,"{""Q0"":3}",[0],M2 started challenging M4 first,M4 started challenging M2 first
998.6000003814697,NA,NA,NA,NA,survey-likert-extra-labels,138,466604,0.0-50.0-2.0,anomymised,65658173739efdc811fa7bc3,65676741f01ad871960f70ef,75873,2C,man,NA,NA,M4 is being challenged by M2,challenge2,rating_volition,"{""Q0"":3}",[0],M2 wanted to challenge M4,M4 wanted to challenge M2
null,Fred is being kissed by Luke,NA,NA,NA,html-keyboard-response,139,468607,0.0-51.0-0.0,anomymised,65658173739efdc811fa7bc3,65676741f01ad871960f70ef,75873,2C,man,NA,null,M1 is being kissed by M3,kiss2,sentence,NA,NA,NA,NA
5435.400000572205,NA,NA,NA,NA,survey-likert-extra-labels,140,474044,0.0-51.0-1.0-0.0,anomymised,65658173739efdc811fa7bc3,65676741f01ad871960f70ef,75873,2C,man,NA,NA,M1 is being kissed by M3,kiss2,rating_causation,"{""Q0"":4}",[0],M1 asked to kiss M3,M3 asked to kiss M1
3527.0999994277954,NA,NA,NA,NA,survey-likert-extra-labels,141,477573,0.0-51.0-2.0,anomymised,65658173739efdc811fa7bc3,65676741f01ad871960f70ef,75873,2C,man,NA,NA,M1 is being kissed by M3,kiss2,rating_volition,"{""Q0"":4}",[0],M1 wanted to kiss M3,M3 wanted to kiss M1
null,Fred is being seduced by Jane,NA,NA,NA,html-keyboard-response,142,479587,0.0-52.0-0.0,anomymised,65658173739efdc811fa7bc3,65676741f01ad871960f70ef,75873,2C,man,NA,null,M1 is being seduced by W3,seduce3,sentence,NA,NA,NA,NA
2919.300000190735,NA,NA,NA,NA,survey-likert-extra-labels,143,482509,0.0-52.0-2.0,anomymised,65658173739efdc811fa7bc3,65676741f01ad871960f70ef,75873,2C,man,NA,NA,M1 is being seduced by W3,seduce3,rating_volition,"{""Q0"":0}",[0],W3 wanted to seduce M1,M1 wanted to seduce W3
2790.4000005722046,NA,NA,NA,NA,survey-likert-extra-labels,144,485301,0.0-52.0-3.0-0.0,anomymised,65658173739efdc811fa7bc3,65676741f01ad871960f70ef,75873,2C,man,NA,NA,M1 is being seduced by W3,seduce3,rating_causation,"{""Q0"":0}",[0],W3 started seducing M1 first,M1 started seducing W3 first
null,Kate is being greeted by Ruth,NA,NA,NA,html-keyboard-response,145,487316,0.0-53.0-0.0,anomymised,65658173739efdc811fa7bc3,65676741f01ad871960f70ef,75873,2C,man,NA,null,W2 is being greeted by W4,greet1,sentence,NA,NA,NA,NA
3743.699999809265,NA,NA,NA,NA,survey-likert-extra-labels,146,491061,0.0-53.0-1.0-0.0,anomymised,65658173739efdc811fa7bc3,65676741f01ad871960f70ef,75873,2C,man,NA,NA,W2 is being greeted by W4,greet1,rating_causation,"{""Q0"":4}",[0],W2 started greeting W4 first,W4 started greeting W2 first
2630.0999994277954,NA,NA,NA,NA,survey-likert-extra-labels,147,493693,0.0-53.0-2.0,anomymised,65658173739efdc811fa7bc3,65676741f01ad871960f70ef,75873,2C,man,NA,NA,W2 is being greeted by W4,greet1,rating_volition,"{""Q0"":4}",[0],W2 wanted to greet W4,W4 wanted to greet W2
null,Dave is being looked at by Ruth,NA,NA,NA,html-keyboard-response,148,495694,0.0-54.0-0.0,anomymised,65658173739efdc811fa7bc3,65676741f01ad871960f70ef,75873,2C,man,NA,null,M2 is being looked at by W4,look4,sentence,NA,NA,NA,NA
4277,NA,NA,NA,NA,survey-likert-extra-labels,149,499973,0.0-54.0-2.0,anomymised,65658173739efdc811fa7bc3,65676741f01ad871960f70ef,75873,2C,man,NA,NA,M2 is being looked at by W4,look4,rating_volition,"{""Q0"":3}",[0],M2 wanted to look at W4,W4 wanted to look at M2
1230,NA,NA,NA,NA,survey-likert-extra-labels,150,501205,0.0-54.0-3.0-0.0,anomymised,65658173739efdc811fa7bc3,65676741f01ad871960f70ef,75873,2C,man,NA,NA,M2 is being looked at by W4,look4,rating_causation,"{""Q0"":3}",[0],M2 looked at W4 first,W4 looked at M2 first
1822.5,<p>Thank you for completing that task.</p><p>The final part of this session is a short questionnaire.</p><p>Press Continue.</p>,0,Continue,Continue,html-button-response,151,503029,0.0-55.0,anomymised,65658173739efdc811fa7bc3,65676741f01ad871960f70ef,75873,2C,man,NA,NA,NA,NA,NA,NA,NA,NA,NA
246674.0999994278,NA,NA,NA,NA,survey-text,152,750710,0.0-56.0,anomymised,65658173739efdc811fa7bc3,65676741f01ad871960f70ef,75873,2C,man,NA,NA,NA,NA,demographics,"{""Q0"":""33"",""Q1"":""English"",""Q2"":""English"",""Q3"":""United Kingdom"",""Q4"":""British"",""Q5"":""Caucasian"",""Q6"":""Male""}",NA,NA,NA
7092.900000572205,<p>This is the last question - thank you for taking part! Have you lived in the UK for the last 5 years or more?</p>,0,"Yes,No",Yes,html-button-response,153,757805,0.0-57.0,anomymised,65658173739efdc811fa7bc3,65676741f01ad871960f70ef,75873,2C,man,NA,NA,NA,NA,fiveyears,NA,NA,NA,NA
