rt,stimulus,button_pressed,choices,ChosenStimulus,trial_type,trial_index,time_elapsed,internal_node_id,subject_id,study_id,session_id,subject,list,ppt_gender,url,key_press,sentence_type,verb,test_part,responses,question_order,left_part,right_part
1694.7999999523163,Welcome to the experiment. Press Continue to begin.,0,Continue,Continue,html-button-response,0,1701,0.0-0.0,anomymised,6565812bd48bb6bd55b14982,656703d558ca02d8320d92fa,76330,2B,man,NA,NA,NA,NA,NA,NA,NA,NA,NA
5940.899999976158,NA,NA,NA,NA,external-html,1,9619,0.0-1.0,anomymised,6565812bd48bb6bd55b14982,656703d558ca02d8320d92fa,76330,2B,man,consent.html,NA,NA,NA,NA,NA,NA,NA,NA
9065.5,"<p>Welcome.</p><p>In this experiment we will ask you to imagine some situations.</p><p>Each trial starts with a description of an event.</p><p>Then you will see alternative descriptions of that event, and you will rate on a scale how best they match the original description.</p><p>You will give your answer by clicking a button on a rating scale.</p><p>To do this task, you will have to use your imagination to visualise these events.</p><br><p>Ready?</p>",0,Continue,Continue,html-button-response,2,18686,0.0-2.0,anomymised,6565812bd48bb6bd55b14982,656703d558ca02d8320d92fa,76330,2B,man,NA,NA,NA,NA,NA,NA,NA,NA,NA
5002,"<p>Before the experiment starts, you will watch an example trial. Press 'Continue'.</p>",0,Continue,Continue,html-button-response,3,24691,0.0-3.0,anomymised,6565812bd48bb6bd55b14982,656703d558ca02d8320d92fa,76330,2B,man,NA,NA,NA,NA,NA,NA,NA,NA,NA
null,The police officer is arresting the robber,NA,NA,NA,html-keyboard-response,4,27696,0.0-4.0,anomymised,6565812bd48bb6bd55b14982,656703d558ca02d8320d92fa,76330,2B,man,NA,null,NA,NA,NA,NA,NA,NA,NA
15915.199999928474,<img src='img/Example-trial.jpg' style='height:550px;''></img>,0,Continue,Continue,html-button-response,5,43613,0.0-5.0,anomymised,6565812bd48bb6bd55b14982,656703d558ca02d8320d92fa,76330,2B,man,NA,NA,NA,NA,NA,NA,NA,NA,NA
4830.699999928474,<p>Ready to start the experiment?</p><br><p><strong>Remember to give an answer by clicking a button on the rating scale.</strong></p><p>Press 'Continue' to begin.</p>,0,Continue,Continue,html-button-response,6,49456,0.0-6.0,anomymised,6565812bd48bb6bd55b14982,656703d558ca02d8320d92fa,76330,2B,man,NA,NA,NA,NA,NA,NA,NA,NA,NA
null,Mike is being copied by Dave,NA,NA,NA,html-keyboard-response,7,52465,0.0-7.0-0.0,anomymised,6565812bd48bb6bd55b14982,656703d558ca02d8320d92fa,76330,2B,man,NA,null,M4 is being copied by M2,copy2,sentence,NA,NA,NA,NA
11373,NA,NA,NA,NA,survey-likert-extra-labels,8,63841,0.0-7.0-1.0-0.0,anomymised,6565812bd48bb6bd55b14982,656703d558ca02d8320d92fa,76330,2B,man,NA,NA,M4 is being copied by M2,copy2,rating_causation,"{""Q0"":5}",[0],M4 started copying M2 first,M2 started copying M4 first
10248.600000023842,NA,NA,NA,NA,survey-likert-extra-labels,9,74094,0.0-7.0-2.0,anomymised,6565812bd48bb6bd55b14982,656703d558ca02d8320d92fa,76330,2B,man,NA,NA,M4 is being copied by M2,copy2,rating_volition,"{""Q0"":6}",[0],M4 wanted to copy M2,M2 wanted to copy M4
null,Mike is being greeted by Dave,NA,NA,NA,html-keyboard-response,10,76099,0.0-8.0-0.0,anomymised,6565812bd48bb6bd55b14982,656703d558ca02d8320d92fa,76330,2B,man,NA,null,M4 is being greeted by M2,greet2,sentence,NA,NA,NA,NA
9143.200000047684,NA,NA,NA,NA,survey-likert-extra-labels,11,85243,0.0-8.0-2.0,anomymised,6565812bd48bb6bd55b14982,656703d558ca02d8320d92fa,76330,2B,man,NA,NA,M4 is being greeted by M2,greet2,rating_volition,"{""Q0"":6}",[0],M4 wanted to greet M2,M2 wanted to greet M4
3781.5,NA,NA,NA,NA,survey-likert-extra-labels,12,89027,0.0-8.0-3.0-0.0,anomymised,6565812bd48bb6bd55b14982,656703d558ca02d8320d92fa,76330,2B,man,NA,NA,M4 is being greeted by M2,greet2,rating_causation,"{""Q0"":6}",[0],M4 started greeting M2 first,M2 started greeting M4 first
null,Jane is being touched by Fred,NA,NA,NA,html-keyboard-response,13,91033,0.0-9.0-0.0,anomymised,6565812bd48bb6bd55b14982,656703d558ca02d8320d92fa,76330,2B,man,NA,null,W3 is being touched by M1,touch3,sentence,NA,NA,NA,NA
4911.300000071526,NA,NA,NA,NA,survey-likert-extra-labels,14,95945,0.0-9.0-2.0,anomymised,6565812bd48bb6bd55b14982,656703d558ca02d8320d92fa,76330,2B,man,NA,NA,W3 is being touched by M1,touch3,rating_volition,"{""Q0"":0}",[0],M1 wanted to touch W3,W3 wanted to touch M1
8831,NA,NA,NA,NA,survey-likert-extra-labels,15,104778,0.0-9.0-3.0-0.0,anomymised,6565812bd48bb6bd55b14982,656703d558ca02d8320d92fa,76330,2B,man,NA,NA,W3 is being touched by M1,touch3,rating_causation,"{""Q0"":3}",[0],M1 asked to touch W3,W3 asked to touch M1
null,Fred is being hugged by Luke,NA,NA,NA,html-keyboard-response,16,106784,0.0-10.0-0.0,anomymised,6565812bd48bb6bd55b14982,656703d558ca02d8320d92fa,76330,2B,man,NA,null,M1 is being hugged by M3,hug2,sentence,NA,NA,NA,NA
8195.5,NA,NA,NA,NA,survey-likert-extra-labels,17,114981,0.0-10.0-1.0-0.0,anomymised,6565812bd48bb6bd55b14982,656703d558ca02d8320d92fa,76330,2B,man,NA,NA,M1 is being hugged by M3,hug2,rating_causation,"{""Q0"":2}",[0],M3 asked to hug M1,M1 asked to hug M3
7112.799999952316,NA,NA,NA,NA,survey-likert-extra-labels,18,122096,0.0-10.0-2.0,anomymised,6565812bd48bb6bd55b14982,656703d558ca02d8320d92fa,76330,2B,man,NA,NA,M1 is being hugged by M3,hug2,rating_volition,"{""Q0"":1}",[0],M3 wanted to hug M1,M1 wanted to hug M3
null,Luke is being kissed by Fred,NA,NA,NA,html-keyboard-response,19,124102,0.0-11.0-0.0,anomymised,6565812bd48bb6bd55b14982,656703d558ca02d8320d92fa,76330,2B,man,NA,null,M3 is being kissed by M1,kiss2,sentence,NA,NA,NA,NA
6410.599999904633,NA,NA,NA,NA,survey-likert-extra-labels,20,130514,0.0-11.0-1.0-0.0,anomymised,6565812bd48bb6bd55b14982,656703d558ca02d8320d92fa,76330,2B,man,NA,NA,M3 is being kissed by M1,kiss2,rating_causation,"{""Q0"":3}",[0],M3 asked to kiss M1,M1 asked to kiss M3
7098.5,NA,NA,NA,NA,survey-likert-extra-labels,21,137615,0.0-11.0-2.0,anomymised,6565812bd48bb6bd55b14982,656703d558ca02d8320d92fa,76330,2B,man,NA,NA,M3 is being kissed by M1,kiss2,rating_volition,"{""Q0"":6}",[0],M3 wanted to kiss M1,M1 wanted to kiss M3
null,Jane is being kissed by Beth,NA,NA,NA,html-keyboard-response,22,139619,0.0-12.0-0.0,anomymised,6565812bd48bb6bd55b14982,656703d558ca02d8320d92fa,76330,2B,man,NA,null,W3 is being kissed by W1,kiss1,sentence,NA,NA,NA,NA
5545.299999952316,NA,NA,NA,NA,survey-likert-extra-labels,23,145165,0.0-12.0-1.0-0.0,anomymised,6565812bd48bb6bd55b14982,656703d558ca02d8320d92fa,76330,2B,man,NA,NA,W3 is being kissed by W1,kiss1,rating_causation,"{""Q0"":3}",[0],W3 asked to kiss W1,W1 asked to kiss W3
5999.299999952316,NA,NA,NA,NA,survey-likert-extra-labels,24,151166,0.0-12.0-2.0,anomymised,6565812bd48bb6bd55b14982,656703d558ca02d8320d92fa,76330,2B,man,NA,NA,W3 is being kissed by W1,kiss1,rating_volition,"{""Q0"":6}",[0],W3 wanted to kiss W1,W1 wanted to kiss W3
null,Kate is teaching Mike,NA,NA,NA,html-keyboard-response,25,153172,0.0-13.0-0.0,anomymised,6565812bd48bb6bd55b14982,656703d558ca02d8320d92fa,76330,2B,man,NA,null,W2 is teaching M4,teach,sentence,NA,NA,NA,NA
3743.8000000715256,NA,NA,NA,NA,survey-likert-extra-labels,26,156917,0.0-13.0-2.0,anomymised,6565812bd48bb6bd55b14982,656703d558ca02d8320d92fa,76330,2B,man,NA,NA,W2 is teaching M4,teach,rating_volition,"{""Q0"":0}",[0],W2 is educating M4,M4 is educating W2
3964.100000023842,NA,NA,NA,NA,survey-likert-extra-labels,27,160884,0.0-13.0-3.0-0.0,anomymised,6565812bd48bb6bd55b14982,656703d558ca02d8320d92fa,76330,2B,man,NA,NA,W2 is teaching M4,teach,rating_causation,"{""Q0"":6}",[0],W2 is learning from M4,M4 is learning from W2
null,Dave is being hugged by Ruth,NA,NA,NA,html-keyboard-response,28,162887,0.0-14.0-0.0,anomymised,6565812bd48bb6bd55b14982,656703d558ca02d8320d92fa,76330,2B,man,NA,null,M2 is being hugged by W4,hug4,sentence,NA,NA,NA,NA
6096.100000023842,NA,NA,NA,NA,survey-likert-extra-labels,29,168984,0.0-14.0-1.0-0.0,anomymised,6565812bd48bb6bd55b14982,656703d558ca02d8320d92fa,76330,2B,man,NA,NA,M2 is being hugged by W4,hug4,rating_causation,"{""Q0"":3}",[0],W4 asked to hug M2,M2 asked to hug W4
4682,NA,NA,NA,NA,survey-likert-extra-labels,30,173668,0.0-14.0-2.0,anomymised,6565812bd48bb6bd55b14982,656703d558ca02d8320d92fa,76330,2B,man,NA,NA,M2 is being hugged by W4,hug4,rating_volition,"{""Q0"":0}",[0],W4 wanted to hug M2,M2 wanted to hug W4
null,Dave is being challenged by Mike,NA,NA,NA,html-keyboard-response,31,175675,0.0-15.0-0.0,anomymised,6565812bd48bb6bd55b14982,656703d558ca02d8320d92fa,76330,2B,man,NA,null,M2 is being challenged by M4,challenge2,sentence,NA,NA,NA,NA
16414.099999904633,NA,NA,NA,NA,survey-likert-extra-labels,32,192091,0.0-15.0-1.0-0.0,anomymised,6565812bd48bb6bd55b14982,656703d558ca02d8320d92fa,76330,2B,man,NA,NA,M2 is being challenged by M4,challenge2,rating_causation,"{""Q0"":1}",[0],M4 started challenging M2 first,M2 started challenging M4 first
10178.700000047684,NA,NA,NA,NA,survey-likert-extra-labels,33,202272,0.0-15.0-2.0,anomymised,6565812bd48bb6bd55b14982,656703d558ca02d8320d92fa,76330,2B,man,NA,NA,M2 is being challenged by M4,challenge2,rating_volition,"{""Q0"":0}",[0],M4 wanted to challenge M2,M2 wanted to challenge M4
null,Mike is being kissed by Kate,NA,NA,NA,html-keyboard-response,34,204277,0.0-16.0-0.0,anomymised,6565812bd48bb6bd55b14982,656703d558ca02d8320d92fa,76330,2B,man,NA,null,M4 is being kissed by W2,kiss4,sentence,NA,NA,NA,NA
4594.100000023842,NA,NA,NA,NA,survey-likert-extra-labels,35,208872,0.0-16.0-2.0,anomymised,6565812bd48bb6bd55b14982,656703d558ca02d8320d92fa,76330,2B,man,NA,NA,M4 is being kissed by W2,kiss4,rating_volition,"{""Q0"":4}",[0],M4 wanted to kiss W2,W2 wanted to kiss M4
3381.2999999523163,NA,NA,NA,NA,survey-likert-extra-labels,36,212255,0.0-16.0-3.0-0.0,anomymised,6565812bd48bb6bd55b14982,656703d558ca02d8320d92fa,76330,2B,man,NA,NA,M4 is being kissed by W2,kiss4,rating_causation,"{""Q0"":3}",[0],M4 asked to kiss W2,W2 asked to kiss M4
null,Beth is being copied by Luke,NA,NA,NA,html-keyboard-response,37,214262,0.0-17.0-0.0,anomymised,6565812bd48bb6bd55b14982,656703d558ca02d8320d92fa,76330,2B,man,NA,null,W1 is being copied by M3,copy4,sentence,NA,NA,NA,NA
5342.400000095367,NA,NA,NA,NA,survey-likert-extra-labels,38,219606,0.0-17.0-1.0-0.0,anomymised,6565812bd48bb6bd55b14982,656703d558ca02d8320d92fa,76330,2B,man,NA,NA,W1 is being copied by M3,copy4,rating_causation,"{""Q0"":5}",[0],W1 started copying M3 first,M3 started copying W1 first
3465.3000000715256,NA,NA,NA,NA,survey-likert-extra-labels,39,223073,0.0-17.0-2.0,anomymised,6565812bd48bb6bd55b14982,656703d558ca02d8320d92fa,76330,2B,man,NA,NA,W1 is being copied by M3,copy4,rating_volition,"{""Q0"":6}",[0],W1 wanted to copy M3,M3 wanted to copy W1
null,Beth is being opposed by Jane,NA,NA,NA,html-keyboard-response,40,225076,0.0-18.0-0.0,anomymised,6565812bd48bb6bd55b14982,656703d558ca02d8320d92fa,76330,2B,man,NA,null,W1 is being opposed by W3,oppose1,sentence,NA,NA,NA,NA
19730.699999928474,NA,NA,NA,NA,survey-likert-extra-labels,41,244808,0.0-18.0-1.0-0.0,anomymised,6565812bd48bb6bd55b14982,656703d558ca02d8320d92fa,76330,2B,man,NA,NA,W1 is being opposed by W3,oppose1,rating_causation,"{""Q0"":1}",[0],W3 started opposing W1,W1 started opposing W3
3481.899999976158,NA,NA,NA,NA,survey-likert-extra-labels,42,248292,0.0-18.0-2.0,anomymised,6565812bd48bb6bd55b14982,656703d558ca02d8320d92fa,76330,2B,man,NA,NA,W1 is being opposed by W3,oppose1,rating_volition,"{""Q0"":1}",[0],W3 wanted to oppose W1,W1 wanted to oppose W3
null,Beth is being greeted by Luke,NA,NA,NA,html-keyboard-response,43,250294,0.0-19.0-0.0,anomymised,6565812bd48bb6bd55b14982,656703d558ca02d8320d92fa,76330,2B,man,NA,null,W1 is being greeted by M3,greet3,sentence,NA,NA,NA,NA
5614.300000071526,NA,NA,NA,NA,survey-likert-extra-labels,44,255909,0.0-19.0-2.0,anomymised,6565812bd48bb6bd55b14982,656703d558ca02d8320d92fa,76330,2B,man,NA,NA,W1 is being greeted by M3,greet3,rating_volition,"{""Q0"":5}",[0],W1 wanted to greet M3,M3 wanted to greet W1
3684.1999999284744,NA,NA,NA,NA,survey-likert-extra-labels,45,259595,0.0-19.0-3.0-0.0,anomymised,6565812bd48bb6bd55b14982,656703d558ca02d8320d92fa,76330,2B,man,NA,NA,W1 is being greeted by M3,greet3,rating_causation,"{""Q0"":6}",[0],W1 started greeting M3 first,M3 started greeting W1 first
null,Fred is being copied by Jane,NA,NA,NA,html-keyboard-response,46,261600,0.0-20.0-0.0,anomymised,6565812bd48bb6bd55b14982,656703d558ca02d8320d92fa,76330,2B,man,NA,null,M1 is being copied by W3,copy3,sentence,NA,NA,NA,NA
3751.600000023842,NA,NA,NA,NA,survey-likert-extra-labels,47,265352,0.0-20.0-2.0,anomymised,6565812bd48bb6bd55b14982,656703d558ca02d8320d92fa,76330,2B,man,NA,NA,M1 is being copied by W3,copy3,rating_volition,"{""Q0"":6}",[0],M1 wanted to copy W3,W3 wanted to copy M1
4553.900000095367,NA,NA,NA,NA,survey-likert-extra-labels,48,269910,0.0-20.0-3.0-0.0,anomymised,6565812bd48bb6bd55b14982,656703d558ca02d8320d92fa,76330,2B,man,NA,NA,M1 is being copied by W3,copy3,rating_causation,"{""Q0"":5}",[0],M1 started copying W3 first,W3 started copying M1 first
null,Luke is being seduced by Beth,NA,NA,NA,html-keyboard-response,49,271918,0.0-21.0-0.0,anomymised,6565812bd48bb6bd55b14982,656703d558ca02d8320d92fa,76330,2B,man,NA,null,M3 is being seduced by W1,seduce4,sentence,NA,NA,NA,NA
6459.200000047684,NA,NA,NA,NA,survey-likert-extra-labels,50,278378,0.0-21.0-2.0,anomymised,6565812bd48bb6bd55b14982,656703d558ca02d8320d92fa,76330,2B,man,NA,NA,M3 is being seduced by W1,seduce4,rating_volition,"{""Q0"":0}",[0],W1 wanted to seducing M3,M3 wanted to seducing W1
3780.600000023842,NA,NA,NA,NA,survey-likert-extra-labels,51,282162,0.0-21.0-3.0-0.0,anomymised,6565812bd48bb6bd55b14982,656703d558ca02d8320d92fa,76330,2B,man,NA,NA,M3 is being seduced by W1,seduce4,rating_causation,"{""Q0"":0}",[0],W1 started seducing M3 first,M3 started seducing W1 first
null,Dave is being touched by Mike,NA,NA,NA,html-keyboard-response,52,284167,0.0-22.0-0.0,anomymised,6565812bd48bb6bd55b14982,656703d558ca02d8320d92fa,76330,2B,man,NA,null,M2 is being touched by M4,touch2,sentence,NA,NA,NA,NA
3544.600000023842,NA,NA,NA,NA,survey-likert-extra-labels,53,287713,0.0-22.0-2.0,anomymised,6565812bd48bb6bd55b14982,656703d558ca02d8320d92fa,76330,2B,man,NA,NA,M2 is being touched by M4,touch2,rating_volition,"{""Q0"":5}",[0],M4 wanted to touch M2,M2 wanted to touch M4
4480.599999904633,NA,NA,NA,NA,survey-likert-extra-labels,54,292196,0.0-22.0-3.0-0.0,anomymised,6565812bd48bb6bd55b14982,656703d558ca02d8320d92fa,76330,2B,man,NA,NA,M2 is being touched by M4,touch2,rating_causation,"{""Q0"":4}",[0],M4 asked to touch M2,M2 asked to touch M4
null,Luke is being touched by Beth,NA,NA,NA,html-keyboard-response,55,294199,0.0-23.0-0.0,anomymised,6565812bd48bb6bd55b14982,656703d558ca02d8320d92fa,76330,2B,man,NA,null,M3 is being touched by W1,touch4,sentence,NA,NA,NA,NA
3881,NA,NA,NA,NA,survey-likert-extra-labels,56,298081,0.0-23.0-2.0,anomymised,6565812bd48bb6bd55b14982,656703d558ca02d8320d92fa,76330,2B,man,NA,NA,M3 is being touched by W1,touch4,rating_volition,"{""Q0"":1}",[0],W1 wanted to touch M3,M3 wanted to touch W1
2531.399999976158,NA,NA,NA,NA,survey-likert-extra-labels,57,300614,0.0-23.0-3.0-0.0,anomymised,6565812bd48bb6bd55b14982,656703d558ca02d8320d92fa,76330,2B,man,NA,NA,M3 is being touched by W1,touch4,rating_causation,"{""Q0"":2}",[0],W1 asked to touch M3,M3 asked to touch W1
null,Kate is being seduced by Ruth,NA,NA,NA,html-keyboard-response,58,302619,0.0-24.0-0.0,anomymised,6565812bd48bb6bd55b14982,656703d558ca02d8320d92fa,76330,2B,man,NA,null,W2 is being seduced by W4,seduce1,sentence,NA,NA,NA,NA
6012.200000047684,NA,NA,NA,NA,survey-likert-extra-labels,59,308632,0.0-24.0-2.0,anomymised,6565812bd48bb6bd55b14982,656703d558ca02d8320d92fa,76330,2B,man,NA,NA,W2 is being seduced by W4,seduce1,rating_volition,"{""Q0"":0}",[0],W4 wanted to seduce W2,W2 wanted to seduce W4
5247.300000071526,NA,NA,NA,NA,survey-likert-extra-labels,60,313882,0.0-24.0-3.0-0.0,anomymised,6565812bd48bb6bd55b14982,656703d558ca02d8320d92fa,76330,2B,man,NA,NA,W2 is being seduced by W4,seduce1,rating_causation,"{""Q0"":1}",[0],W4 started seducing W2 first,W2 started seducing W4 first
null,Mike is being looked at by Kate,NA,NA,NA,html-keyboard-response,61,315887,0.0-25.0-0.0,anomymised,6565812bd48bb6bd55b14982,656703d558ca02d8320d92fa,76330,2B,man,NA,null,M4 is being looked at by W2,look3,sentence,NA,NA,NA,NA
4093.6999999284744,NA,NA,NA,NA,survey-likert-extra-labels,62,319982,0.0-25.0-1.0-0.0,anomymised,6565812bd48bb6bd55b14982,656703d558ca02d8320d92fa,76330,2B,man,NA,NA,M4 is being looked at by W2,look3,rating_causation,"{""Q0"":6}",[0],M4 looked at W2 first,W2 looked at M4 first
4766.700000047684,NA,NA,NA,NA,survey-likert-extra-labels,63,324751,0.0-25.0-2.0,anomymised,6565812bd48bb6bd55b14982,656703d558ca02d8320d92fa,76330,2B,man,NA,NA,M4 is being looked at by W2,look3,rating_volition,"{""Q0"":6}",[0],M4 wanted to look at W2,W2 wanted to look at M4
null,Ruth is being copied by Kate,NA,NA,NA,html-keyboard-response,64,326785,0.0-26.0-0.0,anomymised,6565812bd48bb6bd55b14982,656703d558ca02d8320d92fa,76330,2B,man,NA,null,W4 is being copied by W2,copy1,sentence,NA,NA,NA,NA
4730.5,NA,NA,NA,NA,survey-likert-extra-labels,65,331516,0.0-26.0-1.0-0.0,anomymised,6565812bd48bb6bd55b14982,656703d558ca02d8320d92fa,76330,2B,man,NA,NA,W4 is being copied by W2,copy1,rating_causation,"{""Q0"":5}",[0],W4 started copying W2 first,W2 started copying W4 first
2415.100000023842,NA,NA,NA,NA,survey-likert-extra-labels,66,333934,0.0-26.0-2.0,anomymised,6565812bd48bb6bd55b14982,656703d558ca02d8320d92fa,76330,2B,man,NA,NA,W4 is being copied by W2,copy1,rating_volition,"{""Q0"":6}",[0],W4 wanted to copy W2,W2 wanted to copy W4
null,Fred is being greeted by Jane,NA,NA,NA,html-keyboard-response,67,335943,0.0-27.0-0.0,anomymised,6565812bd48bb6bd55b14982,656703d558ca02d8320d92fa,76330,2B,man,NA,null,M1 is being greeted by W3,greet4,sentence,NA,NA,NA,NA
4139.799999952316,NA,NA,NA,NA,survey-likert-extra-labels,68,340084,0.0-27.0-2.0,anomymised,6565812bd48bb6bd55b14982,656703d558ca02d8320d92fa,76330,2B,man,NA,NA,M1 is being greeted by W3,greet4,rating_volition,"{""Q0"":6}",[0],M1 wanted to greet W3,W3 wanted to greet M1
2588.100000023842,NA,NA,NA,NA,survey-likert-extra-labels,69,342676,0.0-27.0-3.0-0.0,anomymised,6565812bd48bb6bd55b14982,656703d558ca02d8320d92fa,76330,2B,man,NA,NA,M1 is being greeted by W3,greet4,rating_causation,"{""Q0"":6}",[0],M1 started greeting W3 first,W3 started greeting M1 first
null,Dave is being opposed by Ruth,NA,NA,NA,html-keyboard-response,70,344686,0.0-28.0-0.0,anomymised,6565812bd48bb6bd55b14982,656703d558ca02d8320d92fa,76330,2B,man,NA,null,M2 is being opposed by W4,oppose4,sentence,NA,NA,NA,NA
47000.89999997616,NA,NA,NA,NA,survey-likert-extra-labels,71,391689,0.0-28.0-2.0,anomymised,6565812bd48bb6bd55b14982,656703d558ca02d8320d92fa,76330,2B,man,NA,NA,M2 is being opposed by W4,oppose4,rating_volition,"{""Q0"":0}",[0],W4 wanted to oppose M2,M2 wanted to oppose W4
2530.8000000715256,NA,NA,NA,NA,survey-likert-extra-labels,72,394223,0.0-28.0-3.0-0.0,anomymised,6565812bd48bb6bd55b14982,656703d558ca02d8320d92fa,76330,2B,man,NA,NA,M2 is being opposed by W4,oppose4,rating_causation,"{""Q0"":0}",[0],W4 started opposing M2,M2 started opposing W4
null,Fred is being opposed by Luke,NA,NA,NA,html-keyboard-response,73,396229,0.0-29.0-0.0,anomymised,6565812bd48bb6bd55b14982,656703d558ca02d8320d92fa,76330,2B,man,NA,null,M1 is being opposed by M3,oppose2,sentence,NA,NA,NA,NA
2960.4000000953674,NA,NA,NA,NA,survey-likert-extra-labels,74,399190,0.0-29.0-2.0,anomymised,6565812bd48bb6bd55b14982,656703d558ca02d8320d92fa,76330,2B,man,NA,NA,M1 is being opposed by M3,oppose2,rating_volition,"{""Q0"":0}",[0],M3 wanted to oppose M1,M1 wanted to oppose M3
3115.5,NA,NA,NA,NA,survey-likert-extra-labels,75,402307,0.0-29.0-3.0-0.0,anomymised,6565812bd48bb6bd55b14982,656703d558ca02d8320d92fa,76330,2B,man,NA,NA,M1 is being opposed by M3,oppose2,rating_causation,"{""Q0"":0}",[0],M3 started opposing M1,M1 started opposing M3
null,Fred is driving Luke,NA,NA,NA,html-keyboard-response,76,404311,0.0-30.0-0.0,anomymised,6565812bd48bb6bd55b14982,656703d558ca02d8320d92fa,76330,2B,man,NA,null,M1 is driving M3,drive,sentence,NA,NA,NA,NA
7779.399999976158,NA,NA,NA,NA,survey-likert-extra-labels,77,412091,0.0-30.0-2.0,anomymised,6565812bd48bb6bd55b14982,656703d558ca02d8320d92fa,76330,2B,man,NA,NA,M1 is driving M3,drive,rating_volition,"{""Q0"":6}",[0],M1 is M3's passenger,M3 is M1's passenger
6314.5,NA,NA,NA,NA,survey-likert-extra-labels,78,418408,0.0-30.0-3.0-0.0,anomymised,6565812bd48bb6bd55b14982,656703d558ca02d8320d92fa,76330,2B,man,NA,NA,M1 is driving M3,drive,rating_causation,"{""Q0"":0}",[0],M1 is taking M3 somewhere,M3 is taking M1 somewhere
null,Beth is being hugged by Jane,NA,NA,NA,html-keyboard-response,79,420411,0.0-31.0-0.0,anomymised,6565812bd48bb6bd55b14982,656703d558ca02d8320d92fa,76330,2B,man,NA,null,W1 is being hugged by W3,hug1,sentence,NA,NA,NA,NA
6080.199999928474,NA,NA,NA,NA,survey-likert-extra-labels,80,426492,0.0-31.0-1.0-0.0,anomymised,6565812bd48bb6bd55b14982,656703d558ca02d8320d92fa,76330,2B,man,NA,NA,W1 is being hugged by W3,hug1,rating_causation,"{""Q0"":1}",[0],W3 asked to hug W1,W1 asked to hug W3
2648.2999999523163,NA,NA,NA,NA,survey-likert-extra-labels,81,429143,0.0-31.0-2.0,anomymised,6565812bd48bb6bd55b14982,656703d558ca02d8320d92fa,76330,2B,man,NA,NA,W1 is being hugged by W3,hug1,rating_volition,"{""Q0"":0}",[0],W3 wanted to hug W1,W1 wanted to hug W3
null,Kate is being touched by Ruth,NA,NA,NA,html-keyboard-response,82,431149,0.0-32.0-0.0,anomymised,6565812bd48bb6bd55b14982,656703d558ca02d8320d92fa,76330,2B,man,NA,null,W2 is being touched by W4,touch1,sentence,NA,NA,NA,NA
13061.100000023842,NA,NA,NA,NA,survey-likert-extra-labels,83,444211,0.0-32.0-1.0-0.0,anomymised,6565812bd48bb6bd55b14982,656703d558ca02d8320d92fa,76330,2B,man,NA,NA,W2 is being touched by W4,touch1,rating_causation,"{""Q0"":1}",[0],W4 asked to touch W2,W2 asked to touch W4
2431.100000023842,NA,NA,NA,NA,survey-likert-extra-labels,84,446644,0.0-32.0-2.0,anomymised,6565812bd48bb6bd55b14982,656703d558ca02d8320d92fa,76330,2B,man,NA,NA,W2 is being touched by W4,touch1,rating_volition,"{""Q0"":0}",[0],W4 wanted to touch W2,W2 wanted to touch W4
null,Jane is feeding Fred,NA,NA,NA,html-keyboard-response,85,448650,0.0-33.0-0.0,anomymised,6565812bd48bb6bd55b14982,656703d558ca02d8320d92fa,76330,2B,man,NA,null,W3 is feeding M1,feed,sentence,NA,NA,NA,NA
14930.699999928474,NA,NA,NA,NA,survey-likert-extra-labels,86,463582,0.0-33.0-1.0-0.0,anomymised,6565812bd48bb6bd55b14982,656703d558ca02d8320d92fa,76330,2B,man,NA,NA,W3 is feeding M1,feed,rating_causation,"{""Q0"":5}",[0],W3 is eating M1's food,M1 is eating W3's food
5696.399999976158,NA,NA,NA,NA,survey-likert-extra-labels,87,469280,0.0-33.0-2.0,anomymised,6565812bd48bb6bd55b14982,656703d558ca02d8320d92fa,76330,2B,man,NA,NA,W3 is feeding M1,feed,rating_volition,"{""Q0"":1}",[0],W3 cooked for M1,M1 cooked for W3
null,Luke is being challenged by Beth,NA,NA,NA,html-keyboard-response,88,471287,0.0-34.0-0.0,anomymised,6565812bd48bb6bd55b14982,656703d558ca02d8320d92fa,76330,2B,man,NA,null,M3 is being challenged by W1,challenge3,sentence,NA,NA,NA,NA
5625.5,NA,NA,NA,NA,survey-likert-extra-labels,89,476914,0.0-34.0-2.0,anomymised,6565812bd48bb6bd55b14982,656703d558ca02d8320d92fa,76330,2B,man,NA,NA,M3 is being challenged by W1,challenge3,rating_volition,"{""Q0"":0}",[0],W1 wanted to challenge M3,M3 wanted to challenge W1
3031.600000023842,NA,NA,NA,NA,survey-likert-extra-labels,90,479948,0.0-34.0-3.0-0.0,anomymised,6565812bd48bb6bd55b14982,656703d558ca02d8320d92fa,76330,2B,man,NA,NA,M3 is being challenged by W1,challenge3,rating_causation,"{""Q0"":0}",[0],W1 started challenging M3 first,M3 started challenging W1 first
null,Dave is reminding Ruth,NA,NA,NA,html-keyboard-response,91,481952,0.0-35.0-0.0,anomymised,6565812bd48bb6bd55b14982,656703d558ca02d8320d92fa,76330,2B,man,NA,null,M2 is reminding W4,remind,sentence,NA,NA,NA,NA
5927.800000071526,NA,NA,NA,NA,survey-likert-extra-labels,92,487881,0.0-35.0-2.0,anomymised,6565812bd48bb6bd55b14982,656703d558ca02d8320d92fa,76330,2B,man,NA,NA,M2 is reminding W4,remind,rating_volition,"{""Q0"":0}",[0],M2 is telling W4 again,W4 is telling M2 again
4915.5,NA,NA,NA,NA,survey-likert-extra-labels,93,492799,0.0-35.0-3.0-0.0,anomymised,6565812bd48bb6bd55b14982,656703d558ca02d8320d92fa,76330,2B,man,NA,NA,M2 is reminding W4,remind,rating_causation,"{""Q0"":6}",[0],M2 is remembering,W4 is remembering
null,Ruth is being looked at by Dave,NA,NA,NA,html-keyboard-response,94,494803,0.0-36.0-0.0,anomymised,6565812bd48bb6bd55b14982,656703d558ca02d8320d92fa,76330,2B,man,NA,null,W4 is being looked at by M2,look4,sentence,NA,NA,NA,NA
5645.5,NA,NA,NA,NA,survey-likert-extra-labels,95,500449,0.0-36.0-2.0,anomymised,6565812bd48bb6bd55b14982,656703d558ca02d8320d92fa,76330,2B,man,NA,NA,W4 is being looked at by M2,look4,rating_volition,"{""Q0"":6}",[0],W4 wanted to look at M2,M2 wanted to look at W4
3698.899999976158,NA,NA,NA,NA,survey-likert-extra-labels,96,504151,0.0-36.0-3.0-0.0,anomymised,6565812bd48bb6bd55b14982,656703d558ca02d8320d92fa,76330,2B,man,NA,NA,W4 is being looked at by M2,look4,rating_causation,"{""Q0"":6}",[0],W4 looked at M2 first,M2 looked at W4 first
null,Fred is being shouted at by Luke,NA,NA,NA,html-keyboard-response,97,506156,0.0-37.0-0.0,anomymised,6565812bd48bb6bd55b14982,656703d558ca02d8320d92fa,76330,2B,man,NA,null,M1 is being shouted at by M3,shout2,sentence,NA,NA,NA,NA
3909.9000000953674,NA,NA,NA,NA,survey-likert-extra-labels,98,510067,0.0-37.0-2.0,anomymised,6565812bd48bb6bd55b14982,656703d558ca02d8320d92fa,76330,2B,man,NA,NA,M1 is being shouted at by M3,shout2,rating_volition,"{""Q0"":0}",[0],M3 wanted to shout at M1,M1 wanted to shout at M3
3264.5999999046326,NA,NA,NA,NA,survey-likert-extra-labels,99,513334,0.0-37.0-3.0-0.0,anomymised,6565812bd48bb6bd55b14982,656703d558ca02d8320d92fa,76330,2B,man,NA,NA,M1 is being shouted at by M3,shout2,rating_causation,"{""Q0"":0}",[0],M3 shouted at M1 first,M1 shouted at M3 first
null,Ruth is being kissed by Dave,NA,NA,NA,html-keyboard-response,100,515338,0.0-38.0-0.0,anomymised,6565812bd48bb6bd55b14982,656703d558ca02d8320d92fa,76330,2B,man,NA,null,W4 is being kissed by M2,kiss3,sentence,NA,NA,NA,NA
5029.300000071526,NA,NA,NA,NA,survey-likert-extra-labels,101,520368,0.0-38.0-1.0-0.0,anomymised,6565812bd48bb6bd55b14982,656703d558ca02d8320d92fa,76330,2B,man,NA,NA,W4 is being kissed by M2,kiss3,rating_causation,"{""Q0"":3}",[0],W4 asked to kiss M2,M2 asked to kiss W4
4881.899999976158,NA,NA,NA,NA,survey-likert-extra-labels,102,525251,0.0-38.0-2.0,anomymised,6565812bd48bb6bd55b14982,656703d558ca02d8320d92fa,76330,2B,man,NA,NA,W4 is being kissed by M2,kiss3,rating_volition,"{""Q0"":6}",[0],W4 wanted to kiss M2,M2 wanted to kiss W4
null,Kate is being hugged by Mike,NA,NA,NA,html-keyboard-response,103,527254,0.0-39.0-0.0,anomymised,6565812bd48bb6bd55b14982,656703d558ca02d8320d92fa,76330,2B,man,NA,null,W2 is being hugged by M4,hug3,sentence,NA,NA,NA,NA
5480.899999976158,NA,NA,NA,NA,survey-likert-extra-labels,104,532736,0.0-39.0-2.0,anomymised,6565812bd48bb6bd55b14982,656703d558ca02d8320d92fa,76330,2B,man,NA,NA,W2 is being hugged by M4,hug3,rating_volition,"{""Q0"":0}",[0],M4 wanted to hug W2,W2 wanted to hug M4
4148.699999928474,NA,NA,NA,NA,survey-likert-extra-labels,105,536886,0.0-39.0-3.0-0.0,anomymised,6565812bd48bb6bd55b14982,656703d558ca02d8320d92fa,76330,2B,man,NA,NA,W2 is being hugged by M4,hug3,rating_causation,"{""Q0"":1}",[0],M4 asked to hug W2,W2 asked to hug M4
null,Luke is hiring Beth,NA,NA,NA,html-keyboard-response,106,538892,0.0-40.0-0.0,anomymised,6565812bd48bb6bd55b14982,656703d558ca02d8320d92fa,76330,2B,man,NA,null,M3 is hiring W1,hire,sentence,NA,NA,NA,NA
4594.600000023842,NA,NA,NA,NA,survey-likert-extra-labels,107,543488,0.0-40.0-2.0,anomymised,6565812bd48bb6bd55b14982,656703d558ca02d8320d92fa,76330,2B,man,NA,NA,M3 is hiring W1,hire,rating_volition,"{""Q0"":0}",[0],M3 is employing W1,W1 is employing M3
4482,NA,NA,NA,NA,survey-likert-extra-labels,108,547972,0.0-40.0-3.0-0.0,anomymised,6565812bd48bb6bd55b14982,656703d558ca02d8320d92fa,76330,2B,man,NA,NA,M3 is hiring W1,hire,rating_causation,"{""Q0"":6}",[0],M3 will work for W1,W1 will work for M3
null,Jane is being looked at by Beth,NA,NA,NA,html-keyboard-response,109,549978,0.0-41.0-0.0,anomymised,6565812bd48bb6bd55b14982,656703d558ca02d8320d92fa,76330,2B,man,NA,null,W3 is being looked at by W1,look1,sentence,NA,NA,NA,NA
10876.100000023842,NA,NA,NA,NA,survey-likert-extra-labels,110,560855,0.0-41.0-2.0,anomymised,6565812bd48bb6bd55b14982,656703d558ca02d8320d92fa,76330,2B,man,NA,NA,W3 is being looked at by W1,look1,rating_volition,"{""Q0"":6}",[0],W3 wanted to look at W1,W1 wanted to look at W3
7632.100000023842,NA,NA,NA,NA,survey-likert-extra-labels,111,568489,0.0-41.0-3.0-0.0,anomymised,6565812bd48bb6bd55b14982,656703d558ca02d8320d92fa,76330,2B,man,NA,NA,W3 is being looked at by W1,look1,rating_causation,"{""Q0"":6}",[0],W3 looked at W1 first,W1 looked at W3 first
null,Dave is being shouted at by Ruth,NA,NA,NA,html-keyboard-response,112,570495,0.0-42.0-0.0,anomymised,6565812bd48bb6bd55b14982,656703d558ca02d8320d92fa,76330,2B,man,NA,null,M2 is being shouted at by W4,shout3,sentence,NA,NA,NA,NA
4944.100000023842,NA,NA,NA,NA,survey-likert-extra-labels,113,575440,0.0-42.0-2.0,anomymised,6565812bd48bb6bd55b14982,656703d558ca02d8320d92fa,76330,2B,man,NA,NA,M2 is being shouted at by W4,shout3,rating_volition,"{""Q0"":0}",[0],W4 wanted to shout at M2,M2 wanted to shout at W4
2831.2000000476837,NA,NA,NA,NA,survey-likert-extra-labels,114,578273,0.0-42.0-3.0-0.0,anomymised,6565812bd48bb6bd55b14982,656703d558ca02d8320d92fa,76330,2B,man,NA,NA,M2 is being shouted at by W4,shout3,rating_causation,"{""Q0"":0}",[0],W4 shouted at M2 first,M2 shouted at W4 first
null,Kate is being opposed by Mike,NA,NA,NA,html-keyboard-response,115,580279,0.0-43.0-0.0,anomymised,6565812bd48bb6bd55b14982,656703d558ca02d8320d92fa,76330,2B,man,NA,null,W2 is being opposed by M4,oppose3,sentence,NA,NA,NA,NA
6661.5,NA,NA,NA,NA,survey-likert-extra-labels,116,586941,0.0-43.0-1.0-0.0,anomymised,6565812bd48bb6bd55b14982,656703d558ca02d8320d92fa,76330,2B,man,NA,NA,W2 is being opposed by M4,oppose3,rating_causation,"{""Q0"":0}",[0],M4 started opposing W2,W2 started opposing M4
1981.5,NA,NA,NA,NA,survey-likert-extra-labels,117,588924,0.0-43.0-2.0,anomymised,6565812bd48bb6bd55b14982,656703d558ca02d8320d92fa,76330,2B,man,NA,NA,W2 is being opposed by M4,oppose3,rating_volition,"{""Q0"":0}",[0],M4 wanted to oppose W2,W2 wanted to oppose M4
null,Beth is chasing Jane,NA,NA,NA,html-keyboard-response,118,590931,0.0-44.0-0.0,anomymised,6565812bd48bb6bd55b14982,656703d558ca02d8320d92fa,76330,2B,man,NA,null,W1 is chasing W3,chase,sentence,NA,NA,NA,NA
8993.300000071526,NA,NA,NA,NA,survey-likert-extra-labels,119,599926,0.0-44.0-2.0,anomymised,6565812bd48bb6bd55b14982,656703d558ca02d8320d92fa,76330,2B,man,NA,NA,W1 is chasing W3,chase,rating_volition,"{""Q0"":0}",[0],W1 is behind W3,W3 is behind W1
3615.2000000476837,NA,NA,NA,NA,survey-likert-extra-labels,120,603543,0.0-44.0-3.0-0.0,anomymised,6565812bd48bb6bd55b14982,656703d558ca02d8320d92fa,76330,2B,man,NA,NA,W1 is chasing W3,chase,rating_causation,"{""Q0"":6}",[0],W1 is running away from W3,W3 is running away from W1
null,Kate is carrying Ruth,NA,NA,NA,html-keyboard-response,121,605549,0.0-45.0-0.0,anomymised,6565812bd48bb6bd55b14982,656703d558ca02d8320d92fa,76330,2B,man,NA,null,W2 is carrying W4,carry,sentence,NA,NA,NA,NA
9527.200000047684,NA,NA,NA,NA,survey-likert-extra-labels,122,615077,0.0-45.0-1.0-0.0,anomymised,6565812bd48bb6bd55b14982,656703d558ca02d8320d92fa,76330,2B,man,NA,NA,W2 is carrying W4,carry,rating_causation,"{""Q0"":6}",[0],W2 is being moved by W4,W4 is being moved by W2
6265.199999928474,NA,NA,NA,NA,survey-likert-extra-labels,123,621344,0.0-45.0-2.0,anomymised,6565812bd48bb6bd55b14982,656703d558ca02d8320d92fa,76330,2B,man,NA,NA,W2 is carrying W4,carry,rating_volition,"{""Q0"":1}",[0],W2 is transporting W4,W4 is transporting W2
null,Kate is being shouted at by Mike,NA,NA,NA,html-keyboard-response,124,623347,0.0-46.0-0.0,anomymised,6565812bd48bb6bd55b14982,656703d558ca02d8320d92fa,76330,2B,man,NA,null,W2 is being shouted at by M4,shout4,sentence,NA,NA,NA,NA
2213,NA,NA,NA,NA,survey-likert-extra-labels,125,625561,0.0-46.0-2.0,anomymised,6565812bd48bb6bd55b14982,656703d558ca02d8320d92fa,76330,2B,man,NA,NA,W2 is being shouted at by M4,shout4,rating_volition,"{""Q0"":0}",[0],M4 wanted to shout at W2,W2 wanted to shout at M4
2002.6000000238419,NA,NA,NA,NA,survey-likert-extra-labels,126,627565,0.0-46.0-3.0-0.0,anomymised,6565812bd48bb6bd55b14982,656703d558ca02d8320d92fa,76330,2B,man,NA,NA,W2 is being shouted at by M4,shout4,rating_causation,"{""Q0"":0}",[0],M4 shouted at W2 first,W2 shouted at M4 first
null,Beth is being shouted at by Jane,NA,NA,NA,html-keyboard-response,127,629570,0.0-47.0-0.0,anomymised,6565812bd48bb6bd55b14982,656703d558ca02d8320d92fa,76330,2B,man,NA,null,W1 is being shouted at by W3,shout1,sentence,NA,NA,NA,NA
4223.899999976158,NA,NA,NA,NA,survey-likert-extra-labels,128,633795,0.0-47.0-1.0-0.0,anomymised,6565812bd48bb6bd55b14982,656703d558ca02d8320d92fa,76330,2B,man,NA,NA,W1 is being shouted at by W3,shout1,rating_causation,"{""Q0"":0}",[0],W3 shouted at W1 first,W1 shouted at W3 first
2764.7999999523163,NA,NA,NA,NA,survey-likert-extra-labels,129,636562,0.0-47.0-2.0,anomymised,6565812bd48bb6bd55b14982,656703d558ca02d8320d92fa,76330,2B,man,NA,NA,W1 is being shouted at by W3,shout1,rating_volition,"{""Q0"":0}",[0],W3 wanted to shout at W1,W1 wanted to shout at W3
null,Dave is being seduced by Mike,NA,NA,NA,html-keyboard-response,130,638568,0.0-48.0-0.0,anomymised,6565812bd48bb6bd55b14982,656703d558ca02d8320d92fa,76330,2B,man,NA,null,M2 is being seduced by M4,seduce2,sentence,NA,NA,NA,NA
5010.800000071526,NA,NA,NA,NA,survey-likert-extra-labels,131,643580,0.0-48.0-1.0-0.0,anomymised,6565812bd48bb6bd55b14982,656703d558ca02d8320d92fa,76330,2B,man,NA,NA,M2 is being seduced by M4,seduce2,rating_causation,"{""Q0"":1}",[0],M4 started seducing M2 first,M2 started seducing M4 first
3530,NA,NA,NA,NA,survey-likert-extra-labels,132,647113,0.0-48.0-2.0,anomymised,6565812bd48bb6bd55b14982,656703d558ca02d8320d92fa,76330,2B,man,NA,NA,M2 is being seduced by M4,seduce2,rating_volition,"{""Q0"":1}",[0],M4 wanted to seduce M2,M2 wanted to seduce M4
null,Luke is being looked at by Fred,NA,NA,NA,html-keyboard-response,133,649115,0.0-49.0-0.0,anomymised,6565812bd48bb6bd55b14982,656703d558ca02d8320d92fa,76330,2B,man,NA,null,M3 is being looked at by M1,look2,sentence,NA,NA,NA,NA
25732.600000023842,NA,NA,NA,NA,survey-likert-extra-labels,134,674849,0.0-49.0-2.0,anomymised,6565812bd48bb6bd55b14982,656703d558ca02d8320d92fa,76330,2B,man,NA,NA,M3 is being looked at by M1,look2,rating_volition,"{""Q0"":6}",[0],M3 wanted to look at M1,M1 wanted to look at M3
2164.7000000476837,NA,NA,NA,NA,survey-likert-extra-labels,135,677016,0.0-49.0-3.0-0.0,anomymised,6565812bd48bb6bd55b14982,656703d558ca02d8320d92fa,76330,2B,man,NA,NA,M3 is being looked at by M1,look2,rating_causation,"{""Q0"":6}",[0],M3 looked at M1 first,M1 looked at M3 first
null,Jane is being challenged by Fred,NA,NA,NA,html-keyboard-response,136,679022,0.0-50.0-0.0,anomymised,6565812bd48bb6bd55b14982,656703d558ca02d8320d92fa,76330,2B,man,NA,null,W3 is being challenged by M1,challenge4,sentence,NA,NA,NA,NA
2197.5,NA,NA,NA,NA,survey-likert-extra-labels,137,681221,0.0-50.0-1.0-0.0,anomymised,6565812bd48bb6bd55b14982,656703d558ca02d8320d92fa,76330,2B,man,NA,NA,W3 is being challenged by M1,challenge4,rating_causation,"{""Q0"":0}",[0],M1 started challenging W3 first,W3 started challenging M1 first
1927.3999999761581,NA,NA,NA,NA,survey-likert-extra-labels,138,683150,0.0-50.0-2.0,anomymised,6565812bd48bb6bd55b14982,656703d558ca02d8320d92fa,76330,2B,man,NA,NA,W3 is being challenged by M1,challenge4,rating_volition,"{""Q0"":0}",[0],M1 wanted to challenge W3,W3 wanted to challenge M1
null,Kate is being challenged by Ruth,NA,NA,NA,html-keyboard-response,139,685155,0.0-51.0-0.0,anomymised,6565812bd48bb6bd55b14982,656703d558ca02d8320d92fa,76330,2B,man,NA,null,W2 is being challenged by W4,challenge1,sentence,NA,NA,NA,NA
5262,NA,NA,NA,NA,survey-likert-extra-labels,140,690418,0.0-51.0-2.0,anomymised,6565812bd48bb6bd55b14982,656703d558ca02d8320d92fa,76330,2B,man,NA,NA,W2 is being challenged by W4,challenge1,rating_volition,"{""Q0"":0}",[0],W4 wanted to challenge W2,W2 wanted to challenge W4
2298.6999999284744,NA,NA,NA,NA,survey-likert-extra-labels,141,692718,0.0-51.0-3.0-0.0,anomymised,6565812bd48bb6bd55b14982,656703d558ca02d8320d92fa,76330,2B,man,NA,NA,W2 is being challenged by W4,challenge1,rating_causation,"{""Q0"":0}",[0],W4 started challenging W2 first,W2 started challenging W4 first
null,Dave is posing for Mike,NA,NA,NA,html-keyboard-response,142,694725,0.0-52.0-0.0,anomymised,6565812bd48bb6bd55b14982,656703d558ca02d8320d92fa,76330,2B,man,NA,null,M2 is posing for M4,pose,sentence,NA,NA,NA,NA
10776.399999976158,NA,NA,NA,NA,survey-likert-extra-labels,143,705995,0.0-52.0-1.0-0.0,anomymised,6565812bd48bb6bd55b14982,656703d558ca02d8320d92fa,76330,2B,man,NA,NA,M2 is posing for M4,pose,rating_causation,"{""Q0"":6}",[0],M2 is photographing M4,M4 is photographing M2
5114.899999976158,NA,NA,NA,NA,survey-likert-extra-labels,144,711112,0.0-52.0-2.0,anomymised,6565812bd48bb6bd55b14982,656703d558ca02d8320d92fa,76330,2B,man,NA,NA,M2 is posing for M4,pose,rating_volition,"{""Q0"":0}",[0],M2 is modelling for M4,M4 is modelling for M2
null,Ruth is being greeted by Kate,NA,NA,NA,html-keyboard-response,145,713117,0.0-53.0-0.0,anomymised,6565812bd48bb6bd55b14982,656703d558ca02d8320d92fa,76330,2B,man,NA,null,W4 is being greeted by W2,greet1,sentence,NA,NA,NA,NA
5144.300000071526,NA,NA,NA,NA,survey-likert-extra-labels,146,718262,0.0-53.0-1.0-0.0,anomymised,6565812bd48bb6bd55b14982,656703d558ca02d8320d92fa,76330,2B,man,NA,NA,W4 is being greeted by W2,greet1,rating_causation,"{""Q0"":6}",[0],W4 started greeting W2 first,W2 started greeting W4 first
2100.2000000476837,NA,NA,NA,NA,survey-likert-extra-labels,147,720366,0.0-53.0-2.0,anomymised,6565812bd48bb6bd55b14982,656703d558ca02d8320d92fa,76330,2B,man,NA,NA,W4 is being greeted by W2,greet1,rating_volition,"{""Q0"":6}",[0],W4 wanted to greet W2,W2 wanted to greet W4
null,Jane is being seduced by Fred,NA,NA,NA,html-keyboard-response,148,722374,0.0-54.0-0.0,anomymised,6565812bd48bb6bd55b14982,656703d558ca02d8320d92fa,76330,2B,man,NA,null,W3 is being seduced by M1,seduce3,sentence,NA,NA,NA,NA
3988.600000023842,NA,NA,NA,NA,survey-likert-extra-labels,149,726364,0.0-54.0-1.0-0.0,anomymised,6565812bd48bb6bd55b14982,656703d558ca02d8320d92fa,76330,2B,man,NA,NA,W3 is being seduced by M1,seduce3,rating_causation,"{""Q0"":0}",[0],M1 started seducing W3 first,W3 started seducing M1 first
3531.899999976158,NA,NA,NA,NA,survey-likert-extra-labels,150,729899,0.0-54.0-2.0,anomymised,6565812bd48bb6bd55b14982,656703d558ca02d8320d92fa,76330,2B,man,NA,NA,W3 is being seduced by M1,seduce3,rating_volition,"{""Q0"":0}",[0],M1 wanted to seduce W3,W3 wanted to seduce M1
1878.3999999761581,<p>Thank you for completing that task.</p><p>The final part of this session is a short questionnaire.</p><p>Press Continue.</p>,0,Continue,Continue,html-button-response,151,731780,0.0-55.0,anomymised,6565812bd48bb6bd55b14982,656703d558ca02d8320d92fa,76330,2B,man,NA,NA,NA,NA,NA,NA,NA,NA,NA
21961.700000047684,NA,NA,NA,NA,survey-text,152,754751,0.0-56.0,anomymised,6565812bd48bb6bd55b14982,656703d558ca02d8320d92fa,76330,2B,man,NA,NA,NA,NA,demographics,"{""Q0"":""37"",""Q1"":""Cantonese"",""Q2"":""English"",""Q3"":""UK"",""Q4"":""British"",""Q5"":""Chinese"",""Q6"":""Male""}",NA,NA,NA
3580.7000000476837,<p>This is the last question - thank you for taking part! Have you lived in the UK for the last 5 years or more?</p>,0,"Yes,No",Yes,html-button-response,153,758333,0.0-57.0,anomymised,6565812bd48bb6bd55b14982,656703d558ca02d8320d92fa,76330,2B,man,NA,NA,NA,NA,fiveyears,NA,NA,NA,NA
