rt,stimulus,button_pressed,choices,ChosenStimulus,trial_type,trial_index,time_elapsed,internal_node_id,subject_id,study_id,session_id,subject,list,ppt_gender,url,key_press,sentence_type,verb,test_part,responses,question_order,left_part,right_part
5274.899999976158,Welcome to the experiment. Press Continue to begin.,0,Continue,Continue,html-button-response,0,5283,0.0-0.0,anomymised,6565812bd48bb6bd55b14982,656702af7f4b45fc2bfe68fe,78067,2B,man,NA,NA,NA,NA,NA,NA,NA,NA,NA
29783.900000095367,NA,NA,NA,NA,external-html,1,37635,0.0-1.0,anomymised,6565812bd48bb6bd55b14982,656702af7f4b45fc2bfe68fe,78067,2B,man,consent.html,NA,NA,NA,NA,NA,NA,NA,NA
4488.399999976158,"<p>Welcome.</p><p>In this experiment we will ask you to imagine some situations.</p><p>Each trial starts with a description of an event.</p><p>Then you will see alternative descriptions of that event, and you will rate on a scale how best they match the original description.</p><p>You will give your answer by clicking a button on a rating scale.</p><p>To do this task, you will have to use your imagination to visualise these events.</p><br><p>Ready?</p>",0,Continue,Continue,html-button-response,2,42126,0.0-2.0,anomymised,6565812bd48bb6bd55b14982,656702af7f4b45fc2bfe68fe,78067,2B,man,NA,NA,NA,NA,NA,NA,NA,NA,NA
40965.299999952316,"<p>Before the experiment starts, you will watch an example trial. Press 'Continue'.</p>",0,Continue,Continue,html-button-response,3,84097,0.0-3.0,anomymised,6565812bd48bb6bd55b14982,656702af7f4b45fc2bfe68fe,78067,2B,man,NA,NA,NA,NA,NA,NA,NA,NA,NA
null,The police officer is arresting the robber,NA,NA,NA,html-keyboard-response,4,87131,0.0-4.0,anomymised,6565812bd48bb6bd55b14982,656702af7f4b45fc2bfe68fe,78067,2B,man,NA,null,NA,NA,NA,NA,NA,NA,NA
44564.700000047684,<img src='img/Example-trial.jpg' style='height:550px;''></img>,0,Continue,Continue,html-button-response,5,131698,0.0-5.0,anomymised,6565812bd48bb6bd55b14982,656702af7f4b45fc2bfe68fe,78067,2B,man,NA,NA,NA,NA,NA,NA,NA,NA,NA
10755.800000071526,<p>Ready to start the experiment?</p><br><p><strong>Remember to give an answer by clicking a button on the rating scale.</strong></p><p>Press 'Continue' to begin.</p>,0,Continue,Continue,html-button-response,6,143475,0.0-6.0,anomymised,6565812bd48bb6bd55b14982,656702af7f4b45fc2bfe68fe,78067,2B,man,NA,NA,NA,NA,NA,NA,NA,NA,NA
null,Ruth is being greeted by Kate,NA,NA,NA,html-keyboard-response,7,146506,0.0-7.0-0.0,anomymised,6565812bd48bb6bd55b14982,656702af7f4b45fc2bfe68fe,78067,2B,man,NA,null,W4 is being greeted by W2,greet1,sentence,NA,NA,NA,NA
61752.299999952316,NA,NA,NA,NA,survey-likert-extra-labels,8,208266,0.0-7.0-2.0,anomymised,6565812bd48bb6bd55b14982,656702af7f4b45fc2bfe68fe,78067,2B,man,NA,NA,W4 is being greeted by W2,greet1,rating_volition,"{""Q0"":6}",[0],W4 wanted to greet W2,W2 wanted to greet W4
7706.100000023842,NA,NA,NA,NA,survey-likert-extra-labels,9,215978,0.0-7.0-3.0-0.0,anomymised,6565812bd48bb6bd55b14982,656702af7f4b45fc2bfe68fe,78067,2B,man,NA,NA,W4 is being greeted by W2,greet1,rating_causation,"{""Q0"":""""}",[0],W4 started greeting W2 first,W2 started greeting W4 first
null,Luke is being seduced by Beth,NA,NA,NA,html-keyboard-response,10,217999,0.0-8.0-0.0,anomymised,6565812bd48bb6bd55b14982,656702af7f4b45fc2bfe68fe,78067,2B,man,NA,null,M3 is being seduced by W1,seduce4,sentence,NA,NA,NA,NA
20192.300000071526,NA,NA,NA,NA,survey-likert-extra-labels,11,238195,0.0-8.0-1.0-0.0,anomymised,6565812bd48bb6bd55b14982,656702af7f4b45fc2bfe68fe,78067,2B,man,NA,NA,M3 is being seduced by W1,seduce4,rating_causation,"{""Q0"":0}",[0],W1 started seducing M3 first,M3 started seducing W1 first
26149.899999976158,NA,NA,NA,NA,survey-likert-extra-labels,12,264352,0.0-8.0-2.0,anomymised,6565812bd48bb6bd55b14982,656702af7f4b45fc2bfe68fe,78067,2B,man,NA,NA,M3 is being seduced by W1,seduce4,rating_volition,"{""Q0"":0}",[0],W1 wanted to seducing M3,M3 wanted to seducing W1
null,Jane is being kissed by Beth,NA,NA,NA,html-keyboard-response,13,266371,0.0-9.0-0.0,anomymised,6565812bd48bb6bd55b14982,656702af7f4b45fc2bfe68fe,78067,2B,man,NA,null,W3 is being kissed by W1,kiss1,sentence,NA,NA,NA,NA
38206.5,NA,NA,NA,NA,survey-likert-extra-labels,14,304583,0.0-9.0-1.0-0.0,anomymised,6565812bd48bb6bd55b14982,656702af7f4b45fc2bfe68fe,78067,2B,man,NA,NA,W3 is being kissed by W1,kiss1,rating_causation,"{""Q0"":6}",[0],W3 asked to kiss W1,W1 asked to kiss W3
34295.89999997616,NA,NA,NA,NA,survey-likert-extra-labels,15,338884,0.0-9.0-2.0,anomymised,6565812bd48bb6bd55b14982,656702af7f4b45fc2bfe68fe,78067,2B,man,NA,NA,W3 is being kissed by W1,kiss1,rating_volition,"{""Q0"":6}",[0],W3 wanted to kiss W1,W1 wanted to kiss W3
null,Luke is being challenged by Beth,NA,NA,NA,html-keyboard-response,16,340902,0.0-10.0-0.0,anomymised,6565812bd48bb6bd55b14982,656702af7f4b45fc2bfe68fe,78067,2B,man,NA,null,M3 is being challenged by W1,challenge3,sentence,NA,NA,NA,NA
29736.899999976158,NA,NA,NA,NA,survey-likert-extra-labels,17,370642,0.0-10.0-1.0-0.0,anomymised,6565812bd48bb6bd55b14982,656702af7f4b45fc2bfe68fe,78067,2B,man,NA,NA,M3 is being challenged by W1,challenge3,rating_causation,"{""Q0"":6}",[0],W1 started challenging M3 first,M3 started challenging W1 first
11817.700000047684,NA,NA,NA,NA,survey-likert-extra-labels,18,382465,0.0-10.0-2.0,anomymised,6565812bd48bb6bd55b14982,656702af7f4b45fc2bfe68fe,78067,2B,man,NA,NA,M3 is being challenged by W1,challenge3,rating_volition,"{""Q0"":0}",[0],W1 wanted to challenge M3,M3 wanted to challenge W1
null,Jane is being touched by Fred,NA,NA,NA,html-keyboard-response,19,384472,0.0-11.0-0.0,anomymised,6565812bd48bb6bd55b14982,656702af7f4b45fc2bfe68fe,78067,2B,man,NA,null,W3 is being touched by M1,touch3,sentence,NA,NA,NA,NA
73365.90000009537,NA,NA,NA,NA,survey-likert-extra-labels,20,457841,0.0-11.0-1.0-0.0,anomymised,6565812bd48bb6bd55b14982,656702af7f4b45fc2bfe68fe,78067,2B,man,NA,NA,W3 is being touched by M1,touch3,rating_causation,"{""Q0"":0}",[0],M1 asked to touch W3,W3 asked to touch M1
16819.100000023842,NA,NA,NA,NA,survey-likert-extra-labels,21,474666,0.0-11.0-2.0,anomymised,6565812bd48bb6bd55b14982,656702af7f4b45fc2bfe68fe,78067,2B,man,NA,NA,W3 is being touched by M1,touch3,rating_volition,"{""Q0"":0}",[0],M1 wanted to touch W3,W3 wanted to touch M1
null,Dave is being touched by Mike,NA,NA,NA,html-keyboard-response,22,476679,0.0-12.0-0.0,anomymised,6565812bd48bb6bd55b14982,656702af7f4b45fc2bfe68fe,78067,2B,man,NA,null,M2 is being touched by M4,touch2,sentence,NA,NA,NA,NA
8264,NA,NA,NA,NA,survey-likert-extra-labels,23,484947,0.0-12.0-2.0,anomymised,6565812bd48bb6bd55b14982,656702af7f4b45fc2bfe68fe,78067,2B,man,NA,NA,M2 is being touched by M4,touch2,rating_volition,"{""Q0"":0}",[0],M4 wanted to touch M2,M2 wanted to touch M4
11311.100000023842,NA,NA,NA,NA,survey-likert-extra-labels,24,496263,0.0-12.0-3.0-0.0,anomymised,6565812bd48bb6bd55b14982,656702af7f4b45fc2bfe68fe,78067,2B,man,NA,NA,M2 is being touched by M4,touch2,rating_causation,"{""Q0"":0}",[0],M4 asked to touch M2,M2 asked to touch M4
null,Jane is feeding Fred,NA,NA,NA,html-keyboard-response,25,498270,0.0-13.0-0.0,anomymised,6565812bd48bb6bd55b14982,656702af7f4b45fc2bfe68fe,78067,2B,man,NA,null,W3 is feeding M1,feed,sentence,NA,NA,NA,NA
10431.5,NA,NA,NA,NA,survey-likert-extra-labels,26,508704,0.0-13.0-1.0-0.0,anomymised,6565812bd48bb6bd55b14982,656702af7f4b45fc2bfe68fe,78067,2B,man,NA,NA,W3 is feeding M1,feed,rating_causation,"{""Q0"":6}",[0],W3 is eating M1's food,M1 is eating W3's food
33547.5,NA,NA,NA,NA,survey-likert-extra-labels,27,542257,0.0-13.0-2.0,anomymised,6565812bd48bb6bd55b14982,656702af7f4b45fc2bfe68fe,78067,2B,man,NA,NA,W3 is feeding M1,feed,rating_volition,"{""Q0"":0}",[0],W3 cooked for M1,M1 cooked for W3
null,Dave is being challenged by Mike,NA,NA,NA,html-keyboard-response,28,544278,0.0-14.0-0.0,anomymised,6565812bd48bb6bd55b14982,656702af7f4b45fc2bfe68fe,78067,2B,man,NA,null,M2 is being challenged by M4,challenge2,sentence,NA,NA,NA,NA
19484.600000023842,NA,NA,NA,NA,survey-likert-extra-labels,29,563768,0.0-14.0-1.0-0.0,anomymised,6565812bd48bb6bd55b14982,656702af7f4b45fc2bfe68fe,78067,2B,man,NA,NA,M2 is being challenged by M4,challenge2,rating_causation,"{""Q0"":6}",[0],M4 started challenging M2 first,M2 started challenging M4 first
7360.899999976158,NA,NA,NA,NA,survey-likert-extra-labels,30,571134,0.0-14.0-2.0,anomymised,6565812bd48bb6bd55b14982,656702af7f4b45fc2bfe68fe,78067,2B,man,NA,NA,M2 is being challenged by M4,challenge2,rating_volition,"{""Q0"":""""}",[0],M4 wanted to challenge M2,M2 wanted to challenge M4
null,Luke is hiring Beth,NA,NA,NA,html-keyboard-response,31,573144,0.0-15.0-0.0,anomymised,6565812bd48bb6bd55b14982,656702af7f4b45fc2bfe68fe,78067,2B,man,NA,null,M3 is hiring W1,hire,sentence,NA,NA,NA,NA
18065,NA,NA,NA,NA,survey-likert-extra-labels,32,591213,0.0-15.0-2.0,anomymised,6565812bd48bb6bd55b14982,656702af7f4b45fc2bfe68fe,78067,2B,man,NA,NA,M3 is hiring W1,hire,rating_volition,"{""Q0"":0}",[0],M3 is employing W1,W1 is employing M3
12722.799999952316,NA,NA,NA,NA,survey-likert-extra-labels,33,603942,0.0-15.0-3.0-0.0,anomymised,6565812bd48bb6bd55b14982,656702af7f4b45fc2bfe68fe,78067,2B,man,NA,NA,M3 is hiring W1,hire,rating_causation,"{""Q0"":6}",[0],M3 will work for W1,W1 will work for M3
null,Beth is being copied by Luke,NA,NA,NA,html-keyboard-response,34,605952,0.0-16.0-0.0,anomymised,6565812bd48bb6bd55b14982,656702af7f4b45fc2bfe68fe,78067,2B,man,NA,null,W1 is being copied by M3,copy4,sentence,NA,NA,NA,NA
8152.100000023842,NA,NA,NA,NA,survey-likert-extra-labels,35,614108,0.0-16.0-1.0-0.0,anomymised,6565812bd48bb6bd55b14982,656702af7f4b45fc2bfe68fe,78067,2B,man,NA,NA,W1 is being copied by M3,copy4,rating_causation,"{""Q0"":6}",[0],W1 started copying M3 first,M3 started copying W1 first
11945.299999952316,NA,NA,NA,NA,survey-likert-extra-labels,36,626060,0.0-16.0-2.0,anomymised,6565812bd48bb6bd55b14982,656702af7f4b45fc2bfe68fe,78067,2B,man,NA,NA,W1 is being copied by M3,copy4,rating_volition,"{""Q0"":6}",[0],W1 wanted to copy M3,M3 wanted to copy W1
null,Kate is being touched by Ruth,NA,NA,NA,html-keyboard-response,37,628070,0.0-17.0-0.0,anomymised,6565812bd48bb6bd55b14982,656702af7f4b45fc2bfe68fe,78067,2B,man,NA,null,W2 is being touched by W4,touch1,sentence,NA,NA,NA,NA
11174.700000047684,NA,NA,NA,NA,survey-likert-extra-labels,38,639247,0.0-17.0-1.0-0.0,anomymised,6565812bd48bb6bd55b14982,656702af7f4b45fc2bfe68fe,78067,2B,man,NA,NA,W2 is being touched by W4,touch1,rating_causation,"{""Q0"":0}",[0],W4 asked to touch W2,W2 asked to touch W4
18248.5,NA,NA,NA,NA,survey-likert-extra-labels,39,657502,0.0-17.0-2.0,anomymised,6565812bd48bb6bd55b14982,656702af7f4b45fc2bfe68fe,78067,2B,man,NA,NA,W2 is being touched by W4,touch1,rating_volition,"{""Q0"":0}",[0],W4 wanted to touch W2,W2 wanted to touch W4
null,Kate is being challenged by Ruth,NA,NA,NA,html-keyboard-response,40,659521,0.0-18.0-0.0,anomymised,6565812bd48bb6bd55b14982,656702af7f4b45fc2bfe68fe,78067,2B,man,NA,null,W2 is being challenged by W4,challenge1,sentence,NA,NA,NA,NA
22405,NA,NA,NA,NA,survey-likert-extra-labels,41,681929,0.0-18.0-1.0-0.0,anomymised,6565812bd48bb6bd55b14982,656702af7f4b45fc2bfe68fe,78067,2B,man,NA,NA,W2 is being challenged by W4,challenge1,rating_causation,"{""Q0"":0}",[0],W4 started challenging W2 first,W2 started challenging W4 first
40831.800000071526,NA,NA,NA,NA,survey-likert-extra-labels,42,722767,0.0-18.0-2.0,anomymised,6565812bd48bb6bd55b14982,656702af7f4b45fc2bfe68fe,78067,2B,man,NA,NA,W2 is being challenged by W4,challenge1,rating_volition,"{""Q0"":0}",[0],W4 wanted to challenge W2,W2 wanted to challenge W4
null,Mike is being copied by Dave,NA,NA,NA,html-keyboard-response,43,724782,0.0-19.0-0.0,anomymised,6565812bd48bb6bd55b14982,656702af7f4b45fc2bfe68fe,78067,2B,man,NA,null,M4 is being copied by M2,copy2,sentence,NA,NA,NA,NA
10380,NA,NA,NA,NA,survey-likert-extra-labels,44,735166,0.0-19.0-2.0,anomymised,6565812bd48bb6bd55b14982,656702af7f4b45fc2bfe68fe,78067,2B,man,NA,NA,M4 is being copied by M2,copy2,rating_volition,"{""Q0"":0}",[0],M4 wanted to copy M2,M2 wanted to copy M4
19290.599999904633,NA,NA,NA,NA,survey-likert-extra-labels,45,754462,0.0-19.0-3.0-0.0,anomymised,6565812bd48bb6bd55b14982,656702af7f4b45fc2bfe68fe,78067,2B,man,NA,NA,M4 is being copied by M2,copy2,rating_causation,"{""Q0"":6}",[0],M4 started copying M2 first,M2 started copying M4 first
null,Mike is being looked at by Kate,NA,NA,NA,html-keyboard-response,46,756487,0.0-20.0-0.0,anomymised,6565812bd48bb6bd55b14982,656702af7f4b45fc2bfe68fe,78067,2B,man,NA,null,M4 is being looked at by W2,look3,sentence,NA,NA,NA,NA
8475.599999904633,NA,NA,NA,NA,survey-likert-extra-labels,47,764966,0.0-20.0-2.0,anomymised,6565812bd48bb6bd55b14982,656702af7f4b45fc2bfe68fe,78067,2B,man,NA,NA,M4 is being looked at by W2,look3,rating_volition,"{""Q0"":6}",[0],M4 wanted to look at W2,W2 wanted to look at M4
6252,NA,NA,NA,NA,survey-likert-extra-labels,48,771223,0.0-20.0-3.0-0.0,anomymised,6565812bd48bb6bd55b14982,656702af7f4b45fc2bfe68fe,78067,2B,man,NA,NA,M4 is being looked at by W2,look3,rating_causation,"{""Q0"":""""}",[0],M4 looked at W2 first,W2 looked at M4 first
null,Dave is being opposed by Ruth,NA,NA,NA,html-keyboard-response,49,773235,0.0-21.0-0.0,anomymised,6565812bd48bb6bd55b14982,656702af7f4b45fc2bfe68fe,78067,2B,man,NA,null,M2 is being opposed by W4,oppose4,sentence,NA,NA,NA,NA
11775.899999976158,NA,NA,NA,NA,survey-likert-extra-labels,50,785014,0.0-21.0-2.0,anomymised,6565812bd48bb6bd55b14982,656702af7f4b45fc2bfe68fe,78067,2B,man,NA,NA,M2 is being opposed by W4,oppose4,rating_volition,"{""Q0"":0}",[0],W4 wanted to oppose M2,M2 wanted to oppose W4
7901.599999904633,NA,NA,NA,NA,survey-likert-extra-labels,51,792922,0.0-21.0-3.0-0.0,anomymised,6565812bd48bb6bd55b14982,656702af7f4b45fc2bfe68fe,78067,2B,man,NA,NA,M2 is being opposed by W4,oppose4,rating_causation,"{""Q0"":0}",[0],W4 started opposing M2,M2 started opposing W4
null,Luke is being looked at by Fred,NA,NA,NA,html-keyboard-response,52,794930,0.0-22.0-0.0,anomymised,6565812bd48bb6bd55b14982,656702af7f4b45fc2bfe68fe,78067,2B,man,NA,null,M3 is being looked at by M1,look2,sentence,NA,NA,NA,NA
9627.100000023842,NA,NA,NA,NA,survey-likert-extra-labels,53,804562,0.0-22.0-1.0-0.0,anomymised,6565812bd48bb6bd55b14982,656702af7f4b45fc2bfe68fe,78067,2B,man,NA,NA,M3 is being looked at by M1,look2,rating_causation,"{""Q0"":6}",[0],M3 looked at M1 first,M1 looked at M3 first
14028.200000047684,NA,NA,NA,NA,survey-likert-extra-labels,54,818597,0.0-22.0-2.0,anomymised,6565812bd48bb6bd55b14982,656702af7f4b45fc2bfe68fe,78067,2B,man,NA,NA,M3 is being looked at by M1,look2,rating_volition,"{""Q0"":6}",[0],M3 wanted to look at M1,M1 wanted to look at M3
null,Luke is being touched by Beth,NA,NA,NA,html-keyboard-response,55,820606,0.0-23.0-0.0,anomymised,6565812bd48bb6bd55b14982,656702af7f4b45fc2bfe68fe,78067,2B,man,NA,null,M3 is being touched by W1,touch4,sentence,NA,NA,NA,NA
6910.799999952316,NA,NA,NA,NA,survey-likert-extra-labels,56,827520,0.0-23.0-2.0,anomymised,6565812bd48bb6bd55b14982,656702af7f4b45fc2bfe68fe,78067,2B,man,NA,NA,M3 is being touched by W1,touch4,rating_volition,"{""Q0"":0}",[0],W1 wanted to touch M3,M3 wanted to touch W1
11996.800000071526,NA,NA,NA,NA,survey-likert-extra-labels,57,839521,0.0-23.0-3.0-0.0,anomymised,6565812bd48bb6bd55b14982,656702af7f4b45fc2bfe68fe,78067,2B,man,NA,NA,M3 is being touched by W1,touch4,rating_causation,"{""Q0"":0}",[0],W1 asked to touch M3,M3 asked to touch W1
null,Luke is being kissed by Fred,NA,NA,NA,html-keyboard-response,58,841534,0.0-24.0-0.0,anomymised,6565812bd48bb6bd55b14982,656702af7f4b45fc2bfe68fe,78067,2B,man,NA,null,M3 is being kissed by M1,kiss2,sentence,NA,NA,NA,NA
7689.400000095367,NA,NA,NA,NA,survey-likert-extra-labels,59,849227,0.0-24.0-1.0-0.0,anomymised,6565812bd48bb6bd55b14982,656702af7f4b45fc2bfe68fe,78067,2B,man,NA,NA,M3 is being kissed by M1,kiss2,rating_causation,"{""Q0"":6}",[0],M3 asked to kiss M1,M1 asked to kiss M3
10087.199999928474,NA,NA,NA,NA,survey-likert-extra-labels,60,859321,0.0-24.0-2.0,anomymised,6565812bd48bb6bd55b14982,656702af7f4b45fc2bfe68fe,78067,2B,man,NA,NA,M3 is being kissed by M1,kiss2,rating_volition,"{""Q0"":6}",[0],M3 wanted to kiss M1,M1 wanted to kiss M3
null,Kate is being shouted at by Mike,NA,NA,NA,html-keyboard-response,61,861334,0.0-25.0-0.0,anomymised,6565812bd48bb6bd55b14982,656702af7f4b45fc2bfe68fe,78067,2B,man,NA,null,W2 is being shouted at by M4,shout4,sentence,NA,NA,NA,NA
10894.100000023842,NA,NA,NA,NA,survey-likert-extra-labels,62,872232,0.0-25.0-1.0-0.0,anomymised,6565812bd48bb6bd55b14982,656702af7f4b45fc2bfe68fe,78067,2B,man,NA,NA,W2 is being shouted at by M4,shout4,rating_causation,"{""Q0"":0}",[0],M4 shouted at W2 first,W2 shouted at M4 first
15057,NA,NA,NA,NA,survey-likert-extra-labels,63,887294,0.0-25.0-2.0,anomymised,6565812bd48bb6bd55b14982,656702af7f4b45fc2bfe68fe,78067,2B,man,NA,NA,W2 is being shouted at by M4,shout4,rating_volition,"{""Q0"":0}",[0],M4 wanted to shout at W2,W2 wanted to shout at M4
null,Kate is teaching Mike,NA,NA,NA,html-keyboard-response,64,889301,0.0-26.0-0.0,anomymised,6565812bd48bb6bd55b14982,656702af7f4b45fc2bfe68fe,78067,2B,man,NA,null,W2 is teaching M4,teach,sentence,NA,NA,NA,NA
9798.300000071526,NA,NA,NA,NA,survey-likert-extra-labels,65,899104,0.0-26.0-2.0,anomymised,6565812bd48bb6bd55b14982,656702af7f4b45fc2bfe68fe,78067,2B,man,NA,NA,W2 is teaching M4,teach,rating_volition,"{""Q0"":0}",[0],W2 is educating M4,M4 is educating W2
10684,NA,NA,NA,NA,survey-likert-extra-labels,66,909795,0.0-26.0-3.0-0.0,anomymised,6565812bd48bb6bd55b14982,656702af7f4b45fc2bfe68fe,78067,2B,man,NA,NA,W2 is teaching M4,teach,rating_causation,"{""Q0"":6}",[0],W2 is learning from M4,M4 is learning from W2
null,Beth is being shouted at by Jane,NA,NA,NA,html-keyboard-response,67,911810,0.0-27.0-0.0,anomymised,6565812bd48bb6bd55b14982,656702af7f4b45fc2bfe68fe,78067,2B,man,NA,null,W1 is being shouted at by W3,shout1,sentence,NA,NA,NA,NA
9260.299999952316,NA,NA,NA,NA,survey-likert-extra-labels,68,921074,0.0-27.0-1.0-0.0,anomymised,6565812bd48bb6bd55b14982,656702af7f4b45fc2bfe68fe,78067,2B,man,NA,NA,W1 is being shouted at by W3,shout1,rating_causation,"{""Q0"":0}",[0],W3 shouted at W1 first,W1 shouted at W3 first
10208.899999976158,NA,NA,NA,NA,survey-likert-extra-labels,69,931288,0.0-27.0-2.0,anomymised,6565812bd48bb6bd55b14982,656702af7f4b45fc2bfe68fe,78067,2B,man,NA,NA,W1 is being shouted at by W3,shout1,rating_volition,"{""Q0"":0}",[0],W3 wanted to shout at W1,W1 wanted to shout at W3
null,Mike is being greeted by Dave,NA,NA,NA,html-keyboard-response,70,933309,0.0-28.0-0.0,anomymised,6565812bd48bb6bd55b14982,656702af7f4b45fc2bfe68fe,78067,2B,man,NA,null,M4 is being greeted by M2,greet2,sentence,NA,NA,NA,NA
15308.699999928474,NA,NA,NA,NA,survey-likert-extra-labels,71,948621,0.0-28.0-2.0,anomymised,6565812bd48bb6bd55b14982,656702af7f4b45fc2bfe68fe,78067,2B,man,NA,NA,M4 is being greeted by M2,greet2,rating_volition,"{""Q0"":6}",[0],M4 wanted to greet M2,M2 wanted to greet M4
7843.5,NA,NA,NA,NA,survey-likert-extra-labels,72,956470,0.0-28.0-3.0-0.0,anomymised,6565812bd48bb6bd55b14982,656702af7f4b45fc2bfe68fe,78067,2B,man,NA,NA,M4 is being greeted by M2,greet2,rating_causation,"{""Q0"":6}",[0],M4 started greeting M2 first,M2 started greeting M4 first
null,Fred is driving Luke,NA,NA,NA,html-keyboard-response,73,958487,0.0-29.0-0.0,anomymised,6565812bd48bb6bd55b14982,656702af7f4b45fc2bfe68fe,78067,2B,man,NA,null,M1 is driving M3,drive,sentence,NA,NA,NA,NA
8994.199999928474,NA,NA,NA,NA,survey-likert-extra-labels,74,967485,0.0-29.0-2.0,anomymised,6565812bd48bb6bd55b14982,656702af7f4b45fc2bfe68fe,78067,2B,man,NA,NA,M1 is driving M3,drive,rating_volition,"{""Q0"":6}",[0],M1 is M3's passenger,M3 is M1's passenger
13978.099999904633,NA,NA,NA,NA,survey-likert-extra-labels,75,981469,0.0-29.0-3.0-0.0,anomymised,6565812bd48bb6bd55b14982,656702af7f4b45fc2bfe68fe,78067,2B,man,NA,NA,M1 is driving M3,drive,rating_causation,"{""Q0"":0}",[0],M1 is taking M3 somewhere,M3 is taking M1 somewhere
null,Kate is carrying Ruth,NA,NA,NA,html-keyboard-response,76,983485,0.0-30.0-0.0,anomymised,6565812bd48bb6bd55b14982,656702af7f4b45fc2bfe68fe,78067,2B,man,NA,null,W2 is carrying W4,carry,sentence,NA,NA,NA,NA
15864.899999976158,NA,NA,NA,NA,survey-likert-extra-labels,77,999354,0.0-30.0-1.0-0.0,anomymised,6565812bd48bb6bd55b14982,656702af7f4b45fc2bfe68fe,78067,2B,man,NA,NA,W2 is carrying W4,carry,rating_causation,"{""Q0"":6}",[0],W2 is being moved by W4,W4 is being moved by W2
7939.200000047684,NA,NA,NA,NA,survey-likert-extra-labels,78,1007300,0.0-30.0-2.0,anomymised,6565812bd48bb6bd55b14982,656702af7f4b45fc2bfe68fe,78067,2B,man,NA,NA,W2 is carrying W4,carry,rating_volition,"{""Q0"":0}",[0],W2 is transporting W4,W4 is transporting W2
null,Fred is being copied by Jane,NA,NA,NA,html-keyboard-response,79,1009320,0.0-31.0-0.0,anomymised,6565812bd48bb6bd55b14982,656702af7f4b45fc2bfe68fe,78067,2B,man,NA,null,M1 is being copied by W3,copy3,sentence,NA,NA,NA,NA
9976.100000023842,NA,NA,NA,NA,survey-likert-extra-labels,80,1019300,0.0-31.0-1.0-0.0,anomymised,6565812bd48bb6bd55b14982,656702af7f4b45fc2bfe68fe,78067,2B,man,NA,NA,M1 is being copied by W3,copy3,rating_causation,"{""Q0"":6}",[0],M1 started copying W3 first,W3 started copying M1 first
7469.600000023842,NA,NA,NA,NA,survey-likert-extra-labels,81,1026775,0.0-31.0-2.0,anomymised,6565812bd48bb6bd55b14982,656702af7f4b45fc2bfe68fe,78067,2B,man,NA,NA,M1 is being copied by W3,copy3,rating_volition,"{""Q0"":6}",[0],M1 wanted to copy W3,W3 wanted to copy M1
null,Dave is being seduced by Mike,NA,NA,NA,html-keyboard-response,82,1028795,0.0-32.0-0.0,anomymised,6565812bd48bb6bd55b14982,656702af7f4b45fc2bfe68fe,78067,2B,man,NA,null,M2 is being seduced by M4,seduce2,sentence,NA,NA,NA,NA
11462.5,NA,NA,NA,NA,survey-likert-extra-labels,83,1040261,0.0-32.0-2.0,anomymised,6565812bd48bb6bd55b14982,656702af7f4b45fc2bfe68fe,78067,2B,man,NA,NA,M2 is being seduced by M4,seduce2,rating_volition,"{""Q0"":0}",[0],M4 wanted to seduce M2,M2 wanted to seduce M4
12285.100000023842,NA,NA,NA,NA,survey-likert-extra-labels,84,1052554,0.0-32.0-3.0-0.0,anomymised,6565812bd48bb6bd55b14982,656702af7f4b45fc2bfe68fe,78067,2B,man,NA,NA,M2 is being seduced by M4,seduce2,rating_causation,"{""Q0"":0}",[0],M4 started seducing M2 first,M2 started seducing M4 first
null,Kate is being hugged by Mike,NA,NA,NA,html-keyboard-response,85,1054575,0.0-33.0-0.0,anomymised,6565812bd48bb6bd55b14982,656702af7f4b45fc2bfe68fe,78067,2B,man,NA,null,W2 is being hugged by M4,hug3,sentence,NA,NA,NA,NA
11140.700000047684,NA,NA,NA,NA,survey-likert-extra-labels,86,1065720,0.0-33.0-2.0,anomymised,6565812bd48bb6bd55b14982,656702af7f4b45fc2bfe68fe,78067,2B,man,NA,NA,W2 is being hugged by M4,hug3,rating_volition,"{""Q0"":0}",[0],M4 wanted to hug W2,W2 wanted to hug M4
22860.299999952316,NA,NA,NA,NA,survey-likert-extra-labels,87,1088586,0.0-33.0-3.0-0.0,anomymised,6565812bd48bb6bd55b14982,656702af7f4b45fc2bfe68fe,78067,2B,man,NA,NA,W2 is being hugged by M4,hug3,rating_causation,"{""Q0"":0}",[0],M4 asked to hug W2,W2 asked to hug M4
null,Kate is being opposed by Mike,NA,NA,NA,html-keyboard-response,88,1090602,0.0-34.0-0.0,anomymised,6565812bd48bb6bd55b14982,656702af7f4b45fc2bfe68fe,78067,2B,man,NA,null,W2 is being opposed by M4,oppose3,sentence,NA,NA,NA,NA
19231.5,NA,NA,NA,NA,survey-likert-extra-labels,89,1109837,0.0-34.0-1.0-0.0,anomymised,6565812bd48bb6bd55b14982,656702af7f4b45fc2bfe68fe,78067,2B,man,NA,NA,W2 is being opposed by M4,oppose3,rating_causation,"{""Q0"":0}",[0],M4 started opposing W2,W2 started opposing M4
7499.700000047684,NA,NA,NA,NA,survey-likert-extra-labels,90,1117343,0.0-34.0-2.0,anomymised,6565812bd48bb6bd55b14982,656702af7f4b45fc2bfe68fe,78067,2B,man,NA,NA,W2 is being opposed by M4,oppose3,rating_volition,"{""Q0"":0}",[0],M4 wanted to oppose W2,W2 wanted to oppose M4
null,Fred is being hugged by Luke,NA,NA,NA,html-keyboard-response,91,1119354,0.0-35.0-0.0,anomymised,6565812bd48bb6bd55b14982,656702af7f4b45fc2bfe68fe,78067,2B,man,NA,null,M1 is being hugged by M3,hug2,sentence,NA,NA,NA,NA
12005.599999904633,NA,NA,NA,NA,survey-likert-extra-labels,92,1131363,0.0-35.0-2.0,anomymised,6565812bd48bb6bd55b14982,656702af7f4b45fc2bfe68fe,78067,2B,man,NA,NA,M1 is being hugged by M3,hug2,rating_volition,"{""Q0"":0}",[0],M3 wanted to hug M1,M1 wanted to hug M3
24999.100000023842,NA,NA,NA,NA,survey-likert-extra-labels,93,1156369,0.0-35.0-3.0-0.0,anomymised,6565812bd48bb6bd55b14982,656702af7f4b45fc2bfe68fe,78067,2B,man,NA,NA,M1 is being hugged by M3,hug2,rating_causation,"{""Q0"":0}",[0],M3 asked to hug M1,M1 asked to hug M3
null,Beth is being hugged by Jane,NA,NA,NA,html-keyboard-response,94,1158386,0.0-36.0-0.0,anomymised,6565812bd48bb6bd55b14982,656702af7f4b45fc2bfe68fe,78067,2B,man,NA,null,W1 is being hugged by W3,hug1,sentence,NA,NA,NA,NA
12158,NA,NA,NA,NA,survey-likert-extra-labels,95,1170547,0.0-36.0-2.0,anomymised,6565812bd48bb6bd55b14982,656702af7f4b45fc2bfe68fe,78067,2B,man,NA,NA,W1 is being hugged by W3,hug1,rating_volition,"{""Q0"":0}",[0],W3 wanted to hug W1,W1 wanted to hug W3
13725.300000071526,NA,NA,NA,NA,survey-likert-extra-labels,96,1184277,0.0-36.0-3.0-0.0,anomymised,6565812bd48bb6bd55b14982,656702af7f4b45fc2bfe68fe,78067,2B,man,NA,NA,W1 is being hugged by W3,hug1,rating_causation,"{""Q0"":0}",[0],W3 asked to hug W1,W1 asked to hug W3
null,Mike is being kissed by Kate,NA,NA,NA,html-keyboard-response,97,1186291,0.0-37.0-0.0,anomymised,6565812bd48bb6bd55b14982,656702af7f4b45fc2bfe68fe,78067,2B,man,NA,null,M4 is being kissed by W2,kiss4,sentence,NA,NA,NA,NA
8841.900000095367,NA,NA,NA,NA,survey-likert-extra-labels,98,1195136,0.0-37.0-2.0,anomymised,6565812bd48bb6bd55b14982,656702af7f4b45fc2bfe68fe,78067,2B,man,NA,NA,M4 is being kissed by W2,kiss4,rating_volition,"{""Q0"":6}",[0],M4 wanted to kiss W2,W2 wanted to kiss M4
4479.899999976158,NA,NA,NA,NA,survey-likert-extra-labels,99,1199622,0.0-37.0-3.0-0.0,anomymised,6565812bd48bb6bd55b14982,656702af7f4b45fc2bfe68fe,78067,2B,man,NA,NA,M4 is being kissed by W2,kiss4,rating_causation,"{""Q0"":""""}",[0],M4 asked to kiss W2,W2 asked to kiss M4
null,Fred is being greeted by Jane,NA,NA,NA,html-keyboard-response,100,1201640,0.0-38.0-0.0,anomymised,6565812bd48bb6bd55b14982,656702af7f4b45fc2bfe68fe,78067,2B,man,NA,null,M1 is being greeted by W3,greet4,sentence,NA,NA,NA,NA
13183.599999904633,NA,NA,NA,NA,survey-likert-extra-labels,101,1214827,0.0-38.0-1.0-0.0,anomymised,6565812bd48bb6bd55b14982,656702af7f4b45fc2bfe68fe,78067,2B,man,NA,NA,M1 is being greeted by W3,greet4,rating_causation,"{""Q0"":6}",[0],M1 started greeting W3 first,W3 started greeting M1 first
1538,NA,NA,NA,NA,survey-likert-extra-labels,102,1216372,0.0-38.0-2.0,anomymised,6565812bd48bb6bd55b14982,656702af7f4b45fc2bfe68fe,78067,2B,man,NA,NA,M1 is being greeted by W3,greet4,rating_volition,"{""Q0"":""""}",[0],M1 wanted to greet W3,W3 wanted to greet M1
null,Dave is being shouted at by Ruth,NA,NA,NA,html-keyboard-response,103,1218386,0.0-39.0-0.0,anomymised,6565812bd48bb6bd55b14982,656702af7f4b45fc2bfe68fe,78067,2B,man,NA,null,M2 is being shouted at by W4,shout3,sentence,NA,NA,NA,NA
8243.299999952316,NA,NA,NA,NA,survey-likert-extra-labels,104,1226633,0.0-39.0-1.0-0.0,anomymised,6565812bd48bb6bd55b14982,656702af7f4b45fc2bfe68fe,78067,2B,man,NA,NA,M2 is being shouted at by W4,shout3,rating_causation,"{""Q0"":0}",[0],W4 shouted at M2 first,M2 shouted at W4 first
9033.200000047684,NA,NA,NA,NA,survey-likert-extra-labels,105,1235671,0.0-39.0-2.0,anomymised,6565812bd48bb6bd55b14982,656702af7f4b45fc2bfe68fe,78067,2B,man,NA,NA,M2 is being shouted at by W4,shout3,rating_volition,"{""Q0"":0}",[0],W4 wanted to shout at M2,M2 wanted to shout at W4
null,Dave is being hugged by Ruth,NA,NA,NA,html-keyboard-response,106,1237677,0.0-40.0-0.0,anomymised,6565812bd48bb6bd55b14982,656702af7f4b45fc2bfe68fe,78067,2B,man,NA,null,M2 is being hugged by W4,hug4,sentence,NA,NA,NA,NA
7508.600000023842,NA,NA,NA,NA,survey-likert-extra-labels,107,1245189,0.0-40.0-1.0-0.0,anomymised,6565812bd48bb6bd55b14982,656702af7f4b45fc2bfe68fe,78067,2B,man,NA,NA,M2 is being hugged by W4,hug4,rating_causation,"{""Q0"":0}",[0],W4 asked to hug M2,M2 asked to hug W4
6794.600000023842,NA,NA,NA,NA,survey-likert-extra-labels,108,1251989,0.0-40.0-2.0,anomymised,6565812bd48bb6bd55b14982,656702af7f4b45fc2bfe68fe,78067,2B,man,NA,NA,M2 is being hugged by W4,hug4,rating_volition,"{""Q0"":0}",[0],W4 wanted to hug M2,M2 wanted to hug W4
null,Jane is being challenged by Fred,NA,NA,NA,html-keyboard-response,109,1254002,0.0-41.0-0.0,anomymised,6565812bd48bb6bd55b14982,656702af7f4b45fc2bfe68fe,78067,2B,man,NA,null,W3 is being challenged by M1,challenge4,sentence,NA,NA,NA,NA
7748.899999976158,NA,NA,NA,NA,survey-likert-extra-labels,110,1261754,0.0-41.0-1.0-0.0,anomymised,6565812bd48bb6bd55b14982,656702af7f4b45fc2bfe68fe,78067,2B,man,NA,NA,W3 is being challenged by M1,challenge4,rating_causation,"{""Q0"":0}",[0],M1 started challenging W3 first,W3 started challenging M1 first
10468.900000095367,NA,NA,NA,NA,survey-likert-extra-labels,111,1272228,0.0-41.0-2.0,anomymised,6565812bd48bb6bd55b14982,656702af7f4b45fc2bfe68fe,78067,2B,man,NA,NA,W3 is being challenged by M1,challenge4,rating_volition,"{""Q0"":0}",[0],M1 wanted to challenge W3,W3 wanted to challenge M1
null,Beth is chasing Jane,NA,NA,NA,html-keyboard-response,112,1274237,0.0-42.0-0.0,anomymised,6565812bd48bb6bd55b14982,656702af7f4b45fc2bfe68fe,78067,2B,man,NA,null,W1 is chasing W3,chase,sentence,NA,NA,NA,NA
15867.400000095367,NA,NA,NA,NA,survey-likert-extra-labels,113,1290108,0.0-42.0-1.0-0.0,anomymised,6565812bd48bb6bd55b14982,656702af7f4b45fc2bfe68fe,78067,2B,man,NA,NA,W1 is chasing W3,chase,rating_causation,"{""Q0"":6}",[0],W1 is running away from W3,W3 is running away from W1
14817.299999952316,NA,NA,NA,NA,survey-likert-extra-labels,114,1304930,0.0-42.0-2.0,anomymised,6565812bd48bb6bd55b14982,656702af7f4b45fc2bfe68fe,78067,2B,man,NA,NA,W1 is chasing W3,chase,rating_volition,"{""Q0"":0}",[0],W1 is behind W3,W3 is behind W1
null,Jane is being seduced by Fred,NA,NA,NA,html-keyboard-response,115,1306936,0.0-43.0-0.0,anomymised,6565812bd48bb6bd55b14982,656702af7f4b45fc2bfe68fe,78067,2B,man,NA,null,W3 is being seduced by M1,seduce3,sentence,NA,NA,NA,NA
7889.899999976158,NA,NA,NA,NA,survey-likert-extra-labels,116,1314830,0.0-43.0-2.0,anomymised,6565812bd48bb6bd55b14982,656702af7f4b45fc2bfe68fe,78067,2B,man,NA,NA,W3 is being seduced by M1,seduce3,rating_volition,"{""Q0"":0}",[0],M1 wanted to seduce W3,W3 wanted to seduce M1
7801.800000071526,NA,NA,NA,NA,survey-likert-extra-labels,117,1322637,0.0-43.0-3.0-0.0,anomymised,6565812bd48bb6bd55b14982,656702af7f4b45fc2bfe68fe,78067,2B,man,NA,NA,W3 is being seduced by M1,seduce3,rating_causation,"{""Q0"":0}",[0],M1 started seducing W3 first,W3 started seducing M1 first
null,Ruth is being copied by Kate,NA,NA,NA,html-keyboard-response,118,1324652,0.0-44.0-0.0,anomymised,6565812bd48bb6bd55b14982,656702af7f4b45fc2bfe68fe,78067,2B,man,NA,null,W4 is being copied by W2,copy1,sentence,NA,NA,NA,NA
5720.599999904633,NA,NA,NA,NA,survey-likert-extra-labels,119,1330376,0.0-44.0-2.0,anomymised,6565812bd48bb6bd55b14982,656702af7f4b45fc2bfe68fe,78067,2B,man,NA,NA,W4 is being copied by W2,copy1,rating_volition,"{""Q0"":6}",[0],W4 wanted to copy W2,W2 wanted to copy W4
11124.299999952316,NA,NA,NA,NA,survey-likert-extra-labels,120,1341505,0.0-44.0-3.0-0.0,anomymised,6565812bd48bb6bd55b14982,656702af7f4b45fc2bfe68fe,78067,2B,man,NA,NA,W4 is being copied by W2,copy1,rating_causation,"{""Q0"":6}",[0],W4 started copying W2 first,W2 started copying W4 first
null,Kate is being seduced by Ruth,NA,NA,NA,html-keyboard-response,121,1343519,0.0-45.0-0.0,anomymised,6565812bd48bb6bd55b14982,656702af7f4b45fc2bfe68fe,78067,2B,man,NA,null,W2 is being seduced by W4,seduce1,sentence,NA,NA,NA,NA
8770.600000023842,NA,NA,NA,NA,survey-likert-extra-labels,122,1352293,0.0-45.0-1.0-0.0,anomymised,6565812bd48bb6bd55b14982,656702af7f4b45fc2bfe68fe,78067,2B,man,NA,NA,W2 is being seduced by W4,seduce1,rating_causation,"{""Q0"":0}",[0],W4 started seducing W2 first,W2 started seducing W4 first
12677.799999952316,NA,NA,NA,NA,survey-likert-extra-labels,123,1364977,0.0-45.0-2.0,anomymised,6565812bd48bb6bd55b14982,656702af7f4b45fc2bfe68fe,78067,2B,man,NA,NA,W2 is being seduced by W4,seduce1,rating_volition,"{""Q0"":0}",[0],W4 wanted to seduce W2,W2 wanted to seduce W4
null,Fred is being opposed by Luke,NA,NA,NA,html-keyboard-response,124,1366987,0.0-46.0-0.0,anomymised,6565812bd48bb6bd55b14982,656702af7f4b45fc2bfe68fe,78067,2B,man,NA,null,M1 is being opposed by M3,oppose2,sentence,NA,NA,NA,NA
15326.5,NA,NA,NA,NA,survey-likert-extra-labels,125,1382317,0.0-46.0-2.0,anomymised,6565812bd48bb6bd55b14982,656702af7f4b45fc2bfe68fe,78067,2B,man,NA,NA,M1 is being opposed by M3,oppose2,rating_volition,"{""Q0"":0}",[0],M3 wanted to oppose M1,M1 wanted to oppose M3
6992.100000023842,NA,NA,NA,NA,survey-likert-extra-labels,126,1389317,0.0-46.0-3.0-0.0,anomymised,6565812bd48bb6bd55b14982,656702af7f4b45fc2bfe68fe,78067,2B,man,NA,NA,M1 is being opposed by M3,oppose2,rating_causation,"{""Q0"":0}",[0],M3 started opposing M1,M1 started opposing M3
null,Dave is reminding Ruth,NA,NA,NA,html-keyboard-response,127,1391335,0.0-47.0-0.0,anomymised,6565812bd48bb6bd55b14982,656702af7f4b45fc2bfe68fe,78067,2B,man,NA,null,M2 is reminding W4,remind,sentence,NA,NA,NA,NA
8450.299999952316,NA,NA,NA,NA,survey-likert-extra-labels,128,1399789,0.0-47.0-1.0-0.0,anomymised,6565812bd48bb6bd55b14982,656702af7f4b45fc2bfe68fe,78067,2B,man,NA,NA,M2 is reminding W4,remind,rating_causation,"{""Q0"":6}",[0],M2 is remembering,W4 is remembering
11789.799999952316,NA,NA,NA,NA,survey-likert-extra-labels,129,1411584,0.0-47.0-2.0,anomymised,6565812bd48bb6bd55b14982,656702af7f4b45fc2bfe68fe,78067,2B,man,NA,NA,M2 is reminding W4,remind,rating_volition,"{""Q0"":0}",[0],M2 is telling W4 again,W4 is telling M2 again
null,Jane is being looked at by Beth,NA,NA,NA,html-keyboard-response,130,1413592,0.0-48.0-0.0,anomymised,6565812bd48bb6bd55b14982,656702af7f4b45fc2bfe68fe,78067,2B,man,NA,null,W3 is being looked at by W1,look1,sentence,NA,NA,NA,NA
6927.199999928474,NA,NA,NA,NA,survey-likert-extra-labels,131,1420523,0.0-48.0-2.0,anomymised,6565812bd48bb6bd55b14982,656702af7f4b45fc2bfe68fe,78067,2B,man,NA,NA,W3 is being looked at by W1,look1,rating_volition,"{""Q0"":6}",[0],W3 wanted to look at W1,W1 wanted to look at W3
8525.799999952316,NA,NA,NA,NA,survey-likert-extra-labels,132,1429053,0.0-48.0-3.0-0.0,anomymised,6565812bd48bb6bd55b14982,656702af7f4b45fc2bfe68fe,78067,2B,man,NA,NA,W3 is being looked at by W1,look1,rating_causation,"{""Q0"":6}",[0],W3 looked at W1 first,W1 looked at W3 first
null,Beth is being opposed by Jane,NA,NA,NA,html-keyboard-response,133,1431069,0.0-49.0-0.0,anomymised,6565812bd48bb6bd55b14982,656702af7f4b45fc2bfe68fe,78067,2B,man,NA,null,W1 is being opposed by W3,oppose1,sentence,NA,NA,NA,NA
10535,NA,NA,NA,NA,survey-likert-extra-labels,134,1441608,0.0-49.0-1.0-0.0,anomymised,6565812bd48bb6bd55b14982,656702af7f4b45fc2bfe68fe,78067,2B,man,NA,NA,W1 is being opposed by W3,oppose1,rating_causation,"{""Q0"":0}",[0],W3 started opposing W1,W1 started opposing W3
8243.399999976158,NA,NA,NA,NA,survey-likert-extra-labels,135,1449856,0.0-49.0-2.0,anomymised,6565812bd48bb6bd55b14982,656702af7f4b45fc2bfe68fe,78067,2B,man,NA,NA,W1 is being opposed by W3,oppose1,rating_volition,"{""Q0"":0}",[0],W3 wanted to oppose W1,W1 wanted to oppose W3
null,Fred is being shouted at by Luke,NA,NA,NA,html-keyboard-response,136,1451868,0.0-50.0-0.0,anomymised,6565812bd48bb6bd55b14982,656702af7f4b45fc2bfe68fe,78067,2B,man,NA,null,M1 is being shouted at by M3,shout2,sentence,NA,NA,NA,NA
7471.399999976158,NA,NA,NA,NA,survey-likert-extra-labels,137,1459344,0.0-50.0-1.0-0.0,anomymised,6565812bd48bb6bd55b14982,656702af7f4b45fc2bfe68fe,78067,2B,man,NA,NA,M1 is being shouted at by M3,shout2,rating_causation,"{""Q0"":0}",[0],M3 shouted at M1 first,M1 shouted at M3 first
12438.399999976158,NA,NA,NA,NA,survey-likert-extra-labels,138,1471790,0.0-50.0-2.0,anomymised,6565812bd48bb6bd55b14982,656702af7f4b45fc2bfe68fe,78067,2B,man,NA,NA,M1 is being shouted at by M3,shout2,rating_volition,"{""Q0"":6}",[0],M3 wanted to shout at M1,M1 wanted to shout at M3
null,Ruth is being kissed by Dave,NA,NA,NA,html-keyboard-response,139,1473810,0.0-51.0-0.0,anomymised,6565812bd48bb6bd55b14982,656702af7f4b45fc2bfe68fe,78067,2B,man,NA,null,W4 is being kissed by M2,kiss3,sentence,NA,NA,NA,NA
7121.200000047684,NA,NA,NA,NA,survey-likert-extra-labels,140,1480935,0.0-51.0-1.0-0.0,anomymised,6565812bd48bb6bd55b14982,656702af7f4b45fc2bfe68fe,78067,2B,man,NA,NA,W4 is being kissed by M2,kiss3,rating_causation,"{""Q0"":6}",[0],W4 asked to kiss M2,M2 asked to kiss W4
11112.799999952316,NA,NA,NA,NA,survey-likert-extra-labels,141,1492052,0.0-51.0-2.0,anomymised,6565812bd48bb6bd55b14982,656702af7f4b45fc2bfe68fe,78067,2B,man,NA,NA,W4 is being kissed by M2,kiss3,rating_volition,"{""Q0"":6}",[0],W4 wanted to kiss M2,M2 wanted to kiss W4
null,Ruth is being looked at by Dave,NA,NA,NA,html-keyboard-response,142,1494068,0.0-52.0-0.0,anomymised,6565812bd48bb6bd55b14982,656702af7f4b45fc2bfe68fe,78067,2B,man,NA,null,W4 is being looked at by M2,look4,sentence,NA,NA,NA,NA
9996.300000071526,NA,NA,NA,NA,survey-likert-extra-labels,143,1504067,0.0-52.0-2.0,anomymised,6565812bd48bb6bd55b14982,656702af7f4b45fc2bfe68fe,78067,2B,man,NA,NA,W4 is being looked at by M2,look4,rating_volition,"{""Q0"":6}",[0],W4 wanted to look at M2,M2 wanted to look at W4
1124.7999999523163,NA,NA,NA,NA,survey-likert-extra-labels,144,1505200,0.0-52.0-3.0-0.0,anomymised,6565812bd48bb6bd55b14982,656702af7f4b45fc2bfe68fe,78067,2B,man,NA,NA,W4 is being looked at by M2,look4,rating_causation,"{""Q0"":""""}",[0],W4 looked at M2 first,M2 looked at W4 first
null,Dave is posing for Mike,NA,NA,NA,html-keyboard-response,145,1507208,0.0-53.0-0.0,anomymised,6565812bd48bb6bd55b14982,656702af7f4b45fc2bfe68fe,78067,2B,man,NA,null,M2 is posing for M4,pose,sentence,NA,NA,NA,NA
9016.600000023842,NA,NA,NA,NA,survey-likert-extra-labels,146,1516228,0.0-53.0-1.0-0.0,anomymised,6565812bd48bb6bd55b14982,656702af7f4b45fc2bfe68fe,78067,2B,man,NA,NA,M2 is posing for M4,pose,rating_causation,"{""Q0"":6}",[0],M2 is photographing M4,M4 is photographing M2
12620.200000047684,NA,NA,NA,NA,survey-likert-extra-labels,147,1528855,0.0-53.0-2.0,anomymised,6565812bd48bb6bd55b14982,656702af7f4b45fc2bfe68fe,78067,2B,man,NA,NA,M2 is posing for M4,pose,rating_volition,"{""Q0"":6}",[0],M2 is modelling for M4,M4 is modelling for M2
null,Beth is being greeted by Luke,NA,NA,NA,html-keyboard-response,148,1530869,0.0-54.0-0.0,anomymised,6565812bd48bb6bd55b14982,656702af7f4b45fc2bfe68fe,78067,2B,man,NA,null,W1 is being greeted by M3,greet3,sentence,NA,NA,NA,NA
6188.5,NA,NA,NA,NA,survey-likert-extra-labels,149,1537062,0.0-54.0-2.0,anomymised,6565812bd48bb6bd55b14982,656702af7f4b45fc2bfe68fe,78067,2B,man,NA,NA,W1 is being greeted by M3,greet3,rating_volition,"{""Q0"":6}",[0],W1 wanted to greet M3,M3 wanted to greet W1
18155.599999904633,NA,NA,NA,NA,survey-likert-extra-labels,150,1555223,0.0-54.0-3.0-0.0,anomymised,6565812bd48bb6bd55b14982,656702af7f4b45fc2bfe68fe,78067,2B,man,NA,NA,W1 is being greeted by M3,greet3,rating_causation,"{""Q0"":6}",[0],W1 started greeting M3 first,M3 started greeting W1 first
8993.200000047684,<p>Thank you for completing that task.</p><p>The final part of this session is a short questionnaire.</p><p>Press Continue.</p>,0,Continue,Continue,html-button-response,151,1564221,0.0-55.0,anomymised,6565812bd48bb6bd55b14982,656702af7f4b45fc2bfe68fe,78067,2B,man,NA,NA,NA,NA,NA,NA,NA,NA,NA
113697.70000004768,NA,NA,NA,NA,survey-text,152,1678991,0.0-56.0,anomymised,6565812bd48bb6bd55b14982,656702af7f4b45fc2bfe68fe,78067,2B,man,NA,NA,NA,NA,demographics,"{""Q0"":""25"",""Q1"":""english"",""Q2"":""english"",""Q3"":""united kingdom"",""Q4"":""nigeria"",""Q5"":""black "",""Q6"":""male""}",NA,NA,NA
5185.600000023842,<p>This is the last question - thank you for taking part! Have you lived in the UK for the last 5 years or more?</p>,0,"Yes,No",Yes,html-button-response,153,1684180,0.0-57.0,anomymised,6565812bd48bb6bd55b14982,656702af7f4b45fc2bfe68fe,78067,2B,man,NA,NA,NA,NA,fiveyears,NA,NA,NA,NA
