rt,stimulus,button_pressed,choices,ChosenStimulus,trial_type,trial_index,time_elapsed,internal_node_id,subject_id,study_id,session_id,subject,list,ppt_gender,url,key_press,sentence_type,verb,test_part,responses,question_order,left_part,right_part
1823.3999999761581,Welcome to the experiment. Press Continue to begin.,0,Continue,Continue,html-button-response,0,1826,0.0-0.0,anomymised,6565831db6b8903cc398def3,656766b5dddb719fc45bc983,81477,2C,woman,NA,NA,NA,NA,NA,NA,NA,NA,NA
10407.299999952316,NA,NA,NA,NA,external-html,1,13297,0.0-1.0,anomymised,6565831db6b8903cc398def3,656766b5dddb719fc45bc983,81477,2C,woman,consent.html,NA,NA,NA,NA,NA,NA,NA,NA
3911,"<p>Welcome.</p><p>In this experiment we will ask you to imagine some situations.</p><p>Each trial starts with a description of an event.</p><p>Then you will see alternative descriptions of that event, and you will rate on a scale how best they match the original description.</p><p>You will give your answer by clicking a button on a rating scale.</p><p>To do this task, you will have to use your imagination to visualise these events.</p><br><p>Ready?</p>",0,Continue,Continue,html-button-response,2,17209,0.0-2.0,anomymised,6565831db6b8903cc398def3,656766b5dddb719fc45bc983,81477,2C,woman,NA,NA,NA,NA,NA,NA,NA,NA,NA
1822.1999999284744,"<p>Before the experiment starts, you will watch an example trial. Press 'Continue'.</p>",0,Continue,Continue,html-button-response,3,20041,0.0-3.0,anomymised,6565831db6b8903cc398def3,656766b5dddb719fc45bc983,81477,2C,woman,NA,NA,NA,NA,NA,NA,NA,NA,NA
null,The police officer is arresting the robber,NA,NA,NA,html-keyboard-response,4,23055,0.0-4.0,anomymised,6565831db6b8903cc398def3,656766b5dddb719fc45bc983,81477,2C,woman,NA,null,NA,NA,NA,NA,NA,NA,NA
13855.899999976158,<img src='img/Example-trial.jpg' style='height:550px;''></img>,0,Continue,Continue,html-button-response,5,36913,0.0-5.0,anomymised,6565831db6b8903cc398def3,656766b5dddb719fc45bc983,81477,2C,woman,NA,NA,NA,NA,NA,NA,NA,NA,NA
5292,<p>Ready to start the experiment?</p><br><p><strong>Remember to give an answer by clicking a button on the rating scale.</strong></p><p>Press 'Continue' to begin.</p>,0,Continue,Continue,html-button-response,6,43208,0.0-6.0,anomymised,6565831db6b8903cc398def3,656766b5dddb719fc45bc983,81477,2C,woman,NA,NA,NA,NA,NA,NA,NA,NA,NA
null,Dave is being looked at by Ruth,NA,NA,NA,html-keyboard-response,7,46219,0.0-7.0-0.0,anomymised,6565831db6b8903cc398def3,656766b5dddb719fc45bc983,81477,2C,woman,NA,null,M2 is being looked at by W4,look4,sentence,NA,NA,NA,NA
13450.900000095367,NA,NA,NA,NA,survey-likert-extra-labels,8,59683,0.0-7.0-2.0,anomymised,6565831db6b8903cc398def3,656766b5dddb719fc45bc983,81477,2C,woman,NA,NA,M2 is being looked at by W4,look4,rating_volition,"{""Q0"":6}",[0],M2 wanted to look at W4,W4 wanted to look at M2
14885.900000095367,NA,NA,NA,NA,survey-likert-extra-labels,9,74570,0.0-7.0-3.0-0.0,anomymised,6565831db6b8903cc398def3,656766b5dddb719fc45bc983,81477,2C,woman,NA,NA,M2 is being looked at by W4,look4,rating_causation,"{""Q0"":6}",[0],M2 looked at W4 first,W4 looked at M2 first
null,Jane is being shouted at by Beth,NA,NA,NA,html-keyboard-response,10,76576,0.0-8.0-0.0,anomymised,6565831db6b8903cc398def3,656766b5dddb719fc45bc983,81477,2C,woman,NA,null,W3 is being shouted at by W1,shout1,sentence,NA,NA,NA,NA
10600.899999976158,NA,NA,NA,NA,survey-likert-extra-labels,11,87178,0.0-8.0-2.0,anomymised,6565831db6b8903cc398def3,656766b5dddb719fc45bc983,81477,2C,woman,NA,NA,W3 is being shouted at by W1,shout1,rating_volition,"{""Q0"":0}",[0],W1 wanted to shout at W3,W3 wanted to shout at W1
5310.200000047684,NA,NA,NA,NA,survey-likert-extra-labels,12,92490,0.0-8.0-3.0-0.0,anomymised,6565831db6b8903cc398def3,656766b5dddb719fc45bc983,81477,2C,woman,NA,NA,W3 is being shouted at by W1,shout1,rating_causation,"{""Q0"":0}",[0],W1 shouted at W3 first,W3 shouted at W1 first
null,Ruth is being challenged by Kate,NA,NA,NA,html-keyboard-response,13,94506,0.0-9.0-0.0,anomymised,6565831db6b8903cc398def3,656766b5dddb719fc45bc983,81477,2C,woman,NA,null,W4 is being challenged by W2,challenge1,sentence,NA,NA,NA,NA
8471.100000023842,NA,NA,NA,NA,survey-likert-extra-labels,14,102978,0.0-9.0-2.0,anomymised,6565831db6b8903cc398def3,656766b5dddb719fc45bc983,81477,2C,woman,NA,NA,W4 is being challenged by W2,challenge1,rating_volition,"{""Q0"":0}",[0],W2 wanted to challenge W4,W4 wanted to challenge W2
6166.100000023842,NA,NA,NA,NA,survey-likert-extra-labels,15,109146,0.0-9.0-3.0-0.0,anomymised,6565831db6b8903cc398def3,656766b5dddb719fc45bc983,81477,2C,woman,NA,NA,W4 is being challenged by W2,challenge1,rating_causation,"{""Q0"":0}",[0],W2 started challenging W4 first,W4 started challenging W2 first
null,Fred is being looked at by Luke,NA,NA,NA,html-keyboard-response,16,111152,0.0-10.0-0.0,anomymised,6565831db6b8903cc398def3,656766b5dddb719fc45bc983,81477,2C,woman,NA,null,M1 is being looked at by M3,look2,sentence,NA,NA,NA,NA
5376.399999976158,NA,NA,NA,NA,survey-likert-extra-labels,17,116530,0.0-10.0-1.0-0.0,anomymised,6565831db6b8903cc398def3,656766b5dddb719fc45bc983,81477,2C,woman,NA,NA,M1 is being looked at by M3,look2,rating_causation,"{""Q0"":6}",[0],M1 looked at M3 first,M3 looked at M1 first
6854.199999928474,NA,NA,NA,NA,survey-likert-extra-labels,18,123386,0.0-10.0-2.0,anomymised,6565831db6b8903cc398def3,656766b5dddb719fc45bc983,81477,2C,woman,NA,NA,M1 is being looked at by M3,look2,rating_volition,"{""Q0"":6}",[0],M1 wanted to look at M3,M3 wanted to look at M1
null,Luke is being shouted at by Fred,NA,NA,NA,html-keyboard-response,19,125404,0.0-11.0-0.0,anomymised,6565831db6b8903cc398def3,656766b5dddb719fc45bc983,81477,2C,woman,NA,null,M3 is being shouted at by M1,shout2,sentence,NA,NA,NA,NA
7763.799999952316,NA,NA,NA,NA,survey-likert-extra-labels,20,133169,0.0-11.0-1.0-0.0,anomymised,6565831db6b8903cc398def3,656766b5dddb719fc45bc983,81477,2C,woman,NA,NA,M3 is being shouted at by M1,shout2,rating_causation,"{""Q0"":0}",[0],M1 shouted at M3 first,M3 shouted at M1 first
6799,NA,NA,NA,NA,survey-likert-extra-labels,21,139970,0.0-11.0-2.0,anomymised,6565831db6b8903cc398def3,656766b5dddb719fc45bc983,81477,2C,woman,NA,NA,M3 is being shouted at by M1,shout2,rating_volition,"{""Q0"":0}",[0],M1 wanted to shout at M3,M3 wanted to shout at M1
null,Fred is being touched by Jane,NA,NA,NA,html-keyboard-response,22,141977,0.0-12.0-0.0,anomymised,6565831db6b8903cc398def3,656766b5dddb719fc45bc983,81477,2C,woman,NA,null,M1 is being touched by W3,touch3,sentence,NA,NA,NA,NA
4839,NA,NA,NA,NA,survey-likert-extra-labels,23,146818,0.0-12.0-2.0,anomymised,6565831db6b8903cc398def3,656766b5dddb719fc45bc983,81477,2C,woman,NA,NA,M1 is being touched by W3,touch3,rating_volition,"{""Q0"":0}",[0],W3 wanted to touch M1,M1 wanted to touch W3
13574.799999952316,NA,NA,NA,NA,survey-likert-extra-labels,24,160394,0.0-12.0-3.0-0.0,anomymised,6565831db6b8903cc398def3,656766b5dddb719fc45bc983,81477,2C,woman,NA,NA,M1 is being touched by W3,touch3,rating_causation,"{""Q0"":0}",[0],W3 asked to touch M1,M1 asked to touch W3
null,Ruth is being touched by Kate,NA,NA,NA,html-keyboard-response,25,162398,0.0-13.0-0.0,anomymised,6565831db6b8903cc398def3,656766b5dddb719fc45bc983,81477,2C,woman,NA,null,W4 is being touched by W2,touch1,sentence,NA,NA,NA,NA
4994.200000047684,NA,NA,NA,NA,survey-likert-extra-labels,26,167394,0.0-13.0-2.0,anomymised,6565831db6b8903cc398def3,656766b5dddb719fc45bc983,81477,2C,woman,NA,NA,W4 is being touched by W2,touch1,rating_volition,"{""Q0"":0}",[0],W2 wanted to touch W4,W4 wanted to touch W2
5158.600000023842,NA,NA,NA,NA,survey-likert-extra-labels,27,172554,0.0-13.0-3.0-0.0,anomymised,6565831db6b8903cc398def3,656766b5dddb719fc45bc983,81477,2C,woman,NA,NA,W4 is being touched by W2,touch1,rating_causation,"{""Q0"":3}",[0],W2 asked to touch W4,W4 asked to touch W2
null,Jane is being copied by Fred,NA,NA,NA,html-keyboard-response,28,174558,0.0-14.0-0.0,anomymised,6565831db6b8903cc398def3,656766b5dddb719fc45bc983,81477,2C,woman,NA,null,W3 is being copied by M1,copy3,sentence,NA,NA,NA,NA
4402.300000071526,NA,NA,NA,NA,survey-likert-extra-labels,29,178961,0.0-14.0-2.0,anomymised,6565831db6b8903cc398def3,656766b5dddb719fc45bc983,81477,2C,woman,NA,NA,W3 is being copied by M1,copy3,rating_volition,"{""Q0"":6}",[0],W3 wanted to copy M1,M1 wanted to copy W3
9710.600000023842,NA,NA,NA,NA,survey-likert-extra-labels,30,188674,0.0-14.0-3.0-0.0,anomymised,6565831db6b8903cc398def3,656766b5dddb719fc45bc983,81477,2C,woman,NA,NA,W3 is being copied by M1,copy3,rating_causation,"{""Q0"":6}",[0],W3 started copying M1 first,M1 started copying W3 first
null,Kate is being kissed by Mike,NA,NA,NA,html-keyboard-response,31,190681,0.0-15.0-0.0,anomymised,6565831db6b8903cc398def3,656766b5dddb719fc45bc983,81477,2C,woman,NA,null,W2 is being kissed by M4,kiss4,sentence,NA,NA,NA,NA
3687.1999999284744,NA,NA,NA,NA,survey-likert-extra-labels,32,194370,0.0-15.0-2.0,anomymised,6565831db6b8903cc398def3,656766b5dddb719fc45bc983,81477,2C,woman,NA,NA,W2 is being kissed by M4,kiss4,rating_volition,"{""Q0"":6}",[0],W2 wanted to kiss M4,M4 wanted to kiss W2
3014.899999976158,NA,NA,NA,NA,survey-likert-extra-labels,33,197386,0.0-15.0-3.0-0.0,anomymised,6565831db6b8903cc398def3,656766b5dddb719fc45bc983,81477,2C,woman,NA,NA,W2 is being kissed by M4,kiss4,rating_causation,"{""Q0"":3}",[0],W2 asked to kiss M4,M4 asked to kiss W2
null,Jane is being greeted by Fred,NA,NA,NA,html-keyboard-response,34,199392,0.0-16.0-0.0,anomymised,6565831db6b8903cc398def3,656766b5dddb719fc45bc983,81477,2C,woman,NA,null,W3 is being greeted by M1,greet4,sentence,NA,NA,NA,NA
4351.600000023842,NA,NA,NA,NA,survey-likert-extra-labels,35,203745,0.0-16.0-2.0,anomymised,6565831db6b8903cc398def3,656766b5dddb719fc45bc983,81477,2C,woman,NA,NA,W3 is being greeted by M1,greet4,rating_volition,"{""Q0"":6}",[0],W3 wanted to greet M1,M1 wanted to greet W3
5254.400000095367,NA,NA,NA,NA,survey-likert-extra-labels,36,209001,0.0-16.0-3.0-0.0,anomymised,6565831db6b8903cc398def3,656766b5dddb719fc45bc983,81477,2C,woman,NA,NA,W3 is being greeted by M1,greet4,rating_causation,"{""Q0"":6}",[0],W3 started greeting M1 first,M1 started greeting W3 first
null,Mike is being shouted at by Kate,NA,NA,NA,html-keyboard-response,37,211009,0.0-17.0-0.0,anomymised,6565831db6b8903cc398def3,656766b5dddb719fc45bc983,81477,2C,woman,NA,null,M4 is being shouted at by W2,shout4,sentence,NA,NA,NA,NA
10639.100000023842,NA,NA,NA,NA,survey-likert-extra-labels,38,221649,0.0-17.0-2.0,anomymised,6565831db6b8903cc398def3,656766b5dddb719fc45bc983,81477,2C,woman,NA,NA,M4 is being shouted at by W2,shout4,rating_volition,"{""Q0"":0}",[0],W2 wanted to shout at M4,M4 wanted to shout at W2
7390.399999976158,NA,NA,NA,NA,survey-likert-extra-labels,39,229041,0.0-17.0-3.0-0.0,anomymised,6565831db6b8903cc398def3,656766b5dddb719fc45bc983,81477,2C,woman,NA,NA,M4 is being shouted at by W2,shout4,rating_causation,"{""Q0"":0}",[0],W2 shouted at M4 first,M4 shouted at W2 first
null,Fred is being seduced by Jane,NA,NA,NA,html-keyboard-response,40,231044,0.0-18.0-0.0,anomymised,6565831db6b8903cc398def3,656766b5dddb719fc45bc983,81477,2C,woman,NA,null,M1 is being seduced by W3,seduce3,sentence,NA,NA,NA,NA
3091.899999976158,NA,NA,NA,NA,survey-likert-extra-labels,41,234137,0.0-18.0-1.0-0.0,anomymised,6565831db6b8903cc398def3,656766b5dddb719fc45bc983,81477,2C,woman,NA,NA,M1 is being seduced by W3,seduce3,rating_causation,"{""Q0"":0}",[0],W3 started seducing M1 first,M1 started seducing W3 first
4158.799999952316,NA,NA,NA,NA,survey-likert-extra-labels,42,238297,0.0-18.0-2.0,anomymised,6565831db6b8903cc398def3,656766b5dddb719fc45bc983,81477,2C,woman,NA,NA,M1 is being seduced by W3,seduce3,rating_volition,"{""Q0"":0}",[0],W3 wanted to seduce M1,M1 wanted to seduce W3
null,Luke is hiring Beth,NA,NA,NA,html-keyboard-response,43,240312,0.0-19.0-0.0,anomymised,6565831db6b8903cc398def3,656766b5dddb719fc45bc983,81477,2C,woman,NA,null,M3 is hiring W1,hire,sentence,NA,NA,NA,NA
9848,NA,NA,NA,NA,survey-likert-extra-labels,44,250161,0.0-19.0-2.0,anomymised,6565831db6b8903cc398def3,656766b5dddb719fc45bc983,81477,2C,woman,NA,NA,M3 is hiring W1,hire,rating_volition,"{""Q0"":0}",[0],M3 is employing W1,W1 is employing M3
3126.5,NA,NA,NA,NA,survey-likert-extra-labels,45,253289,0.0-19.0-3.0-0.0,anomymised,6565831db6b8903cc398def3,656766b5dddb719fc45bc983,81477,2C,woman,NA,NA,M3 is hiring W1,hire,rating_causation,"{""Q0"":6}",[0],M3 will work for W1,W1 will work for M3
null,Luke is being opposed by Fred,NA,NA,NA,html-keyboard-response,46,255307,0.0-20.0-0.0,anomymised,6565831db6b8903cc398def3,656766b5dddb719fc45bc983,81477,2C,woman,NA,null,M3 is being opposed by M1,oppose2,sentence,NA,NA,NA,NA
9860,NA,NA,NA,NA,survey-likert-extra-labels,47,265169,0.0-20.0-1.0-0.0,anomymised,6565831db6b8903cc398def3,656766b5dddb719fc45bc983,81477,2C,woman,NA,NA,M3 is being opposed by M1,oppose2,rating_causation,"{""Q0"":0}",[0],M1 started opposing M3,M3 started opposing M1
7917.899999976158,NA,NA,NA,NA,survey-likert-extra-labels,48,273089,0.0-20.0-2.0,anomymised,6565831db6b8903cc398def3,656766b5dddb719fc45bc983,81477,2C,woman,NA,NA,M3 is being opposed by M1,oppose2,rating_volition,"{""Q0"":0}",[0],M1 wanted to oppose M3,M3 wanted to oppose M1
null,Dave is posing for Mike,NA,NA,NA,html-keyboard-response,49,275105,0.0-21.0-0.0,anomymised,6565831db6b8903cc398def3,656766b5dddb719fc45bc983,81477,2C,woman,NA,null,M2 is posing for M4,pose,sentence,NA,NA,NA,NA
8301.800000071526,NA,NA,NA,NA,survey-likert-extra-labels,50,283409,0.0-21.0-2.0,anomymised,6565831db6b8903cc398def3,656766b5dddb719fc45bc983,81477,2C,woman,NA,NA,M2 is posing for M4,pose,rating_volition,"{""Q0"":0}",[0],M2 is modelling for M4,M4 is modelling for M2
6150.100000023842,NA,NA,NA,NA,survey-likert-extra-labels,51,289560,0.0-21.0-3.0-0.0,anomymised,6565831db6b8903cc398def3,656766b5dddb719fc45bc983,81477,2C,woman,NA,NA,M2 is posing for M4,pose,rating_causation,"{""Q0"":6}",[0],M2 is photographing M4,M4 is photographing M2
null,Beth is being looked at by Jane,NA,NA,NA,html-keyboard-response,52,291569,0.0-22.0-0.0,anomymised,6565831db6b8903cc398def3,656766b5dddb719fc45bc983,81477,2C,woman,NA,null,W1 is being looked at by W3,look1,sentence,NA,NA,NA,NA
6622.700000047684,NA,NA,NA,NA,survey-likert-extra-labels,53,298193,0.0-22.0-2.0,anomymised,6565831db6b8903cc398def3,656766b5dddb719fc45bc983,81477,2C,woman,NA,NA,W1 is being looked at by W3,look1,rating_volition,"{""Q0"":6}",[0],W1 wanted to look at W3,W3 wanted to look at W1
5686.100000023842,NA,NA,NA,NA,survey-likert-extra-labels,54,303880,0.0-22.0-3.0-0.0,anomymised,6565831db6b8903cc398def3,656766b5dddb719fc45bc983,81477,2C,woman,NA,NA,W1 is being looked at by W3,look1,rating_causation,"{""Q0"":6}",[0],W1 looked at W3 first,W3 looked at W1 first
null,Dave is being greeted by Mike,NA,NA,NA,html-keyboard-response,55,305892,0.0-23.0-0.0,anomymised,6565831db6b8903cc398def3,656766b5dddb719fc45bc983,81477,2C,woman,NA,null,M2 is being greeted by M4,greet2,sentence,NA,NA,NA,NA
4507.700000047684,NA,NA,NA,NA,survey-likert-extra-labels,56,310401,0.0-23.0-2.0,anomymised,6565831db6b8903cc398def3,656766b5dddb719fc45bc983,81477,2C,woman,NA,NA,M2 is being greeted by M4,greet2,rating_volition,"{""Q0"":6}",[0],M2 wanted to greet M4,M4 wanted to greet M2
10310.200000047684,NA,NA,NA,NA,survey-likert-extra-labels,57,320712,0.0-23.0-3.0-0.0,anomymised,6565831db6b8903cc398def3,656766b5dddb719fc45bc983,81477,2C,woman,NA,NA,M2 is being greeted by M4,greet2,rating_causation,"{""Q0"":6}",[0],M2 started greeting M4 first,M4 started greeting M2 first
null,Ruth is being hugged by Dave,NA,NA,NA,html-keyboard-response,58,322721,0.0-24.0-0.0,anomymised,6565831db6b8903cc398def3,656766b5dddb719fc45bc983,81477,2C,woman,NA,null,W4 is being hugged by M2,hug4,sentence,NA,NA,NA,NA
4222,NA,NA,NA,NA,survey-likert-extra-labels,59,326944,0.0-24.0-2.0,anomymised,6565831db6b8903cc398def3,656766b5dddb719fc45bc983,81477,2C,woman,NA,NA,W4 is being hugged by M2,hug4,rating_volition,"{""Q0"":0}",[0],M2 wanted to hug W4,W4 wanted to hug M2
11750.5,NA,NA,NA,NA,survey-likert-extra-labels,60,338696,0.0-24.0-3.0-0.0,anomymised,6565831db6b8903cc398def3,656766b5dddb719fc45bc983,81477,2C,woman,NA,NA,W4 is being hugged by M2,hug4,rating_causation,"{""Q0"":3}",[0],M2 asked to hug W4,W4 asked to hug M2
null,Fred is driving Luke,NA,NA,NA,html-keyboard-response,61,340702,0.0-25.0-0.0,anomymised,6565831db6b8903cc398def3,656766b5dddb719fc45bc983,81477,2C,woman,NA,null,M1 is driving M3,drive,sentence,NA,NA,NA,NA
4160.299999952316,NA,NA,NA,NA,survey-likert-extra-labels,62,344864,0.0-25.0-2.0,anomymised,6565831db6b8903cc398def3,656766b5dddb719fc45bc983,81477,2C,woman,NA,NA,M1 is driving M3,drive,rating_volition,"{""Q0"":6}",[0],M1 is M3's passenger,M3 is M1's passenger
7550.299999952316,NA,NA,NA,NA,survey-likert-extra-labels,63,352416,0.0-25.0-3.0-0.0,anomymised,6565831db6b8903cc398def3,656766b5dddb719fc45bc983,81477,2C,woman,NA,NA,M1 is driving M3,drive,rating_causation,"{""Q0"":0}",[0],M1 is taking M3 somewhere,M3 is taking M1 somewhere
null,Dave is being copied by Mike,NA,NA,NA,html-keyboard-response,64,354432,0.0-26.0-0.0,anomymised,6565831db6b8903cc398def3,656766b5dddb719fc45bc983,81477,2C,woman,NA,null,M2 is being copied by M4,copy2,sentence,NA,NA,NA,NA
9302.099999904633,NA,NA,NA,NA,survey-likert-extra-labels,65,363736,0.0-26.0-2.0,anomymised,6565831db6b8903cc398def3,656766b5dddb719fc45bc983,81477,2C,woman,NA,NA,M2 is being copied by M4,copy2,rating_volition,"{""Q0"":6}",[0],M2 wanted to copy M4,M4 wanted to copy M2
8430.399999976158,NA,NA,NA,NA,survey-likert-extra-labels,66,372168,0.0-26.0-3.0-0.0,anomymised,6565831db6b8903cc398def3,656766b5dddb719fc45bc983,81477,2C,woman,NA,NA,M2 is being copied by M4,copy2,rating_causation,"{""Q0"":6}",[0],M2 started copying M4 first,M4 started copying M2 first
null,Mike is being opposed by Kate,NA,NA,NA,html-keyboard-response,67,374180,0.0-27.0-0.0,anomymised,6565831db6b8903cc398def3,656766b5dddb719fc45bc983,81477,2C,woman,NA,null,M4 is being opposed by W2,oppose3,sentence,NA,NA,NA,NA
2802.6999999284744,NA,NA,NA,NA,survey-likert-extra-labels,68,376984,0.0-27.0-1.0-0.0,anomymised,6565831db6b8903cc398def3,656766b5dddb719fc45bc983,81477,2C,woman,NA,NA,M4 is being opposed by W2,oppose3,rating_causation,"{""Q0"":0}",[0],W2 started opposing M4,M4 started opposing W2
7223,NA,NA,NA,NA,survey-likert-extra-labels,69,384208,0.0-27.0-2.0,anomymised,6565831db6b8903cc398def3,656766b5dddb719fc45bc983,81477,2C,woman,NA,NA,M4 is being opposed by W2,oppose3,rating_volition,"{""Q0"":0}",[0],W2 wanted to oppose M4,M4 wanted to oppose W2
null,Mike is being challenged by Dave,NA,NA,NA,html-keyboard-response,70,386211,0.0-28.0-0.0,anomymised,6565831db6b8903cc398def3,656766b5dddb719fc45bc983,81477,2C,woman,NA,null,M4 is being challenged by M2,challenge2,sentence,NA,NA,NA,NA
8027.900000095367,NA,NA,NA,NA,survey-likert-extra-labels,71,394240,0.0-28.0-2.0,anomymised,6565831db6b8903cc398def3,656766b5dddb719fc45bc983,81477,2C,woman,NA,NA,M4 is being challenged by M2,challenge2,rating_volition,"{""Q0"":0}",[0],M2 wanted to challenge M4,M4 wanted to challenge M2
5766.100000023842,NA,NA,NA,NA,survey-likert-extra-labels,72,400008,0.0-28.0-3.0-0.0,anomymised,6565831db6b8903cc398def3,656766b5dddb719fc45bc983,81477,2C,woman,NA,NA,M4 is being challenged by M2,challenge2,rating_causation,"{""Q0"":0}",[0],M2 started challenging M4 first,M4 started challenging M2 first
null,Mike is being seduced by Dave,NA,NA,NA,html-keyboard-response,73,402019,0.0-29.0-0.0,anomymised,6565831db6b8903cc398def3,656766b5dddb719fc45bc983,81477,2C,woman,NA,null,M4 is being seduced by M2,seduce2,sentence,NA,NA,NA,NA
3371.2000000476837,NA,NA,NA,NA,survey-likert-extra-labels,74,405392,0.0-29.0-2.0,anomymised,6565831db6b8903cc398def3,656766b5dddb719fc45bc983,81477,2C,woman,NA,NA,M4 is being seduced by M2,seduce2,rating_volition,"{""Q0"":0}",[0],M2 wanted to seduce M4,M4 wanted to seduce M2
3622.1999999284744,NA,NA,NA,NA,survey-likert-extra-labels,75,409015,0.0-29.0-3.0-0.0,anomymised,6565831db6b8903cc398def3,656766b5dddb719fc45bc983,81477,2C,woman,NA,NA,M4 is being seduced by M2,seduce2,rating_causation,"{""Q0"":0}",[0],M2 started seducing M4 first,M4 started seducing M2 first
null,Ruth is being seduced by Kate,NA,NA,NA,html-keyboard-response,76,411034,0.0-30.0-0.0,anomymised,6565831db6b8903cc398def3,656766b5dddb719fc45bc983,81477,2C,woman,NA,null,W4 is being seduced by W2,seduce1,sentence,NA,NA,NA,NA
6188.100000023842,NA,NA,NA,NA,survey-likert-extra-labels,77,417223,0.0-30.0-2.0,anomymised,6565831db6b8903cc398def3,656766b5dddb719fc45bc983,81477,2C,woman,NA,NA,W4 is being seduced by W2,seduce1,rating_volition,"{""Q0"":0}",[0],W2 wanted to seduce W4,W4 wanted to seduce W2
5262.600000023842,NA,NA,NA,NA,survey-likert-extra-labels,78,422488,0.0-30.0-3.0-0.0,anomymised,6565831db6b8903cc398def3,656766b5dddb719fc45bc983,81477,2C,woman,NA,NA,W4 is being seduced by W2,seduce1,rating_causation,"{""Q0"":0}",[0],W2 started seducing W4 first,W4 started seducing W2 first
null,Dave is reminding Ruth,NA,NA,NA,html-keyboard-response,79,424494,0.0-31.0-0.0,anomymised,6565831db6b8903cc398def3,656766b5dddb719fc45bc983,81477,2C,woman,NA,null,M2 is reminding W4,remind,sentence,NA,NA,NA,NA
14496.199999928474,NA,NA,NA,NA,survey-likert-extra-labels,80,438991,0.0-31.0-1.0-0.0,anomymised,6565831db6b8903cc398def3,656766b5dddb719fc45bc983,81477,2C,woman,NA,NA,M2 is reminding W4,remind,rating_causation,"{""Q0"":6}",[0],M2 is remembering,W4 is remembering
4894.299999952316,NA,NA,NA,NA,survey-likert-extra-labels,81,443887,0.0-31.0-2.0,anomymised,6565831db6b8903cc398def3,656766b5dddb719fc45bc983,81477,2C,woman,NA,NA,M2 is reminding W4,remind,rating_volition,"{""Q0"":0}",[0],M2 is telling W4 again,W4 is telling M2 again
null,Kate is being greeted by Ruth,NA,NA,NA,html-keyboard-response,82,445891,0.0-32.0-0.0,anomymised,6565831db6b8903cc398def3,656766b5dddb719fc45bc983,81477,2C,woman,NA,null,W2 is being greeted by W4,greet1,sentence,NA,NA,NA,NA
36722.60000002384,NA,NA,NA,NA,survey-likert-extra-labels,83,482616,0.0-32.0-1.0-0.0,anomymised,6565831db6b8903cc398def3,656766b5dddb719fc45bc983,81477,2C,woman,NA,NA,W2 is being greeted by W4,greet1,rating_causation,"{""Q0"":6}",[0],W2 started greeting W4 first,W4 started greeting W2 first
13158.099999904633,NA,NA,NA,NA,survey-likert-extra-labels,84,495775,0.0-32.0-2.0,anomymised,6565831db6b8903cc398def3,656766b5dddb719fc45bc983,81477,2C,woman,NA,NA,W2 is being greeted by W4,greet1,rating_volition,"{""Q0"":6}",[0],W2 wanted to greet W4,W4 wanted to greet W2
null,Ruth is being opposed by Dave,NA,NA,NA,html-keyboard-response,85,497779,0.0-33.0-0.0,anomymised,6565831db6b8903cc398def3,656766b5dddb719fc45bc983,81477,2C,woman,NA,null,W4 is being opposed by M2,oppose4,sentence,NA,NA,NA,NA
4962.699999928474,NA,NA,NA,NA,survey-likert-extra-labels,86,502744,0.0-33.0-2.0,anomymised,6565831db6b8903cc398def3,656766b5dddb719fc45bc983,81477,2C,woman,NA,NA,W4 is being opposed by M2,oppose4,rating_volition,"{""Q0"":0}",[0],M2 wanted to oppose W4,W4 wanted to oppose M2
7222.299999952316,NA,NA,NA,NA,survey-likert-extra-labels,87,509968,0.0-33.0-3.0-0.0,anomymised,6565831db6b8903cc398def3,656766b5dddb719fc45bc983,81477,2C,woman,NA,NA,W4 is being opposed by M2,oppose4,rating_causation,"{""Q0"":0}",[0],M2 started opposing W4,W4 started opposing M2
null,Fred is being challenged by Jane,NA,NA,NA,html-keyboard-response,88,511984,0.0-34.0-0.0,anomymised,6565831db6b8903cc398def3,656766b5dddb719fc45bc983,81477,2C,woman,NA,null,M1 is being challenged by W3,challenge4,sentence,NA,NA,NA,NA
20189.800000071526,NA,NA,NA,NA,survey-likert-extra-labels,89,532175,0.0-34.0-1.0-0.0,anomymised,6565831db6b8903cc398def3,656766b5dddb719fc45bc983,81477,2C,woman,NA,NA,M1 is being challenged by W3,challenge4,rating_causation,"{""Q0"":0}",[0],W3 started challenging M1 first,M1 started challenging W3 first
10358.199999928474,NA,NA,NA,NA,survey-likert-extra-labels,90,542535,0.0-34.0-2.0,anomymised,6565831db6b8903cc398def3,656766b5dddb719fc45bc983,81477,2C,woman,NA,NA,M1 is being challenged by W3,challenge4,rating_volition,"{""Q0"":""""}",[0],W3 wanted to challenge M1,M1 wanted to challenge W3
null,Ruth is being shouted at by Dave,NA,NA,NA,html-keyboard-response,91,544542,0.0-35.0-0.0,anomymised,6565831db6b8903cc398def3,656766b5dddb719fc45bc983,81477,2C,woman,NA,null,W4 is being shouted at by M2,shout3,sentence,NA,NA,NA,NA
7046.299999952316,NA,NA,NA,NA,survey-likert-extra-labels,92,551591,0.0-35.0-2.0,anomymised,6565831db6b8903cc398def3,656766b5dddb719fc45bc983,81477,2C,woman,NA,NA,W4 is being shouted at by M2,shout3,rating_volition,"{""Q0"":0}",[0],M2 wanted to shout at W4,W4 wanted to shout at M2
8318.199999928474,NA,NA,NA,NA,survey-likert-extra-labels,93,559910,0.0-35.0-3.0-0.0,anomymised,6565831db6b8903cc398def3,656766b5dddb719fc45bc983,81477,2C,woman,NA,NA,W4 is being shouted at by M2,shout3,rating_causation,"{""Q0"":0}",[0],M2 shouted at W4 first,W4 shouted at M2 first
null,Mike is being hugged by Kate,NA,NA,NA,html-keyboard-response,94,561918,0.0-36.0-0.0,anomymised,6565831db6b8903cc398def3,656766b5dddb719fc45bc983,81477,2C,woman,NA,null,M4 is being hugged by W2,hug3,sentence,NA,NA,NA,NA
2670.7999999523163,NA,NA,NA,NA,survey-likert-extra-labels,95,564590,0.0-36.0-2.0,anomymised,6565831db6b8903cc398def3,656766b5dddb719fc45bc983,81477,2C,woman,NA,NA,M4 is being hugged by W2,hug3,rating_volition,"{""Q0"":0}",[0],W2 wanted to hug M4,M4 wanted to hug W2
4198.800000071526,NA,NA,NA,NA,survey-likert-extra-labels,96,568790,0.0-36.0-3.0-0.0,anomymised,6565831db6b8903cc398def3,656766b5dddb719fc45bc983,81477,2C,woman,NA,NA,M4 is being hugged by W2,hug3,rating_causation,"{""Q0"":3}",[0],W2 asked to hug M4,M4 asked to hug W2
null,Kate is carrying Ruth,NA,NA,NA,html-keyboard-response,97,570811,0.0-37.0-0.0,anomymised,6565831db6b8903cc398def3,656766b5dddb719fc45bc983,81477,2C,woman,NA,null,W2 is carrying W4,carry,sentence,NA,NA,NA,NA
7145.600000023842,NA,NA,NA,NA,survey-likert-extra-labels,98,577958,0.0-37.0-2.0,anomymised,6565831db6b8903cc398def3,656766b5dddb719fc45bc983,81477,2C,woman,NA,NA,W2 is carrying W4,carry,rating_volition,"{""Q0"":0}",[0],W2 is transporting W4,W4 is transporting W2
9726.200000047684,NA,NA,NA,NA,survey-likert-extra-labels,99,587686,0.0-37.0-3.0-0.0,anomymised,6565831db6b8903cc398def3,656766b5dddb719fc45bc983,81477,2C,woman,NA,NA,W2 is carrying W4,carry,rating_causation,"{""Q0"":6}",[0],W2 is being moved by W4,W4 is being moved by W2
null,Dave is being kissed by Ruth,NA,NA,NA,html-keyboard-response,100,589697,0.0-38.0-0.0,anomymised,6565831db6b8903cc398def3,656766b5dddb719fc45bc983,81477,2C,woman,NA,null,M2 is being kissed by W4,kiss3,sentence,NA,NA,NA,NA
3315.899999976158,NA,NA,NA,NA,survey-likert-extra-labels,101,593014,0.0-38.0-2.0,anomymised,6565831db6b8903cc398def3,656766b5dddb719fc45bc983,81477,2C,woman,NA,NA,M2 is being kissed by W4,kiss3,rating_volition,"{""Q0"":6}",[0],M2 wanted to kiss W4,W4 wanted to kiss M2
9382.799999952316,NA,NA,NA,NA,survey-likert-extra-labels,102,602398,0.0-38.0-3.0-0.0,anomymised,6565831db6b8903cc398def3,656766b5dddb719fc45bc983,81477,2C,woman,NA,NA,M2 is being kissed by W4,kiss3,rating_causation,"{""Q0"":3}",[0],M2 asked to kiss W4,W4 asked to kiss M2
null,Fred is being kissed by Luke,NA,NA,NA,html-keyboard-response,103,604406,0.0-39.0-0.0,anomymised,6565831db6b8903cc398def3,656766b5dddb719fc45bc983,81477,2C,woman,NA,null,M1 is being kissed by M3,kiss2,sentence,NA,NA,NA,NA
2975.0999999046326,NA,NA,NA,NA,survey-likert-extra-labels,104,607382,0.0-39.0-1.0-0.0,anomymised,6565831db6b8903cc398def3,656766b5dddb719fc45bc983,81477,2C,woman,NA,NA,M1 is being kissed by M3,kiss2,rating_causation,"{""Q0"":3}",[0],M1 asked to kiss M3,M3 asked to kiss M1
6086.799999952316,NA,NA,NA,NA,survey-likert-extra-labels,105,613470,0.0-39.0-2.0,anomymised,6565831db6b8903cc398def3,656766b5dddb719fc45bc983,81477,2C,woman,NA,NA,M1 is being kissed by M3,kiss2,rating_volition,"{""Q0"":6}",[0],M1 wanted to kiss M3,M3 wanted to kiss M1
null,Jane is being opposed by Beth,NA,NA,NA,html-keyboard-response,106,615474,0.0-40.0-0.0,anomymised,6565831db6b8903cc398def3,656766b5dddb719fc45bc983,81477,2C,woman,NA,null,W3 is being opposed by W1,oppose1,sentence,NA,NA,NA,NA
4090.399999976158,NA,NA,NA,NA,survey-likert-extra-labels,107,619566,0.0-40.0-2.0,anomymised,6565831db6b8903cc398def3,656766b5dddb719fc45bc983,81477,2C,woman,NA,NA,W3 is being opposed by W1,oppose1,rating_volition,"{""Q0"":0}",[0],W1 wanted to oppose W3,W3 wanted to oppose W1
10622.899999976158,NA,NA,NA,NA,survey-likert-extra-labels,108,630190,0.0-40.0-3.0-0.0,anomymised,6565831db6b8903cc398def3,656766b5dddb719fc45bc983,81477,2C,woman,NA,NA,W3 is being opposed by W1,oppose1,rating_causation,"{""Q0"":0}",[0],W1 started opposing W3,W3 started opposing W1
null,Beth is being touched by Luke,NA,NA,NA,html-keyboard-response,109,632200,0.0-41.0-0.0,anomymised,6565831db6b8903cc398def3,656766b5dddb719fc45bc983,81477,2C,woman,NA,null,W1 is being touched by M3,touch4,sentence,NA,NA,NA,NA
4037.5,NA,NA,NA,NA,survey-likert-extra-labels,110,636238,0.0-41.0-2.0,anomymised,6565831db6b8903cc398def3,656766b5dddb719fc45bc983,81477,2C,woman,NA,NA,W1 is being touched by M3,touch4,rating_volition,"{""Q0"":0}",[0],M3 wanted to touch W1,W1 wanted to touch M3
4141.700000047684,NA,NA,NA,NA,survey-likert-extra-labels,111,640382,0.0-41.0-3.0-0.0,anomymised,6565831db6b8903cc398def3,656766b5dddb719fc45bc983,81477,2C,woman,NA,NA,W1 is being touched by M3,touch4,rating_causation,"{""Q0"":3}",[0],M3 asked to touch W1,W1 asked to touch M3
null,Luke is being greeted by Beth,NA,NA,NA,html-keyboard-response,112,642399,0.0-42.0-0.0,anomymised,6565831db6b8903cc398def3,656766b5dddb719fc45bc983,81477,2C,woman,NA,null,M3 is being greeted by W1,greet3,sentence,NA,NA,NA,NA
10365.100000023842,NA,NA,NA,NA,survey-likert-extra-labels,113,652766,0.0-42.0-2.0,anomymised,6565831db6b8903cc398def3,656766b5dddb719fc45bc983,81477,2C,woman,NA,NA,M3 is being greeted by W1,greet3,rating_volition,"{""Q0"":6}",[0],M3 wanted to greet W1,W1 wanted to greet M3
38062.199999928474,NA,NA,NA,NA,survey-likert-extra-labels,114,690829,0.0-42.0-3.0-0.0,anomymised,6565831db6b8903cc398def3,656766b5dddb719fc45bc983,81477,2C,woman,NA,NA,M3 is being greeted by W1,greet3,rating_causation,"{""Q0"":6}",[0],M3 started greeting W1 first,W1 started greeting M3 first
null,Luke is being hugged by Fred,NA,NA,NA,html-keyboard-response,115,692846,0.0-43.0-0.0,anomymised,6565831db6b8903cc398def3,656766b5dddb719fc45bc983,81477,2C,woman,NA,null,M3 is being hugged by M1,hug2,sentence,NA,NA,NA,NA
78765,NA,NA,NA,NA,survey-likert-extra-labels,116,771613,0.0-43.0-1.0-0.0,anomymised,6565831db6b8903cc398def3,656766b5dddb719fc45bc983,81477,2C,woman,NA,NA,M3 is being hugged by M1,hug2,rating_causation,"{""Q0"":3}",[0],M1 asked to hug M3,M3 asked to hug M1
66997.5,NA,NA,NA,NA,survey-likert-extra-labels,117,838612,0.0-43.0-2.0,anomymised,6565831db6b8903cc398def3,656766b5dddb719fc45bc983,81477,2C,woman,NA,NA,M3 is being hugged by M1,hug2,rating_volition,"{""Q0"":0}",[0],M1 wanted to hug M3,M3 wanted to hug M1
null,Beth is being kissed by Jane,NA,NA,NA,html-keyboard-response,118,840617,0.0-44.0-0.0,anomymised,6565831db6b8903cc398def3,656766b5dddb719fc45bc983,81477,2C,woman,NA,null,W1 is being kissed by W3,kiss1,sentence,NA,NA,NA,NA
12889.899999976158,NA,NA,NA,NA,survey-likert-extra-labels,119,853508,0.0-44.0-1.0-0.0,anomymised,6565831db6b8903cc398def3,656766b5dddb719fc45bc983,81477,2C,woman,NA,NA,W1 is being kissed by W3,kiss1,rating_causation,"{""Q0"":6}",[0],W1 asked to kiss W3,W3 asked to kiss W1
7190.399999976158,NA,NA,NA,NA,survey-likert-extra-labels,120,860700,0.0-44.0-2.0,anomymised,6565831db6b8903cc398def3,656766b5dddb719fc45bc983,81477,2C,woman,NA,NA,W1 is being kissed by W3,kiss1,rating_volition,"{""Q0"":6}",[0],W1 wanted to kiss W3,W3 wanted to kiss W1
null,Jane is being hugged by Beth,NA,NA,NA,html-keyboard-response,121,862716,0.0-45.0-0.0,anomymised,6565831db6b8903cc398def3,656766b5dddb719fc45bc983,81477,2C,woman,NA,null,W3 is being hugged by W1,hug1,sentence,NA,NA,NA,NA
38934.39999997616,NA,NA,NA,NA,survey-likert-extra-labels,122,901652,0.0-45.0-2.0,anomymised,6565831db6b8903cc398def3,656766b5dddb719fc45bc983,81477,2C,woman,NA,NA,W3 is being hugged by W1,hug1,rating_volition,"{""Q0"":0}",[0],W1 wanted to hug W3,W3 wanted to hug W1
2534.1999999284744,NA,NA,NA,NA,survey-likert-extra-labels,123,904187,0.0-45.0-3.0-0.0,anomymised,6565831db6b8903cc398def3,656766b5dddb719fc45bc983,81477,2C,woman,NA,NA,W3 is being hugged by W1,hug1,rating_causation,"{""Q0"":3}",[0],W1 asked to hug W3,W3 asked to hug W1
null,Beth is being seduced by Luke,NA,NA,NA,html-keyboard-response,124,906208,0.0-46.0-0.0,anomymised,6565831db6b8903cc398def3,656766b5dddb719fc45bc983,81477,2C,woman,NA,null,W1 is being seduced by M3,seduce4,sentence,NA,NA,NA,NA
21562.299999952316,NA,NA,NA,NA,survey-likert-extra-labels,125,927772,0.0-46.0-1.0-0.0,anomymised,6565831db6b8903cc398def3,656766b5dddb719fc45bc983,81477,2C,woman,NA,NA,W1 is being seduced by M3,seduce4,rating_causation,"{""Q0"":0}",[0],M3 started seducing W1 first,W1 started seducing M3 first
10117.800000071526,NA,NA,NA,NA,survey-likert-extra-labels,126,937891,0.0-46.0-2.0,anomymised,6565831db6b8903cc398def3,656766b5dddb719fc45bc983,81477,2C,woman,NA,NA,W1 is being seduced by M3,seduce4,rating_volition,"{""Q0"":0}",[0],M3 wanted to seducing W1,W1 wanted to seducing M3
null,Kate is teaching Mike,NA,NA,NA,html-keyboard-response,127,939903,0.0-47.0-0.0,anomymised,6565831db6b8903cc398def3,656766b5dddb719fc45bc983,81477,2C,woman,NA,null,W2 is teaching M4,teach,sentence,NA,NA,NA,NA
7514.899999976158,NA,NA,NA,NA,survey-likert-extra-labels,128,947419,0.0-47.0-2.0,anomymised,6565831db6b8903cc398def3,656766b5dddb719fc45bc983,81477,2C,woman,NA,NA,W2 is teaching M4,teach,rating_volition,"{""Q0"":0}",[0],W2 is educating M4,M4 is educating W2
6430,NA,NA,NA,NA,survey-likert-extra-labels,129,953851,0.0-47.0-3.0-0.0,anomymised,6565831db6b8903cc398def3,656766b5dddb719fc45bc983,81477,2C,woman,NA,NA,W2 is teaching M4,teach,rating_causation,"{""Q0"":6}",[0],W2 is learning from M4,M4 is learning from W2
null,Beth is chasing Jane,NA,NA,NA,html-keyboard-response,130,955853,0.0-48.0-0.0,anomymised,6565831db6b8903cc398def3,656766b5dddb719fc45bc983,81477,2C,woman,NA,null,W1 is chasing W3,chase,sentence,NA,NA,NA,NA
5188.899999976158,NA,NA,NA,NA,survey-likert-extra-labels,131,961043,0.0-48.0-2.0,anomymised,6565831db6b8903cc398def3,656766b5dddb719fc45bc983,81477,2C,woman,NA,NA,W1 is chasing W3,chase,rating_volition,"{""Q0"":0}",[0],W1 is behind W3,W3 is behind W1
10566.299999952316,NA,NA,NA,NA,survey-likert-extra-labels,132,971611,0.0-48.0-3.0-0.0,anomymised,6565831db6b8903cc398def3,656766b5dddb719fc45bc983,81477,2C,woman,NA,NA,W1 is chasing W3,chase,rating_causation,"{""Q0"":6}",[0],W1 is running away from W3,W3 is running away from W1
null,Jane is feeding Fred,NA,NA,NA,html-keyboard-response,133,973615,0.0-49.0-0.0,anomymised,6565831db6b8903cc398def3,656766b5dddb719fc45bc983,81477,2C,woman,NA,null,W3 is feeding M1,feed,sentence,NA,NA,NA,NA
4290.5,NA,NA,NA,NA,survey-likert-extra-labels,134,977907,0.0-49.0-2.0,anomymised,6565831db6b8903cc398def3,656766b5dddb719fc45bc983,81477,2C,woman,NA,NA,W3 is feeding M1,feed,rating_volition,"{""Q0"":0}",[0],W3 cooked for M1,M1 cooked for W3
4950.199999928474,NA,NA,NA,NA,survey-likert-extra-labels,135,982858,0.0-49.0-3.0-0.0,anomymised,6565831db6b8903cc398def3,656766b5dddb719fc45bc983,81477,2C,woman,NA,NA,W3 is feeding M1,feed,rating_causation,"{""Q0"":6}",[0],W3 is eating M1's food,M1 is eating W3's food
null,Kate is being looked at by Mike,NA,NA,NA,html-keyboard-response,136,984874,0.0-50.0-0.0,anomymised,6565831db6b8903cc398def3,656766b5dddb719fc45bc983,81477,2C,woman,NA,null,W2 is being looked at by M4,look3,sentence,NA,NA,NA,NA
23503.5,NA,NA,NA,NA,survey-likert-extra-labels,137,1008379,0.0-50.0-1.0-0.0,anomymised,6565831db6b8903cc398def3,656766b5dddb719fc45bc983,81477,2C,woman,NA,NA,W2 is being looked at by M4,look3,rating_causation,"{""Q0"":6}",[0],W2 looked at M4 first,M4 looked at W2 first
2573.8000000715256,NA,NA,NA,NA,survey-likert-extra-labels,138,1010954,0.0-50.0-2.0,anomymised,6565831db6b8903cc398def3,656766b5dddb719fc45bc983,81477,2C,woman,NA,NA,W2 is being looked at by M4,look3,rating_volition,"{""Q0"":3}",[0],W2 wanted to look at M4,M4 wanted to look at W2
null,Beth is being challenged by Luke,NA,NA,NA,html-keyboard-response,139,1012963,0.0-51.0-0.0,anomymised,6565831db6b8903cc398def3,656766b5dddb719fc45bc983,81477,2C,woman,NA,null,W1 is being challenged by M3,challenge3,sentence,NA,NA,NA,NA
3182.399999976158,NA,NA,NA,NA,survey-likert-extra-labels,140,1016146,0.0-51.0-2.0,anomymised,6565831db6b8903cc398def3,656766b5dddb719fc45bc983,81477,2C,woman,NA,NA,W1 is being challenged by M3,challenge3,rating_volition,"{""Q0"":0}",[0],M3 wanted to challenge W1,W1 wanted to challenge M3
5158.799999952316,NA,NA,NA,NA,survey-likert-extra-labels,141,1021307,0.0-51.0-3.0-0.0,anomymised,6565831db6b8903cc398def3,656766b5dddb719fc45bc983,81477,2C,woman,NA,NA,W1 is being challenged by M3,challenge3,rating_causation,"{""Q0"":0}",[0],M3 started challenging W1 first,W1 started challenging M3 first
null,Mike is being touched by Dave,NA,NA,NA,html-keyboard-response,142,1023308,0.0-52.0-0.0,anomymised,6565831db6b8903cc398def3,656766b5dddb719fc45bc983,81477,2C,woman,NA,null,M4 is being touched by M2,touch2,sentence,NA,NA,NA,NA
11853.100000023842,NA,NA,NA,NA,survey-likert-extra-labels,143,1035163,0.0-52.0-2.0,anomymised,6565831db6b8903cc398def3,656766b5dddb719fc45bc983,81477,2C,woman,NA,NA,M4 is being touched by M2,touch2,rating_volition,"{""Q0"":0}",[0],M2 wanted to touch M4,M4 wanted to touch M2
2958.1999999284744,NA,NA,NA,NA,survey-likert-extra-labels,144,1038123,0.0-52.0-3.0-0.0,anomymised,6565831db6b8903cc398def3,656766b5dddb719fc45bc983,81477,2C,woman,NA,NA,M4 is being touched by M2,touch2,rating_causation,"{""Q0"":3}",[0],M2 asked to touch M4,M4 asked to touch M2
null,Luke is being copied by Beth,NA,NA,NA,html-keyboard-response,145,1040136,0.0-53.0-0.0,anomymised,6565831db6b8903cc398def3,656766b5dddb719fc45bc983,81477,2C,woman,NA,null,M3 is being copied by W1,copy4,sentence,NA,NA,NA,NA
4480.699999928474,NA,NA,NA,NA,survey-likert-extra-labels,146,1044618,0.0-53.0-2.0,anomymised,6565831db6b8903cc398def3,656766b5dddb719fc45bc983,81477,2C,woman,NA,NA,M3 is being copied by W1,copy4,rating_volition,"{""Q0"":6}",[0],M3 wanted to copy W1,W1 wanted to copy M3
7382.200000047684,NA,NA,NA,NA,survey-likert-extra-labels,147,1052002,0.0-53.0-3.0-0.0,anomymised,6565831db6b8903cc398def3,656766b5dddb719fc45bc983,81477,2C,woman,NA,NA,M3 is being copied by W1,copy4,rating_causation,"{""Q0"":6}",[0],M3 started copying W1 first,W1 started copying M3 first
null,Kate is being copied by Ruth,NA,NA,NA,html-keyboard-response,148,1054024,0.0-54.0-0.0,anomymised,6565831db6b8903cc398def3,656766b5dddb719fc45bc983,81477,2C,woman,NA,null,W2 is being copied by W4,copy1,sentence,NA,NA,NA,NA
3609,NA,NA,NA,NA,survey-likert-extra-labels,149,1057634,0.0-54.0-1.0-0.0,anomymised,6565831db6b8903cc398def3,656766b5dddb719fc45bc983,81477,2C,woman,NA,NA,W2 is being copied by W4,copy1,rating_causation,"{""Q0"":6}",[0],W2 started copying W4 first,W4 started copying W2 first
5238.600000023842,NA,NA,NA,NA,survey-likert-extra-labels,150,1062874,0.0-54.0-2.0,anomymised,6565831db6b8903cc398def3,656766b5dddb719fc45bc983,81477,2C,woman,NA,NA,W2 is being copied by W4,copy1,rating_volition,"{""Q0"":6}",[0],W2 wanted to copy W4,W4 wanted to copy W2
1494.5,<p>Thank you for completing that task.</p><p>The final part of this session is a short questionnaire.</p><p>Press Continue.</p>,0,Continue,Continue,html-button-response,151,1064370,0.0-55.0,anomymised,6565831db6b8903cc398def3,656766b5dddb719fc45bc983,81477,2C,woman,NA,NA,NA,NA,NA,NA,NA,NA,NA
29844.400000095367,NA,NA,NA,NA,survey-text,152,1095235,0.0-56.0,anomymised,6565831db6b8903cc398def3,656766b5dddb719fc45bc983,81477,2C,woman,NA,NA,NA,NA,demographics,"{""Q0"":""48"",""Q1"":""english"",""Q2"":""english"",""Q3"":""United Kingdom"",""Q4"":""british"",""Q5"":""white"",""Q6"":""female""}",NA,NA,NA
3349.7999999523163,<p>This is the last question - thank you for taking part! Have you lived in the UK for the last 5 years or more?</p>,0,"Yes,No",Yes,html-button-response,153,1098586,0.0-57.0,anomymised,6565831db6b8903cc398def3,656766b5dddb719fc45bc983,81477,2C,woman,NA,NA,NA,NA,fiveyears,NA,NA,NA,NA
