rt,stimulus,button_pressed,choices,ChosenStimulus,trial_type,trial_index,time_elapsed,internal_node_id,subject_id,study_id,session_id,subject,list,ppt_gender,url,key_press,sentence_type,verb,test_part,responses,question_order,left_part,right_part
1829,Welcome to the experiment. Press Continue to begin.,0,Continue,Continue,html-button-response,0,1837,0.0-0.0,anomymised,6565828c009eeb17459c8434,6565f642e49fcfc0a1b9c392,84077,1B,woman,NA,NA,NA,NA,NA,NA,NA,NA,NA
5231,NA,NA,NA,NA,external-html,1,8117,0.0-1.0,anomymised,6565828c009eeb17459c8434,6565f642e49fcfc0a1b9c392,84077,1B,woman,consent.html,NA,NA,NA,NA,NA,NA,NA,NA
7051,"<p>Welcome.</p><p>In this experiment we will ask you to imagine some situations.</p><p>Each trial starts with a description of an event.</p><p>Then you will see alternative descriptions of that event, and you will rate on a scale how best they match the original description.</p><p>You will give your answer by clicking a button on a rating scale.</p><p>To do this task, you will have to use your imagination to visualise these events.</p><br><p>Ready?</p>",0,Continue,Continue,html-button-response,2,15171,0.0-2.0,anomymised,6565828c009eeb17459c8434,6565f642e49fcfc0a1b9c392,84077,1B,woman,NA,NA,NA,NA,NA,NA,NA,NA,NA
2444,"<p>Before the experiment starts, you will watch an example trial. Press 'Continue'.</p>",0,Continue,Continue,html-button-response,3,18616,0.0-3.0,anomymised,6565828c009eeb17459c8434,6565f642e49fcfc0a1b9c392,84077,1B,woman,NA,NA,NA,NA,NA,NA,NA,NA,NA
null,The police officer is arresting the robber,NA,NA,NA,html-keyboard-response,4,21621,0.0-4.0,anomymised,6565828c009eeb17459c8434,6565f642e49fcfc0a1b9c392,84077,1B,woman,NA,null,NA,NA,NA,NA,NA,NA,NA
11561,<img src='img/Example-trial.jpg' style='height:550px;''></img>,0,Continue,Continue,html-button-response,5,33184,0.0-5.0,anomymised,6565828c009eeb17459c8434,6565f642e49fcfc0a1b9c392,84077,1B,woman,NA,NA,NA,NA,NA,NA,NA,NA,NA
1742.9999999999927,<p>Ready to start the experiment?</p><br><p><strong>Remember to give an answer by clicking a button on the rating scale.</strong></p><p>Press 'Continue' to begin.</p>,0,Continue,Continue,html-button-response,6,35930,0.0-6.0,anomymised,6565828c009eeb17459c8434,6565f642e49fcfc0a1b9c392,84077,1B,woman,NA,NA,NA,NA,NA,NA,NA,NA,NA
null,Beth is being copied by Jane,NA,NA,NA,html-keyboard-response,7,38934,0.0-7.0-0.0,anomymised,6565828c009eeb17459c8434,6565f642e49fcfc0a1b9c392,84077,1B,woman,NA,null,W4 is being copied by W2,copy1,sentence,NA,NA,NA,NA
6815.000000000007,NA,NA,NA,NA,survey-likert-extra-labels,8,45753,0.0-7.0-1.0-0.0,anomymised,6565828c009eeb17459c8434,6565f642e49fcfc0a1b9c392,84077,1B,woman,NA,NA,W4 is being copied by W2,copy1,rating_causation,"{""Q0"":6}",[0],W4 started copying W2 first,W2 started copying W4 first
13024,NA,NA,NA,NA,survey-likert-extra-labels,9,58779,0.0-7.0-2.0,anomymised,6565828c009eeb17459c8434,6565f642e49fcfc0a1b9c392,84077,1B,woman,NA,NA,W4 is being copied by W2,copy1,rating_volition,"{""Q0"":6}",[0],W4 wanted to copy W2,W2 wanted to copy W4
null,Dave is being kissed by Jane,NA,NA,NA,html-keyboard-response,10,60783,0.0-8.0-0.0,anomymised,6565828c009eeb17459c8434,6565f642e49fcfc0a1b9c392,84077,1B,woman,NA,null,M4 is being kissed by W2,kiss4,sentence,NA,NA,NA,NA
10163,NA,NA,NA,NA,survey-likert-extra-labels,11,70949,0.0-8.0-2.0,anomymised,6565828c009eeb17459c8434,6565f642e49fcfc0a1b9c392,84077,1B,woman,NA,NA,M4 is being kissed by W2,kiss4,rating_volition,"{""Q0"":4}",[0],M4 wanted to kiss W2,W2 wanted to kiss M4
24330.000000000015,NA,NA,NA,NA,survey-likert-extra-labels,12,95282,0.0-8.0-3.0-0.0,anomymised,6565828c009eeb17459c8434,6565f642e49fcfc0a1b9c392,84077,1B,woman,NA,NA,M4 is being kissed by W2,kiss4,rating_causation,"{""Q0"":5}",[0],M4 asked to kiss W2,W2 asked to kiss M4
null,Ruth is being hugged by Kate,NA,NA,NA,html-keyboard-response,13,97288,0.0-9.0-0.0,anomymised,6565828c009eeb17459c8434,6565f642e49fcfc0a1b9c392,84077,1B,woman,NA,null,W1 is being hugged by W3,hug1,sentence,NA,NA,NA,NA
6868.000000000015,NA,NA,NA,NA,survey-likert-extra-labels,14,104160,0.0-9.0-2.0,anomymised,6565828c009eeb17459c8434,6565f642e49fcfc0a1b9c392,84077,1B,woman,NA,NA,W1 is being hugged by W3,hug1,rating_volition,"{""Q0"":0}",[0],W3 wanted to hug W1,W1 wanted to hug W3
12134,NA,NA,NA,NA,survey-likert-extra-labels,15,116296,0.0-9.0-3.0-0.0,anomymised,6565828c009eeb17459c8434,6565f642e49fcfc0a1b9c392,84077,1B,woman,NA,NA,W1 is being hugged by W3,hug1,rating_causation,"{""Q0"":0}",[0],W3 asked to hug W1,W1 asked to hug W3
null,Kate is being kissed by Ruth,NA,NA,NA,html-keyboard-response,16,118300,0.0-10.0-0.0,anomymised,6565828c009eeb17459c8434,6565f642e49fcfc0a1b9c392,84077,1B,woman,NA,null,W3 is being kissed by W1,kiss1,sentence,NA,NA,NA,NA
6232,NA,NA,NA,NA,survey-likert-extra-labels,17,124535,0.0-10.0-2.0,anomymised,6565828c009eeb17459c8434,6565f642e49fcfc0a1b9c392,84077,1B,woman,NA,NA,W3 is being kissed by W1,kiss1,rating_volition,"{""Q0"":5}",[0],W3 wanted to kiss W1,W1 wanted to kiss W3
4109,NA,NA,NA,NA,survey-likert-extra-labels,18,128646,0.0-10.0-3.0-0.0,anomymised,6565828c009eeb17459c8434,6565f642e49fcfc0a1b9c392,84077,1B,woman,NA,NA,W3 is being kissed by W1,kiss1,rating_causation,"{""Q0"":""""}",[0],W3 asked to kiss W1,W1 asked to kiss W3
null,Jane is being challenged by Beth,NA,NA,NA,html-keyboard-response,19,130650,0.0-11.0-0.0,anomymised,6565828c009eeb17459c8434,6565f642e49fcfc0a1b9c392,84077,1B,woman,NA,null,W2 is being challenged by W4,challenge1,sentence,NA,NA,NA,NA
8163,NA,NA,NA,NA,survey-likert-extra-labels,20,138816,0.0-11.0-1.0-0.0,anomymised,6565828c009eeb17459c8434,6565f642e49fcfc0a1b9c392,84077,1B,woman,NA,NA,W2 is being challenged by W4,challenge1,rating_causation,"{""Q0"":4}",[0],W4 started challenging W2 first,W2 started challenging W4 first
15012,NA,NA,NA,NA,survey-likert-extra-labels,21,153832,0.0-11.0-2.0,anomymised,6565828c009eeb17459c8434,6565f642e49fcfc0a1b9c392,84077,1B,woman,NA,NA,W2 is being challenged by W4,challenge1,rating_volition,"{""Q0"":0}",[0],W4 wanted to challenge W2,W2 wanted to challenge W4
null,Jane is being shouted at by Dave,NA,NA,NA,html-keyboard-response,22,155836,0.0-12.0-0.0,anomymised,6565828c009eeb17459c8434,6565f642e49fcfc0a1b9c392,84077,1B,woman,NA,null,W2 is being shouted at by M4,shout4,sentence,NA,NA,NA,NA
5883,NA,NA,NA,NA,survey-likert-extra-labels,23,161721,0.0-12.0-2.0,anomymised,6565828c009eeb17459c8434,6565f642e49fcfc0a1b9c392,84077,1B,woman,NA,NA,W2 is being shouted at by M4,shout4,rating_volition,"{""Q0"":0}",[0],M4 wanted to shout at W2,W2 wanted to shout at M4
6973.999999999971,NA,NA,NA,NA,survey-likert-extra-labels,24,168698,0.0-12.0-3.0-0.0,anomymised,6565828c009eeb17459c8434,6565f642e49fcfc0a1b9c392,84077,1B,woman,NA,NA,W2 is being shouted at by M4,shout4,rating_causation,"{""Q0"":4}",[0],M4 shouted at W2 first,W2 shouted at M4 first
null,Ruth is being copied by Fred,NA,NA,NA,html-keyboard-response,25,170702,0.0-13.0-0.0,anomymised,6565828c009eeb17459c8434,6565f642e49fcfc0a1b9c392,84077,1B,woman,NA,null,W1 is being copied by M3,copy4,sentence,NA,NA,NA,NA
5485,NA,NA,NA,NA,survey-likert-extra-labels,26,176189,0.0-13.0-2.0,anomymised,6565828c009eeb17459c8434,6565f642e49fcfc0a1b9c392,84077,1B,woman,NA,NA,W1 is being copied by M3,copy4,rating_volition,"{""Q0"":6}",[0],W1 wanted to copy M3,M3 wanted to copy W1
9486,NA,NA,NA,NA,survey-likert-extra-labels,27,185678,0.0-13.0-3.0-0.0,anomymised,6565828c009eeb17459c8434,6565f642e49fcfc0a1b9c392,84077,1B,woman,NA,NA,W1 is being copied by M3,copy4,rating_causation,"{""Q0"":4}",[0],W1 started copying M3 first,M3 started copying W1 first
null,Ruth is being greeted by Fred,NA,NA,NA,html-keyboard-response,28,187681,0.0-14.0-0.0,anomymised,6565828c009eeb17459c8434,6565f642e49fcfc0a1b9c392,84077,1B,woman,NA,null,W1 is being greeted by M3,greet3,sentence,NA,NA,NA,NA
7686,NA,NA,NA,NA,survey-likert-extra-labels,29,195370,0.0-14.0-2.0,anomymised,6565828c009eeb17459c8434,6565f642e49fcfc0a1b9c392,84077,1B,woman,NA,NA,W1 is being greeted by M3,greet3,rating_volition,"{""Q0"":6}",[0],W1 wanted to greet M3,M3 wanted to greet W1
47210,NA,NA,NA,NA,survey-likert-extra-labels,30,242582,0.0-14.0-3.0-0.0,anomymised,6565828c009eeb17459c8434,6565f642e49fcfc0a1b9c392,84077,1B,woman,NA,NA,W1 is being greeted by M3,greet3,rating_causation,"{""Q0"":6}",[0],W1 started greeting M3 first,M3 started greeting W1 first
null,Mike is being hugged by Beth,NA,NA,NA,html-keyboard-response,31,244585,0.0-15.0-0.0,anomymised,6565828c009eeb17459c8434,6565f642e49fcfc0a1b9c392,84077,1B,woman,NA,null,M2 is being hugged by W4,hug4,sentence,NA,NA,NA,NA
17270,NA,NA,NA,NA,survey-likert-extra-labels,32,261858,0.0-15.0-1.0-0.0,anomymised,6565828c009eeb17459c8434,6565f642e49fcfc0a1b9c392,84077,1B,woman,NA,NA,M2 is being hugged by W4,hug4,rating_causation,"{""Q0"":0}",[0],W4 asked to hug M2,M2 asked to hug W4
21054,NA,NA,NA,NA,survey-likert-extra-labels,33,282916,0.0-15.0-2.0,anomymised,6565828c009eeb17459c8434,6565f642e49fcfc0a1b9c392,84077,1B,woman,NA,NA,M2 is being hugged by W4,hug4,rating_volition,"{""Q0"":0}",[0],W4 wanted to hug M2,M2 wanted to hug W4
null,Luke is being shouted at by Fred,NA,NA,NA,html-keyboard-response,34,284919,0.0-16.0-0.0,anomymised,6565828c009eeb17459c8434,6565f642e49fcfc0a1b9c392,84077,1B,woman,NA,null,M1 is being shouted at by M3,shout2,sentence,NA,NA,NA,NA
84070,NA,NA,NA,NA,survey-likert-extra-labels,35,368992,0.0-16.0-1.0-0.0,anomymised,6565828c009eeb17459c8434,6565f642e49fcfc0a1b9c392,84077,1B,woman,NA,NA,M1 is being shouted at by M3,shout2,rating_causation,"{""Q0"":2}",[0],M3 shouted at M1 first,M1 shouted at M3 first
13649,NA,NA,NA,NA,survey-likert-extra-labels,36,382643,0.0-16.0-2.0,anomymised,6565828c009eeb17459c8434,6565f642e49fcfc0a1b9c392,84077,1B,woman,NA,NA,M1 is being shouted at by M3,shout2,rating_volition,"{""Q0"":0}",[0],M3 wanted to shout at M1,M1 wanted to shout at M3
null,Fred is being challenged by Ruth,NA,NA,NA,html-keyboard-response,37,384646,0.0-17.0-0.0,anomymised,6565828c009eeb17459c8434,6565f642e49fcfc0a1b9c392,84077,1B,woman,NA,null,M3 is being challenged by W1,challenge3,sentence,NA,NA,NA,NA
4436,NA,NA,NA,NA,survey-likert-extra-labels,38,389086,0.0-17.0-1.0-0.0,anomymised,6565828c009eeb17459c8434,6565f642e49fcfc0a1b9c392,84077,1B,woman,NA,NA,M3 is being challenged by W1,challenge3,rating_causation,"{""Q0"":1}",[0],W1 started challenging M3 first,M3 started challenging W1 first
7173,NA,NA,NA,NA,survey-likert-extra-labels,39,396261,0.0-17.0-2.0,anomymised,6565828c009eeb17459c8434,6565f642e49fcfc0a1b9c392,84077,1B,woman,NA,NA,M3 is being challenged by W1,challenge3,rating_volition,"{""Q0"":0}",[0],W1 wanted to challenge M3,M3 wanted to challenge W1
null,Mike is posing for Dave,NA,NA,NA,html-keyboard-response,40,398264,0.0-18.0-0.0,anomymised,6565828c009eeb17459c8434,6565f642e49fcfc0a1b9c392,84077,1B,woman,NA,null,M2 is posing for M4,pose,sentence,NA,NA,NA,NA
11545,NA,NA,NA,NA,survey-likert-extra-labels,41,409812,0.0-18.0-1.0-0.0,anomymised,6565828c009eeb17459c8434,6565f642e49fcfc0a1b9c392,84077,1B,woman,NA,NA,M2 is posing for M4,pose,rating_causation,"{""Q0"":0}",[0],M2 is photographing M4,M4 is photographing M2
8116.999999999942,NA,NA,NA,NA,survey-likert-extra-labels,42,417931,0.0-18.0-2.0,anomymised,6565828c009eeb17459c8434,6565f642e49fcfc0a1b9c392,84077,1B,woman,NA,NA,M2 is posing for M4,pose,rating_volition,"{""Q0"":0}",[0],M2 is modelling for M4,M4 is modelling for M2
null,Mike is being opposed by Beth,NA,NA,NA,html-keyboard-response,43,419933,0.0-19.0-0.0,anomymised,6565828c009eeb17459c8434,6565f642e49fcfc0a1b9c392,84077,1B,woman,NA,null,M2 is being opposed by W4,oppose4,sentence,NA,NA,NA,NA
4842,NA,NA,NA,NA,survey-likert-extra-labels,44,424777,0.0-19.0-1.0-0.0,anomymised,6565828c009eeb17459c8434,6565f642e49fcfc0a1b9c392,84077,1B,woman,NA,NA,M2 is being opposed by W4,oppose4,rating_causation,"{""Q0"":0}",[0],W4 started opposing M2,M2 started opposing W4
7122,NA,NA,NA,NA,survey-likert-extra-labels,45,431902,0.0-19.0-2.0,anomymised,6565828c009eeb17459c8434,6565f642e49fcfc0a1b9c392,84077,1B,woman,NA,NA,M2 is being opposed by W4,oppose4,rating_volition,"{""Q0"":0}",[0],W4 wanted to oppose M2,M2 wanted to oppose W4
null,Mike is being touched by Dave,NA,NA,NA,html-keyboard-response,46,433904,0.0-20.0-0.0,anomymised,6565828c009eeb17459c8434,6565f642e49fcfc0a1b9c392,84077,1B,woman,NA,null,M2 is being touched by M4,touch2,sentence,NA,NA,NA,NA
6568.000000000058,NA,NA,NA,NA,survey-likert-extra-labels,47,440474,0.0-20.0-1.0-0.0,anomymised,6565828c009eeb17459c8434,6565f642e49fcfc0a1b9c392,84077,1B,woman,NA,NA,M2 is being touched by M4,touch2,rating_causation,"{""Q0"":0}",[0],M4 asked to touch M2,M2 asked to touch M4
6492,NA,NA,NA,NA,survey-likert-extra-labels,48,446969,0.0-20.0-2.0,anomymised,6565828c009eeb17459c8434,6565f642e49fcfc0a1b9c392,84077,1B,woman,NA,NA,M2 is being touched by M4,touch2,rating_volition,"{""Q0"":0}",[0],M4 wanted to touch M2,M2 wanted to touch M4
null,Luke is being copied by Kate,NA,NA,NA,html-keyboard-response,49,448972,0.0-21.0-0.0,anomymised,6565828c009eeb17459c8434,6565f642e49fcfc0a1b9c392,84077,1B,woman,NA,null,M1 is being copied by W3,copy3,sentence,NA,NA,NA,NA
5682.999999999942,NA,NA,NA,NA,survey-likert-extra-labels,50,454657,0.0-21.0-2.0,anomymised,6565828c009eeb17459c8434,6565f642e49fcfc0a1b9c392,84077,1B,woman,NA,NA,M1 is being copied by W3,copy3,rating_volition,"{""Q0"":6}",[0],M1 wanted to copy W3,W3 wanted to copy M1
3807,NA,NA,NA,NA,survey-likert-extra-labels,51,458468,0.0-21.0-3.0-0.0,anomymised,6565828c009eeb17459c8434,6565f642e49fcfc0a1b9c392,84077,1B,woman,NA,NA,M1 is being copied by W3,copy3,rating_causation,"{""Q0"":4}",[0],M1 started copying W3 first,W3 started copying M1 first
null,Mike is reminding Beth,NA,NA,NA,html-keyboard-response,52,460471,0.0-22.0-0.0,anomymised,6565828c009eeb17459c8434,6565f642e49fcfc0a1b9c392,84077,1B,woman,NA,null,M2 is reminding W4,remind,sentence,NA,NA,NA,NA
8097.000000000058,NA,NA,NA,NA,survey-likert-extra-labels,53,468571,0.0-22.0-1.0-0.0,anomymised,6565828c009eeb17459c8434,6565f642e49fcfc0a1b9c392,84077,1B,woman,NA,NA,M2 is reminding W4,remind,rating_causation,"{""Q0"":3}",[0],M2 is remembering,W4 is remembering
8536,NA,NA,NA,NA,survey-likert-extra-labels,54,477110,0.0-22.0-2.0,anomymised,6565828c009eeb17459c8434,6565f642e49fcfc0a1b9c392,84077,1B,woman,NA,NA,M2 is reminding W4,remind,rating_volition,"{""Q0"":1}",[0],M2 is telling W4 again,W4 is telling M2 again
null,Kate is feeding Luke,NA,NA,NA,html-keyboard-response,55,479113,0.0-23.0-0.0,anomymised,6565828c009eeb17459c8434,6565f642e49fcfc0a1b9c392,84077,1B,woman,NA,null,W3 is feeding M1,feed,sentence,NA,NA,NA,NA
7613.999999999942,NA,NA,NA,NA,survey-likert-extra-labels,56,486730,0.0-23.0-1.0-0.0,anomymised,6565828c009eeb17459c8434,6565f642e49fcfc0a1b9c392,84077,1B,woman,NA,NA,W3 is feeding M1,feed,rating_causation,"{""Q0"":6}",[0],W3 is eating M1's food,M1 is eating W3's food
7421,NA,NA,NA,NA,survey-likert-extra-labels,57,494154,0.0-23.0-2.0,anomymised,6565828c009eeb17459c8434,6565f642e49fcfc0a1b9c392,84077,1B,woman,NA,NA,W3 is feeding M1,feed,rating_volition,"{""Q0"":3}",[0],W3 cooked for M1,M1 cooked for W3
null,Ruth is being shouted at by Kate,NA,NA,NA,html-keyboard-response,58,496157,0.0-24.0-0.0,anomymised,6565828c009eeb17459c8434,6565f642e49fcfc0a1b9c392,84077,1B,woman,NA,null,W1 is being shouted at by W3,shout1,sentence,NA,NA,NA,NA
12179.999999999942,NA,NA,NA,NA,survey-likert-extra-labels,59,508339,0.0-24.0-2.0,anomymised,6565828c009eeb17459c8434,6565f642e49fcfc0a1b9c392,84077,1B,woman,NA,NA,W1 is being shouted at by W3,shout1,rating_volition,"{""Q0"":0}",[0],W3 wanted to shout at W1,W1 wanted to shout at W3
7672.000000000058,NA,NA,NA,NA,survey-likert-extra-labels,60,516014,0.0-24.0-3.0-0.0,anomymised,6565828c009eeb17459c8434,6565f642e49fcfc0a1b9c392,84077,1B,woman,NA,NA,W1 is being shouted at by W3,shout1,rating_causation,"{""Q0"":2}",[0],W3 shouted at W1 first,W1 shouted at W3 first
null,Beth is being looked at by Mike,NA,NA,NA,html-keyboard-response,61,518017,0.0-25.0-0.0,anomymised,6565828c009eeb17459c8434,6565f642e49fcfc0a1b9c392,84077,1B,woman,NA,null,W4 is being looked at by M2,look4,sentence,NA,NA,NA,NA
4536.999999999942,NA,NA,NA,NA,survey-likert-extra-labels,62,522556,0.0-25.0-2.0,anomymised,6565828c009eeb17459c8434,6565f642e49fcfc0a1b9c392,84077,1B,woman,NA,NA,W4 is being looked at by M2,look4,rating_volition,"{""Q0"":6}",[0],W4 wanted to look at M2,M2 wanted to look at W4
9052,NA,NA,NA,NA,survey-likert-extra-labels,63,531611,0.0-25.0-3.0-0.0,anomymised,6565828c009eeb17459c8434,6565f642e49fcfc0a1b9c392,84077,1B,woman,NA,NA,W4 is being looked at by M2,look4,rating_causation,"{""Q0"":3}",[0],W4 looked at M2 first,M2 looked at W4 first
null,Beth is being kissed by Mike,NA,NA,NA,html-keyboard-response,64,533614,0.0-26.0-0.0,anomymised,6565828c009eeb17459c8434,6565f642e49fcfc0a1b9c392,84077,1B,woman,NA,null,W4 is being kissed by M2,kiss3,sentence,NA,NA,NA,NA
7900,NA,NA,NA,NA,survey-likert-extra-labels,65,541517,0.0-26.0-2.0,anomymised,6565828c009eeb17459c8434,6565f642e49fcfc0a1b9c392,84077,1B,woman,NA,NA,W4 is being kissed by M2,kiss3,rating_volition,"{""Q0"":6}",[0],W4 wanted to kiss M2,M2 wanted to kiss W4
7022,NA,NA,NA,NA,survey-likert-extra-labels,66,548542,0.0-26.0-3.0-0.0,anomymised,6565828c009eeb17459c8434,6565f642e49fcfc0a1b9c392,84077,1B,woman,NA,NA,W4 is being kissed by M2,kiss3,rating_causation,"{""Q0"":4}",[0],W4 asked to kiss M2,M2 asked to kiss W4
null,Luke is being opposed by Fred,NA,NA,NA,html-keyboard-response,67,550544,0.0-27.0-0.0,anomymised,6565828c009eeb17459c8434,6565f642e49fcfc0a1b9c392,84077,1B,woman,NA,null,M1 is being opposed by M3,oppose2,sentence,NA,NA,NA,NA
7668,NA,NA,NA,NA,survey-likert-extra-labels,68,558214,0.0-27.0-2.0,anomymised,6565828c009eeb17459c8434,6565f642e49fcfc0a1b9c392,84077,1B,woman,NA,NA,M1 is being opposed by M3,oppose2,rating_volition,"{""Q0"":0}",[0],M3 wanted to oppose M1,M1 wanted to oppose M3
3260,NA,NA,NA,NA,survey-likert-extra-labels,69,561478,0.0-27.0-3.0-0.0,anomymised,6565828c009eeb17459c8434,6565f642e49fcfc0a1b9c392,84077,1B,woman,NA,NA,M1 is being opposed by M3,oppose2,rating_causation,"{""Q0"":2}",[0],M3 started opposing M1,M1 started opposing M3
null,Dave is being copied by Mike,NA,NA,NA,html-keyboard-response,70,563481,0.0-28.0-0.0,anomymised,6565828c009eeb17459c8434,6565f642e49fcfc0a1b9c392,84077,1B,woman,NA,null,M4 is being copied by M2,copy2,sentence,NA,NA,NA,NA
4786,NA,NA,NA,NA,survey-likert-extra-labels,71,568269,0.0-28.0-2.0,anomymised,6565828c009eeb17459c8434,6565f642e49fcfc0a1b9c392,84077,1B,woman,NA,NA,M4 is being copied by M2,copy2,rating_volition,"{""Q0"":0}",[0],M4 wanted to copy M2,M2 wanted to copy M4
9235,NA,NA,NA,NA,survey-likert-extra-labels,72,577507,0.0-28.0-3.0-0.0,anomymised,6565828c009eeb17459c8434,6565f642e49fcfc0a1b9c392,84077,1B,woman,NA,NA,M4 is being copied by M2,copy2,rating_causation,"{""Q0"":4}",[0],M4 started copying M2 first,M2 started copying M4 first
null,Jane is being hugged by Dave,NA,NA,NA,html-keyboard-response,73,579510,0.0-29.0-0.0,anomymised,6565828c009eeb17459c8434,6565f642e49fcfc0a1b9c392,84077,1B,woman,NA,null,W2 is being hugged by M4,hug3,sentence,NA,NA,NA,NA
24095,NA,NA,NA,NA,survey-likert-extra-labels,74,603607,0.0-29.0-2.0,anomymised,6565828c009eeb17459c8434,6565f642e49fcfc0a1b9c392,84077,1B,woman,NA,NA,W2 is being hugged by M4,hug3,rating_volition,"{""Q0"":0}",[0],M4 wanted to hug W2,W2 wanted to hug M4
4656,NA,NA,NA,NA,survey-likert-extra-labels,75,608267,0.0-29.0-3.0-0.0,anomymised,6565828c009eeb17459c8434,6565f642e49fcfc0a1b9c392,84077,1B,woman,NA,NA,W2 is being hugged by M4,hug3,rating_causation,"{""Q0"":2}",[0],M4 asked to hug W2,W2 asked to hug M4
null,Dave is being looked at by Jane,NA,NA,NA,html-keyboard-response,76,610270,0.0-30.0-0.0,anomymised,6565828c009eeb17459c8434,6565f642e49fcfc0a1b9c392,84077,1B,woman,NA,null,M4 is being looked at by W2,look3,sentence,NA,NA,NA,NA
7784,NA,NA,NA,NA,survey-likert-extra-labels,77,618056,0.0-30.0-1.0-0.0,anomymised,6565828c009eeb17459c8434,6565f642e49fcfc0a1b9c392,84077,1B,woman,NA,NA,M4 is being looked at by W2,look3,rating_causation,"{""Q0"":3}",[0],M4 looked at W2 first,W2 looked at M4 first
8819.000000000116,NA,NA,NA,NA,survey-likert-extra-labels,78,626878,0.0-30.0-2.0,anomymised,6565828c009eeb17459c8434,6565f642e49fcfc0a1b9c392,84077,1B,woman,NA,NA,M4 is being looked at by W2,look3,rating_volition,"{""Q0"":6}",[0],M4 wanted to look at W2,W2 wanted to look at M4
null,Jane is teaching Dave,NA,NA,NA,html-keyboard-response,79,628881,0.0-31.0-0.0,anomymised,6565828c009eeb17459c8434,6565f642e49fcfc0a1b9c392,84077,1B,woman,NA,null,W2 is teaching M4,teach,sentence,NA,NA,NA,NA
6264,NA,NA,NA,NA,survey-likert-extra-labels,80,635148,0.0-31.0-1.0-0.0,anomymised,6565828c009eeb17459c8434,6565f642e49fcfc0a1b9c392,84077,1B,woman,NA,NA,W2 is teaching M4,teach,rating_causation,"{""Q0"":6}",[0],W2 is learning from M4,M4 is learning from W2
7857.000000000116,NA,NA,NA,NA,survey-likert-extra-labels,81,643007,0.0-31.0-2.0,anomymised,6565828c009eeb17459c8434,6565f642e49fcfc0a1b9c392,84077,1B,woman,NA,NA,W2 is teaching M4,teach,rating_volition,"{""Q0"":0}",[0],W2 is educating M4,M4 is educating W2
null,Kate is being challenged by Luke,NA,NA,NA,html-keyboard-response,82,645010,0.0-32.0-0.0,anomymised,6565828c009eeb17459c8434,6565f642e49fcfc0a1b9c392,84077,1B,woman,NA,null,W3 is being challenged by M1,challenge4,sentence,NA,NA,NA,NA
19568,NA,NA,NA,NA,survey-likert-extra-labels,83,664580,0.0-32.0-2.0,anomymised,6565828c009eeb17459c8434,6565f642e49fcfc0a1b9c392,84077,1B,woman,NA,NA,W3 is being challenged by M1,challenge4,rating_volition,"{""Q0"":0}",[0],M1 wanted to challenge W3,W3 wanted to challenge M1
4625,NA,NA,NA,NA,survey-likert-extra-labels,84,669208,0.0-32.0-3.0-0.0,anomymised,6565828c009eeb17459c8434,6565f642e49fcfc0a1b9c392,84077,1B,woman,NA,NA,W3 is being challenged by M1,challenge4,rating_causation,"{""Q0"":4}",[0],M1 started challenging W3 first,W3 started challenging M1 first
null,Fred is being touched by Ruth,NA,NA,NA,html-keyboard-response,85,671211,0.0-33.0-0.0,anomymised,6565828c009eeb17459c8434,6565f642e49fcfc0a1b9c392,84077,1B,woman,NA,null,M3 is being touched by W1,touch4,sentence,NA,NA,NA,NA
4270,NA,NA,NA,NA,survey-likert-extra-labels,86,675484,0.0-33.0-2.0,anomymised,6565828c009eeb17459c8434,6565f642e49fcfc0a1b9c392,84077,1B,woman,NA,NA,M3 is being touched by W1,touch4,rating_volition,"{""Q0"":6}",[0],W1 wanted to touch M3,M3 wanted to touch W1
7954,NA,NA,NA,NA,survey-likert-extra-labels,87,683440,0.0-33.0-3.0-0.0,anomymised,6565828c009eeb17459c8434,6565f642e49fcfc0a1b9c392,84077,1B,woman,NA,NA,M3 is being touched by W1,touch4,rating_causation,"{""Q0"":2}",[0],W1 asked to touch M3,M3 asked to touch W1
null,Kate is being looked at by Ruth,NA,NA,NA,html-keyboard-response,88,685443,0.0-34.0-0.0,anomymised,6565828c009eeb17459c8434,6565f642e49fcfc0a1b9c392,84077,1B,woman,NA,null,W3 is being looked at by W1,look1,sentence,NA,NA,NA,NA
16971,NA,NA,NA,NA,survey-likert-extra-labels,89,702416,0.0-34.0-1.0-0.0,anomymised,6565828c009eeb17459c8434,6565f642e49fcfc0a1b9c392,84077,1B,woman,NA,NA,W3 is being looked at by W1,look1,rating_causation,"{""Q0"":4}",[0],W3 looked at W1 first,W1 looked at W3 first
6905.000000000116,NA,NA,NA,NA,survey-likert-extra-labels,90,709324,0.0-34.0-2.0,anomymised,6565828c009eeb17459c8434,6565f642e49fcfc0a1b9c392,84077,1B,woman,NA,NA,W3 is being looked at by W1,look1,rating_volition,"{""Q0"":6}",[0],W3 wanted to look at W1,W1 wanted to look at W3
null,Fred is hiring Ruth,NA,NA,NA,html-keyboard-response,91,711327,0.0-35.0-0.0,anomymised,6565828c009eeb17459c8434,6565f642e49fcfc0a1b9c392,84077,1B,woman,NA,null,M3 is hiring W1,hire,sentence,NA,NA,NA,NA
5834,NA,NA,NA,NA,survey-likert-extra-labels,92,717164,0.0-35.0-2.0,anomymised,6565828c009eeb17459c8434,6565f642e49fcfc0a1b9c392,84077,1B,woman,NA,NA,M3 is hiring W1,hire,rating_volition,"{""Q0"":0}",[0],M3 is employing W1,W1 is employing M3
3776,NA,NA,NA,NA,survey-likert-extra-labels,93,720943,0.0-35.0-3.0-0.0,anomymised,6565828c009eeb17459c8434,6565f642e49fcfc0a1b9c392,84077,1B,woman,NA,NA,M3 is hiring W1,hire,rating_causation,"{""Q0"":6}",[0],M3 will work for W1,W1 will work for M3
null,Jane is being seduced by Beth,NA,NA,NA,html-keyboard-response,94,722946,0.0-36.0-0.0,anomymised,6565828c009eeb17459c8434,6565f642e49fcfc0a1b9c392,84077,1B,woman,NA,null,W2 is being seduced by W4,seduce1,sentence,NA,NA,NA,NA
3985.9999999998836,NA,NA,NA,NA,survey-likert-extra-labels,95,726935,0.0-36.0-1.0-0.0,anomymised,6565828c009eeb17459c8434,6565f642e49fcfc0a1b9c392,84077,1B,woman,NA,NA,W2 is being seduced by W4,seduce1,rating_causation,"{""Q0"":4}",[0],W4 started seducing W2 first,W2 started seducing W4 first
8152,NA,NA,NA,NA,survey-likert-extra-labels,96,735090,0.0-36.0-2.0,anomymised,6565828c009eeb17459c8434,6565f642e49fcfc0a1b9c392,84077,1B,woman,NA,NA,W2 is being seduced by W4,seduce1,rating_volition,"{""Q0"":0}",[0],W4 wanted to seduce W2,W2 wanted to seduce W4
null,Dave is being greeted by Mike,NA,NA,NA,html-keyboard-response,97,737093,0.0-37.0-0.0,anomymised,6565828c009eeb17459c8434,6565f642e49fcfc0a1b9c392,84077,1B,woman,NA,null,M4 is being greeted by M2,greet2,sentence,NA,NA,NA,NA
6716,NA,NA,NA,NA,survey-likert-extra-labels,98,743812,0.0-37.0-2.0,anomymised,6565828c009eeb17459c8434,6565f642e49fcfc0a1b9c392,84077,1B,woman,NA,NA,M4 is being greeted by M2,greet2,rating_volition,"{""Q0"":0}",[0],M4 wanted to greet M2,M2 wanted to greet M4
10818,NA,NA,NA,NA,survey-likert-extra-labels,99,754633,0.0-37.0-3.0-0.0,anomymised,6565828c009eeb17459c8434,6565f642e49fcfc0a1b9c392,84077,1B,woman,NA,NA,M4 is being greeted by M2,greet2,rating_causation,"{""Q0"":2}",[0],M4 started greeting M2 first,M2 started greeting M4 first
null,Mike is being shouted at by Beth,NA,NA,NA,html-keyboard-response,100,756635,0.0-38.0-0.0,anomymised,6565828c009eeb17459c8434,6565f642e49fcfc0a1b9c392,84077,1B,woman,NA,null,M2 is being shouted at by W4,shout3,sentence,NA,NA,NA,NA
5669,NA,NA,NA,NA,survey-likert-extra-labels,101,762306,0.0-38.0-2.0,anomymised,6565828c009eeb17459c8434,6565f642e49fcfc0a1b9c392,84077,1B,woman,NA,NA,M2 is being shouted at by W4,shout3,rating_volition,"{""Q0"":6}",[0],W4 wanted to shout at M2,M2 wanted to shout at W4
5656,NA,NA,NA,NA,survey-likert-extra-labels,102,767966,0.0-38.0-3.0-0.0,anomymised,6565828c009eeb17459c8434,6565f642e49fcfc0a1b9c392,84077,1B,woman,NA,NA,M2 is being shouted at by W4,shout3,rating_causation,"{""Q0"":2}",[0],W4 shouted at M2 first,M2 shouted at W4 first
null,Ruth is chasing Kate,NA,NA,NA,html-keyboard-response,103,769969,0.0-39.0-0.0,anomymised,6565828c009eeb17459c8434,6565f642e49fcfc0a1b9c392,84077,1B,woman,NA,null,W1 is chasing W3,chase,sentence,NA,NA,NA,NA
4821,NA,NA,NA,NA,survey-likert-extra-labels,104,774792,0.0-39.0-2.0,anomymised,6565828c009eeb17459c8434,6565f642e49fcfc0a1b9c392,84077,1B,woman,NA,NA,W1 is chasing W3,chase,rating_volition,"{""Q0"":0}",[0],W1 is behind W3,W3 is behind W1
12398.000000000116,NA,NA,NA,NA,survey-likert-extra-labels,105,787194,0.0-39.0-3.0-0.0,anomymised,6565828c009eeb17459c8434,6565f642e49fcfc0a1b9c392,84077,1B,woman,NA,NA,W1 is chasing W3,chase,rating_causation,"{""Q0"":6}",[0],W1 is running away from W3,W3 is running away from W1
null,Jane is being touched by Beth,NA,NA,NA,html-keyboard-response,106,789197,0.0-40.0-0.0,anomymised,6565828c009eeb17459c8434,6565f642e49fcfc0a1b9c392,84077,1B,woman,NA,null,W2 is being touched by W4,touch1,sentence,NA,NA,NA,NA
7782,NA,NA,NA,NA,survey-likert-extra-labels,107,796981,0.0-40.0-2.0,anomymised,6565828c009eeb17459c8434,6565f642e49fcfc0a1b9c392,84077,1B,woman,NA,NA,W2 is being touched by W4,touch1,rating_volition,"{""Q0"":0}",[0],W4 wanted to touch W2,W2 wanted to touch W4
7621,NA,NA,NA,NA,survey-likert-extra-labels,108,804605,0.0-40.0-3.0-0.0,anomymised,6565828c009eeb17459c8434,6565f642e49fcfc0a1b9c392,84077,1B,woman,NA,NA,W2 is being touched by W4,touch1,rating_causation,"{""Q0"":4}",[0],W4 asked to touch W2,W2 asked to touch W4
null,Mike is being seduced by Dave,NA,NA,NA,html-keyboard-response,109,806608,0.0-41.0-0.0,anomymised,6565828c009eeb17459c8434,6565f642e49fcfc0a1b9c392,84077,1B,woman,NA,null,M2 is being seduced by M4,seduce2,sentence,NA,NA,NA,NA
6732,NA,NA,NA,NA,survey-likert-extra-labels,110,813344,0.0-41.0-1.0-0.0,anomymised,6565828c009eeb17459c8434,6565f642e49fcfc0a1b9c392,84077,1B,woman,NA,NA,M2 is being seduced by M4,seduce2,rating_causation,"{""Q0"":4}",[0],M4 started seducing M2 first,M2 started seducing M4 first
5955.999999999884,NA,NA,NA,NA,survey-likert-extra-labels,111,819303,0.0-41.0-2.0,anomymised,6565828c009eeb17459c8434,6565f642e49fcfc0a1b9c392,84077,1B,woman,NA,NA,M2 is being seduced by M4,seduce2,rating_volition,"{""Q0"":0}",[0],M4 wanted to seduce M2,M2 wanted to seduce M4
null,Fred is being looked at by Luke,NA,NA,NA,html-keyboard-response,112,821307,0.0-42.0-0.0,anomymised,6565828c009eeb17459c8434,6565f642e49fcfc0a1b9c392,84077,1B,woman,NA,null,M3 is being looked at by M1,look2,sentence,NA,NA,NA,NA
8530,NA,NA,NA,NA,survey-likert-extra-labels,113,829839,0.0-42.0-1.0-0.0,anomymised,6565828c009eeb17459c8434,6565f642e49fcfc0a1b9c392,84077,1B,woman,NA,NA,M3 is being looked at by M1,look2,rating_causation,"{""Q0"":4}",[0],M3 looked at M1 first,M1 looked at M3 first
4255.999999999884,NA,NA,NA,NA,survey-likert-extra-labels,114,834098,0.0-42.0-2.0,anomymised,6565828c009eeb17459c8434,6565f642e49fcfc0a1b9c392,84077,1B,woman,NA,NA,M3 is being looked at by M1,look2,rating_volition,"{""Q0"":6}",[0],M3 wanted to look at M1,M1 wanted to look at M3
null,Ruth is being opposed by Kate,NA,NA,NA,html-keyboard-response,115,836101,0.0-43.0-0.0,anomymised,6565828c009eeb17459c8434,6565f642e49fcfc0a1b9c392,84077,1B,woman,NA,null,W1 is being opposed by W3,oppose1,sentence,NA,NA,NA,NA
6982,NA,NA,NA,NA,survey-likert-extra-labels,116,843086,0.0-43.0-2.0,anomymised,6565828c009eeb17459c8434,6565f642e49fcfc0a1b9c392,84077,1B,woman,NA,NA,W1 is being opposed by W3,oppose1,rating_volition,"{""Q0"":0}",[0],W3 wanted to oppose W1,W1 wanted to oppose W3
8752.000000000116,NA,NA,NA,NA,survey-likert-extra-labels,117,851842,0.0-43.0-3.0-0.0,anomymised,6565828c009eeb17459c8434,6565f642e49fcfc0a1b9c392,84077,1B,woman,NA,NA,W1 is being opposed by W3,oppose1,rating_causation,"{""Q0"":2}",[0],W3 started opposing W1,W1 started opposing W3
null,Luke is being hugged by Fred,NA,NA,NA,html-keyboard-response,118,853844,0.0-44.0-0.0,anomymised,6565828c009eeb17459c8434,6565f642e49fcfc0a1b9c392,84077,1B,woman,NA,null,M1 is being hugged by M3,hug2,sentence,NA,NA,NA,NA
7781.999999999884,NA,NA,NA,NA,survey-likert-extra-labels,119,861629,0.0-44.0-2.0,anomymised,6565828c009eeb17459c8434,6565f642e49fcfc0a1b9c392,84077,1B,woman,NA,NA,M1 is being hugged by M3,hug2,rating_volition,"{""Q0"":0}",[0],M3 wanted to hug M1,M1 wanted to hug M3
6007,NA,NA,NA,NA,survey-likert-extra-labels,120,867639,0.0-44.0-3.0-0.0,anomymised,6565828c009eeb17459c8434,6565f642e49fcfc0a1b9c392,84077,1B,woman,NA,NA,M1 is being hugged by M3,hug2,rating_causation,"{""Q0"":""""}",[0],M3 asked to hug M1,M1 asked to hug M3
null,Fred is being seduced by Ruth,NA,NA,NA,html-keyboard-response,121,869642,0.0-45.0-0.0,anomymised,6565828c009eeb17459c8434,6565f642e49fcfc0a1b9c392,84077,1B,woman,NA,null,M3 is being seduced by W1,seduce4,sentence,NA,NA,NA,NA
8662.999999999884,NA,NA,NA,NA,survey-likert-extra-labels,122,878307,0.0-45.0-1.0-0.0,anomymised,6565828c009eeb17459c8434,6565f642e49fcfc0a1b9c392,84077,1B,woman,NA,NA,M3 is being seduced by W1,seduce4,rating_causation,"{""Q0"":2}",[0],W1 started seducing M3 first,M3 started seducing W1 first
7971,NA,NA,NA,NA,survey-likert-extra-labels,123,886281,0.0-45.0-2.0,anomymised,6565828c009eeb17459c8434,6565f642e49fcfc0a1b9c392,84077,1B,woman,NA,NA,M3 is being seduced by W1,seduce4,rating_volition,"{""Q0"":0}",[0],W1 wanted to seducing M3,M3 wanted to seducing W1
null,Luke is being greeted by Kate,NA,NA,NA,html-keyboard-response,124,888284,0.0-46.0-0.0,anomymised,6565828c009eeb17459c8434,6565f642e49fcfc0a1b9c392,84077,1B,woman,NA,null,M1 is being greeted by W3,greet4,sentence,NA,NA,NA,NA
6268,NA,NA,NA,NA,survey-likert-extra-labels,125,894555,0.0-46.0-1.0-0.0,anomymised,6565828c009eeb17459c8434,6565f642e49fcfc0a1b9c392,84077,1B,woman,NA,NA,M1 is being greeted by W3,greet4,rating_causation,"{""Q0"":4}",[0],M1 started greeting W3 first,W3 started greeting M1 first
6440,NA,NA,NA,NA,survey-likert-extra-labels,126,900998,0.0-46.0-2.0,anomymised,6565828c009eeb17459c8434,6565f642e49fcfc0a1b9c392,84077,1B,woman,NA,NA,M1 is being greeted by W3,greet4,rating_volition,"{""Q0"":6}",[0],M1 wanted to greet W3,W3 wanted to greet M1
null,Kate is being touched by Luke,NA,NA,NA,html-keyboard-response,127,903000,0.0-47.0-0.0,anomymised,6565828c009eeb17459c8434,6565f642e49fcfc0a1b9c392,84077,1B,woman,NA,null,W3 is being touched by M1,touch3,sentence,NA,NA,NA,NA
10129,NA,NA,NA,NA,survey-likert-extra-labels,128,913132,0.0-47.0-2.0,anomymised,6565828c009eeb17459c8434,6565f642e49fcfc0a1b9c392,84077,1B,woman,NA,NA,W3 is being touched by M1,touch3,rating_volition,"{""Q0"":2}",[0],M1 wanted to touch W3,W3 wanted to touch M1
5408.000000000116,NA,NA,NA,NA,survey-likert-extra-labels,129,918543,0.0-47.0-3.0-0.0,anomymised,6565828c009eeb17459c8434,6565f642e49fcfc0a1b9c392,84077,1B,woman,NA,NA,W3 is being touched by M1,touch3,rating_causation,"{""Q0"":0}",[0],M1 asked to touch W3,W3 asked to touch M1
null,Mike is being challenged by Dave,NA,NA,NA,html-keyboard-response,130,920546,0.0-48.0-0.0,anomymised,6565828c009eeb17459c8434,6565f642e49fcfc0a1b9c392,84077,1B,woman,NA,null,M2 is being challenged by M4,challenge2,sentence,NA,NA,NA,NA
6618,NA,NA,NA,NA,survey-likert-extra-labels,131,927167,0.0-48.0-2.0,anomymised,6565828c009eeb17459c8434,6565f642e49fcfc0a1b9c392,84077,1B,woman,NA,NA,M2 is being challenged by M4,challenge2,rating_volition,"{""Q0"":0}",[0],M4 wanted to challenge M2,M2 wanted to challenge M4
6440,NA,NA,NA,NA,survey-likert-extra-labels,132,933610,0.0-48.0-3.0-0.0,anomymised,6565828c009eeb17459c8434,6565f642e49fcfc0a1b9c392,84077,1B,woman,NA,NA,M2 is being challenged by M4,challenge2,rating_causation,"{""Q0"":2}",[0],M4 started challenging M2 first,M2 started challenging M4 first
null,Kate is being seduced by Luke,NA,NA,NA,html-keyboard-response,133,935614,0.0-49.0-0.0,anomymised,6565828c009eeb17459c8434,6565f642e49fcfc0a1b9c392,84077,1B,woman,NA,null,W3 is being seduced by M1,seduce3,sentence,NA,NA,NA,NA
15207,NA,NA,NA,NA,survey-likert-extra-labels,134,950823,0.0-49.0-2.0,anomymised,6565828c009eeb17459c8434,6565f642e49fcfc0a1b9c392,84077,1B,woman,NA,NA,W3 is being seduced by M1,seduce3,rating_volition,"{""Q0"":0}",[0],M1 wanted to seduce W3,W3 wanted to seduce M1
4175.999999999884,NA,NA,NA,NA,survey-likert-extra-labels,135,955003,0.0-49.0-3.0-0.0,anomymised,6565828c009eeb17459c8434,6565f642e49fcfc0a1b9c392,84077,1B,woman,NA,NA,W3 is being seduced by M1,seduce3,rating_causation,"{""Q0"":2}",[0],M1 started seducing W3 first,W3 started seducing M1 first
null,Jane is carrying Beth,NA,NA,NA,html-keyboard-response,136,957006,0.0-50.0-0.0,anomymised,6565828c009eeb17459c8434,6565f642e49fcfc0a1b9c392,84077,1B,woman,NA,null,W2 is carrying W4,carry,sentence,NA,NA,NA,NA
4253,NA,NA,NA,NA,survey-likert-extra-labels,137,961262,0.0-50.0-1.0-0.0,anomymised,6565828c009eeb17459c8434,6565f642e49fcfc0a1b9c392,84077,1B,woman,NA,NA,W2 is carrying W4,carry,rating_causation,"{""Q0"":6}",[0],W2 is being moved by W4,W4 is being moved by W2
6823,NA,NA,NA,NA,survey-likert-extra-labels,138,968088,0.0-50.0-2.0,anomymised,6565828c009eeb17459c8434,6565f642e49fcfc0a1b9c392,84077,1B,woman,NA,NA,W2 is carrying W4,carry,rating_volition,"{""Q0"":0}",[0],W2 is transporting W4,W4 is transporting W2
null,Beth is being greeted by Jane,NA,NA,NA,html-keyboard-response,139,970091,0.0-51.0-0.0,anomymised,6565828c009eeb17459c8434,6565f642e49fcfc0a1b9c392,84077,1B,woman,NA,null,W4 is being greeted by W2,greet1,sentence,NA,NA,NA,NA
11944.000000000116,NA,NA,NA,NA,survey-likert-extra-labels,140,982037,0.0-51.0-2.0,anomymised,6565828c009eeb17459c8434,6565f642e49fcfc0a1b9c392,84077,1B,woman,NA,NA,W4 is being greeted by W2,greet1,rating_volition,"{""Q0"":6}",[0],W4 wanted to greet W2,W2 wanted to greet W4
9419,NA,NA,NA,NA,survey-likert-extra-labels,141,991460,0.0-51.0-3.0-0.0,anomymised,6565828c009eeb17459c8434,6565f642e49fcfc0a1b9c392,84077,1B,woman,NA,NA,W4 is being greeted by W2,greet1,rating_causation,"{""Q0"":4}",[0],W4 started greeting W2 first,W2 started greeting W4 first
null,Jane is being opposed by Dave,NA,NA,NA,html-keyboard-response,142,993463,0.0-52.0-0.0,anomymised,6565828c009eeb17459c8434,6565f642e49fcfc0a1b9c392,84077,1B,woman,NA,null,W2 is being opposed by M4,oppose3,sentence,NA,NA,NA,NA
8865.999999999884,NA,NA,NA,NA,survey-likert-extra-labels,143,1002331,0.0-52.0-1.0-0.0,anomymised,6565828c009eeb17459c8434,6565f642e49fcfc0a1b9c392,84077,1B,woman,NA,NA,W2 is being opposed by M4,oppose3,rating_causation,"{""Q0"":0}",[0],M4 started opposing W2,W2 started opposing M4
11034,NA,NA,NA,NA,survey-likert-extra-labels,144,1013368,0.0-52.0-2.0,anomymised,6565828c009eeb17459c8434,6565f642e49fcfc0a1b9c392,84077,1B,woman,NA,NA,W2 is being opposed by M4,oppose3,rating_volition,"{""Q0"":0}",[0],M4 wanted to oppose W2,W2 wanted to oppose M4
null,Fred is being kissed by Luke,NA,NA,NA,html-keyboard-response,145,1015372,0.0-53.0-0.0,anomymised,6565828c009eeb17459c8434,6565f642e49fcfc0a1b9c392,84077,1B,woman,NA,null,M3 is being kissed by M1,kiss2,sentence,NA,NA,NA,NA
5586,NA,NA,NA,NA,survey-likert-extra-labels,146,1020960,0.0-53.0-2.0,anomymised,6565828c009eeb17459c8434,6565f642e49fcfc0a1b9c392,84077,1B,woman,NA,NA,M3 is being kissed by M1,kiss2,rating_volition,"{""Q0"":6}",[0],M3 wanted to kiss M1,M1 wanted to kiss M3
5073.000000000116,NA,NA,NA,NA,survey-likert-extra-labels,147,1026037,0.0-53.0-3.0-0.0,anomymised,6565828c009eeb17459c8434,6565f642e49fcfc0a1b9c392,84077,1B,woman,NA,NA,M3 is being kissed by M1,kiss2,rating_causation,"{""Q0"":4}",[0],M3 asked to kiss M1,M1 asked to kiss M3
null,Luke is driving Fred,NA,NA,NA,html-keyboard-response,148,1028040,0.0-54.0-0.0,anomymised,6565828c009eeb17459c8434,6565f642e49fcfc0a1b9c392,84077,1B,woman,NA,null,M1 is driving M3,drive,sentence,NA,NA,NA,NA
6018.000000000116,NA,NA,NA,NA,survey-likert-extra-labels,149,1034061,0.0-54.0-1.0-0.0,anomymised,6565828c009eeb17459c8434,6565f642e49fcfc0a1b9c392,84077,1B,woman,NA,NA,M1 is driving M3,drive,rating_causation,"{""Q0"":0}",[0],M1 is taking M3 somewhere,M3 is taking M1 somewhere
7304.999999999884,NA,NA,NA,NA,survey-likert-extra-labels,150,1041369,0.0-54.0-2.0,anomymised,6565828c009eeb17459c8434,6565f642e49fcfc0a1b9c392,84077,1B,woman,NA,NA,M1 is driving M3,drive,rating_volition,"{""Q0"":6}",[0],M1 is M3's passenger,M3 is M1's passenger
1737.9999999997672,<p>Thank you for completing that task.</p><p>The final part of this session is a short questionnaire.</p><p>Press Continue.</p>,0,Continue,Continue,html-button-response,151,1043112,0.0-55.0,anomymised,6565828c009eeb17459c8434,6565f642e49fcfc0a1b9c392,84077,1B,woman,NA,NA,NA,NA,NA,NA,NA,NA,NA
23901.999999999884,NA,NA,NA,NA,survey-text,152,1068024,0.0-56.0,anomymised,6565828c009eeb17459c8434,6565f642e49fcfc0a1b9c392,84077,1B,woman,NA,NA,NA,NA,demographics,"{""Q0"":""32"",""Q1"":""English"",""Q2"":""English"",""Q3"":""UK"",""Q4"":""British"",""Q5"":""White British"",""Q6"":""Female""}",NA,NA,NA
13789,<p>This is the last question - thank you for taking part! Have you lived in the UK for the last 5 years or more?</p>,0,"Yes,No",Yes,html-button-response,153,1081814,0.0-57.0,anomymised,6565828c009eeb17459c8434,6565f642e49fcfc0a1b9c392,84077,1B,woman,NA,NA,NA,NA,fiveyears,NA,NA,NA,NA
