rt,stimulus,button_pressed,choices,ChosenStimulus,trial_type,trial_index,time_elapsed,internal_node_id,subject_id,study_id,session_id,subject,list,ppt_gender,url,key_press,sentence_type,verb,test_part,responses,question_order,left_part,right_part
1980.2999999523163,Welcome to the experiment. Press Continue to begin.,0,Continue,Continue,html-button-response,0,1991,0.0-0.0,anomymised,65658334de4976d2bd35dbcf,6567861ccb5d154e39190d71,84105,2,woman,NA,NA,NA,NA,NA,NA,NA,NA,NA
15291,NA,NA,NA,NA,external-html,1,18327,0.0-1.0,anomymised,65658334de4976d2bd35dbcf,6567861ccb5d154e39190d71,84105,2,woman,consent.html,NA,NA,NA,NA,NA,NA,NA,NA
1631.8999999761581,"<p>Welcome.</p><p>In this experiment we will ask you to imagine some situations.</p><p>Each trial starts with a description of an event.</p><p>Then you will see alternative descriptions of that event, and you will rate on a scale how best they match the original description.</p><p>You will give your answer by clicking a button on a rating scale.</p><p>To do this task, you will have to use your imagination to visualise these events.</p><br><p>Ready?</p>",0,Continue,Continue,html-button-response,2,19960,0.0-2.0,anomymised,65658334de4976d2bd35dbcf,6567861ccb5d154e39190d71,84105,2,woman,NA,NA,NA,NA,NA,NA,NA,NA,NA
1369.7999999523163,"<p>Before the experiment starts, you will watch an example trial. Press 'Continue'.</p>",0,Continue,Continue,html-button-response,3,22334,0.0-3.0,anomymised,65658334de4976d2bd35dbcf,6567861ccb5d154e39190d71,84105,2,woman,NA,NA,NA,NA,NA,NA,NA,NA,NA
null,The police officer is arresting the robber,NA,NA,NA,html-keyboard-response,4,25404,0.0-4.0,anomymised,65658334de4976d2bd35dbcf,6567861ccb5d154e39190d71,84105,2,woman,NA,null,NA,NA,NA,NA,NA,NA,NA
12477.700000047684,<img src='img/Example-trial.jpg' style='height:550px;''></img>,0,Continue,Continue,html-button-response,5,37884,0.0-5.0,anomymised,65658334de4976d2bd35dbcf,6567861ccb5d154e39190d71,84105,2,woman,NA,NA,NA,NA,NA,NA,NA,NA,NA
3362.7999999523163,<p>Ready to start the experiment?</p><br><p><strong>Remember to give an answer by clicking a button on the rating scale.</strong></p><p>Press 'Continue' to begin.</p>,0,Continue,Continue,html-button-response,6,42265,0.0-6.0,anomymised,65658334de4976d2bd35dbcf,6567861ccb5d154e39190d71,84105,2,woman,NA,NA,NA,NA,NA,NA,NA,NA,NA
null,Mike is being seduced by Dave,NA,NA,NA,html-keyboard-response,7,45284,0.0-7.0-0.0,anomymised,65658334de4976d2bd35dbcf,6567861ccb5d154e39190d71,84105,2,woman,NA,null,M4 is being seduced by M2,seduce2,sentence,NA,NA,NA,NA
7908.699999928474,NA,NA,NA,NA,survey-likert-extra-labels,8,53196,0.0-7.0-2.0,anomymised,65658334de4976d2bd35dbcf,6567861ccb5d154e39190d71,84105,2,woman,NA,NA,M4 is being seduced by M2,seduce2,rating_volition,"{""Q0"":6}",[0],M4 wanted to seduce M2,M2 wanted to seduce M4
10331.300000071526,NA,NA,NA,NA,survey-likert-extra-labels,9,63532,0.0-7.0-3.0-0.0,anomymised,65658334de4976d2bd35dbcf,6567861ccb5d154e39190d71,84105,2,woman,NA,NA,M4 is being seduced by M2,seduce2,rating_causation,"{""Q0"":6}",[0],M4 started seducing M2 first,M2 started seducing M4 first
null,Ruth is being touched by Kate,NA,NA,NA,html-keyboard-response,10,65547,0.0-8.0-0.0,anomymised,65658334de4976d2bd35dbcf,6567861ccb5d154e39190d71,84105,2,woman,NA,null,W4 is being touched by W2,touch1,sentence,NA,NA,NA,NA
11352.399999976158,NA,NA,NA,NA,survey-likert-extra-labels,11,76902,0.0-8.0-1.0-0.0,anomymised,65658334de4976d2bd35dbcf,6567861ccb5d154e39190d71,84105,2,woman,NA,NA,W4 is being touched by W2,touch1,rating_causation,"{""Q0"":6}",[0],W4 asked to touch W2,W2 asked to touch W4
8839.700000047684,NA,NA,NA,NA,survey-likert-extra-labels,12,85748,0.0-8.0-2.0,anomymised,65658334de4976d2bd35dbcf,6567861ccb5d154e39190d71,84105,2,woman,NA,NA,W4 is being touched by W2,touch1,rating_volition,"{""Q0"":6}",[0],W4 wanted to touch W2,W2 wanted to touch W4
null,Ruth is being shouted at by Dave,NA,NA,NA,html-keyboard-response,13,87756,0.0-9.0-0.0,anomymised,65658334de4976d2bd35dbcf,6567861ccb5d154e39190d71,84105,2,woman,NA,null,W4 is being shouted at by M2,shout3,sentence,NA,NA,NA,NA
8397.399999976158,NA,NA,NA,NA,survey-likert-extra-labels,14,96155,0.0-9.0-1.0-0.0,anomymised,65658334de4976d2bd35dbcf,6567861ccb5d154e39190d71,84105,2,woman,NA,NA,W4 is being shouted at by M2,shout3,rating_causation,"{""Q0"":4}",[0],W4 shouted at M2 first,M2 shouted at W4 first
10285.199999928474,NA,NA,NA,NA,survey-likert-extra-labels,15,106447,0.0-9.0-2.0,anomymised,65658334de4976d2bd35dbcf,6567861ccb5d154e39190d71,84105,2,woman,NA,NA,W4 is being shouted at by M2,shout3,rating_volition,"{""Q0"":5}",[0],W4 wanted to shout at M2,M2 wanted to shout at W4
null,Ruth is being seduced by Kate,NA,NA,NA,html-keyboard-response,16,108468,0.0-10.0-0.0,anomymised,65658334de4976d2bd35dbcf,6567861ccb5d154e39190d71,84105,2,woman,NA,null,W4 is being seduced by W2,seduce1,sentence,NA,NA,NA,NA
8048,NA,NA,NA,NA,survey-likert-extra-labels,17,116518,0.0-10.0-2.0,anomymised,65658334de4976d2bd35dbcf,6567861ccb5d154e39190d71,84105,2,woman,NA,NA,W4 is being seduced by W2,seduce1,rating_volition,"{""Q0"":6}",[0],W4 wanted to seduce W2,W2 wanted to seduce W4
9426.799999952316,NA,NA,NA,NA,survey-likert-extra-labels,18,125953,0.0-10.0-3.0-0.0,anomymised,65658334de4976d2bd35dbcf,6567861ccb5d154e39190d71,84105,2,woman,NA,NA,W4 is being seduced by W2,seduce1,rating_causation,"{""Q0"":0}",[0],W4 started seducing W2 first,W2 started seducing W4 first
null,Fred is being touched by Jane,NA,NA,NA,html-keyboard-response,19,127961,0.0-11.0-0.0,anomymised,65658334de4976d2bd35dbcf,6567861ccb5d154e39190d71,84105,2,woman,NA,null,M1 is being touched by W3,touch3,sentence,NA,NA,NA,NA
5387.199999928474,NA,NA,NA,NA,survey-likert-extra-labels,20,133351,0.0-11.0-1.0-0.0,anomymised,65658334de4976d2bd35dbcf,6567861ccb5d154e39190d71,84105,2,woman,NA,NA,M1 is being touched by W3,touch3,rating_causation,"{""Q0"":1}",[0],M1 asked to touch W3,W3 asked to touch M1
5664.200000047684,NA,NA,NA,NA,survey-likert-extra-labels,21,139021,0.0-11.0-2.0,anomymised,65658334de4976d2bd35dbcf,6567861ccb5d154e39190d71,84105,2,woman,NA,NA,M1 is being touched by W3,touch3,rating_volition,"{""Q0"":""""}",[0],M1 wanted to touch W3,W3 wanted to touch M1
null,Mike is being challenged by Dave,NA,NA,NA,html-keyboard-response,22,141037,0.0-12.0-0.0,anomymised,65658334de4976d2bd35dbcf,6567861ccb5d154e39190d71,84105,2,woman,NA,null,M4 is being challenged by M2,challenge2,sentence,NA,NA,NA,NA
8130.799999952316,NA,NA,NA,NA,survey-likert-extra-labels,23,149170,0.0-12.0-1.0-0.0,anomymised,65658334de4976d2bd35dbcf,6567861ccb5d154e39190d71,84105,2,woman,NA,NA,M4 is being challenged by M2,challenge2,rating_causation,"{""Q0"":5}",[0],M4 started challenging M2 first,M2 started challenging M4 first
7894.700000047684,NA,NA,NA,NA,survey-likert-extra-labels,24,157071,0.0-12.0-2.0,anomymised,65658334de4976d2bd35dbcf,6567861ccb5d154e39190d71,84105,2,woman,NA,NA,M4 is being challenged by M2,challenge2,rating_volition,"{""Q0"":6}",[0],M4 wanted to challenge M2,M2 wanted to challenge M4
null,Ruth is being opposed by Dave,NA,NA,NA,html-keyboard-response,25,159104,0.0-13.0-0.0,anomymised,65658334de4976d2bd35dbcf,6567861ccb5d154e39190d71,84105,2,woman,NA,null,W4 is being opposed by M2,oppose4,sentence,NA,NA,NA,NA
8181.600000023842,NA,NA,NA,NA,survey-likert-extra-labels,26,167288,0.0-13.0-2.0,anomymised,65658334de4976d2bd35dbcf,6567861ccb5d154e39190d71,84105,2,woman,NA,NA,W4 is being opposed by M2,oppose4,rating_volition,"{""Q0"":5}",[0],W4 wanted to oppose M2,M2 wanted to oppose W4
7997.700000047684,NA,NA,NA,NA,survey-likert-extra-labels,27,175292,0.0-13.0-3.0-0.0,anomymised,65658334de4976d2bd35dbcf,6567861ccb5d154e39190d71,84105,2,woman,NA,NA,W4 is being opposed by M2,oppose4,rating_causation,"{""Q0"":6}",[0],W4 started opposing M2,M2 started opposing W4
null,Jane is feeding Fred,NA,NA,NA,html-keyboard-response,28,177322,0.0-14.0-0.0,anomymised,65658334de4976d2bd35dbcf,6567861ccb5d154e39190d71,84105,2,woman,NA,null,W3 is feeding M1,feed,sentence,NA,NA,NA,NA
14341.599999904633,NA,NA,NA,NA,survey-likert-extra-labels,29,191666,0.0-14.0-1.0-0.0,anomymised,65658334de4976d2bd35dbcf,6567861ccb5d154e39190d71,84105,2,woman,NA,NA,W3 is feeding M1,feed,rating_causation,"{""Q0"":3}",[0],W3 is eating M1's food,M1 is eating W3's food
7675.100000023842,NA,NA,NA,NA,survey-likert-extra-labels,30,199348,0.0-14.0-2.0,anomymised,65658334de4976d2bd35dbcf,6567861ccb5d154e39190d71,84105,2,woman,NA,NA,W3 is feeding M1,feed,rating_volition,"{""Q0"":2}",[0],W3 cooked for M1,M1 cooked for W3
null,Beth is chasing Jane,NA,NA,NA,html-keyboard-response,31,201360,0.0-15.0-0.0,anomymised,65658334de4976d2bd35dbcf,6567861ccb5d154e39190d71,84105,2,woman,NA,null,W1 is chasing W3,chase,sentence,NA,NA,NA,NA
14166.399999976158,NA,NA,NA,NA,survey-likert-extra-labels,32,215529,0.0-15.0-1.0-0.0,anomymised,65658334de4976d2bd35dbcf,6567861ccb5d154e39190d71,84105,2,woman,NA,NA,W1 is chasing W3,chase,rating_causation,"{""Q0"":5}",[0],W1 is running away from W3,W3 is running away from W1
5494.600000023842,NA,NA,NA,NA,survey-likert-extra-labels,33,221029,0.0-15.0-2.0,anomymised,65658334de4976d2bd35dbcf,6567861ccb5d154e39190d71,84105,2,woman,NA,NA,W1 is chasing W3,chase,rating_volition,"{""Q0"":0}",[0],W1 is behind W3,W3 is behind W1
null,Kate is being kissed by Mike,NA,NA,NA,html-keyboard-response,34,223042,0.0-16.0-0.0,anomymised,65658334de4976d2bd35dbcf,6567861ccb5d154e39190d71,84105,2,woman,NA,null,W2 is being kissed by M4,kiss4,sentence,NA,NA,NA,NA
8661.399999976158,NA,NA,NA,NA,survey-likert-extra-labels,35,231705,0.0-16.0-2.0,anomymised,65658334de4976d2bd35dbcf,6567861ccb5d154e39190d71,84105,2,woman,NA,NA,W2 is being kissed by M4,kiss4,rating_volition,"{""Q0"":3}",[0],M4 wanted to kiss W2,W2 wanted to kiss M4
6555.800000071526,NA,NA,NA,NA,survey-likert-extra-labels,36,238264,0.0-16.0-3.0-0.0,anomymised,65658334de4976d2bd35dbcf,6567861ccb5d154e39190d71,84105,2,woman,NA,NA,W2 is being kissed by M4,kiss4,rating_causation,"{""Q0"":3}",[0],M4 asked to kiss W2,W2 asked to kiss M4
null,Kate is being copied by Ruth,NA,NA,NA,html-keyboard-response,37,240283,0.0-17.0-0.0,anomymised,65658334de4976d2bd35dbcf,6567861ccb5d154e39190d71,84105,2,woman,NA,null,W2 is being copied by W4,copy1,sentence,NA,NA,NA,NA
10553.700000047684,NA,NA,NA,NA,survey-likert-extra-labels,38,250839,0.0-17.0-1.0-0.0,anomymised,65658334de4976d2bd35dbcf,6567861ccb5d154e39190d71,84105,2,woman,NA,NA,W2 is being copied by W4,copy1,rating_causation,"{""Q0"":1}",[0],W4 started copying W2 first,W2 started copying W4 first
9072.700000047684,NA,NA,NA,NA,survey-likert-extra-labels,39,259918,0.0-17.0-2.0,anomymised,65658334de4976d2bd35dbcf,6567861ccb5d154e39190d71,84105,2,woman,NA,NA,W2 is being copied by W4,copy1,rating_volition,"{""Q0"":0}",[0],W4 wanted to copy W2,W2 wanted to copy W4
null,Beth is being looked at by Jane,NA,NA,NA,html-keyboard-response,40,261941,0.0-18.0-0.0,anomymised,65658334de4976d2bd35dbcf,6567861ccb5d154e39190d71,84105,2,woman,NA,null,W1 is being looked at by W3,look1,sentence,NA,NA,NA,NA
13680.300000071526,NA,NA,NA,NA,survey-likert-extra-labels,41,275623,0.0-18.0-2.0,anomymised,65658334de4976d2bd35dbcf,6567861ccb5d154e39190d71,84105,2,woman,NA,NA,W1 is being looked at by W3,look1,rating_volition,"{""Q0"":0}",[0],W3 wanted to look at W1,W1 wanted to look at W3
7035.299999952316,NA,NA,NA,NA,survey-likert-extra-labels,42,282665,0.0-18.0-3.0-0.0,anomymised,65658334de4976d2bd35dbcf,6567861ccb5d154e39190d71,84105,2,woman,NA,NA,W1 is being looked at by W3,look1,rating_causation,"{""Q0"":1}",[0],W3 looked at W1 first,W1 looked at W3 first
null,Luke is being copied by Beth,NA,NA,NA,html-keyboard-response,43,284677,0.0-19.0-0.0,anomymised,65658334de4976d2bd35dbcf,6567861ccb5d154e39190d71,84105,2,woman,NA,null,M3 is being copied by W1,copy4,sentence,NA,NA,NA,NA
9982,NA,NA,NA,NA,survey-likert-extra-labels,44,294661,0.0-19.0-1.0-0.0,anomymised,65658334de4976d2bd35dbcf,6567861ccb5d154e39190d71,84105,2,woman,NA,NA,M3 is being copied by W1,copy4,rating_causation,"{""Q0"":1}",[0],W1 started copying M3 first,M3 started copying W1 first
79396.70000004768,NA,NA,NA,NA,survey-likert-extra-labels,45,374064,0.0-19.0-2.0,anomymised,65658334de4976d2bd35dbcf,6567861ccb5d154e39190d71,84105,2,woman,NA,NA,M3 is being copied by W1,copy4,rating_volition,"{""Q0"":1}",[0],W1 wanted to copy M3,M3 wanted to copy W1
null,Luke is being shouted at by Fred,NA,NA,NA,html-keyboard-response,46,376091,0.0-20.0-0.0,anomymised,65658334de4976d2bd35dbcf,6567861ccb5d154e39190d71,84105,2,woman,NA,null,M3 is being shouted at by M1,shout2,sentence,NA,NA,NA,NA
28438.899999976158,NA,NA,NA,NA,survey-likert-extra-labels,47,404532,0.0-20.0-1.0-0.0,anomymised,65658334de4976d2bd35dbcf,6567861ccb5d154e39190d71,84105,2,woman,NA,NA,M3 is being shouted at by M1,shout2,rating_causation,"{""Q0"":5}",[0],M3 shouted at M1 first,M1 shouted at M3 first
10456.200000047684,NA,NA,NA,NA,survey-likert-extra-labels,48,414996,0.0-20.0-2.0,anomymised,65658334de4976d2bd35dbcf,6567861ccb5d154e39190d71,84105,2,woman,NA,NA,M3 is being shouted at by M1,shout2,rating_volition,"{""Q0"":6}",[0],M3 wanted to shout at M1,M1 wanted to shout at M3
null,Jane is being copied by Fred,NA,NA,NA,html-keyboard-response,49,417013,0.0-21.0-0.0,anomymised,65658334de4976d2bd35dbcf,6567861ccb5d154e39190d71,84105,2,woman,NA,null,W3 is being copied by M1,copy3,sentence,NA,NA,NA,NA
5744.300000071526,NA,NA,NA,NA,survey-likert-extra-labels,50,422759,0.0-21.0-2.0,anomymised,65658334de4976d2bd35dbcf,6567861ccb5d154e39190d71,84105,2,woman,NA,NA,W3 is being copied by M1,copy3,rating_volition,"{""Q0"":0}",[0],M1 wanted to copy W3,W3 wanted to copy M1
5211.5,NA,NA,NA,NA,survey-likert-extra-labels,51,427978,0.0-21.0-3.0-0.0,anomymised,65658334de4976d2bd35dbcf,6567861ccb5d154e39190d71,84105,2,woman,NA,NA,W3 is being copied by M1,copy3,rating_causation,"{""Q0"":1}",[0],M1 started copying W3 first,W3 started copying M1 first
null,Dave is being greeted by Mike,NA,NA,NA,html-keyboard-response,52,429985,0.0-22.0-0.0,anomymised,65658334de4976d2bd35dbcf,6567861ccb5d154e39190d71,84105,2,woman,NA,null,M2 is being greeted by M4,greet2,sentence,NA,NA,NA,NA
9071.900000095367,NA,NA,NA,NA,survey-likert-extra-labels,53,439058,0.0-22.0-2.0,anomymised,65658334de4976d2bd35dbcf,6567861ccb5d154e39190d71,84105,2,woman,NA,NA,M2 is being greeted by M4,greet2,rating_volition,"{""Q0"":1}",[0],M4 wanted to greet M2,M2 wanted to greet M4
5120.5,NA,NA,NA,NA,survey-likert-extra-labels,54,444183,0.0-22.0-3.0-0.0,anomymised,65658334de4976d2bd35dbcf,6567861ccb5d154e39190d71,84105,2,woman,NA,NA,M2 is being greeted by M4,greet2,rating_causation,"{""Q0"":1}",[0],M4 started greeting M2 first,M2 started greeting M4 first
null,Beth is being kissed by Jane,NA,NA,NA,html-keyboard-response,55,446192,0.0-23.0-0.0,anomymised,65658334de4976d2bd35dbcf,6567861ccb5d154e39190d71,84105,2,woman,NA,null,W1 is being kissed by W3,kiss1,sentence,NA,NA,NA,NA
13831.200000047684,NA,NA,NA,NA,survey-likert-extra-labels,56,460026,0.0-23.0-1.0-0.0,anomymised,65658334de4976d2bd35dbcf,6567861ccb5d154e39190d71,84105,2,woman,NA,NA,W1 is being kissed by W3,kiss1,rating_causation,"{""Q0"":2}",[0],W3 asked to kiss W1,W1 asked to kiss W3
6855.900000095367,NA,NA,NA,NA,survey-likert-extra-labels,57,466888,0.0-23.0-2.0,anomymised,65658334de4976d2bd35dbcf,6567861ccb5d154e39190d71,84105,2,woman,NA,NA,W1 is being kissed by W3,kiss1,rating_volition,"{""Q0"":0}",[0],W3 wanted to kiss W1,W1 wanted to kiss W3
null,Ruth is being hugged by Dave,NA,NA,NA,html-keyboard-response,58,468902,0.0-24.0-0.0,anomymised,65658334de4976d2bd35dbcf,6567861ccb5d154e39190d71,84105,2,woman,NA,null,W4 is being hugged by M2,hug4,sentence,NA,NA,NA,NA
5912.200000047684,NA,NA,NA,NA,survey-likert-extra-labels,59,474817,0.0-24.0-2.0,anomymised,65658334de4976d2bd35dbcf,6567861ccb5d154e39190d71,84105,2,woman,NA,NA,W4 is being hugged by M2,hug4,rating_volition,"{""Q0"":5}",[0],W4 wanted to hug M2,M2 wanted to hug W4
5144.199999928474,NA,NA,NA,NA,survey-likert-extra-labels,60,479968,0.0-24.0-3.0-0.0,anomymised,65658334de4976d2bd35dbcf,6567861ccb5d154e39190d71,84105,2,woman,NA,NA,W4 is being hugged by M2,hug4,rating_causation,"{""Q0"":5}",[0],W4 asked to hug M2,M2 asked to hug W4
null,Luke is being greeted by Beth,NA,NA,NA,html-keyboard-response,61,481989,0.0-25.0-0.0,anomymised,65658334de4976d2bd35dbcf,6567861ccb5d154e39190d71,84105,2,woman,NA,null,M3 is being greeted by W1,greet3,sentence,NA,NA,NA,NA
8970.600000023842,NA,NA,NA,NA,survey-likert-extra-labels,62,490962,0.0-25.0-1.0-0.0,anomymised,65658334de4976d2bd35dbcf,6567861ccb5d154e39190d71,84105,2,woman,NA,NA,M3 is being greeted by W1,greet3,rating_causation,"{""Q0"":1}",[0],W1 started greeting M3 first,M3 started greeting W1 first
7855.100000023842,NA,NA,NA,NA,survey-likert-extra-labels,63,498824,0.0-25.0-2.0,anomymised,65658334de4976d2bd35dbcf,6567861ccb5d154e39190d71,84105,2,woman,NA,NA,M3 is being greeted by W1,greet3,rating_volition,"{""Q0"":1}",[0],W1 wanted to greet M3,M3 wanted to greet W1
null,Beth is being touched by Luke,NA,NA,NA,html-keyboard-response,64,500829,0.0-26.0-0.0,anomymised,65658334de4976d2bd35dbcf,6567861ccb5d154e39190d71,84105,2,woman,NA,null,W1 is being touched by M3,touch4,sentence,NA,NA,NA,NA
4908.5,NA,NA,NA,NA,survey-likert-extra-labels,65,505740,0.0-26.0-1.0-0.0,anomymised,65658334de4976d2bd35dbcf,6567861ccb5d154e39190d71,84105,2,woman,NA,NA,W1 is being touched by M3,touch4,rating_causation,"{""Q0"":5}",[0],W1 asked to touch M3,M3 asked to touch W1
5706.299999952316,NA,NA,NA,NA,survey-likert-extra-labels,66,511453,0.0-26.0-2.0,anomymised,65658334de4976d2bd35dbcf,6567861ccb5d154e39190d71,84105,2,woman,NA,NA,W1 is being touched by M3,touch4,rating_volition,"{""Q0"":5}",[0],W1 wanted to touch M3,M3 wanted to touch W1
null,Luke is being hugged by Fred,NA,NA,NA,html-keyboard-response,67,513473,0.0-27.0-0.0,anomymised,65658334de4976d2bd35dbcf,6567861ccb5d154e39190d71,84105,2,woman,NA,null,M3 is being hugged by M1,hug2,sentence,NA,NA,NA,NA
22832.299999952316,NA,NA,NA,NA,survey-likert-extra-labels,68,536307,0.0-27.0-2.0,anomymised,65658334de4976d2bd35dbcf,6567861ccb5d154e39190d71,84105,2,woman,NA,NA,M3 is being hugged by M1,hug2,rating_volition,"{""Q0"":5}",[0],M3 wanted to hug M1,M1 wanted to hug M3
5875.5,NA,NA,NA,NA,survey-likert-extra-labels,69,542190,0.0-27.0-3.0-0.0,anomymised,65658334de4976d2bd35dbcf,6567861ccb5d154e39190d71,84105,2,woman,NA,NA,M3 is being hugged by M1,hug2,rating_causation,"{""Q0"":5}",[0],M3 asked to hug M1,M1 asked to hug M3
null,Fred is being challenged by Jane,NA,NA,NA,html-keyboard-response,70,544211,0.0-28.0-0.0,anomymised,65658334de4976d2bd35dbcf,6567861ccb5d154e39190d71,84105,2,woman,NA,null,M1 is being challenged by W3,challenge4,sentence,NA,NA,NA,NA
7888.5,NA,NA,NA,NA,survey-likert-extra-labels,71,552101,0.0-28.0-1.0-0.0,anomymised,65658334de4976d2bd35dbcf,6567861ccb5d154e39190d71,84105,2,woman,NA,NA,M1 is being challenged by W3,challenge4,rating_causation,"{""Q0"":5}",[0],M1 started challenging W3 first,W3 started challenging M1 first
5757.200000047684,NA,NA,NA,NA,survey-likert-extra-labels,72,557866,0.0-28.0-2.0,anomymised,65658334de4976d2bd35dbcf,6567861ccb5d154e39190d71,84105,2,woman,NA,NA,M1 is being challenged by W3,challenge4,rating_volition,"{""Q0"":6}",[0],M1 wanted to challenge W3,W3 wanted to challenge M1
null,Luke is being opposed by Fred,NA,NA,NA,html-keyboard-response,73,559882,0.0-29.0-0.0,anomymised,65658334de4976d2bd35dbcf,6567861ccb5d154e39190d71,84105,2,woman,NA,null,M3 is being opposed by M1,oppose2,sentence,NA,NA,NA,NA
9313.5,NA,NA,NA,NA,survey-likert-extra-labels,74,569198,0.0-29.0-2.0,anomymised,65658334de4976d2bd35dbcf,6567861ccb5d154e39190d71,84105,2,woman,NA,NA,M3 is being opposed by M1,oppose2,rating_volition,"{""Q0"":5}",[0],M3 wanted to oppose M1,M1 wanted to oppose M3
7886.199999928474,NA,NA,NA,NA,survey-likert-extra-labels,75,577091,0.0-29.0-3.0-0.0,anomymised,65658334de4976d2bd35dbcf,6567861ccb5d154e39190d71,84105,2,woman,NA,NA,M3 is being opposed by M1,oppose2,rating_causation,"{""Q0"":6}",[0],M3 started opposing M1,M1 started opposing M3
null,Fred is being kissed by Luke,NA,NA,NA,html-keyboard-response,76,579101,0.0-30.0-0.0,anomymised,65658334de4976d2bd35dbcf,6567861ccb5d154e39190d71,84105,2,woman,NA,null,M1 is being kissed by M3,kiss2,sentence,NA,NA,NA,NA
4225.799999952316,NA,NA,NA,NA,survey-likert-extra-labels,77,583328,0.0-30.0-2.0,anomymised,65658334de4976d2bd35dbcf,6567861ccb5d154e39190d71,84105,2,woman,NA,NA,M1 is being kissed by M3,kiss2,rating_volition,"{""Q0"":0}",[0],M3 wanted to kiss M1,M1 wanted to kiss M3
5075.899999976158,NA,NA,NA,NA,survey-likert-extra-labels,78,588408,0.0-30.0-3.0-0.0,anomymised,65658334de4976d2bd35dbcf,6567861ccb5d154e39190d71,84105,2,woman,NA,NA,M1 is being kissed by M3,kiss2,rating_causation,"{""Q0"":2}",[0],M3 asked to kiss M1,M1 asked to kiss M3
null,Beth is being seduced by Luke,NA,NA,NA,html-keyboard-response,79,590422,0.0-31.0-0.0,anomymised,65658334de4976d2bd35dbcf,6567861ccb5d154e39190d71,84105,2,woman,NA,null,W1 is being seduced by M3,seduce4,sentence,NA,NA,NA,NA
15216.700000047684,NA,NA,NA,NA,survey-likert-extra-labels,80,605641,0.0-31.0-1.0-0.0,anomymised,65658334de4976d2bd35dbcf,6567861ccb5d154e39190d71,84105,2,woman,NA,NA,W1 is being seduced by M3,seduce4,rating_causation,"{""Q0"":5}",[0],W1 started seducing M3 first,M3 started seducing W1 first
5491.100000023842,NA,NA,NA,NA,survey-likert-extra-labels,81,611138,0.0-31.0-2.0,anomymised,65658334de4976d2bd35dbcf,6567861ccb5d154e39190d71,84105,2,woman,NA,NA,W1 is being seduced by M3,seduce4,rating_volition,"{""Q0"":6}",[0],W1 wanted to seducing M3,M3 wanted to seducing W1
null,Mike is being shouted at by Kate,NA,NA,NA,html-keyboard-response,82,613143,0.0-32.0-0.0,anomymised,65658334de4976d2bd35dbcf,6567861ccb5d154e39190d71,84105,2,woman,NA,null,M4 is being shouted at by W2,shout4,sentence,NA,NA,NA,NA
14556.800000071526,NA,NA,NA,NA,survey-likert-extra-labels,83,627702,0.0-32.0-2.0,anomymised,65658334de4976d2bd35dbcf,6567861ccb5d154e39190d71,84105,2,woman,NA,NA,M4 is being shouted at by W2,shout4,rating_volition,"{""Q0"":6}",[0],M4 wanted to shout at W2,W2 wanted to shout at M4
7106.800000071526,NA,NA,NA,NA,survey-likert-extra-labels,84,634816,0.0-32.0-3.0-0.0,anomymised,65658334de4976d2bd35dbcf,6567861ccb5d154e39190d71,84105,2,woman,NA,NA,M4 is being shouted at by W2,shout4,rating_causation,"{""Q0"":4}",[0],M4 shouted at W2 first,W2 shouted at M4 first
null,Dave is being looked at by Ruth,NA,NA,NA,html-keyboard-response,85,636835,0.0-33.0-0.0,anomymised,65658334de4976d2bd35dbcf,6567861ccb5d154e39190d71,84105,2,woman,NA,null,M2 is being looked at by W4,look4,sentence,NA,NA,NA,NA
9221.600000023842,NA,NA,NA,NA,survey-likert-extra-labels,86,646059,0.0-33.0-1.0-0.0,anomymised,65658334de4976d2bd35dbcf,6567861ccb5d154e39190d71,84105,2,woman,NA,NA,M2 is being looked at by W4,look4,rating_causation,"{""Q0"":""""}",[0],W4 looked at M2 first,M2 looked at W4 first
9163.400000095367,NA,NA,NA,NA,survey-likert-extra-labels,87,655229,0.0-33.0-2.0,anomymised,65658334de4976d2bd35dbcf,6567861ccb5d154e39190d71,84105,2,woman,NA,NA,M2 is being looked at by W4,look4,rating_volition,"{""Q0"":0}",[0],W4 wanted to look at M2,M2 wanted to look at W4
null,Dave is being kissed by Ruth,NA,NA,NA,html-keyboard-response,88,657251,0.0-34.0-0.0,anomymised,65658334de4976d2bd35dbcf,6567861ccb5d154e39190d71,84105,2,woman,NA,null,M2 is being kissed by W4,kiss3,sentence,NA,NA,NA,NA
6603.799999952316,NA,NA,NA,NA,survey-likert-extra-labels,89,663857,0.0-34.0-1.0-0.0,anomymised,65658334de4976d2bd35dbcf,6567861ccb5d154e39190d71,84105,2,woman,NA,NA,M2 is being kissed by W4,kiss3,rating_causation,"{""Q0"":1}",[0],W4 asked to kiss M2,M2 asked to kiss W4
8585.5,NA,NA,NA,NA,survey-likert-extra-labels,90,672450,0.0-34.0-2.0,anomymised,65658334de4976d2bd35dbcf,6567861ccb5d154e39190d71,84105,2,woman,NA,NA,M2 is being kissed by W4,kiss3,rating_volition,"{""Q0"":1}",[0],W4 wanted to kiss M2,M2 wanted to kiss W4
null,Mike is being touched by Dave,NA,NA,NA,html-keyboard-response,91,674471,0.0-35.0-0.0,anomymised,65658334de4976d2bd35dbcf,6567861ccb5d154e39190d71,84105,2,woman,NA,null,M4 is being touched by M2,touch2,sentence,NA,NA,NA,NA
6994.699999928474,NA,NA,NA,NA,survey-likert-extra-labels,92,681468,0.0-35.0-1.0-0.0,anomymised,65658334de4976d2bd35dbcf,6567861ccb5d154e39190d71,84105,2,woman,NA,NA,M4 is being touched by M2,touch2,rating_causation,"{""Q0"":5}",[0],M4 asked to touch M2,M2 asked to touch M4
13204.899999976158,NA,NA,NA,NA,survey-likert-extra-labels,93,694679,0.0-35.0-2.0,anomymised,65658334de4976d2bd35dbcf,6567861ccb5d154e39190d71,84105,2,woman,NA,NA,M4 is being touched by M2,touch2,rating_volition,"{""Q0"":5}",[0],M4 wanted to touch M2,M2 wanted to touch M4
null,Kate is carrying Ruth,NA,NA,NA,html-keyboard-response,94,696689,0.0-36.0-0.0,anomymised,65658334de4976d2bd35dbcf,6567861ccb5d154e39190d71,84105,2,woman,NA,null,W2 is carrying W4,carry,sentence,NA,NA,NA,NA
15588.600000023842,NA,NA,NA,NA,survey-likert-extra-labels,95,712280,0.0-36.0-1.0-0.0,anomymised,65658334de4976d2bd35dbcf,6567861ccb5d154e39190d71,84105,2,woman,NA,NA,W2 is carrying W4,carry,rating_causation,"{""Q0"":6}",[0],W2 is being moved by W4,W4 is being moved by W2
5658.700000047684,NA,NA,NA,NA,survey-likert-extra-labels,96,717946,0.0-36.0-2.0,anomymised,65658334de4976d2bd35dbcf,6567861ccb5d154e39190d71,84105,2,woman,NA,NA,W2 is carrying W4,carry,rating_volition,"{""Q0"":0}",[0],W2 is transporting W4,W4 is transporting W2
null,Kate is teaching Mike,NA,NA,NA,html-keyboard-response,97,719960,0.0-37.0-0.0,anomymised,65658334de4976d2bd35dbcf,6567861ccb5d154e39190d71,84105,2,woman,NA,null,W2 is teaching M4,teach,sentence,NA,NA,NA,NA
4562.700000047684,NA,NA,NA,NA,survey-likert-extra-labels,98,724525,0.0-37.0-2.0,anomymised,65658334de4976d2bd35dbcf,6567861ccb5d154e39190d71,84105,2,woman,NA,NA,W2 is teaching M4,teach,rating_volition,"{""Q0"":0}",[0],W2 is educating M4,M4 is educating W2
5408.5,NA,NA,NA,NA,survey-likert-extra-labels,99,729941,0.0-37.0-3.0-0.0,anomymised,65658334de4976d2bd35dbcf,6567861ccb5d154e39190d71,84105,2,woman,NA,NA,W2 is teaching M4,teach,rating_causation,"{""Q0"":6}",[0],W2 is learning from M4,M4 is learning from W2
null,Jane is being shouted at by Beth,NA,NA,NA,html-keyboard-response,100,731949,0.0-38.0-0.0,anomymised,65658334de4976d2bd35dbcf,6567861ccb5d154e39190d71,84105,2,woman,NA,null,W3 is being shouted at by W1,shout1,sentence,NA,NA,NA,NA
6958,NA,NA,NA,NA,survey-likert-extra-labels,101,738910,0.0-38.0-2.0,anomymised,65658334de4976d2bd35dbcf,6567861ccb5d154e39190d71,84105,2,woman,NA,NA,W3 is being shouted at by W1,shout1,rating_volition,"{""Q0"":6}",[0],W3 wanted to shout at W1,W1 wanted to shout at W3
19602.299999952316,NA,NA,NA,NA,survey-likert-extra-labels,102,758519,0.0-38.0-3.0-0.0,anomymised,65658334de4976d2bd35dbcf,6567861ccb5d154e39190d71,84105,2,woman,NA,NA,W3 is being shouted at by W1,shout1,rating_causation,"{""Q0"":5}",[0],W3 shouted at W1 first,W1 shouted at W3 first
null,Beth is being challenged by Luke,NA,NA,NA,html-keyboard-response,103,760539,0.0-39.0-0.0,anomymised,65658334de4976d2bd35dbcf,6567861ccb5d154e39190d71,84105,2,woman,NA,null,W1 is being challenged by M3,challenge3,sentence,NA,NA,NA,NA
8822.300000071526,NA,NA,NA,NA,survey-likert-extra-labels,104,769363,0.0-39.0-1.0-0.0,anomymised,65658334de4976d2bd35dbcf,6567861ccb5d154e39190d71,84105,2,woman,NA,NA,W1 is being challenged by M3,challenge3,rating_causation,"{""Q0"":5}",[0],W1 started challenging M3 first,M3 started challenging W1 first
14770.799999952316,NA,NA,NA,NA,survey-likert-extra-labels,105,784140,0.0-39.0-2.0,anomymised,65658334de4976d2bd35dbcf,6567861ccb5d154e39190d71,84105,2,woman,NA,NA,W1 is being challenged by M3,challenge3,rating_volition,"{""Q0"":5}",[0],W1 wanted to challenge M3,M3 wanted to challenge W1
null,Ruth is being challenged by Kate,NA,NA,NA,html-keyboard-response,106,786156,0.0-40.0-0.0,anomymised,65658334de4976d2bd35dbcf,6567861ccb5d154e39190d71,84105,2,woman,NA,null,W4 is being challenged by W2,challenge1,sentence,NA,NA,NA,NA
5818.800000071526,NA,NA,NA,NA,survey-likert-extra-labels,107,791977,0.0-40.0-2.0,anomymised,65658334de4976d2bd35dbcf,6567861ccb5d154e39190d71,84105,2,woman,NA,NA,W4 is being challenged by W2,challenge1,rating_volition,"{""Q0"":5}",[0],W4 wanted to challenge W2,W2 wanted to challenge W4
7627.300000071526,NA,NA,NA,NA,survey-likert-extra-labels,108,799611,0.0-40.0-3.0-0.0,anomymised,65658334de4976d2bd35dbcf,6567861ccb5d154e39190d71,84105,2,woman,NA,NA,W4 is being challenged by W2,challenge1,rating_causation,"{""Q0"":5}",[0],W4 started challenging W2 first,W2 started challenging W4 first
null,Fred is being seduced by Jane,NA,NA,NA,html-keyboard-response,109,801631,0.0-41.0-0.0,anomymised,65658334de4976d2bd35dbcf,6567861ccb5d154e39190d71,84105,2,woman,NA,null,M1 is being seduced by W3,seduce3,sentence,NA,NA,NA,NA
7330.200000047684,NA,NA,NA,NA,survey-likert-extra-labels,110,808963,0.0-41.0-2.0,anomymised,65658334de4976d2bd35dbcf,6567861ccb5d154e39190d71,84105,2,woman,NA,NA,M1 is being seduced by W3,seduce3,rating_volition,"{""Q0"":5}",[0],M1 wanted to seduce W3,W3 wanted to seduce M1
12636.099999904633,NA,NA,NA,NA,survey-likert-extra-labels,111,821606,0.0-41.0-3.0-0.0,anomymised,65658334de4976d2bd35dbcf,6567861ccb5d154e39190d71,84105,2,woman,NA,NA,M1 is being seduced by W3,seduce3,rating_causation,"{""Q0"":5}",[0],M1 started seducing W3 first,W3 started seducing M1 first
null,Dave is posing for Mike,NA,NA,NA,html-keyboard-response,112,823613,0.0-42.0-0.0,anomymised,65658334de4976d2bd35dbcf,6567861ccb5d154e39190d71,84105,2,woman,NA,null,M2 is posing for M4,pose,sentence,NA,NA,NA,NA
10578.699999928474,NA,NA,NA,NA,survey-likert-extra-labels,113,834193,0.0-42.0-1.0-0.0,anomymised,65658334de4976d2bd35dbcf,6567861ccb5d154e39190d71,84105,2,woman,NA,NA,M2 is posing for M4,pose,rating_causation,"{""Q0"":4}",[0],M2 is photographing M4,M4 is photographing M2
8541.299999952316,NA,NA,NA,NA,survey-likert-extra-labels,114,842741,0.0-42.0-2.0,anomymised,65658334de4976d2bd35dbcf,6567861ccb5d154e39190d71,84105,2,woman,NA,NA,M2 is posing for M4,pose,rating_volition,"{""Q0"":0}",[0],M2 is modelling for M4,M4 is modelling for M2
null,Jane is being opposed by Beth,NA,NA,NA,html-keyboard-response,115,844764,0.0-43.0-0.0,anomymised,65658334de4976d2bd35dbcf,6567861ccb5d154e39190d71,84105,2,woman,NA,null,W3 is being opposed by W1,oppose1,sentence,NA,NA,NA,NA
6160.600000023842,NA,NA,NA,NA,survey-likert-extra-labels,116,850927,0.0-43.0-2.0,anomymised,65658334de4976d2bd35dbcf,6567861ccb5d154e39190d71,84105,2,woman,NA,NA,W3 is being opposed by W1,oppose1,rating_volition,"{""Q0"":5}",[0],W3 wanted to oppose W1,W1 wanted to oppose W3
6825.799999952316,NA,NA,NA,NA,survey-likert-extra-labels,117,857758,0.0-43.0-3.0-0.0,anomymised,65658334de4976d2bd35dbcf,6567861ccb5d154e39190d71,84105,2,woman,NA,NA,W3 is being opposed by W1,oppose1,rating_causation,"{""Q0"":6}",[0],W3 started opposing W1,W1 started opposing W3
null,Jane is being greeted by Fred,NA,NA,NA,html-keyboard-response,118,859773,0.0-44.0-0.0,anomymised,65658334de4976d2bd35dbcf,6567861ccb5d154e39190d71,84105,2,woman,NA,null,W3 is being greeted by M1,greet4,sentence,NA,NA,NA,NA
7223.399999976158,NA,NA,NA,NA,survey-likert-extra-labels,119,866998,0.0-44.0-2.0,anomymised,65658334de4976d2bd35dbcf,6567861ccb5d154e39190d71,84105,2,woman,NA,NA,W3 is being greeted by M1,greet4,rating_volition,"{""Q0"":0}",[0],M1 wanted to greet W3,W3 wanted to greet M1
6103,NA,NA,NA,NA,survey-likert-extra-labels,120,873108,0.0-44.0-3.0-0.0,anomymised,65658334de4976d2bd35dbcf,6567861ccb5d154e39190d71,84105,2,woman,NA,NA,W3 is being greeted by M1,greet4,rating_causation,"{""Q0"":0}",[0],M1 started greeting W3 first,W3 started greeting M1 first
null,Dave is reminding Ruth,NA,NA,NA,html-keyboard-response,121,875123,0.0-45.0-0.0,anomymised,65658334de4976d2bd35dbcf,6567861ccb5d154e39190d71,84105,2,woman,NA,null,M2 is reminding W4,remind,sentence,NA,NA,NA,NA
7463.899999976158,NA,NA,NA,NA,survey-likert-extra-labels,122,882589,0.0-45.0-2.0,anomymised,65658334de4976d2bd35dbcf,6567861ccb5d154e39190d71,84105,2,woman,NA,NA,M2 is reminding W4,remind,rating_volition,"{""Q0"":0}",[0],M2 is telling W4 again,W4 is telling M2 again
4498.5,NA,NA,NA,NA,survey-likert-extra-labels,123,887095,0.0-45.0-3.0-0.0,anomymised,65658334de4976d2bd35dbcf,6567861ccb5d154e39190d71,84105,2,woman,NA,NA,M2 is reminding W4,remind,rating_causation,"{""Q0"":1}",[0],M2 is remembering,W4 is remembering
null,Luke is hiring Beth,NA,NA,NA,html-keyboard-response,124,889112,0.0-46.0-0.0,anomymised,65658334de4976d2bd35dbcf,6567861ccb5d154e39190d71,84105,2,woman,NA,null,M3 is hiring W1,hire,sentence,NA,NA,NA,NA
8797.100000023842,NA,NA,NA,NA,survey-likert-extra-labels,125,897911,0.0-46.0-1.0-0.0,anomymised,65658334de4976d2bd35dbcf,6567861ccb5d154e39190d71,84105,2,woman,NA,NA,M3 is hiring W1,hire,rating_causation,"{""Q0"":6}",[0],M3 will work for W1,W1 will work for M3
4803.899999976158,NA,NA,NA,NA,survey-likert-extra-labels,126,902721,0.0-46.0-2.0,anomymised,65658334de4976d2bd35dbcf,6567861ccb5d154e39190d71,84105,2,woman,NA,NA,M3 is hiring W1,hire,rating_volition,"{""Q0"":0}",[0],M3 is employing W1,W1 is employing M3
null,Kate is being greeted by Ruth,NA,NA,NA,html-keyboard-response,127,904726,0.0-47.0-0.0,anomymised,65658334de4976d2bd35dbcf,6567861ccb5d154e39190d71,84105,2,woman,NA,null,W2 is being greeted by W4,greet1,sentence,NA,NA,NA,NA
4483.799999952316,NA,NA,NA,NA,survey-likert-extra-labels,128,909212,0.0-47.0-1.0-0.0,anomymised,65658334de4976d2bd35dbcf,6567861ccb5d154e39190d71,84105,2,woman,NA,NA,W2 is being greeted by W4,greet1,rating_causation,"{""Q0"":6}",[0],W4 started greeting W2 first,W2 started greeting W4 first
6694.300000071526,NA,NA,NA,NA,survey-likert-extra-labels,129,915914,0.0-47.0-2.0,anomymised,65658334de4976d2bd35dbcf,6567861ccb5d154e39190d71,84105,2,woman,NA,NA,W2 is being greeted by W4,greet1,rating_volition,"{""Q0"":0}",[0],W4 wanted to greet W2,W2 wanted to greet W4
null,Kate is being looked at by Mike,NA,NA,NA,html-keyboard-response,130,917928,0.0-48.0-0.0,anomymised,65658334de4976d2bd35dbcf,6567861ccb5d154e39190d71,84105,2,woman,NA,null,W2 is being looked at by M4,look3,sentence,NA,NA,NA,NA
6265,NA,NA,NA,NA,survey-likert-extra-labels,131,924195,0.0-48.0-1.0-0.0,anomymised,65658334de4976d2bd35dbcf,6567861ccb5d154e39190d71,84105,2,woman,NA,NA,W2 is being looked at by M4,look3,rating_causation,"{""Q0"":1}",[0],M4 looked at W2 first,W2 looked at M4 first
5314.200000047684,NA,NA,NA,NA,survey-likert-extra-labels,132,929516,0.0-48.0-2.0,anomymised,65658334de4976d2bd35dbcf,6567861ccb5d154e39190d71,84105,2,woman,NA,NA,W2 is being looked at by M4,look3,rating_volition,"{""Q0"":0}",[0],M4 wanted to look at W2,W2 wanted to look at M4
null,Fred is driving Luke,NA,NA,NA,html-keyboard-response,133,931529,0.0-49.0-0.0,anomymised,65658334de4976d2bd35dbcf,6567861ccb5d154e39190d71,84105,2,woman,NA,null,M1 is driving M3,drive,sentence,NA,NA,NA,NA
9300.399999976158,NA,NA,NA,NA,survey-likert-extra-labels,134,940831,0.0-49.0-1.0-0.0,anomymised,65658334de4976d2bd35dbcf,6567861ccb5d154e39190d71,84105,2,woman,NA,NA,M1 is driving M3,drive,rating_causation,"{""Q0"":0}",[0],M1 is taking M3 somewhere,M3 is taking M1 somewhere
6106.299999952316,NA,NA,NA,NA,survey-likert-extra-labels,135,946945,0.0-49.0-2.0,anomymised,65658334de4976d2bd35dbcf,6567861ccb5d154e39190d71,84105,2,woman,NA,NA,M1 is driving M3,drive,rating_volition,"{""Q0"":6}",[0],M1 is M3's passenger,M3 is M1's passenger
null,Dave is being copied by Mike,NA,NA,NA,html-keyboard-response,136,948964,0.0-50.0-0.0,anomymised,65658334de4976d2bd35dbcf,6567861ccb5d154e39190d71,84105,2,woman,NA,null,M2 is being copied by M4,copy2,sentence,NA,NA,NA,NA
3374.5999999046326,NA,NA,NA,NA,survey-likert-extra-labels,137,952341,0.0-50.0-1.0-0.0,anomymised,65658334de4976d2bd35dbcf,6567861ccb5d154e39190d71,84105,2,woman,NA,NA,M2 is being copied by M4,copy2,rating_causation,"{""Q0"":0}",[0],M4 started copying M2 first,M2 started copying M4 first
4611,NA,NA,NA,NA,survey-likert-extra-labels,138,956958,0.0-50.0-2.0,anomymised,65658334de4976d2bd35dbcf,6567861ccb5d154e39190d71,84105,2,woman,NA,NA,M2 is being copied by M4,copy2,rating_volition,"{""Q0"":0}",[0],M4 wanted to copy M2,M2 wanted to copy M4
null,Fred is being looked at by Luke,NA,NA,NA,html-keyboard-response,139,958975,0.0-51.0-0.0,anomymised,65658334de4976d2bd35dbcf,6567861ccb5d154e39190d71,84105,2,woman,NA,null,M1 is being looked at by M3,look2,sentence,NA,NA,NA,NA
6607.799999952316,NA,NA,NA,NA,survey-likert-extra-labels,140,965585,0.0-51.0-2.0,anomymised,65658334de4976d2bd35dbcf,6567861ccb5d154e39190d71,84105,2,woman,NA,NA,M1 is being looked at by M3,look2,rating_volition,"{""Q0"":0}",[0],M3 wanted to look at M1,M1 wanted to look at M3
3857.2000000476837,NA,NA,NA,NA,survey-likert-extra-labels,141,969448,0.0-51.0-3.0-0.0,anomymised,65658334de4976d2bd35dbcf,6567861ccb5d154e39190d71,84105,2,woman,NA,NA,M1 is being looked at by M3,look2,rating_causation,"{""Q0"":1}",[0],M3 looked at M1 first,M1 looked at M3 first
null,Mike is being hugged by Kate,NA,NA,NA,html-keyboard-response,142,971463,0.0-52.0-0.0,anomymised,65658334de4976d2bd35dbcf,6567861ccb5d154e39190d71,84105,2,woman,NA,null,M4 is being hugged by W2,hug3,sentence,NA,NA,NA,NA
10848.200000047684,NA,NA,NA,NA,survey-likert-extra-labels,143,982313,0.0-52.0-2.0,anomymised,65658334de4976d2bd35dbcf,6567861ccb5d154e39190d71,84105,2,woman,NA,NA,M4 is being hugged by W2,hug3,rating_volition,"{""Q0"":5}",[0],M4 wanted to hug W2,W2 wanted to hug M4
10154.899999976158,NA,NA,NA,NA,survey-likert-extra-labels,144,992476,0.0-52.0-3.0-0.0,anomymised,65658334de4976d2bd35dbcf,6567861ccb5d154e39190d71,84105,2,woman,NA,NA,M4 is being hugged by W2,hug3,rating_causation,"{""Q0"":5}",[0],M4 asked to hug W2,W2 asked to hug M4
null,Mike is being opposed by Kate,NA,NA,NA,html-keyboard-response,145,994488,0.0-53.0-0.0,anomymised,65658334de4976d2bd35dbcf,6567861ccb5d154e39190d71,84105,2,woman,NA,null,M4 is being opposed by W2,oppose3,sentence,NA,NA,NA,NA
9867.5,NA,NA,NA,NA,survey-likert-extra-labels,146,1004357,0.0-53.0-1.0-0.0,anomymised,65658334de4976d2bd35dbcf,6567861ccb5d154e39190d71,84105,2,woman,NA,NA,M4 is being opposed by W2,oppose3,rating_causation,"{""Q0"":5}",[0],M4 started opposing W2,W2 started opposing M4
5370.299999952316,NA,NA,NA,NA,survey-likert-extra-labels,147,1009734,0.0-53.0-2.0,anomymised,65658334de4976d2bd35dbcf,6567861ccb5d154e39190d71,84105,2,woman,NA,NA,M4 is being opposed by W2,oppose3,rating_volition,"{""Q0"":5}",[0],M4 wanted to oppose W2,W2 wanted to oppose M4
null,Jane is being hugged by Beth,NA,NA,NA,html-keyboard-response,148,1011742,0.0-54.0-0.0,anomymised,65658334de4976d2bd35dbcf,6567861ccb5d154e39190d71,84105,2,woman,NA,null,W3 is being hugged by W1,hug1,sentence,NA,NA,NA,NA
6251.600000023842,NA,NA,NA,NA,survey-likert-extra-labels,149,1017996,0.0-54.0-1.0-0.0,anomymised,65658334de4976d2bd35dbcf,6567861ccb5d154e39190d71,84105,2,woman,NA,NA,W3 is being hugged by W1,hug1,rating_causation,"{""Q0"":5}",[0],W3 asked to hug W1,W1 asked to hug W3
4418.699999928474,NA,NA,NA,NA,survey-likert-extra-labels,150,1022420,0.0-54.0-2.0,anomymised,65658334de4976d2bd35dbcf,6567861ccb5d154e39190d71,84105,2,woman,NA,NA,W3 is being hugged by W1,hug1,rating_volition,"{""Q0"":5}",[0],W3 wanted to hug W1,W1 wanted to hug W3
2342.100000023842,<p>Thank you for completing that task.</p><p>The final part of this session is a short questionnaire.</p><p>Press Continue.</p>,0,Continue,Continue,html-button-response,151,1024769,0.0-55.0,anomymised,65658334de4976d2bd35dbcf,6567861ccb5d154e39190d71,84105,2,woman,NA,NA,NA,NA,NA,NA,NA,NA,NA
27622.899999976158,NA,NA,NA,NA,survey-text,152,1053405,0.0-56.0,anomymised,65658334de4976d2bd35dbcf,6567861ccb5d154e39190d71,84105,2,woman,NA,NA,NA,NA,demographics,"{""Q0"":""34"",""Q1"":""english"",""Q2"":""english"",""Q3"":""United Kingdom"",""Q4"":""english"",""Q5"":""white british"",""Q6"":""female""}",NA,NA,NA
1660,<p>This is the last question - thank you for taking part! Have you lived in the UK for the last 5 years or more?</p>,0,"Yes,No",Yes,html-button-response,153,1055068,0.0-57.0,anomymised,65658334de4976d2bd35dbcf,6567861ccb5d154e39190d71,84105,2,woman,NA,NA,NA,NA,fiveyears,NA,NA,NA,NA
