rt,stimulus,button_pressed,choices,ChosenStimulus,trial_type,trial_index,time_elapsed,internal_node_id,subject_id,study_id,session_id,subject,list,ppt_gender,url,key_press,sentence_type,verb,test_part,responses,question_order,left_part,right_part
72975.69999999972,Welcome to the experiment. Press Continue to begin.,0,Continue,Continue,html-button-response,0,72977,0.0-0.0,anomymised,6560c12449ad4f4ac5122a81,6565e3f98c2aa056be152ea0,86143,1A,man,NA,NA,NA,NA,NA,NA,NA,NA,NA
6766.199999999721,NA,NA,NA,NA,external-html,1,80849,0.0-1.0,anomymised,6560c12449ad4f4ac5122a81,6565e3f98c2aa056be152ea0,86143,1A,man,consent.html,NA,NA,NA,NA,NA,NA,NA,NA
73719.3999999999,"<p>Welcome.</p><p>In this experiment we will ask you to imagine some situations.</p><p>Each trial starts with a description of an event.</p><p>Then you will see alternative descriptions of that event, and you will rate on a scale how best they match the original description.</p><p>You will give your answer by clicking a button on a rating scale.</p><p>To do this task, you will have to use your imagination to visualise these events.</p><br><p>Ready?</p>",0,Continue,Continue,html-button-response,2,154569,0.0-2.0,anomymised,6560c12449ad4f4ac5122a81,6565e3f98c2aa056be152ea0,86143,1A,man,NA,NA,NA,NA,NA,NA,NA,NA,NA
2551.600000000093,"<p>Before the experiment starts, you will watch an example trial. Press 'Continue'.</p>",0,Continue,Continue,html-button-response,3,158129,0.0-3.0,anomymised,6560c12449ad4f4ac5122a81,6565e3f98c2aa056be152ea0,86143,1A,man,NA,NA,NA,NA,NA,NA,NA,NA,NA
null,The police officer is arresting the robber,NA,NA,NA,html-keyboard-response,4,161155,0.0-4.0,anomymised,6560c12449ad4f4ac5122a81,6565e3f98c2aa056be152ea0,86143,1A,man,NA,null,NA,NA,NA,NA,NA,NA,NA
10541.700000000186,<img src='img/Example-trial.jpg' style='height:550px;''></img>,0,Continue,Continue,html-button-response,5,171697,0.0-5.0,anomymised,6560c12449ad4f4ac5122a81,6565e3f98c2aa056be152ea0,86143,1A,man,NA,NA,NA,NA,NA,NA,NA,NA,NA
2533,<p>Ready to start the experiment?</p><br><p><strong>Remember to give an answer by clicking a button on the rating scale.</strong></p><p>Press 'Continue' to begin.</p>,0,Continue,Continue,html-button-response,6,175233,0.0-6.0,anomymised,6560c12449ad4f4ac5122a81,6565e3f98c2aa056be152ea0,86143,1A,man,NA,NA,NA,NA,NA,NA,NA,NA,NA
null,Kate is being challenged by Luke,NA,NA,NA,html-keyboard-response,7,178251,0.0-7.0-0.0,anomymised,6560c12449ad4f4ac5122a81,6565e3f98c2aa056be152ea0,86143,1A,man,NA,null,W3 is being challenged by M1,challenge4,sentence,NA,NA,NA,NA
5149.0999999996275,NA,NA,NA,NA,survey-likert-extra-labels,8,183401,0.0-7.0-1.0-0.0,anomymised,6560c12449ad4f4ac5122a81,6565e3f98c2aa056be152ea0,86143,1A,man,NA,NA,W3 is being challenged by M1,challenge4,rating_causation,"{""Q0"":3}",[0],W3 started challenging M1 first,M1 started challenging W3 first
24519,NA,NA,NA,NA,survey-likert-extra-labels,9,207921,0.0-7.0-2.0,anomymised,6560c12449ad4f4ac5122a81,6565e3f98c2aa056be152ea0,86143,1A,man,NA,NA,W3 is being challenged by M1,challenge4,rating_volition,"{""Q0"":1}",[0],W3 wanted to challenge M1,M1 wanted to challenge W3
null,Kate is being looked at by Ruth,NA,NA,NA,html-keyboard-response,10,209933,0.0-8.0-0.0,anomymised,6560c12449ad4f4ac5122a81,6565e3f98c2aa056be152ea0,86143,1A,man,NA,null,W3 is being looked at by W1,look1,sentence,NA,NA,NA,NA
12227.600000000093,NA,NA,NA,NA,survey-likert-extra-labels,11,222162,0.0-8.0-1.0-0.0,anomymised,6560c12449ad4f4ac5122a81,6565e3f98c2aa056be152ea0,86143,1A,man,NA,NA,W3 is being looked at by W1,look1,rating_causation,"{""Q0"":5}",[0],W1 looked at W3 first,W3 looked at W1 first
6150.5,NA,NA,NA,NA,survey-likert-extra-labels,12,228314,0.0-8.0-2.0,anomymised,6560c12449ad4f4ac5122a81,6565e3f98c2aa056be152ea0,86143,1A,man,NA,NA,W3 is being looked at by W1,look1,rating_volition,"{""Q0"":1}",[0],W1 wanted to look at W3,W3 wanted to look at W1
null,Jane is teaching Dave,NA,NA,NA,html-keyboard-response,13,230324,0.0-9.0-0.0,anomymised,6560c12449ad4f4ac5122a81,6565e3f98c2aa056be152ea0,86143,1A,man,NA,null,W2 is teaching M4,teach,sentence,NA,NA,NA,NA
7749.600000000093,NA,NA,NA,NA,survey-likert-extra-labels,14,238074,0.0-9.0-2.0,anomymised,6560c12449ad4f4ac5122a81,6565e3f98c2aa056be152ea0,86143,1A,man,NA,NA,W2 is teaching M4,teach,rating_volition,"{""Q0"":0}",[0],W2 is educating M4,M4 is educating W2
5751.300000000279,NA,NA,NA,NA,survey-likert-extra-labels,15,243826,0.0-9.0-3.0-0.0,anomymised,6560c12449ad4f4ac5122a81,6565e3f98c2aa056be152ea0,86143,1A,man,NA,NA,W2 is teaching M4,teach,rating_causation,"{""Q0"":6}",[0],W2 is learning from M4,M4 is learning from W2
null,Ruth is being copied by Fred,NA,NA,NA,html-keyboard-response,16,245837,0.0-10.0-0.0,anomymised,6560c12449ad4f4ac5122a81,6565e3f98c2aa056be152ea0,86143,1A,man,NA,null,W1 is being copied by M3,copy4,sentence,NA,NA,NA,NA
21188,NA,NA,NA,NA,survey-likert-extra-labels,17,267026,0.0-10.0-2.0,anomymised,6560c12449ad4f4ac5122a81,6565e3f98c2aa056be152ea0,86143,1A,man,NA,NA,W1 is being copied by M3,copy4,rating_volition,"{""Q0"":1}",[0],M3 wanted to copy W1,W1 wanted to copy M3
2278.899999999907,NA,NA,NA,NA,survey-likert-extra-labels,18,269306,0.0-10.0-3.0-0.0,anomymised,6560c12449ad4f4ac5122a81,6565e3f98c2aa056be152ea0,86143,1A,man,NA,NA,W1 is being copied by M3,copy4,rating_causation,"{""Q0"":3}",[0],M3 started copying W1 first,W1 started copying M3 first
null,Mike is being touched by Dave,NA,NA,NA,html-keyboard-response,19,271315,0.0-11.0-0.0,anomymised,6560c12449ad4f4ac5122a81,6565e3f98c2aa056be152ea0,86143,1A,man,NA,null,M2 is being touched by M4,touch2,sentence,NA,NA,NA,NA
24774.39999999944,NA,NA,NA,NA,survey-likert-extra-labels,20,296090,0.0-11.0-2.0,anomymised,6560c12449ad4f4ac5122a81,6565e3f98c2aa056be152ea0,86143,1A,man,NA,NA,M2 is being touched by M4,touch2,rating_volition,"{""Q0"":6}",[0],M2 wanted to touch M4,M4 wanted to touch M2
4431,NA,NA,NA,NA,survey-likert-extra-labels,21,300522,0.0-11.0-3.0-0.0,anomymised,6560c12449ad4f4ac5122a81,6565e3f98c2aa056be152ea0,86143,1A,man,NA,NA,M2 is being touched by M4,touch2,rating_causation,"{""Q0"":6}",[0],M2 asked to touch M4,M4 asked to touch M2
null,Beth is being kissed by Mike,NA,NA,NA,html-keyboard-response,22,302525,0.0-12.0-0.0,anomymised,6560c12449ad4f4ac5122a81,6565e3f98c2aa056be152ea0,86143,1A,man,NA,null,W4 is being kissed by M2,kiss3,sentence,NA,NA,NA,NA
4444.199999999255,NA,NA,NA,NA,survey-likert-extra-labels,23,306970,0.0-12.0-1.0-0.0,anomymised,6560c12449ad4f4ac5122a81,6565e3f98c2aa056be152ea0,86143,1A,man,NA,NA,W4 is being kissed by M2,kiss3,rating_causation,"{""Q0"":0}",[0],M2 asked to kiss W4,W4 asked to kiss M2
8503.200000000186,NA,NA,NA,NA,survey-likert-extra-labels,24,315474,0.0-12.0-2.0,anomymised,6560c12449ad4f4ac5122a81,6565e3f98c2aa056be152ea0,86143,1A,man,NA,NA,W4 is being kissed by M2,kiss3,rating_volition,"{""Q0"":5}",[0],M2 wanted to kiss W4,W4 wanted to kiss M2
null,Kate is being seduced by Luke,NA,NA,NA,html-keyboard-response,25,317478,0.0-13.0-0.0,anomymised,6560c12449ad4f4ac5122a81,6565e3f98c2aa056be152ea0,86143,1A,man,NA,null,W3 is being seduced by M1,seduce3,sentence,NA,NA,NA,NA
10427.599999999627,NA,NA,NA,NA,survey-likert-extra-labels,26,327906,0.0-13.0-1.0-0.0,anomymised,6560c12449ad4f4ac5122a81,6565e3f98c2aa056be152ea0,86143,1A,man,NA,NA,W3 is being seduced by M1,seduce3,rating_causation,"{""Q0"":5}",[0],W3 started seducing M1 first,M1 started seducing W3 first
8951.100000000559,NA,NA,NA,NA,survey-likert-extra-labels,27,336858,0.0-13.0-2.0,anomymised,6560c12449ad4f4ac5122a81,6565e3f98c2aa056be152ea0,86143,1A,man,NA,NA,W3 is being seduced by M1,seduce3,rating_volition,"{""Q0"":5}",[0],W3 wanted to seduce M1,M1 wanted to seduce W3
null,Dave is being kissed by Jane,NA,NA,NA,html-keyboard-response,28,338871,0.0-14.0-0.0,anomymised,6560c12449ad4f4ac5122a81,6565e3f98c2aa056be152ea0,86143,1A,man,NA,null,M4 is being kissed by W2,kiss4,sentence,NA,NA,NA,NA
29138.400000000373,NA,NA,NA,NA,survey-likert-extra-labels,29,368010,0.0-14.0-2.0,anomymised,6560c12449ad4f4ac5122a81,6565e3f98c2aa056be152ea0,86143,1A,man,NA,NA,M4 is being kissed by W2,kiss4,rating_volition,"{""Q0"":4}",[0],W2 wanted to kiss M4,M4 wanted to kiss W2
4175.100000000559,NA,NA,NA,NA,survey-likert-extra-labels,30,372186,0.0-14.0-3.0-0.0,anomymised,6560c12449ad4f4ac5122a81,6565e3f98c2aa056be152ea0,86143,1A,man,NA,NA,M4 is being kissed by W2,kiss4,rating_causation,"{""Q0"":1}",[0],W2 asked to kiss M4,M4 asked to kiss W2
null,Beth is being copied by Jane,NA,NA,NA,html-keyboard-response,31,374201,0.0-15.0-0.0,anomymised,6560c12449ad4f4ac5122a81,6565e3f98c2aa056be152ea0,86143,1A,man,NA,null,W4 is being copied by W2,copy1,sentence,NA,NA,NA,NA
96528.89999999944,NA,NA,NA,NA,survey-likert-extra-labels,32,470731,0.0-15.0-2.0,anomymised,6560c12449ad4f4ac5122a81,6565e3f98c2aa056be152ea0,86143,1A,man,NA,NA,W4 is being copied by W2,copy1,rating_volition,"{""Q0"":4}",[0],W2 wanted to copy W4,W4 wanted to copy W2
1726.7000000001863,NA,NA,NA,NA,survey-likert-extra-labels,33,472459,0.0-15.0-3.0-0.0,anomymised,6560c12449ad4f4ac5122a81,6565e3f98c2aa056be152ea0,86143,1A,man,NA,NA,W4 is being copied by W2,copy1,rating_causation,"{""Q0"":2}",[0],W2 started copying W4 first,W4 started copying W2 first
null,Fred is being kissed by Luke,NA,NA,NA,html-keyboard-response,34,474475,0.0-16.0-0.0,anomymised,6560c12449ad4f4ac5122a81,6565e3f98c2aa056be152ea0,86143,1A,man,NA,null,M3 is being kissed by M1,kiss2,sentence,NA,NA,NA,NA
6910.899999999441,NA,NA,NA,NA,survey-likert-extra-labels,35,481387,0.0-16.0-2.0,anomymised,6560c12449ad4f4ac5122a81,6565e3f98c2aa056be152ea0,86143,1A,man,NA,NA,M3 is being kissed by M1,kiss2,rating_volition,"{""Q0"":1}",[0],M1 wanted to kiss M3,M3 wanted to kiss M1
2487,NA,NA,NA,NA,survey-likert-extra-labels,36,483875,0.0-16.0-3.0-0.0,anomymised,6560c12449ad4f4ac5122a81,6565e3f98c2aa056be152ea0,86143,1A,man,NA,NA,M3 is being kissed by M1,kiss2,rating_causation,"{""Q0"":4}",[0],M1 asked to kiss M3,M3 asked to kiss M1
null,Dave is being greeted by Mike,NA,NA,NA,html-keyboard-response,37,485881,0.0-17.0-0.0,anomymised,6560c12449ad4f4ac5122a81,6565e3f98c2aa056be152ea0,86143,1A,man,NA,null,M4 is being greeted by M2,greet2,sentence,NA,NA,NA,NA
4105.100000000559,NA,NA,NA,NA,survey-likert-extra-labels,38,489986,0.0-17.0-2.0,anomymised,6560c12449ad4f4ac5122a81,6565e3f98c2aa056be152ea0,86143,1A,man,NA,NA,M4 is being greeted by M2,greet2,rating_volition,"{""Q0"":5}",[0],M2 wanted to greet M4,M4 wanted to greet M2
4463,NA,NA,NA,NA,survey-likert-extra-labels,39,494450,0.0-17.0-3.0-0.0,anomymised,6560c12449ad4f4ac5122a81,6565e3f98c2aa056be152ea0,86143,1A,man,NA,NA,M4 is being greeted by M2,greet2,rating_causation,"{""Q0"":2}",[0],M2 started greeting M4 first,M4 started greeting M2 first
null,Jane is being shouted at by Dave,NA,NA,NA,html-keyboard-response,40,496456,0.0-18.0-0.0,anomymised,6560c12449ad4f4ac5122a81,6565e3f98c2aa056be152ea0,86143,1A,man,NA,null,W2 is being shouted at by M4,shout4,sentence,NA,NA,NA,NA
74530.5,NA,NA,NA,NA,survey-likert-extra-labels,41,570987,0.0-18.0-2.0,anomymised,6560c12449ad4f4ac5122a81,6565e3f98c2aa056be152ea0,86143,1A,man,NA,NA,W2 is being shouted at by M4,shout4,rating_volition,"{""Q0"":4}",[0],W2 wanted to shout at M4,M4 wanted to shout at W2
1198.9000000003725,NA,NA,NA,NA,survey-likert-extra-labels,42,572187,0.0-18.0-3.0-0.0,anomymised,6560c12449ad4f4ac5122a81,6565e3f98c2aa056be152ea0,86143,1A,man,NA,NA,W2 is being shouted at by M4,shout4,rating_causation,"{""Q0"":1}",[0],W2 shouted at M4 first,M4 shouted at W2 first
null,Fred is hiring Ruth,NA,NA,NA,html-keyboard-response,43,574200,0.0-19.0-0.0,anomymised,6560c12449ad4f4ac5122a81,6565e3f98c2aa056be152ea0,86143,1A,man,NA,null,M3 is hiring W1,hire,sentence,NA,NA,NA,NA
3306.2000000001863,NA,NA,NA,NA,survey-likert-extra-labels,44,577507,0.0-19.0-1.0-0.0,anomymised,6560c12449ad4f4ac5122a81,6565e3f98c2aa056be152ea0,86143,1A,man,NA,NA,M3 is hiring W1,hire,rating_causation,"{""Q0"":5}",[0],M3 will work for W1,W1 will work for M3
3279.0999999996275,NA,NA,NA,NA,survey-likert-extra-labels,45,580787,0.0-19.0-2.0,anomymised,6560c12449ad4f4ac5122a81,6565e3f98c2aa056be152ea0,86143,1A,man,NA,NA,M3 is hiring W1,hire,rating_volition,"{""Q0"":1}",[0],M3 is employing W1,W1 is employing M3
null,Ruth is chasing Kate,NA,NA,NA,html-keyboard-response,46,582788,0.0-20.0-0.0,anomymised,6560c12449ad4f4ac5122a81,6565e3f98c2aa056be152ea0,86143,1A,man,NA,null,W1 is chasing W3,chase,sentence,NA,NA,NA,NA
6894,NA,NA,NA,NA,survey-likert-extra-labels,47,589683,0.0-20.0-2.0,anomymised,6560c12449ad4f4ac5122a81,6565e3f98c2aa056be152ea0,86143,1A,man,NA,NA,W1 is chasing W3,chase,rating_volition,"{""Q0"":0}",[0],W1 is behind W3,W3 is behind W1
3327.2000000001863,NA,NA,NA,NA,survey-likert-extra-labels,48,593011,0.0-20.0-3.0-0.0,anomymised,6560c12449ad4f4ac5122a81,6565e3f98c2aa056be152ea0,86143,1A,man,NA,NA,W1 is chasing W3,chase,rating_causation,"{""Q0"":5}",[0],W1 is running away from W3,W3 is running away from W1
null,Kate is feeding Luke,NA,NA,NA,html-keyboard-response,49,595015,0.0-21.0-0.0,anomymised,6560c12449ad4f4ac5122a81,6565e3f98c2aa056be152ea0,86143,1A,man,NA,null,W3 is feeding M1,feed,sentence,NA,NA,NA,NA
11403.399999999441,NA,NA,NA,NA,survey-likert-extra-labels,50,606419,0.0-21.0-1.0-0.0,anomymised,6560c12449ad4f4ac5122a81,6565e3f98c2aa056be152ea0,86143,1A,man,NA,NA,W3 is feeding M1,feed,rating_causation,"{""Q0"":5}",[0],W3 is eating M1's food,M1 is eating W3's food
1207.2000000001863,NA,NA,NA,NA,survey-likert-extra-labels,51,607627,0.0-21.0-2.0,anomymised,6560c12449ad4f4ac5122a81,6565e3f98c2aa056be152ea0,86143,1A,man,NA,NA,W3 is feeding M1,feed,rating_volition,"{""Q0"":2}",[0],W3 cooked for M1,M1 cooked for W3
null,Fred is being challenged by Ruth,NA,NA,NA,html-keyboard-response,52,609634,0.0-22.0-0.0,anomymised,6560c12449ad4f4ac5122a81,6565e3f98c2aa056be152ea0,86143,1A,man,NA,null,M3 is being challenged by W1,challenge3,sentence,NA,NA,NA,NA
2880,NA,NA,NA,NA,survey-likert-extra-labels,53,612515,0.0-22.0-1.0-0.0,anomymised,6560c12449ad4f4ac5122a81,6565e3f98c2aa056be152ea0,86143,1A,man,NA,NA,M3 is being challenged by W1,challenge3,rating_causation,"{""Q0"":4}",[0],M3 started challenging W1 first,W1 started challenging M3 first
1070.7999999998137,NA,NA,NA,NA,survey-likert-extra-labels,54,613587,0.0-22.0-2.0,anomymised,6560c12449ad4f4ac5122a81,6565e3f98c2aa056be152ea0,86143,1A,man,NA,NA,M3 is being challenged by W1,challenge3,rating_volition,"{""Q0"":2}",[0],M3 wanted to challenge W1,W1 wanted to challenge M3
null,Mike is being opposed by Beth,NA,NA,NA,html-keyboard-response,55,616556,0.0-23.0-0.0,anomymised,6560c12449ad4f4ac5122a81,6565e3f98c2aa056be152ea0,86143,1A,man,NA,null,M2 is being opposed by W4,oppose4,sentence,NA,NA,NA,NA
76254.70000000019,NA,NA,NA,NA,survey-likert-extra-labels,56,692811,0.0-23.0-2.0,anomymised,6560c12449ad4f4ac5122a81,6565e3f98c2aa056be152ea0,86143,1A,man,NA,NA,M2 is being opposed by W4,oppose4,rating_volition,"{""Q0"":5}",[0],M2 wanted to oppose W4,W4 wanted to oppose M2
1655.2000000001863,NA,NA,NA,NA,survey-likert-extra-labels,57,694468,0.0-23.0-3.0-0.0,anomymised,6560c12449ad4f4ac5122a81,6565e3f98c2aa056be152ea0,86143,1A,man,NA,NA,M2 is being opposed by W4,oppose4,rating_causation,"{""Q0"":3}",[0],M2 started opposing W4,W4 started opposing M2
null,Jane is being challenged by Beth,NA,NA,NA,html-keyboard-response,58,696471,0.0-24.0-0.0,anomymised,6560c12449ad4f4ac5122a81,6565e3f98c2aa056be152ea0,86143,1A,man,NA,null,W2 is being challenged by W4,challenge1,sentence,NA,NA,NA,NA
121340.39999999944,NA,NA,NA,NA,survey-likert-extra-labels,59,817812,0.0-24.0-1.0-0.0,anomymised,6560c12449ad4f4ac5122a81,6565e3f98c2aa056be152ea0,86143,1A,man,NA,NA,W2 is being challenged by W4,challenge1,rating_causation,"{""Q0"":4}",[0],W2 started challenging W4 first,W4 started challenging W2 first
1806.8999999994412,NA,NA,NA,NA,survey-likert-extra-labels,60,819620,0.0-24.0-2.0,anomymised,6560c12449ad4f4ac5122a81,6565e3f98c2aa056be152ea0,86143,1A,man,NA,NA,W2 is being challenged by W4,challenge1,rating_volition,"{""Q0"":1}",[0],W2 wanted to challenge W4,W4 wanted to challenge W2
null,Luke is being opposed by Fred,NA,NA,NA,html-keyboard-response,61,821622,0.0-25.0-0.0,anomymised,6560c12449ad4f4ac5122a81,6565e3f98c2aa056be152ea0,86143,1A,man,NA,null,M1 is being opposed by M3,oppose2,sentence,NA,NA,NA,NA
28197.5,NA,NA,NA,NA,survey-likert-extra-labels,62,849819,0.0-25.0-2.0,anomymised,6560c12449ad4f4ac5122a81,6565e3f98c2aa056be152ea0,86143,1A,man,NA,NA,M1 is being opposed by M3,oppose2,rating_volition,"{""Q0"":5}",[0],M1 wanted to oppose M3,M3 wanted to oppose M1
5663.200000000186,NA,NA,NA,NA,survey-likert-extra-labels,63,855483,0.0-25.0-3.0-0.0,anomymised,6560c12449ad4f4ac5122a81,6565e3f98c2aa056be152ea0,86143,1A,man,NA,NA,M1 is being opposed by M3,oppose2,rating_causation,"{""Q0"":6}",[0],M1 started opposing M3,M3 started opposing M1
null,Luke is being hugged by Fred,NA,NA,NA,html-keyboard-response,64,857488,0.0-26.0-0.0,anomymised,6560c12449ad4f4ac5122a81,6565e3f98c2aa056be152ea0,86143,1A,man,NA,null,M1 is being hugged by M3,hug2,sentence,NA,NA,NA,NA
5210.799999999814,NA,NA,NA,NA,survey-likert-extra-labels,65,862699,0.0-26.0-2.0,anomymised,6560c12449ad4f4ac5122a81,6565e3f98c2aa056be152ea0,86143,1A,man,NA,NA,M1 is being hugged by M3,hug2,rating_volition,"{""Q0"":0}",[0],M1 wanted to hug M3,M3 wanted to hug M1
4838.899999999441,NA,NA,NA,NA,survey-likert-extra-labels,66,867539,0.0-26.0-3.0-0.0,anomymised,6560c12449ad4f4ac5122a81,6565e3f98c2aa056be152ea0,86143,1A,man,NA,NA,M1 is being hugged by M3,hug2,rating_causation,"{""Q0"":4}",[0],M1 asked to hug M3,M3 asked to hug M1
null,Mike is being challenged by Dave,NA,NA,NA,html-keyboard-response,67,869540,0.0-27.0-0.0,anomymised,6560c12449ad4f4ac5122a81,6565e3f98c2aa056be152ea0,86143,1A,man,NA,null,M2 is being challenged by M4,challenge2,sentence,NA,NA,NA,NA
67439,NA,NA,NA,NA,survey-likert-extra-labels,68,936980,0.0-27.0-1.0-0.0,anomymised,6560c12449ad4f4ac5122a81,6565e3f98c2aa056be152ea0,86143,1A,man,NA,NA,M2 is being challenged by M4,challenge2,rating_causation,"{""Q0"":5}",[0],M2 started challenging M4 first,M4 started challenging M2 first
1702.699999999255,NA,NA,NA,NA,survey-likert-extra-labels,69,938684,0.0-27.0-2.0,anomymised,6560c12449ad4f4ac5122a81,6565e3f98c2aa056be152ea0,86143,1A,man,NA,NA,M2 is being challenged by M4,challenge2,rating_volition,"{""Q0"":1}",[0],M2 wanted to challenge M4,M4 wanted to challenge M2
null,Mike is posing for Dave,NA,NA,NA,html-keyboard-response,70,940685,0.0-28.0-0.0,anomymised,6560c12449ad4f4ac5122a81,6565e3f98c2aa056be152ea0,86143,1A,man,NA,null,M2 is posing for M4,pose,sentence,NA,NA,NA,NA
41127.200000000186,NA,NA,NA,NA,survey-likert-extra-labels,71,981813,0.0-28.0-1.0-0.0,anomymised,6560c12449ad4f4ac5122a81,6565e3f98c2aa056be152ea0,86143,1A,man,NA,NA,M2 is posing for M4,pose,rating_causation,"{""Q0"":6}",[0],M2 is photographing M4,M4 is photographing M2
5614.800000000745,NA,NA,NA,NA,survey-likert-extra-labels,72,987428,0.0-28.0-2.0,anomymised,6560c12449ad4f4ac5122a81,6565e3f98c2aa056be152ea0,86143,1A,man,NA,NA,M2 is posing for M4,pose,rating_volition,"{""Q0"":0}",[0],M2 is modelling for M4,M4 is modelling for M2
null,Mike is being shouted at by Beth,NA,NA,NA,html-keyboard-response,73,989436,0.0-29.0-0.0,anomymised,6560c12449ad4f4ac5122a81,6565e3f98c2aa056be152ea0,86143,1A,man,NA,null,M2 is being shouted at by W4,shout3,sentence,NA,NA,NA,NA
5280.299999999814,NA,NA,NA,NA,survey-likert-extra-labels,74,994716,0.0-29.0-2.0,anomymised,6560c12449ad4f4ac5122a81,6565e3f98c2aa056be152ea0,86143,1A,man,NA,NA,M2 is being shouted at by W4,shout3,rating_volition,"{""Q0"":0}",[0],M2 wanted to shout at W4,W4 wanted to shout at M2
1998.8999999994412,NA,NA,NA,NA,survey-likert-extra-labels,75,996716,0.0-29.0-3.0-0.0,anomymised,6560c12449ad4f4ac5122a81,6565e3f98c2aa056be152ea0,86143,1A,man,NA,NA,M2 is being shouted at by W4,shout3,rating_causation,"{""Q0"":0}",[0],M2 shouted at W4 first,W4 shouted at M2 first
null,Ruth is being hugged by Kate,NA,NA,NA,html-keyboard-response,76,998718,0.0-30.0-0.0,anomymised,6560c12449ad4f4ac5122a81,6565e3f98c2aa056be152ea0,86143,1A,man,NA,null,W1 is being hugged by W3,hug1,sentence,NA,NA,NA,NA
2773.9000000003725,NA,NA,NA,NA,survey-likert-extra-labels,77,1001492,0.0-30.0-1.0-0.0,anomymised,6560c12449ad4f4ac5122a81,6565e3f98c2aa056be152ea0,86143,1A,man,NA,NA,W1 is being hugged by W3,hug1,rating_causation,"{""Q0"":6}",[0],W1 asked to hug W3,W3 asked to hug W1
2479.4000000003725,NA,NA,NA,NA,survey-likert-extra-labels,78,1003972,0.0-30.0-2.0,anomymised,6560c12449ad4f4ac5122a81,6565e3f98c2aa056be152ea0,86143,1A,man,NA,NA,W1 is being hugged by W3,hug1,rating_volition,"{""Q0"":1}",[0],W1 wanted to hug W3,W3 wanted to hug W1
null,Jane is being seduced by Beth,NA,NA,NA,html-keyboard-response,79,1005973,0.0-31.0-0.0,anomymised,6560c12449ad4f4ac5122a81,6565e3f98c2aa056be152ea0,86143,1A,man,NA,null,W2 is being seduced by W4,seduce1,sentence,NA,NA,NA,NA
3654.7999999998137,NA,NA,NA,NA,survey-likert-extra-labels,80,1009628,0.0-31.0-2.0,anomymised,6560c12449ad4f4ac5122a81,6565e3f98c2aa056be152ea0,86143,1A,man,NA,NA,W2 is being seduced by W4,seduce1,rating_volition,"{""Q0"":6}",[0],W2 wanted to seduce W4,W4 wanted to seduce W2
2591.5,NA,NA,NA,NA,survey-likert-extra-labels,81,1012221,0.0-31.0-3.0-0.0,anomymised,6560c12449ad4f4ac5122a81,6565e3f98c2aa056be152ea0,86143,1A,man,NA,NA,W2 is being seduced by W4,seduce1,rating_causation,"{""Q0"":""""}",[0],W2 started seducing W4 first,W4 started seducing W2 first
null,Fred is being touched by Ruth,NA,NA,NA,html-keyboard-response,82,1014225,0.0-32.0-0.0,anomymised,6560c12449ad4f4ac5122a81,6565e3f98c2aa056be152ea0,86143,1A,man,NA,null,M3 is being touched by W1,touch4,sentence,NA,NA,NA,NA
4251.5,NA,NA,NA,NA,survey-likert-extra-labels,83,1018477,0.0-32.0-1.0-0.0,anomymised,6560c12449ad4f4ac5122a81,6565e3f98c2aa056be152ea0,86143,1A,man,NA,NA,M3 is being touched by W1,touch4,rating_causation,"{""Q0"":6}",[0],M3 asked to touch W1,W1 asked to touch M3
2934.9000000003725,NA,NA,NA,NA,survey-likert-extra-labels,84,1021412,0.0-32.0-2.0,anomymised,6560c12449ad4f4ac5122a81,6565e3f98c2aa056be152ea0,86143,1A,man,NA,NA,M3 is being touched by W1,touch4,rating_volition,"{""Q0"":5}",[0],M3 wanted to touch W1,W1 wanted to touch M3
null,Ruth is being shouted at by Kate,NA,NA,NA,html-keyboard-response,85,1023413,0.0-33.0-0.0,anomymised,6560c12449ad4f4ac5122a81,6565e3f98c2aa056be152ea0,86143,1A,man,NA,null,W1 is being shouted at by W3,shout1,sentence,NA,NA,NA,NA
23246.39999999944,NA,NA,NA,NA,survey-likert-extra-labels,86,1046660,0.0-33.0-1.0-0.0,anomymised,6560c12449ad4f4ac5122a81,6565e3f98c2aa056be152ea0,86143,1A,man,NA,NA,W1 is being shouted at by W3,shout1,rating_causation,"{""Q0"":3}",[0],W1 shouted at W3 first,W3 shouted at W1 first
927.4000000003725,NA,NA,NA,NA,survey-likert-extra-labels,87,1047588,0.0-33.0-2.0,anomymised,6560c12449ad4f4ac5122a81,6565e3f98c2aa056be152ea0,86143,1A,man,NA,NA,W1 is being shouted at by W3,shout1,rating_volition,"{""Q0"":3}",[0],W1 wanted to shout at W3,W3 wanted to shout at W1
null,Fred is being seduced by Ruth,NA,NA,NA,html-keyboard-response,88,1049600,0.0-34.0-0.0,anomymised,6560c12449ad4f4ac5122a81,6565e3f98c2aa056be152ea0,86143,1A,man,NA,null,M3 is being seduced by W1,seduce4,sentence,NA,NA,NA,NA
37179.700000000186,NA,NA,NA,NA,survey-likert-extra-labels,89,1086781,0.0-34.0-1.0-0.0,anomymised,6560c12449ad4f4ac5122a81,6565e3f98c2aa056be152ea0,86143,1A,man,NA,NA,M3 is being seduced by W1,seduce4,rating_causation,"{""Q0"":6}",[0],M3 started seducing W1 first,W1 started seducing M3 first
10943.200000000186,NA,NA,NA,NA,survey-likert-extra-labels,90,1097725,0.0-34.0-2.0,anomymised,6560c12449ad4f4ac5122a81,6565e3f98c2aa056be152ea0,86143,1A,man,NA,NA,M3 is being seduced by W1,seduce4,rating_volition,"{""Q0"":4}",[0],M3 wanted to seducing W1,W1 wanted to seducing M3
null,Jane is being hugged by Dave,NA,NA,NA,html-keyboard-response,91,1099737,0.0-35.0-0.0,anomymised,6560c12449ad4f4ac5122a81,6565e3f98c2aa056be152ea0,86143,1A,man,NA,null,W2 is being hugged by M4,hug3,sentence,NA,NA,NA,NA
21035.300000000745,NA,NA,NA,NA,survey-likert-extra-labels,92,1120773,0.0-35.0-2.0,anomymised,6560c12449ad4f4ac5122a81,6565e3f98c2aa056be152ea0,86143,1A,man,NA,NA,W2 is being hugged by M4,hug3,rating_volition,"{""Q0"":6}",[0],W2 wanted to hug M4,M4 wanted to hug W2
1839.1000000005588,NA,NA,NA,NA,survey-likert-extra-labels,93,1122613,0.0-35.0-3.0-0.0,anomymised,6560c12449ad4f4ac5122a81,6565e3f98c2aa056be152ea0,86143,1A,man,NA,NA,W2 is being hugged by M4,hug3,rating_causation,"{""Q0"":0}",[0],W2 asked to hug M4,M4 asked to hug W2
null,Beth is being looked at by Mike,NA,NA,NA,html-keyboard-response,94,1124626,0.0-36.0-0.0,anomymised,6560c12449ad4f4ac5122a81,6565e3f98c2aa056be152ea0,86143,1A,man,NA,null,W4 is being looked at by M2,look4,sentence,NA,NA,NA,NA
2850.5,NA,NA,NA,NA,survey-likert-extra-labels,95,1127477,0.0-36.0-2.0,anomymised,6560c12449ad4f4ac5122a81,6565e3f98c2aa056be152ea0,86143,1A,man,NA,NA,W4 is being looked at by M2,look4,rating_volition,"{""Q0"":0}",[0],M2 wanted to look at W4,W4 wanted to look at M2
3935,NA,NA,NA,NA,survey-likert-extra-labels,96,1131413,0.0-36.0-3.0-0.0,anomymised,6560c12449ad4f4ac5122a81,6565e3f98c2aa056be152ea0,86143,1A,man,NA,NA,W4 is being looked at by M2,look4,rating_causation,"{""Q0"":1}",[0],M2 looked at W4 first,W4 looked at M2 first
null,Mike is reminding Beth,NA,NA,NA,html-keyboard-response,97,1133424,0.0-37.0-0.0,anomymised,6560c12449ad4f4ac5122a81,6565e3f98c2aa056be152ea0,86143,1A,man,NA,null,M2 is reminding W4,remind,sentence,NA,NA,NA,NA
22932.599999999627,NA,NA,NA,NA,survey-likert-extra-labels,98,1156357,0.0-37.0-1.0-0.0,anomymised,6560c12449ad4f4ac5122a81,6565e3f98c2aa056be152ea0,86143,1A,man,NA,NA,M2 is reminding W4,remind,rating_causation,"{""Q0"":6}",[0],M2 is remembering,W4 is remembering
22087.099999999627,NA,NA,NA,NA,survey-likert-extra-labels,99,1178445,0.0-37.0-2.0,anomymised,6560c12449ad4f4ac5122a81,6565e3f98c2aa056be152ea0,86143,1A,man,NA,NA,M2 is reminding W4,remind,rating_volition,"{""Q0"":0}",[0],M2 is telling W4 again,W4 is telling M2 again
null,Luke is driving Fred,NA,NA,NA,html-keyboard-response,100,1180447,0.0-38.0-0.0,anomymised,6560c12449ad4f4ac5122a81,6565e3f98c2aa056be152ea0,86143,1A,man,NA,null,M1 is driving M3,drive,sentence,NA,NA,NA,NA
12238.200000000186,NA,NA,NA,NA,survey-likert-extra-labels,101,1192686,0.0-38.0-2.0,anomymised,6560c12449ad4f4ac5122a81,6565e3f98c2aa056be152ea0,86143,1A,man,NA,NA,M1 is driving M3,drive,rating_volition,"{""Q0"":6}",[0],M1 is M3's passenger,M3 is M1's passenger
2294.7000000001863,NA,NA,NA,NA,survey-likert-extra-labels,102,1194981,0.0-38.0-3.0-0.0,anomymised,6560c12449ad4f4ac5122a81,6565e3f98c2aa056be152ea0,86143,1A,man,NA,NA,M1 is driving M3,drive,rating_causation,"{""Q0"":""""}",[0],M1 is taking M3 somewhere,M3 is taking M1 somewhere
null,Beth is being greeted by Jane,NA,NA,NA,html-keyboard-response,103,1196995,0.0-39.0-0.0,anomymised,6560c12449ad4f4ac5122a81,6565e3f98c2aa056be152ea0,86143,1A,man,NA,null,W4 is being greeted by W2,greet1,sentence,NA,NA,NA,NA
5513.799999999814,NA,NA,NA,NA,survey-likert-extra-labels,104,1202509,0.0-39.0-2.0,anomymised,6560c12449ad4f4ac5122a81,6565e3f98c2aa056be152ea0,86143,1A,man,NA,NA,W4 is being greeted by W2,greet1,rating_volition,"{""Q0"":0}",[0],W2 wanted to greet W4,W4 wanted to greet W2
1127,NA,NA,NA,NA,survey-likert-extra-labels,105,1203637,0.0-39.0-3.0-0.0,anomymised,6560c12449ad4f4ac5122a81,6565e3f98c2aa056be152ea0,86143,1A,man,NA,NA,W4 is being greeted by W2,greet1,rating_causation,"{""Q0"":3}",[0],W2 started greeting W4 first,W4 started greeting W2 first
null,Mike is being seduced by Dave,NA,NA,NA,html-keyboard-response,106,1205643,0.0-40.0-0.0,anomymised,6560c12449ad4f4ac5122a81,6565e3f98c2aa056be152ea0,86143,1A,man,NA,null,M2 is being seduced by M4,seduce2,sentence,NA,NA,NA,NA
2018.0999999996275,NA,NA,NA,NA,survey-likert-extra-labels,107,1207661,0.0-40.0-2.0,anomymised,6560c12449ad4f4ac5122a81,6565e3f98c2aa056be152ea0,86143,1A,man,NA,NA,M2 is being seduced by M4,seduce2,rating_volition,"{""Q0"":0}",[0],M2 wanted to seduce M4,M4 wanted to seduce M2
3335.4000000003725,NA,NA,NA,NA,survey-likert-extra-labels,108,1210997,0.0-40.0-3.0-0.0,anomymised,6560c12449ad4f4ac5122a81,6565e3f98c2aa056be152ea0,86143,1A,man,NA,NA,M2 is being seduced by M4,seduce2,rating_causation,"{""Q0"":0}",[0],M2 started seducing M4 first,M4 started seducing M2 first
null,Jane is being opposed by Dave,NA,NA,NA,html-keyboard-response,109,1213010,0.0-41.0-0.0,anomymised,6560c12449ad4f4ac5122a81,6565e3f98c2aa056be152ea0,86143,1A,man,NA,null,W2 is being opposed by M4,oppose3,sentence,NA,NA,NA,NA
8650.5,NA,NA,NA,NA,survey-likert-extra-labels,110,1221661,0.0-41.0-1.0-0.0,anomymised,6560c12449ad4f4ac5122a81,6565e3f98c2aa056be152ea0,86143,1A,man,NA,NA,W2 is being opposed by M4,oppose3,rating_causation,"{""Q0"":0}",[0],W2 started opposing M4,M4 started opposing W2
8046.9000000003725,NA,NA,NA,NA,survey-likert-extra-labels,111,1229709,0.0-41.0-2.0,anomymised,6560c12449ad4f4ac5122a81,6565e3f98c2aa056be152ea0,86143,1A,man,NA,NA,W2 is being opposed by M4,oppose3,rating_volition,"{""Q0"":3}",[0],W2 wanted to oppose M4,M4 wanted to oppose W2
null,Dave is being looked at by Jane,NA,NA,NA,html-keyboard-response,112,1231719,0.0-42.0-0.0,anomymised,6560c12449ad4f4ac5122a81,6565e3f98c2aa056be152ea0,86143,1A,man,NA,null,M4 is being looked at by W2,look3,sentence,NA,NA,NA,NA
7909.700000000186,NA,NA,NA,NA,survey-likert-extra-labels,113,1239629,0.0-42.0-1.0-0.0,anomymised,6560c12449ad4f4ac5122a81,6565e3f98c2aa056be152ea0,86143,1A,man,NA,NA,M4 is being looked at by W2,look3,rating_causation,"{""Q0"":4}",[0],W2 looked at M4 first,M4 looked at W2 first
1959,NA,NA,NA,NA,survey-likert-extra-labels,114,1241589,0.0-42.0-2.0,anomymised,6560c12449ad4f4ac5122a81,6565e3f98c2aa056be152ea0,86143,1A,man,NA,NA,M4 is being looked at by W2,look3,rating_volition,"{""Q0"":3}",[0],W2 wanted to look at M4,M4 wanted to look at W2
null,Mike is being hugged by Beth,NA,NA,NA,html-keyboard-response,115,1243593,0.0-43.0-0.0,anomymised,6560c12449ad4f4ac5122a81,6565e3f98c2aa056be152ea0,86143,1A,man,NA,null,M2 is being hugged by W4,hug4,sentence,NA,NA,NA,NA
2851.5,NA,NA,NA,NA,survey-likert-extra-labels,116,1246445,0.0-43.0-1.0-0.0,anomymised,6560c12449ad4f4ac5122a81,6565e3f98c2aa056be152ea0,86143,1A,man,NA,NA,M2 is being hugged by W4,hug4,rating_causation,"{""Q0"":0}",[0],M2 asked to hug W4,W4 asked to hug M2
2055.399999999441,NA,NA,NA,NA,survey-likert-extra-labels,117,1248502,0.0-43.0-2.0,anomymised,6560c12449ad4f4ac5122a81,6565e3f98c2aa056be152ea0,86143,1A,man,NA,NA,M2 is being hugged by W4,hug4,rating_volition,"{""Q0"":0}",[0],M2 wanted to hug W4,W4 wanted to hug M2
null,Luke is being copied by Kate,NA,NA,NA,html-keyboard-response,118,1250516,0.0-44.0-0.0,anomymised,6560c12449ad4f4ac5122a81,6565e3f98c2aa056be152ea0,86143,1A,man,NA,null,M1 is being copied by W3,copy3,sentence,NA,NA,NA,NA
5064.899999999441,NA,NA,NA,NA,survey-likert-extra-labels,119,1255581,0.0-44.0-1.0-0.0,anomymised,6560c12449ad4f4ac5122a81,6565e3f98c2aa056be152ea0,86143,1A,man,NA,NA,M1 is being copied by W3,copy3,rating_causation,"{""Q0"":4}",[0],W3 started copying M1 first,M1 started copying W3 first
1991.5,NA,NA,NA,NA,survey-likert-extra-labels,120,1257574,0.0-44.0-2.0,anomymised,6560c12449ad4f4ac5122a81,6565e3f98c2aa056be152ea0,86143,1A,man,NA,NA,M1 is being copied by W3,copy3,rating_volition,"{""Q0"":4}",[0],W3 wanted to copy M1,M1 wanted to copy W3
null,Luke is being greeted by Kate,NA,NA,NA,html-keyboard-response,121,1259580,0.0-45.0-0.0,anomymised,6560c12449ad4f4ac5122a81,6565e3f98c2aa056be152ea0,86143,1A,man,NA,null,M1 is being greeted by W3,greet4,sentence,NA,NA,NA,NA
1961.2999999998137,NA,NA,NA,NA,survey-likert-extra-labels,122,1261542,0.0-45.0-1.0-0.0,anomymised,6560c12449ad4f4ac5122a81,6565e3f98c2aa056be152ea0,86143,1A,man,NA,NA,M1 is being greeted by W3,greet4,rating_causation,"{""Q0"":1}",[0],W3 started greeting M1 first,M1 started greeting W3 first
2831.2000000001863,NA,NA,NA,NA,survey-likert-extra-labels,123,1264374,0.0-45.0-2.0,anomymised,6560c12449ad4f4ac5122a81,6565e3f98c2aa056be152ea0,86143,1A,man,NA,NA,M1 is being greeted by W3,greet4,rating_volition,"{""Q0"":0}",[0],W3 wanted to greet M1,M1 wanted to greet W3
null,Jane is carrying Beth,NA,NA,NA,html-keyboard-response,124,1266378,0.0-46.0-0.0,anomymised,6560c12449ad4f4ac5122a81,6565e3f98c2aa056be152ea0,86143,1A,man,NA,null,W2 is carrying W4,carry,sentence,NA,NA,NA,NA
10107.099999999627,NA,NA,NA,NA,survey-likert-extra-labels,125,1276486,0.0-46.0-1.0-0.0,anomymised,6560c12449ad4f4ac5122a81,6565e3f98c2aa056be152ea0,86143,1A,man,NA,NA,W2 is carrying W4,carry,rating_causation,"{""Q0"":0}",[0],W2 is being moved by W4,W4 is being moved by W2
1662.800000000745,NA,NA,NA,NA,survey-likert-extra-labels,126,1278150,0.0-46.0-2.0,anomymised,6560c12449ad4f4ac5122a81,6565e3f98c2aa056be152ea0,86143,1A,man,NA,NA,W2 is carrying W4,carry,rating_volition,"{""Q0"":0}",[0],W2 is transporting W4,W4 is transporting W2
null,Dave is being copied by Mike,NA,NA,NA,html-keyboard-response,127,1280151,0.0-47.0-0.0,anomymised,6560c12449ad4f4ac5122a81,6565e3f98c2aa056be152ea0,86143,1A,man,NA,null,M4 is being copied by M2,copy2,sentence,NA,NA,NA,NA
18598.700000000186,NA,NA,NA,NA,survey-likert-extra-labels,128,1298750,0.0-47.0-2.0,anomymised,6560c12449ad4f4ac5122a81,6565e3f98c2aa056be152ea0,86143,1A,man,NA,NA,M4 is being copied by M2,copy2,rating_volition,"{""Q0"":4}",[0],M2 wanted to copy M4,M4 wanted to copy M2
1111.1000000005588,NA,NA,NA,NA,survey-likert-extra-labels,129,1299862,0.0-47.0-3.0-0.0,anomymised,6560c12449ad4f4ac5122a81,6565e3f98c2aa056be152ea0,86143,1A,man,NA,NA,M4 is being copied by M2,copy2,rating_causation,"{""Q0"":4}",[0],M2 started copying M4 first,M4 started copying M2 first
null,Ruth is being greeted by Fred,NA,NA,NA,html-keyboard-response,130,1301869,0.0-48.0-0.0,anomymised,6560c12449ad4f4ac5122a81,6565e3f98c2aa056be152ea0,86143,1A,man,NA,null,W1 is being greeted by M3,greet3,sentence,NA,NA,NA,NA
35832.59999999963,NA,NA,NA,NA,survey-likert-extra-labels,131,1337702,0.0-48.0-2.0,anomymised,6560c12449ad4f4ac5122a81,6565e3f98c2aa056be152ea0,86143,1A,man,NA,NA,W1 is being greeted by M3,greet3,rating_volition,"{""Q0"":1}",[0],M3 wanted to greet W1,W1 wanted to greet M3
6039.0999999996275,NA,NA,NA,NA,survey-likert-extra-labels,132,1343742,0.0-48.0-3.0-0.0,anomymised,6560c12449ad4f4ac5122a81,6565e3f98c2aa056be152ea0,86143,1A,man,NA,NA,W1 is being greeted by M3,greet3,rating_causation,"{""Q0"":4}",[0],M3 started greeting W1 first,W1 started greeting M3 first
null,Kate is being touched by Luke,NA,NA,NA,html-keyboard-response,133,1346555,0.0-49.0-0.0,anomymised,6560c12449ad4f4ac5122a81,6565e3f98c2aa056be152ea0,86143,1A,man,NA,null,W3 is being touched by M1,touch3,sentence,NA,NA,NA,NA
3435,NA,NA,NA,NA,survey-likert-extra-labels,134,1349990,0.0-49.0-1.0-0.0,anomymised,6560c12449ad4f4ac5122a81,6565e3f98c2aa056be152ea0,86143,1A,man,NA,NA,W3 is being touched by M1,touch3,rating_causation,"{""Q0"":5}",[0],W3 asked to touch M1,M1 asked to touch W3
1671,NA,NA,NA,NA,survey-likert-extra-labels,135,1351662,0.0-49.0-2.0,anomymised,6560c12449ad4f4ac5122a81,6565e3f98c2aa056be152ea0,86143,1A,man,NA,NA,W3 is being touched by M1,touch3,rating_volition,"{""Q0"":2}",[0],W3 wanted to touch M1,M1 wanted to touch W3
null,Ruth is being opposed by Kate,NA,NA,NA,html-keyboard-response,136,1353665,0.0-50.0-0.0,anomymised,6560c12449ad4f4ac5122a81,6565e3f98c2aa056be152ea0,86143,1A,man,NA,null,W1 is being opposed by W3,oppose1,sentence,NA,NA,NA,NA
1708.6000000005588,NA,NA,NA,NA,survey-likert-extra-labels,137,1355374,0.0-50.0-1.0-0.0,anomymised,6560c12449ad4f4ac5122a81,6565e3f98c2aa056be152ea0,86143,1A,man,NA,NA,W1 is being opposed by W3,oppose1,rating_causation,"{""Q0"":3}",[0],W1 started opposing W3,W3 started opposing W1
3591.300000000745,NA,NA,NA,NA,survey-likert-extra-labels,138,1358966,0.0-50.0-2.0,anomymised,6560c12449ad4f4ac5122a81,6565e3f98c2aa056be152ea0,86143,1A,man,NA,NA,W1 is being opposed by W3,oppose1,rating_volition,"{""Q0"":3}",[0],W1 wanted to oppose W3,W3 wanted to oppose W1
null,Fred is being looked at by Luke,NA,NA,NA,html-keyboard-response,139,1360977,0.0-51.0-0.0,anomymised,6560c12449ad4f4ac5122a81,6565e3f98c2aa056be152ea0,86143,1A,man,NA,null,M3 is being looked at by M1,look2,sentence,NA,NA,NA,NA
1412.5,NA,NA,NA,NA,survey-likert-extra-labels,140,1362390,0.0-51.0-1.0-0.0,anomymised,6560c12449ad4f4ac5122a81,6565e3f98c2aa056be152ea0,86143,1A,man,NA,NA,M3 is being looked at by M1,look2,rating_causation,"{""Q0"":5}",[0],M1 looked at M3 first,M3 looked at M1 first
1319.300000000745,NA,NA,NA,NA,survey-likert-extra-labels,141,1363710,0.0-51.0-2.0,anomymised,6560c12449ad4f4ac5122a81,6565e3f98c2aa056be152ea0,86143,1A,man,NA,NA,M3 is being looked at by M1,look2,rating_volition,"{""Q0"":5}",[0],M1 wanted to look at M3,M3 wanted to look at M1
null,Jane is being touched by Beth,NA,NA,NA,html-keyboard-response,142,1365711,0.0-52.0-0.0,anomymised,6560c12449ad4f4ac5122a81,6565e3f98c2aa056be152ea0,86143,1A,man,NA,null,W2 is being touched by W4,touch1,sentence,NA,NA,NA,NA
3910.4000000003725,NA,NA,NA,NA,survey-likert-extra-labels,143,1369622,0.0-52.0-1.0-0.0,anomymised,6560c12449ad4f4ac5122a81,6565e3f98c2aa056be152ea0,86143,1A,man,NA,NA,W2 is being touched by W4,touch1,rating_causation,"{""Q0"":1}",[0],W2 asked to touch W4,W4 asked to touch W2
1975,NA,NA,NA,NA,survey-likert-extra-labels,144,1371598,0.0-52.0-2.0,anomymised,6560c12449ad4f4ac5122a81,6565e3f98c2aa056be152ea0,86143,1A,man,NA,NA,W2 is being touched by W4,touch1,rating_volition,"{""Q0"":1}",[0],W2 wanted to touch W4,W4 wanted to touch W2
null,Luke is being shouted at by Fred,NA,NA,NA,html-keyboard-response,145,1373599,0.0-53.0-0.0,anomymised,6560c12449ad4f4ac5122a81,6565e3f98c2aa056be152ea0,86143,1A,man,NA,null,M1 is being shouted at by M3,shout2,sentence,NA,NA,NA,NA
1910.6000000005588,NA,NA,NA,NA,survey-likert-extra-labels,146,1375510,0.0-53.0-2.0,anomymised,6560c12449ad4f4ac5122a81,6565e3f98c2aa056be152ea0,86143,1A,man,NA,NA,M1 is being shouted at by M3,shout2,rating_volition,"{""Q0"":1}",[0],M1 wanted to shout at M3,M3 wanted to shout at M1
6007.4000000003725,NA,NA,NA,NA,survey-likert-extra-labels,147,1381518,0.0-53.0-3.0-0.0,anomymised,6560c12449ad4f4ac5122a81,6565e3f98c2aa056be152ea0,86143,1A,man,NA,NA,M1 is being shouted at by M3,shout2,rating_causation,"{""Q0"":5}",[0],M1 shouted at M3 first,M3 shouted at M1 first
null,Kate is being kissed by Ruth,NA,NA,NA,html-keyboard-response,148,1383526,0.0-54.0-0.0,anomymised,6560c12449ad4f4ac5122a81,6565e3f98c2aa056be152ea0,86143,1A,man,NA,null,W3 is being kissed by W1,kiss1,sentence,NA,NA,NA,NA
2863.9000000003725,NA,NA,NA,NA,survey-likert-extra-labels,149,1386391,0.0-54.0-1.0-0.0,anomymised,6560c12449ad4f4ac5122a81,6565e3f98c2aa056be152ea0,86143,1A,man,NA,NA,W3 is being kissed by W1,kiss1,rating_causation,"{""Q0"":6}",[0],W1 asked to kiss W3,W3 asked to kiss W1
1375.2999999998137,NA,NA,NA,NA,survey-likert-extra-labels,150,1387767,0.0-54.0-2.0,anomymised,6560c12449ad4f4ac5122a81,6565e3f98c2aa056be152ea0,86143,1A,man,NA,NA,W3 is being kissed by W1,kiss1,rating_volition,"{""Q0"":5}",[0],W1 wanted to kiss W3,W3 wanted to kiss W1
5183.200000000186,<p>Thank you for completing that task.</p><p>The final part of this session is a short questionnaire.</p><p>Press Continue.</p>,0,Continue,Continue,html-button-response,151,1392951,0.0-55.0,anomymised,6560c12449ad4f4ac5122a81,6565e3f98c2aa056be152ea0,86143,1A,man,NA,NA,NA,NA,NA,NA,NA,NA,NA
19060.599999999627,NA,NA,NA,NA,survey-text,152,1413015,0.0-56.0,anomymised,6560c12449ad4f4ac5122a81,6565e3f98c2aa056be152ea0,86143,1A,man,NA,NA,NA,NA,demographics,"{""Q0"":""35"",""Q1"":""english"",""Q2"":""english"",""Q3"":""uk"",""Q4"":""uk"",""Q5"":""white"",""Q6"":""m""}",NA,NA,NA
2295.100000000559,<p>This is the last question - thank you for taking part! Have you lived in the UK for the last 5 years or more?</p>,0,"Yes,No",Yes,html-button-response,153,1415311,0.0-57.0,anomymised,6560c12449ad4f4ac5122a81,6565e3f98c2aa056be152ea0,86143,1A,man,NA,NA,NA,NA,fiveyears,NA,NA,NA,NA
