rt,stimulus,button_pressed,choices,ChosenStimulus,trial_type,trial_index,time_elapsed,internal_node_id,subject_id,study_id,session_id,subject,list,ppt_gender,url,key_press,sentence_type,verb,test_part,responses,question_order,left_part,right_part
3052,Welcome to the experiment. Press Continue to begin.,0,Continue,Continue,html-button-response,0,3062,0.0-0.0,anomymised,656582bcfaaa3e760f369b3c,656609b01d177cd7ddaad922,88013,2A,woman,NA,NA,NA,NA,NA,NA,NA,NA,NA
29878,NA,NA,NA,NA,external-html,1,34020,0.0-1.0,anomymised,656582bcfaaa3e760f369b3c,656609b01d177cd7ddaad922,88013,2A,woman,consent.html,NA,NA,NA,NA,NA,NA,NA,NA
15665,"<p>Welcome.</p><p>In this experiment we will ask you to imagine some situations.</p><p>Each trial starts with a description of an event.</p><p>Then you will see alternative descriptions of that event, and you will rate on a scale how best they match the original description.</p><p>You will give your answer by clicking a button on a rating scale.</p><p>To do this task, you will have to use your imagination to visualise these events.</p><br><p>Ready?</p>",0,Continue,Continue,html-button-response,2,49687,0.0-2.0,anomymised,656582bcfaaa3e760f369b3c,656609b01d177cd7ddaad922,88013,2A,woman,NA,NA,NA,NA,NA,NA,NA,NA,NA
3561,"<p>Before the experiment starts, you will watch an example trial. Press 'Continue'.</p>",0,Continue,Continue,html-button-response,3,54261,0.0-3.0,anomymised,656582bcfaaa3e760f369b3c,656609b01d177cd7ddaad922,88013,2A,woman,NA,NA,NA,NA,NA,NA,NA,NA,NA
null,The police officer is arresting the robber,NA,NA,NA,html-keyboard-response,4,57290,0.0-4.0,anomymised,656582bcfaaa3e760f369b3c,656609b01d177cd7ddaad922,88013,2A,woman,NA,null,NA,NA,NA,NA,NA,NA,NA
21875,<img src='img/Example-trial.jpg' style='height:550px;''></img>,0,Continue,Continue,html-button-response,5,79166,0.0-5.0,anomymised,656582bcfaaa3e760f369b3c,656609b01d177cd7ddaad922,88013,2A,woman,NA,NA,NA,NA,NA,NA,NA,NA,NA
3405,<p>Ready to start the experiment?</p><br><p><strong>Remember to give an answer by clicking a button on the rating scale.</strong></p><p>Press 'Continue' to begin.</p>,0,Continue,Continue,html-button-response,6,83583,0.0-6.0,anomymised,656582bcfaaa3e760f369b3c,656609b01d177cd7ddaad922,88013,2A,woman,NA,NA,NA,NA,NA,NA,NA,NA,NA
null,Ruth is being greeted by Kate,NA,NA,NA,html-keyboard-response,7,86603,0.0-7.0-0.0,anomymised,656582bcfaaa3e760f369b3c,656609b01d177cd7ddaad922,88013,2A,woman,NA,null,W4 is being greeted by W2,greet1,sentence,NA,NA,NA,NA
23974,NA,NA,NA,NA,survey-likert-extra-labels,8,110579,0.0-7.0-1.0-0.0,anomymised,656582bcfaaa3e760f369b3c,656609b01d177cd7ddaad922,88013,2A,woman,NA,NA,W4 is being greeted by W2,greet1,rating_causation,"{""Q0"":0}",[0],W2 started greeting W4 first,W4 started greeting W2 first
19660,NA,NA,NA,NA,survey-likert-extra-labels,9,130242,0.0-7.0-2.0,anomymised,656582bcfaaa3e760f369b3c,656609b01d177cd7ddaad922,88013,2A,woman,NA,NA,W4 is being greeted by W2,greet1,rating_volition,"{""Q0"":1}",[0],W2 wanted to greet W4,W4 wanted to greet W2
null,Dave is posing for Mike,NA,NA,NA,html-keyboard-response,10,132258,0.0-8.0-0.0,anomymised,656582bcfaaa3e760f369b3c,656609b01d177cd7ddaad922,88013,2A,woman,NA,null,M2 is posing for M4,pose,sentence,NA,NA,NA,NA
8351,NA,NA,NA,NA,survey-likert-extra-labels,11,140612,0.0-8.0-2.0,anomymised,656582bcfaaa3e760f369b3c,656609b01d177cd7ddaad922,88013,2A,woman,NA,NA,M2 is posing for M4,pose,rating_volition,"{""Q0"":0}",[0],M2 is modelling for M4,M4 is modelling for M2
12192,NA,NA,NA,NA,survey-likert-extra-labels,12,152806,0.0-8.0-3.0-0.0,anomymised,656582bcfaaa3e760f369b3c,656609b01d177cd7ddaad922,88013,2A,woman,NA,NA,M2 is posing for M4,pose,rating_causation,"{""Q0"":5}",[0],M2 is photographing M4,M4 is photographing M2
null,Dave is being hugged by Ruth,NA,NA,NA,html-keyboard-response,13,154806,0.0-9.0-0.0,anomymised,656582bcfaaa3e760f369b3c,656609b01d177cd7ddaad922,88013,2A,woman,NA,null,M2 is being hugged by W4,hug4,sentence,NA,NA,NA,NA
20596,NA,NA,NA,NA,survey-likert-extra-labels,14,175403,0.0-9.0-1.0-0.0,anomymised,656582bcfaaa3e760f369b3c,656609b01d177cd7ddaad922,88013,2A,woman,NA,NA,M2 is being hugged by W4,hug4,rating_causation,"{""Q0"":4}",[0],M2 asked to hug W4,W4 asked to hug M2
17909,NA,NA,NA,NA,survey-likert-extra-labels,15,193313,0.0-9.0-2.0,anomymised,656582bcfaaa3e760f369b3c,656609b01d177cd7ddaad922,88013,2A,woman,NA,NA,M2 is being hugged by W4,hug4,rating_volition,"{""Q0"":4}",[0],M2 wanted to hug W4,W4 wanted to hug M2
null,Ruth is being copied by Kate,NA,NA,NA,html-keyboard-response,16,195326,0.0-10.0-0.0,anomymised,656582bcfaaa3e760f369b3c,656609b01d177cd7ddaad922,88013,2A,woman,NA,null,W4 is being copied by W2,copy1,sentence,NA,NA,NA,NA
10854,NA,NA,NA,NA,survey-likert-extra-labels,17,206181,0.0-10.0-2.0,anomymised,656582bcfaaa3e760f369b3c,656609b01d177cd7ddaad922,88013,2A,woman,NA,NA,W4 is being copied by W2,copy1,rating_volition,"{""Q0"":0}",[0],W2 wanted to copy W4,W4 wanted to copy W2
16044,NA,NA,NA,NA,survey-likert-extra-labels,18,222227,0.0-10.0-3.0-0.0,anomymised,656582bcfaaa3e760f369b3c,656609b01d177cd7ddaad922,88013,2A,woman,NA,NA,W4 is being copied by W2,copy1,rating_causation,"{""Q0"":0}",[0],W2 started copying W4 first,W4 started copying W2 first
null,Kate is being touched by Ruth,NA,NA,NA,html-keyboard-response,19,224228,0.0-11.0-0.0,anomymised,656582bcfaaa3e760f369b3c,656609b01d177cd7ddaad922,88013,2A,woman,NA,null,W2 is being touched by W4,touch1,sentence,NA,NA,NA,NA
10726,NA,NA,NA,NA,survey-likert-extra-labels,20,234955,0.0-11.0-2.0,anomymised,656582bcfaaa3e760f369b3c,656609b01d177cd7ddaad922,88013,2A,woman,NA,NA,W2 is being touched by W4,touch1,rating_volition,"{""Q0"":4}",[0],W2 wanted to touch W4,W4 wanted to touch W2
10731,NA,NA,NA,NA,survey-likert-extra-labels,21,245687,0.0-11.0-3.0-0.0,anomymised,656582bcfaaa3e760f369b3c,656609b01d177cd7ddaad922,88013,2A,woman,NA,NA,W2 is being touched by W4,touch1,rating_causation,"{""Q0"":3}",[0],W2 asked to touch W4,W4 asked to touch W2
null,Kate is being seduced by Ruth,NA,NA,NA,html-keyboard-response,22,247700,0.0-12.0-0.0,anomymised,656582bcfaaa3e760f369b3c,656609b01d177cd7ddaad922,88013,2A,woman,NA,null,W2 is being seduced by W4,seduce1,sentence,NA,NA,NA,NA
10116,NA,NA,NA,NA,survey-likert-extra-labels,23,257819,0.0-12.0-2.0,anomymised,656582bcfaaa3e760f369b3c,656609b01d177cd7ddaad922,88013,2A,woman,NA,NA,W2 is being seduced by W4,seduce1,rating_volition,"{""Q0"":4}",[0],W2 wanted to seduce W4,W4 wanted to seduce W2
10190,NA,NA,NA,NA,survey-likert-extra-labels,24,268010,0.0-12.0-3.0-0.0,anomymised,656582bcfaaa3e760f369b3c,656609b01d177cd7ddaad922,88013,2A,woman,NA,NA,W2 is being seduced by W4,seduce1,rating_causation,"{""Q0"":6}",[0],W2 started seducing W4 first,W4 started seducing W2 first
null,Mike is being copied by Dave,NA,NA,NA,html-keyboard-response,25,270020,0.0-13.0-0.0,anomymised,656582bcfaaa3e760f369b3c,656609b01d177cd7ddaad922,88013,2A,woman,NA,null,M4 is being copied by M2,copy2,sentence,NA,NA,NA,NA
21284,NA,NA,NA,NA,survey-likert-extra-labels,26,291306,0.0-13.0-2.0,anomymised,656582bcfaaa3e760f369b3c,656609b01d177cd7ddaad922,88013,2A,woman,NA,NA,M4 is being copied by M2,copy2,rating_volition,"{""Q0"":1}",[0],M2 wanted to copy M4,M4 wanted to copy M2
8408,NA,NA,NA,NA,survey-likert-extra-labels,27,299716,0.0-13.0-3.0-0.0,anomymised,656582bcfaaa3e760f369b3c,656609b01d177cd7ddaad922,88013,2A,woman,NA,NA,M4 is being copied by M2,copy2,rating_causation,"{""Q0"":0}",[0],M2 started copying M4 first,M4 started copying M2 first
null,Beth is being greeted by Luke,NA,NA,NA,html-keyboard-response,28,301729,0.0-14.0-0.0,anomymised,656582bcfaaa3e760f369b3c,656609b01d177cd7ddaad922,88013,2A,woman,NA,null,W1 is being greeted by M3,greet3,sentence,NA,NA,NA,NA
8989,NA,NA,NA,NA,survey-likert-extra-labels,29,310717,0.0-14.0-1.0-0.0,anomymised,656582bcfaaa3e760f369b3c,656609b01d177cd7ddaad922,88013,2A,woman,NA,NA,W1 is being greeted by M3,greet3,rating_causation,"{""Q0"":1}",[0],M3 started greeting W1 first,W1 started greeting M3 first
11950,NA,NA,NA,NA,survey-likert-extra-labels,30,322670,0.0-14.0-2.0,anomymised,656582bcfaaa3e760f369b3c,656609b01d177cd7ddaad922,88013,2A,woman,NA,NA,W1 is being greeted by M3,greet3,rating_volition,"{""Q0"":1}",[0],M3 wanted to greet W1,W1 wanted to greet M3
null,Dave is being touched by Mike,NA,NA,NA,html-keyboard-response,31,324858,0.0-15.0-0.0,anomymised,656582bcfaaa3e760f369b3c,656609b01d177cd7ddaad922,88013,2A,woman,NA,null,M2 is being touched by M4,touch2,sentence,NA,NA,NA,NA
10167,NA,NA,NA,NA,survey-likert-extra-labels,32,335026,0.0-15.0-1.0-0.0,anomymised,656582bcfaaa3e760f369b3c,656609b01d177cd7ddaad922,88013,2A,woman,NA,NA,M2 is being touched by M4,touch2,rating_causation,"{""Q0"":3}",[0],M2 asked to touch M4,M4 asked to touch M2
9507,NA,NA,NA,NA,survey-likert-extra-labels,33,344534,0.0-15.0-2.0,anomymised,656582bcfaaa3e760f369b3c,656609b01d177cd7ddaad922,88013,2A,woman,NA,NA,M2 is being touched by M4,touch2,rating_volition,"{""Q0"":6}",[0],M2 wanted to touch M4,M4 wanted to touch M2
null,Beth is being opposed by Jane,NA,NA,NA,html-keyboard-response,34,346535,0.0-16.0-0.0,anomymised,656582bcfaaa3e760f369b3c,656609b01d177cd7ddaad922,88013,2A,woman,NA,null,W1 is being opposed by W3,oppose1,sentence,NA,NA,NA,NA
8110,NA,NA,NA,NA,survey-likert-extra-labels,35,354645,0.0-16.0-1.0-0.0,anomymised,656582bcfaaa3e760f369b3c,656609b01d177cd7ddaad922,88013,2A,woman,NA,NA,W1 is being opposed by W3,oppose1,rating_causation,"{""Q0"":6}",[0],W1 started opposing W3,W3 started opposing W1
8362,NA,NA,NA,NA,survey-likert-extra-labels,36,363010,0.0-16.0-2.0,anomymised,656582bcfaaa3e760f369b3c,656609b01d177cd7ddaad922,88013,2A,woman,NA,NA,W1 is being opposed by W3,oppose1,rating_volition,"{""Q0"":6}",[0],W1 wanted to oppose W3,W3 wanted to oppose W1
null,Beth is being shouted at by Jane,NA,NA,NA,html-keyboard-response,37,365023,0.0-17.0-0.0,anomymised,656582bcfaaa3e760f369b3c,656609b01d177cd7ddaad922,88013,2A,woman,NA,null,W1 is being shouted at by W3,shout1,sentence,NA,NA,NA,NA
8706,NA,NA,NA,NA,survey-likert-extra-labels,38,373732,0.0-17.0-2.0,anomymised,656582bcfaaa3e760f369b3c,656609b01d177cd7ddaad922,88013,2A,woman,NA,NA,W1 is being shouted at by W3,shout1,rating_volition,"{""Q0"":6}",[0],W1 wanted to shout at W3,W3 wanted to shout at W1
8949,NA,NA,NA,NA,survey-likert-extra-labels,39,382681,0.0-17.0-3.0-0.0,anomymised,656582bcfaaa3e760f369b3c,656609b01d177cd7ddaad922,88013,2A,woman,NA,NA,W1 is being shouted at by W3,shout1,rating_causation,"{""Q0"":6}",[0],W1 shouted at W3 first,W3 shouted at W1 first
null,Jane is being seduced by Fred,NA,NA,NA,html-keyboard-response,40,384694,0.0-18.0-0.0,anomymised,656582bcfaaa3e760f369b3c,656609b01d177cd7ddaad922,88013,2A,woman,NA,null,W3 is being seduced by M1,seduce3,sentence,NA,NA,NA,NA
7905,NA,NA,NA,NA,survey-likert-extra-labels,41,392600,0.0-18.0-1.0-0.0,anomymised,656582bcfaaa3e760f369b3c,656609b01d177cd7ddaad922,88013,2A,woman,NA,NA,W3 is being seduced by M1,seduce3,rating_causation,"{""Q0"":5}",[0],W3 started seducing M1 first,M1 started seducing W3 first
7410,NA,NA,NA,NA,survey-likert-extra-labels,42,400009,0.0-18.0-2.0,anomymised,656582bcfaaa3e760f369b3c,656609b01d177cd7ddaad922,88013,2A,woman,NA,NA,W3 is being seduced by M1,seduce3,rating_volition,"{""Q0"":6}",[0],W3 wanted to seduce M1,M1 wanted to seduce W3
null,Fred is being copied by Jane,NA,NA,NA,html-keyboard-response,43,402024,0.0-19.0-0.0,anomymised,656582bcfaaa3e760f369b3c,656609b01d177cd7ddaad922,88013,2A,woman,NA,null,M1 is being copied by W3,copy3,sentence,NA,NA,NA,NA
8606,NA,NA,NA,NA,survey-likert-extra-labels,44,410631,0.0-19.0-1.0-0.0,anomymised,656582bcfaaa3e760f369b3c,656609b01d177cd7ddaad922,88013,2A,woman,NA,NA,M1 is being copied by W3,copy3,rating_causation,"{""Q0"":1}",[0],W3 started copying M1 first,M1 started copying W3 first
14369,NA,NA,NA,NA,survey-likert-extra-labels,45,425001,0.0-19.0-2.0,anomymised,656582bcfaaa3e760f369b3c,656609b01d177cd7ddaad922,88013,2A,woman,NA,NA,M1 is being copied by W3,copy3,rating_volition,"{""Q0"":1}",[0],W3 wanted to copy M1,M1 wanted to copy W3
null,Dave is being seduced by Mike,NA,NA,NA,html-keyboard-response,46,427002,0.0-20.0-0.0,anomymised,656582bcfaaa3e760f369b3c,656609b01d177cd7ddaad922,88013,2A,woman,NA,null,M2 is being seduced by M4,seduce2,sentence,NA,NA,NA,NA
7334,NA,NA,NA,NA,survey-likert-extra-labels,47,434337,0.0-20.0-1.0-0.0,anomymised,656582bcfaaa3e760f369b3c,656609b01d177cd7ddaad922,88013,2A,woman,NA,NA,M2 is being seduced by M4,seduce2,rating_causation,"{""Q0"":5}",[0],M2 started seducing M4 first,M4 started seducing M2 first
7689,NA,NA,NA,NA,survey-likert-extra-labels,48,442027,0.0-20.0-2.0,anomymised,656582bcfaaa3e760f369b3c,656609b01d177cd7ddaad922,88013,2A,woman,NA,NA,M2 is being seduced by M4,seduce2,rating_volition,"{""Q0"":6}",[0],M2 wanted to seduce M4,M4 wanted to seduce M2
null,Beth is being copied by Luke,NA,NA,NA,html-keyboard-response,49,444039,0.0-21.0-0.0,anomymised,656582bcfaaa3e760f369b3c,656609b01d177cd7ddaad922,88013,2A,woman,NA,null,W1 is being copied by M3,copy4,sentence,NA,NA,NA,NA
9066,NA,NA,NA,NA,survey-likert-extra-labels,50,453105,0.0-21.0-1.0-0.0,anomymised,656582bcfaaa3e760f369b3c,656609b01d177cd7ddaad922,88013,2A,woman,NA,NA,W1 is being copied by M3,copy4,rating_causation,"{""Q0"":1}",[0],M3 started copying W1 first,W1 started copying M3 first
6357,NA,NA,NA,NA,survey-likert-extra-labels,51,459463,0.0-21.0-2.0,anomymised,656582bcfaaa3e760f369b3c,656609b01d177cd7ddaad922,88013,2A,woman,NA,NA,W1 is being copied by M3,copy4,rating_volition,"{""Q0"":0}",[0],M3 wanted to copy W1,W1 wanted to copy M3
null,Jane is feeding Fred,NA,NA,NA,html-keyboard-response,52,461718,0.0-22.0-0.0,anomymised,656582bcfaaa3e760f369b3c,656609b01d177cd7ddaad922,88013,2A,woman,NA,null,W3 is feeding M1,feed,sentence,NA,NA,NA,NA
14321,NA,NA,NA,NA,survey-likert-extra-labels,53,476040,0.0-22.0-2.0,anomymised,656582bcfaaa3e760f369b3c,656609b01d177cd7ddaad922,88013,2A,woman,NA,NA,W3 is feeding M1,feed,rating_volition,"{""Q0"":2}",[0],W3 cooked for M1,M1 cooked for W3
10659,NA,NA,NA,NA,survey-likert-extra-labels,54,486700,0.0-22.0-3.0-0.0,anomymised,656582bcfaaa3e760f369b3c,656609b01d177cd7ddaad922,88013,2A,woman,NA,NA,W3 is feeding M1,feed,rating_causation,"{""Q0"":5}",[0],W3 is eating M1's food,M1 is eating W3's food
null,Kate is teaching Mike,NA,NA,NA,html-keyboard-response,55,488717,0.0-23.0-0.0,anomymised,656582bcfaaa3e760f369b3c,656609b01d177cd7ddaad922,88013,2A,woman,NA,null,W2 is teaching M4,teach,sentence,NA,NA,NA,NA
9044,NA,NA,NA,NA,survey-likert-extra-labels,56,497762,0.0-23.0-2.0,anomymised,656582bcfaaa3e760f369b3c,656609b01d177cd7ddaad922,88013,2A,woman,NA,NA,W2 is teaching M4,teach,rating_volition,"{""Q0"":0}",[0],W2 is educating M4,M4 is educating W2
7603,NA,NA,NA,NA,survey-likert-extra-labels,57,505366,0.0-23.0-3.0-0.0,anomymised,656582bcfaaa3e760f369b3c,656609b01d177cd7ddaad922,88013,2A,woman,NA,NA,W2 is teaching M4,teach,rating_causation,"{""Q0"":6}",[0],W2 is learning from M4,M4 is learning from W2
null,Fred is being opposed by Luke,NA,NA,NA,html-keyboard-response,58,507379,0.0-24.0-0.0,anomymised,656582bcfaaa3e760f369b3c,656609b01d177cd7ddaad922,88013,2A,woman,NA,null,M1 is being opposed by M3,oppose2,sentence,NA,NA,NA,NA
6357,NA,NA,NA,NA,survey-likert-extra-labels,59,513737,0.0-24.0-2.0,anomymised,656582bcfaaa3e760f369b3c,656609b01d177cd7ddaad922,88013,2A,woman,NA,NA,M1 is being opposed by M3,oppose2,rating_volition,"{""Q0"":6}",[0],M1 wanted to oppose M3,M3 wanted to oppose M1
8228,NA,NA,NA,NA,survey-likert-extra-labels,60,521966,0.0-24.0-3.0-0.0,anomymised,656582bcfaaa3e760f369b3c,656609b01d177cd7ddaad922,88013,2A,woman,NA,NA,M1 is being opposed by M3,oppose2,rating_causation,"{""Q0"":5}",[0],M1 started opposing M3,M3 started opposing M1
null,Dave is being challenged by Mike,NA,NA,NA,html-keyboard-response,61,523976,0.0-25.0-0.0,anomymised,656582bcfaaa3e760f369b3c,656609b01d177cd7ddaad922,88013,2A,woman,NA,null,M2 is being challenged by M4,challenge2,sentence,NA,NA,NA,NA
14705,NA,NA,NA,NA,survey-likert-extra-labels,62,538682,0.0-25.0-1.0-0.0,anomymised,656582bcfaaa3e760f369b3c,656609b01d177cd7ddaad922,88013,2A,woman,NA,NA,M2 is being challenged by M4,challenge2,rating_causation,"{""Q0"":2}",[0],M2 started challenging M4 first,M4 started challenging M2 first
13357,NA,NA,NA,NA,survey-likert-extra-labels,63,552040,0.0-25.0-2.0,anomymised,656582bcfaaa3e760f369b3c,656609b01d177cd7ddaad922,88013,2A,woman,NA,NA,M2 is being challenged by M4,challenge2,rating_volition,"{""Q0"":6}",[0],M2 wanted to challenge M4,M4 wanted to challenge M2
null,Fred is being shouted at by Luke,NA,NA,NA,html-keyboard-response,64,554042,0.0-26.0-0.0,anomymised,656582bcfaaa3e760f369b3c,656609b01d177cd7ddaad922,88013,2A,woman,NA,null,M1 is being shouted at by M3,shout2,sentence,NA,NA,NA,NA
8423,NA,NA,NA,NA,survey-likert-extra-labels,65,562466,0.0-26.0-2.0,anomymised,656582bcfaaa3e760f369b3c,656609b01d177cd7ddaad922,88013,2A,woman,NA,NA,M1 is being shouted at by M3,shout2,rating_volition,"{""Q0"":6}",[0],M1 wanted to shout at M3,M3 wanted to shout at M1
6597,NA,NA,NA,NA,survey-likert-extra-labels,66,569065,0.0-26.0-3.0-0.0,anomymised,656582bcfaaa3e760f369b3c,656609b01d177cd7ddaad922,88013,2A,woman,NA,NA,M1 is being shouted at by M3,shout2,rating_causation,"{""Q0"":2}",[0],M1 shouted at M3 first,M3 shouted at M1 first
null,Luke is being looked at by Fred,NA,NA,NA,html-keyboard-response,67,571109,0.0-27.0-0.0,anomymised,656582bcfaaa3e760f369b3c,656609b01d177cd7ddaad922,88013,2A,woman,NA,null,M3 is being looked at by M1,look2,sentence,NA,NA,NA,NA
12225,NA,NA,NA,NA,survey-likert-extra-labels,68,583336,0.0-27.0-2.0,anomymised,656582bcfaaa3e760f369b3c,656609b01d177cd7ddaad922,88013,2A,woman,NA,NA,M3 is being looked at by M1,look2,rating_volition,"{""Q0"":0}",[0],M1 wanted to look at M3,M3 wanted to look at M1
8467,NA,NA,NA,NA,survey-likert-extra-labels,69,591803,0.0-27.0-3.0-0.0,anomymised,656582bcfaaa3e760f369b3c,656609b01d177cd7ddaad922,88013,2A,woman,NA,NA,M3 is being looked at by M1,look2,rating_causation,"{""Q0"":1}",[0],M1 looked at M3 first,M3 looked at M1 first
null,Jane is being looked at by Beth,NA,NA,NA,html-keyboard-response,70,593810,0.0-28.0-0.0,anomymised,656582bcfaaa3e760f369b3c,656609b01d177cd7ddaad922,88013,2A,woman,NA,null,W3 is being looked at by W1,look1,sentence,NA,NA,NA,NA
7259,NA,NA,NA,NA,survey-likert-extra-labels,71,601070,0.0-28.0-2.0,anomymised,656582bcfaaa3e760f369b3c,656609b01d177cd7ddaad922,88013,2A,woman,NA,NA,W3 is being looked at by W1,look1,rating_volition,"{""Q0"":0}",[0],W1 wanted to look at W3,W3 wanted to look at W1
6977,NA,NA,NA,NA,survey-likert-extra-labels,72,608048,0.0-28.0-3.0-0.0,anomymised,656582bcfaaa3e760f369b3c,656609b01d177cd7ddaad922,88013,2A,woman,NA,NA,W3 is being looked at by W1,look1,rating_causation,"{""Q0"":0}",[0],W1 looked at W3 first,W3 looked at W1 first
null,Fred is being hugged by Luke,NA,NA,NA,html-keyboard-response,73,610059,0.0-29.0-0.0,anomymised,656582bcfaaa3e760f369b3c,656609b01d177cd7ddaad922,88013,2A,woman,NA,null,M1 is being hugged by M3,hug2,sentence,NA,NA,NA,NA
6232,NA,NA,NA,NA,survey-likert-extra-labels,74,616292,0.0-29.0-2.0,anomymised,656582bcfaaa3e760f369b3c,656609b01d177cd7ddaad922,88013,2A,woman,NA,NA,M1 is being hugged by M3,hug2,rating_volition,"{""Q0"":6}",[0],M1 wanted to hug M3,M3 wanted to hug M1
21957,NA,NA,NA,NA,survey-likert-extra-labels,75,638249,0.0-29.0-3.0-0.0,anomymised,656582bcfaaa3e760f369b3c,656609b01d177cd7ddaad922,88013,2A,woman,NA,NA,M1 is being hugged by M3,hug2,rating_causation,"{""Q0"":4}",[0],M1 asked to hug M3,M3 asked to hug M1
null,Luke is being seduced by Beth,NA,NA,NA,html-keyboard-response,76,640258,0.0-30.0-0.0,anomymised,656582bcfaaa3e760f369b3c,656609b01d177cd7ddaad922,88013,2A,woman,NA,null,M3 is being seduced by W1,seduce4,sentence,NA,NA,NA,NA
12479,NA,NA,NA,NA,survey-likert-extra-labels,77,652737,0.0-30.0-2.0,anomymised,656582bcfaaa3e760f369b3c,656609b01d177cd7ddaad922,88013,2A,woman,NA,NA,M3 is being seduced by W1,seduce4,rating_volition,"{""Q0"":6}",[0],M3 wanted to seducing W1,W1 wanted to seducing M3
6124,NA,NA,NA,NA,survey-likert-extra-labels,78,658863,0.0-30.0-3.0-0.0,anomymised,656582bcfaaa3e760f369b3c,656609b01d177cd7ddaad922,88013,2A,woman,NA,NA,M3 is being seduced by W1,seduce4,rating_causation,"{""Q0"":4}",[0],M3 started seducing W1 first,W1 started seducing M3 first
null,Jane is being kissed by Beth,NA,NA,NA,html-keyboard-response,79,660870,0.0-31.0-0.0,anomymised,656582bcfaaa3e760f369b3c,656609b01d177cd7ddaad922,88013,2A,woman,NA,null,W3 is being kissed by W1,kiss1,sentence,NA,NA,NA,NA
9765,NA,NA,NA,NA,survey-likert-extra-labels,80,670635,0.0-31.0-2.0,anomymised,656582bcfaaa3e760f369b3c,656609b01d177cd7ddaad922,88013,2A,woman,NA,NA,W3 is being kissed by W1,kiss1,rating_volition,"{""Q0"":0}",[0],W1 wanted to kiss W3,W3 wanted to kiss W1
4763,NA,NA,NA,NA,survey-likert-extra-labels,81,675399,0.0-31.0-3.0-0.0,anomymised,656582bcfaaa3e760f369b3c,656609b01d177cd7ddaad922,88013,2A,woman,NA,NA,W3 is being kissed by W1,kiss1,rating_causation,"{""Q0"":3}",[0],W1 asked to kiss W3,W3 asked to kiss W1
null,Dave is being opposed by Ruth,NA,NA,NA,html-keyboard-response,82,677404,0.0-32.0-0.0,anomymised,656582bcfaaa3e760f369b3c,656609b01d177cd7ddaad922,88013,2A,woman,NA,null,M2 is being opposed by W4,oppose4,sentence,NA,NA,NA,NA
6966,NA,NA,NA,NA,survey-likert-extra-labels,83,684370,0.0-32.0-2.0,anomymised,656582bcfaaa3e760f369b3c,656609b01d177cd7ddaad922,88013,2A,woman,NA,NA,M2 is being opposed by W4,oppose4,rating_volition,"{""Q0"":6}",[0],M2 wanted to oppose W4,W4 wanted to oppose M2
13605,NA,NA,NA,NA,survey-likert-extra-labels,84,697977,0.0-32.0-3.0-0.0,anomymised,656582bcfaaa3e760f369b3c,656609b01d177cd7ddaad922,88013,2A,woman,NA,NA,M2 is being opposed by W4,oppose4,rating_causation,"{""Q0"":6}",[0],M2 started opposing W4,W4 started opposing M2
null,Beth is being hugged by Jane,NA,NA,NA,html-keyboard-response,85,699986,0.0-33.0-0.0,anomymised,656582bcfaaa3e760f369b3c,656609b01d177cd7ddaad922,88013,2A,woman,NA,null,W1 is being hugged by W3,hug1,sentence,NA,NA,NA,NA
12305,NA,NA,NA,NA,survey-likert-extra-labels,86,712293,0.0-33.0-1.0-0.0,anomymised,656582bcfaaa3e760f369b3c,656609b01d177cd7ddaad922,88013,2A,woman,NA,NA,W1 is being hugged by W3,hug1,rating_causation,"{""Q0"":2}",[0],W1 asked to hug W3,W3 asked to hug W1
15253,NA,NA,NA,NA,survey-likert-extra-labels,87,727547,0.0-33.0-2.0,anomymised,656582bcfaaa3e760f369b3c,656609b01d177cd7ddaad922,88013,2A,woman,NA,NA,W1 is being hugged by W3,hug1,rating_volition,"{""Q0"":5}",[0],W1 wanted to hug W3,W3 wanted to hug W1
null,Luke is hiring Beth,NA,NA,NA,html-keyboard-response,88,729561,0.0-34.0-0.0,anomymised,656582bcfaaa3e760f369b3c,656609b01d177cd7ddaad922,88013,2A,woman,NA,null,M3 is hiring W1,hire,sentence,NA,NA,NA,NA
8511,NA,NA,NA,NA,survey-likert-extra-labels,89,738073,0.0-34.0-2.0,anomymised,656582bcfaaa3e760f369b3c,656609b01d177cd7ddaad922,88013,2A,woman,NA,NA,M3 is hiring W1,hire,rating_volition,"{""Q0"":0}",[0],M3 is employing W1,W1 is employing M3
6712,NA,NA,NA,NA,survey-likert-extra-labels,90,744786,0.0-34.0-3.0-0.0,anomymised,656582bcfaaa3e760f369b3c,656609b01d177cd7ddaad922,88013,2A,woman,NA,NA,M3 is hiring W1,hire,rating_causation,"{""Q0"":6}",[0],M3 will work for W1,W1 will work for M3
null,Jane is being challenged by Fred,NA,NA,NA,html-keyboard-response,91,746792,0.0-35.0-0.0,anomymised,656582bcfaaa3e760f369b3c,656609b01d177cd7ddaad922,88013,2A,woman,NA,null,W3 is being challenged by M1,challenge4,sentence,NA,NA,NA,NA
4592,NA,NA,NA,NA,survey-likert-extra-labels,92,751384,0.0-35.0-2.0,anomymised,656582bcfaaa3e760f369b3c,656609b01d177cd7ddaad922,88013,2A,woman,NA,NA,W3 is being challenged by M1,challenge4,rating_volition,"{""Q0"":6}",[0],W3 wanted to challenge M1,M1 wanted to challenge W3
6327,NA,NA,NA,NA,survey-likert-extra-labels,93,757712,0.0-35.0-3.0-0.0,anomymised,656582bcfaaa3e760f369b3c,656609b01d177cd7ddaad922,88013,2A,woman,NA,NA,W3 is being challenged by M1,challenge4,rating_causation,"{""Q0"":6}",[0],W3 started challenging M1 first,M1 started challenging W3 first
null,Kate is carrying Ruth,NA,NA,NA,html-keyboard-response,94,759721,0.0-36.0-0.0,anomymised,656582bcfaaa3e760f369b3c,656609b01d177cd7ddaad922,88013,2A,woman,NA,null,W2 is carrying W4,carry,sentence,NA,NA,NA,NA
5050,NA,NA,NA,NA,survey-likert-extra-labels,95,764772,0.0-36.0-2.0,anomymised,656582bcfaaa3e760f369b3c,656609b01d177cd7ddaad922,88013,2A,woman,NA,NA,W2 is carrying W4,carry,rating_volition,"{""Q0"":0}",[0],W2 is transporting W4,W4 is transporting W2
10317,NA,NA,NA,NA,survey-likert-extra-labels,96,775090,0.0-36.0-3.0-0.0,anomymised,656582bcfaaa3e760f369b3c,656609b01d177cd7ddaad922,88013,2A,woman,NA,NA,W2 is carrying W4,carry,rating_causation,"{""Q0"":0}",[0],W2 is being moved by W4,W4 is being moved by W2
null,Dave is reminding Ruth,NA,NA,NA,html-keyboard-response,97,777093,0.0-37.0-0.0,anomymised,656582bcfaaa3e760f369b3c,656609b01d177cd7ddaad922,88013,2A,woman,NA,null,M2 is reminding W4,remind,sentence,NA,NA,NA,NA
6332,NA,NA,NA,NA,survey-likert-extra-labels,98,783426,0.0-37.0-2.0,anomymised,656582bcfaaa3e760f369b3c,656609b01d177cd7ddaad922,88013,2A,woman,NA,NA,M2 is reminding W4,remind,rating_volition,"{""Q0"":0}",[0],M2 is telling W4 again,W4 is telling M2 again
15845,NA,NA,NA,NA,survey-likert-extra-labels,99,799274,0.0-37.0-3.0-0.0,anomymised,656582bcfaaa3e760f369b3c,656609b01d177cd7ddaad922,88013,2A,woman,NA,NA,M2 is reminding W4,remind,rating_causation,"{""Q0"":5}",[0],M2 is remembering,W4 is remembering
null,Dave is being shouted at by Ruth,NA,NA,NA,html-keyboard-response,100,801288,0.0-38.0-0.0,anomymised,656582bcfaaa3e760f369b3c,656609b01d177cd7ddaad922,88013,2A,woman,NA,null,M2 is being shouted at by W4,shout3,sentence,NA,NA,NA,NA
6022,NA,NA,NA,NA,survey-likert-extra-labels,101,807309,0.0-38.0-1.0-0.0,anomymised,656582bcfaaa3e760f369b3c,656609b01d177cd7ddaad922,88013,2A,woman,NA,NA,M2 is being shouted at by W4,shout3,rating_causation,"{""Q0"":5}",[0],M2 shouted at W4 first,W4 shouted at M2 first
8075,NA,NA,NA,NA,survey-likert-extra-labels,102,815386,0.0-38.0-2.0,anomymised,656582bcfaaa3e760f369b3c,656609b01d177cd7ddaad922,88013,2A,woman,NA,NA,M2 is being shouted at by W4,shout3,rating_volition,"{""Q0"":5}",[0],M2 wanted to shout at W4,W4 wanted to shout at M2
null,Kate is being challenged by Ruth,NA,NA,NA,html-keyboard-response,103,817398,0.0-39.0-0.0,anomymised,656582bcfaaa3e760f369b3c,656609b01d177cd7ddaad922,88013,2A,woman,NA,null,W2 is being challenged by W4,challenge1,sentence,NA,NA,NA,NA
6611,NA,NA,NA,NA,survey-likert-extra-labels,104,824010,0.0-39.0-1.0-0.0,anomymised,656582bcfaaa3e760f369b3c,656609b01d177cd7ddaad922,88013,2A,woman,NA,NA,W2 is being challenged by W4,challenge1,rating_causation,"{""Q0"":5}",[0],W2 started challenging W4 first,W4 started challenging W2 first
9225,NA,NA,NA,NA,survey-likert-extra-labels,105,833236,0.0-39.0-2.0,anomymised,656582bcfaaa3e760f369b3c,656609b01d177cd7ddaad922,88013,2A,woman,NA,NA,W2 is being challenged by W4,challenge1,rating_volition,"{""Q0"":6}",[0],W2 wanted to challenge W4,W4 wanted to challenge W2
null,Jane is being touched by Fred,NA,NA,NA,html-keyboard-response,106,835237,0.0-40.0-0.0,anomymised,656582bcfaaa3e760f369b3c,656609b01d177cd7ddaad922,88013,2A,woman,NA,null,W3 is being touched by M1,touch3,sentence,NA,NA,NA,NA
7636,NA,NA,NA,NA,survey-likert-extra-labels,107,842874,0.0-40.0-2.0,anomymised,656582bcfaaa3e760f369b3c,656609b01d177cd7ddaad922,88013,2A,woman,NA,NA,W3 is being touched by M1,touch3,rating_volition,"{""Q0"":5}",[0],W3 wanted to touch M1,M1 wanted to touch W3
6915,NA,NA,NA,NA,survey-likert-extra-labels,108,849789,0.0-40.0-3.0-0.0,anomymised,656582bcfaaa3e760f369b3c,656609b01d177cd7ddaad922,88013,2A,woman,NA,NA,W3 is being touched by M1,touch3,rating_causation,"{""Q0"":3}",[0],W3 asked to touch M1,M1 asked to touch W3
null,Mike is being looked at by Kate,NA,NA,NA,html-keyboard-response,109,851795,0.0-41.0-0.0,anomymised,656582bcfaaa3e760f369b3c,656609b01d177cd7ddaad922,88013,2A,woman,NA,null,M4 is being looked at by W2,look3,sentence,NA,NA,NA,NA
5947,NA,NA,NA,NA,survey-likert-extra-labels,110,857744,0.0-41.0-2.0,anomymised,656582bcfaaa3e760f369b3c,656609b01d177cd7ddaad922,88013,2A,woman,NA,NA,M4 is being looked at by W2,look3,rating_volition,"{""Q0"":0}",[0],W2 wanted to look at M4,M4 wanted to look at W2
6953,NA,NA,NA,NA,survey-likert-extra-labels,111,864698,0.0-41.0-3.0-0.0,anomymised,656582bcfaaa3e760f369b3c,656609b01d177cd7ddaad922,88013,2A,woman,NA,NA,M4 is being looked at by W2,look3,rating_causation,"{""Q0"":0}",[0],W2 looked at M4 first,M4 looked at W2 first
null,Ruth is being looked at by Dave,NA,NA,NA,html-keyboard-response,112,866705,0.0-42.0-0.0,anomymised,656582bcfaaa3e760f369b3c,656609b01d177cd7ddaad922,88013,2A,woman,NA,null,W4 is being looked at by M2,look4,sentence,NA,NA,NA,NA
7552,NA,NA,NA,NA,survey-likert-extra-labels,113,874258,0.0-42.0-1.0-0.0,anomymised,656582bcfaaa3e760f369b3c,656609b01d177cd7ddaad922,88013,2A,woman,NA,NA,W4 is being looked at by M2,look4,rating_causation,"{""Q0"":0}",[0],M2 looked at W4 first,W4 looked at M2 first
7718,NA,NA,NA,NA,survey-likert-extra-labels,114,881978,0.0-42.0-2.0,anomymised,656582bcfaaa3e760f369b3c,656609b01d177cd7ddaad922,88013,2A,woman,NA,NA,W4 is being looked at by M2,look4,rating_volition,"{""Q0"":0}",[0],M2 wanted to look at W4,W4 wanted to look at M2
null,Beth is chasing Jane,NA,NA,NA,html-keyboard-response,115,883989,0.0-43.0-0.0,anomymised,656582bcfaaa3e760f369b3c,656609b01d177cd7ddaad922,88013,2A,woman,NA,null,W1 is chasing W3,chase,sentence,NA,NA,NA,NA
7237,NA,NA,NA,NA,survey-likert-extra-labels,116,891227,0.0-43.0-2.0,anomymised,656582bcfaaa3e760f369b3c,656609b01d177cd7ddaad922,88013,2A,woman,NA,NA,W1 is chasing W3,chase,rating_volition,"{""Q0"":6}",[0],W1 is behind W3,W3 is behind W1
6961,NA,NA,NA,NA,survey-likert-extra-labels,117,898190,0.0-43.0-3.0-0.0,anomymised,656582bcfaaa3e760f369b3c,656609b01d177cd7ddaad922,88013,2A,woman,NA,NA,W1 is chasing W3,chase,rating_causation,"{""Q0"":6}",[0],W1 is running away from W3,W3 is running away from W1
null,Mike is being kissed by Kate,NA,NA,NA,html-keyboard-response,118,900310,0.0-44.0-0.0,anomymised,656582bcfaaa3e760f369b3c,656609b01d177cd7ddaad922,88013,2A,woman,NA,null,M4 is being kissed by W2,kiss4,sentence,NA,NA,NA,NA
9652,NA,NA,NA,NA,survey-likert-extra-labels,119,909963,0.0-44.0-2.0,anomymised,656582bcfaaa3e760f369b3c,656609b01d177cd7ddaad922,88013,2A,woman,NA,NA,M4 is being kissed by W2,kiss4,rating_volition,"{""Q0"":0}",[0],W2 wanted to kiss M4,M4 wanted to kiss W2
7695,NA,NA,NA,NA,survey-likert-extra-labels,120,917659,0.0-44.0-3.0-0.0,anomymised,656582bcfaaa3e760f369b3c,656609b01d177cd7ddaad922,88013,2A,woman,NA,NA,M4 is being kissed by W2,kiss4,rating_causation,"{""Q0"":3}",[0],W2 asked to kiss M4,M4 asked to kiss W2
null,Luke is being touched by Beth,NA,NA,NA,html-keyboard-response,121,919672,0.0-45.0-0.0,anomymised,656582bcfaaa3e760f369b3c,656609b01d177cd7ddaad922,88013,2A,woman,NA,null,M3 is being touched by W1,touch4,sentence,NA,NA,NA,NA
5142,NA,NA,NA,NA,survey-likert-extra-labels,122,924815,0.0-45.0-2.0,anomymised,656582bcfaaa3e760f369b3c,656609b01d177cd7ddaad922,88013,2A,woman,NA,NA,M3 is being touched by W1,touch4,rating_volition,"{""Q0"":6}",[0],M3 wanted to touch W1,W1 wanted to touch M3
5693,NA,NA,NA,NA,survey-likert-extra-labels,123,930509,0.0-45.0-3.0-0.0,anomymised,656582bcfaaa3e760f369b3c,656609b01d177cd7ddaad922,88013,2A,woman,NA,NA,M3 is being touched by W1,touch4,rating_causation,"{""Q0"":3}",[0],M3 asked to touch W1,W1 asked to touch M3
null,Ruth is being kissed by Dave,NA,NA,NA,html-keyboard-response,124,932515,0.0-46.0-0.0,anomymised,656582bcfaaa3e760f369b3c,656609b01d177cd7ddaad922,88013,2A,woman,NA,null,W4 is being kissed by M2,kiss3,sentence,NA,NA,NA,NA
6625,NA,NA,NA,NA,survey-likert-extra-labels,125,939141,0.0-46.0-2.0,anomymised,656582bcfaaa3e760f369b3c,656609b01d177cd7ddaad922,88013,2A,woman,NA,NA,W4 is being kissed by M2,kiss3,rating_volition,"{""Q0"":0}",[0],M2 wanted to kiss W4,W4 wanted to kiss M2
5221,NA,NA,NA,NA,survey-likert-extra-labels,126,944362,0.0-46.0-3.0-0.0,anomymised,656582bcfaaa3e760f369b3c,656609b01d177cd7ddaad922,88013,2A,woman,NA,NA,W4 is being kissed by M2,kiss3,rating_causation,"{""Q0"":3}",[0],M2 asked to kiss W4,W4 asked to kiss M2
null,Kate is being opposed by Mike,NA,NA,NA,html-keyboard-response,127,946378,0.0-47.0-0.0,anomymised,656582bcfaaa3e760f369b3c,656609b01d177cd7ddaad922,88013,2A,woman,NA,null,W2 is being opposed by M4,oppose3,sentence,NA,NA,NA,NA
4769,NA,NA,NA,NA,survey-likert-extra-labels,128,951147,0.0-47.0-1.0-0.0,anomymised,656582bcfaaa3e760f369b3c,656609b01d177cd7ddaad922,88013,2A,woman,NA,NA,W2 is being opposed by M4,oppose3,rating_causation,"{""Q0"":6}",[0],W2 started opposing M4,M4 started opposing W2
5374,NA,NA,NA,NA,survey-likert-extra-labels,129,956523,0.0-47.0-2.0,anomymised,656582bcfaaa3e760f369b3c,656609b01d177cd7ddaad922,88013,2A,woman,NA,NA,W2 is being opposed by M4,oppose3,rating_volition,"{""Q0"":6}",[0],W2 wanted to oppose M4,M4 wanted to oppose W2
null,Fred is being greeted by Jane,NA,NA,NA,html-keyboard-response,130,958538,0.0-48.0-0.0,anomymised,656582bcfaaa3e760f369b3c,656609b01d177cd7ddaad922,88013,2A,woman,NA,null,M1 is being greeted by W3,greet4,sentence,NA,NA,NA,NA
5663,NA,NA,NA,NA,survey-likert-extra-labels,131,964202,0.0-48.0-2.0,anomymised,656582bcfaaa3e760f369b3c,656609b01d177cd7ddaad922,88013,2A,woman,NA,NA,M1 is being greeted by W3,greet4,rating_volition,"{""Q0"":6}",[0],W3 wanted to greet M1,M1 wanted to greet W3
11646,NA,NA,NA,NA,survey-likert-extra-labels,132,975851,0.0-48.0-3.0-0.0,anomymised,656582bcfaaa3e760f369b3c,656609b01d177cd7ddaad922,88013,2A,woman,NA,NA,M1 is being greeted by W3,greet4,rating_causation,"{""Q0"":0}",[0],W3 started greeting M1 first,M1 started greeting W3 first
null,Kate is being shouted at by Mike,NA,NA,NA,html-keyboard-response,133,977858,0.0-49.0-0.0,anomymised,656582bcfaaa3e760f369b3c,656609b01d177cd7ddaad922,88013,2A,woman,NA,null,W2 is being shouted at by M4,shout4,sentence,NA,NA,NA,NA
5718,NA,NA,NA,NA,survey-likert-extra-labels,134,983577,0.0-49.0-1.0-0.0,anomymised,656582bcfaaa3e760f369b3c,656609b01d177cd7ddaad922,88013,2A,woman,NA,NA,W2 is being shouted at by M4,shout4,rating_causation,"{""Q0"":6}",[0],W2 shouted at M4 first,M4 shouted at W2 first
8342,NA,NA,NA,NA,survey-likert-extra-labels,135,991921,0.0-49.0-2.0,anomymised,656582bcfaaa3e760f369b3c,656609b01d177cd7ddaad922,88013,2A,woman,NA,NA,W2 is being shouted at by M4,shout4,rating_volition,"{""Q0"":5}",[0],W2 wanted to shout at M4,M4 wanted to shout at W2
null,Fred is driving Luke,NA,NA,NA,html-keyboard-response,136,993926,0.0-50.0-0.0,anomymised,656582bcfaaa3e760f369b3c,656609b01d177cd7ddaad922,88013,2A,woman,NA,null,M1 is driving M3,drive,sentence,NA,NA,NA,NA
6373,NA,NA,NA,NA,survey-likert-extra-labels,137,1000299,0.0-50.0-2.0,anomymised,656582bcfaaa3e760f369b3c,656609b01d177cd7ddaad922,88013,2A,woman,NA,NA,M1 is driving M3,drive,rating_volition,"{""Q0"":6}",[0],M1 is M3's passenger,M3 is M1's passenger
9024,NA,NA,NA,NA,survey-likert-extra-labels,138,1009324,0.0-50.0-3.0-0.0,anomymised,656582bcfaaa3e760f369b3c,656609b01d177cd7ddaad922,88013,2A,woman,NA,NA,M1 is driving M3,drive,rating_causation,"{""Q0"":0}",[0],M1 is taking M3 somewhere,M3 is taking M1 somewhere
null,Kate is being hugged by Mike,NA,NA,NA,html-keyboard-response,139,1011327,0.0-51.0-0.0,anomymised,656582bcfaaa3e760f369b3c,656609b01d177cd7ddaad922,88013,2A,woman,NA,null,W2 is being hugged by M4,hug3,sentence,NA,NA,NA,NA
6441,NA,NA,NA,NA,survey-likert-extra-labels,140,1017768,0.0-51.0-1.0-0.0,anomymised,656582bcfaaa3e760f369b3c,656609b01d177cd7ddaad922,88013,2A,woman,NA,NA,W2 is being hugged by M4,hug3,rating_causation,"{""Q0"":3}",[0],W2 asked to hug M4,M4 asked to hug W2
6688,NA,NA,NA,NA,survey-likert-extra-labels,141,1024458,0.0-51.0-2.0,anomymised,656582bcfaaa3e760f369b3c,656609b01d177cd7ddaad922,88013,2A,woman,NA,NA,W2 is being hugged by M4,hug3,rating_volition,"{""Q0"":6}",[0],W2 wanted to hug M4,M4 wanted to hug W2
null,Mike is being greeted by Dave,NA,NA,NA,html-keyboard-response,142,1026469,0.0-52.0-0.0,anomymised,656582bcfaaa3e760f369b3c,656609b01d177cd7ddaad922,88013,2A,woman,NA,null,M4 is being greeted by M2,greet2,sentence,NA,NA,NA,NA
7046,NA,NA,NA,NA,survey-likert-extra-labels,143,1033516,0.0-52.0-2.0,anomymised,656582bcfaaa3e760f369b3c,656609b01d177cd7ddaad922,88013,2A,woman,NA,NA,M4 is being greeted by M2,greet2,rating_volition,"{""Q0"":0}",[0],M2 wanted to greet M4,M4 wanted to greet M2
8050,NA,NA,NA,NA,survey-likert-extra-labels,144,1041568,0.0-52.0-3.0-0.0,anomymised,656582bcfaaa3e760f369b3c,656609b01d177cd7ddaad922,88013,2A,woman,NA,NA,M4 is being greeted by M2,greet2,rating_causation,"{""Q0"":5}",[0],M2 started greeting M4 first,M4 started greeting M2 first
null,Luke is being challenged by Beth,NA,NA,NA,html-keyboard-response,145,1043570,0.0-53.0-0.0,anomymised,656582bcfaaa3e760f369b3c,656609b01d177cd7ddaad922,88013,2A,woman,NA,null,M3 is being challenged by W1,challenge3,sentence,NA,NA,NA,NA
5275,NA,NA,NA,NA,survey-likert-extra-labels,146,1048846,0.0-53.0-2.0,anomymised,656582bcfaaa3e760f369b3c,656609b01d177cd7ddaad922,88013,2A,woman,NA,NA,M3 is being challenged by W1,challenge3,rating_volition,"{""Q0"":6}",[0],M3 wanted to challenge W1,W1 wanted to challenge M3
7091,NA,NA,NA,NA,survey-likert-extra-labels,147,1055938,0.0-53.0-3.0-0.0,anomymised,656582bcfaaa3e760f369b3c,656609b01d177cd7ddaad922,88013,2A,woman,NA,NA,M3 is being challenged by W1,challenge3,rating_causation,"{""Q0"":5}",[0],M3 started challenging W1 first,W1 started challenging M3 first
null,Luke is being kissed by Fred,NA,NA,NA,html-keyboard-response,148,1057941,0.0-54.0-0.0,anomymised,656582bcfaaa3e760f369b3c,656609b01d177cd7ddaad922,88013,2A,woman,NA,null,M3 is being kissed by M1,kiss2,sentence,NA,NA,NA,NA
4896,NA,NA,NA,NA,survey-likert-extra-labels,149,1062837,0.0-54.0-1.0-0.0,anomymised,656582bcfaaa3e760f369b3c,656609b01d177cd7ddaad922,88013,2A,woman,NA,NA,M3 is being kissed by M1,kiss2,rating_causation,"{""Q0"":3}",[0],M1 asked to kiss M3,M3 asked to kiss M1
7981,NA,NA,NA,NA,survey-likert-extra-labels,150,1070820,0.0-54.0-2.0,anomymised,656582bcfaaa3e760f369b3c,656609b01d177cd7ddaad922,88013,2A,woman,NA,NA,M3 is being kissed by M1,kiss2,rating_volition,"{""Q0"":0}",[0],M1 wanted to kiss M3,M3 wanted to kiss M1
2882,<p>Thank you for completing that task.</p><p>The final part of this session is a short questionnaire.</p><p>Press Continue.</p>,0,Continue,Continue,html-button-response,151,1073704,0.0-55.0,anomymised,656582bcfaaa3e760f369b3c,656609b01d177cd7ddaad922,88013,2A,woman,NA,NA,NA,NA,NA,NA,NA,NA,NA
36594,NA,NA,NA,NA,survey-text,152,1111305,0.0-56.0,anomymised,656582bcfaaa3e760f369b3c,656609b01d177cd7ddaad922,88013,2A,woman,NA,NA,NA,NA,demographics,"{""Q0"":""71"",""Q1"":""English"",""Q2"":""English"",""Q3"":""United Kingdom"",""Q4"":""British"",""Q5"":""British"",""Q6"":""Female""}",NA,NA,NA
5241,<p>This is the last question - thank you for taking part! Have you lived in the UK for the last 5 years or more?</p>,0,"Yes,No",Yes,html-button-response,153,1116547,0.0-57.0,anomymised,656582bcfaaa3e760f369b3c,656609b01d177cd7ddaad922,88013,2A,woman,NA,NA,NA,NA,fiveyears,NA,NA,NA,NA
