rt,stimulus,button_pressed,choices,ChosenStimulus,trial_type,trial_index,time_elapsed,internal_node_id,subject_id,study_id,session_id,subject,list,ppt_gender,url,key_press,sentence_type,verb,test_part,responses,question_order,left_part,right_part
1618.2999999970198,Welcome to the experiment. Press Continue to begin.,0,Continue,Continue,html-button-response,0,1622,0.0-0.0,anomymised,65658334de4976d2bd35dbcf,65678a3d9b3b22c39c0b7e13,89216,2,woman,NA,NA,NA,NA,NA,NA,NA,NA,NA
19592.09999999404,NA,NA,NA,NA,external-html,1,22271,0.0-1.0,anomymised,65658334de4976d2bd35dbcf,65678a3d9b3b22c39c0b7e13,89216,2,woman,consent.html,NA,NA,NA,NA,NA,NA,NA,NA
9416.10000000894,"<p>Welcome.</p><p>In this experiment we will ask you to imagine some situations.</p><p>Each trial starts with a description of an event.</p><p>Then you will see alternative descriptions of that event, and you will rate on a scale how best they match the original description.</p><p>You will give your answer by clicking a button on a rating scale.</p><p>To do this task, you will have to use your imagination to visualise these events.</p><br><p>Ready?</p>",0,Continue,Continue,html-button-response,2,31689,0.0-2.0,anomymised,65658334de4976d2bd35dbcf,65678a3d9b3b22c39c0b7e13,89216,2,woman,NA,NA,NA,NA,NA,NA,NA,NA,NA
27522.79999999702,"<p>Before the experiment starts, you will watch an example trial. Press 'Continue'.</p>",0,Continue,Continue,html-button-response,3,60221,0.0-3.0,anomymised,65658334de4976d2bd35dbcf,65678a3d9b3b22c39c0b7e13,89216,2,woman,NA,NA,NA,NA,NA,NA,NA,NA,NA
null,The police officer is arresting the robber,NA,NA,NA,html-keyboard-response,4,63244,0.0-4.0,anomymised,65658334de4976d2bd35dbcf,65678a3d9b3b22c39c0b7e13,89216,2,woman,NA,null,NA,NA,NA,NA,NA,NA,NA
19863,<img src='img/Example-trial.jpg' style='height:550px;''></img>,0,Continue,Continue,html-button-response,5,83111,0.0-5.0,anomymised,65658334de4976d2bd35dbcf,65678a3d9b3b22c39c0b7e13,89216,2,woman,NA,NA,NA,NA,NA,NA,NA,NA,NA
3626,<p>Ready to start the experiment?</p><br><p><strong>Remember to give an answer by clicking a button on the rating scale.</strong></p><p>Press 'Continue' to begin.</p>,0,Continue,Continue,html-button-response,6,87747,0.0-6.0,anomymised,65658334de4976d2bd35dbcf,65678a3d9b3b22c39c0b7e13,89216,2,woman,NA,NA,NA,NA,NA,NA,NA,NA,NA
null,Ruth is being shouted at by Dave,NA,NA,NA,html-keyboard-response,7,90759,0.0-7.0-0.0,anomymised,65658334de4976d2bd35dbcf,65678a3d9b3b22c39c0b7e13,89216,2,woman,NA,null,W4 is being shouted at by M2,shout3,sentence,NA,NA,NA,NA
18083.5,NA,NA,NA,NA,survey-likert-extra-labels,8,108845,0.0-7.0-2.0,anomymised,65658334de4976d2bd35dbcf,65678a3d9b3b22c39c0b7e13,89216,2,woman,NA,NA,W4 is being shouted at by M2,shout3,rating_volition,"{""Q0"":5}",[0],W4 wanted to shout at M2,M2 wanted to shout at W4
11389.5,NA,NA,NA,NA,survey-likert-extra-labels,9,120237,0.0-7.0-3.0-0.0,anomymised,65658334de4976d2bd35dbcf,65678a3d9b3b22c39c0b7e13,89216,2,woman,NA,NA,W4 is being shouted at by M2,shout3,rating_causation,"{""Q0"":4}",[0],W4 shouted at M2 first,M2 shouted at W4 first
null,Mike is being touched by Dave,NA,NA,NA,html-keyboard-response,10,122250,0.0-8.0-0.0,anomymised,65658334de4976d2bd35dbcf,65678a3d9b3b22c39c0b7e13,89216,2,woman,NA,null,M4 is being touched by M2,touch2,sentence,NA,NA,NA,NA
14455.29999999702,NA,NA,NA,NA,survey-likert-extra-labels,11,136700,0.0-8.0-1.0-0.0,anomymised,65658334de4976d2bd35dbcf,65678a3d9b3b22c39c0b7e13,89216,2,woman,NA,NA,M4 is being touched by M2,touch2,rating_causation,"{""Q0"":3}",[0],M4 asked to touch M2,M2 asked to touch M4
9590.10000000894,NA,NA,NA,NA,survey-likert-extra-labels,12,146292,0.0-8.0-2.0,anomymised,65658334de4976d2bd35dbcf,65678a3d9b3b22c39c0b7e13,89216,2,woman,NA,NA,M4 is being touched by M2,touch2,rating_volition,"{""Q0"":5}",[0],M4 wanted to touch M2,M2 wanted to touch M4
null,Dave is being looked at by Ruth,NA,NA,NA,html-keyboard-response,13,148305,0.0-9.0-0.0,anomymised,65658334de4976d2bd35dbcf,65678a3d9b3b22c39c0b7e13,89216,2,woman,NA,null,M2 is being looked at by W4,look4,sentence,NA,NA,NA,NA
16870.5,NA,NA,NA,NA,survey-likert-extra-labels,14,165177,0.0-9.0-2.0,anomymised,65658334de4976d2bd35dbcf,65678a3d9b3b22c39c0b7e13,89216,2,woman,NA,NA,M2 is being looked at by W4,look4,rating_volition,"{""Q0"":2}",[0],W4 wanted to look at M2,M2 wanted to look at W4
8194.39999999106,NA,NA,NA,NA,survey-likert-extra-labels,15,173374,0.0-9.0-3.0-0.0,anomymised,65658334de4976d2bd35dbcf,65678a3d9b3b22c39c0b7e13,89216,2,woman,NA,NA,M2 is being looked at by W4,look4,rating_causation,"{""Q0"":3}",[0],W4 looked at M2 first,M2 looked at W4 first
null,Mike is being opposed by Kate,NA,NA,NA,html-keyboard-response,16,175385,0.0-10.0-0.0,anomymised,65658334de4976d2bd35dbcf,65678a3d9b3b22c39c0b7e13,89216,2,woman,NA,null,M4 is being opposed by W2,oppose3,sentence,NA,NA,NA,NA
9705.20000000298,NA,NA,NA,NA,survey-likert-extra-labels,17,185092,0.0-10.0-2.0,anomymised,65658334de4976d2bd35dbcf,65678a3d9b3b22c39c0b7e13,89216,2,woman,NA,NA,M4 is being opposed by W2,oppose3,rating_volition,"{""Q0"":4}",[0],M4 wanted to oppose W2,W2 wanted to oppose M4
10284.5,NA,NA,NA,NA,survey-likert-extra-labels,18,195384,0.0-10.0-3.0-0.0,anomymised,65658334de4976d2bd35dbcf,65678a3d9b3b22c39c0b7e13,89216,2,woman,NA,NA,M4 is being opposed by W2,oppose3,rating_causation,"{""Q0"":6}",[0],M4 started opposing W2,W2 started opposing M4
null,Dave is being copied by Mike,NA,NA,NA,html-keyboard-response,19,197393,0.0-11.0-0.0,anomymised,65658334de4976d2bd35dbcf,65678a3d9b3b22c39c0b7e13,89216,2,woman,NA,null,M2 is being copied by M4,copy2,sentence,NA,NA,NA,NA
8810.90000000596,NA,NA,NA,NA,survey-likert-extra-labels,20,206205,0.0-11.0-1.0-0.0,anomymised,65658334de4976d2bd35dbcf,65678a3d9b3b22c39c0b7e13,89216,2,woman,NA,NA,M2 is being copied by M4,copy2,rating_causation,"{""Q0"":2}",[0],M4 started copying M2 first,M2 started copying M4 first
8700.09999999404,NA,NA,NA,NA,survey-likert-extra-labels,21,214907,0.0-11.0-2.0,anomymised,65658334de4976d2bd35dbcf,65678a3d9b3b22c39c0b7e13,89216,2,woman,NA,NA,M2 is being copied by M4,copy2,rating_volition,"{""Q0"":1}",[0],M4 wanted to copy M2,M2 wanted to copy M4
null,Fred is being touched by Jane,NA,NA,NA,html-keyboard-response,22,216914,0.0-12.0-0.0,anomymised,65658334de4976d2bd35dbcf,65678a3d9b3b22c39c0b7e13,89216,2,woman,NA,null,M1 is being touched by W3,touch3,sentence,NA,NA,NA,NA
8221.300000011921,NA,NA,NA,NA,survey-likert-extra-labels,23,225136,0.0-12.0-2.0,anomymised,65658334de4976d2bd35dbcf,65678a3d9b3b22c39c0b7e13,89216,2,woman,NA,NA,M1 is being touched by W3,touch3,rating_volition,"{""Q0"":4}",[0],M1 wanted to touch W3,W3 wanted to touch M1
5402.699999988079,NA,NA,NA,NA,survey-likert-extra-labels,24,230542,0.0-12.0-3.0-0.0,anomymised,65658334de4976d2bd35dbcf,65678a3d9b3b22c39c0b7e13,89216,2,woman,NA,NA,M1 is being touched by W3,touch3,rating_causation,"{""Q0"":4}",[0],M1 asked to touch W3,W3 asked to touch M1
null,Jane is being opposed by Beth,NA,NA,NA,html-keyboard-response,25,232547,0.0-13.0-0.0,anomymised,65658334de4976d2bd35dbcf,65678a3d9b3b22c39c0b7e13,89216,2,woman,NA,null,W3 is being opposed by W1,oppose1,sentence,NA,NA,NA,NA
6545.9000000059605,NA,NA,NA,NA,survey-likert-extra-labels,26,239094,0.0-13.0-1.0-0.0,anomymised,65658334de4976d2bd35dbcf,65678a3d9b3b22c39c0b7e13,89216,2,woman,NA,NA,W3 is being opposed by W1,oppose1,rating_causation,"{""Q0"":6}",[0],W3 started opposing W1,W1 started opposing W3
4116.5,NA,NA,NA,NA,survey-likert-extra-labels,27,243213,0.0-13.0-2.0,anomymised,65658334de4976d2bd35dbcf,65678a3d9b3b22c39c0b7e13,89216,2,woman,NA,NA,W3 is being opposed by W1,oppose1,rating_volition,"{""Q0"":4}",[0],W3 wanted to oppose W1,W1 wanted to oppose W3
null,Beth is being seduced by Luke,NA,NA,NA,html-keyboard-response,28,245221,0.0-14.0-0.0,anomymised,65658334de4976d2bd35dbcf,65678a3d9b3b22c39c0b7e13,89216,2,woman,NA,null,W1 is being seduced by M3,seduce4,sentence,NA,NA,NA,NA
11090.5,NA,NA,NA,NA,survey-likert-extra-labels,29,256312,0.0-14.0-2.0,anomymised,65658334de4976d2bd35dbcf,65678a3d9b3b22c39c0b7e13,89216,2,woman,NA,NA,W1 is being seduced by M3,seduce4,rating_volition,"{""Q0"":5}",[0],W1 wanted to seducing M3,M3 wanted to seducing W1
5756.4000000059605,NA,NA,NA,NA,survey-likert-extra-labels,30,262070,0.0-14.0-3.0-0.0,anomymised,65658334de4976d2bd35dbcf,65678a3d9b3b22c39c0b7e13,89216,2,woman,NA,NA,W1 is being seduced by M3,seduce4,rating_causation,"{""Q0"":3}",[0],W1 started seducing M3 first,M3 started seducing W1 first
null,Mike is being hugged by Kate,NA,NA,NA,html-keyboard-response,31,264078,0.0-15.0-0.0,anomymised,65658334de4976d2bd35dbcf,65678a3d9b3b22c39c0b7e13,89216,2,woman,NA,null,M4 is being hugged by W2,hug3,sentence,NA,NA,NA,NA
4993.5,NA,NA,NA,NA,survey-likert-extra-labels,32,269073,0.0-15.0-1.0-0.0,anomymised,65658334de4976d2bd35dbcf,65678a3d9b3b22c39c0b7e13,89216,2,woman,NA,NA,M4 is being hugged by W2,hug3,rating_causation,"{""Q0"":3}",[0],M4 asked to hug W2,W2 asked to hug M4
6151.199999988079,NA,NA,NA,NA,survey-likert-extra-labels,33,275227,0.0-15.0-2.0,anomymised,65658334de4976d2bd35dbcf,65678a3d9b3b22c39c0b7e13,89216,2,woman,NA,NA,M4 is being hugged by W2,hug3,rating_volition,"{""Q0"":5}",[0],M4 wanted to hug W2,W2 wanted to hug M4
null,Beth is being challenged by Luke,NA,NA,NA,html-keyboard-response,34,277238,0.0-16.0-0.0,anomymised,65658334de4976d2bd35dbcf,65678a3d9b3b22c39c0b7e13,89216,2,woman,NA,null,W1 is being challenged by M3,challenge3,sentence,NA,NA,NA,NA
4552.300000011921,NA,NA,NA,NA,survey-likert-extra-labels,35,281792,0.0-16.0-1.0-0.0,anomymised,65658334de4976d2bd35dbcf,65678a3d9b3b22c39c0b7e13,89216,2,woman,NA,NA,W1 is being challenged by M3,challenge3,rating_causation,"{""Q0"":3}",[0],W1 started challenging M3 first,M3 started challenging W1 first
10952.29999999702,NA,NA,NA,NA,survey-likert-extra-labels,36,292746,0.0-16.0-2.0,anomymised,65658334de4976d2bd35dbcf,65678a3d9b3b22c39c0b7e13,89216,2,woman,NA,NA,W1 is being challenged by M3,challenge3,rating_volition,"{""Q0"":6}",[0],W1 wanted to challenge M3,M3 wanted to challenge W1
null,Kate is teaching Mike,NA,NA,NA,html-keyboard-response,37,294752,0.0-17.0-0.0,anomymised,65658334de4976d2bd35dbcf,65678a3d9b3b22c39c0b7e13,89216,2,woman,NA,null,W2 is teaching M4,teach,sentence,NA,NA,NA,NA
7370.5,NA,NA,NA,NA,survey-likert-extra-labels,38,302124,0.0-17.0-2.0,anomymised,65658334de4976d2bd35dbcf,65678a3d9b3b22c39c0b7e13,89216,2,woman,NA,NA,W2 is teaching M4,teach,rating_volition,"{""Q0"":0}",[0],W2 is educating M4,M4 is educating W2
12670.70000000298,NA,NA,NA,NA,survey-likert-extra-labels,39,314800,0.0-17.0-3.0-0.0,anomymised,65658334de4976d2bd35dbcf,65678a3d9b3b22c39c0b7e13,89216,2,woman,NA,NA,W2 is teaching M4,teach,rating_causation,"{""Q0"":6}",[0],W2 is learning from M4,M4 is learning from W2
null,Kate is being looked at by Mike,NA,NA,NA,html-keyboard-response,40,316809,0.0-18.0-0.0,anomymised,65658334de4976d2bd35dbcf,65678a3d9b3b22c39c0b7e13,89216,2,woman,NA,null,W2 is being looked at by M4,look3,sentence,NA,NA,NA,NA
4307,NA,NA,NA,NA,survey-likert-extra-labels,41,321117,0.0-18.0-2.0,anomymised,65658334de4976d2bd35dbcf,65678a3d9b3b22c39c0b7e13,89216,2,woman,NA,NA,W2 is being looked at by M4,look3,rating_volition,"{""Q0"":2}",[0],M4 wanted to look at W2,W2 wanted to look at M4
3533.2000000029802,NA,NA,NA,NA,survey-likert-extra-labels,42,324653,0.0-18.0-3.0-0.0,anomymised,65658334de4976d2bd35dbcf,65678a3d9b3b22c39c0b7e13,89216,2,woman,NA,NA,W2 is being looked at by M4,look3,rating_causation,"{""Q0"":3}",[0],M4 looked at W2 first,W2 looked at M4 first
null,Fred is being challenged by Jane,NA,NA,NA,html-keyboard-response,43,326665,0.0-19.0-0.0,anomymised,65658334de4976d2bd35dbcf,65678a3d9b3b22c39c0b7e13,89216,2,woman,NA,null,M1 is being challenged by W3,challenge4,sentence,NA,NA,NA,NA
28012.70000000298,NA,NA,NA,NA,survey-likert-extra-labels,44,354679,0.0-19.0-2.0,anomymised,65658334de4976d2bd35dbcf,65678a3d9b3b22c39c0b7e13,89216,2,woman,NA,NA,M1 is being challenged by W3,challenge4,rating_volition,"{""Q0"":6}",[0],M1 wanted to challenge W3,W3 wanted to challenge M1
2948.6000000089407,NA,NA,NA,NA,survey-likert-extra-labels,45,357629,0.0-19.0-3.0-0.0,anomymised,65658334de4976d2bd35dbcf,65678a3d9b3b22c39c0b7e13,89216,2,woman,NA,NA,M1 is being challenged by W3,challenge4,rating_causation,"{""Q0"":3}",[0],M1 started challenging W3 first,W3 started challenging M1 first
null,Beth is chasing Jane,NA,NA,NA,html-keyboard-response,46,359640,0.0-20.0-0.0,anomymised,65658334de4976d2bd35dbcf,65678a3d9b3b22c39c0b7e13,89216,2,woman,NA,null,W1 is chasing W3,chase,sentence,NA,NA,NA,NA
9249.89999999106,NA,NA,NA,NA,survey-likert-extra-labels,47,368891,0.0-20.0-1.0-0.0,anomymised,65658334de4976d2bd35dbcf,65678a3d9b3b22c39c0b7e13,89216,2,woman,NA,NA,W1 is chasing W3,chase,rating_causation,"{""Q0"":6}",[0],W1 is running away from W3,W3 is running away from W1
6812.600000008941,NA,NA,NA,NA,survey-likert-extra-labels,48,375705,0.0-20.0-2.0,anomymised,65658334de4976d2bd35dbcf,65678a3d9b3b22c39c0b7e13,89216,2,woman,NA,NA,W1 is chasing W3,chase,rating_volition,"{""Q0"":0}",[0],W1 is behind W3,W3 is behind W1
null,Kate is being kissed by Mike,NA,NA,NA,html-keyboard-response,49,377712,0.0-21.0-0.0,anomymised,65658334de4976d2bd35dbcf,65678a3d9b3b22c39c0b7e13,89216,2,woman,NA,null,W2 is being kissed by M4,kiss4,sentence,NA,NA,NA,NA
12545.79999999702,NA,NA,NA,NA,survey-likert-extra-labels,50,390259,0.0-21.0-1.0-0.0,anomymised,65658334de4976d2bd35dbcf,65678a3d9b3b22c39c0b7e13,89216,2,woman,NA,NA,W2 is being kissed by M4,kiss4,rating_causation,"{""Q0"":2}",[0],M4 asked to kiss W2,W2 asked to kiss M4
6720,NA,NA,NA,NA,survey-likert-extra-labels,51,396981,0.0-21.0-2.0,anomymised,65658334de4976d2bd35dbcf,65678a3d9b3b22c39c0b7e13,89216,2,woman,NA,NA,W2 is being kissed by M4,kiss4,rating_volition,"{""Q0"":3}",[0],M4 wanted to kiss W2,W2 wanted to kiss M4
null,Luke is being hugged by Fred,NA,NA,NA,html-keyboard-response,52,398999,0.0-22.0-0.0,anomymised,65658334de4976d2bd35dbcf,65678a3d9b3b22c39c0b7e13,89216,2,woman,NA,null,M3 is being hugged by M1,hug2,sentence,NA,NA,NA,NA
5433.899999991059,NA,NA,NA,NA,survey-likert-extra-labels,53,404434,0.0-22.0-1.0-0.0,anomymised,65658334de4976d2bd35dbcf,65678a3d9b3b22c39c0b7e13,89216,2,woman,NA,NA,M3 is being hugged by M1,hug2,rating_causation,"{""Q0"":5}",[0],M3 asked to hug M1,M1 asked to hug M3
7040.100000008941,NA,NA,NA,NA,survey-likert-extra-labels,54,411477,0.0-22.0-2.0,anomymised,65658334de4976d2bd35dbcf,65678a3d9b3b22c39c0b7e13,89216,2,woman,NA,NA,M3 is being hugged by M1,hug2,rating_volition,"{""Q0"":4}",[0],M3 wanted to hug M1,M1 wanted to hug M3
null,Ruth is being seduced by Kate,NA,NA,NA,html-keyboard-response,55,413484,0.0-23.0-0.0,anomymised,65658334de4976d2bd35dbcf,65678a3d9b3b22c39c0b7e13,89216,2,woman,NA,null,W4 is being seduced by W2,seduce1,sentence,NA,NA,NA,NA
6356.20000000298,NA,NA,NA,NA,survey-likert-extra-labels,56,419842,0.0-23.0-1.0-0.0,anomymised,65658334de4976d2bd35dbcf,65678a3d9b3b22c39c0b7e13,89216,2,woman,NA,NA,W4 is being seduced by W2,seduce1,rating_causation,"{""Q0"":3}",[0],W4 started seducing W2 first,W2 started seducing W4 first
6166.20000000298,NA,NA,NA,NA,survey-likert-extra-labels,57,426010,0.0-23.0-2.0,anomymised,65658334de4976d2bd35dbcf,65678a3d9b3b22c39c0b7e13,89216,2,woman,NA,NA,W4 is being seduced by W2,seduce1,rating_volition,"{""Q0"":6}",[0],W4 wanted to seduce W2,W2 wanted to seduce W4
null,Jane is being shouted at by Beth,NA,NA,NA,html-keyboard-response,58,428026,0.0-24.0-0.0,anomymised,65658334de4976d2bd35dbcf,65678a3d9b3b22c39c0b7e13,89216,2,woman,NA,null,W3 is being shouted at by W1,shout1,sentence,NA,NA,NA,NA
6203.29999999702,NA,NA,NA,NA,survey-likert-extra-labels,59,434232,0.0-24.0-2.0,anomymised,65658334de4976d2bd35dbcf,65678a3d9b3b22c39c0b7e13,89216,2,woman,NA,NA,W3 is being shouted at by W1,shout1,rating_volition,"{""Q0"":6}",[0],W3 wanted to shout at W1,W1 wanted to shout at W3
5247.899999991059,NA,NA,NA,NA,survey-likert-extra-labels,60,439482,0.0-24.0-3.0-0.0,anomymised,65658334de4976d2bd35dbcf,65678a3d9b3b22c39c0b7e13,89216,2,woman,NA,NA,W3 is being shouted at by W1,shout1,rating_causation,"{""Q0"":3}",[0],W3 shouted at W1 first,W1 shouted at W3 first
null,Dave is being greeted by Mike,NA,NA,NA,html-keyboard-response,61,441495,0.0-25.0-0.0,anomymised,65658334de4976d2bd35dbcf,65678a3d9b3b22c39c0b7e13,89216,2,woman,NA,null,M2 is being greeted by M4,greet2,sentence,NA,NA,NA,NA
9283.5,NA,NA,NA,NA,survey-likert-extra-labels,62,450780,0.0-25.0-2.0,anomymised,65658334de4976d2bd35dbcf,65678a3d9b3b22c39c0b7e13,89216,2,woman,NA,NA,M2 is being greeted by M4,greet2,rating_volition,"{""Q0"":0}",[0],M4 wanted to greet M2,M2 wanted to greet M4
11079.5,NA,NA,NA,NA,survey-likert-extra-labels,63,461862,0.0-25.0-3.0-0.0,anomymised,65658334de4976d2bd35dbcf,65678a3d9b3b22c39c0b7e13,89216,2,woman,NA,NA,M2 is being greeted by M4,greet2,rating_causation,"{""Q0"":2}",[0],M4 started greeting M2 first,M2 started greeting M4 first
null,Fred is driving Luke,NA,NA,NA,html-keyboard-response,64,463874,0.0-26.0-0.0,anomymised,65658334de4976d2bd35dbcf,65678a3d9b3b22c39c0b7e13,89216,2,woman,NA,null,M1 is driving M3,drive,sentence,NA,NA,NA,NA
4949.70000000298,NA,NA,NA,NA,survey-likert-extra-labels,65,468825,0.0-26.0-1.0-0.0,anomymised,65658334de4976d2bd35dbcf,65678a3d9b3b22c39c0b7e13,89216,2,woman,NA,NA,M1 is driving M3,drive,rating_causation,"{""Q0"":0}",[0],M1 is taking M3 somewhere,M3 is taking M1 somewhere
4773.5999999940395,NA,NA,NA,NA,survey-likert-extra-labels,66,473601,0.0-26.0-2.0,anomymised,65658334de4976d2bd35dbcf,65678a3d9b3b22c39c0b7e13,89216,2,woman,NA,NA,M1 is driving M3,drive,rating_volition,"{""Q0"":6}",[0],M1 is M3's passenger,M3 is M1's passenger
null,Dave is posing for Mike,NA,NA,NA,html-keyboard-response,67,475611,0.0-27.0-0.0,anomymised,65658334de4976d2bd35dbcf,65678a3d9b3b22c39c0b7e13,89216,2,woman,NA,null,M2 is posing for M4,pose,sentence,NA,NA,NA,NA
7095.600000008941,NA,NA,NA,NA,survey-likert-extra-labels,68,482708,0.0-27.0-2.0,anomymised,65658334de4976d2bd35dbcf,65678a3d9b3b22c39c0b7e13,89216,2,woman,NA,NA,M2 is posing for M4,pose,rating_volition,"{""Q0"":0}",[0],M2 is modelling for M4,M4 is modelling for M2
6396.70000000298,NA,NA,NA,NA,survey-likert-extra-labels,69,489107,0.0-27.0-3.0-0.0,anomymised,65658334de4976d2bd35dbcf,65678a3d9b3b22c39c0b7e13,89216,2,woman,NA,NA,M2 is posing for M4,pose,rating_causation,"{""Q0"":6}",[0],M2 is photographing M4,M4 is photographing M2
null,Luke is being opposed by Fred,NA,NA,NA,html-keyboard-response,70,491118,0.0-28.0-0.0,anomymised,65658334de4976d2bd35dbcf,65678a3d9b3b22c39c0b7e13,89216,2,woman,NA,null,M3 is being opposed by M1,oppose2,sentence,NA,NA,NA,NA
3634.2999999970198,NA,NA,NA,NA,survey-likert-extra-labels,71,494754,0.0-28.0-1.0-0.0,anomymised,65658334de4976d2bd35dbcf,65678a3d9b3b22c39c0b7e13,89216,2,woman,NA,NA,M3 is being opposed by M1,oppose2,rating_causation,"{""Q0"":6}",[0],M3 started opposing M1,M1 started opposing M3
5640.5999999940395,NA,NA,NA,NA,survey-likert-extra-labels,72,500397,0.0-28.0-2.0,anomymised,65658334de4976d2bd35dbcf,65678a3d9b3b22c39c0b7e13,89216,2,woman,NA,NA,M3 is being opposed by M1,oppose2,rating_volition,"{""Q0"":6}",[0],M3 wanted to oppose M1,M1 wanted to oppose M3
null,Luke is being greeted by Beth,NA,NA,NA,html-keyboard-response,73,502399,0.0-29.0-0.0,anomymised,65658334de4976d2bd35dbcf,65678a3d9b3b22c39c0b7e13,89216,2,woman,NA,null,M3 is being greeted by W1,greet3,sentence,NA,NA,NA,NA
7635.70000000298,NA,NA,NA,NA,survey-likert-extra-labels,74,510036,0.0-29.0-2.0,anomymised,65658334de4976d2bd35dbcf,65678a3d9b3b22c39c0b7e13,89216,2,woman,NA,NA,M3 is being greeted by W1,greet3,rating_volition,"{""Q0"":0}",[0],W1 wanted to greet M3,M3 wanted to greet W1
3087.9000000059605,NA,NA,NA,NA,survey-likert-extra-labels,75,513127,0.0-29.0-3.0-0.0,anomymised,65658334de4976d2bd35dbcf,65678a3d9b3b22c39c0b7e13,89216,2,woman,NA,NA,M3 is being greeted by W1,greet3,rating_causation,"{""Q0"":3}",[0],W1 started greeting M3 first,M3 started greeting W1 first
null,Jane is being greeted by Fred,NA,NA,NA,html-keyboard-response,76,515142,0.0-30.0-0.0,anomymised,65658334de4976d2bd35dbcf,65678a3d9b3b22c39c0b7e13,89216,2,woman,NA,null,W3 is being greeted by M1,greet4,sentence,NA,NA,NA,NA
5788.100000008941,NA,NA,NA,NA,survey-likert-extra-labels,77,520931,0.0-30.0-2.0,anomymised,65658334de4976d2bd35dbcf,65678a3d9b3b22c39c0b7e13,89216,2,woman,NA,NA,W3 is being greeted by M1,greet4,rating_volition,"{""Q0"":0}",[0],M1 wanted to greet W3,W3 wanted to greet M1
10236,NA,NA,NA,NA,survey-likert-extra-labels,78,531169,0.0-30.0-3.0-0.0,anomymised,65658334de4976d2bd35dbcf,65678a3d9b3b22c39c0b7e13,89216,2,woman,NA,NA,W3 is being greeted by M1,greet4,rating_causation,"{""Q0"":3}",[0],M1 started greeting W3 first,W3 started greeting M1 first
null,Luke is hiring Beth,NA,NA,NA,html-keyboard-response,79,533177,0.0-31.0-0.0,anomymised,65658334de4976d2bd35dbcf,65678a3d9b3b22c39c0b7e13,89216,2,woman,NA,null,M3 is hiring W1,hire,sentence,NA,NA,NA,NA
4555.100000008941,NA,NA,NA,NA,survey-likert-extra-labels,80,537734,0.0-31.0-2.0,anomymised,65658334de4976d2bd35dbcf,65678a3d9b3b22c39c0b7e13,89216,2,woman,NA,NA,M3 is hiring W1,hire,rating_volition,"{""Q0"":0}",[0],M3 is employing W1,W1 is employing M3
5300.20000000298,NA,NA,NA,NA,survey-likert-extra-labels,81,543036,0.0-31.0-3.0-0.0,anomymised,65658334de4976d2bd35dbcf,65678a3d9b3b22c39c0b7e13,89216,2,woman,NA,NA,M3 is hiring W1,hire,rating_causation,"{""Q0"":6}",[0],M3 will work for W1,W1 will work for M3
null,Jane is being copied by Fred,NA,NA,NA,html-keyboard-response,82,545053,0.0-32.0-0.0,anomymised,65658334de4976d2bd35dbcf,65678a3d9b3b22c39c0b7e13,89216,2,woman,NA,null,W3 is being copied by M1,copy3,sentence,NA,NA,NA,NA
5848.70000000298,NA,NA,NA,NA,survey-likert-extra-labels,83,550904,0.0-32.0-2.0,anomymised,65658334de4976d2bd35dbcf,65678a3d9b3b22c39c0b7e13,89216,2,woman,NA,NA,W3 is being copied by M1,copy3,rating_volition,"{""Q0"":0}",[0],M1 wanted to copy W3,W3 wanted to copy M1
5330.399999991059,NA,NA,NA,NA,survey-likert-extra-labels,84,556235,0.0-32.0-3.0-0.0,anomymised,65658334de4976d2bd35dbcf,65678a3d9b3b22c39c0b7e13,89216,2,woman,NA,NA,W3 is being copied by M1,copy3,rating_causation,"{""Q0"":3}",[0],M1 started copying W3 first,W3 started copying M1 first
null,Fred is being looked at by Luke,NA,NA,NA,html-keyboard-response,85,558244,0.0-33.0-0.0,anomymised,65658334de4976d2bd35dbcf,65678a3d9b3b22c39c0b7e13,89216,2,woman,NA,null,M1 is being looked at by M3,look2,sentence,NA,NA,NA,NA
6573,NA,NA,NA,NA,survey-likert-extra-labels,86,564818,0.0-33.0-1.0-0.0,anomymised,65658334de4976d2bd35dbcf,65678a3d9b3b22c39c0b7e13,89216,2,woman,NA,NA,M1 is being looked at by M3,look2,rating_causation,"{""Q0"":3}",[0],M3 looked at M1 first,M1 looked at M3 first
5517.600000008941,NA,NA,NA,NA,survey-likert-extra-labels,87,570338,0.0-33.0-2.0,anomymised,65658334de4976d2bd35dbcf,65678a3d9b3b22c39c0b7e13,89216,2,woman,NA,NA,M1 is being looked at by M3,look2,rating_volition,"{""Q0"":0}",[0],M3 wanted to look at M1,M1 wanted to look at M3
null,Ruth is being touched by Kate,NA,NA,NA,html-keyboard-response,88,572347,0.0-34.0-0.0,anomymised,65658334de4976d2bd35dbcf,65678a3d9b3b22c39c0b7e13,89216,2,woman,NA,null,W4 is being touched by W2,touch1,sentence,NA,NA,NA,NA
5626.29999999702,NA,NA,NA,NA,survey-likert-extra-labels,89,577975,0.0-34.0-2.0,anomymised,65658334de4976d2bd35dbcf,65678a3d9b3b22c39c0b7e13,89216,2,woman,NA,NA,W4 is being touched by W2,touch1,rating_volition,"{""Q0"":5}",[0],W4 wanted to touch W2,W2 wanted to touch W4
4366.5,NA,NA,NA,NA,survey-likert-extra-labels,90,582344,0.0-34.0-3.0-0.0,anomymised,65658334de4976d2bd35dbcf,65678a3d9b3b22c39c0b7e13,89216,2,woman,NA,NA,W4 is being touched by W2,touch1,rating_causation,"{""Q0"":3}",[0],W4 asked to touch W2,W2 asked to touch W4
null,Beth is being kissed by Jane,NA,NA,NA,html-keyboard-response,91,584347,0.0-35.0-0.0,anomymised,65658334de4976d2bd35dbcf,65678a3d9b3b22c39c0b7e13,89216,2,woman,NA,null,W1 is being kissed by W3,kiss1,sentence,NA,NA,NA,NA
6491.20000000298,NA,NA,NA,NA,survey-likert-extra-labels,92,590840,0.0-35.0-2.0,anomymised,65658334de4976d2bd35dbcf,65678a3d9b3b22c39c0b7e13,89216,2,woman,NA,NA,W1 is being kissed by W3,kiss1,rating_volition,"{""Q0"":0}",[0],W3 wanted to kiss W1,W1 wanted to kiss W3
8501,NA,NA,NA,NA,survey-likert-extra-labels,93,599343,0.0-35.0-3.0-0.0,anomymised,65658334de4976d2bd35dbcf,65678a3d9b3b22c39c0b7e13,89216,2,woman,NA,NA,W1 is being kissed by W3,kiss1,rating_causation,"{""Q0"":3}",[0],W3 asked to kiss W1,W1 asked to kiss W3
null,Ruth is being challenged by Kate,NA,NA,NA,html-keyboard-response,94,601355,0.0-36.0-0.0,anomymised,65658334de4976d2bd35dbcf,65678a3d9b3b22c39c0b7e13,89216,2,woman,NA,null,W4 is being challenged by W2,challenge1,sentence,NA,NA,NA,NA
6199.300000011921,NA,NA,NA,NA,survey-likert-extra-labels,95,607555,0.0-36.0-2.0,anomymised,65658334de4976d2bd35dbcf,65678a3d9b3b22c39c0b7e13,89216,2,woman,NA,NA,W4 is being challenged by W2,challenge1,rating_volition,"{""Q0"":6}",[0],W4 wanted to challenge W2,W2 wanted to challenge W4
3891.7000000029802,NA,NA,NA,NA,survey-likert-extra-labels,96,611449,0.0-36.0-3.0-0.0,anomymised,65658334de4976d2bd35dbcf,65678a3d9b3b22c39c0b7e13,89216,2,woman,NA,NA,W4 is being challenged by W2,challenge1,rating_causation,"{""Q0"":3}",[0],W4 started challenging W2 first,W2 started challenging W4 first
null,Kate is being copied by Ruth,NA,NA,NA,html-keyboard-response,97,613459,0.0-37.0-0.0,anomymised,65658334de4976d2bd35dbcf,65678a3d9b3b22c39c0b7e13,89216,2,woman,NA,null,W2 is being copied by W4,copy1,sentence,NA,NA,NA,NA
6403.0999999940395,NA,NA,NA,NA,survey-likert-extra-labels,98,619863,0.0-37.0-2.0,anomymised,65658334de4976d2bd35dbcf,65678a3d9b3b22c39c0b7e13,89216,2,woman,NA,NA,W2 is being copied by W4,copy1,rating_volition,"{""Q0"":0}",[0],W4 wanted to copy W2,W2 wanted to copy W4
5017.4000000059605,NA,NA,NA,NA,survey-likert-extra-labels,99,624882,0.0-37.0-3.0-0.0,anomymised,65658334de4976d2bd35dbcf,65678a3d9b3b22c39c0b7e13,89216,2,woman,NA,NA,W2 is being copied by W4,copy1,rating_causation,"{""Q0"":3}",[0],W4 started copying W2 first,W2 started copying W4 first
null,Mike is being seduced by Dave,NA,NA,NA,html-keyboard-response,100,626888,0.0-38.0-0.0,anomymised,65658334de4976d2bd35dbcf,65678a3d9b3b22c39c0b7e13,89216,2,woman,NA,null,M4 is being seduced by M2,seduce2,sentence,NA,NA,NA,NA
5004.20000000298,NA,NA,NA,NA,survey-likert-extra-labels,101,631893,0.0-38.0-1.0-0.0,anomymised,65658334de4976d2bd35dbcf,65678a3d9b3b22c39c0b7e13,89216,2,woman,NA,NA,M4 is being seduced by M2,seduce2,rating_causation,"{""Q0"":3}",[0],M4 started seducing M2 first,M2 started seducing M4 first
3405.8999999910593,NA,NA,NA,NA,survey-likert-extra-labels,102,635301,0.0-38.0-2.0,anomymised,65658334de4976d2bd35dbcf,65678a3d9b3b22c39c0b7e13,89216,2,woman,NA,NA,M4 is being seduced by M2,seduce2,rating_volition,"{""Q0"":6}",[0],M4 wanted to seduce M2,M2 wanted to seduce M4
null,Fred is being seduced by Jane,NA,NA,NA,html-keyboard-response,103,637319,0.0-39.0-0.0,anomymised,65658334de4976d2bd35dbcf,65678a3d9b3b22c39c0b7e13,89216,2,woman,NA,null,M1 is being seduced by W3,seduce3,sentence,NA,NA,NA,NA
4944.899999991059,NA,NA,NA,NA,survey-likert-extra-labels,104,642265,0.0-39.0-2.0,anomymised,65658334de4976d2bd35dbcf,65678a3d9b3b22c39c0b7e13,89216,2,woman,NA,NA,M1 is being seduced by W3,seduce3,rating_volition,"{""Q0"":6}",[0],M1 wanted to seduce W3,W3 wanted to seduce M1
2205.7999999970198,NA,NA,NA,NA,survey-likert-extra-labels,105,644473,0.0-39.0-3.0-0.0,anomymised,65658334de4976d2bd35dbcf,65678a3d9b3b22c39c0b7e13,89216,2,woman,NA,NA,M1 is being seduced by W3,seduce3,rating_causation,"{""Q0"":3}",[0],M1 started seducing W3 first,W3 started seducing M1 first
null,Ruth is being opposed by Dave,NA,NA,NA,html-keyboard-response,106,646479,0.0-40.0-0.0,anomymised,65658334de4976d2bd35dbcf,65678a3d9b3b22c39c0b7e13,89216,2,woman,NA,null,W4 is being opposed by M2,oppose4,sentence,NA,NA,NA,NA
5787.9000000059605,NA,NA,NA,NA,survey-likert-extra-labels,107,652268,0.0-40.0-1.0-0.0,anomymised,65658334de4976d2bd35dbcf,65678a3d9b3b22c39c0b7e13,89216,2,woman,NA,NA,W4 is being opposed by M2,oppose4,rating_causation,"{""Q0"":6}",[0],W4 started opposing M2,M2 started opposing W4
6194.0999999940395,NA,NA,NA,NA,survey-likert-extra-labels,108,658464,0.0-40.0-2.0,anomymised,65658334de4976d2bd35dbcf,65678a3d9b3b22c39c0b7e13,89216,2,woman,NA,NA,W4 is being opposed by M2,oppose4,rating_volition,"{""Q0"":6}",[0],W4 wanted to oppose M2,M2 wanted to oppose W4
null,Luke is being shouted at by Fred,NA,NA,NA,html-keyboard-response,109,660478,0.0-41.0-0.0,anomymised,65658334de4976d2bd35dbcf,65678a3d9b3b22c39c0b7e13,89216,2,woman,NA,null,M3 is being shouted at by M1,shout2,sentence,NA,NA,NA,NA
3786.2999999970198,NA,NA,NA,NA,survey-likert-extra-labels,110,664266,0.0-41.0-2.0,anomymised,65658334de4976d2bd35dbcf,65678a3d9b3b22c39c0b7e13,89216,2,woman,NA,NA,M3 is being shouted at by M1,shout2,rating_volition,"{""Q0"":6}",[0],M3 wanted to shout at M1,M1 wanted to shout at M3
3059.5999999940395,NA,NA,NA,NA,survey-likert-extra-labels,111,667327,0.0-41.0-3.0-0.0,anomymised,65658334de4976d2bd35dbcf,65678a3d9b3b22c39c0b7e13,89216,2,woman,NA,NA,M3 is being shouted at by M1,shout2,rating_causation,"{""Q0"":3}",[0],M3 shouted at M1 first,M1 shouted at M3 first
null,Dave is being kissed by Ruth,NA,NA,NA,html-keyboard-response,112,669340,0.0-42.0-0.0,anomymised,65658334de4976d2bd35dbcf,65678a3d9b3b22c39c0b7e13,89216,2,woman,NA,null,M2 is being kissed by W4,kiss3,sentence,NA,NA,NA,NA
5319,NA,NA,NA,NA,survey-likert-extra-labels,113,674661,0.0-42.0-2.0,anomymised,65658334de4976d2bd35dbcf,65678a3d9b3b22c39c0b7e13,89216,2,woman,NA,NA,M2 is being kissed by W4,kiss3,rating_volition,"{""Q0"":0}",[0],W4 wanted to kiss M2,M2 wanted to kiss W4
4054.5999999940395,NA,NA,NA,NA,survey-likert-extra-labels,114,678719,0.0-42.0-3.0-0.0,anomymised,65658334de4976d2bd35dbcf,65678a3d9b3b22c39c0b7e13,89216,2,woman,NA,NA,M2 is being kissed by W4,kiss3,rating_causation,"{""Q0"":3}",[0],W4 asked to kiss M2,M2 asked to kiss W4
null,Beth is being touched by Luke,NA,NA,NA,html-keyboard-response,115,680735,0.0-43.0-0.0,anomymised,65658334de4976d2bd35dbcf,65678a3d9b3b22c39c0b7e13,89216,2,woman,NA,null,W1 is being touched by M3,touch4,sentence,NA,NA,NA,NA
3565.5,NA,NA,NA,NA,survey-likert-extra-labels,116,684302,0.0-43.0-2.0,anomymised,65658334de4976d2bd35dbcf,65678a3d9b3b22c39c0b7e13,89216,2,woman,NA,NA,W1 is being touched by M3,touch4,rating_volition,"{""Q0"":6}",[0],W1 wanted to touch M3,M3 wanted to touch W1
2356.4000000059605,NA,NA,NA,NA,survey-likert-extra-labels,117,686661,0.0-43.0-3.0-0.0,anomymised,65658334de4976d2bd35dbcf,65678a3d9b3b22c39c0b7e13,89216,2,woman,NA,NA,W1 is being touched by M3,touch4,rating_causation,"{""Q0"":3}",[0],W1 asked to touch M3,M3 asked to touch W1
null,Mike is being challenged by Dave,NA,NA,NA,html-keyboard-response,118,688667,0.0-44.0-0.0,anomymised,65658334de4976d2bd35dbcf,65678a3d9b3b22c39c0b7e13,89216,2,woman,NA,null,M4 is being challenged by M2,challenge2,sentence,NA,NA,NA,NA
4073.800000011921,NA,NA,NA,NA,survey-likert-extra-labels,119,692743,0.0-44.0-1.0-0.0,anomymised,65658334de4976d2bd35dbcf,65678a3d9b3b22c39c0b7e13,89216,2,woman,NA,NA,M4 is being challenged by M2,challenge2,rating_causation,"{""Q0"":3}",[0],M4 started challenging M2 first,M2 started challenging M4 first
3331.5,NA,NA,NA,NA,survey-likert-extra-labels,120,696076,0.0-44.0-2.0,anomymised,65658334de4976d2bd35dbcf,65678a3d9b3b22c39c0b7e13,89216,2,woman,NA,NA,M4 is being challenged by M2,challenge2,rating_volition,"{""Q0"":6}",[0],M4 wanted to challenge M2,M2 wanted to challenge M4
null,Kate is being greeted by Ruth,NA,NA,NA,html-keyboard-response,121,698093,0.0-45.0-0.0,anomymised,65658334de4976d2bd35dbcf,65678a3d9b3b22c39c0b7e13,89216,2,woman,NA,null,W2 is being greeted by W4,greet1,sentence,NA,NA,NA,NA
5118,NA,NA,NA,NA,survey-likert-extra-labels,122,703212,0.0-45.0-2.0,anomymised,65658334de4976d2bd35dbcf,65678a3d9b3b22c39c0b7e13,89216,2,woman,NA,NA,W2 is being greeted by W4,greet1,rating_volition,"{""Q0"":0}",[0],W4 wanted to greet W2,W2 wanted to greet W4
5938.9000000059605,NA,NA,NA,NA,survey-likert-extra-labels,123,709153,0.0-45.0-3.0-0.0,anomymised,65658334de4976d2bd35dbcf,65678a3d9b3b22c39c0b7e13,89216,2,woman,NA,NA,W2 is being greeted by W4,greet1,rating_causation,"{""Q0"":2}",[0],W4 started greeting W2 first,W2 started greeting W4 first
null,Dave is reminding Ruth,NA,NA,NA,html-keyboard-response,124,711170,0.0-46.0-0.0,anomymised,65658334de4976d2bd35dbcf,65678a3d9b3b22c39c0b7e13,89216,2,woman,NA,null,M2 is reminding W4,remind,sentence,NA,NA,NA,NA
7515.20000000298,NA,NA,NA,NA,survey-likert-extra-labels,125,718686,0.0-46.0-2.0,anomymised,65658334de4976d2bd35dbcf,65678a3d9b3b22c39c0b7e13,89216,2,woman,NA,NA,M2 is reminding W4,remind,rating_volition,"{""Q0"":0}",[0],M2 is telling W4 again,W4 is telling M2 again
9176,NA,NA,NA,NA,survey-likert-extra-labels,126,727864,0.0-46.0-3.0-0.0,anomymised,65658334de4976d2bd35dbcf,65678a3d9b3b22c39c0b7e13,89216,2,woman,NA,NA,M2 is reminding W4,remind,rating_causation,"{""Q0"":2}",[0],M2 is remembering,W4 is remembering
null,Luke is being copied by Beth,NA,NA,NA,html-keyboard-response,127,729879,0.0-47.0-0.0,anomymised,65658334de4976d2bd35dbcf,65678a3d9b3b22c39c0b7e13,89216,2,woman,NA,null,M3 is being copied by W1,copy4,sentence,NA,NA,NA,NA
2586.199999988079,NA,NA,NA,NA,survey-likert-extra-labels,128,732466,0.0-47.0-1.0-0.0,anomymised,65658334de4976d2bd35dbcf,65678a3d9b3b22c39c0b7e13,89216,2,woman,NA,NA,M3 is being copied by W1,copy4,rating_causation,"{""Q0"":3}",[0],W1 started copying M3 first,M3 started copying W1 first
3460,NA,NA,NA,NA,survey-likert-extra-labels,129,735928,0.0-47.0-2.0,anomymised,65658334de4976d2bd35dbcf,65678a3d9b3b22c39c0b7e13,89216,2,woman,NA,NA,M3 is being copied by W1,copy4,rating_volition,"{""Q0"":0}",[0],W1 wanted to copy M3,M3 wanted to copy W1
null,Fred is being kissed by Luke,NA,NA,NA,html-keyboard-response,130,737942,0.0-48.0-0.0,anomymised,65658334de4976d2bd35dbcf,65678a3d9b3b22c39c0b7e13,89216,2,woman,NA,null,M1 is being kissed by M3,kiss2,sentence,NA,NA,NA,NA
4221.100000008941,NA,NA,NA,NA,survey-likert-extra-labels,131,742164,0.0-48.0-1.0-0.0,anomymised,65658334de4976d2bd35dbcf,65678a3d9b3b22c39c0b7e13,89216,2,woman,NA,NA,M1 is being kissed by M3,kiss2,rating_causation,"{""Q0"":3}",[0],M3 asked to kiss M1,M1 asked to kiss M3
4623.4000000059605,NA,NA,NA,NA,survey-likert-extra-labels,132,746790,0.0-48.0-2.0,anomymised,65658334de4976d2bd35dbcf,65678a3d9b3b22c39c0b7e13,89216,2,woman,NA,NA,M1 is being kissed by M3,kiss2,rating_volition,"{""Q0"":0}",[0],M3 wanted to kiss M1,M1 wanted to kiss M3
null,Kate is carrying Ruth,NA,NA,NA,html-keyboard-response,133,748801,0.0-49.0-0.0,anomymised,65658334de4976d2bd35dbcf,65678a3d9b3b22c39c0b7e13,89216,2,woman,NA,null,W2 is carrying W4,carry,sentence,NA,NA,NA,NA
9525.89999999106,NA,NA,NA,NA,survey-likert-extra-labels,134,758329,0.0-49.0-1.0-0.0,anomymised,65658334de4976d2bd35dbcf,65678a3d9b3b22c39c0b7e13,89216,2,woman,NA,NA,W2 is carrying W4,carry,rating_causation,"{""Q0"":6}",[0],W2 is being moved by W4,W4 is being moved by W2
6734,NA,NA,NA,NA,survey-likert-extra-labels,135,765065,0.0-49.0-2.0,anomymised,65658334de4976d2bd35dbcf,65678a3d9b3b22c39c0b7e13,89216,2,woman,NA,NA,W2 is carrying W4,carry,rating_volition,"{""Q0"":0}",[0],W2 is transporting W4,W4 is transporting W2
null,Mike is being shouted at by Kate,NA,NA,NA,html-keyboard-response,136,767070,0.0-50.0-0.0,anomymised,65658334de4976d2bd35dbcf,65678a3d9b3b22c39c0b7e13,89216,2,woman,NA,null,M4 is being shouted at by W2,shout4,sentence,NA,NA,NA,NA
3262.2999999970198,NA,NA,NA,NA,survey-likert-extra-labels,137,770334,0.0-50.0-1.0-0.0,anomymised,65658334de4976d2bd35dbcf,65678a3d9b3b22c39c0b7e13,89216,2,woman,NA,NA,M4 is being shouted at by W2,shout4,rating_causation,"{""Q0"":3}",[0],M4 shouted at W2 first,W2 shouted at M4 first
4518.5,NA,NA,NA,NA,survey-likert-extra-labels,138,774855,0.0-50.0-2.0,anomymised,65658334de4976d2bd35dbcf,65678a3d9b3b22c39c0b7e13,89216,2,woman,NA,NA,M4 is being shouted at by W2,shout4,rating_volition,"{""Q0"":6}",[0],M4 wanted to shout at W2,W2 wanted to shout at M4
null,Beth is being looked at by Jane,NA,NA,NA,html-keyboard-response,139,776860,0.0-51.0-0.0,anomymised,65658334de4976d2bd35dbcf,65678a3d9b3b22c39c0b7e13,89216,2,woman,NA,null,W1 is being looked at by W3,look1,sentence,NA,NA,NA,NA
3405.5,NA,NA,NA,NA,survey-likert-extra-labels,140,780267,0.0-51.0-1.0-0.0,anomymised,65658334de4976d2bd35dbcf,65678a3d9b3b22c39c0b7e13,89216,2,woman,NA,NA,W1 is being looked at by W3,look1,rating_causation,"{""Q0"":3}",[0],W3 looked at W1 first,W1 looked at W3 first
5566.4000000059605,NA,NA,NA,NA,survey-likert-extra-labels,141,785835,0.0-51.0-2.0,anomymised,65658334de4976d2bd35dbcf,65678a3d9b3b22c39c0b7e13,89216,2,woman,NA,NA,W1 is being looked at by W3,look1,rating_volition,"{""Q0"":0}",[0],W3 wanted to look at W1,W1 wanted to look at W3
null,Jane is feeding Fred,NA,NA,NA,html-keyboard-response,142,787839,0.0-52.0-0.0,anomymised,65658334de4976d2bd35dbcf,65678a3d9b3b22c39c0b7e13,89216,2,woman,NA,null,W3 is feeding M1,feed,sentence,NA,NA,NA,NA
5682.4000000059605,NA,NA,NA,NA,survey-likert-extra-labels,143,793523,0.0-52.0-1.0-0.0,anomymised,65658334de4976d2bd35dbcf,65678a3d9b3b22c39c0b7e13,89216,2,woman,NA,NA,W3 is feeding M1,feed,rating_causation,"{""Q0"":5}",[0],W3 is eating M1's food,M1 is eating W3's food
1308.7000000029802,NA,NA,NA,NA,survey-likert-extra-labels,144,794835,0.0-52.0-2.0,anomymised,65658334de4976d2bd35dbcf,65678a3d9b3b22c39c0b7e13,89216,2,woman,NA,NA,W3 is feeding M1,feed,rating_volition,"{""Q0"":""""}",[0],W3 cooked for M1,M1 cooked for W3
null,Ruth is being hugged by Dave,NA,NA,NA,html-keyboard-response,145,796848,0.0-53.0-0.0,anomymised,65658334de4976d2bd35dbcf,65678a3d9b3b22c39c0b7e13,89216,2,woman,NA,null,W4 is being hugged by M2,hug4,sentence,NA,NA,NA,NA
10454.09999999404,NA,NA,NA,NA,survey-likert-extra-labels,146,807303,0.0-53.0-1.0-0.0,anomymised,65658334de4976d2bd35dbcf,65678a3d9b3b22c39c0b7e13,89216,2,woman,NA,NA,W4 is being hugged by M2,hug4,rating_causation,"{""Q0"":3}",[0],W4 asked to hug M2,M2 asked to hug W4
9946,NA,NA,NA,NA,survey-likert-extra-labels,147,817251,0.0-53.0-2.0,anomymised,65658334de4976d2bd35dbcf,65678a3d9b3b22c39c0b7e13,89216,2,woman,NA,NA,W4 is being hugged by M2,hug4,rating_volition,"{""Q0"":6}",[0],W4 wanted to hug M2,M2 wanted to hug W4
null,Jane is being hugged by Beth,NA,NA,NA,html-keyboard-response,148,819254,0.0-54.0-0.0,anomymised,65658334de4976d2bd35dbcf,65678a3d9b3b22c39c0b7e13,89216,2,woman,NA,null,W3 is being hugged by W1,hug1,sentence,NA,NA,NA,NA
3919.2000000029802,NA,NA,NA,NA,survey-likert-extra-labels,149,823175,0.0-54.0-2.0,anomymised,65658334de4976d2bd35dbcf,65678a3d9b3b22c39c0b7e13,89216,2,woman,NA,NA,W3 is being hugged by W1,hug1,rating_volition,"{""Q0"":6}",[0],W3 wanted to hug W1,W1 wanted to hug W3
12653.5,NA,NA,NA,NA,survey-likert-extra-labels,150,835831,0.0-54.0-3.0-0.0,anomymised,65658334de4976d2bd35dbcf,65678a3d9b3b22c39c0b7e13,89216,2,woman,NA,NA,W3 is being hugged by W1,hug1,rating_causation,"{""Q0"":3}",[0],W3 asked to hug W1,W1 asked to hug W3
2226.7999999970198,<p>Thank you for completing that task.</p><p>The final part of this session is a short questionnaire.</p><p>Press Continue.</p>,0,Continue,Continue,html-button-response,151,838060,0.0-55.0,anomymised,65658334de4976d2bd35dbcf,65678a3d9b3b22c39c0b7e13,89216,2,woman,NA,NA,NA,NA,NA,NA,NA,NA,NA
46184.89999999106,NA,NA,NA,NA,survey-text,152,885257,0.0-56.0,anomymised,65658334de4976d2bd35dbcf,65678a3d9b3b22c39c0b7e13,89216,2,woman,NA,NA,NA,NA,demographics,"{""Q0"":""21"",""Q1"":""English"",""Q2"":""English"",""Q3"":""England"",""Q4"":""British"",""Q5"":""Indian"",""Q6"":""Female""}",NA,NA,NA
2456.5999999940395,<p>This is the last question - thank you for taking part! Have you lived in the UK for the last 5 years or more?</p>,0,"Yes,No",Yes,html-button-response,153,887716,0.0-57.0,anomymised,65658334de4976d2bd35dbcf,65678a3d9b3b22c39c0b7e13,89216,2,woman,NA,NA,NA,NA,fiveyears,NA,NA,NA,NA
