rt,stimulus,button_pressed,choices,ChosenStimulus,trial_type,trial_index,time_elapsed,internal_node_id,subject_id,study_id,session_id,subject,list,ppt_gender,url,key_press,sentence_type,verb,test_part,responses,question_order,left_part,right_part
1571,Welcome to the experiment. Press Continue to begin.,0,Continue,Continue,html-button-response,0,1579,0.0-0.0,anomymised,656580e591ab4d27a27b0c3d,6565f680de809871a577a69b,93651,1B,man,NA,NA,NA,NA,NA,NA,NA,NA,NA
5552,NA,NA,NA,NA,external-html,1,8195,0.0-1.0,anomymised,656580e591ab4d27a27b0c3d,6565f680de809871a577a69b,93651,1B,man,consent.html,NA,NA,NA,NA,NA,NA,NA,NA
9642,"<p>Welcome.</p><p>In this experiment we will ask you to imagine some situations.</p><p>Each trial starts with a description of an event.</p><p>Then you will see alternative descriptions of that event, and you will rate on a scale how best they match the original description.</p><p>You will give your answer by clicking a button on a rating scale.</p><p>To do this task, you will have to use your imagination to visualise these events.</p><br><p>Ready?</p>",0,Continue,Continue,html-button-response,2,17838,0.0-2.0,anomymised,656580e591ab4d27a27b0c3d,6565f680de809871a577a69b,93651,1B,man,NA,NA,NA,NA,NA,NA,NA,NA,NA
3873,"<p>Before the experiment starts, you will watch an example trial. Press 'Continue'.</p>",0,Continue,Continue,html-button-response,3,22752,0.0-3.0,anomymised,656580e591ab4d27a27b0c3d,6565f680de809871a577a69b,93651,1B,man,NA,NA,NA,NA,NA,NA,NA,NA,NA
null,The police officer is arresting the robber,NA,NA,NA,html-keyboard-response,4,25782,0.0-4.0,anomymised,656580e591ab4d27a27b0c3d,6565f680de809871a577a69b,93651,1B,man,NA,null,NA,NA,NA,NA,NA,NA,NA
29633,<img src='img/Example-trial.jpg' style='height:550px;''></img>,0,Continue,Continue,html-button-response,5,55417,0.0-5.0,anomymised,656580e591ab4d27a27b0c3d,6565f680de809871a577a69b,93651,1B,man,NA,NA,NA,NA,NA,NA,NA,NA,NA
4012,<p>Ready to start the experiment?</p><br><p><strong>Remember to give an answer by clicking a button on the rating scale.</strong></p><p>Press 'Continue' to begin.</p>,0,Continue,Continue,html-button-response,6,60437,0.0-6.0,anomymised,656580e591ab4d27a27b0c3d,6565f680de809871a577a69b,93651,1B,man,NA,NA,NA,NA,NA,NA,NA,NA,NA
null,Kate is being challenged by Luke,NA,NA,NA,html-keyboard-response,7,63445,0.0-7.0-0.0,anomymised,656580e591ab4d27a27b0c3d,6565f680de809871a577a69b,93651,1B,man,NA,null,W3 is being challenged by M1,challenge4,sentence,NA,NA,NA,NA
9741,NA,NA,NA,NA,survey-likert-extra-labels,8,73190,0.0-7.0-1.0-0.0,anomymised,656580e591ab4d27a27b0c3d,6565f680de809871a577a69b,93651,1B,man,NA,NA,W3 is being challenged by M1,challenge4,rating_causation,"{""Q0"":0}",[0],M1 started challenging W3 first,W3 started challenging M1 first
9402,NA,NA,NA,NA,survey-likert-extra-labels,9,82595,0.0-7.0-2.0,anomymised,656580e591ab4d27a27b0c3d,6565f680de809871a577a69b,93651,1B,man,NA,NA,W3 is being challenged by M1,challenge4,rating_volition,"{""Q0"":0}",[0],M1 wanted to challenge W3,W3 wanted to challenge M1
null,Luke is driving Fred,NA,NA,NA,html-keyboard-response,10,84630,0.0-8.0-0.0,anomymised,656580e591ab4d27a27b0c3d,6565f680de809871a577a69b,93651,1B,man,NA,null,M1 is driving M3,drive,sentence,NA,NA,NA,NA
15364,NA,NA,NA,NA,survey-likert-extra-labels,11,99996,0.0-8.0-2.0,anomymised,656580e591ab4d27a27b0c3d,6565f680de809871a577a69b,93651,1B,man,NA,NA,M1 is driving M3,drive,rating_volition,"{""Q0"":6}",[0],M1 is M3's passenger,M3 is M1's passenger
7796,NA,NA,NA,NA,survey-likert-extra-labels,12,107793,0.0-8.0-3.0-0.0,anomymised,656580e591ab4d27a27b0c3d,6565f680de809871a577a69b,93651,1B,man,NA,NA,M1 is driving M3,drive,rating_causation,"{""Q0"":0}",[0],M1 is taking M3 somewhere,M3 is taking M1 somewhere
null,Luke is being greeted by Kate,NA,NA,NA,html-keyboard-response,13,109803,0.0-9.0-0.0,anomymised,656580e591ab4d27a27b0c3d,6565f680de809871a577a69b,93651,1B,man,NA,null,M1 is being greeted by W3,greet4,sentence,NA,NA,NA,NA
9011,NA,NA,NA,NA,survey-likert-extra-labels,14,118815,0.0-9.0-1.0-0.0,anomymised,656580e591ab4d27a27b0c3d,6565f680de809871a577a69b,93651,1B,man,NA,NA,M1 is being greeted by W3,greet4,rating_causation,"{""Q0"":6}",[0],M1 started greeting W3 first,W3 started greeting M1 first
5862,NA,NA,NA,NA,survey-likert-extra-labels,15,124677,0.0-9.0-2.0,anomymised,656580e591ab4d27a27b0c3d,6565f680de809871a577a69b,93651,1B,man,NA,NA,M1 is being greeted by W3,greet4,rating_volition,"{""Q0"":6}",[0],M1 wanted to greet W3,W3 wanted to greet M1
null,Luke is being opposed by Fred,NA,NA,NA,html-keyboard-response,16,126681,0.0-10.0-0.0,anomymised,656580e591ab4d27a27b0c3d,6565f680de809871a577a69b,93651,1B,man,NA,null,M1 is being opposed by M3,oppose2,sentence,NA,NA,NA,NA
8208,NA,NA,NA,NA,survey-likert-extra-labels,17,134891,0.0-10.0-1.0-0.0,anomymised,656580e591ab4d27a27b0c3d,6565f680de809871a577a69b,93651,1B,man,NA,NA,M1 is being opposed by M3,oppose2,rating_causation,"{""Q0"":0}",[0],M3 started opposing M1,M1 started opposing M3
9580,NA,NA,NA,NA,survey-likert-extra-labels,18,144474,0.0-10.0-2.0,anomymised,656580e591ab4d27a27b0c3d,6565f680de809871a577a69b,93651,1B,man,NA,NA,M1 is being opposed by M3,oppose2,rating_volition,"{""Q0"":0}",[0],M3 wanted to oppose M1,M1 wanted to oppose M3
null,Jane is being challenged by Beth,NA,NA,NA,html-keyboard-response,19,146485,0.0-11.0-0.0,anomymised,656580e591ab4d27a27b0c3d,6565f680de809871a577a69b,93651,1B,man,NA,null,W2 is being challenged by W4,challenge1,sentence,NA,NA,NA,NA
5201,NA,NA,NA,NA,survey-likert-extra-labels,20,151687,0.0-11.0-2.0,anomymised,656580e591ab4d27a27b0c3d,6565f680de809871a577a69b,93651,1B,man,NA,NA,W2 is being challenged by W4,challenge1,rating_volition,"{""Q0"":0}",[0],W4 wanted to challenge W2,W2 wanted to challenge W4
9686,NA,NA,NA,NA,survey-likert-extra-labels,21,161374,0.0-11.0-3.0-0.0,anomymised,656580e591ab4d27a27b0c3d,6565f680de809871a577a69b,93651,1B,man,NA,NA,W2 is being challenged by W4,challenge1,rating_causation,"{""Q0"":0}",[0],W4 started challenging W2 first,W2 started challenging W4 first
null,Beth is being looked at by Mike,NA,NA,NA,html-keyboard-response,22,163382,0.0-12.0-0.0,anomymised,656580e591ab4d27a27b0c3d,6565f680de809871a577a69b,93651,1B,man,NA,null,W4 is being looked at by M2,look4,sentence,NA,NA,NA,NA
4560,NA,NA,NA,NA,survey-likert-extra-labels,23,167945,0.0-12.0-1.0-0.0,anomymised,656580e591ab4d27a27b0c3d,6565f680de809871a577a69b,93651,1B,man,NA,NA,W4 is being looked at by M2,look4,rating_causation,"{""Q0"":6}",[0],W4 looked at M2 first,M2 looked at W4 first
5348,NA,NA,NA,NA,survey-likert-extra-labels,24,173293,0.0-12.0-2.0,anomymised,656580e591ab4d27a27b0c3d,6565f680de809871a577a69b,93651,1B,man,NA,NA,W4 is being looked at by M2,look4,rating_volition,"{""Q0"":6}",[0],W4 wanted to look at M2,M2 wanted to look at W4
null,Fred is hiring Ruth,NA,NA,NA,html-keyboard-response,25,175308,0.0-13.0-0.0,anomymised,656580e591ab4d27a27b0c3d,6565f680de809871a577a69b,93651,1B,man,NA,null,M3 is hiring W1,hire,sentence,NA,NA,NA,NA
5959,NA,NA,NA,NA,survey-likert-extra-labels,26,181268,0.0-13.0-1.0-0.0,anomymised,656580e591ab4d27a27b0c3d,6565f680de809871a577a69b,93651,1B,man,NA,NA,M3 is hiring W1,hire,rating_causation,"{""Q0"":6}",[0],M3 will work for W1,W1 will work for M3
5912,NA,NA,NA,NA,survey-likert-extra-labels,27,187180,0.0-13.0-2.0,anomymised,656580e591ab4d27a27b0c3d,6565f680de809871a577a69b,93651,1B,man,NA,NA,M3 is hiring W1,hire,rating_volition,"{""Q0"":0}",[0],M3 is employing W1,W1 is employing M3
null,Jane is teaching Dave,NA,NA,NA,html-keyboard-response,28,189195,0.0-14.0-0.0,anomymised,656580e591ab4d27a27b0c3d,6565f680de809871a577a69b,93651,1B,man,NA,null,W2 is teaching M4,teach,sentence,NA,NA,NA,NA
4833,NA,NA,NA,NA,survey-likert-extra-labels,29,194029,0.0-14.0-2.0,anomymised,656580e591ab4d27a27b0c3d,6565f680de809871a577a69b,93651,1B,man,NA,NA,W2 is teaching M4,teach,rating_volition,"{""Q0"":0}",[0],W2 is educating M4,M4 is educating W2
4608,NA,NA,NA,NA,survey-likert-extra-labels,30,198639,0.0-14.0-3.0-0.0,anomymised,656580e591ab4d27a27b0c3d,6565f680de809871a577a69b,93651,1B,man,NA,NA,W2 is teaching M4,teach,rating_causation,"{""Q0"":6}",[0],W2 is learning from M4,M4 is learning from W2
null,Dave is being greeted by Mike,NA,NA,NA,html-keyboard-response,31,200651,0.0-15.0-0.0,anomymised,656580e591ab4d27a27b0c3d,6565f680de809871a577a69b,93651,1B,man,NA,null,M4 is being greeted by M2,greet2,sentence,NA,NA,NA,NA
8649,NA,NA,NA,NA,survey-likert-extra-labels,32,209301,0.0-15.0-1.0-0.0,anomymised,656580e591ab4d27a27b0c3d,6565f680de809871a577a69b,93651,1B,man,NA,NA,M4 is being greeted by M2,greet2,rating_causation,"{""Q0"":6}",[0],M4 started greeting M2 first,M2 started greeting M4 first
6638,NA,NA,NA,NA,survey-likert-extra-labels,33,215941,0.0-15.0-2.0,anomymised,656580e591ab4d27a27b0c3d,6565f680de809871a577a69b,93651,1B,man,NA,NA,M4 is being greeted by M2,greet2,rating_volition,"{""Q0"":6}",[0],M4 wanted to greet M2,M2 wanted to greet M4
null,Jane is being hugged by Dave,NA,NA,NA,html-keyboard-response,34,217957,0.0-16.0-0.0,anomymised,656580e591ab4d27a27b0c3d,6565f680de809871a577a69b,93651,1B,man,NA,null,W2 is being hugged by M4,hug3,sentence,NA,NA,NA,NA
12683,NA,NA,NA,NA,survey-likert-extra-labels,35,230640,0.0-16.0-1.0-0.0,anomymised,656580e591ab4d27a27b0c3d,6565f680de809871a577a69b,93651,1B,man,NA,NA,W2 is being hugged by M4,hug3,rating_causation,"{""Q0"":2}",[0],M4 asked to hug W2,W2 asked to hug M4
7652,NA,NA,NA,NA,survey-likert-extra-labels,36,238293,0.0-16.0-2.0,anomymised,656580e591ab4d27a27b0c3d,6565f680de809871a577a69b,93651,1B,man,NA,NA,W2 is being hugged by M4,hug3,rating_volition,"{""Q0"":1}",[0],M4 wanted to hug W2,W2 wanted to hug M4
null,Beth is being copied by Jane,NA,NA,NA,html-keyboard-response,37,240303,0.0-17.0-0.0,anomymised,656580e591ab4d27a27b0c3d,6565f680de809871a577a69b,93651,1B,man,NA,null,W4 is being copied by W2,copy1,sentence,NA,NA,NA,NA
10059,NA,NA,NA,NA,survey-likert-extra-labels,38,250363,0.0-17.0-1.0-0.0,anomymised,656580e591ab4d27a27b0c3d,6565f680de809871a577a69b,93651,1B,man,NA,NA,W4 is being copied by W2,copy1,rating_causation,"{""Q0"":5}",[0],W4 started copying W2 first,W2 started copying W4 first
5138,NA,NA,NA,NA,survey-likert-extra-labels,39,255503,0.0-17.0-2.0,anomymised,656580e591ab4d27a27b0c3d,6565f680de809871a577a69b,93651,1B,man,NA,NA,W4 is being copied by W2,copy1,rating_volition,"{""Q0"":6}",[0],W4 wanted to copy W2,W2 wanted to copy W4
null,Kate is feeding Luke,NA,NA,NA,html-keyboard-response,40,257518,0.0-18.0-0.0,anomymised,656580e591ab4d27a27b0c3d,6565f680de809871a577a69b,93651,1B,man,NA,null,W3 is feeding M1,feed,sentence,NA,NA,NA,NA
7985,NA,NA,NA,NA,survey-likert-extra-labels,41,265505,0.0-18.0-2.0,anomymised,656580e591ab4d27a27b0c3d,6565f680de809871a577a69b,93651,1B,man,NA,NA,W3 is feeding M1,feed,rating_volition,"{""Q0"":0}",[0],W3 cooked for M1,M1 cooked for W3
6072,NA,NA,NA,NA,survey-likert-extra-labels,42,271577,0.0-18.0-3.0-0.0,anomymised,656580e591ab4d27a27b0c3d,6565f680de809871a577a69b,93651,1B,man,NA,NA,W3 is feeding M1,feed,rating_causation,"{""Q0"":6}",[0],W3 is eating M1's food,M1 is eating W3's food
null,Fred is being kissed by Luke,NA,NA,NA,html-keyboard-response,43,273579,0.0-19.0-0.0,anomymised,656580e591ab4d27a27b0c3d,6565f680de809871a577a69b,93651,1B,man,NA,null,M3 is being kissed by M1,kiss2,sentence,NA,NA,NA,NA
5521,NA,NA,NA,NA,survey-likert-extra-labels,44,279103,0.0-19.0-2.0,anomymised,656580e591ab4d27a27b0c3d,6565f680de809871a577a69b,93651,1B,man,NA,NA,M3 is being kissed by M1,kiss2,rating_volition,"{""Q0"":5}",[0],M3 wanted to kiss M1,M1 wanted to kiss M3
5331,NA,NA,NA,NA,survey-likert-extra-labels,45,284435,0.0-19.0-3.0-0.0,anomymised,656580e591ab4d27a27b0c3d,6565f680de809871a577a69b,93651,1B,man,NA,NA,M3 is being kissed by M1,kiss2,rating_causation,"{""Q0"":4}",[0],M3 asked to kiss M1,M1 asked to kiss M3
null,Ruth is chasing Kate,NA,NA,NA,html-keyboard-response,46,286444,0.0-20.0-0.0,anomymised,656580e591ab4d27a27b0c3d,6565f680de809871a577a69b,93651,1B,man,NA,null,W1 is chasing W3,chase,sentence,NA,NA,NA,NA
11825,NA,NA,NA,NA,survey-likert-extra-labels,47,298271,0.0-20.0-2.0,anomymised,656580e591ab4d27a27b0c3d,6565f680de809871a577a69b,93651,1B,man,NA,NA,W1 is chasing W3,chase,rating_volition,"{""Q0"":0}",[0],W1 is behind W3,W3 is behind W1
5489,NA,NA,NA,NA,survey-likert-extra-labels,48,303761,0.0-20.0-3.0-0.0,anomymised,656580e591ab4d27a27b0c3d,6565f680de809871a577a69b,93651,1B,man,NA,NA,W1 is chasing W3,chase,rating_causation,"{""Q0"":6}",[0],W1 is running away from W3,W3 is running away from W1
null,Mike is being hugged by Beth,NA,NA,NA,html-keyboard-response,49,305772,0.0-21.0-0.0,anomymised,656580e591ab4d27a27b0c3d,6565f680de809871a577a69b,93651,1B,man,NA,null,M2 is being hugged by W4,hug4,sentence,NA,NA,NA,NA
7690,NA,NA,NA,NA,survey-likert-extra-labels,50,313463,0.0-21.0-1.0-0.0,anomymised,656580e591ab4d27a27b0c3d,6565f680de809871a577a69b,93651,1B,man,NA,NA,M2 is being hugged by W4,hug4,rating_causation,"{""Q0"":2}",[0],W4 asked to hug M2,M2 asked to hug W4
8027,NA,NA,NA,NA,survey-likert-extra-labels,51,321490,0.0-21.0-2.0,anomymised,656580e591ab4d27a27b0c3d,6565f680de809871a577a69b,93651,1B,man,NA,NA,M2 is being hugged by W4,hug4,rating_volition,"{""Q0"":0}",[0],W4 wanted to hug M2,M2 wanted to hug W4
null,Mike is being challenged by Dave,NA,NA,NA,html-keyboard-response,52,323502,0.0-22.0-0.0,anomymised,656580e591ab4d27a27b0c3d,6565f680de809871a577a69b,93651,1B,man,NA,null,M2 is being challenged by M4,challenge2,sentence,NA,NA,NA,NA
14633,NA,NA,NA,NA,survey-likert-extra-labels,53,338138,0.0-22.0-1.0-0.0,anomymised,656580e591ab4d27a27b0c3d,6565f680de809871a577a69b,93651,1B,man,NA,NA,M2 is being challenged by M4,challenge2,rating_causation,"{""Q0"":1}",[0],M4 started challenging M2 first,M2 started challenging M4 first
6302,NA,NA,NA,NA,survey-likert-extra-labels,54,344443,0.0-22.0-2.0,anomymised,656580e591ab4d27a27b0c3d,6565f680de809871a577a69b,93651,1B,man,NA,NA,M2 is being challenged by M4,challenge2,rating_volition,"{""Q0"":1}",[0],M4 wanted to challenge M2,M2 wanted to challenge M4
null,Mike is being touched by Dave,NA,NA,NA,html-keyboard-response,55,346454,0.0-23.0-0.0,anomymised,656580e591ab4d27a27b0c3d,6565f680de809871a577a69b,93651,1B,man,NA,null,M2 is being touched by M4,touch2,sentence,NA,NA,NA,NA
5004,NA,NA,NA,NA,survey-likert-extra-labels,56,351460,0.0-23.0-2.0,anomymised,656580e591ab4d27a27b0c3d,6565f680de809871a577a69b,93651,1B,man,NA,NA,M2 is being touched by M4,touch2,rating_volition,"{""Q0"":1}",[0],M4 wanted to touch M2,M2 wanted to touch M4
4671,NA,NA,NA,NA,survey-likert-extra-labels,57,356132,0.0-23.0-3.0-0.0,anomymised,656580e591ab4d27a27b0c3d,6565f680de809871a577a69b,93651,1B,man,NA,NA,M2 is being touched by M4,touch2,rating_causation,"{""Q0"":4}",[0],M4 asked to touch M2,M2 asked to touch M4
null,Jane is being seduced by Beth,NA,NA,NA,html-keyboard-response,58,358137,0.0-24.0-0.0,anomymised,656580e591ab4d27a27b0c3d,6565f680de809871a577a69b,93651,1B,man,NA,null,W2 is being seduced by W4,seduce1,sentence,NA,NA,NA,NA
8826,NA,NA,NA,NA,survey-likert-extra-labels,59,366964,0.0-24.0-2.0,anomymised,656580e591ab4d27a27b0c3d,6565f680de809871a577a69b,93651,1B,man,NA,NA,W2 is being seduced by W4,seduce1,rating_volition,"{""Q0"":0}",[0],W4 wanted to seduce W2,W2 wanted to seduce W4
7847,NA,NA,NA,NA,survey-likert-extra-labels,60,374813,0.0-24.0-3.0-0.0,anomymised,656580e591ab4d27a27b0c3d,6565f680de809871a577a69b,93651,1B,man,NA,NA,W2 is being seduced by W4,seduce1,rating_causation,"{""Q0"":1}",[0],W4 started seducing W2 first,W2 started seducing W4 first
null,Ruth is being opposed by Kate,NA,NA,NA,html-keyboard-response,61,376825,0.0-25.0-0.0,anomymised,656580e591ab4d27a27b0c3d,6565f680de809871a577a69b,93651,1B,man,NA,null,W1 is being opposed by W3,oppose1,sentence,NA,NA,NA,NA
13010,NA,NA,NA,NA,survey-likert-extra-labels,62,389837,0.0-25.0-1.0-0.0,anomymised,656580e591ab4d27a27b0c3d,6565f680de809871a577a69b,93651,1B,man,NA,NA,W1 is being opposed by W3,oppose1,rating_causation,"{""Q0"":0}",[0],W3 started opposing W1,W1 started opposing W3
7823,NA,NA,NA,NA,survey-likert-extra-labels,63,397661,0.0-25.0-2.0,anomymised,656580e591ab4d27a27b0c3d,6565f680de809871a577a69b,93651,1B,man,NA,NA,W1 is being opposed by W3,oppose1,rating_volition,"{""Q0"":1}",[0],W3 wanted to oppose W1,W1 wanted to oppose W3
null,Dave is being kissed by Jane,NA,NA,NA,html-keyboard-response,64,399686,0.0-26.0-0.0,anomymised,656580e591ab4d27a27b0c3d,6565f680de809871a577a69b,93651,1B,man,NA,null,M4 is being kissed by W2,kiss4,sentence,NA,NA,NA,NA
4536,NA,NA,NA,NA,survey-likert-extra-labels,65,404225,0.0-26.0-2.0,anomymised,656580e591ab4d27a27b0c3d,6565f680de809871a577a69b,93651,1B,man,NA,NA,M4 is being kissed by W2,kiss4,rating_volition,"{""Q0"":6}",[0],M4 wanted to kiss W2,W2 wanted to kiss M4
3274,NA,NA,NA,NA,survey-likert-extra-labels,66,407501,0.0-26.0-3.0-0.0,anomymised,656580e591ab4d27a27b0c3d,6565f680de809871a577a69b,93651,1B,man,NA,NA,M4 is being kissed by W2,kiss4,rating_causation,"{""Q0"":4}",[0],M4 asked to kiss W2,W2 asked to kiss M4
null,Ruth is being copied by Fred,NA,NA,NA,html-keyboard-response,67,409506,0.0-27.0-0.0,anomymised,656580e591ab4d27a27b0c3d,6565f680de809871a577a69b,93651,1B,man,NA,null,W1 is being copied by M3,copy4,sentence,NA,NA,NA,NA
5162,NA,NA,NA,NA,survey-likert-extra-labels,68,414668,0.0-27.0-2.0,anomymised,656580e591ab4d27a27b0c3d,6565f680de809871a577a69b,93651,1B,man,NA,NA,W1 is being copied by M3,copy4,rating_volition,"{""Q0"":6}",[0],W1 wanted to copy M3,M3 wanted to copy W1
3650,NA,NA,NA,NA,survey-likert-extra-labels,69,418320,0.0-27.0-3.0-0.0,anomymised,656580e591ab4d27a27b0c3d,6565f680de809871a577a69b,93651,1B,man,NA,NA,W1 is being copied by M3,copy4,rating_causation,"{""Q0"":5}",[0],W1 started copying M3 first,M3 started copying W1 first
null,Fred is being looked at by Luke,NA,NA,NA,html-keyboard-response,70,420330,0.0-28.0-0.0,anomymised,656580e591ab4d27a27b0c3d,6565f680de809871a577a69b,93651,1B,man,NA,null,M3 is being looked at by M1,look2,sentence,NA,NA,NA,NA
4802,NA,NA,NA,NA,survey-likert-extra-labels,71,425133,0.0-28.0-2.0,anomymised,656580e591ab4d27a27b0c3d,6565f680de809871a577a69b,93651,1B,man,NA,NA,M3 is being looked at by M1,look2,rating_volition,"{""Q0"":6}",[0],M3 wanted to look at M1,M1 wanted to look at M3
8515,NA,NA,NA,NA,survey-likert-extra-labels,72,433649,0.0-28.0-3.0-0.0,anomymised,656580e591ab4d27a27b0c3d,6565f680de809871a577a69b,93651,1B,man,NA,NA,M3 is being looked at by M1,look2,rating_causation,"{""Q0"":5}",[0],M3 looked at M1 first,M1 looked at M3 first
null,Luke is being hugged by Fred,NA,NA,NA,html-keyboard-response,73,435665,0.0-29.0-0.0,anomymised,656580e591ab4d27a27b0c3d,6565f680de809871a577a69b,93651,1B,man,NA,null,M1 is being hugged by M3,hug2,sentence,NA,NA,NA,NA
10467,NA,NA,NA,NA,survey-likert-extra-labels,74,446134,0.0-29.0-1.0-0.0,anomymised,656580e591ab4d27a27b0c3d,6565f680de809871a577a69b,93651,1B,man,NA,NA,M1 is being hugged by M3,hug2,rating_causation,"{""Q0"":2}",[0],M3 asked to hug M1,M1 asked to hug M3
3819,NA,NA,NA,NA,survey-likert-extra-labels,75,449953,0.0-29.0-2.0,anomymised,656580e591ab4d27a27b0c3d,6565f680de809871a577a69b,93651,1B,man,NA,NA,M1 is being hugged by M3,hug2,rating_volition,"{""Q0"":1}",[0],M3 wanted to hug M1,M1 wanted to hug M3
null,Ruth is being hugged by Kate,NA,NA,NA,html-keyboard-response,76,451954,0.0-30.0-0.0,anomymised,656580e591ab4d27a27b0c3d,6565f680de809871a577a69b,93651,1B,man,NA,null,W1 is being hugged by W3,hug1,sentence,NA,NA,NA,NA
21137,NA,NA,NA,NA,survey-likert-extra-labels,77,473092,0.0-30.0-1.0-0.0,anomymised,656580e591ab4d27a27b0c3d,6565f680de809871a577a69b,93651,1B,man,NA,NA,W1 is being hugged by W3,hug1,rating_causation,"{""Q0"":2}",[0],W3 asked to hug W1,W1 asked to hug W3
3493,NA,NA,NA,NA,survey-likert-extra-labels,78,476587,0.0-30.0-2.0,anomymised,656580e591ab4d27a27b0c3d,6565f680de809871a577a69b,93651,1B,man,NA,NA,W1 is being hugged by W3,hug1,rating_volition,"{""Q0"":0}",[0],W3 wanted to hug W1,W1 wanted to hug W3
null,Fred is being seduced by Ruth,NA,NA,NA,html-keyboard-response,79,478597,0.0-31.0-0.0,anomymised,656580e591ab4d27a27b0c3d,6565f680de809871a577a69b,93651,1B,man,NA,null,M3 is being seduced by W1,seduce4,sentence,NA,NA,NA,NA
4904,NA,NA,NA,NA,survey-likert-extra-labels,80,483504,0.0-31.0-1.0-0.0,anomymised,656580e591ab4d27a27b0c3d,6565f680de809871a577a69b,93651,1B,man,NA,NA,M3 is being seduced by W1,seduce4,rating_causation,"{""Q0"":1}",[0],W1 started seducing M3 first,M3 started seducing W1 first
6047,NA,NA,NA,NA,survey-likert-extra-labels,81,489552,0.0-31.0-2.0,anomymised,656580e591ab4d27a27b0c3d,6565f680de809871a577a69b,93651,1B,man,NA,NA,M3 is being seduced by W1,seduce4,rating_volition,"{""Q0"":1}",[0],W1 wanted to seducing M3,M3 wanted to seducing W1
null,Kate is being looked at by Ruth,NA,NA,NA,html-keyboard-response,82,491567,0.0-32.0-0.0,anomymised,656580e591ab4d27a27b0c3d,6565f680de809871a577a69b,93651,1B,man,NA,null,W3 is being looked at by W1,look1,sentence,NA,NA,NA,NA
5523,NA,NA,NA,NA,survey-likert-extra-labels,83,497092,0.0-32.0-2.0,anomymised,656580e591ab4d27a27b0c3d,6565f680de809871a577a69b,93651,1B,man,NA,NA,W3 is being looked at by W1,look1,rating_volition,"{""Q0"":6}",[0],W3 wanted to look at W1,W1 wanted to look at W3
9216,NA,NA,NA,NA,survey-likert-extra-labels,84,506309,0.0-32.0-3.0-0.0,anomymised,656580e591ab4d27a27b0c3d,6565f680de809871a577a69b,93651,1B,man,NA,NA,W3 is being looked at by W1,look1,rating_causation,"{""Q0"":4}",[0],W3 looked at W1 first,W1 looked at W3 first
null,Ruth is being greeted by Fred,NA,NA,NA,html-keyboard-response,85,508315,0.0-33.0-0.0,anomymised,656580e591ab4d27a27b0c3d,6565f680de809871a577a69b,93651,1B,man,NA,null,W1 is being greeted by M3,greet3,sentence,NA,NA,NA,NA
6682,NA,NA,NA,NA,survey-likert-extra-labels,86,514999,0.0-33.0-1.0-0.0,anomymised,656580e591ab4d27a27b0c3d,6565f680de809871a577a69b,93651,1B,man,NA,NA,W1 is being greeted by M3,greet3,rating_causation,"{""Q0"":6}",[0],W1 started greeting M3 first,M3 started greeting W1 first
4485,NA,NA,NA,NA,survey-likert-extra-labels,87,519484,0.0-33.0-2.0,anomymised,656580e591ab4d27a27b0c3d,6565f680de809871a577a69b,93651,1B,man,NA,NA,W1 is being greeted by M3,greet3,rating_volition,"{""Q0"":6}",[0],W1 wanted to greet M3,M3 wanted to greet W1
null,Kate is being kissed by Ruth,NA,NA,NA,html-keyboard-response,88,521486,0.0-34.0-0.0,anomymised,656580e591ab4d27a27b0c3d,6565f680de809871a577a69b,93651,1B,man,NA,null,W3 is being kissed by W1,kiss1,sentence,NA,NA,NA,NA
18316,NA,NA,NA,NA,survey-likert-extra-labels,89,539803,0.0-34.0-1.0-0.0,anomymised,656580e591ab4d27a27b0c3d,6565f680de809871a577a69b,93651,1B,man,NA,NA,W3 is being kissed by W1,kiss1,rating_causation,"{""Q0"":2}",[0],W3 asked to kiss W1,W1 asked to kiss W3
6373,NA,NA,NA,NA,survey-likert-extra-labels,90,546178,0.0-34.0-2.0,anomymised,656580e591ab4d27a27b0c3d,6565f680de809871a577a69b,93651,1B,man,NA,NA,W3 is being kissed by W1,kiss1,rating_volition,"{""Q0"":4}",[0],W3 wanted to kiss W1,W1 wanted to kiss W3
null,Mike is posing for Dave,NA,NA,NA,html-keyboard-response,91,548187,0.0-35.0-0.0,anomymised,656580e591ab4d27a27b0c3d,6565f680de809871a577a69b,93651,1B,man,NA,null,M2 is posing for M4,pose,sentence,NA,NA,NA,NA
13358,NA,NA,NA,NA,survey-likert-extra-labels,92,561548,0.0-35.0-2.0,anomymised,656580e591ab4d27a27b0c3d,6565f680de809871a577a69b,93651,1B,man,NA,NA,M2 is posing for M4,pose,rating_volition,"{""Q0"":0}",[0],M2 is modelling for M4,M4 is modelling for M2
11116,NA,NA,NA,NA,survey-likert-extra-labels,93,572665,0.0-35.0-3.0-0.0,anomymised,656580e591ab4d27a27b0c3d,6565f680de809871a577a69b,93651,1B,man,NA,NA,M2 is posing for M4,pose,rating_causation,"{""Q0"":4}",[0],M2 is photographing M4,M4 is photographing M2
null,Mike is being shouted at by Beth,NA,NA,NA,html-keyboard-response,94,574669,0.0-36.0-0.0,anomymised,656580e591ab4d27a27b0c3d,6565f680de809871a577a69b,93651,1B,man,NA,null,M2 is being shouted at by W4,shout3,sentence,NA,NA,NA,NA
8064,NA,NA,NA,NA,survey-likert-extra-labels,95,582735,0.0-36.0-1.0-0.0,anomymised,656580e591ab4d27a27b0c3d,6565f680de809871a577a69b,93651,1B,man,NA,NA,M2 is being shouted at by W4,shout3,rating_causation,"{""Q0"":5}",[0],W4 shouted at M2 first,M2 shouted at W4 first
8458,NA,NA,NA,NA,survey-likert-extra-labels,96,591194,0.0-36.0-2.0,anomymised,656580e591ab4d27a27b0c3d,6565f680de809871a577a69b,93651,1B,man,NA,NA,M2 is being shouted at by W4,shout3,rating_volition,"{""Q0"":1}",[0],W4 wanted to shout at M2,M2 wanted to shout at W4
null,Luke is being shouted at by Fred,NA,NA,NA,html-keyboard-response,97,593198,0.0-37.0-0.0,anomymised,656580e591ab4d27a27b0c3d,6565f680de809871a577a69b,93651,1B,man,NA,null,M1 is being shouted at by M3,shout2,sentence,NA,NA,NA,NA
8713,NA,NA,NA,NA,survey-likert-extra-labels,98,601914,0.0-37.0-2.0,anomymised,656580e591ab4d27a27b0c3d,6565f680de809871a577a69b,93651,1B,man,NA,NA,M1 is being shouted at by M3,shout2,rating_volition,"{""Q0"":1}",[0],M3 wanted to shout at M1,M1 wanted to shout at M3
4273,NA,NA,NA,NA,survey-likert-extra-labels,99,606188,0.0-37.0-3.0-0.0,anomymised,656580e591ab4d27a27b0c3d,6565f680de809871a577a69b,93651,1B,man,NA,NA,M1 is being shouted at by M3,shout2,rating_causation,"{""Q0"":3}",[0],M3 shouted at M1 first,M1 shouted at M3 first
null,Fred is being challenged by Ruth,NA,NA,NA,html-keyboard-response,100,608197,0.0-38.0-0.0,anomymised,656580e591ab4d27a27b0c3d,6565f680de809871a577a69b,93651,1B,man,NA,null,M3 is being challenged by W1,challenge3,sentence,NA,NA,NA,NA
5913,NA,NA,NA,NA,survey-likert-extra-labels,101,614110,0.0-38.0-1.0-0.0,anomymised,656580e591ab4d27a27b0c3d,6565f680de809871a577a69b,93651,1B,man,NA,NA,M3 is being challenged by W1,challenge3,rating_causation,"{""Q0"":3}",[0],W1 started challenging M3 first,M3 started challenging W1 first
1136,NA,NA,NA,NA,survey-likert-extra-labels,102,615247,0.0-38.0-2.0,anomymised,656580e591ab4d27a27b0c3d,6565f680de809871a577a69b,93651,1B,man,NA,NA,M3 is being challenged by W1,challenge3,rating_volition,"{""Q0"":""""}",[0],W1 wanted to challenge M3,M3 wanted to challenge W1
null,Mike is reminding Beth,NA,NA,NA,html-keyboard-response,103,617254,0.0-39.0-0.0,anomymised,656580e591ab4d27a27b0c3d,6565f680de809871a577a69b,93651,1B,man,NA,null,M2 is reminding W4,remind,sentence,NA,NA,NA,NA
10202,NA,NA,NA,NA,survey-likert-extra-labels,104,627457,0.0-39.0-2.0,anomymised,656580e591ab4d27a27b0c3d,6565f680de809871a577a69b,93651,1B,man,NA,NA,M2 is reminding W4,remind,rating_volition,"{""Q0"":0}",[0],M2 is telling W4 again,W4 is telling M2 again
10620,NA,NA,NA,NA,survey-likert-extra-labels,105,638078,0.0-39.0-3.0-0.0,anomymised,656580e591ab4d27a27b0c3d,6565f680de809871a577a69b,93651,1B,man,NA,NA,M2 is reminding W4,remind,rating_causation,"{""Q0"":4}",[0],M2 is remembering,W4 is remembering
null,Dave is being copied by Mike,NA,NA,NA,html-keyboard-response,106,640090,0.0-40.0-0.0,anomymised,656580e591ab4d27a27b0c3d,6565f680de809871a577a69b,93651,1B,man,NA,null,M4 is being copied by M2,copy2,sentence,NA,NA,NA,NA
8971,NA,NA,NA,NA,survey-likert-extra-labels,107,649061,0.0-40.0-2.0,anomymised,656580e591ab4d27a27b0c3d,6565f680de809871a577a69b,93651,1B,man,NA,NA,M4 is being copied by M2,copy2,rating_volition,"{""Q0"":5}",[0],M4 wanted to copy M2,M2 wanted to copy M4
12815,NA,NA,NA,NA,survey-likert-extra-labels,108,661878,0.0-40.0-3.0-0.0,anomymised,656580e591ab4d27a27b0c3d,6565f680de809871a577a69b,93651,1B,man,NA,NA,M4 is being copied by M2,copy2,rating_causation,"{""Q0"":4}",[0],M4 started copying M2 first,M2 started copying M4 first
null,Ruth is being shouted at by Kate,NA,NA,NA,html-keyboard-response,109,663887,0.0-41.0-0.0,anomymised,656580e591ab4d27a27b0c3d,6565f680de809871a577a69b,93651,1B,man,NA,null,W1 is being shouted at by W3,shout1,sentence,NA,NA,NA,NA
15030,NA,NA,NA,NA,survey-likert-extra-labels,110,678919,0.0-41.0-1.0-0.0,anomymised,656580e591ab4d27a27b0c3d,6565f680de809871a577a69b,93651,1B,man,NA,NA,W1 is being shouted at by W3,shout1,rating_causation,"{""Q0"":2}",[0],W3 shouted at W1 first,W1 shouted at W3 first
9167,NA,NA,NA,NA,survey-likert-extra-labels,111,688088,0.0-41.0-2.0,anomymised,656580e591ab4d27a27b0c3d,6565f680de809871a577a69b,93651,1B,man,NA,NA,W1 is being shouted at by W3,shout1,rating_volition,"{""Q0"":2}",[0],W3 wanted to shout at W1,W1 wanted to shout at W3
null,Kate is being seduced by Luke,NA,NA,NA,html-keyboard-response,112,690103,0.0-42.0-0.0,anomymised,656580e591ab4d27a27b0c3d,6565f680de809871a577a69b,93651,1B,man,NA,null,W3 is being seduced by M1,seduce3,sentence,NA,NA,NA,NA
8913,NA,NA,NA,NA,survey-likert-extra-labels,113,699017,0.0-42.0-1.0-0.0,anomymised,656580e591ab4d27a27b0c3d,6565f680de809871a577a69b,93651,1B,man,NA,NA,W3 is being seduced by M1,seduce3,rating_causation,"{""Q0"":2}",[0],M1 started seducing W3 first,W3 started seducing M1 first
4013,NA,NA,NA,NA,survey-likert-extra-labels,114,703031,0.0-42.0-2.0,anomymised,656580e591ab4d27a27b0c3d,6565f680de809871a577a69b,93651,1B,man,NA,NA,W3 is being seduced by M1,seduce3,rating_volition,"{""Q0"":3}",[0],M1 wanted to seduce W3,W3 wanted to seduce M1
null,Jane is being opposed by Dave,NA,NA,NA,html-keyboard-response,115,705040,0.0-43.0-0.0,anomymised,656580e591ab4d27a27b0c3d,6565f680de809871a577a69b,93651,1B,man,NA,null,W2 is being opposed by M4,oppose3,sentence,NA,NA,NA,NA
11726,NA,NA,NA,NA,survey-likert-extra-labels,116,716767,0.0-43.0-1.0-0.0,anomymised,656580e591ab4d27a27b0c3d,6565f680de809871a577a69b,93651,1B,man,NA,NA,W2 is being opposed by M4,oppose3,rating_causation,"{""Q0"":0}",[0],M4 started opposing W2,W2 started opposing M4
3812,NA,NA,NA,NA,survey-likert-extra-labels,117,720582,0.0-43.0-2.0,anomymised,656580e591ab4d27a27b0c3d,6565f680de809871a577a69b,93651,1B,man,NA,NA,W2 is being opposed by M4,oppose3,rating_volition,"{""Q0"":1}",[0],M4 wanted to oppose W2,W2 wanted to oppose M4
null,Kate is being touched by Luke,NA,NA,NA,html-keyboard-response,118,722587,0.0-44.0-0.0,anomymised,656580e591ab4d27a27b0c3d,6565f680de809871a577a69b,93651,1B,man,NA,null,W3 is being touched by M1,touch3,sentence,NA,NA,NA,NA
58000,NA,NA,NA,NA,survey-likert-extra-labels,119,780591,0.0-44.0-2.0,anomymised,656580e591ab4d27a27b0c3d,6565f680de809871a577a69b,93651,1B,man,NA,NA,W3 is being touched by M1,touch3,rating_volition,"{""Q0"":3}",[0],M1 wanted to touch W3,W3 wanted to touch M1
8915,NA,NA,NA,NA,survey-likert-extra-labels,120,789509,0.0-44.0-3.0-0.0,anomymised,656580e591ab4d27a27b0c3d,6565f680de809871a577a69b,93651,1B,man,NA,NA,W3 is being touched by M1,touch3,rating_causation,"{""Q0"":4}",[0],M1 asked to touch W3,W3 asked to touch M1
null,Mike is being seduced by Dave,NA,NA,NA,html-keyboard-response,121,791518,0.0-45.0-0.0,anomymised,656580e591ab4d27a27b0c3d,6565f680de809871a577a69b,93651,1B,man,NA,null,M2 is being seduced by M4,seduce2,sentence,NA,NA,NA,NA
5001,NA,NA,NA,NA,survey-likert-extra-labels,122,796521,0.0-45.0-1.0-0.0,anomymised,656580e591ab4d27a27b0c3d,6565f680de809871a577a69b,93651,1B,man,NA,NA,M2 is being seduced by M4,seduce2,rating_causation,"{""Q0"":3}",[0],M4 started seducing M2 first,M2 started seducing M4 first
4645,NA,NA,NA,NA,survey-likert-extra-labels,123,801168,0.0-45.0-2.0,anomymised,656580e591ab4d27a27b0c3d,6565f680de809871a577a69b,93651,1B,man,NA,NA,M2 is being seduced by M4,seduce2,rating_volition,"{""Q0"":3}",[0],M4 wanted to seduce M2,M2 wanted to seduce M4
null,Dave is being looked at by Jane,NA,NA,NA,html-keyboard-response,124,803178,0.0-46.0-0.0,anomymised,656580e591ab4d27a27b0c3d,6565f680de809871a577a69b,93651,1B,man,NA,null,M4 is being looked at by W2,look3,sentence,NA,NA,NA,NA
3740,NA,NA,NA,NA,survey-likert-extra-labels,125,806918,0.0-46.0-1.0-0.0,anomymised,656580e591ab4d27a27b0c3d,6565f680de809871a577a69b,93651,1B,man,NA,NA,M4 is being looked at by W2,look3,rating_causation,"{""Q0"":5}",[0],M4 looked at W2 first,W2 looked at M4 first
5371,NA,NA,NA,NA,survey-likert-extra-labels,126,812292,0.0-46.0-2.0,anomymised,656580e591ab4d27a27b0c3d,6565f680de809871a577a69b,93651,1B,man,NA,NA,M4 is being looked at by W2,look3,rating_volition,"{""Q0"":5}",[0],M4 wanted to look at W2,W2 wanted to look at M4
null,Fred is being touched by Ruth,NA,NA,NA,html-keyboard-response,127,814301,0.0-47.0-0.0,anomymised,656580e591ab4d27a27b0c3d,6565f680de809871a577a69b,93651,1B,man,NA,null,M3 is being touched by W1,touch4,sentence,NA,NA,NA,NA
11014,NA,NA,NA,NA,survey-likert-extra-labels,128,825316,0.0-47.0-1.0-0.0,anomymised,656580e591ab4d27a27b0c3d,6565f680de809871a577a69b,93651,1B,man,NA,NA,M3 is being touched by W1,touch4,rating_causation,"{""Q0"":3}",[0],W1 asked to touch M3,M3 asked to touch W1
5691,NA,NA,NA,NA,survey-likert-extra-labels,129,831008,0.0-47.0-2.0,anomymised,656580e591ab4d27a27b0c3d,6565f680de809871a577a69b,93651,1B,man,NA,NA,M3 is being touched by W1,touch4,rating_volition,"{""Q0"":0}",[0],W1 wanted to touch M3,M3 wanted to touch W1
null,Mike is being opposed by Beth,NA,NA,NA,html-keyboard-response,130,833012,0.0-48.0-0.0,anomymised,656580e591ab4d27a27b0c3d,6565f680de809871a577a69b,93651,1B,man,NA,null,M2 is being opposed by W4,oppose4,sentence,NA,NA,NA,NA
11948,NA,NA,NA,NA,survey-likert-extra-labels,131,844962,0.0-48.0-1.0-0.0,anomymised,656580e591ab4d27a27b0c3d,6565f680de809871a577a69b,93651,1B,man,NA,NA,M2 is being opposed by W4,oppose4,rating_causation,"{""Q0"":1}",[0],W4 started opposing M2,M2 started opposing W4
35379,NA,NA,NA,NA,survey-likert-extra-labels,132,880342,0.0-48.0-2.0,anomymised,656580e591ab4d27a27b0c3d,6565f680de809871a577a69b,93651,1B,man,NA,NA,M2 is being opposed by W4,oppose4,rating_volition,"{""Q0"":2}",[0],W4 wanted to oppose M2,M2 wanted to oppose W4
null,Luke is being copied by Kate,NA,NA,NA,html-keyboard-response,133,882345,0.0-49.0-0.0,anomymised,656580e591ab4d27a27b0c3d,6565f680de809871a577a69b,93651,1B,man,NA,null,M1 is being copied by W3,copy3,sentence,NA,NA,NA,NA
4814,NA,NA,NA,NA,survey-likert-extra-labels,134,887160,0.0-49.0-1.0-0.0,anomymised,656580e591ab4d27a27b0c3d,6565f680de809871a577a69b,93651,1B,man,NA,NA,M1 is being copied by W3,copy3,rating_causation,"{""Q0"":3}",[0],M1 started copying W3 first,W3 started copying M1 first
9056,NA,NA,NA,NA,survey-likert-extra-labels,135,896217,0.0-49.0-2.0,anomymised,656580e591ab4d27a27b0c3d,6565f680de809871a577a69b,93651,1B,man,NA,NA,M1 is being copied by W3,copy3,rating_volition,"{""Q0"":5}",[0],M1 wanted to copy W3,W3 wanted to copy M1
null,Beth is being kissed by Mike,NA,NA,NA,html-keyboard-response,136,898221,0.0-50.0-0.0,anomymised,656580e591ab4d27a27b0c3d,6565f680de809871a577a69b,93651,1B,man,NA,null,W4 is being kissed by M2,kiss3,sentence,NA,NA,NA,NA
6977,NA,NA,NA,NA,survey-likert-extra-labels,137,905199,0.0-50.0-1.0-0.0,anomymised,656580e591ab4d27a27b0c3d,6565f680de809871a577a69b,93651,1B,man,NA,NA,W4 is being kissed by M2,kiss3,rating_causation,"{""Q0"":3}",[0],W4 asked to kiss M2,M2 asked to kiss W4
7713,NA,NA,NA,NA,survey-likert-extra-labels,138,912913,0.0-50.0-2.0,anomymised,656580e591ab4d27a27b0c3d,6565f680de809871a577a69b,93651,1B,man,NA,NA,W4 is being kissed by M2,kiss3,rating_volition,"{""Q0"":6}",[0],W4 wanted to kiss M2,M2 wanted to kiss W4
null,Jane is carrying Beth,NA,NA,NA,html-keyboard-response,139,914915,0.0-51.0-0.0,anomymised,656580e591ab4d27a27b0c3d,6565f680de809871a577a69b,93651,1B,man,NA,null,W2 is carrying W4,carry,sentence,NA,NA,NA,NA
12198,NA,NA,NA,NA,survey-likert-extra-labels,140,927124,0.0-51.0-2.0,anomymised,656580e591ab4d27a27b0c3d,6565f680de809871a577a69b,93651,1B,man,NA,NA,W2 is carrying W4,carry,rating_volition,"{""Q0"":0}",[0],W2 is transporting W4,W4 is transporting W2
13637,NA,NA,NA,NA,survey-likert-extra-labels,141,940761,0.0-51.0-3.0-0.0,anomymised,656580e591ab4d27a27b0c3d,6565f680de809871a577a69b,93651,1B,man,NA,NA,W2 is carrying W4,carry,rating_causation,"{""Q0"":6}",[0],W2 is being moved by W4,W4 is being moved by W2
null,Jane is being touched by Beth,NA,NA,NA,html-keyboard-response,142,942777,0.0-52.0-0.0,anomymised,656580e591ab4d27a27b0c3d,6565f680de809871a577a69b,93651,1B,man,NA,null,W2 is being touched by W4,touch1,sentence,NA,NA,NA,NA
8687,NA,NA,NA,NA,survey-likert-extra-labels,143,951466,0.0-52.0-2.0,anomymised,656580e591ab4d27a27b0c3d,6565f680de809871a577a69b,93651,1B,man,NA,NA,W2 is being touched by W4,touch1,rating_volition,"{""Q0"":3}",[0],W4 wanted to touch W2,W2 wanted to touch W4
5349,NA,NA,NA,NA,survey-likert-extra-labels,144,956816,0.0-52.0-3.0-0.0,anomymised,656580e591ab4d27a27b0c3d,6565f680de809871a577a69b,93651,1B,man,NA,NA,W2 is being touched by W4,touch1,rating_causation,"{""Q0"":3}",[0],W4 asked to touch W2,W2 asked to touch W4
null,Beth is being greeted by Jane,NA,NA,NA,html-keyboard-response,145,958822,0.0-53.0-0.0,anomymised,656580e591ab4d27a27b0c3d,6565f680de809871a577a69b,93651,1B,man,NA,null,W4 is being greeted by W2,greet1,sentence,NA,NA,NA,NA
2528,NA,NA,NA,NA,survey-likert-extra-labels,146,961351,0.0-53.0-1.0-0.0,anomymised,656580e591ab4d27a27b0c3d,6565f680de809871a577a69b,93651,1B,man,NA,NA,W4 is being greeted by W2,greet1,rating_causation,"{""Q0"":6}",[0],W4 started greeting W2 first,W2 started greeting W4 first
10200,NA,NA,NA,NA,survey-likert-extra-labels,147,971554,0.0-53.0-2.0,anomymised,656580e591ab4d27a27b0c3d,6565f680de809871a577a69b,93651,1B,man,NA,NA,W4 is being greeted by W2,greet1,rating_volition,"{""Q0"":4}",[0],W4 wanted to greet W2,W2 wanted to greet W4
null,Jane is being shouted at by Dave,NA,NA,NA,html-keyboard-response,148,973567,0.0-54.0-0.0,anomymised,656580e591ab4d27a27b0c3d,6565f680de809871a577a69b,93651,1B,man,NA,null,W2 is being shouted at by M4,shout4,sentence,NA,NA,NA,NA
32721,NA,NA,NA,NA,survey-likert-extra-labels,149,1006289,0.0-54.0-1.0-0.0,anomymised,656580e591ab4d27a27b0c3d,6565f680de809871a577a69b,93651,1B,man,NA,NA,W2 is being shouted at by M4,shout4,rating_causation,"{""Q0"":1}",[0],M4 shouted at W2 first,W2 shouted at M4 first
5172,NA,NA,NA,NA,survey-likert-extra-labels,150,1011464,0.0-54.0-2.0,anomymised,656580e591ab4d27a27b0c3d,6565f680de809871a577a69b,93651,1B,man,NA,NA,W2 is being shouted at by M4,shout4,rating_volition,"{""Q0"":0}",[0],M4 wanted to shout at W2,W2 wanted to shout at M4
1454,<p>Thank you for completing that task.</p><p>The final part of this session is a short questionnaire.</p><p>Press Continue.</p>,0,Continue,Continue,html-button-response,151,1012920,0.0-55.0,anomymised,656580e591ab4d27a27b0c3d,6565f680de809871a577a69b,93651,1B,man,NA,NA,NA,NA,NA,NA,NA,NA,NA
29894,NA,NA,NA,NA,survey-text,152,1043841,0.0-56.0,anomymised,656580e591ab4d27a27b0c3d,6565f680de809871a577a69b,93651,1B,man,NA,NA,NA,NA,demographics,"{""Q0"":""40"",""Q1"":""English"",""Q2"":""English"",""Q3"":""UK"",""Q4"":""British"",""Q5"":""British Asian"",""Q6"":""Male""}",NA,NA,NA
2355,<p>This is the last question - thank you for taking part! Have you lived in the UK for the last 5 years or more?</p>,0,"Yes,No",Yes,html-button-response,153,1046196,0.0-57.0,anomymised,656580e591ab4d27a27b0c3d,6565f680de809871a577a69b,93651,1B,man,NA,NA,NA,NA,fiveyears,NA,NA,NA,NA
