rt,stimulus,button_pressed,trial_type,trial_index,time_elapsed,internal_node_id,subject,list,ppt_race,ppt_gender,url,first_guess,correct,key_press,responses,image_type,phrase_type,test_part
5223,Welcome to the experiment. Press Continue to begin.,0,html-button-response,0,5230,0.0-0.0,1019,List1B,black,woman,,,,,,,,
46182,,,external-html,1,52688,0.0-1.0,1019,List1B,black,woman,consent.html,,,,,,,
9481,"<p>On the next page, you will see portraits of 8 people and their names.</p><p>Your first task is to take a few minutes to memorise the names of these people.</p><p>You will have to recall their names during the rest of the experiment, so it is</p><p>essential that you try to memorise these people and their names as best as you can.</p><br><p><strong>You will then be tested on your memory of these names and portraits.</strong></p><br><p>The experiment will start after you have completed this memory test.</p><br><p>Ready?</p>",0,html-button-response,2,62174,0.0-2.0,1019,List1B,black,woman,,,,,,,,
32792,"<img src='img/portrait_matrix_list1.JPG' style='width:900px;height:500px;''></img><p>If you have memorised all the portraits and names and are ready to start, press Continue.</p><p><strong>Please note: Your memory of these faces will be tested 4 times during this experiment.</strong></p>",0,html-button-response,3,95974,0.0-3.0-0.0,1019,List1B,black,woman,,,,,,,,
11017,"<img src=""portrait/BM1.jpg""style=""width:400px;height:400px;""></img>",4,html-button-response,4,108001,0.0-3.0-1.0,1019,List1B,black,woman,,TRUE,4,,,,,
null,CORRECT,,html-keyboard-response,5,109517,0.0-3.0-2.0-0.0,1019,List1B,black,woman,,,,null,,,,
6868,"<img src=""portrait/WM1.jpg""style=""width:400px;height:400px;""></img>",6,html-button-response,6,116397,0.0-3.0-4.0,1019,List1B,black,woman,,TRUE,6,,,,,
null,CORRECT,,html-keyboard-response,7,117902,0.0-3.0-5.0-0.0,1019,List1B,black,woman,,,,null,,,,
5035,"<img src=""portrait/BW2.jpg""style=""width:400px;height:400px;""></img>",2,html-button-response,8,122946,0.0-3.0-7.0,1019,List1B,black,woman,,TRUE,2,,,,,
null,CORRECT,,html-keyboard-response,9,124451,0.0-3.0-8.0-0.0,1019,List1B,black,woman,,,,null,,,,
8749,"<img src=""portrait/WW1.jpg""style=""width:400px;height:400px;""></img>",1,html-button-response,10,133210,0.0-3.0-10.0,1019,List1B,black,woman,,TRUE,1,,,,,
null,CORRECT,,html-keyboard-response,11,134714,0.0-3.0-11.0-0.0,1019,List1B,black,woman,,,,null,,,,
2524,"<img src=""portrait/WM2.jpg""style=""width:400px;height:400px;""></img>",7,html-button-response,12,137242,0.0-3.0-13.0,1019,List1B,black,woman,,TRUE,7,,,,,
null,CORRECT,,html-keyboard-response,13,138747,0.0-3.0-14.0-0.0,1019,List1B,black,woman,,,,null,,,,
2820,"<img src=""portrait/BM2.jpg""style=""width:400px;height:400px;""></img>",5,html-button-response,14,141577,0.0-3.0-16.0,1019,List1B,black,woman,,TRUE,5,,,,,
null,CORRECT,,html-keyboard-response,15,143082,0.0-3.0-17.0-0.0,1019,List1B,black,woman,,,,null,,,,
4592,"<img src=""portrait/WW2.jpg""style=""width:400px;height:400px;""></img>",3,html-button-response,16,147679,0.0-3.0-19.0,1019,List1B,black,woman,,TRUE,3,,,,,
null,CORRECT,,html-keyboard-response,17,149184,0.0-3.0-20.0-0.0,1019,List1B,black,woman,,,,null,,,,
2347,"<img src=""portrait/BW1.jpg""style=""width:400px;height:400px;""></img>",0,html-button-response,18,151543,0.0-3.0-22.0,1019,List1B,black,woman,,TRUE,0,,,,,
null,CORRECT,,html-keyboard-response,19,153047,0.0-3.0-23.0-0.0,1019,List1B,black,woman,,,,null,,,,
1739,<p>You got 8 out of 8 right first time. Press Continue.</p>,0,html-button-response,20,154792,0.0-3.0-25.0,1019,List1B,black,woman,,,,,,,,
21768,"<p>In this experiment, you will view photographs of the people from the memory game interacting.</p><p>By using the <strong>exact</strong> phrase given <i>after</i> the photograph appears and recalling the correct names of the people in the photographs, form a sentence describing the interaction. You do not need to capitalise names.</p><p>Type your answer in the space provided. Please complete every sentence before moving onto the next trial.</p><p>You will only have a few seconds to memorise each given photograph and phrase before you can respond, so try your best to focus.</p><p>An example is given below. Press 'Continue' when you are ready.</p><img src='img/speaking_example_v2.jpg' style='width:800px;height:460px;''></img>",0,html-button-response,21,177571,0.0-4.0,1019,List1B,black,woman,,,,,,,,
4017,"<p>Before the experiment starts, you will watch two example trials. Press 'Continue'.</p>",0,html-button-response,22,182590,0.0-5.0,1019,List1B,black,woman,,,,,,,,
null,<img src='img/speaking_WW.gif'></img>,,html-keyboard-response,23,185597,0.0-6.0,1019,List1B,black,woman,,,,null,,,,
null,<p>is speaking to</p>,,html-keyboard-response,24,187600,0.0-7.0,1019,List1B,black,woman,,,,null,,,,
4515,<p><b>Answer:</b> kate is speaking to beth</p>,0,html-button-response,25,192118,0.0-8.0,1019,List1B,black,woman,,,,,,,,
null,<img src='img/pointing_BM.gif'></img>,,html-keyboard-response,26,195125,0.0-9.0,1019,List1B,black,woman,,,,null,,,,
null,<p>are pointing at each other</p>,,html-keyboard-response,27,197130,0.0-10.0,1019,List1B,black,woman,,,,null,,,,
2001,<p><b>Answer:</b> luke and dave are pointing at each other</p>,0,html-button-response,28,199135,0.0-11.0,1019,List1B,black,woman,,,,,,,,
15183,"<p>Ready to start the experiment?</p><br><p><strong>Remember to describe the picture using a full sentence,</strong></p><p><strong>that combines the names of the people with the given phrase.</strong></p><p><strong>If you do not do this correctly you will not be paid.</strong></p><p><strong> You do not need to capitalise names or use punctuation.</strong></p><br><p>Press 'Continue' to begin.</p>",0,html-button-response,29,215323,0.0-12.0,1019,List1B,black,woman,,,,,,,,
null,"<div style=""font-size:60px;"">+</div>",,html-keyboard-response,30,216828,0.0-13.0-0.0,1019,List1B,black,woman,,,,null,,,,
null,"<img src=""stim_listB/shout1.gif""</stim_listB>",,html-keyboard-response,31,218838,0.0-13.0-1.0,1019,List1B,black,woman,,,,null,,,,
null,is shouting at,,html-keyboard-response,32,220843,0.0-13.0-2.0,1019,List1B,black,woman,,,,null,,,,
13257,,,survey-text,33,234106,0.0-13.0-3.0,1019,List1B,black,woman,,,,,"{""Q0"":""Beth is shouting at Fred ""}","<img src=""stim_listB/shout1.gif""</stim_listB>",is shouting at,
null,"<div style=""font-size:60px;"">+</div>",,html-keyboard-response,34,234610,0.0-13.0-0.1,1019,List1B,black,woman,,,,null,,,,
null,"<img src=""stim_listB/hug6.gif""</stim_listB>",,html-keyboard-response,35,236614,0.0-13.0-1.1,1019,List1B,black,woman,,,,null,,,,
null,are hugging each other,,html-keyboard-response,36,238615,0.0-13.0-2.1,1019,List1B,black,woman,,,,null,,,,
10100,,,survey-text,37,248719,0.0-13.0-3.1,1019,List1B,black,woman,,,,,"{""Q0"":""Dave and mike are hugging each other ""}","<img src=""stim_listB/hug6.gif""</stim_listB>",are hugging each other,
null,"<div style=""font-size:60px;"">+</div>",,html-keyboard-response,38,249223,0.0-13.0-0.2,1019,List1B,black,woman,,,,null,,,,
null,"<img src=""stim_listB/talk7.gif""</stim_listB>",,html-keyboard-response,39,251229,0.0-13.0-1.2,1019,List1B,black,woman,,,,null,,,,
null,is talking to,,html-keyboard-response,40,253234,0.0-13.0-2.2,1019,List1B,black,woman,,,,null,,,,
5352,,,survey-text,41,258589,0.0-13.0-3.2,1019,List1B,black,woman,,,,,"{""Q0"":""Ruth is talking to Beth ""}","<img src=""stim_listB/talk7.gif""</stim_listB>",is talking to,
null,"<div style=""font-size:60px;"">+</div>",,html-keyboard-response,42,259092,0.0-13.0-0.3,1019,List1B,black,woman,,,,null,,,,
null,"<img src=""stim_listB/shout2.gif""</stim_listB>",,html-keyboard-response,43,261098,0.0-13.0-1.3,1019,List1B,black,woman,,,,null,,,,
null,are shouting at each other,,html-keyboard-response,44,263101,0.0-13.0-2.3,1019,List1B,black,woman,,,,null,,,,
10337,,,survey-text,45,273441,0.0-13.0-3.3,1019,List1B,black,woman,,,,,"{""Q0"":""Mike and Beth are shouting at each other ""}","<img src=""stim_listB/shout2.gif""</stim_listB>",are shouting at each other,
null,"<div style=""font-size:60px;"">+</div>",,html-keyboard-response,46,273944,0.0-13.0-0.4,1019,List1B,black,woman,,,,null,,,,
null,"<img src=""stim_listB/marry7.gif""</stim_listB>",,html-keyboard-response,47,275948,0.0-13.0-1.4,1019,List1B,black,woman,,,,null,,,,
null,is marrying,,html-keyboard-response,48,277951,0.0-13.0-2.4,1019,List1B,black,woman,,,,null,,,,
6571,,,survey-text,49,284526,0.0-13.0-3.4,1019,List1B,black,woman,,,,,"{""Q0"":""Ruth is marrying Kate ""}","<img src=""stim_listB/marry7.gif""</stim_listB>",is marrying,
null,"<div style=""font-size:60px;"">+</div>",,html-keyboard-response,50,285029,0.0-13.0-0.5,1019,List1B,black,woman,,,,null,,,,
null,"<img src=""stim_listB/marry2.gif""</stim_listB>",,html-keyboard-response,51,287035,0.0-13.0-1.5,1019,List1B,black,woman,,,,null,,,,
null,are marrying each other,,html-keyboard-response,52,289039,0.0-13.0-2.5,1019,List1B,black,woman,,,,null,,,,
11251,,,survey-text,53,300294,0.0-13.0-3.5,1019,List1B,black,woman,,,,,"{""Q0"":""Fred and Kate are marrying each other ""}","<img src=""stim_listB/marry2.gif""</stim_listB>",are marrying each other,
null,"<div style=""font-size:60px;"">+</div>",,html-keyboard-response,54,300797,0.0-13.0-0.6,1019,List1B,black,woman,,,,null,,,,
null,"<img src=""stim_listB/argue3.gif""</stim_listB>",,html-keyboard-response,55,302804,0.0-13.0-1.6,1019,List1B,black,woman,,,,null,,,,
null,is arguing with,,html-keyboard-response,56,304809,0.0-13.0-2.6,1019,List1B,black,woman,,,,null,,,,
9299,,,survey-text,57,314111,0.0-13.0-3.6,1019,List1B,black,woman,,,,,"{""Q0"":""Ruth and Dave are arguing with each other ""}","<img src=""stim_listB/argue3.gif""</stim_listB>",is arguing with,
null,"<div style=""font-size:60px;"">+</div>",,html-keyboard-response,58,314615,0.0-13.0-0.7,1019,List1B,black,woman,,,,null,,,,
null,"<img src=""stim_listB/hug2.gif""</stim_listB>",,html-keyboard-response,59,316621,0.0-13.0-1.7,1019,List1B,black,woman,,,,null,,,,
null,are hugging each other,,html-keyboard-response,60,318625,0.0-13.0-2.7,1019,List1B,black,woman,,,,null,,,,
8590,,,survey-text,61,327219,0.0-13.0-3.7,1019,List1B,black,woman,,,,,"{""Q0"":""Mike and Kate are hugging each other ""}","<img src=""stim_listB/hug2.gif""</stim_listB>",are hugging each other,
null,"<div style=""font-size:60px;"">+</div>",,html-keyboard-response,62,327722,0.0-13.0-0.8,1019,List1B,black,woman,,,,null,,,,
null,"<img src=""stim_listB/touch6.gif""</stim_listB>",,html-keyboard-response,63,329726,0.0-13.0-1.8,1019,List1B,black,woman,,,,null,,,,
null,are touching each other,,html-keyboard-response,64,331728,0.0-13.0-2.8,1019,List1B,black,woman,,,,null,,,,
13399,,,survey-text,65,345130,0.0-13.0-3.8,1019,List1B,black,woman,,,,,"{""Q0"":""Fred and Luke are touching each other ""}","<img src=""stim_listB/touch6.gif""</stim_listB>",are touching each other,
null,"<div style=""font-size:60px;"">+</div>",,html-keyboard-response,66,345634,0.0-13.0-0.9,1019,List1B,black,woman,,,,null,,,,
null,"<img src=""stim_listB/hug8.gif""</stim_listB>",,html-keyboard-response,67,347642,0.0-13.0-1.9,1019,List1B,black,woman,,,,null,,,,
null,are hugging each other,,html-keyboard-response,68,349647,0.0-13.0-2.9,1019,List1B,black,woman,,,,null,,,,
8539,,,survey-text,69,358190,0.0-13.0-3.9,1019,List1B,black,woman,,,,,"{""Q0"":""Jane and Kate are hugging each other ""}","<img src=""stim_listB/hug8.gif""</stim_listB>",are hugging each other,
null,"<div style=""font-size:60px;"">+</div>",,html-keyboard-response,70,358694,0.0-13.0-0.10,1019,List1B,black,woman,,,,null,,,,
null,"<img src=""stim_listB/hug4.gif""</stim_listB>",,html-keyboard-response,71,360699,0.0-13.0-1.10,1019,List1B,black,woman,,,,null,,,,
null,are hugging each other,,html-keyboard-response,72,362703,0.0-13.0-2.10,1019,List1B,black,woman,,,,null,,,,
10045,,,survey-text,73,372752,0.0-13.0-3.10,1019,List1B,black,woman,,,,,"{""Q0"":""Jane and Dave are hugging each other ""}","<img src=""stim_listB/hug4.gif""</stim_listB>",are hugging each other,
null,"<div style=""font-size:60px;"">+</div>",,html-keyboard-response,74,373255,0.0-13.0-0.11,1019,List1B,black,woman,,,,null,,,,
null,"<img src=""stim_listB/kiss4.gif""</stim_listB>",,html-keyboard-response,75,375262,0.0-13.0-1.11,1019,List1B,black,woman,,,,null,,,,
null,are kissing each other,,html-keyboard-response,76,377265,0.0-13.0-2.11,1019,List1B,black,woman,,,,null,,,,
10995,,,survey-text,77,388262,0.0-13.0-3.11,1019,List1B,black,woman,,,,,"{""Q0"":""Jane and Dave are kissing each other ""}","<img src=""stim_listB/kiss4.gif""</stim_listB>",are kissing each other,
null,"<div style=""font-size:60px;"">+</div>",,html-keyboard-response,78,388765,0.0-13.0-0.12,1019,List1B,black,woman,,,,null,,,,
null,"<img src=""stim_listB/kiss8.gif""</stim_listB>",,html-keyboard-response,79,390771,0.0-13.0-1.12,1019,List1B,black,woman,,,,null,,,,
null,are kissing each other,,html-keyboard-response,80,392778,0.0-13.0-2.12,1019,List1B,black,woman,,,,null,,,,
6775,,,survey-text,81,399555,0.0-13.0-3.12,1019,List1B,black,woman,,,,,"{""Q0"":""Kate and Jane are kissing each other ""}","<img src=""stim_listB/kiss8.gif""</stim_listB>",are kissing each other,
null,"<div style=""font-size:60px;"">+</div>",,html-keyboard-response,82,400058,0.0-13.0-0.13,1019,List1B,black,woman,,,,null,,,,
null,"<img src=""stim_listB/talk8.gif""</stim_listB>",,html-keyboard-response,83,402064,0.0-13.0-1.13,1019,List1B,black,woman,,,,null,,,,
null,are talking to each other,,html-keyboard-response,84,404072,0.0-13.0-2.13,1019,List1B,black,woman,,,,null,,,,
13384,,,survey-text,85,417491,0.0-13.0-3.13,1019,List1B,black,woman,,,,,"{""Q0"":""Ruth and Kate are taking to each other ""}","<img src=""stim_listB/talk8.gif""</stim_listB>",are talking to each other,
null,"<div style=""font-size:60px;"">+</div>",,html-keyboard-response,86,417994,0.0-13.0-0.14,1019,List1B,black,woman,,,,null,,,,
null,"<img src=""stim_listB/kiss7.gif""</stim_listB>",,html-keyboard-response,87,420000,0.0-13.0-1.14,1019,List1B,black,woman,,,,null,,,,
null,is kissing,,html-keyboard-response,88,422004,0.0-13.0-2.14,1019,List1B,black,woman,,,,null,,,,
7733,,,survey-text,89,429741,0.0-13.0-3.14,1019,List1B,black,woman,,,,,"{""Q0"":""Ruth and Beth is kissing ""}","<img src=""stim_listB/kiss7.gif""</stim_listB>",is kissing,
null,"<div style=""font-size:60px;"">+</div>",,html-keyboard-response,90,430243,0.0-13.0-0.15,1019,List1B,black,woman,,,,null,,,,
null,"<img src=""stim_listB/dance5.gif""</stim_listB>",,html-keyboard-response,91,432247,0.0-13.0-1.15,1019,List1B,black,woman,,,,null,,,,
null,is dancing with,,html-keyboard-response,92,434251,0.0-13.0-2.15,1019,List1B,black,woman,,,,null,,,,
9441,,,survey-text,93,443696,0.0-13.0-3.15,1019,List1B,black,woman,,,,,"{""Q0"":""Dave is dancing with Fred ""}","<img src=""stim_listB/dance5.gif""</stim_listB>",is dancing with,
null,"<div style=""font-size:60px;"">+</div>",,html-keyboard-response,94,444202,0.0-13.0-0.16,1019,List1B,black,woman,,,,null,,,,
null,"<img src=""stim_listB/argue8.gif""</stim_listB>",,html-keyboard-response,95,446207,0.0-13.0-1.16,1019,List1B,black,woman,,,,null,,,,
null,are arguing with each other,,html-keyboard-response,96,448211,0.0-13.0-2.16,1019,List1B,black,woman,,,,null,,,,
16682,,,survey-text,97,464896,0.0-13.0-3.16,1019,List1B,black,woman,,,,,"{""Q0"":""Beth and Jane are arguing with each other ""}","<img src=""stim_listB/argue8.gif""</stim_listB>",are arguing with each other,
null,"<div style=""font-size:60px;"">+</div>",,html-keyboard-response,98,465400,0.0-13.0-0.17,1019,List1B,black,woman,,,,null,,,,
null,"<img src=""stim_listB/dance1.gif""</stim_listB>",,html-keyboard-response,99,467408,0.0-13.0-1.17,1019,List1B,black,woman,,,,null,,,,
null,is dancing with,,html-keyboard-response,100,469412,0.0-13.0-2.17,1019,List1B,black,woman,,,,null,,,,
8786,,,survey-text,101,478200,0.0-13.0-3.17,1019,List1B,black,woman,,,,,"{""Q0"":""Fred is dancing with Kate ""}","<img src=""stim_listB/dance1.gif""</stim_listB>",is dancing with,
null,"<div style=""font-size:60px;"">+</div>",,html-keyboard-response,102,478704,0.0-13.0-0.18,1019,List1B,black,woman,,,,null,,,,
null,"<img src=""stim_listB/talk3.gif""</stim_listB>",,html-keyboard-response,103,480711,0.0-13.0-1.18,1019,List1B,black,woman,,,,null,,,,
null,is talking to,,html-keyboard-response,104,482716,0.0-13.0-2.18,1019,List1B,black,woman,,,,null,,,,
6813,,,survey-text,105,489533,0.0-13.0-3.18,1019,List1B,black,woman,,,,,"{""Q0"":""Jane is talking to Luke ""}","<img src=""stim_listB/talk3.gif""</stim_listB>",is talking to,
null,"<div style=""font-size:60px;"">+</div>",,html-keyboard-response,106,490036,0.0-13.0-0.19,1019,List1B,black,woman,,,,null,,,,
null,"<img src=""stim_listB/kiss2.gif""</stim_listB>",,html-keyboard-response,107,492042,0.0-13.0-1.19,1019,List1B,black,woman,,,,null,,,,
null,are kissing each other,,html-keyboard-response,108,494047,0.0-13.0-2.19,1019,List1B,black,woman,,,,null,,,,
9669,,,survey-text,109,503721,0.0-13.0-3.19,1019,List1B,black,woman,,,,,"{""Q0"":""Mike and Kate are kissing each other ""}","<img src=""stim_listB/kiss2.gif""</stim_listB>",are kissing each other,
14596,"<img src='img/portrait_matrix_list1.JPG' style='width:900px;height:500px;''></img><p>If you have memorised all the portraits and names and are ready to start, press Continue.</p><p><strong>Please note: Your memory of these faces will be tested 4 times during this experiment.</strong></p>",0,html-button-response,110,518323,0.0-14.0-0.0,1019,List1B,black,woman,,,,,,,,
6106,"<img src=""portrait/BW1.jpg""style=""width:400px;height:400px;""></img>",0,html-button-response,111,525439,0.0-14.0-1.0,1019,List1B,black,woman,,TRUE,0,,,,,
null,CORRECT,,html-keyboard-response,112,526944,0.0-14.0-2.0-0.0,1019,List1B,black,woman,,,,null,,,,
1671,"<img src=""portrait/WM2.jpg""style=""width:400px;height:400px;""></img>",7,html-button-response,113,528625,0.0-14.0-4.0,1019,List1B,black,woman,,TRUE,7,,,,,
null,CORRECT,,html-keyboard-response,114,530132,0.0-14.0-5.0-0.0,1019,List1B,black,woman,,,,null,,,,
5213,"<img src=""portrait/WW1.jpg""style=""width:400px;height:400px;""></img>",1,html-button-response,115,535356,0.0-14.0-7.0,1019,List1B,black,woman,,TRUE,1,,,,,
null,CORRECT,,html-keyboard-response,116,536860,0.0-14.0-8.0-0.0,1019,List1B,black,woman,,,,null,,,,
4344,"<img src=""portrait/WW2.jpg""style=""width:400px;height:400px;""></img>",3,html-button-response,117,541210,0.0-14.0-10.0,1019,List1B,black,woman,,TRUE,3,,,,,
null,CORRECT,,html-keyboard-response,118,542714,0.0-14.0-11.0-0.0,1019,List1B,black,woman,,,,null,,,,
4335,"<img src=""portrait/BW2.jpg""style=""width:400px;height:400px;""></img>",2,html-button-response,119,547060,0.0-14.0-13.0,1019,List1B,black,woman,,TRUE,2,,,,,
null,CORRECT,,html-keyboard-response,120,548564,0.0-14.0-14.0-0.0,1019,List1B,black,woman,,,,null,,,,
1750,"<img src=""portrait/BM1.jpg""style=""width:400px;height:400px;""></img>",4,html-button-response,121,550324,0.0-14.0-16.0,1019,List1B,black,woman,,TRUE,4,,,,,
null,CORRECT,,html-keyboard-response,122,551829,0.0-14.0-17.0-0.0,1019,List1B,black,woman,,,,null,,,,
6339,"<img src=""portrait/BM2.jpg""style=""width:400px;height:400px;""></img>",5,html-button-response,123,558178,0.0-14.0-19.0,1019,List1B,black,woman,,TRUE,5,,,,,
null,CORRECT,,html-keyboard-response,124,559682,0.0-14.0-20.0-0.0,1019,List1B,black,woman,,,,null,,,,
2601,"<img src=""portrait/WM1.jpg""style=""width:400px;height:400px;""></img>",6,html-button-response,125,562293,0.0-14.0-22.0,1019,List1B,black,woman,,TRUE,6,,,,,
null,CORRECT,,html-keyboard-response,126,563797,0.0-14.0-23.0-0.0,1019,List1B,black,woman,,,,null,,,,
1856,<p>You got 8 out of 8 right first time. Press Continue.</p>,0,html-button-response,127,565659,0.0-14.0-25.0,1019,List1B,black,woman,,,,,,,,
null,"<div style=""font-size:60px;"">+</div>",,html-keyboard-response,128,567163,0.0-15.0-0.0,1019,List1B,black,woman,,,,null,,,,
null,"<img src=""stim_listB/marry3.gif""</stim_listB>",,html-keyboard-response,129,569169,0.0-15.0-1.0,1019,List1B,black,woman,,,,null,,,,
null,is marrying,,html-keyboard-response,130,571173,0.0-15.0-2.0,1019,List1B,black,woman,,,,null,,,,
7616,,,survey-text,131,578793,0.0-15.0-3.0,1019,List1B,black,woman,,,,,"{""Q0"":""Ruth is marrying Dave ""}","<img src=""stim_listB/marry3.gif""</stim_listB>",is marrying,
null,"<div style=""font-size:60px;"">+</div>",,html-keyboard-response,132,579297,0.0-15.0-0.1,1019,List1B,black,woman,,,,null,,,,
null,"<img src=""stim_listB/dance6.gif""</stim_listB>",,html-keyboard-response,133,581305,0.0-15.0-1.1,1019,List1B,black,woman,,,,null,,,,
null,are dancing with each other,,html-keyboard-response,134,583309,0.0-15.0-2.1,1019,List1B,black,woman,,,,null,,,,
7549,,,survey-text,135,590861,0.0-15.0-3.1,1019,List1B,black,woman,,,,,"{""Q0"":""Mike and Luke are dancing with each other ""}","<img src=""stim_listB/dance6.gif""</stim_listB>",are dancing with each other,
null,"<div style=""font-size:60px;"">+</div>",,html-keyboard-response,136,591365,0.0-15.0-0.2,1019,List1B,black,woman,,,,null,,,,
null,"<img src=""stim_listB/meet4.gif""</stim_listB>",,html-keyboard-response,137,593373,0.0-15.0-1.2,1019,List1B,black,woman,,,,null,,,,
null,are meeting each other,,html-keyboard-response,138,595377,0.0-15.0-2.2,1019,List1B,black,woman,,,,null,,,,
8748,,,survey-text,139,604129,0.0-15.0-3.2,1019,List1B,black,woman,,,,,"{""Q0"":""Ruth and Luke are meeeting each other ""}","<img src=""stim_listB/meet4.gif""</stim_listB>",are meeting each other,
null,"<div style=""font-size:60px;"">+</div>",,html-keyboard-response,140,604633,0.0-15.0-0.3,1019,List1B,black,woman,,,,null,,,,
null,"<img src=""stim_listB/hug1.gif""</stim_listB>",,html-keyboard-response,141,606639,0.0-15.0-1.3,1019,List1B,black,woman,,,,null,,,,
null,is hugging,,html-keyboard-response,142,608643,0.0-15.0-2.3,1019,List1B,black,woman,,,,null,,,,
7000,,,survey-text,143,615646,0.0-15.0-3.3,1019,List1B,black,woman,,,,,"{""Q0"":""Beth and Fred is hugging ""}","<img src=""stim_listB/hug1.gif""</stim_listB>",is hugging,
null,"<div style=""font-size:60px;"">+</div>",,html-keyboard-response,144,616149,0.0-15.0-0.4,1019,List1B,black,woman,,,,null,,,,
null,"<img src=""stim_listB/meet1.gif""</stim_listB>",,html-keyboard-response,145,618155,0.0-15.0-1.4,1019,List1B,black,woman,,,,null,,,,
null,is meeting,,html-keyboard-response,146,620159,0.0-15.0-2.4,1019,List1B,black,woman,,,,null,,,,
5745,,,survey-text,147,625907,0.0-15.0-3.4,1019,List1B,black,woman,,,,,"{""Q0"":""Mike is meeting Kate ""}","<img src=""stim_listB/meet1.gif""</stim_listB>",is meeting,
null,"<div style=""font-size:60px;"">+</div>",,html-keyboard-response,148,626410,0.0-15.0-0.5,1019,List1B,black,woman,,,,null,,,,
null,"<img src=""stim_listB/fight5.gif""</stim_listB>",,html-keyboard-response,149,628416,0.0-15.0-1.5,1019,List1B,black,woman,,,,null,,,,
null,is fighting,,html-keyboard-response,150,630422,0.0-15.0-2.5,1019,List1B,black,woman,,,,null,,,,
6808,,,survey-text,151,637233,0.0-15.0-3.5,1019,List1B,black,woman,,,,,"{""Q0"":""Mike is fighting Dave ""}","<img src=""stim_listB/fight5.gif""</stim_listB>",is fighting,
null,"<div style=""font-size:60px;"">+</div>",,html-keyboard-response,152,637737,0.0-15.0-0.6,1019,List1B,black,woman,,,,null,,,,
null,"<img src=""stim_listB/talk6.gif""</stim_listB>",,html-keyboard-response,153,639744,0.0-15.0-1.6,1019,List1B,black,woman,,,,null,,,,
null,are talking to each other,,html-keyboard-response,154,641749,0.0-15.0-2.6,1019,List1B,black,woman,,,,null,,,,
7084,,,survey-text,155,648837,0.0-15.0-3.6,1019,List1B,black,woman,,,,,"{""Q0"":""Mike and Luke are talking to each other ""}","<img src=""stim_listB/talk6.gif""</stim_listB>",are talking to each other,
null,"<div style=""font-size:60px;"">+</div>",,html-keyboard-response,156,649341,0.0-15.0-0.7,1019,List1B,black,woman,,,,null,,,,
null,"<img src=""stim_listB/hug3.gif""</stim_listB>",,html-keyboard-response,157,651348,0.0-15.0-1.7,1019,List1B,black,woman,,,,null,,,,
null,is hugging,,html-keyboard-response,158,653352,0.0-15.0-2.7,1019,List1B,black,woman,,,,null,,,,
5500,,,survey-text,159,658856,0.0-15.0-3.7,1019,List1B,black,woman,,,,,"{""Q0"":""Luke and Ruth is hugging ""}","<img src=""stim_listB/hug3.gif""</stim_listB>",is hugging,
null,"<div style=""font-size:60px;"">+</div>",,html-keyboard-response,160,659362,0.0-15.0-0.8,1019,List1B,black,woman,,,,null,,,,
null,"<img src=""stim_listB/meet6.gif""</stim_listB>",,html-keyboard-response,161,661367,0.0-15.0-1.8,1019,List1B,black,woman,,,,null,,,,
null,are meeting each other,,html-keyboard-response,162,663372,0.0-15.0-2.8,1019,List1B,black,woman,,,,null,,,,
6827,,,survey-text,163,670203,0.0-15.0-3.8,1019,List1B,black,woman,,,,,"{""Q0"":""Fred and Luke are meeting each other ""}","<img src=""stim_listB/meet6.gif""</stim_listB>",are meeting each other,
null,"<div style=""font-size:60px;"">+</div>",,html-keyboard-response,164,670706,0.0-15.0-0.9,1019,List1B,black,woman,,,,null,,,,
null,"<img src=""stim_listB/argue4.gif""</stim_listB>",,html-keyboard-response,165,672715,0.0-15.0-1.9,1019,List1B,black,woman,,,,null,,,,
null,are arguing with each other,,html-keyboard-response,166,674719,0.0-15.0-2.9,1019,List1B,black,woman,,,,null,,,,
10252,,,survey-text,167,684975,0.0-15.0-3.9,1019,List1B,black,woman,,,,,"{""Q0"":""Jane and Luke are arguing with each other ""}","<img src=""stim_listB/argue4.gif""</stim_listB>",are arguing with each other,
null,"<div style=""font-size:60px;"">+</div>",,html-keyboard-response,168,685479,0.0-15.0-0.10,1019,List1B,black,woman,,,,null,,,,
null,"<img src=""stim_listB/dance8.gif""</stim_listB>",,html-keyboard-response,169,687486,0.0-15.0-1.10,1019,List1B,black,woman,,,,null,,,,
null,are dancing with each other,,html-keyboard-response,170,689490,0.0-15.0-2.10,1019,List1B,black,woman,,,,null,,,,
8299,,,survey-text,171,697793,0.0-15.0-3.10,1019,List1B,black,woman,,,,,"{""Q0"":""Kate and Ruth are dancing with each other ""}","<img src=""stim_listB/dance8.gif""</stim_listB>",are dancing with each other,
null,"<div style=""font-size:60px;"">+</div>",,html-keyboard-response,172,698297,0.0-15.0-0.11,1019,List1B,black,woman,,,,null,,,,
null,"<img src=""stim_listB/argue1.gif""</stim_listB>",,html-keyboard-response,173,700303,0.0-15.0-1.11,1019,List1B,black,woman,,,,null,,,,
null,is arguing with,,html-keyboard-response,174,702308,0.0-15.0-2.11,1019,List1B,black,woman,,,,null,,,,
6364,,,survey-text,175,708676,0.0-15.0-3.11,1019,List1B,black,woman,,,,,"{""Q0"":""Beth is arguing with mike ""}","<img src=""stim_listB/argue1.gif""</stim_listB>",is arguing with,
null,"<div style=""font-size:60px;"">+</div>",,html-keyboard-response,176,709179,0.0-15.0-0.12,1019,List1B,black,woman,,,,null,,,,
null,"<img src=""stim_listB/touch4.gif""</stim_listB>",,html-keyboard-response,177,711187,0.0-15.0-1.12,1019,List1B,black,woman,,,,null,,,,
null,are touching each other,,html-keyboard-response,178,713191,0.0-15.0-2.12,1019,List1B,black,woman,,,,null,,,,
9753,,,survey-text,179,722948,0.0-15.0-3.12,1019,List1B,black,woman,,,,,"{""Q0"":""Ruth and Luke are touching each other ""}","<img src=""stim_listB/touch4.gif""</stim_listB>",are touching each other,
null,"<div style=""font-size:60px;"">+</div>",,html-keyboard-response,180,723451,0.0-15.0-0.13,1019,List1B,black,woman,,,,null,,,,
null,"<img src=""stim_listB/touch5.gif""</stim_listB>",,html-keyboard-response,181,725457,0.0-15.0-1.13,1019,List1B,black,woman,,,,null,,,,
null,is touching,,html-keyboard-response,182,727462,0.0-15.0-2.13,1019,List1B,black,woman,,,,null,,,,
5169,,,survey-text,183,732635,0.0-15.0-3.13,1019,List1B,black,woman,,,,,"{""Q0"":""Dave and mike is touching ""}","<img src=""stim_listB/touch5.gif""</stim_listB>",is touching,
null,"<div style=""font-size:60px;"">+</div>",,html-keyboard-response,184,733138,0.0-15.0-0.14,1019,List1B,black,woman,,,,null,,,,
null,"<img src=""stim_listB/hug7.gif""</stim_listB>",,html-keyboard-response,185,735142,0.0-15.0-1.14,1019,List1B,black,woman,,,,null,,,,
null,is hugging,,html-keyboard-response,186,737146,0.0-15.0-2.14,1019,List1B,black,woman,,,,null,,,,
9690,,,survey-text,187,746844,0.0-15.0-3.14,1019,List1B,black,woman,,,,,"{""Q0"":""Beth and Ruth is hugging ""}","<img src=""stim_listB/hug7.gif""</stim_listB>",is hugging,
null,"<div style=""font-size:60px;"">+</div>",,html-keyboard-response,188,747346,0.0-15.0-0.15,1019,List1B,black,woman,,,,null,,,,
null,"<img src=""stim_listB/kiss1.gif""</stim_listB>",,html-keyboard-response,189,749352,0.0-15.0-1.15,1019,List1B,black,woman,,,,null,,,,
null,is kissing,,html-keyboard-response,190,751357,0.0-15.0-2.15,1019,List1B,black,woman,,,,null,,,,
5756,,,survey-text,191,757116,0.0-15.0-3.15,1019,List1B,black,woman,,,,,"{""Q0"":""Beth and Fred is kissing ""}","<img src=""stim_listB/kiss1.gif""</stim_listB>",is kissing,
null,"<div style=""font-size:60px;"">+</div>",,html-keyboard-response,192,757621,0.0-15.0-0.16,1019,List1B,black,woman,,,,null,,,,
null,"<img src=""stim_listB/shout3.gif""</stim_listB>",,html-keyboard-response,193,759628,0.0-15.0-1.16,1019,List1B,black,woman,,,,null,,,,
null,is shouting at,,html-keyboard-response,194,761632,0.0-15.0-2.16,1019,List1B,black,woman,,,,null,,,,
6425,,,survey-text,195,768060,0.0-15.0-3.16,1019,List1B,black,woman,,,,,"{""Q0"":""Ruth is shouting at Luke ""}","<img src=""stim_listB/shout3.gif""</stim_listB>",is shouting at,
null,"<div style=""font-size:60px;"">+</div>",,html-keyboard-response,196,768564,0.0-15.0-0.17,1019,List1B,black,woman,,,,null,,,,
null,"<img src=""stim_listB/talk2.gif""</stim_listB>",,html-keyboard-response,197,770569,0.0-15.0-1.17,1019,List1B,black,woman,,,,null,,,,
null,are talking to each other,,html-keyboard-response,198,772573,0.0-15.0-2.17,1019,List1B,black,woman,,,,null,,,,
7224,,,survey-text,199,779801,0.0-15.0-3.17,1019,List1B,black,woman,,,,,"{""Q0"":""Beth and mike are talking to each other ""}","<img src=""stim_listB/talk2.gif""</stim_listB>",are talking to each other,
null,"<div style=""font-size:60px;"">+</div>",,html-keyboard-response,200,780305,0.0-15.0-0.18,1019,List1B,black,woman,,,,null,,,,
null,"<img src=""stim_listB/talk4.gif""</stim_listB>",,html-keyboard-response,201,782313,0.0-15.0-1.18,1019,List1B,black,woman,,,,null,,,,
null,are talking to each other,,html-keyboard-response,202,784318,0.0-15.0-2.18,1019,List1B,black,woman,,,,null,,,,
8364,,,survey-text,203,792686,0.0-15.0-3.18,1019,List1B,black,woman,,,,,"{""Q0"":""Dave and Ruth are talking to each other ""}","<img src=""stim_listB/talk4.gif""</stim_listB>",are talking to each other,
null,"<div style=""font-size:60px;"">+</div>",,html-keyboard-response,204,793188,0.0-15.0-0.19,1019,List1B,black,woman,,,,null,,,,
null,"<img src=""stim_listB/argue6.gif""</stim_listB>",,html-keyboard-response,205,795195,0.0-15.0-1.19,1019,List1B,black,woman,,,,null,,,,
null,are arguing with each other,,html-keyboard-response,206,797199,0.0-15.0-2.19,1019,List1B,black,woman,,,,null,,,,
10251,,,survey-text,207,807455,0.0-15.0-3.19,1019,List1B,black,woman,,,,,"{""Q0"":""Fred and dave are arguing with each other ""}","<img src=""stim_listB/argue6.gif""</stim_listB>",are arguing with each other,
7333,"<img src='img/portrait_matrix_list1.JPG' style='width:900px;height:500px;''></img><p>If you have memorised all the portraits and names and are ready to start, press Continue.</p><p><strong>Please note: Your memory of these faces will be tested 4 times during this experiment.</strong></p>",0,html-button-response,208,814790,0.0-16.0-0.0,1019,List1B,black,woman,,,,,,,,
2128,"<img src=""portrait/WM2.jpg""style=""width:400px;height:400px;""></img>",7,html-button-response,209,817927,0.0-16.0-1.0,1019,List1B,black,woman,,TRUE,7,,,,,
null,CORRECT,,html-keyboard-response,210,819432,0.0-16.0-2.0-0.0,1019,List1B,black,woman,,,,null,,,,
2201,"<img src=""portrait/WM1.jpg""style=""width:400px;height:400px;""></img>",6,html-button-response,211,821640,0.0-16.0-4.0,1019,List1B,black,woman,,TRUE,6,,,,,
null,CORRECT,,html-keyboard-response,212,823145,0.0-16.0-5.0-0.0,1019,List1B,black,woman,,,,null,,,,
3188,"<img src=""portrait/BW2.jpg""style=""width:400px;height:400px;""></img>",2,html-button-response,213,826341,0.0-16.0-7.0,1019,List1B,black,woman,,TRUE,2,,,,,
null,CORRECT,,html-keyboard-response,214,827846,0.0-16.0-8.0-0.0,1019,List1B,black,woman,,,,null,,,,
2926,"<img src=""portrait/BW1.jpg""style=""width:400px;height:400px;""></img>",0,html-button-response,215,830780,0.0-16.0-10.0,1019,List1B,black,woman,,TRUE,0,,,,,
null,CORRECT,,html-keyboard-response,216,832284,0.0-16.0-11.0-0.0,1019,List1B,black,woman,,,,null,,,,
3419,"<img src=""portrait/BM2.jpg""style=""width:400px;height:400px;""></img>",5,html-button-response,217,835711,0.0-16.0-13.0,1019,List1B,black,woman,,TRUE,5,,,,,
null,CORRECT,,html-keyboard-response,218,837216,0.0-16.0-14.0-0.0,1019,List1B,black,woman,,,,null,,,,
5821,"<img src=""portrait/WW1.jpg""style=""width:400px;height:400px;""></img>",1,html-button-response,219,843045,0.0-16.0-16.0,1019,List1B,black,woman,,TRUE,1,,,,,
null,CORRECT,,html-keyboard-response,220,844549,0.0-16.0-17.0-0.0,1019,List1B,black,woman,,,,null,,,,
2104,"<img src=""portrait/WW2.jpg""style=""width:400px;height:400px;""></img>",3,html-button-response,221,846661,0.0-16.0-19.0,1019,List1B,black,woman,,TRUE,3,,,,,
null,CORRECT,,html-keyboard-response,222,848166,0.0-16.0-20.0-0.0,1019,List1B,black,woman,,,,null,,,,
2222,"<img src=""portrait/BM1.jpg""style=""width:400px;height:400px;""></img>",4,html-button-response,223,850396,0.0-16.0-22.0,1019,List1B,black,woman,,TRUE,4,,,,,
null,CORRECT,,html-keyboard-response,224,851901,0.0-16.0-23.0-0.0,1019,List1B,black,woman,,,,null,,,,
3489,<p>You got 8 out of 8 right first time. Press Continue.</p>,0,html-button-response,225,855395,0.0-16.0-25.0,1019,List1B,black,woman,,,,,,,,
null,"<div style=""font-size:60px;"">+</div>",,html-keyboard-response,226,856903,0.0-17.0-0.0,1019,List1B,black,woman,,,,null,,,,
null,"<img src=""stim_listB/shout5.gif""</stim_listB>",,html-keyboard-response,227,858911,0.0-17.0-1.0,1019,List1B,black,woman,,,,null,,,,
null,is shouting at,,html-keyboard-response,228,860916,0.0-17.0-2.0,1019,List1B,black,woman,,,,null,,,,
5736,,,survey-text,229,866657,0.0-17.0-3.0,1019,List1B,black,woman,,,,,"{""Q0"":""Fred is shouting at Luke ""}","<img src=""stim_listB/shout5.gif""</stim_listB>",is shouting at,
null,"<div style=""font-size:60px;"">+</div>",,html-keyboard-response,230,867160,0.0-17.0-0.1,1019,List1B,black,woman,,,,null,,,,
null,"<img src=""stim_listB/touch3.gif""</stim_listB>",,html-keyboard-response,231,869168,0.0-17.0-1.1,1019,List1B,black,woman,,,,null,,,,
null,is touching,,html-keyboard-response,232,871173,0.0-17.0-2.1,1019,List1B,black,woman,,,,null,,,,
5436,,,survey-text,233,876613,0.0-17.0-3.1,1019,List1B,black,woman,,,,,"{""Q0"":""Jane and Dave is touching""}","<img src=""stim_listB/touch3.gif""</stim_listB>",is touching,
null,"<div style=""font-size:60px;"">+</div>",,html-keyboard-response,234,877117,0.0-17.0-0.2,1019,List1B,black,woman,,,,null,,,,
null,"<img src=""stim_listB/fight4.gif""</stim_listB>",,html-keyboard-response,235,879125,0.0-17.0-1.2,1019,List1B,black,woman,,,,null,,,,
null,are fighting each other,,html-keyboard-response,236,881129,0.0-17.0-2.2,1019,List1B,black,woman,,,,null,,,,
9647,,,survey-text,237,890779,0.0-17.0-3.2,1019,List1B,black,woman,,,,,"{""Q0"":""Ruth and Luke is fighting each other ""}","<img src=""stim_listB/fight4.gif""</stim_listB>",are fighting each other,
null,"<div style=""font-size:60px;"">+</div>",,html-keyboard-response,238,891283,0.0-17.0-0.3,1019,List1B,black,woman,,,,null,,,,
null,"<img src=""stim_listB/fight6.gif""</stim_listB>",,html-keyboard-response,239,893293,0.0-17.0-1.3,1019,List1B,black,woman,,,,null,,,,
null,are fighting each other,,html-keyboard-response,240,895296,0.0-17.0-2.3,1019,List1B,black,woman,,,,null,,,,
7208,,,survey-text,241,902508,0.0-17.0-3.3,1019,List1B,black,woman,,,,,"{""Q0"":""Fred and Luke are fighting each other ""}","<img src=""stim_listB/fight6.gif""</stim_listB>",are fighting each other,
null,"<div style=""font-size:60px;"">+</div>",,html-keyboard-response,242,903012,0.0-17.0-0.4,1019,List1B,black,woman,,,,null,,,,
null,"<img src=""stim_listB/dance4.gif""</stim_listB>",,html-keyboard-response,243,905017,0.0-17.0-1.4,1019,List1B,black,woman,,,,null,,,,
null,are dancing with each other,,html-keyboard-response,244,907021,0.0-17.0-2.4,1019,List1B,black,woman,,,,null,,,,
8497,,,survey-text,245,915524,0.0-17.0-3.4,1019,List1B,black,woman,,,,,"{""Q0"":""Dave and Ruth are dancing with each other ""}","<img src=""stim_listB/dance4.gif""</stim_listB>",are dancing with each other,
null,"<div style=""font-size:60px;"">+</div>",,html-keyboard-response,246,916027,0.0-17.0-0.5,1019,List1B,black,woman,,,,null,,,,
null,"<img src=""stim_listB/shout7.gif""</stim_listB>",,html-keyboard-response,247,918032,0.0-17.0-1.5,1019,List1B,black,woman,,,,null,,,,
null,is shouting at,,html-keyboard-response,248,920038,0.0-17.0-2.5,1019,List1B,black,woman,,,,null,,,,
5293,,,survey-text,249,925335,0.0-17.0-3.5,1019,List1B,black,woman,,,,,"{""Q0"":""Beth is shouting at Ruth ""}","<img src=""stim_listB/shout7.gif""</stim_listB>",is shouting at,
null,"<div style=""font-size:60px;"">+</div>",,html-keyboard-response,250,925838,0.0-17.0-0.6,1019,List1B,black,woman,,,,null,,,,
null,"<img src=""stim_listB/meet5.gif""</stim_listB>",,html-keyboard-response,251,927846,0.0-17.0-1.6,1019,List1B,black,woman,,,,null,,,,
null,is meeting,,html-keyboard-response,252,929851,0.0-17.0-2.6,1019,List1B,black,woman,,,,null,,,,
6748,,,survey-text,253,936604,0.0-17.0-3.6,1019,List1B,black,woman,,,,,"{""Q0"":""Dave and mike is meeting ""}","<img src=""stim_listB/meet5.gif""</stim_listB>",is meeting,
null,"<div style=""font-size:60px;"">+</div>",,html-keyboard-response,254,937107,0.0-17.0-0.7,1019,List1B,black,woman,,,,null,,,,
null,"<img src=""stim_listB/meet2.gif""</stim_listB>",,html-keyboard-response,255,939115,0.0-17.0-1.7,1019,List1B,black,woman,,,,null,,,,
null,are meeting each other,,html-keyboard-response,256,941120,0.0-17.0-2.7,1019,List1B,black,woman,,,,null,,,,
7148,,,survey-text,257,948272,0.0-17.0-3.7,1019,List1B,black,woman,,,,,"{""Q0"":""Beth and Fred are meeting each other ""}","<img src=""stim_listB/meet2.gif""</stim_listB>",are meeting each other,
null,"<div style=""font-size:60px;"">+</div>",,html-keyboard-response,258,948775,0.0-17.0-0.8,1019,List1B,black,woman,,,,null,,,,
null,"<img src=""stim_listB/marry6.gif""</stim_listB>",,html-keyboard-response,259,950783,0.0-17.0-1.8,1019,List1B,black,woman,,,,null,,,,
null,are marrying each other,,html-keyboard-response,260,952788,0.0-17.0-2.8,1019,List1B,black,woman,,,,null,,,,
6928,,,survey-text,261,959720,0.0-17.0-3.8,1019,List1B,black,woman,,,,,"{""Q0"":""Fred and Dave are marrying each other ""}","<img src=""stim_listB/marry6.gif""</stim_listB>",are marrying each other,
null,"<div style=""font-size:60px;"">+</div>",,html-keyboard-response,262,960223,0.0-17.0-0.9,1019,List1B,black,woman,,,,null,,,,
null,"<img src=""stim_listB/touch8.gif""</stim_listB>",,html-keyboard-response,263,962231,0.0-17.0-1.9,1019,List1B,black,woman,,,,null,,,,
null,are touching each other,,html-keyboard-response,264,964235,0.0-17.0-2.9,1019,List1B,black,woman,,,,null,,,,
7184,,,survey-text,265,971423,0.0-17.0-3.9,1019,List1B,black,woman,,,,,"{""Q0"":""Beth and Ruth are touching each other ""}","<img src=""stim_listB/touch8.gif""</stim_listB>",are touching each other,
null,"<div style=""font-size:60px;"">+</div>",,html-keyboard-response,266,971926,0.0-17.0-0.10,1019,List1B,black,woman,,,,null,,,,
null,"<img src=""stim_listB/shout4.gif""</stim_listB>",,html-keyboard-response,267,973935,0.0-17.0-1.10,1019,List1B,black,woman,,,,null,,,,
null,are shouting at each other,,html-keyboard-response,268,975940,0.0-17.0-2.10,1019,List1B,black,woman,,,,null,,,,
7782,,,survey-text,269,983726,0.0-17.0-3.10,1019,List1B,black,woman,,,,,"{""Q0"":""Jane and Dave are shouting at each other ""}","<img src=""stim_listB/shout4.gif""</stim_listB>",are shouting at each other,
null,"<div style=""font-size:60px;"">+</div>",,html-keyboard-response,270,984229,0.0-17.0-0.11,1019,List1B,black,woman,,,,null,,,,
null,"<img src=""stim_listB/meet7.gif""</stim_listB>",,html-keyboard-response,271,986237,0.0-17.0-1.11,1019,List1B,black,woman,,,,null,,,,
null,is meeting,,html-keyboard-response,272,988242,0.0-17.0-2.11,1019,List1B,black,woman,,,,null,,,,
5618,,,survey-text,273,993864,0.0-17.0-3.11,1019,List1B,black,woman,,,,,"{""Q0"":""Jane and Kate is meeting ""}","<img src=""stim_listB/meet7.gif""</stim_listB>",is meeting,
null,"<div style=""font-size:60px;"">+</div>",,html-keyboard-response,274,994367,0.0-17.0-0.12,1019,List1B,black,woman,,,,null,,,,
null,"<img src=""stim_listB/argue5.gif""</stim_listB>",,html-keyboard-response,275,996374,0.0-17.0-1.12,1019,List1B,black,woman,,,,null,,,,
null,is arguing with,,html-keyboard-response,276,998379,0.0-17.0-2.12,1019,List1B,black,woman,,,,null,,,,
5217,,,survey-text,277,1003600,0.0-17.0-3.12,1019,List1B,black,woman,,,,,"{""Q0"":""Mike is arguing with Luke ""}","<img src=""stim_listB/argue5.gif""</stim_listB>",is arguing with,
null,"<div style=""font-size:60px;"">+</div>",,html-keyboard-response,278,1004104,0.0-17.0-0.13,1019,List1B,black,woman,,,,null,,,,
null,"<img src=""stim_listB/dance7.gif""</stim_listB>",,html-keyboard-response,279,1006109,0.0-17.0-1.13,1019,List1B,black,woman,,,,null,,,,
null,is dancing with,,html-keyboard-response,280,1008114,0.0-17.0-2.13,1019,List1B,black,woman,,,,null,,,,
4941,,,survey-text,281,1013059,0.0-17.0-3.13,1019,List1B,black,woman,,,,,"{""Q0"":""Jane is dancing with Beth ""}","<img src=""stim_listB/dance7.gif""</stim_listB>",is dancing with,
null,"<div style=""font-size:60px;"">+</div>",,html-keyboard-response,282,1013562,0.0-17.0-0.14,1019,List1B,black,woman,,,,null,,,,
null,"<img src=""stim_listB/talk5.gif""</stim_listB>",,html-keyboard-response,283,1015567,0.0-17.0-1.14,1019,List1B,black,woman,,,,null,,,,
null,is talking to,,html-keyboard-response,284,1017571,0.0-17.0-2.14,1019,List1B,black,woman,,,,null,,,,
4888,,,survey-text,285,1022464,0.0-17.0-3.14,1019,List1B,black,woman,,,,,"{""Q0"":""Fred is talking to Dave ""}","<img src=""stim_listB/talk5.gif""</stim_listB>",is talking to,
null,"<div style=""font-size:60px;"">+</div>",,html-keyboard-response,286,1022968,0.0-17.0-0.15,1019,List1B,black,woman,,,,null,,,,
null,"<img src=""stim_listB/shout8.gif""</stim_listB>",,html-keyboard-response,287,1024976,0.0-17.0-1.15,1019,List1B,black,woman,,,,null,,,,
null,are shouting at each other,,html-keyboard-response,288,1026981,0.0-17.0-2.15,1019,List1B,black,woman,,,,null,,,,
10460,,,survey-text,289,1037490,0.0-17.0-3.15,1019,List1B,black,woman,,,,,"{""Q0"":""Jane and Kate are talking to each other ""}","<img src=""stim_listB/shout8.gif""</stim_listB>",are shouting at each other,
null,"<div style=""font-size:60px;"">+</div>",,html-keyboard-response,290,1037994,0.0-17.0-0.16,1019,List1B,black,woman,,,,null,,,,
null,"<img src=""stim_listB/shout6.gif""</stim_listB>",,html-keyboard-response,291,1040000,0.0-17.0-1.16,1019,List1B,black,woman,,,,null,,,,
null,are shouting at each other,,html-keyboard-response,292,1042005,0.0-17.0-2.16,1019,List1B,black,woman,,,,null,,,,
7611,,,survey-text,293,1049620,0.0-17.0-3.16,1019,List1B,black,woman,,,,,"{""Q0"":""Mike and Dave are shouting at each other ""}","<img src=""stim_listB/shout6.gif""</stim_listB>",are shouting at each other,
null,"<div style=""font-size:60px;"">+</div>",,html-keyboard-response,294,1050124,0.0-17.0-0.17,1019,List1B,black,woman,,,,null,,,,
null,"<img src=""stim_listB/talk1.gif""</stim_listB>",,html-keyboard-response,295,1052131,0.0-17.0-1.17,1019,List1B,black,woman,,,,null,,,,
null,is talking to,,html-keyboard-response,296,1054136,0.0-17.0-2.17,1019,List1B,black,woman,,,,null,,,,
5009,,,survey-text,297,1059150,0.0-17.0-3.17,1019,List1B,black,woman,,,,,"{""Q0"":""Kate is talking to Fred ""}","<img src=""stim_listB/talk1.gif""</stim_listB>",is talking to,
null,"<div style=""font-size:60px;"">+</div>",,html-keyboard-response,298,1059654,0.0-17.0-0.18,1019,List1B,black,woman,,,,null,,,,
null,"<img src=""stim_listB/marry1.gif""</stim_listB>",,html-keyboard-response,299,1061663,0.0-17.0-1.18,1019,List1B,black,woman,,,,null,,,,
null,is marrying,,html-keyboard-response,300,1063668,0.0-17.0-2.18,1019,List1B,black,woman,,,,null,,,,
4630,,,survey-text,301,1068301,0.0-17.0-3.18,1019,List1B,black,woman,,,,,"{""Q0"":""Mike is marrying Beth ""}","<img src=""stim_listB/marry1.gif""</stim_listB>",is marrying,
null,"<div style=""font-size:60px;"">+</div>",,html-keyboard-response,302,1068804,0.0-17.0-0.19,1019,List1B,black,woman,,,,null,,,,
null,"<img src=""stim_listB/argue7.gif""</stim_listB>",,html-keyboard-response,303,1070810,0.0-17.0-1.19,1019,List1B,black,woman,,,,null,,,,
null,is arguing with,,html-keyboard-response,304,1072815,0.0-17.0-2.19,1019,List1B,black,woman,,,,null,,,,
6235,,,survey-text,305,1079056,0.0-17.0-3.19,1019,List1B,black,woman,,,,,"{""Q0"":""Kate is arguing with Ruth ""}","<img src=""stim_listB/argue7.gif""</stim_listB>",is arguing with,
23324,"<img src='img/portrait_matrix_list1.JPG' style='width:900px;height:500px;''></img><p>If you have memorised all the portraits and names and are ready to start, press Continue.</p><p><strong>Please note: Your memory of these faces will be tested 4 times during this experiment.</strong></p>",0,html-button-response,306,1102387,0.0-18.0-0.0,1019,List1B,black,woman,,,,,,,,
4265,"<img src=""portrait/BW1.jpg""style=""width:400px;height:400px;""></img>",0,html-button-response,307,1107663,0.0-18.0-1.0,1019,List1B,black,woman,,TRUE,0,,,,,
null,CORRECT,,html-keyboard-response,308,1109169,0.0-18.0-2.0-0.0,1019,List1B,black,woman,,,,null,,,,
2428,"<img src=""portrait/BM2.jpg""style=""width:400px;height:400px;""></img>",5,html-button-response,309,1111608,0.0-18.0-4.0,1019,List1B,black,woman,,TRUE,5,,,,,
null,CORRECT,,html-keyboard-response,310,1113113,0.0-18.0-5.0-0.0,1019,List1B,black,woman,,,,null,,,,
1841,"<img src=""portrait/BM1.jpg""style=""width:400px;height:400px;""></img>",4,html-button-response,311,1114961,0.0-18.0-7.0,1019,List1B,black,woman,,TRUE,4,,,,,
null,CORRECT,,html-keyboard-response,312,1116467,0.0-18.0-8.0-0.0,1019,List1B,black,woman,,,,null,,,,
3767,"<img src=""portrait/WW1.jpg""style=""width:400px;height:400px;""></img>",1,html-button-response,313,1120245,0.0-18.0-10.0,1019,List1B,black,woman,,TRUE,1,,,,,
null,CORRECT,,html-keyboard-response,314,1121750,0.0-18.0-11.0-0.0,1019,List1B,black,woman,,,,null,,,,
1700,"<img src=""portrait/BW2.jpg""style=""width:400px;height:400px;""></img>",2,html-button-response,315,1123460,0.0-18.0-13.0,1019,List1B,black,woman,,TRUE,2,,,,,
null,CORRECT,,html-keyboard-response,316,1124965,0.0-18.0-14.0-0.0,1019,List1B,black,woman,,,,null,,,,
1571,"<img src=""portrait/WM2.jpg""style=""width:400px;height:400px;""></img>",7,html-button-response,317,1126548,0.0-18.0-16.0,1019,List1B,black,woman,,TRUE,7,,,,,
null,CORRECT,,html-keyboard-response,318,1128059,0.0-18.0-17.0-0.0,1019,List1B,black,woman,,,,null,,,,
1711,"<img src=""portrait/WW2.jpg""style=""width:400px;height:400px;""></img>",3,html-button-response,319,1129776,0.0-18.0-19.0,1019,List1B,black,woman,,TRUE,3,,,,,
null,CORRECT,,html-keyboard-response,320,1131281,0.0-18.0-20.0-0.0,1019,List1B,black,woman,,,,null,,,,
2202,"<img src=""portrait/WM1.jpg""style=""width:400px;height:400px;""></img>",6,html-button-response,321,1133494,0.0-18.0-22.0,1019,List1B,black,woman,,TRUE,6,,,,,
null,CORRECT,,html-keyboard-response,322,1135000,0.0-18.0-23.0-0.0,1019,List1B,black,woman,,,,null,,,,
4504,<p>You got 8 out of 8 right first time. Press Continue.</p>,0,html-button-response,323,1139511,0.0-18.0-25.0,1019,List1B,black,woman,,,,,,,,
null,"<div style=""font-size:60px;"">+</div>",,html-keyboard-response,324,1141022,0.0-19.0-0.0,1019,List1B,black,woman,,,,null,,,,
null,"<img src=""stim_listB/kiss5.gif""</stim_listB>",,html-keyboard-response,325,1143029,0.0-19.0-1.0,1019,List1B,black,woman,,,,null,,,,
null,is kissing,,html-keyboard-response,326,1145041,0.0-19.0-2.0,1019,List1B,black,woman,,,,null,,,,
7986,,,survey-text,327,1153034,0.0-19.0-3.0,1019,List1B,black,woman,,,,,"{""Q0"":""Fred is kissing Luke ""}","<img src=""stim_listB/kiss5.gif""</stim_listB>",is kissing,
null,"<div style=""font-size:60px;"">+</div>",,html-keyboard-response,328,1153539,0.0-19.0-0.1,1019,List1B,black,woman,,,,null,,,,
null,"<img src=""stim_listB/kiss6.gif""</stim_listB>",,html-keyboard-response,329,1155544,0.0-19.0-1.1,1019,List1B,black,woman,,,,null,,,,
null,are kissing each other,,html-keyboard-response,330,1157549,0.0-19.0-2.1,1019,List1B,black,woman,,,,null,,,,
8463,,,survey-text,331,1166018,0.0-19.0-3.1,1019,List1B,black,woman,,,,,"{""Q0"":""Dave and mike are kissing each other ""}","<img src=""stim_listB/kiss6.gif""</stim_listB>",are kissing each other,
null,"<div style=""font-size:60px;"">+</div>",,html-keyboard-response,332,1166520,0.0-19.0-0.2,1019,List1B,black,woman,,,,null,,,,
null,"<img src=""stim_listB/marry8.gif""</stim_listB>",,html-keyboard-response,333,1168523,0.0-19.0-1.2,1019,List1B,black,woman,,,,null,,,,
null,are marrying each other,,html-keyboard-response,334,1170526,0.0-19.0-2.2,1019,List1B,black,woman,,,,null,,,,
8785,,,survey-text,335,1179315,0.0-19.0-3.2,1019,List1B,black,woman,,,,,"{""Q0"":""Jane and Kate are marrying each other ""}","<img src=""stim_listB/marry8.gif""</stim_listB>",are marrying each other,
null,"<div style=""font-size:60px;"">+</div>",,html-keyboard-response,336,1179818,0.0-19.0-0.3,1019,List1B,black,woman,,,,null,,,,
null,"<img src=""stim_listB/fight3.gif""</stim_listB>",,html-keyboard-response,337,1181824,0.0-19.0-1.3,1019,List1B,black,woman,,,,null,,,,
null,is fighting,,html-keyboard-response,338,1183829,0.0-19.0-2.3,1019,List1B,black,woman,,,,null,,,,
4415,,,survey-text,339,1188249,0.0-19.0-3.3,1019,List1B,black,woman,,,,,"{""Q0"":""Jane is fighting Dave ""}","<img src=""stim_listB/fight3.gif""</stim_listB>",is fighting,
null,"<div style=""font-size:60px;"">+</div>",,html-keyboard-response,340,1188753,0.0-19.0-0.4,1019,List1B,black,woman,,,,null,,,,
null,"<img src=""stim_listB/touch1.gif""</stim_listB>",,html-keyboard-response,341,1190759,0.0-19.0-1.4,1019,List1B,black,woman,,,,null,,,,
null,is touching,,html-keyboard-response,342,1192764,0.0-19.0-2.4,1019,List1B,black,woman,,,,null,,,,
5346,,,survey-text,343,1198115,0.0-19.0-3.4,1019,List1B,black,woman,,,,,"{""Q0"":""Mike is touching Kate ""}","<img src=""stim_listB/touch1.gif""</stim_listB>",is touching,
null,"<div style=""font-size:60px;"">+</div>",,html-keyboard-response,344,1198618,0.0-19.0-0.5,1019,List1B,black,woman,,,,null,,,,
null,"<img src=""stim_listB/argue2.gif""</stim_listB>",,html-keyboard-response,345,1200626,0.0-19.0-1.5,1019,List1B,black,woman,,,,null,,,,
null,are arguing with each other,,html-keyboard-response,346,1202631,0.0-19.0-2.5,1019,List1B,black,woman,,,,null,,,,
8002,,,survey-text,347,1210638,0.0-19.0-3.5,1019,List1B,black,woman,,,,,"{""Q0"":""Kate and Fred are arguing with each other ""}","<img src=""stim_listB/argue2.gif""</stim_listB>",are arguing with each other,
null,"<div style=""font-size:60px;"">+</div>",,html-keyboard-response,348,1211142,0.0-19.0-0.6,1019,List1B,black,woman,,,,null,,,,
null,"<img src=""stim_listB/marry5.gif""</stim_listB>",,html-keyboard-response,349,1213151,0.0-19.0-1.6,1019,List1B,black,woman,,,,null,,,,
null,is marrying,,html-keyboard-response,350,1215156,0.0-19.0-2.6,1019,List1B,black,woman,,,,null,,,,
5229,,,survey-text,351,1220391,0.0-19.0-3.6,1019,List1B,black,woman,,,,,"{""Q0"":""Luke is marrying mike ""}","<img src=""stim_listB/marry5.gif""</stim_listB>",is marrying,
null,"<div style=""font-size:60px;"">+</div>",,html-keyboard-response,352,1220896,0.0-19.0-0.7,1019,List1B,black,woman,,,,null,,,,
null,"<img src=""stim_listB/dance2.gif""</stim_listB>",,html-keyboard-response,353,1222902,0.0-19.0-1.7,1019,List1B,black,woman,,,,null,,,,
null,are dancing with each other,,html-keyboard-response,354,1224907,0.0-19.0-2.7,1019,List1B,black,woman,,,,null,,,,
7794,,,survey-text,355,1232705,0.0-19.0-3.7,1019,List1B,black,woman,,,,,"{""Q0"":""Beth and mike is dancing with each other ""}","<img src=""stim_listB/dance2.gif""</stim_listB>",are dancing with each other,
null,"<div style=""font-size:60px;"">+</div>",,html-keyboard-response,356,1233209,0.0-19.0-0.8,1019,List1B,black,woman,,,,null,,,,
null,"<img src=""stim_listB/kiss3.gif""</stim_listB>",,html-keyboard-response,357,1235213,0.0-19.0-1.8,1019,List1B,black,woman,,,,null,,,,
null,is kissing,,html-keyboard-response,358,1237218,0.0-19.0-2.8,1019,List1B,black,woman,,,,null,,,,
4889,,,survey-text,359,1242110,0.0-19.0-3.8,1019,List1B,black,woman,,,,,"{""Q0"":""Ruth and Luke is kissing ""}","<img src=""stim_listB/kiss3.gif""</stim_listB>",is kissing,
null,"<div style=""font-size:60px;"">+</div>",,html-keyboard-response,360,1242614,0.0-19.0-0.9,1019,List1B,black,woman,,,,null,,,,
null,"<img src=""stim_listB/touch2.gif""</stim_listB>",,html-keyboard-response,361,1244622,0.0-19.0-1.9,1019,List1B,black,woman,,,,null,,,,
null,are touching each other,,html-keyboard-response,362,1246628,0.0-19.0-2.9,1019,List1B,black,woman,,,,null,,,,
8043,,,survey-text,363,1254675,0.0-19.0-3.9,1019,List1B,black,woman,,,,,"{""Q0"":""Beth and Fred are touching each other ""}","<img src=""stim_listB/touch2.gif""</stim_listB>",are touching each other,
null,"<div style=""font-size:60px;"">+</div>",,html-keyboard-response,364,1255179,0.0-19.0-0.10,1019,List1B,black,woman,,,,null,,,,
null,"<img src=""stim_listB/meet3.gif""</stim_listB>",,html-keyboard-response,365,1257188,0.0-19.0-1.10,1019,List1B,black,woman,,,,null,,,,
null,is meeting,,html-keyboard-response,366,1259192,0.0-19.0-2.10,1019,List1B,black,woman,,,,null,,,,
5748,,,survey-text,367,1264944,0.0-19.0-3.10,1019,List1B,black,woman,,,,,"{""Q0"":""Jane and Dave is meeting""}","<img src=""stim_listB/meet3.gif""</stim_listB>",is meeting,
null,"<div style=""font-size:60px;"">+</div>",,html-keyboard-response,368,1265448,0.0-19.0-0.11,1019,List1B,black,woman,,,,null,,,,
null,"<img src=""stim_listB/fight7.gif""</stim_listB>",,html-keyboard-response,369,1267454,0.0-19.0-1.11,1019,List1B,black,woman,,,,null,,,,
null,is fighting,,html-keyboard-response,370,1269460,0.0-19.0-2.11,1019,List1B,black,woman,,,,null,,,,
5863,,,survey-text,371,1275327,0.0-19.0-3.11,1019,List1B,black,woman,,,,,"{""Q0"":""Jane and Kate is fighting ""}","<img src=""stim_listB/fight7.gif""</stim_listB>",is fighting,
null,"<div style=""font-size:60px;"">+</div>",,html-keyboard-response,372,1275831,0.0-19.0-0.12,1019,List1B,black,woman,,,,null,,,,
null,"<img src=""stim_listB/fight2.gif""</stim_listB>",,html-keyboard-response,373,1277839,0.0-19.0-1.12,1019,List1B,black,woman,,,,null,,,,
null,are fighting each other,,html-keyboard-response,374,1279845,0.0-19.0-2.12,1019,List1B,black,woman,,,,null,,,,
7178,,,survey-text,375,1287027,0.0-19.0-3.12,1019,List1B,black,woman,,,,,"{""Q0"":""Beth and Fred are fighting each other ""}","<img src=""stim_listB/fight2.gif""</stim_listB>",are fighting each other,
null,"<div style=""font-size:60px;"">+</div>",,html-keyboard-response,376,1287531,0.0-19.0-0.13,1019,List1B,black,woman,,,,null,,,,
null,"<img src=""stim_listB/fight8.gif""</stim_listB>",,html-keyboard-response,377,1289540,0.0-19.0-1.13,1019,List1B,black,woman,,,,null,,,,
null,are fighting each other,,html-keyboard-response,378,1291545,0.0-19.0-2.13,1019,List1B,black,woman,,,,null,,,,
6662,,,survey-text,379,1298212,0.0-19.0-3.13,1019,List1B,black,woman,,,,,"{""Q0"":""Beth and Ruth are fighting each other ""}","<img src=""stim_listB/fight8.gif""</stim_listB>",are fighting each other,
null,"<div style=""font-size:60px;"">+</div>",,html-keyboard-response,380,1298717,0.0-19.0-0.14,1019,List1B,black,woman,,,,null,,,,
null,"<img src=""stim_listB/fight1.gif""</stim_listB>",,html-keyboard-response,381,1300725,0.0-19.0-1.14,1019,List1B,black,woman,,,,null,,,,
null,is fighting,,html-keyboard-response,382,1302731,0.0-19.0-2.14,1019,List1B,black,woman,,,,null,,,,
5917,,,survey-text,383,1308653,0.0-19.0-3.14,1019,List1B,black,woman,,,,,"{""Q0"":""Kate and mike is fighting ""}","<img src=""stim_listB/fight1.gif""</stim_listB>",is fighting,
null,"<div style=""font-size:60px;"">+</div>",,html-keyboard-response,384,1309160,0.0-19.0-0.15,1019,List1B,black,woman,,,,null,,,,
null,"<img src=""stim_listB/hug5.gif""</stim_listB>",,html-keyboard-response,385,1311168,0.0-19.0-1.15,1019,List1B,black,woman,,,,null,,,,
null,is hugging,,html-keyboard-response,386,1313173,0.0-19.0-2.15,1019,List1B,black,woman,,,,null,,,,
4988,,,survey-text,387,1318165,0.0-19.0-3.15,1019,List1B,black,woman,,,,,"{""Q0"":""Luke and Fred is hugging ""}","<img src=""stim_listB/hug5.gif""</stim_listB>",is hugging,
null,"<div style=""font-size:60px;"">+</div>",,html-keyboard-response,388,1318674,0.0-19.0-0.16,1019,List1B,black,woman,,,,null,,,,
null,"<img src=""stim_listB/meet8.gif""</stim_listB>",,html-keyboard-response,389,1320682,0.0-19.0-1.16,1019,List1B,black,woman,,,,null,,,,
null,are meeting each other,,html-keyboard-response,390,1322686,0.0-19.0-2.16,1019,List1B,black,woman,,,,null,,,,
6425,,,survey-text,391,1329116,0.0-19.0-3.16,1019,List1B,black,woman,,,,,"{""Q0"":""Beth and Ruth are meeting each other ""}","<img src=""stim_listB/meet8.gif""</stim_listB>",are meeting each other,
null,"<div style=""font-size:60px;"">+</div>",,html-keyboard-response,392,1329620,0.0-19.0-0.17,1019,List1B,black,woman,,,,null,,,,
null,"<img src=""stim_listB/marry4.gif""</stim_listB>",,html-keyboard-response,393,1331626,0.0-19.0-1.17,1019,List1B,black,woman,,,,null,,,,
null,are marrying each other,,html-keyboard-response,394,1333632,0.0-19.0-2.17,1019,List1B,black,woman,,,,null,,,,
6681,,,survey-text,395,1340317,0.0-19.0-3.17,1019,List1B,black,woman,,,,,"{""Q0"":""Jane and Luke are marrying each other ""}","<img src=""stim_listB/marry4.gif""</stim_listB>",are marrying each other,
null,"<div style=""font-size:60px;"">+</div>",,html-keyboard-response,396,1340821,0.0-19.0-0.18,1019,List1B,black,woman,,,,null,,,,
null,"<img src=""stim_listB/touch7.gif""</stim_listB>",,html-keyboard-response,397,1342828,0.0-19.0-1.18,1019,List1B,black,woman,,,,null,,,,
null,is touching,,html-keyboard-response,398,1344832,0.0-19.0-2.18,1019,List1B,black,woman,,,,null,,,,
4682,,,survey-text,399,1349519,0.0-19.0-3.18,1019,List1B,black,woman,,,,,"{""Q0"":""Jane and Kate is touching ""}","<img src=""stim_listB/touch7.gif""</stim_listB>",is touching,
null,"<div style=""font-size:60px;"">+</div>",,html-keyboard-response,400,1350023,0.0-19.0-0.19,1019,List1B,black,woman,,,,null,,,,
null,"<img src=""stim_listB/dance3.gif""</stim_listB>",,html-keyboard-response,401,1352031,0.0-19.0-1.19,1019,List1B,black,woman,,,,null,,,,
null,is dancing with,,html-keyboard-response,402,1354036,0.0-19.0-2.19,1019,List1B,black,woman,,,,null,,,,
6379,,,survey-text,403,1360420,0.0-19.0-3.19,1019,List1B,black,woman,,,,,"{""Q0"":""Jane is dancing with Luke ""}","<img src=""stim_listB/dance3.gif""</stim_listB>",is dancing with,
3183,<p>Thank you for completing that task.</p><p>The final part of this session is a short questionnaire.</p><p>Press Continue.</p>,0,html-button-response,404,1363607,0.0-20.0,1019,List1B,black,woman,,,,,,,,
17144,,,survey-text,405,1381759,0.0-21.0,1019,List1B,black,woman,,,,,"{""Q0"":""22"",""Q1"":""English "",""Q2"":""English "",""Q3"":""United States "",""Q4"":"""",""Q5"":""Female ""}",,,demographics
35211,,,survey-likert,406,1416993,0.0-22.0,1019,List1B,black,woman,,,,,"{""Q0"":6,""Q1"":"""",""Q2"":6,""Q3"":6,""Q4"":6,""Q5"":6,""Q6"":6,""Q7"":5,""Q8"":3,""Q9"":3,""Q10"":4,""Q11"":4,""Q12"":4,""Q13"":3}",,,likert_race
35548,,,survey-likert,407,1452548,0.0-23.0,1019,List1B,black,woman,,,,,"{""Q0"":6,""Q1"":6,""Q2"":5,""Q3"":6,""Q4"":6,""Q5"":6,""Q6"":6,""Q7"":6,""Q8"":6,""Q9"":6,""Q10"":4,""Q11"":6,""Q12"":3,""Q13"":3}",,,likert_gender
5305,,,survey-text,408,1457857,0.0-24.0,1019,List1B,black,woman,,,,,"{""Q0"":""ccc""}",,,worker_id
25850,,,external-html,409,1484080,0.0-25.0,1019,List1B,black,woman,debrief.html,,,,,,,
