rt,stimulus,button_pressed,trial_type,trial_index,time_elapsed,internal_node_id,subject,list,ppt_race,ppt_gender,url,first_guess,correct,key_press,responses,image_type,phrase_type,test_part
1739,Welcome to the experiment. Press Continue to begin.,0,html-button-response,0,1748,0.0-0.0,10770,List2B,black,man,,,,,,,,
6831,,,external-html,1,9695,0.0-1.0,10770,List2B,black,man,consent.html,,,,,,,
5910,"<p>On the next page, you will see portraits of 8 people and their names.</p><p>Your first task is to take a few minutes to memorise the names of these people.</p><p>You will have to recall their names during the rest of the experiment, so it is</p><p>essential that you try to memorise these people and their names as best as you can.</p><br><p><strong>You will then be tested on your memory of these names and portraits.</strong></p><br><p>The experiment will start after you have completed this memory test.</p><br><p>Ready?</p>",0,html-button-response,2,15608,0.0-2.0,10770,List2B,black,man,,,,,,,,
5560,"<img src='img/portrait_matrix_list2.JPG' style='width:900px;height:500px;''></img><p>If you have memorised all the portraits and names and are ready to start, press Continue.</p><p><strong>Please note: Your memory of these faces will be tested 4 times during this experiment.</strong></p>",0,html-button-response,3,22171,0.0-3.0-0.0,10770,List2B,black,man,,,,,,,,
5082,"<img src=""portrait/WW1.jpg""style=""width:400px;height:400px;""></img>",3,html-button-response,4,28256,0.0-3.0-1.0,10770,List2B,black,man,,TRUE,1,,,,,
7002,"<img src=""portrait/WW1.jpg""style=""width:400px;height:400px;""></img>",1,html-button-response,5,36264,0.0-3.0-3.0-0.0,10770,List2B,black,man,,FALSE,1,,,,,
null,CORRECT,,html-keyboard-response,6,37766,0.0-3.0-3.0-1.0-0.0,10770,List2B,black,man,,,,null,,,,
1886,"<img src=""portrait/BM2.jpg""style=""width:400px;height:400px;""></img>",5,html-button-response,7,39654,0.0-3.0-4.0,10770,List2B,black,man,,TRUE,5,,,,,
null,CORRECT,,html-keyboard-response,8,41156,0.0-3.0-5.0-0.0,10770,List2B,black,man,,,,null,,,,
5638,"<img src=""portrait/WM2.jpg""style=""width:400px;height:400px;""></img>",7,html-button-response,9,46796,0.0-3.0-7.0,10770,List2B,black,man,,TRUE,7,,,,,
null,CORRECT,,html-keyboard-response,10,48298,0.0-3.0-8.0-0.0,10770,List2B,black,man,,,,null,,,,
5769,"<img src=""portrait/BW1.jpg""style=""width:400px;height:400px;""></img>",0,html-button-response,11,54068,0.0-3.0-10.0,10770,List2B,black,man,,TRUE,0,,,,,
null,CORRECT,,html-keyboard-response,12,55570,0.0-3.0-11.0-0.0,10770,List2B,black,man,,,,null,,,,
3867,"<img src=""portrait/BW2.jpg""style=""width:400px;height:400px;""></img>",2,html-button-response,13,59440,0.0-3.0-13.0,10770,List2B,black,man,,TRUE,2,,,,,
null,CORRECT,,html-keyboard-response,14,60944,0.0-3.0-14.0-0.0,10770,List2B,black,man,,,,null,,,,
10240,"<img src=""portrait/BM1.jpg""style=""width:400px;height:400px;""></img>",4,html-button-response,15,71186,0.0-3.0-16.0,10770,List2B,black,man,,TRUE,4,,,,,
null,CORRECT,,html-keyboard-response,16,72690,0.0-3.0-17.0-0.0,10770,List2B,black,man,,,,null,,,,
8707,"<img src=""portrait/WW2.jpg""style=""width:400px;height:400px;""></img>",3,html-button-response,17,81399,0.0-3.0-19.0,10770,List2B,black,man,,TRUE,3,,,,,
null,CORRECT,,html-keyboard-response,18,82902,0.0-3.0-20.0-0.0,10770,List2B,black,man,,,,null,,,,
4101,"<img src=""portrait/WM1.jpg""style=""width:400px;height:400px;""></img>",6,html-button-response,19,87006,0.0-3.0-22.0,10770,List2B,black,man,,TRUE,6,,,,,
null,CORRECT,,html-keyboard-response,20,88510,0.0-3.0-23.0-0.0,10770,List2B,black,man,,,,null,,,,
1367,<p>You got 7 out of 8 right first time. Press Continue.</p>,0,html-button-response,21,89879,0.0-3.0-25.0,10770,List2B,black,man,,,,,,,,
2139,"As you did not score 100%, the memory game will repeat. Press Continue.",0,html-button-response,22,93022,0.0-3.0-26.0-0.0,10770,List2B,black,man,,,,,,,,
5065,"<img src='img/portrait_matrix_list2.JPG' style='width:900px;height:500px;''></img><p>If you have memorised all the portraits and names and are ready to start, press Continue.</p><p><strong>Please note: Your memory of these faces will be tested 4 times during this experiment.</strong></p>",0,html-button-response,23,99091,0.0-3.1-0.1,10770,List2B,black,man,,,,,,,,
6028,"<img src=""portrait/WW1.jpg""style=""width:400px;height:400px;""></img>",1,html-button-response,24,106122,0.0-3.1-1.1,10770,List2B,black,man,,TRUE,1,,,,,
null,CORRECT,,html-keyboard-response,25,107623,0.0-3.1-2.1-0.1,10770,List2B,black,man,,,,null,,,,
1958,"<img src=""portrait/BM2.jpg""style=""width:400px;height:400px;""></img>",5,html-button-response,26,109584,0.0-3.1-4.1,10770,List2B,black,man,,TRUE,5,,,,,
null,CORRECT,,html-keyboard-response,27,111086,0.0-3.1-5.1-0.1,10770,List2B,black,man,,,,null,,,,
3894,"<img src=""portrait/WM2.jpg""style=""width:400px;height:400px;""></img>",7,html-button-response,28,114982,0.0-3.1-7.1,10770,List2B,black,man,,TRUE,7,,,,,
null,CORRECT,,html-keyboard-response,29,116484,0.0-3.1-8.1-0.1,10770,List2B,black,man,,,,null,,,,
1886,"<img src=""portrait/BW1.jpg""style=""width:400px;height:400px;""></img>",0,html-button-response,30,118372,0.0-3.1-10.1,10770,List2B,black,man,,TRUE,0,,,,,
null,CORRECT,,html-keyboard-response,31,119873,0.0-3.1-11.1-0.1,10770,List2B,black,man,,,,null,,,,
1866,"<img src=""portrait/BW2.jpg""style=""width:400px;height:400px;""></img>",2,html-button-response,32,121741,0.0-3.1-13.1,10770,List2B,black,man,,TRUE,2,,,,,
null,CORRECT,,html-keyboard-response,33,123242,0.0-3.1-14.1-0.1,10770,List2B,black,man,,,,null,,,,
2058,"<img src=""portrait/BM1.jpg""style=""width:400px;height:400px;""></img>",4,html-button-response,34,125303,0.0-3.1-16.1,10770,List2B,black,man,,TRUE,4,,,,,
null,CORRECT,,html-keyboard-response,35,126805,0.0-3.1-17.1-0.1,10770,List2B,black,man,,,,null,,,,
3011,"<img src=""portrait/WW2.jpg""style=""width:400px;height:400px;""></img>",3,html-button-response,36,129818,0.0-3.1-19.1,10770,List2B,black,man,,TRUE,3,,,,,
null,CORRECT,,html-keyboard-response,37,131320,0.0-3.1-20.1-0.1,10770,List2B,black,man,,,,null,,,,
3091,"<img src=""portrait/WM1.jpg""style=""width:400px;height:400px;""></img>",6,html-button-response,38,134413,0.0-3.1-22.1,10770,List2B,black,man,,TRUE,6,,,,,
null,CORRECT,,html-keyboard-response,39,135915,0.0-3.1-23.1-0.1,10770,List2B,black,man,,,,null,,,,
1542,<p>You got 8 out of 8 right first time. Press Continue.</p>,0,html-button-response,40,137458,0.0-3.1-25.1,10770,List2B,black,man,,,,,,,,
50645,"<p>In this experiment, you will view photographs of the people from the memory game interacting.</p><p>By using the <strong>exact</strong> phrase given <i>after</i> the photograph appears and recalling the correct names of the people in the photographs, form a sentence describing the interaction. You do not need to capitalise names.</p><p>Type your answer in the space provided. Please complete every sentence before moving onto the next trial.</p><p>You will only have a few seconds to memorise each given photograph and phrase before you can respond, so try your best to focus.</p><p>An example is given below. Press 'Continue' when you are ready.</p><img src='img/speaking_example_v2.jpg' style='width:800px;height:460px;''></img>",0,html-button-response,41,189106,0.0-4.0,10770,List2B,black,man,,,,,,,,
2026,"<p>Before the experiment starts, you will watch two example trials. Press 'Continue'.</p>",0,html-button-response,42,192135,0.0-5.0,10770,List2B,black,man,,,,,,,,
null,<img src='img/speaking_WW.gif'></img>,,html-keyboard-response,43,195141,0.0-6.0,10770,List2B,black,man,,,,null,,,,
null,<p>is speaking to</p>,,html-keyboard-response,44,197141,0.0-7.0,10770,List2B,black,man,,,,null,,,,
5197,<p><b>Answer:</b> jane is speaking to ruth</p>,0,html-button-response,45,202340,0.0-8.0,10770,List2B,black,man,,,,,,,,
null,<img src='img/pointing_BM.gif'></img>,,html-keyboard-response,46,205344,0.0-9.0,10770,List2B,black,man,,,,null,,,,
null,<p>are pointing at each other</p>,,html-keyboard-response,47,207345,0.0-10.0,10770,List2B,black,man,,,,null,,,,
3127,<p><b>Answer:</b> fred and mike are pointing at each other</p>,0,html-button-response,48,210472,0.0-11.0,10770,List2B,black,man,,,,,,,,
3850,"<p>Ready to start the experiment?</p><br><p><strong>Remember to describe the picture using a full sentence,</strong></p><p><strong>that combines the names of the people with the given phrase.</strong></p><p><strong>If you do not do this correctly you will not be paid.</strong></p><p><strong> You do not need to capitalise names or use punctuation.</strong></p><br><p>Press 'Continue' to begin.</p>",0,html-button-response,49,215324,0.0-12.0,10770,List2B,black,man,,,,,,,,
null,"<div style=""font-size:60px;"">+</div>",,html-keyboard-response,50,216828,0.0-13.0-0.0,10770,List2B,black,man,,,,null,,,,
null,"<img src=""stim_listB/marry8.gif""</stim_listB>",,html-keyboard-response,51,218830,0.0-13.0-1.0,10770,List2B,black,man,,,,null,,,,
null,are marrying each other,,html-keyboard-response,52,220831,0.0-13.0-2.0,10770,List2B,black,man,,,,null,,,,
19929,,,survey-text,53,240762,0.0-13.0-3.0,10770,List2B,black,man,,,,,"{""Q0"":""kate and ruth are marrying each other""}","<img src=""stim_listB/marry8.gif""</stim_listB>",are marrying each other,
null,"<div style=""font-size:60px;"">+</div>",,html-keyboard-response,54,241263,0.0-13.0-0.1,10770,List2B,black,man,,,,null,,,,
null,"<img src=""stim_listB/hug5.gif""</stim_listB>",,html-keyboard-response,55,243265,0.0-13.0-1.1,10770,List2B,black,man,,,,null,,,,
null,is hugging,,html-keyboard-response,56,245266,0.0-13.0-2.1,10770,List2B,black,man,,,,null,,,,
11291,,,survey-text,57,256558,0.0-13.0-3.1,10770,List2B,black,man,,,,,"{""Q0"":""fred is hugging luke""}","<img src=""stim_listB/hug5.gif""</stim_listB>",is hugging,
null,"<div style=""font-size:60px;"">+</div>",,html-keyboard-response,58,257060,0.0-13.0-0.2,10770,List2B,black,man,,,,null,,,,
null,"<img src=""stim_listB/dance8.gif""</stim_listB>",,html-keyboard-response,59,259061,0.0-13.0-1.2,10770,List2B,black,man,,,,null,,,,
null,are dancing with each other,,html-keyboard-response,60,261063,0.0-13.0-2.2,10770,List2B,black,man,,,,null,,,,
10273,,,survey-text,61,271337,0.0-13.0-3.2,10770,List2B,black,man,,,,,"{""Q0"":""jane and beth are dancing with each other""}","<img src=""stim_listB/dance8.gif""</stim_listB>",are dancing with each other,
null,"<div style=""font-size:60px;"">+</div>",,html-keyboard-response,62,271840,0.0-13.0-0.3,10770,List2B,black,man,,,,null,,,,
null,"<img src=""stim_listB/marry3.gif""</stim_listB>",,html-keyboard-response,63,273841,0.0-13.0-1.3,10770,List2B,black,man,,,,null,,,,
null,is marrying,,html-keyboard-response,64,275844,0.0-13.0-2.3,10770,List2B,black,man,,,,null,,,,
10103,,,survey-text,65,285949,0.0-13.0-3.3,10770,List2B,black,man,,,,,"{""Q0"":""mike is marrying beth""}","<img src=""stim_listB/marry3.gif""</stim_listB>",is marrying,
null,"<div style=""font-size:60px;"">+</div>",,html-keyboard-response,66,286451,0.0-13.0-0.4,10770,List2B,black,man,,,,null,,,,
null,"<img src=""stim_listB/argue5.gif""</stim_listB>",,html-keyboard-response,67,288453,0.0-13.0-1.4,10770,List2B,black,man,,,,null,,,,
null,is arguing with,,html-keyboard-response,68,290455,0.0-13.0-2.4,10770,List2B,black,man,,,,null,,,,
17052,,,survey-text,69,307509,0.0-13.0-3.4,10770,List2B,black,man,,,,,"{""Q0"":""fred is arguing with dave""}","<img src=""stim_listB/argue5.gif""</stim_listB>",is arguing with,
null,"<div style=""font-size:60px;"">+</div>",,html-keyboard-response,70,308012,0.0-13.0-0.5,10770,List2B,black,man,,,,null,,,,
null,"<img src=""stim_listB/argue7.gif""</stim_listB>",,html-keyboard-response,71,310014,0.0-13.0-1.5,10770,List2B,black,man,,,,null,,,,
null,is arguing with,,html-keyboard-response,72,312016,0.0-13.0-2.5,10770,List2B,black,man,,,,null,,,,
14943,,,survey-text,73,326960,0.0-13.0-3.5,10770,List2B,black,man,,,,,"{""Q0"":""jane is arguing with beth""}","<img src=""stim_listB/argue7.gif""</stim_listB>",is arguing with,
null,"<div style=""font-size:60px;"">+</div>",,html-keyboard-response,74,327461,0.0-13.0-0.6,10770,List2B,black,man,,,,null,,,,
null,"<img src=""stim_listB/shout2.gif""</stim_listB>",,html-keyboard-response,75,329463,0.0-13.0-1.6,10770,List2B,black,man,,,,null,,,,
null,are shouting at each other,,html-keyboard-response,76,331464,0.0-13.0-2.6,10770,List2B,black,man,,,,null,,,,
9004,,,survey-text,77,340468,0.0-13.0-3.6,10770,List2B,black,man,,,,,"{""Q0"":""dave and jane are shouting at each other""}","<img src=""stim_listB/shout2.gif""</stim_listB>",are shouting at each other,
null,"<div style=""font-size:60px;"">+</div>",,html-keyboard-response,78,340971,0.0-13.0-0.7,10770,List2B,black,man,,,,null,,,,
null,"<img src=""stim_listB/marry1.gif""</stim_listB>",,html-keyboard-response,79,342973,0.0-13.0-1.7,10770,List2B,black,man,,,,null,,,,
null,is marrying,,html-keyboard-response,80,344976,0.0-13.0-2.7,10770,List2B,black,man,,,,null,,,,
14421,,,survey-text,81,359398,0.0-13.0-3.7,10770,List2B,black,man,,,,,"{""Q0"":""dave is marrying ruth""}","<img src=""stim_listB/marry1.gif""</stim_listB>",is marrying,
null,"<div style=""font-size:60px;"">+</div>",,html-keyboard-response,82,359901,0.0-13.0-0.8,10770,List2B,black,man,,,,null,,,,
null,"<img src=""stim_listB/meet5.gif""</stim_listB>",,html-keyboard-response,83,361903,0.0-13.0-1.8,10770,List2B,black,man,,,,null,,,,
null,is meeting,,html-keyboard-response,84,363903,0.0-13.0-2.8,10770,List2B,black,man,,,,null,,,,
4924,,,survey-text,85,368829,0.0-13.0-3.8,10770,List2B,black,man,,,,,"{""Q0"":""dave is meeting mike""}","<img src=""stim_listB/meet5.gif""</stim_listB>",is meeting,
null,"<div style=""font-size:60px;"">+</div>",,html-keyboard-response,86,369330,0.0-13.0-0.9,10770,List2B,black,man,,,,null,,,,
null,"<img src=""stim_listB/dance4.gif""</stim_listB>",,html-keyboard-response,87,371333,0.0-13.0-1.9,10770,List2B,black,man,,,,null,,,,
null,are dancing with each other,,html-keyboard-response,88,373334,0.0-13.0-2.9,10770,List2B,black,man,,,,null,,,,
10860,,,survey-text,89,384196,0.0-13.0-3.9,10770,List2B,black,man,,,,,"{""Q0"":""beth and mike are dancing with each other""}","<img src=""stim_listB/dance4.gif""</stim_listB>",are dancing with each other,
null,"<div style=""font-size:60px;"">+</div>",,html-keyboard-response,90,384698,0.0-13.0-0.10,10770,List2B,black,man,,,,null,,,,
null,"<img src=""stim_listB/meet8.gif""</stim_listB>",,html-keyboard-response,91,386700,0.0-13.0-1.10,10770,List2B,black,man,,,,null,,,,
null,are meeting each other,,html-keyboard-response,92,388702,0.0-13.0-2.10,10770,List2B,black,man,,,,null,,,,
26896,,,survey-text,93,415598,0.0-13.0-3.10,10770,List2B,black,man,,,,,"{""Q0"":""beth and ruth are meeting each other""}","<img src=""stim_listB/meet8.gif""</stim_listB>",are meeting each other,
null,"<div style=""font-size:60px;"">+</div>",,html-keyboard-response,94,416100,0.0-13.0-0.11,10770,List2B,black,man,,,,null,,,,
null,"<img src=""stim_listB/touch6.gif""</stim_listB>",,html-keyboard-response,95,418102,0.0-13.0-1.11,10770,List2B,black,man,,,,null,,,,
null,are touching each other,,html-keyboard-response,96,420103,0.0-13.0-2.11,10770,List2B,black,man,,,,null,,,,
14025,,,survey-text,97,434129,0.0-13.0-3.11,10770,List2B,black,man,,,,,"{""Q0"":""fred and luke are touching each other""}","<img src=""stim_listB/touch6.gif""</stim_listB>",are touching each other,
null,"<div style=""font-size:60px;"">+</div>",,html-keyboard-response,98,434631,0.0-13.0-0.12,10770,List2B,black,man,,,,null,,,,
null,"<img src=""stim_listB/hug7.gif""</stim_listB>",,html-keyboard-response,99,436632,0.0-13.0-1.12,10770,List2B,black,man,,,,null,,,,
null,is hugging,,html-keyboard-response,100,438633,0.0-13.0-2.12,10770,List2B,black,man,,,,null,,,,
20304,,,survey-text,101,458937,0.0-13.0-3.12,10770,List2B,black,man,,,,,"{""Q0"":""beth is hugging ruth""}","<img src=""stim_listB/hug7.gif""</stim_listB>",is hugging,
null,"<div style=""font-size:60px;"">+</div>",,html-keyboard-response,102,459439,0.0-13.0-0.13,10770,List2B,black,man,,,,null,,,,
null,"<img src=""stim_listB/hug2.gif""</stim_listB>",,html-keyboard-response,103,461442,0.0-13.0-1.13,10770,List2B,black,man,,,,null,,,,
null,are hugging each other,,html-keyboard-response,104,463443,0.0-13.0-2.13,10770,List2B,black,man,,,,null,,,,
25932,,,survey-text,105,489376,0.0-13.0-3.13,10770,List2B,black,man,,,,,"{""Q0"":""dave and jane are hugging each other""}","<img src=""stim_listB/hug2.gif""</stim_listB>",are hugging each other,
null,"<div style=""font-size:60px;"">+</div>",,html-keyboard-response,106,489880,0.0-13.0-0.14,10770,List2B,black,man,,,,null,,,,
null,"<img src=""stim_listB/fight3.gif""</stim_listB>",,html-keyboard-response,107,491881,0.0-13.0-1.14,10770,List2B,black,man,,,,null,,,,
null,is fighting,,html-keyboard-response,108,493883,0.0-13.0-2.14,10770,List2B,black,man,,,,null,,,,
5249,,,survey-text,109,499132,0.0-13.0-3.14,10770,List2B,black,man,,,,,"{""Q0"":""kate is fighting mike""}","<img src=""stim_listB/fight3.gif""</stim_listB>",is fighting,
null,"<div style=""font-size:60px;"">+</div>",,html-keyboard-response,110,499633,0.0-13.0-0.15,10770,List2B,black,man,,,,null,,,,
null,"<img src=""stim_listB/meet3.gif""</stim_listB>",,html-keyboard-response,111,501635,0.0-13.0-1.15,10770,List2B,black,man,,,,null,,,,
null,is meeting,,html-keyboard-response,112,503635,0.0-13.0-2.15,10770,List2B,black,man,,,,null,,,,
4668,,,survey-text,113,508303,0.0-13.0-3.15,10770,List2B,black,man,,,,,"{""Q0"":""kate is meeting mike""}","<img src=""stim_listB/meet3.gif""</stim_listB>",is meeting,
null,"<div style=""font-size:60px;"">+</div>",,html-keyboard-response,114,508805,0.0-13.0-0.16,10770,List2B,black,man,,,,null,,,,
null,"<img src=""stim_listB/argue4.gif""</stim_listB>",,html-keyboard-response,115,510806,0.0-13.0-1.16,10770,List2B,black,man,,,,null,,,,
null,are arguing with each other,,html-keyboard-response,116,512807,0.0-13.0-2.16,10770,List2B,black,man,,,,null,,,,
13951,,,survey-text,117,526759,0.0-13.0-3.16,10770,List2B,black,man,,,,,"{""Q0"":""fred and kate are arguing with each other""}","<img src=""stim_listB/argue4.gif""</stim_listB>",are arguing with each other,
null,"<div style=""font-size:60px;"">+</div>",,html-keyboard-response,118,527261,0.0-13.0-0.17,10770,List2B,black,man,,,,null,,,,
null,"<img src=""stim_listB/touch8.gif""</stim_listB>",,html-keyboard-response,119,529264,0.0-13.0-1.17,10770,List2B,black,man,,,,null,,,,
null,are touching each other,,html-keyboard-response,120,531266,0.0-13.0-2.17,10770,List2B,black,man,,,,null,,,,
9678,,,survey-text,121,540944,0.0-13.0-3.17,10770,List2B,black,man,,,,,"{""Q0"":""ruth and beth are touching each other""}","<img src=""stim_listB/touch8.gif""</stim_listB>",are touching each other,
null,"<div style=""font-size:60px;"">+</div>",,html-keyboard-response,122,541445,0.0-13.0-0.18,10770,List2B,black,man,,,,null,,,,
null,"<img src=""stim_listB/kiss2.gif""</stim_listB>",,html-keyboard-response,123,543445,0.0-13.0-1.18,10770,List2B,black,man,,,,null,,,,
null,are kissing each other,,html-keyboard-response,124,545446,0.0-13.0-2.18,10770,List2B,black,man,,,,null,,,,
11788,,,survey-text,125,557234,0.0-13.0-3.18,10770,List2B,black,man,,,,,"{""Q0"":""dave and jane are kissing each other""}","<img src=""stim_listB/kiss2.gif""</stim_listB>",are kissing each other,
null,"<div style=""font-size:60px;"">+</div>",,html-keyboard-response,126,557736,0.0-13.0-0.19,10770,List2B,black,man,,,,null,,,,
null,"<img src=""stim_listB/fight1.gif""</stim_listB>",,html-keyboard-response,127,559737,0.0-13.0-1.19,10770,List2B,black,man,,,,null,,,,
null,is fighting,,html-keyboard-response,128,561738,0.0-13.0-2.19,10770,List2B,black,man,,,,null,,,,
5113,,,survey-text,129,566852,0.0-13.0-3.19,10770,List2B,black,man,,,,,"{""Q0"":""dave is fighting jane""}","<img src=""stim_listB/fight1.gif""</stim_listB>",is fighting,
16207,"<img src='img/portrait_matrix_list2.JPG' style='width:900px;height:500px;''></img><p>If you have memorised all the portraits and names and are ready to start, press Continue.</p><p><strong>Please note: Your memory of these faces will be tested 4 times during this experiment.</strong></p>",0,html-button-response,130,583063,0.0-14.0-0.0,10770,List2B,black,man,,,,,,,,
2997,"<img src=""portrait/BW2.jpg""style=""width:400px;height:400px;""></img>",2,html-button-response,131,587063,0.0-14.0-1.0,10770,List2B,black,man,,TRUE,2,,,,,
null,CORRECT,,html-keyboard-response,132,588566,0.0-14.0-2.0-0.0,10770,List2B,black,man,,,,null,,,,
7086,"<img src=""portrait/BM1.jpg""style=""width:400px;height:400px;""></img>",4,html-button-response,133,595654,0.0-14.0-4.0,10770,List2B,black,man,,TRUE,4,,,,,
null,CORRECT,,html-keyboard-response,134,597158,0.0-14.0-5.0-0.0,10770,List2B,black,man,,,,null,,,,
8941,"<img src=""portrait/BW1.jpg""style=""width:400px;height:400px;""></img>",0,html-button-response,135,606101,0.0-14.0-7.0,10770,List2B,black,man,,TRUE,0,,,,,
null,CORRECT,,html-keyboard-response,136,607603,0.0-14.0-8.0-0.0,10770,List2B,black,man,,,,null,,,,
2800,"<img src=""portrait/WM1.jpg""style=""width:400px;height:400px;""></img>",6,html-button-response,137,610405,0.0-14.0-10.0,10770,List2B,black,man,,TRUE,6,,,,,
null,CORRECT,,html-keyboard-response,138,611906,0.0-14.0-11.0-0.0,10770,List2B,black,man,,,,null,,,,
1755,"<img src=""portrait/WM2.jpg""style=""width:400px;height:400px;""></img>",7,html-button-response,139,613663,0.0-14.0-13.0,10770,List2B,black,man,,TRUE,7,,,,,
null,CORRECT,,html-keyboard-response,140,615164,0.0-14.0-14.0-0.0,10770,List2B,black,man,,,,null,,,,
2410,"<img src=""portrait/BM2.jpg""style=""width:400px;height:400px;""></img>",5,html-button-response,141,617575,0.0-14.0-16.0,10770,List2B,black,man,,TRUE,5,,,,,
null,CORRECT,,html-keyboard-response,142,619079,0.0-14.0-17.0-0.0,10770,List2B,black,man,,,,null,,,,
2957,"<img src=""portrait/WW1.jpg""style=""width:400px;height:400px;""></img>",2,html-button-response,143,622039,0.0-14.0-19.0,10770,List2B,black,man,,TRUE,1,,,,,
7068,"<img src=""portrait/WW1.jpg""style=""width:400px;height:400px;""></img>",1,html-button-response,144,630108,0.0-14.0-21.0-0.0,10770,List2B,black,man,,FALSE,1,,,,,
null,CORRECT,,html-keyboard-response,145,631611,0.0-14.0-21.0-1.0-0.0,10770,List2B,black,man,,,,null,,,,
2416,"<img src=""portrait/WW2.jpg""style=""width:400px;height:400px;""></img>",3,html-button-response,146,634030,0.0-14.0-22.0,10770,List2B,black,man,,TRUE,3,,,,,
null,CORRECT,,html-keyboard-response,147,635534,0.0-14.0-23.0-0.0,10770,List2B,black,man,,,,null,,,,
930,<p>You got 7 out of 8 right first time. Press Continue.</p>,0,html-button-response,148,636466,0.0-14.0-25.0,10770,List2B,black,man,,,,,,,,
1060,"As you did not score 100%, the memory game will repeat. Press Continue.",0,html-button-response,149,638528,0.0-14.0-26.0-0.0,10770,List2B,black,man,,,,,,,,
2031,"<img src='img/portrait_matrix_list2.JPG' style='width:900px;height:500px;''></img><p>If you have memorised all the portraits and names and are ready to start, press Continue.</p><p><strong>Please note: Your memory of these faces will be tested 4 times during this experiment.</strong></p>",0,html-button-response,150,641560,0.0-14.1-0.1,10770,List2B,black,man,,,,,,,,
1412,"<img src=""portrait/BW2.jpg""style=""width:400px;height:400px;""></img>",2,html-button-response,151,643975,0.0-14.1-1.1,10770,List2B,black,man,,TRUE,2,,,,,
null,CORRECT,,html-keyboard-response,152,645478,0.0-14.1-2.1-0.1,10770,List2B,black,man,,,,null,,,,
1995,"<img src=""portrait/BM1.jpg""style=""width:400px;height:400px;""></img>",4,html-button-response,153,647475,0.0-14.1-4.1,10770,List2B,black,man,,TRUE,4,,,,,
null,CORRECT,,html-keyboard-response,154,648977,0.0-14.1-5.1-0.1,10770,List2B,black,man,,,,null,,,,
3944,"<img src=""portrait/BW1.jpg""style=""width:400px;height:400px;""></img>",0,html-button-response,155,652922,0.0-14.1-7.1,10770,List2B,black,man,,TRUE,0,,,,,
null,CORRECT,,html-keyboard-response,156,654425,0.0-14.1-8.1-0.1,10770,List2B,black,man,,,,null,,,,
2650,"<img src=""portrait/WM1.jpg""style=""width:400px;height:400px;""></img>",6,html-button-response,157,657077,0.0-14.1-10.1,10770,List2B,black,man,,TRUE,6,,,,,
null,CORRECT,,html-keyboard-response,158,658580,0.0-14.1-11.1-0.1,10770,List2B,black,man,,,,null,,,,
1214,"<img src=""portrait/WM2.jpg""style=""width:400px;height:400px;""></img>",7,html-button-response,159,659794,0.0-14.1-13.1,10770,List2B,black,man,,TRUE,7,,,,,
null,CORRECT,,html-keyboard-response,160,661297,0.0-14.1-14.1-0.1,10770,List2B,black,man,,,,null,,,,
2004,"<img src=""portrait/BM2.jpg""style=""width:400px;height:400px;""></img>",5,html-button-response,161,663302,0.0-14.1-16.1,10770,List2B,black,man,,TRUE,5,,,,,
null,CORRECT,,html-keyboard-response,162,664804,0.0-14.1-17.1-0.1,10770,List2B,black,man,,,,null,,,,
3903,"<img src=""portrait/WW1.jpg""style=""width:400px;height:400px;""></img>",1,html-button-response,163,668709,0.0-14.1-19.1,10770,List2B,black,man,,TRUE,1,,,,,
null,CORRECT,,html-keyboard-response,164,670212,0.0-14.1-20.1-0.1,10770,List2B,black,man,,,,null,,,,
1776,"<img src=""portrait/WW2.jpg""style=""width:400px;height:400px;""></img>",3,html-button-response,165,671990,0.0-14.1-22.1,10770,List2B,black,man,,TRUE,3,,,,,
null,CORRECT,,html-keyboard-response,166,673492,0.0-14.1-23.1-0.1,10770,List2B,black,man,,,,null,,,,
1051,<p>You got 8 out of 8 right first time. Press Continue.</p>,0,html-button-response,167,674544,0.0-14.1-25.1,10770,List2B,black,man,,,,,,,,
null,"<div style=""font-size:60px;"">+</div>",,html-keyboard-response,168,676047,0.0-15.0-0.0,10770,List2B,black,man,,,,null,,,,
null,"<img src=""stim_listB/marry5.gif""</stim_listB>",,html-keyboard-response,169,678049,0.0-15.0-1.0,10770,List2B,black,man,,,,null,,,,
null,is marrying,,html-keyboard-response,170,680051,0.0-15.0-2.0,10770,List2B,black,man,,,,null,,,,
6939,,,survey-text,171,686991,0.0-15.0-3.0,10770,List2B,black,man,,,,,"{""Q0"":""fred is marrying dave""}","<img src=""stim_listB/marry5.gif""</stim_listB>",is marrying,
null,"<div style=""font-size:60px;"">+</div>",,html-keyboard-response,172,687492,0.0-15.0-0.1,10770,List2B,black,man,,,,null,,,,
null,"<img src=""stim_listB/argue3.gif""</stim_listB>",,html-keyboard-response,173,689495,0.0-15.0-1.1,10770,List2B,black,man,,,,null,,,,
null,is arguing with,,html-keyboard-response,174,691495,0.0-15.0-2.1,10770,List2B,black,man,,,,null,,,,
14009,,,survey-text,175,705505,0.0-15.0-3.1,10770,List2B,black,man,,,,,"{""Q0"":""mike is arguing with beth""}","<img src=""stim_listB/argue3.gif""</stim_listB>",is arguing with,
null,"<div style=""font-size:60px;"">+</div>",,html-keyboard-response,176,706007,0.0-15.0-0.2,10770,List2B,black,man,,,,null,,,,
null,"<img src=""stim_listB/fight4.gif""</stim_listB>",,html-keyboard-response,177,708007,0.0-15.0-1.2,10770,List2B,black,man,,,,null,,,,
null,are fighting each other,,html-keyboard-response,178,710009,0.0-15.0-2.2,10770,List2B,black,man,,,,null,,,,
7585,,,survey-text,179,717597,0.0-15.0-3.2,10770,List2B,black,man,,,,,"{""Q0"":""fred and beth are fighting each other""}","<img src=""stim_listB/fight4.gif""</stim_listB>",are fighting each other,
null,"<div style=""font-size:60px;"">+</div>",,html-keyboard-response,180,718099,0.0-15.0-0.3,10770,List2B,black,man,,,,null,,,,
null,"<img src=""stim_listB/touch7.gif""</stim_listB>",,html-keyboard-response,181,720100,0.0-15.0-1.3,10770,List2B,black,man,,,,null,,,,
null,is touching,,html-keyboard-response,182,722102,0.0-15.0-2.3,10770,List2B,black,man,,,,null,,,,
4541,,,survey-text,183,726643,0.0-15.0-3.3,10770,List2B,black,man,,,,,"{""Q0"":""kate is touching jane""}","<img src=""stim_listB/touch7.gif""</stim_listB>",is touching,
null,"<div style=""font-size:60px;"">+</div>",,html-keyboard-response,184,727145,0.0-15.0-0.4,10770,List2B,black,man,,,,null,,,,
null,"<img src=""stim_listB/talk8.gif""</stim_listB>",,html-keyboard-response,185,729146,0.0-15.0-1.4,10770,List2B,black,man,,,,null,,,,
null,are talking to each other,,html-keyboard-response,186,731147,0.0-15.0-2.4,10770,List2B,black,man,,,,null,,,,
13670,,,survey-text,187,744821,0.0-15.0-3.4,10770,List2B,black,man,,,,,"{""Q0"":""beth is touching jane""}","<img src=""stim_listB/talk8.gif""</stim_listB>",are talking to each other,
null,"<div style=""font-size:60px;"">+</div>",,html-keyboard-response,188,745322,0.0-15.0-0.5,10770,List2B,black,man,,,,null,,,,
null,"<img src=""stim_listB/kiss7.gif""</stim_listB>",,html-keyboard-response,189,747323,0.0-15.0-1.5,10770,List2B,black,man,,,,null,,,,
null,is kissing,,html-keyboard-response,190,749326,0.0-15.0-2.5,10770,List2B,black,man,,,,null,,,,
7885,,,survey-text,191,757212,0.0-15.0-3.5,10770,List2B,black,man,,,,,"{""Q0"":""beth is kissing ruth""}","<img src=""stim_listB/kiss7.gif""</stim_listB>",is kissing,
null,"<div style=""font-size:60px;"">+</div>",,html-keyboard-response,192,757714,0.0-15.0-0.6,10770,List2B,black,man,,,,null,,,,
null,"<img src=""stim_listB/talk2.gif""</stim_listB>",,html-keyboard-response,193,759715,0.0-15.0-1.6,10770,List2B,black,man,,,,null,,,,
null,are talking to each other,,html-keyboard-response,194,761716,0.0-15.0-2.6,10770,List2B,black,man,,,,null,,,,
16664,,,survey-text,195,778381,0.0-15.0-3.6,10770,List2B,black,man,,,,,"{""Q0"":""dave and ruth are talking to each other""}","<img src=""stim_listB/talk2.gif""</stim_listB>",are talking to each other,
null,"<div style=""font-size:60px;"">+</div>",,html-keyboard-response,196,778881,0.0-15.0-0.7,10770,List2B,black,man,,,,null,,,,
null,"<img src=""stim_listB/marry4.gif""</stim_listB>",,html-keyboard-response,197,780883,0.0-15.0-1.7,10770,List2B,black,man,,,,null,,,,
null,are marrying each other,,html-keyboard-response,198,782884,0.0-15.0-2.7,10770,List2B,black,man,,,,null,,,,
6798,,,survey-text,199,789682,0.0-15.0-3.7,10770,List2B,black,man,,,,,"{""Q0"":""kate and fred are marrying each other""}","<img src=""stim_listB/marry4.gif""</stim_listB>",are marrying each other,
null,"<div style=""font-size:60px;"">+</div>",,html-keyboard-response,200,790183,0.0-15.0-0.8,10770,List2B,black,man,,,,null,,,,
null,"<img src=""stim_listB/fight7.gif""</stim_listB>",,html-keyboard-response,201,792185,0.0-15.0-1.8,10770,List2B,black,man,,,,null,,,,
null,is fighting,,html-keyboard-response,202,794188,0.0-15.0-2.8,10770,List2B,black,man,,,,null,,,,
5828,,,survey-text,203,800018,0.0-15.0-3.8,10770,List2B,black,man,,,,,"{""Q0"":""jane is fighting kate""}","<img src=""stim_listB/fight7.gif""</stim_listB>",is fighting,
null,"<div style=""font-size:60px;"">+</div>",,html-keyboard-response,204,800521,0.0-15.0-0.9,10770,List2B,black,man,,,,null,,,,
null,"<img src=""stim_listB/dance5.gif""</stim_listB>",,html-keyboard-response,205,802522,0.0-15.0-1.9,10770,List2B,black,man,,,,null,,,,
null,is dancing with,,html-keyboard-response,206,804524,0.0-15.0-2.9,10770,List2B,black,man,,,,null,,,,
4760,,,survey-text,207,809284,0.0-15.0-3.9,10770,List2B,black,man,,,,,"{""Q0"":""luke is dancing with mike""}","<img src=""stim_listB/dance5.gif""</stim_listB>",is dancing with,
null,"<div style=""font-size:60px;"">+</div>",,html-keyboard-response,208,809785,0.0-15.0-0.10,10770,List2B,black,man,,,,null,,,,
null,"<img src=""stim_listB/argue1.gif""</stim_listB>",,html-keyboard-response,209,811787,0.0-15.0-1.10,10770,List2B,black,man,,,,null,,,,
null,is arguing with,,html-keyboard-response,210,813788,0.0-15.0-2.10,10770,List2B,black,man,,,,null,,,,
8993,,,survey-text,211,822782,0.0-15.0-3.10,10770,List2B,black,man,,,,,"{""Q0"":""dave is arguing with ruth""}","<img src=""stim_listB/argue1.gif""</stim_listB>",is arguing with,
null,"<div style=""font-size:60px;"">+</div>",,html-keyboard-response,212,823286,0.0-15.0-0.11,10770,List2B,black,man,,,,null,,,,
null,"<img src=""stim_listB/marry6.gif""</stim_listB>",,html-keyboard-response,213,825288,0.0-15.0-1.11,10770,List2B,black,man,,,,null,,,,
null,are marrying each other,,html-keyboard-response,214,827288,0.0-15.0-2.11,10770,List2B,black,man,,,,null,,,,
9312,,,survey-text,215,836602,0.0-15.0-3.11,10770,List2B,black,man,,,,,"{""Q0"":""mike and luke are marrying each other""}","<img src=""stim_listB/marry6.gif""</stim_listB>",are marrying each other,
null,"<div style=""font-size:60px;"">+</div>",,html-keyboard-response,216,837104,0.0-15.0-0.12,10770,List2B,black,man,,,,null,,,,
null,"<img src=""stim_listB/hug8.gif""</stim_listB>",,html-keyboard-response,217,839105,0.0-15.0-1.12,10770,List2B,black,man,,,,null,,,,
null,are hugging each other,,html-keyboard-response,218,841106,0.0-15.0-2.12,10770,List2B,black,man,,,,null,,,,
8019,,,survey-text,219,849126,0.0-15.0-3.12,10770,List2B,black,man,,,,,"{""Q0"":""kate and jane are hugging each other""}","<img src=""stim_listB/hug8.gif""</stim_listB>",are hugging each other,
null,"<div style=""font-size:60px;"">+</div>",,html-keyboard-response,220,849628,0.0-15.0-0.13,10770,List2B,black,man,,,,null,,,,
null,"<img src=""stim_listB/dance3.gif""</stim_listB>",,html-keyboard-response,221,851628,0.0-15.0-1.13,10770,List2B,black,man,,,,null,,,,
null,is dancing with,,html-keyboard-response,222,853631,0.0-15.0-2.13,10770,List2B,black,man,,,,null,,,,
5213,,,survey-text,223,858844,0.0-15.0-3.13,10770,List2B,black,man,,,,,"{""Q0"":""kate is dancing with fred""}","<img src=""stim_listB/dance3.gif""</stim_listB>",is dancing with,
null,"<div style=""font-size:60px;"">+</div>",,html-keyboard-response,224,859347,0.0-15.0-0.14,10770,List2B,black,man,,,,null,,,,
null,"<img src=""stim_listB/kiss1.gif""</stim_listB>",,html-keyboard-response,225,861348,0.0-15.0-1.14,10770,List2B,black,man,,,,null,,,,
null,is kissing,,html-keyboard-response,226,863350,0.0-15.0-2.14,10770,List2B,black,man,,,,null,,,,
14312,,,survey-text,227,877663,0.0-15.0-3.14,10770,List2B,black,man,,,,,"{""Q0"":""luke is kissing ruth""}","<img src=""stim_listB/kiss1.gif""</stim_listB>",is kissing,
null,"<div style=""font-size:60px;"">+</div>",,html-keyboard-response,228,878165,0.0-15.0-0.15,10770,List2B,black,man,,,,null,,,,
null,"<img src=""stim_listB/meet6.gif""</stim_listB>",,html-keyboard-response,229,880167,0.0-15.0-1.15,10770,List2B,black,man,,,,null,,,,
null,are meeting each other,,html-keyboard-response,230,882170,0.0-15.0-2.15,10770,List2B,black,man,,,,null,,,,
11446,,,survey-text,231,893618,0.0-15.0-3.15,10770,List2B,black,man,,,,,"{""Q0"":""luke and fred are meeting with each other""}","<img src=""stim_listB/meet6.gif""</stim_listB>",are meeting each other,
null,"<div style=""font-size:60px;"">+</div>",,html-keyboard-response,232,894120,0.0-15.0-0.16,10770,List2B,black,man,,,,null,,,,
null,"<img src=""stim_listB/fight6.gif""</stim_listB>",,html-keyboard-response,233,896120,0.0-15.0-1.16,10770,List2B,black,man,,,,null,,,,
null,are fighting each other,,html-keyboard-response,234,898121,0.0-15.0-2.16,10770,List2B,black,man,,,,null,,,,
7455,,,survey-text,235,905578,0.0-15.0-3.16,10770,List2B,black,man,,,,,"{""Q0"":""luke and fred are fighting with each other""}","<img src=""stim_listB/fight6.gif""</stim_listB>",are fighting each other,
null,"<div style=""font-size:60px;"">+</div>",,html-keyboard-response,236,906079,0.0-15.0-0.17,10770,List2B,black,man,,,,null,,,,
null,"<img src=""stim_listB/hug3.gif""</stim_listB>",,html-keyboard-response,237,908080,0.0-15.0-1.17,10770,List2B,black,man,,,,null,,,,
null,is hugging,,html-keyboard-response,238,910082,0.0-15.0-2.17,10770,List2B,black,man,,,,null,,,,
8651,,,survey-text,239,918734,0.0-15.0-3.17,10770,List2B,black,man,,,,,"{""Q0"":""fred is hugging beth""}","<img src=""stim_listB/hug3.gif""</stim_listB>",is hugging,
null,"<div style=""font-size:60px;"">+</div>",,html-keyboard-response,240,919235,0.0-15.0-0.18,10770,List2B,black,man,,,,null,,,,
null,"<img src=""stim_listB/kiss6.gif""</stim_listB>",,html-keyboard-response,241,921237,0.0-15.0-1.18,10770,List2B,black,man,,,,null,,,,
null,are kissing each other,,html-keyboard-response,242,923239,0.0-15.0-2.18,10770,List2B,black,man,,,,null,,,,
13844,,,survey-text,243,937083,0.0-15.0-3.18,10770,List2B,black,man,,,,,"{""Q0"":""mike is kissing dave""}","<img src=""stim_listB/kiss6.gif""</stim_listB>",are kissing each other,
null,"<div style=""font-size:60px;"">+</div>",,html-keyboard-response,244,937584,0.0-15.0-0.19,10770,List2B,black,man,,,,null,,,,
null,"<img src=""stim_listB/talk4.gif""</stim_listB>",,html-keyboard-response,245,939586,0.0-15.0-1.19,10770,List2B,black,man,,,,null,,,,
null,are talking to each other,,html-keyboard-response,246,941588,0.0-15.0-2.19,10770,List2B,black,man,,,,null,,,,
12655,,,survey-text,247,954244,0.0-15.0-3.19,10770,List2B,black,man,,,,,"{""Q0"":""mike and beth are talking with each other""}","<img src=""stim_listB/talk4.gif""</stim_listB>",are talking to each other,
4334,"<img src='img/portrait_matrix_list2.JPG' style='width:900px;height:500px;''></img><p>If you have memorised all the portraits and names and are ready to start, press Continue.</p><p><strong>Please note: Your memory of these faces will be tested 4 times during this experiment.</strong></p>",0,html-button-response,248,958581,0.0-16.0-0.0,10770,List2B,black,man,,,,,,,,
1582,"<img src=""portrait/WM2.jpg""style=""width:400px;height:400px;""></img>",7,html-button-response,249,961167,0.0-16.0-1.0,10770,List2B,black,man,,TRUE,7,,,,,
null,CORRECT,,html-keyboard-response,250,962669,0.0-16.0-2.0-0.0,10770,List2B,black,man,,,,null,,,,
1912,"<img src=""portrait/WW2.jpg""style=""width:400px;height:400px;""></img>",3,html-button-response,251,964583,0.0-16.0-4.0,10770,List2B,black,man,,TRUE,3,,,,,
null,CORRECT,,html-keyboard-response,252,966086,0.0-16.0-5.0-0.0,10770,List2B,black,man,,,,null,,,,
1634,"<img src=""portrait/BW2.jpg""style=""width:400px;height:400px;""></img>",2,html-button-response,253,967721,0.0-16.0-7.0,10770,List2B,black,man,,TRUE,2,,,,,
null,CORRECT,,html-keyboard-response,254,969223,0.0-16.0-8.0-0.0,10770,List2B,black,man,,,,null,,,,
1185,"<img src=""portrait/BM2.jpg""style=""width:400px;height:400px;""></img>",5,html-button-response,255,970409,0.0-16.0-10.0,10770,List2B,black,man,,TRUE,5,,,,,
null,CORRECT,,html-keyboard-response,256,971912,0.0-16.0-11.0-0.0,10770,List2B,black,man,,,,null,,,,
1667,"<img src=""portrait/WM1.jpg""style=""width:400px;height:400px;""></img>",6,html-button-response,257,973581,0.0-16.0-13.0,10770,List2B,black,man,,TRUE,6,,,,,
null,CORRECT,,html-keyboard-response,258,975083,0.0-16.0-14.0-0.0,10770,List2B,black,man,,,,null,,,,
2729,"<img src=""portrait/BW1.jpg""style=""width:400px;height:400px;""></img>",0,html-button-response,259,977814,0.0-16.0-16.0,10770,List2B,black,man,,TRUE,0,,,,,
null,CORRECT,,html-keyboard-response,260,979316,0.0-16.0-17.0-0.0,10770,List2B,black,man,,,,null,,,,
14050,"<img src=""portrait/WW1.jpg""style=""width:400px;height:400px;""></img>",1,html-button-response,261,993369,0.0-16.0-19.0,10770,List2B,black,man,,TRUE,1,,,,,
null,CORRECT,,html-keyboard-response,262,994872,0.0-16.0-20.0-0.0,10770,List2B,black,man,,,,null,,,,
3377,"<img src=""portrait/BM1.jpg""style=""width:400px;height:400px;""></img>",4,html-button-response,263,998250,0.0-16.0-22.0,10770,List2B,black,man,,TRUE,4,,,,,
null,CORRECT,,html-keyboard-response,264,999753,0.0-16.0-23.0-0.0,10770,List2B,black,man,,,,null,,,,
999,<p>You got 8 out of 8 right first time. Press Continue.</p>,0,html-button-response,265,1000754,0.0-16.0-25.0,10770,List2B,black,man,,,,,,,,
null,"<div style=""font-size:60px;"">+</div>",,html-keyboard-response,266,1002256,0.0-17.0-0.0,10770,List2B,black,man,,,,null,,,,
null,"<img src=""stim_listB/kiss3.gif""</stim_listB>",,html-keyboard-response,267,1004257,0.0-17.0-1.0,10770,List2B,black,man,,,,null,,,,
null,is kissing,,html-keyboard-response,268,1006260,0.0-17.0-2.0,10770,List2B,black,man,,,,null,,,,
7014,,,survey-text,269,1013274,0.0-17.0-3.0,10770,List2B,black,man,,,,,"{""Q0"":""fred is kissing beth""}","<img src=""stim_listB/kiss3.gif""</stim_listB>",is kissing,
null,"<div style=""font-size:60px;"">+</div>",,html-keyboard-response,270,1013777,0.0-17.0-0.1,10770,List2B,black,man,,,,null,,,,
null,"<img src=""stim_listB/kiss8.gif""</stim_listB>",,html-keyboard-response,271,1015779,0.0-17.0-1.1,10770,List2B,black,man,,,,null,,,,
null,are kissing each other,,html-keyboard-response,272,1017780,0.0-17.0-2.1,10770,List2B,black,man,,,,null,,,,
11455,,,survey-text,273,1029236,0.0-17.0-3.1,10770,List2B,black,man,,,,,"{""Q0"":""kate and jane are kissing each other""}","<img src=""stim_listB/kiss8.gif""</stim_listB>",are kissing each other,
null,"<div style=""font-size:60px;"">+</div>",,html-keyboard-response,274,1029739,0.0-17.0-0.2,10770,List2B,black,man,,,,null,,,,
null,"<img src=""stim_listB/shout5.gif""</stim_listB>",,html-keyboard-response,275,1031740,0.0-17.0-1.2,10770,List2B,black,man,,,,null,,,,
null,is shouting at,,html-keyboard-response,276,1033741,0.0-17.0-2.2,10770,List2B,black,man,,,,null,,,,
6541,,,survey-text,277,1040282,0.0-17.0-3.2,10770,List2B,black,man,,,,,"{""Q0"":""luke is shouting at fred""}","<img src=""stim_listB/shout5.gif""</stim_listB>",is shouting at,
null,"<div style=""font-size:60px;"">+</div>",,html-keyboard-response,278,1040783,0.0-17.0-0.3,10770,List2B,black,man,,,,null,,,,
null,"<img src=""stim_listB/meet7.gif""</stim_listB>",,html-keyboard-response,279,1042785,0.0-17.0-1.3,10770,List2B,black,man,,,,null,,,,
null,is meeting,,html-keyboard-response,280,1044787,0.0-17.0-2.3,10770,List2B,black,man,,,,null,,,,
7252,,,survey-text,281,1052040,0.0-17.0-3.3,10770,List2B,black,man,,,,,"{""Q0"":""kate is meeting jane""}","<img src=""stim_listB/meet7.gif""</stim_listB>",is meeting,
null,"<div style=""font-size:60px;"">+</div>",,html-keyboard-response,282,1052542,0.0-17.0-0.4,10770,List2B,black,man,,,,null,,,,
null,"<img src=""stim_listB/hug4.gif""</stim_listB>",,html-keyboard-response,283,1054543,0.0-17.0-1.4,10770,List2B,black,man,,,,null,,,,
null,are hugging each other,,html-keyboard-response,284,1056544,0.0-17.0-2.4,10770,List2B,black,man,,,,null,,,,
8861,,,survey-text,285,1065406,0.0-17.0-3.4,10770,List2B,black,man,,,,,"{""Q0"":""mike and kate are hugging each other""}","<img src=""stim_listB/hug4.gif""</stim_listB>",are hugging each other,
null,"<div style=""font-size:60px;"">+</div>",,html-keyboard-response,286,1065907,0.0-17.0-0.5,10770,List2B,black,man,,,,null,,,,
null,"<img src=""stim_listB/touch5.gif""</stim_listB>",,html-keyboard-response,287,1067909,0.0-17.0-1.5,10770,List2B,black,man,,,,null,,,,
null,is touching,,html-keyboard-response,288,1069911,0.0-17.0-2.5,10770,List2B,black,man,,,,null,,,,
7384,,,survey-text,289,1077297,0.0-17.0-3.5,10770,List2B,black,man,,,,,"{""Q0"":""dave is touching mike""}","<img src=""stim_listB/touch5.gif""</stim_listB>",is touching,
null,"<div style=""font-size:60px;"">+</div>",,html-keyboard-response,290,1077799,0.0-17.0-0.6,10770,List2B,black,man,,,,null,,,,
null,"<img src=""stim_listB/touch1.gif""</stim_listB>",,html-keyboard-response,291,1079799,0.0-17.0-1.6,10770,List2B,black,man,,,,null,,,,
null,is touching,,html-keyboard-response,292,1081800,0.0-17.0-2.6,10770,List2B,black,man,,,,null,,,,
7145,,,survey-text,293,1088947,0.0-17.0-3.6,10770,List2B,black,man,,,,,"{""Q0"":""dave is touching jane""}","<img src=""stim_listB/touch1.gif""</stim_listB>",is touching,
null,"<div style=""font-size:60px;"">+</div>",,html-keyboard-response,294,1089449,0.0-17.0-0.7,10770,List2B,black,man,,,,null,,,,
null,"<img src=""stim_listB/argue8.gif""</stim_listB>",,html-keyboard-response,295,1091450,0.0-17.0-1.7,10770,List2B,black,man,,,,null,,,,
null,are arguing with each other,,html-keyboard-response,296,1093451,0.0-17.0-2.7,10770,List2B,black,man,,,,null,,,,
12943,,,survey-text,297,1106395,0.0-17.0-3.7,10770,List2B,black,man,,,,,"{""Q0"":""kate and ruth are arguing with each other""}","<img src=""stim_listB/argue8.gif""</stim_listB>",are arguing with each other,
null,"<div style=""font-size:60px;"">+</div>",,html-keyboard-response,298,1106897,0.0-17.0-0.8,10770,List2B,black,man,,,,null,,,,
null,"<img src=""stim_listB/hug6.gif""</stim_listB>",,html-keyboard-response,299,1108900,0.0-17.0-1.8,10770,List2B,black,man,,,,null,,,,
null,are hugging each other,,html-keyboard-response,300,1110902,0.0-17.0-2.8,10770,List2B,black,man,,,,null,,,,
9005,,,survey-text,301,1119908,0.0-17.0-3.8,10770,List2B,black,man,,,,,"{""Q0"":""mike and dave are hugging each other""}","<img src=""stim_listB/hug6.gif""</stim_listB>",are hugging each other,
null,"<div style=""font-size:60px;"">+</div>",,html-keyboard-response,302,1120412,0.0-17.0-0.9,10770,List2B,black,man,,,,null,,,,
null,"<img src=""stim_listB/argue2.gif""</stim_listB>",,html-keyboard-response,303,1122414,0.0-17.0-1.9,10770,List2B,black,man,,,,null,,,,
null,are arguing with each other,,html-keyboard-response,304,1124415,0.0-17.0-2.9,10770,List2B,black,man,,,,null,,,,
7791,,,survey-text,305,1132207,0.0-17.0-3.9,10770,List2B,black,man,,,,,"{""Q0"":""luke and jane are arguing with each other""}","<img src=""stim_listB/argue2.gif""</stim_listB>",are arguing with each other,
null,"<div style=""font-size:60px;"">+</div>",,html-keyboard-response,306,1132709,0.0-17.0-0.10,10770,List2B,black,man,,,,null,,,,
null,"<img src=""stim_listB/fight5.gif""</stim_listB>",,html-keyboard-response,307,1134710,0.0-17.0-1.10,10770,List2B,black,man,,,,null,,,,
null,is fighting,,html-keyboard-response,308,1136712,0.0-17.0-2.10,10770,List2B,black,man,,,,null,,,,
7930,,,survey-text,309,1144645,0.0-17.0-3.10,10770,List2B,black,man,,,,,"{""Q0"":""dave is fighting mike""}","<img src=""stim_listB/fight5.gif""</stim_listB>",is fighting,
null,"<div style=""font-size:60px;"">+</div>",,html-keyboard-response,310,1145147,0.0-17.0-0.11,10770,List2B,black,man,,,,null,,,,
null,"<img src=""stim_listB/hug1.gif""</stim_listB>",,html-keyboard-response,311,1147149,0.0-17.0-1.11,10770,List2B,black,man,,,,null,,,,
null,is hugging,,html-keyboard-response,312,1149150,0.0-17.0-2.11,10770,List2B,black,man,,,,null,,,,
4322,,,survey-text,313,1153473,0.0-17.0-3.11,10770,List2B,black,man,,,,,"{""Q0"":""luke is hugging ruth""}","<img src=""stim_listB/hug1.gif""</stim_listB>",is hugging,
null,"<div style=""font-size:60px;"">+</div>",,html-keyboard-response,314,1153974,0.0-17.0-0.12,10770,List2B,black,man,,,,null,,,,
null,"<img src=""stim_listB/dance6.gif""</stim_listB>",,html-keyboard-response,315,1155976,0.0-17.0-1.12,10770,List2B,black,man,,,,null,,,,
null,are dancing with each other,,html-keyboard-response,316,1157977,0.0-17.0-2.12,10770,List2B,black,man,,,,null,,,,
9579,,,survey-text,317,1167556,0.0-17.0-3.12,10770,List2B,black,man,,,,,"{""Q0"":""fred and dave are dancing with each other""}","<img src=""stim_listB/dance6.gif""</stim_listB>",are dancing with each other,
null,"<div style=""font-size:60px;"">+</div>",,html-keyboard-response,318,1168060,0.0-17.0-0.13,10770,List2B,black,man,,,,null,,,,
null,"<img src=""stim_listB/marry7.gif""</stim_listB>",,html-keyboard-response,319,1170062,0.0-17.0-1.13,10770,List2B,black,man,,,,null,,,,
null,is marrying,,html-keyboard-response,320,1172062,0.0-17.0-2.13,10770,List2B,black,man,,,,null,,,,
11840,,,survey-text,321,1183903,0.0-17.0-3.13,10770,List2B,black,man,,,,,"{""Q0"":""jane is marrying beth""}","<img src=""stim_listB/marry7.gif""</stim_listB>",is marrying,
null,"<div style=""font-size:60px;"">+</div>",,html-keyboard-response,322,1184405,0.0-17.0-0.14,10770,List2B,black,man,,,,null,,,,
null,"<img src=""stim_listB/argue6.gif""</stim_listB>",,html-keyboard-response,323,1186407,0.0-17.0-1.14,10770,List2B,black,man,,,,null,,,,
null,are arguing with each other,,html-keyboard-response,324,1188409,0.0-17.0-2.14,10770,List2B,black,man,,,,null,,,,
7541,,,survey-text,325,1195950,0.0-17.0-3.14,10770,List2B,black,man,,,,,"{""Q0"":""luke and mike are arguing with each other""}","<img src=""stim_listB/argue6.gif""</stim_listB>",are arguing with each other,
null,"<div style=""font-size:60px;"">+</div>",,html-keyboard-response,326,1196453,0.0-17.0-0.15,10770,List2B,black,man,,,,null,,,,
null,"<img src=""stim_listB/fight2.gif""</stim_listB>",,html-keyboard-response,327,1198455,0.0-17.0-1.15,10770,List2B,black,man,,,,null,,,,
null,are fighting each other,,html-keyboard-response,328,1200456,0.0-17.0-2.15,10770,List2B,black,man,,,,null,,,,
8727,,,survey-text,329,1209185,0.0-17.0-3.15,10770,List2B,black,man,,,,,"{""Q0"":""luke and ruth are fighting with each other""}","<img src=""stim_listB/fight2.gif""</stim_listB>",are fighting each other,
null,"<div style=""font-size:60px;"">+</div>",,html-keyboard-response,330,1209686,0.0-17.0-0.16,10770,List2B,black,man,,,,null,,,,
null,"<img src=""stim_listB/talk5.gif""</stim_listB>",,html-keyboard-response,331,1211687,0.0-17.0-1.16,10770,List2B,black,man,,,,null,,,,
null,is talking to,,html-keyboard-response,332,1213689,0.0-17.0-2.16,10770,List2B,black,man,,,,null,,,,
4502,,,survey-text,333,1218192,0.0-17.0-3.16,10770,List2B,black,man,,,,,"{""Q0"":""luke is talking to mike""}","<img src=""stim_listB/talk5.gif""</stim_listB>",is talking to,
null,"<div style=""font-size:60px;"">+</div>",,html-keyboard-response,334,1218694,0.0-17.0-0.17,10770,List2B,black,man,,,,null,,,,
null,"<img src=""stim_listB/kiss4.gif""</stim_listB>",,html-keyboard-response,335,1220696,0.0-17.0-1.17,10770,List2B,black,man,,,,null,,,,
null,are kissing each other,,html-keyboard-response,336,1222697,0.0-17.0-2.17,10770,List2B,black,man,,,,null,,,,
6720,,,survey-text,337,1229419,0.0-17.0-3.17,10770,List2B,black,man,,,,,"{""Q0"":""kate and mike are kissing each other""}","<img src=""stim_listB/kiss4.gif""</stim_listB>",are kissing each other,
null,"<div style=""font-size:60px;"">+</div>",,html-keyboard-response,338,1229920,0.0-17.0-0.18,10770,List2B,black,man,,,,null,,,,
null,"<img src=""stim_listB/shout1.gif""</stim_listB>",,html-keyboard-response,339,1231922,0.0-17.0-1.18,10770,List2B,black,man,,,,null,,,,
null,is shouting at,,html-keyboard-response,340,1233924,0.0-17.0-2.18,10770,List2B,black,man,,,,null,,,,
19501,,,survey-text,341,1253426,0.0-17.0-3.18,10770,List2B,black,man,,,,,"{""Q0"":""ruth is shouting at luke""}","<img src=""stim_listB/shout1.gif""</stim_listB>",is shouting at,
null,"<div style=""font-size:60px;"">+</div>",,html-keyboard-response,342,1253928,0.0-17.0-0.19,10770,List2B,black,man,,,,null,,,,
null,"<img src=""stim_listB/shout6.gif""</stim_listB>",,html-keyboard-response,343,1255930,0.0-17.0-1.19,10770,List2B,black,man,,,,null,,,,
null,are shouting at each other,,html-keyboard-response,344,1257932,0.0-17.0-2.19,10770,List2B,black,man,,,,null,,,,
6581,,,survey-text,345,1264513,0.0-17.0-3.19,10770,List2B,black,man,,,,,"{""Q0"":""dave and mike are shouting at each other""}","<img src=""stim_listB/shout6.gif""</stim_listB>",are shouting at each other,
2551,"<img src='img/portrait_matrix_list2.JPG' style='width:900px;height:500px;''></img><p>If you have memorised all the portraits and names and are ready to start, press Continue.</p><p><strong>Please note: Your memory of these faces will be tested 4 times during this experiment.</strong></p>",0,html-button-response,346,1267067,0.0-18.0-0.0,10770,List2B,black,man,,,,,,,,
1567,"<img src=""portrait/WM2.jpg""style=""width:400px;height:400px;""></img>",7,html-button-response,347,1269637,0.0-18.0-1.0,10770,List2B,black,man,,TRUE,7,,,,,
null,CORRECT,,html-keyboard-response,348,1271141,0.0-18.0-2.0-0.0,10770,List2B,black,man,,,,null,,,,
1555,"<img src=""portrait/WW2.jpg""style=""width:400px;height:400px;""></img>",3,html-button-response,349,1272699,0.0-18.0-4.0,10770,List2B,black,man,,TRUE,3,,,,,
null,CORRECT,,html-keyboard-response,350,1274201,0.0-18.0-5.0-0.0,10770,List2B,black,man,,,,null,,,,
2035,"<img src=""portrait/BM2.jpg""style=""width:400px;height:400px;""></img>",5,html-button-response,351,1276239,0.0-18.0-7.0,10770,List2B,black,man,,TRUE,5,,,,,
null,CORRECT,,html-keyboard-response,352,1277742,0.0-18.0-8.0-0.0,10770,List2B,black,man,,,,null,,,,
1402,"<img src=""portrait/BW2.jpg""style=""width:400px;height:400px;""></img>",2,html-button-response,353,1279146,0.0-18.0-10.0,10770,List2B,black,man,,TRUE,2,,,,,
null,CORRECT,,html-keyboard-response,354,1280648,0.0-18.0-11.0-0.0,10770,List2B,black,man,,,,null,,,,
5901,"<img src=""portrait/WW1.jpg""style=""width:400px;height:400px;""></img>",1,html-button-response,355,1286550,0.0-18.0-13.0,10770,List2B,black,man,,TRUE,1,,,,,
null,CORRECT,,html-keyboard-response,356,1288054,0.0-18.0-14.0-0.0,10770,List2B,black,man,,,,null,,,,
1434,"<img src=""portrait/BW1.jpg""style=""width:400px;height:400px;""></img>",0,html-button-response,357,1289491,0.0-18.0-16.0,10770,List2B,black,man,,TRUE,0,,,,,
null,CORRECT,,html-keyboard-response,358,1290993,0.0-18.0-17.0-0.0,10770,List2B,black,man,,,,null,,,,
1643,"<img src=""portrait/BM1.jpg""style=""width:400px;height:400px;""></img>",4,html-button-response,359,1292637,0.0-18.0-19.0,10770,List2B,black,man,,TRUE,4,,,,,
null,CORRECT,,html-keyboard-response,360,1294140,0.0-18.0-20.0-0.0,10770,List2B,black,man,,,,null,,,,
2947,"<img src=""portrait/WM1.jpg""style=""width:400px;height:400px;""></img>",6,html-button-response,361,1297089,0.0-18.0-22.0,10770,List2B,black,man,,TRUE,6,,,,,
null,CORRECT,,html-keyboard-response,362,1298590,0.0-18.0-23.0-0.0,10770,List2B,black,man,,,,null,,,,
1098,<p>You got 8 out of 8 right first time. Press Continue.</p>,0,html-button-response,363,1299691,0.0-18.0-25.0,10770,List2B,black,man,,,,,,,,
null,"<div style=""font-size:60px;"">+</div>",,html-keyboard-response,364,1301194,0.0-19.0-0.0,10770,List2B,black,man,,,,null,,,,
null,"<img src=""stim_listB/shout8.gif""</stim_listB>",,html-keyboard-response,365,1303195,0.0-19.0-1.0,10770,List2B,black,man,,,,null,,,,
null,are shouting at each other,,html-keyboard-response,366,1305196,0.0-19.0-2.0,10770,List2B,black,man,,,,null,,,,
9775,,,survey-text,367,1314972,0.0-19.0-3.0,10770,List2B,black,man,,,,,"{""Q0"":""jane and kate are shouting at each other""}","<img src=""stim_listB/shout8.gif""</stim_listB>",are shouting at each other,
null,"<div style=""font-size:60px;"">+</div>",,html-keyboard-response,368,1315474,0.0-19.0-0.1,10770,List2B,black,man,,,,null,,,,
null,"<img src=""stim_listB/dance2.gif""</stim_listB>",,html-keyboard-response,369,1317476,0.0-19.0-1.1,10770,List2B,black,man,,,,null,,,,
null,are dancing with each other,,html-keyboard-response,370,1319478,0.0-19.0-2.1,10770,List2B,black,man,,,,null,,,,
8822,,,survey-text,371,1328300,0.0-19.0-3.1,10770,List2B,black,man,,,,,"{""Q0"":""fred and ruth are dancing with each other""}","<img src=""stim_listB/dance2.gif""</stim_listB>",are dancing with each other,
null,"<div style=""font-size:60px;"">+</div>",,html-keyboard-response,372,1328804,0.0-19.0-0.2,10770,List2B,black,man,,,,null,,,,
null,"<img src=""stim_listB/meet4.gif""</stim_listB>",,html-keyboard-response,373,1330806,0.0-19.0-1.2,10770,List2B,black,man,,,,null,,,,
null,are meeting each other,,html-keyboard-response,374,1332807,0.0-19.0-2.2,10770,List2B,black,man,,,,null,,,,
7843,,,survey-text,375,1340651,0.0-19.0-3.2,10770,List2B,black,man,,,,,"{""Q0"":""fred and beth are meeting each other""}","<img src=""stim_listB/meet4.gif""</stim_listB>",are meeting each other,
null,"<div style=""font-size:60px;"">+</div>",,html-keyboard-response,376,1341152,0.0-19.0-0.3,10770,List2B,black,man,,,,null,,,,
null,"<img src=""stim_listB/fight8.gif""</stim_listB>",,html-keyboard-response,377,1343153,0.0-19.0-1.3,10770,List2B,black,man,,,,null,,,,
null,are fighting each other,,html-keyboard-response,378,1345155,0.0-19.0-2.3,10770,List2B,black,man,,,,null,,,,
12909,,,survey-text,379,1358067,0.0-19.0-3.3,10770,List2B,black,man,,,,,"{""Q0"":""beth and ruth are fighting each other""}","<img src=""stim_listB/fight8.gif""</stim_listB>",are fighting each other,
null,"<div style=""font-size:60px;"">+</div>",,html-keyboard-response,380,1358568,0.0-19.0-0.4,10770,List2B,black,man,,,,null,,,,
null,"<img src=""stim_listB/shout3.gif""</stim_listB>",,html-keyboard-response,381,1360570,0.0-19.0-1.4,10770,List2B,black,man,,,,null,,,,
null,is shouting at,,html-keyboard-response,382,1362572,0.0-19.0-2.4,10770,List2B,black,man,,,,null,,,,
11932,,,survey-text,383,1374506,0.0-19.0-3.4,10770,List2B,black,man,,,,,"{""Q0"":""fred is shouting at beth""}","<img src=""stim_listB/shout3.gif""</stim_listB>",is shouting at,
null,"<div style=""font-size:60px;"">+</div>",,html-keyboard-response,384,1375009,0.0-19.0-0.5,10770,List2B,black,man,,,,null,,,,
null,"<img src=""stim_listB/touch3.gif""</stim_listB>",,html-keyboard-response,385,1377011,0.0-19.0-1.5,10770,List2B,black,man,,,,null,,,,
null,is touching,,html-keyboard-response,386,1379012,0.0-19.0-2.5,10770,List2B,black,man,,,,null,,,,
8487,,,survey-text,387,1387499,0.0-19.0-3.5,10770,List2B,black,man,,,,,"{""Q0"":""kate is touching mike""}","<img src=""stim_listB/touch3.gif""</stim_listB>",is touching,
null,"<div style=""font-size:60px;"">+</div>",,html-keyboard-response,388,1388001,0.0-19.0-0.6,10770,List2B,black,man,,,,null,,,,
null,"<img src=""stim_listB/talk6.gif""</stim_listB>",,html-keyboard-response,389,1390003,0.0-19.0-1.6,10770,List2B,black,man,,,,null,,,,
null,are talking to each other,,html-keyboard-response,390,1392004,0.0-19.0-2.6,10770,List2B,black,man,,,,null,,,,
7025,,,survey-text,391,1399031,0.0-19.0-3.6,10770,List2B,black,man,,,,,"{""Q0"":""dave and mike are talking to each other""}","<img src=""stim_listB/talk6.gif""</stim_listB>",are talking to each other,
null,"<div style=""font-size:60px;"">+</div>",,html-keyboard-response,392,1399534,0.0-19.0-0.7,10770,List2B,black,man,,,,null,,,,
null,"<img src=""stim_listB/shout7.gif""</stim_listB>",,html-keyboard-response,393,1401536,0.0-19.0-1.7,10770,List2B,black,man,,,,null,,,,
null,is shouting at,,html-keyboard-response,394,1403537,0.0-19.0-2.7,10770,List2B,black,man,,,,null,,,,
6923,,,survey-text,395,1410461,0.0-19.0-3.7,10770,List2B,black,man,,,,,"{""Q0"":""ruth is shouting at beth""}","<img src=""stim_listB/shout7.gif""</stim_listB>",is shouting at,
null,"<div style=""font-size:60px;"">+</div>",,html-keyboard-response,396,1410963,0.0-19.0-0.8,10770,List2B,black,man,,,,null,,,,
null,"<img src=""stim_listB/meet2.gif""</stim_listB>",,html-keyboard-response,397,1412966,0.0-19.0-1.8,10770,List2B,black,man,,,,null,,,,
null,are meeting each other,,html-keyboard-response,398,1414966,0.0-19.0-2.8,10770,List2B,black,man,,,,null,,,,
6953,,,survey-text,399,1421920,0.0-19.0-3.8,10770,List2B,black,man,,,,,"{""Q0"":""luke and ruth are meeting each other""}","<img src=""stim_listB/meet2.gif""</stim_listB>",are meeting each other,
null,"<div style=""font-size:60px;"">+</div>",,html-keyboard-response,400,1422422,0.0-19.0-0.9,10770,List2B,black,man,,,,null,,,,
null,"<img src=""stim_listB/marry2.gif""</stim_listB>",,html-keyboard-response,401,1424425,0.0-19.0-1.9,10770,List2B,black,man,,,,null,,,,
null,are marrying each other,,html-keyboard-response,402,1426427,0.0-19.0-2.9,10770,List2B,black,man,,,,null,,,,
6431,,,survey-text,403,1432859,0.0-19.0-3.9,10770,List2B,black,man,,,,,"{""Q0"":""luke and jane are marrying each other""}","<img src=""stim_listB/marry2.gif""</stim_listB>",are marrying each other,
null,"<div style=""font-size:60px;"">+</div>",,html-keyboard-response,404,1433361,0.0-19.0-0.10,10770,List2B,black,man,,,,null,,,,
null,"<img src=""stim_listB/talk7.gif""</stim_listB>",,html-keyboard-response,405,1435362,0.0-19.0-1.10,10770,List2B,black,man,,,,null,,,,
null,is talking to,,html-keyboard-response,406,1437363,0.0-19.0-2.10,10770,List2B,black,man,,,,null,,,,
5549,,,survey-text,407,1442913,0.0-19.0-3.10,10770,List2B,black,man,,,,,"{""Q0"":""kate is talking to ruth""}","<img src=""stim_listB/talk7.gif""</stim_listB>",is talking to,
null,"<div style=""font-size:60px;"">+</div>",,html-keyboard-response,408,1443415,0.0-19.0-0.11,10770,List2B,black,man,,,,null,,,,
null,"<img src=""stim_listB/dance7.gif""</stim_listB>",,html-keyboard-response,409,1445417,0.0-19.0-1.11,10770,List2B,black,man,,,,null,,,,
null,is dancing with,,html-keyboard-response,410,1447420,0.0-19.0-2.11,10770,List2B,black,man,,,,null,,,,
5024,,,survey-text,411,1452444,0.0-19.0-3.11,10770,List2B,black,man,,,,,"{""Q0"":""kate is dancing with ruth""}","<img src=""stim_listB/dance7.gif""</stim_listB>",is dancing with,
null,"<div style=""font-size:60px;"">+</div>",,html-keyboard-response,412,1452947,0.0-19.0-0.12,10770,List2B,black,man,,,,null,,,,
null,"<img src=""stim_listB/dance1.gif""</stim_listB>",,html-keyboard-response,413,1454949,0.0-19.0-1.12,10770,List2B,black,man,,,,null,,,,
null,is dancing with,,html-keyboard-response,414,1456950,0.0-19.0-2.12,10770,List2B,black,man,,,,null,,,,
12477,,,survey-text,415,1469429,0.0-19.0-3.12,10770,List2B,black,man,,,,,"{""Q0"":""luke is dancing with jane""}","<img src=""stim_listB/dance1.gif""</stim_listB>",is dancing with,
null,"<div style=""font-size:60px;"">+</div>",,html-keyboard-response,416,1469931,0.0-19.0-0.13,10770,List2B,black,man,,,,null,,,,
null,"<img src=""stim_listB/meet1.gif""</stim_listB>",,html-keyboard-response,417,1471933,0.0-19.0-1.13,10770,List2B,black,man,,,,null,,,,
null,is meeting,,html-keyboard-response,418,1473933,0.0-19.0-2.13,10770,List2B,black,man,,,,null,,,,
5315,,,survey-text,419,1479249,0.0-19.0-3.13,10770,List2B,black,man,,,,,"{""Q0"":""dave is meeting jane""}","<img src=""stim_listB/meet1.gif""</stim_listB>",is meeting,
null,"<div style=""font-size:60px;"">+</div>",,html-keyboard-response,420,1479752,0.0-19.0-0.14,10770,List2B,black,man,,,,null,,,,
null,"<img src=""stim_listB/touch4.gif""</stim_listB>",,html-keyboard-response,421,1481754,0.0-19.0-1.14,10770,List2B,black,man,,,,null,,,,
null,are touching each other,,html-keyboard-response,422,1483756,0.0-19.0-2.14,10770,List2B,black,man,,,,null,,,,
13043,,,survey-text,423,1496801,0.0-19.0-3.14,10770,List2B,black,man,,,,,"{""Q0"":""fred and beth are touching each other""}","<img src=""stim_listB/touch4.gif""</stim_listB>",are touching each other,
null,"<div style=""font-size:60px;"">+</div>",,html-keyboard-response,424,1497303,0.0-19.0-0.15,10770,List2B,black,man,,,,null,,,,
null,"<img src=""stim_listB/shout4.gif""</stim_listB>",,html-keyboard-response,425,1499305,0.0-19.0-1.15,10770,List2B,black,man,,,,null,,,,
null,are shouting at each other,,html-keyboard-response,426,1501307,0.0-19.0-2.15,10770,List2B,black,man,,,,null,,,,
9532,,,survey-text,427,1510839,0.0-19.0-3.15,10770,List2B,black,man,,,,,"{""Q0"":""mike and kate are shouting at each other""}","<img src=""stim_listB/shout4.gif""</stim_listB>",are shouting at each other,
null,"<div style=""font-size:60px;"">+</div>",,html-keyboard-response,428,1511341,0.0-19.0-0.16,10770,List2B,black,man,,,,null,,,,
null,"<img src=""stim_listB/touch2.gif""</stim_listB>",,html-keyboard-response,429,1513342,0.0-19.0-1.16,10770,List2B,black,man,,,,null,,,,
null,are touching each other,,html-keyboard-response,430,1515344,0.0-19.0-2.16,10770,List2B,black,man,,,,null,,,,
14883,,,survey-text,431,1530229,0.0-19.0-3.16,10770,List2B,black,man,,,,,"{""Q0"":""luke and jane are touching at each other""}","<img src=""stim_listB/touch2.gif""</stim_listB>",are touching each other,
null,"<div style=""font-size:60px;"">+</div>",,html-keyboard-response,432,1530731,0.0-19.0-0.17,10770,List2B,black,man,,,,null,,,,
null,"<img src=""stim_listB/kiss5.gif""</stim_listB>",,html-keyboard-response,433,1532733,0.0-19.0-1.17,10770,List2B,black,man,,,,null,,,,
null,is kissing,,html-keyboard-response,434,1534735,0.0-19.0-2.17,10770,List2B,black,man,,,,null,,,,
5452,,,survey-text,435,1540188,0.0-19.0-3.17,10770,List2B,black,man,,,,,"{""Q0"":""luke is kissing fred""}","<img src=""stim_listB/kiss5.gif""</stim_listB>",is kissing,
null,"<div style=""font-size:60px;"">+</div>",,html-keyboard-response,436,1540690,0.0-19.0-0.18,10770,List2B,black,man,,,,null,,,,
null,"<img src=""stim_listB/talk1.gif""</stim_listB>",,html-keyboard-response,437,1542691,0.0-19.0-1.18,10770,List2B,black,man,,,,null,,,,
null,is talking to,,html-keyboard-response,438,1544691,0.0-19.0-2.18,10770,List2B,black,man,,,,null,,,,
5114,,,survey-text,439,1549806,0.0-19.0-3.18,10770,List2B,black,man,,,,,"{""Q0"":""jane is talking to luke""}","<img src=""stim_listB/talk1.gif""</stim_listB>",is talking to,
null,"<div style=""font-size:60px;"">+</div>",,html-keyboard-response,440,1550310,0.0-19.0-0.19,10770,List2B,black,man,,,,null,,,,
null,"<img src=""stim_listB/talk3.gif""</stim_listB>",,html-keyboard-response,441,1552310,0.0-19.0-1.19,10770,List2B,black,man,,,,null,,,,
null,is talking to,,html-keyboard-response,442,1554311,0.0-19.0-2.19,10770,List2B,black,man,,,,null,,,,
4610,,,survey-text,443,1558924,0.0-19.0-3.19,10770,List2B,black,man,,,,,"{""Q0"":""kate is talking to fred""}","<img src=""stim_listB/talk3.gif""</stim_listB>",is talking to,
10348,<p>Thank you for completing that task.</p><p>The final part of this session is a short questionnaire.</p><p>Press Continue.</p>,0,html-button-response,444,1569275,0.0-20.0,10770,List2B,black,man,,,,,,,,
13347,,,survey-text,445,1583627,0.0-21.0,10770,List2B,black,man,,,,,"{""Q0"":""34"",""Q1"":""English"",""Q2"":""English"",""Q3"":""USA"",""Q4"":""Black"",""Q5"":""Male""}",,,demographics
46282,,,survey-likert,446,1629928,0.0-22.0,10770,List2B,black,man,,,,,"{""Q0"":3,""Q1"":3,""Q2"":4,""Q3"":3,""Q4"":4,""Q5"":1,""Q6"":3,""Q7"":2,""Q8"":3,""Q9"":3,""Q10"":2,""Q11"":2,""Q12"":4,""Q13"":3}",,,likert_race
36929,,,survey-likert,447,1666878,0.0-23.0,10770,List2B,black,man,,,,,"{""Q0"":2,""Q1"":3,""Q2"":2,""Q3"":3,""Q4"":3,""Q5"":2,""Q6"":2,""Q7"":4,""Q8"":2,""Q9"":2,""Q10"":1,""Q11"":2,""Q12"":4,""Q13"":3}",,,likert_gender
13736,,,survey-text,448,1680616,0.0-24.0,10770,List2B,black,man,,,,,"{""Q0"":""ccc""}",,,worker_id
44238,,,external-html,449,1725080,0.0-25.0,10770,List2B,black,man,debrief.html,,,,,,,
