rt,stimulus,button_pressed,trial_type,trial_index,time_elapsed,internal_node_id,subject,list,ppt_race,ppt_gender,url,first_guess,correct,key_press,responses,image_type,phrase_type,test_part
2513,Welcome to the experiment. Press Continue to begin.,0,html-button-response,0,2518,0.0-0.0,11551,List1B,black,man,,,,,,,,
16094,,,external-html,1,19773,0.0-1.0,11551,List1B,black,man,consent.html,,,,,,,
25803,"<p>On the next page, you will see portraits of 8 people and their names.</p><p>Your first task is to take a few minutes to memorise the names of these people.</p><p>You will have to recall their names during the rest of the experiment, so it is</p><p>essential that you try to memorise these people and their names as best as you can.</p><br><p><strong>You will then be tested on your memory of these names and portraits.</strong></p><br><p>The experiment will start after you have completed this memory test.</p><br><p>Ready?</p>",0,html-button-response,2,45581,0.0-2.0,11551,List1B,black,man,,,,,,,,
81162,"<img src='img/portrait_matrix_list1.JPG' style='width:900px;height:500px;''></img><p>If you have memorised all the portraits and names and are ready to start, press Continue.</p><p><strong>Please note: Your memory of these faces will be tested 4 times during this experiment.</strong></p>",0,html-button-response,3,127747,0.0-3.0-0.0,11551,List1B,black,man,,,,,,,,
4652,"<img src=""portrait/BW1.jpg""style=""width:400px;height:400px;""></img>",0,html-button-response,4,133404,0.0-3.0-1.0,11551,List1B,black,man,,TRUE,0,,,,,
null,CORRECT,,html-keyboard-response,5,134912,0.0-3.0-2.0-0.0,11551,List1B,black,man,,,,null,,,,
2344,"<img src=""portrait/BM1.jpg""style=""width:400px;height:400px;""></img>",4,html-button-response,6,137260,0.0-3.0-4.0,11551,List1B,black,man,,TRUE,4,,,,,
null,CORRECT,,html-keyboard-response,7,138767,0.0-3.0-5.0-0.0,11551,List1B,black,man,,,,null,,,,
1625,"<img src=""portrait/WW2.jpg""style=""width:400px;height:400px;""></img>",3,html-button-response,8,140396,0.0-3.0-7.0,11551,List1B,black,man,,TRUE,3,,,,,
null,CORRECT,,html-keyboard-response,9,141899,0.0-3.0-8.0-0.0,11551,List1B,black,man,,,,null,,,,
2374,"<img src=""portrait/BW2.jpg""style=""width:400px;height:400px;""></img>",2,html-button-response,10,144276,0.0-3.0-10.0,11551,List1B,black,man,,TRUE,2,,,,,
null,CORRECT,,html-keyboard-response,11,145779,0.0-3.0-11.0-0.0,11551,List1B,black,man,,,,null,,,,
2637,"<img src=""portrait/WW1.jpg""style=""width:400px;height:400px;""></img>",1,html-button-response,12,148420,0.0-3.0-13.0,11551,List1B,black,man,,TRUE,1,,,,,
null,CORRECT,,html-keyboard-response,13,149923,0.0-3.0-14.0-0.0,11551,List1B,black,man,,,,null,,,,
2197,"<img src=""portrait/WM2.jpg""style=""width:400px;height:400px;""></img>",7,html-button-response,14,152123,0.0-3.0-16.0,11551,List1B,black,man,,TRUE,7,,,,,
null,CORRECT,,html-keyboard-response,15,153626,0.0-3.0-17.0-0.0,11551,List1B,black,man,,,,null,,,,
2367,"<img src=""portrait/BM2.jpg""style=""width:400px;height:400px;""></img>",5,html-button-response,16,155996,0.0-3.0-19.0,11551,List1B,black,man,,TRUE,5,,,,,
null,CORRECT,,html-keyboard-response,17,157500,0.0-3.0-20.0-0.0,11551,List1B,black,man,,,,null,,,,
3118,"<img src=""portrait/WM1.jpg""style=""width:400px;height:400px;""></img>",6,html-button-response,18,160621,0.0-3.0-22.0,11551,List1B,black,man,,TRUE,6,,,,,
null,CORRECT,,html-keyboard-response,19,162125,0.0-3.0-23.0-0.0,11551,List1B,black,man,,,,null,,,,
2060,<p>You got 8 out of 8 right first time. Press Continue.</p>,0,html-button-response,20,164188,0.0-3.0-25.0,11551,List1B,black,man,,,,,,,,
98410,"<p>In this experiment, you will view photographs of the people from the memory game interacting.</p><p>By using the <strong>exact</strong> phrase given <i>after</i> the photograph appears and recalling the correct names of the people in the photographs, form a sentence describing the interaction. You do not need to capitalise names.</p><p>Type your answer in the space provided. Please complete every sentence before moving onto the next trial.</p><p>You will only have a few seconds to memorise each given photograph and phrase before you can respond, so try your best to focus.</p><p>An example is given below. Press 'Continue' when you are ready.</p><img src='img/speaking_example_v2.jpg' style='width:800px;height:460px;''></img>",0,html-button-response,21,263604,0.0-4.0,11551,List1B,black,man,,,,,,,,
3838,"<p>Before the experiment starts, you will watch two example trials. Press 'Continue'.</p>",0,html-button-response,22,268444,0.0-5.0,11551,List1B,black,man,,,,,,,,
null,<img src='img/speaking_WW.gif'></img>,,html-keyboard-response,23,271447,0.0-6.0,11551,List1B,black,man,,,,null,,,,
null,<p>is speaking to</p>,,html-keyboard-response,24,273449,0.0-7.0,11551,List1B,black,man,,,,null,,,,
3697,<p><b>Answer:</b> kate is speaking to beth</p>,0,html-button-response,25,277148,0.0-8.0,11551,List1B,black,man,,,,,,,,
null,<img src='img/pointing_BM.gif'></img>,,html-keyboard-response,26,280150,0.0-9.0,11551,List1B,black,man,,,,null,,,,
null,<p>are pointing at each other</p>,,html-keyboard-response,27,282153,0.0-10.0,11551,List1B,black,man,,,,null,,,,
9315,<p><b>Answer:</b> luke and dave are pointing at each other</p>,0,html-button-response,28,291469,0.0-11.0,11551,List1B,black,man,,,,,,,,
18815,"<p>Ready to start the experiment?</p><br><p><strong>Remember to describe the picture using a full sentence,</strong></p><p><strong>that combines the names of the people with the given phrase.</strong></p><p><strong>If you do not do this correctly you will not be paid.</strong></p><p><strong> You do not need to capitalise names or use punctuation.</strong></p><br><p>Press 'Continue' to begin.</p>",0,html-button-response,29,311286,0.0-12.0,11551,List1B,black,man,,,,,,,,
null,"<div style=""font-size:60px;"">+</div>",,html-keyboard-response,30,312788,0.0-13.0-0.0,11551,List1B,black,man,,,,null,,,,
null,"<img src=""stim_listB/shout1.gif""</stim_listB>",,html-keyboard-response,31,314792,0.0-13.0-1.0,11551,List1B,black,man,,,,null,,,,
null,is shouting at,,html-keyboard-response,32,316794,0.0-13.0-2.0,11551,List1B,black,man,,,,null,,,,
8915,,,survey-text,33,325713,0.0-13.0-3.0,11551,List1B,black,man,,,,,"{""Q0"":""fred is shouting at beth""}","<img src=""stim_listB/shout1.gif""</stim_listB>",is shouting at,
null,"<div style=""font-size:60px;"">+</div>",,html-keyboard-response,34,326217,0.0-13.0-0.1,11551,List1B,black,man,,,,null,,,,
null,"<img src=""stim_listB/meet5.gif""</stim_listB>",,html-keyboard-response,35,328220,0.0-13.0-1.1,11551,List1B,black,man,,,,null,,,,
null,is meeting,,html-keyboard-response,36,330222,0.0-13.0-2.1,11551,List1B,black,man,,,,null,,,,
8945,,,survey-text,37,339169,0.0-13.0-3.1,11551,List1B,black,man,,,,,"{""Q0"":""Dave is meeting Mike""}","<img src=""stim_listB/meet5.gif""</stim_listB>",is meeting,
null,"<div style=""font-size:60px;"">+</div>",,html-keyboard-response,38,339671,0.0-13.0-0.2,11551,List1B,black,man,,,,null,,,,
null,"<img src=""stim_listB/touch3.gif""</stim_listB>",,html-keyboard-response,39,341674,0.0-13.0-1.2,11551,List1B,black,man,,,,null,,,,
null,is touching,,html-keyboard-response,40,343676,0.0-13.0-2.2,11551,List1B,black,man,,,,null,,,,
7323,,,survey-text,41,351000,0.0-13.0-3.2,11551,List1B,black,man,,,,,"{""Q0"":""Ruth is touching Dave""}","<img src=""stim_listB/touch3.gif""</stim_listB>",is touching,
null,"<div style=""font-size:60px;"">+</div>",,html-keyboard-response,42,351501,0.0-13.0-0.3,11551,List1B,black,man,,,,null,,,,
null,"<img src=""stim_listB/marry6.gif""</stim_listB>",,html-keyboard-response,43,353505,0.0-13.0-1.3,11551,List1B,black,man,,,,null,,,,
null,are marrying each other,,html-keyboard-response,44,355506,0.0-13.0-2.3,11551,List1B,black,man,,,,null,,,,
19733,,,survey-text,45,375242,0.0-13.0-3.3,11551,List1B,black,man,,,,,"{""Q0"":""Dave is marrying fred""}","<img src=""stim_listB/marry6.gif""</stim_listB>",are marrying each other,
null,"<div style=""font-size:60px;"">+</div>",,html-keyboard-response,46,375745,0.0-13.0-0.4,11551,List1B,black,man,,,,null,,,,
null,"<img src=""stim_listB/talk6.gif""</stim_listB>",,html-keyboard-response,47,377749,0.0-13.0-1.4,11551,List1B,black,man,,,,null,,,,
null,are talking to each other,,html-keyboard-response,48,379751,0.0-13.0-2.4,11551,List1B,black,man,,,,null,,,,
12324,,,survey-text,49,392077,0.0-13.0-3.4,11551,List1B,black,man,,,,,"{""Q0"":""Mike and luke are talking to each other.""}","<img src=""stim_listB/talk6.gif""</stim_listB>",are talking to each other,
null,"<div style=""font-size:60px;"">+</div>",,html-keyboard-response,50,392579,0.0-13.0-0.5,11551,List1B,black,man,,,,null,,,,
null,"<img src=""stim_listB/meet6.gif""</stim_listB>",,html-keyboard-response,51,394584,0.0-13.0-1.5,11551,List1B,black,man,,,,null,,,,
null,are meeting each other,,html-keyboard-response,52,396586,0.0-13.0-2.5,11551,List1B,black,man,,,,null,,,,
12505,,,survey-text,53,409093,0.0-13.0-3.5,11551,List1B,black,man,,,,,"{""Q0"":""Luke and fred are meeting each other""}","<img src=""stim_listB/meet6.gif""</stim_listB>",are meeting each other,
null,"<div style=""font-size:60px;"">+</div>",,html-keyboard-response,54,409596,0.0-13.0-0.6,11551,List1B,black,man,,,,null,,,,
null,"<img src=""stim_listB/fight2.gif""</stim_listB>",,html-keyboard-response,55,411600,0.0-13.0-1.6,11551,List1B,black,man,,,,null,,,,
null,are fighting each other,,html-keyboard-response,56,413602,0.0-13.0-2.6,11551,List1B,black,man,,,,null,,,,
9233,,,survey-text,57,422838,0.0-13.0-3.6,11551,List1B,black,man,,,,,"{""Q0"":""Beth and fred are fighting each other""}","<img src=""stim_listB/fight2.gif""</stim_listB>",are fighting each other,
null,"<div style=""font-size:60px;"">+</div>",,html-keyboard-response,58,423340,0.0-13.0-0.7,11551,List1B,black,man,,,,null,,,,
null,"<img src=""stim_listB/talk8.gif""</stim_listB>",,html-keyboard-response,59,425342,0.0-13.0-1.7,11551,List1B,black,man,,,,null,,,,
null,are talking to each other,,html-keyboard-response,60,427344,0.0-13.0-2.7,11551,List1B,black,man,,,,null,,,,
23966,,,survey-text,61,451313,0.0-13.0-3.7,11551,List1B,black,man,,,,,"{""Q0"":""Kate and Ruth are talking to each other.""}","<img src=""stim_listB/talk8.gif""</stim_listB>",are talking to each other,
null,"<div style=""font-size:60px;"">+</div>",,html-keyboard-response,62,451816,0.0-13.0-0.8,11551,List1B,black,man,,,,null,,,,
null,"<img src=""stim_listB/kiss5.gif""</stim_listB>",,html-keyboard-response,63,453819,0.0-13.0-1.8,11551,List1B,black,man,,,,null,,,,
null,is kissing,,html-keyboard-response,64,455821,0.0-13.0-2.8,11551,List1B,black,man,,,,null,,,,
10227,,,survey-text,65,466050,0.0-13.0-3.8,11551,List1B,black,man,,,,,"{""Q0"":""Luke is kissing Fred""}","<img src=""stim_listB/kiss5.gif""</stim_listB>",is kissing,
null,"<div style=""font-size:60px;"">+</div>",,html-keyboard-response,66,466558,0.0-13.0-0.9,11551,List1B,black,man,,,,null,,,,
null,"<img src=""stim_listB/hug2.gif""</stim_listB>",,html-keyboard-response,67,468562,0.0-13.0-1.9,11551,List1B,black,man,,,,null,,,,
null,are hugging each other,,html-keyboard-response,68,470565,0.0-13.0-2.9,11551,List1B,black,man,,,,null,,,,
13251,,,survey-text,69,483819,0.0-13.0-3.9,11551,List1B,black,man,,,,,"{""Q0"":""Mike and kate are hugging each other""}","<img src=""stim_listB/hug2.gif""</stim_listB>",are hugging each other,
null,"<div style=""font-size:60px;"">+</div>",,html-keyboard-response,70,484321,0.0-13.0-0.10,11551,List1B,black,man,,,,null,,,,
null,"<img src=""stim_listB/touch7.gif""</stim_listB>",,html-keyboard-response,71,486324,0.0-13.0-1.10,11551,List1B,black,man,,,,null,,,,
null,is touching,,html-keyboard-response,72,488326,0.0-13.0-2.10,11551,List1B,black,man,,,,null,,,,
5411,,,survey-text,73,493739,0.0-13.0-3.10,11551,List1B,black,man,,,,,"{""Q0"":""Kate is touching jane""}","<img src=""stim_listB/touch7.gif""</stim_listB>",is touching,
null,"<div style=""font-size:60px;"">+</div>",,html-keyboard-response,74,494241,0.0-13.0-0.11,11551,List1B,black,man,,,,null,,,,
null,"<img src=""stim_listB/fight6.gif""</stim_listB>",,html-keyboard-response,75,496244,0.0-13.0-1.11,11551,List1B,black,man,,,,null,,,,
null,are fighting each other,,html-keyboard-response,76,498245,0.0-13.0-2.11,11551,List1B,black,man,,,,null,,,,
8622,,,survey-text,77,506869,0.0-13.0-3.11,11551,List1B,black,man,,,,,"{""Q0"":""Luke and fred are fighting each other""}","<img src=""stim_listB/fight6.gif""</stim_listB>",are fighting each other,
null,"<div style=""font-size:60px;"">+</div>",,html-keyboard-response,78,507371,0.0-13.0-0.12,11551,List1B,black,man,,,,null,,,,
null,"<img src=""stim_listB/argue1.gif""</stim_listB>",,html-keyboard-response,79,509375,0.0-13.0-1.12,11551,List1B,black,man,,,,null,,,,
null,is arguing with,,html-keyboard-response,80,511377,0.0-13.0-2.12,11551,List1B,black,man,,,,null,,,,
11571,,,survey-text,81,522950,0.0-13.0-3.12,11551,List1B,black,man,,,,,"{""Q0"":""Beth is arguing with Mike""}","<img src=""stim_listB/argue1.gif""</stim_listB>",is arguing with,
null,"<div style=""font-size:60px;"">+</div>",,html-keyboard-response,82,523451,0.0-13.0-0.13,11551,List1B,black,man,,,,null,,,,
null,"<img src=""stim_listB/shout4.gif""</stim_listB>",,html-keyboard-response,83,525454,0.0-13.0-1.13,11551,List1B,black,man,,,,null,,,,
null,are shouting at each other,,html-keyboard-response,84,527456,0.0-13.0-2.13,11551,List1B,black,man,,,,null,,,,
12124,,,survey-text,85,539582,0.0-13.0-3.13,11551,List1B,black,man,,,,,"{""Q0"":""Dave and Jane are arguing at each other""}","<img src=""stim_listB/shout4.gif""</stim_listB>",are shouting at each other,
null,"<div style=""font-size:60px;"">+</div>",,html-keyboard-response,86,540085,0.0-13.0-0.14,11551,List1B,black,man,,,,null,,,,
null,"<img src=""stim_listB/meet2.gif""</stim_listB>",,html-keyboard-response,87,542088,0.0-13.0-1.14,11551,List1B,black,man,,,,null,,,,
null,are meeting each other,,html-keyboard-response,88,544090,0.0-13.0-2.14,11551,List1B,black,man,,,,null,,,,
9675,,,survey-text,89,553767,0.0-13.0-3.14,11551,List1B,black,man,,,,,"{""Q0"":""Fred and Beth are meeting each other""}","<img src=""stim_listB/meet2.gif""</stim_listB>",are meeting each other,
null,"<div style=""font-size:60px;"">+</div>",,html-keyboard-response,90,554269,0.0-13.0-0.15,11551,List1B,black,man,,,,null,,,,
null,"<img src=""stim_listB/meet8.gif""</stim_listB>",,html-keyboard-response,91,556270,0.0-13.0-1.15,11551,List1B,black,man,,,,null,,,,
null,are meeting each other,,html-keyboard-response,92,558273,0.0-13.0-2.15,11551,List1B,black,man,,,,null,,,,
17935,,,survey-text,93,576210,0.0-13.0-3.15,11551,List1B,black,man,,,,,"{""Q0"":""Beth and Ruth are meeting each other.""}","<img src=""stim_listB/meet8.gif""</stim_listB>",are meeting each other,
null,"<div style=""font-size:60px;"">+</div>",,html-keyboard-response,94,576713,0.0-13.0-0.16,11551,List1B,black,man,,,,null,,,,
null,"<img src=""stim_listB/dance1.gif""</stim_listB>",,html-keyboard-response,95,578716,0.0-13.0-1.16,11551,List1B,black,man,,,,null,,,,
null,is dancing with,,html-keyboard-response,96,580718,0.0-13.0-2.16,11551,List1B,black,man,,,,null,,,,
7474,,,survey-text,97,588194,0.0-13.0-3.16,11551,List1B,black,man,,,,,"{""Q0"":""Beth is dancing with Fred.""}","<img src=""stim_listB/dance1.gif""</stim_listB>",is dancing with,
null,"<div style=""font-size:60px;"">+</div>",,html-keyboard-response,98,588696,0.0-13.0-0.17,11551,List1B,black,man,,,,null,,,,
null,"<img src=""stim_listB/fight7.gif""</stim_listB>",,html-keyboard-response,99,590700,0.0-13.0-1.17,11551,List1B,black,man,,,,null,,,,
null,is fighting,,html-keyboard-response,100,592702,0.0-13.0-2.17,11551,List1B,black,man,,,,null,,,,
7379,,,survey-text,101,600083,0.0-13.0-3.17,11551,List1B,black,man,,,,,"{""Q0"":""Jane is fighting Kate""}","<img src=""stim_listB/fight7.gif""</stim_listB>",is fighting,
null,"<div style=""font-size:60px;"">+</div>",,html-keyboard-response,102,600585,0.0-13.0-0.18,11551,List1B,black,man,,,,null,,,,
null,"<img src=""stim_listB/argue4.gif""</stim_listB>",,html-keyboard-response,103,602589,0.0-13.0-1.18,11551,List1B,black,man,,,,null,,,,
null,are arguing with each other,,html-keyboard-response,104,604591,0.0-13.0-2.18,11551,List1B,black,man,,,,null,,,,
24077,,,survey-text,105,628670,0.0-13.0-3.18,11551,List1B,black,man,,,,,"{""Q0"":""Luke and Jane are arguing with each other.""}","<img src=""stim_listB/argue4.gif""</stim_listB>",are arguing with each other,
null,"<div style=""font-size:60px;"">+</div>",,html-keyboard-response,106,629172,0.0-13.0-0.19,11551,List1B,black,man,,,,null,,,,
null,"<img src=""stim_listB/touch8.gif""</stim_listB>",,html-keyboard-response,107,631176,0.0-13.0-1.19,11551,List1B,black,man,,,,null,,,,
null,are touching each other,,html-keyboard-response,108,633177,0.0-13.0-2.19,11551,List1B,black,man,,,,null,,,,
13203,,,survey-text,109,646383,0.0-13.0-3.19,11551,List1B,black,man,,,,,"{""Q0"":""Ruth and Beth are touching each other.""}","<img src=""stim_listB/touch8.gif""</stim_listB>",are touching each other,
19749,"<img src='img/portrait_matrix_list1.JPG' style='width:900px;height:500px;''></img><p>If you have memorised all the portraits and names and are ready to start, press Continue.</p><p><strong>Please note: Your memory of these faces will be tested 4 times during this experiment.</strong></p>",0,html-button-response,110,666136,0.0-14.0-0.0,11551,List1B,black,man,,,,,,,,
2965,"<img src=""portrait/WW2.jpg""style=""width:400px;height:400px;""></img>",3,html-button-response,111,670104,0.0-14.0-1.0,11551,List1B,black,man,,TRUE,3,,,,,
null,CORRECT,,html-keyboard-response,112,671607,0.0-14.0-2.0-0.0,11551,List1B,black,man,,,,null,,,,
2455,"<img src=""portrait/BW1.jpg""style=""width:400px;height:400px;""></img>",0,html-button-response,113,674064,0.0-14.0-4.0,11551,List1B,black,man,,TRUE,0,,,,,
null,CORRECT,,html-keyboard-response,114,675567,0.0-14.0-5.0-0.0,11551,List1B,black,man,,,,null,,,,
1966,"<img src=""portrait/BM2.jpg""style=""width:400px;height:400px;""></img>",5,html-button-response,115,677537,0.0-14.0-7.0,11551,List1B,black,man,,TRUE,5,,,,,
null,CORRECT,,html-keyboard-response,116,679041,0.0-14.0-8.0-0.0,11551,List1B,black,man,,,,null,,,,
1300,"<img src=""portrait/BM1.jpg""style=""width:400px;height:400px;""></img>",4,html-button-response,117,680345,0.0-14.0-10.0,11551,List1B,black,man,,TRUE,4,,,,,
null,CORRECT,,html-keyboard-response,118,681847,0.0-14.0-11.0-0.0,11551,List1B,black,man,,,,null,,,,
2720,"<img src=""portrait/WW1.jpg""style=""width:400px;height:400px;""></img>",1,html-button-response,119,684571,0.0-14.0-13.0,11551,List1B,black,man,,TRUE,1,,,,,
null,CORRECT,,html-keyboard-response,120,686073,0.0-14.0-14.0-0.0,11551,List1B,black,man,,,,null,,,,
1518,"<img src=""portrait/WM2.jpg""style=""width:400px;height:400px;""></img>",7,html-button-response,121,687594,0.0-14.0-16.0,11551,List1B,black,man,,TRUE,7,,,,,
null,CORRECT,,html-keyboard-response,122,689097,0.0-14.0-17.0-0.0,11551,List1B,black,man,,,,null,,,,
1511,"<img src=""portrait/WM1.jpg""style=""width:400px;height:400px;""></img>",6,html-button-response,123,690611,0.0-14.0-19.0,11551,List1B,black,man,,TRUE,6,,,,,
null,CORRECT,,html-keyboard-response,124,692114,0.0-14.0-20.0-0.0,11551,List1B,black,man,,,,null,,,,
1694,"<img src=""portrait/BW2.jpg""style=""width:400px;height:400px;""></img>",2,html-button-response,125,693811,0.0-14.0-22.0,11551,List1B,black,man,,TRUE,2,,,,,
null,CORRECT,,html-keyboard-response,126,695313,0.0-14.0-23.0-0.0,11551,List1B,black,man,,,,null,,,,
1654,<p>You got 8 out of 8 right first time. Press Continue.</p>,0,html-button-response,127,696969,0.0-14.0-25.0,11551,List1B,black,man,,,,,,,,
null,"<div style=""font-size:60px;"">+</div>",,html-keyboard-response,128,698472,0.0-15.0-0.0,11551,List1B,black,man,,,,null,,,,
null,"<img src=""stim_listB/touch2.gif""</stim_listB>",,html-keyboard-response,129,700476,0.0-15.0-1.0,11551,List1B,black,man,,,,null,,,,
null,are touching each other,,html-keyboard-response,130,702478,0.0-15.0-2.0,11551,List1B,black,man,,,,null,,,,
9450,,,survey-text,131,711930,0.0-15.0-3.0,11551,List1B,black,man,,,,,"{""Q0"":""Beth and Fred are touching each other.""}","<img src=""stim_listB/touch2.gif""</stim_listB>",are touching each other,
null,"<div style=""font-size:60px;"">+</div>",,html-keyboard-response,132,712431,0.0-15.0-0.1,11551,List1B,black,man,,,,null,,,,
null,"<img src=""stim_listB/dance4.gif""</stim_listB>",,html-keyboard-response,133,714434,0.0-15.0-1.1,11551,List1B,black,man,,,,null,,,,
null,are dancing with each other,,html-keyboard-response,134,716436,0.0-15.0-2.1,11551,List1B,black,man,,,,null,,,,
10598,,,survey-text,135,727035,0.0-15.0-3.1,11551,List1B,black,man,,,,,"{""Q0"":""Dave and Ruth are dancing with each other.""}","<img src=""stim_listB/dance4.gif""</stim_listB>",are dancing with each other,
null,"<div style=""font-size:60px;"">+</div>",,html-keyboard-response,136,727538,0.0-15.0-0.2,11551,List1B,black,man,,,,null,,,,
null,"<img src=""stim_listB/talk4.gif""</stim_listB>",,html-keyboard-response,137,729542,0.0-15.0-1.2,11551,List1B,black,man,,,,null,,,,
null,are talking to each other,,html-keyboard-response,138,731544,0.0-15.0-2.2,11551,List1B,black,man,,,,null,,,,
9106,,,survey-text,139,740652,0.0-15.0-3.2,11551,List1B,black,man,,,,,"{""Q0"":""Dave and Ruth are talking to each other.""}","<img src=""stim_listB/talk4.gif""</stim_listB>",are talking to each other,
null,"<div style=""font-size:60px;"">+</div>",,html-keyboard-response,140,741154,0.0-15.0-0.3,11551,List1B,black,man,,,,null,,,,
null,"<img src=""stim_listB/talk3.gif""</stim_listB>",,html-keyboard-response,141,743159,0.0-15.0-1.3,11551,List1B,black,man,,,,null,,,,
null,is talking to,,html-keyboard-response,142,745161,0.0-15.0-2.3,11551,List1B,black,man,,,,null,,,,
5716,,,survey-text,143,750879,0.0-15.0-3.3,11551,List1B,black,man,,,,,"{""Q0"":""Luke is talking to Jane""}","<img src=""stim_listB/talk3.gif""</stim_listB>",is talking to,
null,"<div style=""font-size:60px;"">+</div>",,html-keyboard-response,144,751381,0.0-15.0-0.4,11551,List1B,black,man,,,,null,,,,
null,"<img src=""stim_listB/marry1.gif""</stim_listB>",,html-keyboard-response,145,753382,0.0-15.0-1.4,11551,List1B,black,man,,,,null,,,,
null,is marrying,,html-keyboard-response,146,755384,0.0-15.0-2.4,11551,List1B,black,man,,,,null,,,,
7142,,,survey-text,147,762527,0.0-15.0-3.4,11551,List1B,black,man,,,,,"{""Q0"":""Mike is marrying Beth""}","<img src=""stim_listB/marry1.gif""</stim_listB>",is marrying,
null,"<div style=""font-size:60px;"">+</div>",,html-keyboard-response,148,763029,0.0-15.0-0.5,11551,List1B,black,man,,,,null,,,,
null,"<img src=""stim_listB/hug5.gif""</stim_listB>",,html-keyboard-response,149,765033,0.0-15.0-1.5,11551,List1B,black,man,,,,null,,,,
null,is hugging,,html-keyboard-response,150,767035,0.0-15.0-2.5,11551,List1B,black,man,,,,null,,,,
9010,,,survey-text,151,776047,0.0-15.0-3.5,11551,List1B,black,man,,,,,"{""Q0"":""Fred is hugging Luke.""}","<img src=""stim_listB/hug5.gif""</stim_listB>",is hugging,
null,"<div style=""font-size:60px;"">+</div>",,html-keyboard-response,152,776550,0.0-15.0-0.6,11551,List1B,black,man,,,,null,,,,
null,"<img src=""stim_listB/talk2.gif""</stim_listB>",,html-keyboard-response,153,778553,0.0-15.0-1.6,11551,List1B,black,man,,,,null,,,,
null,are talking to each other,,html-keyboard-response,154,780555,0.0-15.0-2.6,11551,List1B,black,man,,,,null,,,,
11507,,,survey-text,155,792064,0.0-15.0-3.6,11551,List1B,black,man,,,,,"{""Q0"":""Mike and Beth are talking to each other.""}","<img src=""stim_listB/talk2.gif""</stim_listB>",are talking to each other,
null,"<div style=""font-size:60px;"">+</div>",,html-keyboard-response,156,792566,0.0-15.0-0.7,11551,List1B,black,man,,,,null,,,,
null,"<img src=""stim_listB/talk1.gif""</stim_listB>",,html-keyboard-response,157,794570,0.0-15.0-1.7,11551,List1B,black,man,,,,null,,,,
null,is talking to,,html-keyboard-response,158,796571,0.0-15.0-2.7,11551,List1B,black,man,,,,null,,,,
6901,,,survey-text,159,803474,0.0-15.0-3.7,11551,List1B,black,man,,,,,"{""Q0"":""Kate is talking to Fred.""}","<img src=""stim_listB/talk1.gif""</stim_listB>",is talking to,
null,"<div style=""font-size:60px;"">+</div>",,html-keyboard-response,160,803976,0.0-15.0-0.8,11551,List1B,black,man,,,,null,,,,
null,"<img src=""stim_listB/argue2.gif""</stim_listB>",,html-keyboard-response,161,805979,0.0-15.0-1.8,11551,List1B,black,man,,,,null,,,,
null,are arguing with each other,,html-keyboard-response,162,807981,0.0-15.0-2.8,11551,List1B,black,man,,,,null,,,,
11492,,,survey-text,163,819475,0.0-15.0-3.8,11551,List1B,black,man,,,,,"{""Q0"":""Fred and Kate are arguing with each other.""}","<img src=""stim_listB/argue2.gif""</stim_listB>",are arguing with each other,
null,"<div style=""font-size:60px;"">+</div>",,html-keyboard-response,164,819977,0.0-15.0-0.9,11551,List1B,black,man,,,,null,,,,
null,"<img src=""stim_listB/argue6.gif""</stim_listB>",,html-keyboard-response,165,821980,0.0-15.0-1.9,11551,List1B,black,man,,,,null,,,,
null,are arguing with each other,,html-keyboard-response,166,823982,0.0-15.0-2.9,11551,List1B,black,man,,,,null,,,,
12491,,,survey-text,167,836476,0.0-15.0-3.9,11551,List1B,black,man,,,,,"{""Q0"":""Dave and Fred are arguing with each other.""}","<img src=""stim_listB/argue6.gif""</stim_listB>",are arguing with each other,
null,"<div style=""font-size:60px;"">+</div>",,html-keyboard-response,168,836978,0.0-15.0-0.10,11551,List1B,black,man,,,,null,,,,
null,"<img src=""stim_listB/dance7.gif""</stim_listB>",,html-keyboard-response,169,838981,0.0-15.0-1.10,11551,List1B,black,man,,,,null,,,,
null,is dancing with,,html-keyboard-response,170,840983,0.0-15.0-2.10,11551,List1B,black,man,,,,null,,,,
10547,,,survey-text,171,851533,0.0-15.0-3.10,11551,List1B,black,man,,,,,"{""Q0"":""Jane is dancing with Beth""}","<img src=""stim_listB/dance7.gif""</stim_listB>",is dancing with,
null,"<div style=""font-size:60px;"">+</div>",,html-keyboard-response,172,852035,0.0-15.0-0.11,11551,List1B,black,man,,,,null,,,,
null,"<img src=""stim_listB/dance2.gif""</stim_listB>",,html-keyboard-response,173,854039,0.0-15.0-1.11,11551,List1B,black,man,,,,null,,,,
null,are dancing with each other,,html-keyboard-response,174,856041,0.0-15.0-2.11,11551,List1B,black,man,,,,null,,,,
12051,,,survey-text,175,868094,0.0-15.0-3.11,11551,List1B,black,man,,,,,"{""Q0"":""Mike and Beth are dancing with each other.""}","<img src=""stim_listB/dance2.gif""</stim_listB>",are dancing with each other,
null,"<div style=""font-size:60px;"">+</div>",,html-keyboard-response,176,868597,0.0-15.0-0.12,11551,List1B,black,man,,,,null,,,,
null,"<img src=""stim_listB/kiss6.gif""</stim_listB>",,html-keyboard-response,177,870601,0.0-15.0-1.12,11551,List1B,black,man,,,,null,,,,
null,are kissing each other,,html-keyboard-response,178,872603,0.0-15.0-2.12,11551,List1B,black,man,,,,null,,,,
9506,,,survey-text,179,882111,0.0-15.0-3.12,11551,List1B,black,man,,,,,"{""Q0"":""Mike and Dave are kissing each other.""}","<img src=""stim_listB/kiss6.gif""</stim_listB>",are kissing each other,
null,"<div style=""font-size:60px;"">+</div>",,html-keyboard-response,180,882613,0.0-15.0-0.13,11551,List1B,black,man,,,,null,,,,
null,"<img src=""stim_listB/meet7.gif""</stim_listB>",,html-keyboard-response,181,884616,0.0-15.0-1.13,11551,List1B,black,man,,,,null,,,,
null,is meeting,,html-keyboard-response,182,886618,0.0-15.0-2.13,11551,List1B,black,man,,,,null,,,,
6915,,,survey-text,183,893535,0.0-15.0-3.13,11551,List1B,black,man,,,,,"{""Q0"":""Kate is meeting Jane.""}","<img src=""stim_listB/meet7.gif""</stim_listB>",is meeting,
null,"<div style=""font-size:60px;"">+</div>",,html-keyboard-response,184,894037,0.0-15.0-0.14,11551,List1B,black,man,,,,null,,,,
null,"<img src=""stim_listB/touch6.gif""</stim_listB>",,html-keyboard-response,185,896041,0.0-15.0-1.14,11551,List1B,black,man,,,,null,,,,
null,are touching each other,,html-keyboard-response,186,898043,0.0-15.0-2.14,11551,List1B,black,man,,,,null,,,,
11459,,,survey-text,187,909504,0.0-15.0-3.14,11551,List1B,black,man,,,,,"{""Q0"":""Luke and Fred are touching each other.""}","<img src=""stim_listB/touch6.gif""</stim_listB>",are touching each other,
null,"<div style=""font-size:60px;"">+</div>",,html-keyboard-response,188,910006,0.0-15.0-0.15,11551,List1B,black,man,,,,null,,,,
null,"<img src=""stim_listB/hug3.gif""</stim_listB>",,html-keyboard-response,189,912009,0.0-15.0-1.15,11551,List1B,black,man,,,,null,,,,
null,is hugging,,html-keyboard-response,190,914010,0.0-15.0-2.15,11551,List1B,black,man,,,,null,,,,
7765,,,survey-text,191,921777,0.0-15.0-3.15,11551,List1B,black,man,,,,,"{""Q0"":""Ruth is hugging Luke.""}","<img src=""stim_listB/hug3.gif""</stim_listB>",is hugging,
null,"<div style=""font-size:60px;"">+</div>",,html-keyboard-response,192,922279,0.0-15.0-0.16,11551,List1B,black,man,,,,null,,,,
null,"<img src=""stim_listB/marry2.gif""</stim_listB>",,html-keyboard-response,193,924285,0.0-15.0-1.16,11551,List1B,black,man,,,,null,,,,
null,are marrying each other,,html-keyboard-response,194,926286,0.0-15.0-2.16,11551,List1B,black,man,,,,null,,,,
9252,,,survey-text,195,935540,0.0-15.0-3.16,11551,List1B,black,man,,,,,"{""Q0"":""Kate and Fred are marrying each other.""}","<img src=""stim_listB/marry2.gif""</stim_listB>",are marrying each other,
null,"<div style=""font-size:60px;"">+</div>",,html-keyboard-response,196,936042,0.0-15.0-0.17,11551,List1B,black,man,,,,null,,,,
null,"<img src=""stim_listB/argue3.gif""</stim_listB>",,html-keyboard-response,197,938046,0.0-15.0-1.17,11551,List1B,black,man,,,,null,,,,
null,is arguing with,,html-keyboard-response,198,940048,0.0-15.0-2.17,11551,List1B,black,man,,,,null,,,,
13434,,,survey-text,199,953484,0.0-15.0-3.17,11551,List1B,black,man,,,,,"{""Q0"":""Dave is arguing with Ruth.""}","<img src=""stim_listB/argue3.gif""</stim_listB>",is arguing with,
null,"<div style=""font-size:60px;"">+</div>",,html-keyboard-response,200,953987,0.0-15.0-0.18,11551,List1B,black,man,,,,null,,,,
null,"<img src=""stim_listB/argue8.gif""</stim_listB>",,html-keyboard-response,201,955990,0.0-15.0-1.18,11551,List1B,black,man,,,,null,,,,
null,are arguing with each other,,html-keyboard-response,202,957992,0.0-15.0-2.18,11551,List1B,black,man,,,,null,,,,
11299,,,survey-text,203,969293,0.0-15.0-3.18,11551,List1B,black,man,,,,,"{""Q0"":""Jane and Beth are arguing with each other.""}","<img src=""stim_listB/argue8.gif""</stim_listB>",are arguing with each other,
null,"<div style=""font-size:60px;"">+</div>",,html-keyboard-response,204,969795,0.0-15.0-0.19,11551,List1B,black,man,,,,null,,,,
null,"<img src=""stim_listB/hug8.gif""</stim_listB>",,html-keyboard-response,205,971799,0.0-15.0-1.19,11551,List1B,black,man,,,,null,,,,
null,are hugging each other,,html-keyboard-response,206,973801,0.0-15.0-2.19,11551,List1B,black,man,,,,null,,,,
9930,,,survey-text,207,983734,0.0-15.0-3.19,11551,List1B,black,man,,,,,"{""Q0"":""Jane and Kate are hugging each other.""}","<img src=""stim_listB/hug8.gif""</stim_listB>",are hugging each other,
2781,"<img src='img/portrait_matrix_list1.JPG' style='width:900px;height:500px;''></img><p>If you have memorised all the portraits and names and are ready to start, press Continue.</p><p><strong>Please note: Your memory of these faces will be tested 4 times during this experiment.</strong></p>",0,html-button-response,208,986518,0.0-16.0-0.0,11551,List1B,black,man,,,,,,,,
1652,"<img src=""portrait/BW1.jpg""style=""width:400px;height:400px;""></img>",0,html-button-response,209,989175,0.0-16.0-1.0,11551,List1B,black,man,,TRUE,0,,,,,
null,CORRECT,,html-keyboard-response,210,990679,0.0-16.0-2.0-0.0,11551,List1B,black,man,,,,null,,,,
2358,"<img src=""portrait/BW2.jpg""style=""width:400px;height:400px;""></img>",2,html-button-response,211,993039,0.0-16.0-4.0,11551,List1B,black,man,,TRUE,2,,,,,
null,CORRECT,,html-keyboard-response,212,994542,0.0-16.0-5.0-0.0,11551,List1B,black,man,,,,null,,,,
2503,"<img src=""portrait/BM2.jpg""style=""width:400px;height:400px;""></img>",5,html-button-response,213,997048,0.0-16.0-7.0,11551,List1B,black,man,,TRUE,5,,,,,
null,CORRECT,,html-keyboard-response,214,998549,0.0-16.0-8.0-0.0,11551,List1B,black,man,,,,null,,,,
1552,"<img src=""portrait/BM1.jpg""style=""width:400px;height:400px;""></img>",4,html-button-response,215,1000103,0.0-16.0-10.0,11551,List1B,black,man,,TRUE,4,,,,,
null,CORRECT,,html-keyboard-response,216,1001607,0.0-16.0-11.0-0.0,11551,List1B,black,man,,,,null,,,,
1979,"<img src=""portrait/WM1.jpg""style=""width:400px;height:400px;""></img>",6,html-button-response,217,1003592,0.0-16.0-13.0,11551,List1B,black,man,,TRUE,6,,,,,
null,CORRECT,,html-keyboard-response,218,1005094,0.0-16.0-14.0-0.0,11551,List1B,black,man,,,,null,,,,
2286,"<img src=""portrait/WW2.jpg""style=""width:400px;height:400px;""></img>",3,html-button-response,219,1007382,0.0-16.0-16.0,11551,List1B,black,man,,TRUE,3,,,,,
null,CORRECT,,html-keyboard-response,220,1008885,0.0-16.0-17.0-0.0,11551,List1B,black,man,,,,null,,,,
1335,"<img src=""portrait/WW1.jpg""style=""width:400px;height:400px;""></img>",1,html-button-response,221,1010226,0.0-16.0-19.0,11551,List1B,black,man,,TRUE,1,,,,,
null,CORRECT,,html-keyboard-response,222,1011728,0.0-16.0-20.0-0.0,11551,List1B,black,man,,,,null,,,,
1965,"<img src=""portrait/WM2.jpg""style=""width:400px;height:400px;""></img>",7,html-button-response,223,1013696,0.0-16.0-22.0,11551,List1B,black,man,,TRUE,7,,,,,
null,CORRECT,,html-keyboard-response,224,1015200,0.0-16.0-23.0-0.0,11551,List1B,black,man,,,,null,,,,
1102,<p>You got 8 out of 8 right first time. Press Continue.</p>,0,html-button-response,225,1016304,0.0-16.0-25.0,11551,List1B,black,man,,,,,,,,
null,"<div style=""font-size:60px;"">+</div>",,html-keyboard-response,226,1017807,0.0-17.0-0.0,11551,List1B,black,man,,,,null,,,,
null,"<img src=""stim_listB/shout3.gif""</stim_listB>",,html-keyboard-response,227,1019811,0.0-17.0-1.0,11551,List1B,black,man,,,,null,,,,
null,is shouting at,,html-keyboard-response,228,1021813,0.0-17.0-2.0,11551,List1B,black,man,,,,null,,,,
7873,,,survey-text,229,1029688,0.0-17.0-3.0,11551,List1B,black,man,,,,,"{""Q0"":""Luke is shouting at Ruth.""}","<img src=""stim_listB/shout3.gif""</stim_listB>",is shouting at,
null,"<div style=""font-size:60px;"">+</div>",,html-keyboard-response,230,1030191,0.0-17.0-0.1,11551,List1B,black,man,,,,null,,,,
null,"<img src=""stim_listB/shout2.gif""</stim_listB>",,html-keyboard-response,231,1032195,0.0-17.0-1.1,11551,List1B,black,man,,,,null,,,,
null,are shouting at each other,,html-keyboard-response,232,1034197,0.0-17.0-2.1,11551,List1B,black,man,,,,null,,,,
15644,,,survey-text,233,1049843,0.0-17.0-3.1,11551,List1B,black,man,,,,,"{""Q0"":""Kate and Mike are arguing with each other.""}","<img src=""stim_listB/shout2.gif""</stim_listB>",are shouting at each other,
null,"<div style=""font-size:60px;"">+</div>",,html-keyboard-response,234,1050345,0.0-17.0-0.2,11551,List1B,black,man,,,,null,,,,
null,"<img src=""stim_listB/shout7.gif""</stim_listB>",,html-keyboard-response,235,1052348,0.0-17.0-1.2,11551,List1B,black,man,,,,null,,,,
null,is shouting at,,html-keyboard-response,236,1054350,0.0-17.0-2.2,11551,List1B,black,man,,,,null,,,,
9179,,,survey-text,237,1063532,0.0-17.0-3.2,11551,List1B,black,man,,,,,"{""Q0"":""Ruth is shouting at Beth.""}","<img src=""stim_listB/shout7.gif""</stim_listB>",is shouting at,
null,"<div style=""font-size:60px;"">+</div>",,html-keyboard-response,238,1064034,0.0-17.0-0.3,11551,List1B,black,man,,,,null,,,,
null,"<img src=""stim_listB/meet3.gif""</stim_listB>",,html-keyboard-response,239,1066038,0.0-17.0-1.3,11551,List1B,black,man,,,,null,,,,
null,is meeting,,html-keyboard-response,240,1068040,0.0-17.0-2.3,11551,List1B,black,man,,,,null,,,,
6330,,,survey-text,241,1074372,0.0-17.0-3.3,11551,List1B,black,man,,,,,"{""Q0"":""Dave is meeting Jane.""}","<img src=""stim_listB/meet3.gif""</stim_listB>",is meeting,
null,"<div style=""font-size:60px;"">+</div>",,html-keyboard-response,242,1074874,0.0-17.0-0.4,11551,List1B,black,man,,,,null,,,,
null,"<img src=""stim_listB/meet1.gif""</stim_listB>",,html-keyboard-response,243,1076877,0.0-17.0-1.4,11551,List1B,black,man,,,,null,,,,
null,is meeting,,html-keyboard-response,244,1078880,0.0-17.0-2.4,11551,List1B,black,man,,,,null,,,,
5953,,,survey-text,245,1084836,0.0-17.0-3.4,11551,List1B,black,man,,,,,"{""Q0"":""Kate is meeting Mike""}","<img src=""stim_listB/meet1.gif""</stim_listB>",is meeting,
null,"<div style=""font-size:60px;"">+</div>",,html-keyboard-response,246,1085339,0.0-17.0-0.5,11551,List1B,black,man,,,,null,,,,
null,"<img src=""stim_listB/kiss8.gif""</stim_listB>",,html-keyboard-response,247,1087342,0.0-17.0-1.5,11551,List1B,black,man,,,,null,,,,
null,are kissing each other,,html-keyboard-response,248,1089344,0.0-17.0-2.5,11551,List1B,black,man,,,,null,,,,
14973,,,survey-text,249,1104318,0.0-17.0-3.5,11551,List1B,black,man,,,,,"{""Q0"":""Kate and Jane are kissing each other.""}","<img src=""stim_listB/kiss8.gif""</stim_listB>",are kissing each other,
null,"<div style=""font-size:60px;"">+</div>",,html-keyboard-response,250,1104819,0.0-17.0-0.6,11551,List1B,black,man,,,,null,,,,
null,"<img src=""stim_listB/argue5.gif""</stim_listB>",,html-keyboard-response,251,1106823,0.0-17.0-1.6,11551,List1B,black,man,,,,null,,,,
null,is arguing with,,html-keyboard-response,252,1108825,0.0-17.0-2.6,11551,List1B,black,man,,,,null,,,,
9901,,,survey-text,253,1118728,0.0-17.0-3.6,11551,List1B,black,man,,,,,"{""Q0"":""Luke is arguing with Mike.""}","<img src=""stim_listB/argue5.gif""</stim_listB>",is arguing with,
null,"<div style=""font-size:60px;"">+</div>",,html-keyboard-response,254,1119230,0.0-17.0-0.7,11551,List1B,black,man,,,,null,,,,
null,"<img src=""stim_listB/fight3.gif""</stim_listB>",,html-keyboard-response,255,1121234,0.0-17.0-1.7,11551,List1B,black,man,,,,null,,,,
null,is fighting,,html-keyboard-response,256,1123236,0.0-17.0-2.7,11551,List1B,black,man,,,,null,,,,
11794,,,survey-text,257,1135031,0.0-17.0-3.7,11551,List1B,black,man,,,,,"{""Q0"":""Dave is fighting with Jane.""}","<img src=""stim_listB/fight3.gif""</stim_listB>",is fighting,
null,"<div style=""font-size:60px;"">+</div>",,html-keyboard-response,258,1135532,0.0-17.0-0.8,11551,List1B,black,man,,,,null,,,,
null,"<img src=""stim_listB/fight8.gif""</stim_listB>",,html-keyboard-response,259,1137535,0.0-17.0-1.8,11551,List1B,black,man,,,,null,,,,
null,are fighting each other,,html-keyboard-response,260,1139537,0.0-17.0-2.8,11551,List1B,black,man,,,,null,,,,
11358,,,survey-text,261,1150898,0.0-17.0-3.8,11551,List1B,black,man,,,,,"{""Q0"":""Beth and Ruth are fighting each other.""}","<img src=""stim_listB/fight8.gif""</stim_listB>",are fighting each other,
null,"<div style=""font-size:60px;"">+</div>",,html-keyboard-response,262,1151399,0.0-17.0-0.9,11551,List1B,black,man,,,,null,,,,
null,"<img src=""stim_listB/marry8.gif""</stim_listB>",,html-keyboard-response,263,1153401,0.0-17.0-1.9,11551,List1B,black,man,,,,null,,,,
null,are marrying each other,,html-keyboard-response,264,1155403,0.0-17.0-2.9,11551,List1B,black,man,,,,null,,,,
11703,,,survey-text,265,1167108,0.0-17.0-3.9,11551,List1B,black,man,,,,,"{""Q0"":""Beth and Jane are marrying each other.""}","<img src=""stim_listB/marry8.gif""</stim_listB>",are marrying each other,
null,"<div style=""font-size:60px;"">+</div>",,html-keyboard-response,266,1167610,0.0-17.0-0.10,11551,List1B,black,man,,,,null,,,,
null,"<img src=""stim_listB/talk7.gif""</stim_listB>",,html-keyboard-response,267,1169614,0.0-17.0-1.10,11551,List1B,black,man,,,,null,,,,
null,is talking to,,html-keyboard-response,268,1171616,0.0-17.0-2.10,11551,List1B,black,man,,,,null,,,,
10018,,,survey-text,269,1181636,0.0-17.0-3.10,11551,List1B,black,man,,,,,"{""Q0"":""Jane is talking to Beth.""}","<img src=""stim_listB/talk7.gif""</stim_listB>",is talking to,
null,"<div style=""font-size:60px;"">+</div>",,html-keyboard-response,270,1182139,0.0-17.0-0.11,11551,List1B,black,man,,,,null,,,,
null,"<img src=""stim_listB/kiss2.gif""</stim_listB>",,html-keyboard-response,271,1184143,0.0-17.0-1.11,11551,List1B,black,man,,,,null,,,,
null,are kissing each other,,html-keyboard-response,272,1186145,0.0-17.0-2.11,11551,List1B,black,man,,,,null,,,,
7794,,,survey-text,273,1193941,0.0-17.0-3.11,11551,List1B,black,man,,,,,"{""Q0"":""Kate and Mike are kissing each other.""}","<img src=""stim_listB/kiss2.gif""</stim_listB>",are kissing each other,
null,"<div style=""font-size:60px;"">+</div>",,html-keyboard-response,274,1194444,0.0-17.0-0.12,11551,List1B,black,man,,,,null,,,,
null,"<img src=""stim_listB/touch4.gif""</stim_listB>",,html-keyboard-response,275,1196448,0.0-17.0-1.12,11551,List1B,black,man,,,,null,,,,
null,are touching each other,,html-keyboard-response,276,1198450,0.0-17.0-2.12,11551,List1B,black,man,,,,null,,,,
10441,,,survey-text,277,1208892,0.0-17.0-3.12,11551,List1B,black,man,,,,,"{""Q0"":""Luke and Ruth are touching each other.""}","<img src=""stim_listB/touch4.gif""</stim_listB>",are touching each other,
null,"<div style=""font-size:60px;"">+</div>",,html-keyboard-response,278,1209394,0.0-17.0-0.13,11551,List1B,black,man,,,,null,,,,
null,"<img src=""stim_listB/fight1.gif""</stim_listB>",,html-keyboard-response,279,1211396,0.0-17.0-1.13,11551,List1B,black,man,,,,null,,,,
null,is fighting,,html-keyboard-response,280,1213397,0.0-17.0-2.13,11551,List1B,black,man,,,,null,,,,
9567,,,survey-text,281,1222966,0.0-17.0-3.13,11551,List1B,black,man,,,,,"{""Q0"":""Mike is fighting Kate.""}","<img src=""stim_listB/fight1.gif""</stim_listB>",is fighting,
null,"<div style=""font-size:60px;"">+</div>",,html-keyboard-response,282,1223468,0.0-17.0-0.14,11551,List1B,black,man,,,,null,,,,
null,"<img src=""stim_listB/dance6.gif""</stim_listB>",,html-keyboard-response,283,1225472,0.0-17.0-1.14,11551,List1B,black,man,,,,null,,,,
null,are dancing with each other,,html-keyboard-response,284,1227475,0.0-17.0-2.14,11551,List1B,black,man,,,,null,,,,
17715,,,survey-text,285,1245191,0.0-17.0-3.14,11551,List1B,black,man,,,,,"{""Q0"":""Mike and Luke are dancing with each other.""}","<img src=""stim_listB/dance6.gif""</stim_listB>",are dancing with each other,
null,"<div style=""font-size:60px;"">+</div>",,html-keyboard-response,286,1245693,0.0-17.0-0.15,11551,List1B,black,man,,,,null,,,,
null,"<img src=""stim_listB/argue7.gif""</stim_listB>",,html-keyboard-response,287,1247696,0.0-17.0-1.15,11551,List1B,black,man,,,,null,,,,
null,is arguing with,,html-keyboard-response,288,1249698,0.0-17.0-2.15,11551,List1B,black,man,,,,null,,,,
25054,,,survey-text,289,1274754,0.0-17.0-3.15,11551,List1B,black,man,,,,,"{""Q0"":""Kate is arguing with Ruth""}","<img src=""stim_listB/argue7.gif""</stim_listB>",is arguing with,
null,"<div style=""font-size:60px;"">+</div>",,html-keyboard-response,290,1275256,0.0-17.0-0.16,11551,List1B,black,man,,,,null,,,,
null,"<img src=""stim_listB/dance3.gif""</stim_listB>",,html-keyboard-response,291,1277260,0.0-17.0-1.16,11551,List1B,black,man,,,,null,,,,
null,is dancing with,,html-keyboard-response,292,1279262,0.0-17.0-2.16,11551,List1B,black,man,,,,null,,,,
7297,,,survey-text,293,1286561,0.0-17.0-3.16,11551,List1B,black,man,,,,,"{""Q0"":""Jane is dancing with Luke""}","<img src=""stim_listB/dance3.gif""</stim_listB>",is dancing with,
null,"<div style=""font-size:60px;"">+</div>",,html-keyboard-response,294,1287063,0.0-17.0-0.17,11551,List1B,black,man,,,,null,,,,
null,"<img src=""stim_listB/shout6.gif""</stim_listB>",,html-keyboard-response,295,1289067,0.0-17.0-1.17,11551,List1B,black,man,,,,null,,,,
null,are shouting at each other,,html-keyboard-response,296,1291069,0.0-17.0-2.17,11551,List1B,black,man,,,,null,,,,
10627,,,survey-text,297,1301698,0.0-17.0-3.17,11551,List1B,black,man,,,,,"{""Q0"":""Mike and Dave are shouting at each other.""}","<img src=""stim_listB/shout6.gif""</stim_listB>",are shouting at each other,
null,"<div style=""font-size:60px;"">+</div>",,html-keyboard-response,298,1302200,0.0-17.0-0.18,11551,List1B,black,man,,,,null,,,,
null,"<img src=""stim_listB/dance5.gif""</stim_listB>",,html-keyboard-response,299,1304204,0.0-17.0-1.18,11551,List1B,black,man,,,,null,,,,
null,is dancing with,,html-keyboard-response,300,1306205,0.0-17.0-2.18,11551,List1B,black,man,,,,null,,,,
8083,,,survey-text,301,1314290,0.0-17.0-3.18,11551,List1B,black,man,,,,,"{""Q0"":""Dave is dancing with Fred""}","<img src=""stim_listB/dance5.gif""</stim_listB>",is dancing with,
null,"<div style=""font-size:60px;"">+</div>",,html-keyboard-response,302,1314793,0.0-17.0-0.19,11551,List1B,black,man,,,,null,,,,
null,"<img src=""stim_listB/marry5.gif""</stim_listB>",,html-keyboard-response,303,1316797,0.0-17.0-1.19,11551,List1B,black,man,,,,null,,,,
null,is marrying,,html-keyboard-response,304,1318800,0.0-17.0-2.19,11551,List1B,black,man,,,,null,,,,
8711,,,survey-text,305,1327515,0.0-17.0-3.19,11551,List1B,black,man,,,,,"{""Q0"":""Luke is marrying Mike""}","<img src=""stim_listB/marry5.gif""</stim_listB>",is marrying,
1877,"<img src='img/portrait_matrix_list1.JPG' style='width:900px;height:500px;''></img><p>If you have memorised all the portraits and names and are ready to start, press Continue.</p><p><strong>Please note: Your memory of these faces will be tested 4 times during this experiment.</strong></p>",0,html-button-response,306,1329395,0.0-18.0-0.0,11551,List1B,black,man,,,,,,,,
1573,"<img src=""portrait/BW2.jpg""style=""width:400px;height:400px;""></img>",2,html-button-response,307,1331972,0.0-18.0-1.0,11551,List1B,black,man,,TRUE,2,,,,,
null,CORRECT,,html-keyboard-response,308,1333476,0.0-18.0-2.0-0.0,11551,List1B,black,man,,,,null,,,,
1196,"<img src=""portrait/WW2.jpg""style=""width:400px;height:400px;""></img>",3,html-button-response,309,1334676,0.0-18.0-4.0,11551,List1B,black,man,,TRUE,3,,,,,
null,CORRECT,,html-keyboard-response,310,1336179,0.0-18.0-5.0-0.0,11551,List1B,black,man,,,,null,,,,
1286,"<img src=""portrait/BM1.jpg""style=""width:400px;height:400px;""></img>",4,html-button-response,311,1337468,0.0-18.0-7.0,11551,List1B,black,man,,TRUE,4,,,,,
null,CORRECT,,html-keyboard-response,312,1338972,0.0-18.0-8.0-0.0,11551,List1B,black,man,,,,null,,,,
1028,"<img src=""portrait/BM2.jpg""style=""width:400px;height:400px;""></img>",5,html-button-response,313,1340004,0.0-18.0-10.0,11551,List1B,black,man,,TRUE,5,,,,,
null,CORRECT,,html-keyboard-response,314,1341507,0.0-18.0-11.0-0.0,11551,List1B,black,man,,,,null,,,,
1142,"<img src=""portrait/WM2.jpg""style=""width:400px;height:400px;""></img>",7,html-button-response,315,1342652,0.0-18.0-13.0,11551,List1B,black,man,,TRUE,7,,,,,
null,CORRECT,,html-keyboard-response,316,1344155,0.0-18.0-14.0-0.0,11551,List1B,black,man,,,,null,,,,
1311,"<img src=""portrait/WW1.jpg""style=""width:400px;height:400px;""></img>",1,html-button-response,317,1345470,0.0-18.0-16.0,11551,List1B,black,man,,TRUE,1,,,,,
null,CORRECT,,html-keyboard-response,318,1346972,0.0-18.0-17.0-0.0,11551,List1B,black,man,,,,null,,,,
1471,"<img src=""portrait/WM1.jpg""style=""width:400px;height:400px;""></img>",6,html-button-response,319,1348446,0.0-18.0-19.0,11551,List1B,black,man,,TRUE,6,,,,,
null,CORRECT,,html-keyboard-response,320,1349949,0.0-18.0-20.0-0.0,11551,List1B,black,man,,,,null,,,,
1053,"<img src=""portrait/BW1.jpg""style=""width:400px;height:400px;""></img>",0,html-button-response,321,1351004,0.0-18.0-22.0,11551,List1B,black,man,,TRUE,0,,,,,
null,CORRECT,,html-keyboard-response,322,1352508,0.0-18.0-23.0-0.0,11551,List1B,black,man,,,,null,,,,
1454,<p>You got 8 out of 8 right first time. Press Continue.</p>,0,html-button-response,323,1353965,0.0-18.0-25.0,11551,List1B,black,man,,,,,,,,
null,"<div style=""font-size:60px;"">+</div>",,html-keyboard-response,324,1355467,0.0-19.0-0.0,11551,List1B,black,man,,,,null,,,,
null,"<img src=""stim_listB/talk5.gif""</stim_listB>",,html-keyboard-response,325,1357470,0.0-19.0-1.0,11551,List1B,black,man,,,,null,,,,
null,is talking to,,html-keyboard-response,326,1359472,0.0-19.0-2.0,11551,List1B,black,man,,,,null,,,,
7676,,,survey-text,327,1367150,0.0-19.0-3.0,11551,List1B,black,man,,,,,"{""Q0"":""Dave is talking to Fred""}","<img src=""stim_listB/talk5.gif""</stim_listB>",is talking to,
null,"<div style=""font-size:60px;"">+</div>",,html-keyboard-response,328,1367652,0.0-19.0-0.1,11551,List1B,black,man,,,,null,,,,
null,"<img src=""stim_listB/hug6.gif""</stim_listB>",,html-keyboard-response,329,1369656,0.0-19.0-1.1,11551,List1B,black,man,,,,null,,,,
null,are hugging each other,,html-keyboard-response,330,1371658,0.0-19.0-2.1,11551,List1B,black,man,,,,null,,,,
11747,,,survey-text,331,1383407,0.0-19.0-3.1,11551,List1B,black,man,,,,,"{""Q0"":""Mike and Dave are hugging each other.""}","<img src=""stim_listB/hug6.gif""</stim_listB>",are hugging each other,
null,"<div style=""font-size:60px;"">+</div>",,html-keyboard-response,332,1383910,0.0-19.0-0.2,11551,List1B,black,man,,,,null,,,,
null,"<img src=""stim_listB/hug1.gif""</stim_listB>",,html-keyboard-response,333,1385912,0.0-19.0-1.2,11551,List1B,black,man,,,,null,,,,
null,is hugging,,html-keyboard-response,334,1387913,0.0-19.0-2.2,11551,List1B,black,man,,,,null,,,,
8108,,,survey-text,335,1396023,0.0-19.0-3.2,11551,List1B,black,man,,,,,"{""Q0"":""Fred is hugging Beth""}","<img src=""stim_listB/hug1.gif""</stim_listB>",is hugging,
null,"<div style=""font-size:60px;"">+</div>",,html-keyboard-response,336,1396526,0.0-19.0-0.3,11551,List1B,black,man,,,,null,,,,
null,"<img src=""stim_listB/marry3.gif""</stim_listB>",,html-keyboard-response,337,1398530,0.0-19.0-1.3,11551,List1B,black,man,,,,null,,,,
null,is marrying,,html-keyboard-response,338,1400532,0.0-19.0-2.3,11551,List1B,black,man,,,,null,,,,
7715,,,survey-text,339,1408249,0.0-19.0-3.3,11551,List1B,black,man,,,,,"{""Q0"":""Ruth is marrying Dave""}","<img src=""stim_listB/marry3.gif""</stim_listB>",is marrying,
null,"<div style=""font-size:60px;"">+</div>",,html-keyboard-response,340,1408752,0.0-19.0-0.4,11551,List1B,black,man,,,,null,,,,
null,"<img src=""stim_listB/kiss4.gif""</stim_listB>",,html-keyboard-response,341,1410754,0.0-19.0-1.4,11551,List1B,black,man,,,,null,,,,
null,are kissing each other,,html-keyboard-response,342,1412756,0.0-19.0-2.4,11551,List1B,black,man,,,,null,,,,
9404,,,survey-text,343,1422162,0.0-19.0-3.4,11551,List1B,black,man,,,,,"{""Q0"":""Jane and Dave are kissing each other.""}","<img src=""stim_listB/kiss4.gif""</stim_listB>",are kissing each other,
null,"<div style=""font-size:60px;"">+</div>",,html-keyboard-response,344,1422664,0.0-19.0-0.5,11551,List1B,black,man,,,,null,,,,
null,"<img src=""stim_listB/touch5.gif""</stim_listB>",,html-keyboard-response,345,1424668,0.0-19.0-1.5,11551,List1B,black,man,,,,null,,,,
null,is touching,,html-keyboard-response,346,1426670,0.0-19.0-2.5,11551,List1B,black,man,,,,null,,,,
5882,,,survey-text,347,1432554,0.0-19.0-3.5,11551,List1B,black,man,,,,,"{""Q0"":""Dave is touching Mike""}","<img src=""stim_listB/touch5.gif""</stim_listB>",is touching,
null,"<div style=""font-size:60px;"">+</div>",,html-keyboard-response,348,1433056,0.0-19.0-0.6,11551,List1B,black,man,,,,null,,,,
null,"<img src=""stim_listB/hug7.gif""</stim_listB>",,html-keyboard-response,349,1435062,0.0-19.0-1.6,11551,List1B,black,man,,,,null,,,,
null,is hugging,,html-keyboard-response,350,1437065,0.0-19.0-2.6,11551,List1B,black,man,,,,null,,,,
4992,,,survey-text,351,1442059,0.0-19.0-3.6,11551,List1B,black,man,,,,,"{""Q0"":""Ruth is hugging Beth""}","<img src=""stim_listB/hug7.gif""</stim_listB>",is hugging,
null,"<div style=""font-size:60px;"">+</div>",,html-keyboard-response,352,1442561,0.0-19.0-0.7,11551,List1B,black,man,,,,null,,,,
null,"<img src=""stim_listB/kiss1.gif""</stim_listB>",,html-keyboard-response,353,1444565,0.0-19.0-1.7,11551,List1B,black,man,,,,null,,,,
null,is kissing,,html-keyboard-response,354,1446566,0.0-19.0-2.7,11551,List1B,black,man,,,,null,,,,
4657,,,survey-text,355,1451227,0.0-19.0-3.7,11551,List1B,black,man,,,,,"{""Q0"":""Beth is kissing Fred""}","<img src=""stim_listB/kiss1.gif""</stim_listB>",is kissing,
null,"<div style=""font-size:60px;"">+</div>",,html-keyboard-response,356,1451730,0.0-19.0-0.8,11551,List1B,black,man,,,,null,,,,
null,"<img src=""stim_listB/hug4.gif""</stim_listB>",,html-keyboard-response,357,1453733,0.0-19.0-1.8,11551,List1B,black,man,,,,null,,,,
null,are hugging each other,,html-keyboard-response,358,1455735,0.0-19.0-2.8,11551,List1B,black,man,,,,null,,,,
9661,,,survey-text,359,1465398,0.0-19.0-3.8,11551,List1B,black,man,,,,,"{""Q0"":""Dave and Jane are hugging each other""}","<img src=""stim_listB/hug4.gif""</stim_listB>",are hugging each other,
null,"<div style=""font-size:60px;"">+</div>",,html-keyboard-response,360,1465901,0.0-19.0-0.9,11551,List1B,black,man,,,,null,,,,
null,"<img src=""stim_listB/fight4.gif""</stim_listB>",,html-keyboard-response,361,1467904,0.0-19.0-1.9,11551,List1B,black,man,,,,null,,,,
null,are fighting each other,,html-keyboard-response,362,1469906,0.0-19.0-2.9,11551,List1B,black,man,,,,null,,,,
10274,,,survey-text,363,1480182,0.0-19.0-3.9,11551,List1B,black,man,,,,,"{""Q0"":""Luke and Ruth are fighting each other""}","<img src=""stim_listB/fight4.gif""</stim_listB>",are fighting each other,
null,"<div style=""font-size:60px;"">+</div>",,html-keyboard-response,364,1480685,0.0-19.0-0.10,11551,List1B,black,man,,,,null,,,,
null,"<img src=""stim_listB/meet4.gif""</stim_listB>",,html-keyboard-response,365,1482689,0.0-19.0-1.10,11551,List1B,black,man,,,,null,,,,
null,are meeting each other,,html-keyboard-response,366,1484691,0.0-19.0-2.10,11551,List1B,black,man,,,,null,,,,
8890,,,survey-text,367,1493583,0.0-19.0-3.10,11551,List1B,black,man,,,,,"{""Q0"":""Luke and Ruth are meeting each other""}","<img src=""stim_listB/meet4.gif""</stim_listB>",are meeting each other,
null,"<div style=""font-size:60px;"">+</div>",,html-keyboard-response,368,1494085,0.0-19.0-0.11,11551,List1B,black,man,,,,null,,,,
null,"<img src=""stim_listB/marry4.gif""</stim_listB>",,html-keyboard-response,369,1496089,0.0-19.0-1.11,11551,List1B,black,man,,,,null,,,,
null,are marrying each other,,html-keyboard-response,370,1498092,0.0-19.0-2.11,11551,List1B,black,man,,,,null,,,,
7977,,,survey-text,371,1506071,0.0-19.0-3.11,11551,List1B,black,man,,,,,"{""Q0"":""Luke and Jane are marrying each other""}","<img src=""stim_listB/marry4.gif""</stim_listB>",are marrying each other,
null,"<div style=""font-size:60px;"">+</div>",,html-keyboard-response,372,1506574,0.0-19.0-0.12,11551,List1B,black,man,,,,null,,,,
null,"<img src=""stim_listB/shout5.gif""</stim_listB>",,html-keyboard-response,373,1508576,0.0-19.0-1.12,11551,List1B,black,man,,,,null,,,,
null,is shouting at,,html-keyboard-response,374,1510578,0.0-19.0-2.12,11551,List1B,black,man,,,,null,,,,
9829,,,survey-text,375,1520409,0.0-19.0-3.12,11551,List1B,black,man,,,,,"{""Q0"":""Luke is shouting at Fred""}","<img src=""stim_listB/shout5.gif""</stim_listB>",is shouting at,
null,"<div style=""font-size:60px;"">+</div>",,html-keyboard-response,376,1520911,0.0-19.0-0.13,11551,List1B,black,man,,,,null,,,,
null,"<img src=""stim_listB/dance8.gif""</stim_listB>",,html-keyboard-response,377,1522915,0.0-19.0-1.13,11551,List1B,black,man,,,,null,,,,
null,are dancing with each other,,html-keyboard-response,378,1524917,0.0-19.0-2.13,11551,List1B,black,man,,,,null,,,,
9203,,,survey-text,379,1534122,0.0-19.0-3.13,11551,List1B,black,man,,,,,"{""Q0"":""Kate and Ruth are dancing with each other.""}","<img src=""stim_listB/dance8.gif""</stim_listB>",are dancing with each other,
null,"<div style=""font-size:60px;"">+</div>",,html-keyboard-response,380,1534624,0.0-19.0-0.14,11551,List1B,black,man,,,,null,,,,
null,"<img src=""stim_listB/fight5.gif""</stim_listB>",,html-keyboard-response,381,1536628,0.0-19.0-1.14,11551,List1B,black,man,,,,null,,,,
null,is fighting,,html-keyboard-response,382,1538630,0.0-19.0-2.14,11551,List1B,black,man,,,,null,,,,
6378,,,survey-text,383,1545009,0.0-19.0-3.14,11551,List1B,black,man,,,,,"{""Q0"":""Dave is fighting Mike""}","<img src=""stim_listB/fight5.gif""</stim_listB>",is fighting,
null,"<div style=""font-size:60px;"">+</div>",,html-keyboard-response,384,1545512,0.0-19.0-0.15,11551,List1B,black,man,,,,null,,,,
null,"<img src=""stim_listB/kiss3.gif""</stim_listB>",,html-keyboard-response,385,1547516,0.0-19.0-1.15,11551,List1B,black,man,,,,null,,,,
null,is kissing,,html-keyboard-response,386,1549517,0.0-19.0-2.15,11551,List1B,black,man,,,,null,,,,
6116,,,survey-text,387,1555635,0.0-19.0-3.15,11551,List1B,black,man,,,,,"{""Q0"":""Ruth is kissing Luke""}","<img src=""stim_listB/kiss3.gif""</stim_listB>",is kissing,
null,"<div style=""font-size:60px;"">+</div>",,html-keyboard-response,388,1556138,0.0-19.0-0.16,11551,List1B,black,man,,,,null,,,,
null,"<img src=""stim_listB/shout8.gif""</stim_listB>",,html-keyboard-response,389,1558142,0.0-19.0-1.16,11551,List1B,black,man,,,,null,,,,
null,are shouting at each other,,html-keyboard-response,390,1560144,0.0-19.0-2.16,11551,List1B,black,man,,,,null,,,,
14338,,,survey-text,391,1574484,0.0-19.0-3.16,11551,List1B,black,man,,,,,"{""Q0"":""Kate and Jane are shouting at each other.""}","<img src=""stim_listB/shout8.gif""</stim_listB>",are shouting at each other,
null,"<div style=""font-size:60px;"">+</div>",,html-keyboard-response,392,1574986,0.0-19.0-0.17,11551,List1B,black,man,,,,null,,,,
null,"<img src=""stim_listB/marry7.gif""</stim_listB>",,html-keyboard-response,393,1576989,0.0-19.0-1.17,11551,List1B,black,man,,,,null,,,,
null,is marrying,,html-keyboard-response,394,1578992,0.0-19.0-2.17,11551,List1B,black,man,,,,null,,,,
5666,,,survey-text,395,1584660,0.0-19.0-3.17,11551,List1B,black,man,,,,,"{""Q0"":""Ruth is marrying Kate""}","<img src=""stim_listB/marry7.gif""</stim_listB>",is marrying,
null,"<div style=""font-size:60px;"">+</div>",,html-keyboard-response,396,1585163,0.0-19.0-0.18,11551,List1B,black,man,,,,null,,,,
null,"<img src=""stim_listB/kiss7.gif""</stim_listB>",,html-keyboard-response,397,1587168,0.0-19.0-1.18,11551,List1B,black,man,,,,null,,,,
null,is kissing,,html-keyboard-response,398,1589170,0.0-19.0-2.18,11551,List1B,black,man,,,,null,,,,
5403,,,survey-text,399,1594575,0.0-19.0-3.18,11551,List1B,black,man,,,,,"{""Q0"":""Ruth is kissing Beth""}","<img src=""stim_listB/kiss7.gif""</stim_listB>",is kissing,
null,"<div style=""font-size:60px;"">+</div>",,html-keyboard-response,400,1595077,0.0-19.0-0.19,11551,List1B,black,man,,,,null,,,,
null,"<img src=""stim_listB/touch1.gif""</stim_listB>",,html-keyboard-response,401,1597079,0.0-19.0-1.19,11551,List1B,black,man,,,,null,,,,
null,is touching,,html-keyboard-response,402,1599081,0.0-19.0-2.19,11551,List1B,black,man,,,,null,,,,
5157,,,survey-text,403,1604239,0.0-19.0-3.19,11551,List1B,black,man,,,,,"{""Q0"":""Kate is touching Mike""}","<img src=""stim_listB/touch1.gif""</stim_listB>",is touching,
2878,<p>Thank you for completing that task.</p><p>The final part of this session is a short questionnaire.</p><p>Press Continue.</p>,0,html-button-response,404,1607119,0.0-20.0,11551,List1B,black,man,,,,,,,,
22501,,,survey-text,405,1630625,0.0-21.0,11551,List1B,black,man,,,,,"{""Q0"":""25"",""Q1"":""English"",""Q2"":""English"",""Q3"":""United States"",""Q4"":""Jamaican"",""Q5"":""Male""}",,,demographics
57574,,,survey-likert,406,1688219,0.0-22.0,11551,List1B,black,man,,,,,"{""Q0"":5,""Q1"":5,""Q2"":5,""Q3"":6,""Q4"":6,""Q5"":6,""Q6"":6,""Q7"":6,""Q8"":6,""Q9"":6,""Q10"":3,""Q11"":3,""Q12"":3,""Q13"":3}",,,likert_race
46609,,,survey-likert,407,1734845,0.0-23.0,11551,List1B,black,man,,,,,"{""Q0"":6,""Q1"":6,""Q2"":6,""Q3"":6,""Q4"":6,""Q5"":6,""Q6"":6,""Q7"":6,""Q8"":6,""Q9"":6,""Q10"":3,""Q11"":3,""Q12"":3,""Q13"":3}",,,likert_gender
7566,,,survey-text,408,1742416,0.0-24.0,11551,List1B,black,man,,,,,"{""Q0"":""ccc""}",,,worker_id
28692,,,external-html,409,1771427,0.0-25.0,11551,List1B,black,man,debrief.html,,,,,,,
