rt,stimulus,button_pressed,trial_type,trial_index,time_elapsed,internal_node_id,subject,list,ppt_race,ppt_gender,url,first_guess,correct,key_press,responses,image_type,phrase_type,test_part
1300,Welcome to the experiment. Press Continue to begin.,0,html-button-response,0,1304,0.0-0.0,12363,List2A,black,man,,,,,,,,
484766,,,external-html,1,487173,0.0-1.0,12363,List2A,black,man,consent.html,,,,,,,
117019,"<p>On the next page, you will see portraits of 8 people and their names.</p><p>Your first task is to take a few minutes to memorise the names of these people.</p><p>You will have to recall their names during the rest of the experiment, so it is</p><p>essential that you try to memorise these people and their names as best as you can.</p><br><p><strong>You will then be tested on your memory of these names and portraits.</strong></p><br><p>The experiment will start after you have completed this memory test.</p><br><p>Ready?</p>",0,html-button-response,2,604193,0.0-2.0,12363,List2A,black,man,,,,,,,,
192788,"<img src='img/portrait_matrix_list2.JPG' style='width:900px;height:500px;''></img><p>If you have memorised all the portraits and names and are ready to start, press Continue.</p><p><strong>Please note: Your memory of these faces will be tested 4 times during this experiment.</strong></p>",0,html-button-response,3,797982,0.0-3.0-0.0,12363,List2A,black,man,,,,,,,,
2996,"<img src=""portrait/BW2.jpg""style=""width:400px;height:400px;""></img>",2,html-button-response,4,801981,0.0-3.0-1.0,12363,List2A,black,man,,TRUE,2,,,,,
null,CORRECT,,html-keyboard-response,5,803486,0.0-3.0-2.0-0.0,12363,List2A,black,man,,,,null,,,,
3369,"<img src=""portrait/WM1.jpg""style=""width:400px;height:400px;""></img>",6,html-button-response,6,806857,0.0-3.0-4.0,12363,List2A,black,man,,TRUE,6,,,,,
null,CORRECT,,html-keyboard-response,7,808359,0.0-3.0-5.0-0.0,12363,List2A,black,man,,,,null,,,,
1635,"<img src=""portrait/WM2.jpg""style=""width:400px;height:400px;""></img>",7,html-button-response,8,809995,0.0-3.0-7.0,12363,List2A,black,man,,TRUE,7,,,,,
null,CORRECT,,html-keyboard-response,9,811497,0.0-3.0-8.0-0.0,12363,List2A,black,man,,,,null,,,,
4038,"<img src=""portrait/BW1.jpg""style=""width:400px;height:400px;""></img>",0,html-button-response,10,815536,0.0-3.0-10.0,12363,List2A,black,man,,TRUE,0,,,,,
null,CORRECT,,html-keyboard-response,11,817042,0.0-3.0-11.0-0.0,12363,List2A,black,man,,,,null,,,,
2778,"<img src=""portrait/BM2.jpg""style=""width:400px;height:400px;""></img>",4,html-button-response,12,819820,0.0-3.0-13.0,12363,List2A,black,man,,TRUE,5,,,,,
2000,"<img src=""portrait/BM2.jpg""style=""width:400px;height:400px;""></img>",5,html-button-response,13,822824,0.0-3.0-15.0-0.0,12363,List2A,black,man,,FALSE,5,,,,,
null,CORRECT,,html-keyboard-response,14,824328,0.0-3.0-15.0-1.0-0.0,12363,List2A,black,man,,,,null,,,,
3686,"<img src=""portrait/BM1.jpg""style=""width:400px;height:400px;""></img>",4,html-button-response,15,828015,0.0-3.0-16.0,12363,List2A,black,man,,TRUE,4,,,,,
null,CORRECT,,html-keyboard-response,16,829518,0.0-3.0-17.0-0.0,12363,List2A,black,man,,,,null,,,,
6985,"<img src=""portrait/WW2.jpg""style=""width:400px;height:400px;""></img>",3,html-button-response,17,836504,0.0-3.0-19.0,12363,List2A,black,man,,TRUE,3,,,,,
null,CORRECT,,html-keyboard-response,18,838009,0.0-3.0-20.0-0.0,12363,List2A,black,man,,,,null,,,,
3680,"<img src=""portrait/WW1.jpg""style=""width:400px;height:400px;""></img>",1,html-button-response,19,841689,0.0-3.0-22.0,12363,List2A,black,man,,TRUE,1,,,,,
null,CORRECT,,html-keyboard-response,20,843192,0.0-3.0-23.0-0.0,12363,List2A,black,man,,,,null,,,,
1136,<p>You got 7 out of 8 right first time. Press Continue.</p>,0,html-button-response,21,844329,0.0-3.0-25.0,12363,List2A,black,man,,,,,,,,
1727,"As you did not score 100%, the memory game will repeat. Press Continue.",0,html-button-response,22,847058,0.0-3.0-26.0-0.0,12363,List2A,black,man,,,,,,,,
1341,"<img src='img/portrait_matrix_list2.JPG' style='width:900px;height:500px;''></img><p>If you have memorised all the portraits and names and are ready to start, press Continue.</p><p><strong>Please note: Your memory of these faces will be tested 4 times during this experiment.</strong></p>",0,html-button-response,23,849402,0.0-3.1-0.1,12363,List2A,black,man,,,,,,,,
2414,"<img src=""portrait/BW2.jpg""style=""width:400px;height:400px;""></img>",2,html-button-response,24,852818,0.0-3.1-1.1,12363,List2A,black,man,,TRUE,2,,,,,
null,CORRECT,,html-keyboard-response,25,854320,0.0-3.1-2.1-0.1,12363,List2A,black,man,,,,null,,,,
5019,"<img src=""portrait/WM1.jpg""style=""width:400px;height:400px;""></img>",6,html-button-response,26,859340,0.0-3.1-4.1,12363,List2A,black,man,,TRUE,6,,,,,
null,CORRECT,,html-keyboard-response,27,860844,0.0-3.1-5.1-0.1,12363,List2A,black,man,,,,null,,,,
2853,"<img src=""portrait/WM2.jpg""style=""width:400px;height:400px;""></img>",7,html-button-response,28,863698,0.0-3.1-7.1,12363,List2A,black,man,,TRUE,7,,,,,
null,CORRECT,,html-keyboard-response,29,865202,0.0-3.1-8.1-0.1,12363,List2A,black,man,,,,null,,,,
3367,"<img src=""portrait/BW1.jpg""style=""width:400px;height:400px;""></img>",0,html-button-response,30,868570,0.0-3.1-10.1,12363,List2A,black,man,,TRUE,0,,,,,
null,CORRECT,,html-keyboard-response,31,870071,0.0-3.1-11.1-0.1,12363,List2A,black,man,,,,null,,,,
2234,"<img src=""portrait/BM2.jpg""style=""width:400px;height:400px;""></img>",5,html-button-response,32,872306,0.0-3.1-13.1,12363,List2A,black,man,,TRUE,5,,,,,
null,CORRECT,,html-keyboard-response,33,873811,0.0-3.1-14.1-0.1,12363,List2A,black,man,,,,null,,,,
591,"<img src=""portrait/BM1.jpg""style=""width:400px;height:400px;""></img>",4,html-button-response,34,874403,0.0-3.1-16.1,12363,List2A,black,man,,TRUE,4,,,,,
null,CORRECT,,html-keyboard-response,35,875904,0.0-3.1-17.1-0.1,12363,List2A,black,man,,,,null,,,,
1832,"<img src=""portrait/WW2.jpg""style=""width:400px;height:400px;""></img>",3,html-button-response,36,877737,0.0-3.1-19.1,12363,List2A,black,man,,TRUE,3,,,,,
null,CORRECT,,html-keyboard-response,37,879242,0.0-3.1-20.1-0.1,12363,List2A,black,man,,,,null,,,,
3333,"<img src=""portrait/WW1.jpg""style=""width:400px;height:400px;""></img>",1,html-button-response,38,882578,0.0-3.1-22.1,12363,List2A,black,man,,TRUE,1,,,,,
null,CORRECT,,html-keyboard-response,39,884081,0.0-3.1-23.1-0.1,12363,List2A,black,man,,,,null,,,,
960,<p>You got 8 out of 8 right first time. Press Continue.</p>,0,html-button-response,40,885042,0.0-3.1-25.1,12363,List2A,black,man,,,,,,,,
19567,"<p>In this experiment, you will view photographs of the people from the memory game interacting.</p><p>By using the <strong>exact</strong> phrase given <i>after</i> the photograph appears and recalling the correct names of the people in the photographs, form a sentence describing the interaction. You do not need to capitalise names.</p><p>Type your answer in the space provided. Please complete every sentence before moving onto the next trial.</p><p>You will only have a few seconds to memorise each given photograph and phrase before you can respond, so try your best to focus.</p><p>An example is given below. Press 'Continue' when you are ready.</p><img src='img/speaking_example_v2.jpg' style='width:800px;height:460px;''></img>",0,html-button-response,41,905612,0.0-4.0,12363,List2A,black,man,,,,,,,,
1491,"<p>Before the experiment starts, you will watch two example trials. Press 'Continue'.</p>",0,html-button-response,42,908104,0.0-5.0,12363,List2A,black,man,,,,,,,,
null,<img src='img/speaking_WW.gif'></img>,,html-keyboard-response,43,911106,0.0-6.0,12363,List2A,black,man,,,,null,,,,
null,<p>is speaking to</p>,,html-keyboard-response,44,913106,0.0-7.0,12363,List2A,black,man,,,,null,,,,
3141,<p><b>Answer:</b> jane is speaking to ruth</p>,0,html-button-response,45,916249,0.0-8.0,12363,List2A,black,man,,,,,,,,
null,<img src='img/pointing_BM.gif'></img>,,html-keyboard-response,46,919251,0.0-9.0,12363,List2A,black,man,,,,null,,,,
null,<p>are pointing at each other</p>,,html-keyboard-response,47,921252,0.0-10.0,12363,List2A,black,man,,,,null,,,,
3132,<p><b>Answer:</b> fred and mike are pointing at each other</p>,0,html-button-response,48,924384,0.0-11.0,12363,List2A,black,man,,,,,,,,
68297,"<p>Ready to start the experiment?</p><br><p><strong>Remember to describe the picture using a full sentence,</strong></p><p><strong>that combines the names of the people with the given phrase.</strong></p><p><strong>If you do not do this correctly you will not be paid.</strong></p><p><strong> You do not need to capitalise names or use punctuation.</strong></p><br><p>Press 'Continue' to begin.</p>",0,html-button-response,49,993683,0.0-12.0,12363,List2A,black,man,,,,,,,,
null,"<div style=""font-size:60px;"">+</div>",,html-keyboard-response,50,995185,0.0-13.0-0.0,12363,List2A,black,man,,,,null,,,,
null,"<img src=""stim_listA/marry4.gif""</stim_listA>",,html-keyboard-response,51,997187,0.0-13.0-1.0,12363,List2A,black,man,,,,null,,,,
null,are marrying each other,,html-keyboard-response,52,999188,0.0-13.0-2.0,12363,List2A,black,man,,,,null,,,,
18981,,,survey-text,53,1018171,0.0-13.0-3.0,12363,List2A,black,man,,,,,"{""Q0"":""Kate is marrying fred""}","<img src=""stim_listA/marry4.gif""</stim_listA>",are marrying each other,
null,"<div style=""font-size:60px;"">+</div>",,html-keyboard-response,54,1018673,0.0-13.0-0.1,12363,List2A,black,man,,,,null,,,,
null,"<img src=""stim_listA/marry1.gif""</stim_listA>",,html-keyboard-response,55,1020674,0.0-13.0-1.1,12363,List2A,black,man,,,,null,,,,
null,is marrying,,html-keyboard-response,56,1022676,0.0-13.0-2.1,12363,List2A,black,man,,,,null,,,,
11233,,,survey-text,57,1033911,0.0-13.0-3.1,12363,List2A,black,man,,,,,"{""Q0"":""Dave is marrying Ruth""}","<img src=""stim_listA/marry1.gif""</stim_listA>",is marrying,
null,"<div style=""font-size:60px;"">+</div>",,html-keyboard-response,58,1034413,0.0-13.0-0.2,12363,List2A,black,man,,,,null,,,,
null,"<img src=""stim_listA/fight6.gif""</stim_listA>",,html-keyboard-response,59,1036415,0.0-13.0-1.2,12363,List2A,black,man,,,,null,,,,
null,are fighting each other,,html-keyboard-response,60,1038416,0.0-13.0-2.2,12363,List2A,black,man,,,,null,,,,
198880,,,survey-text,61,1237296,0.0-13.0-3.2,12363,List2A,black,man,,,,,"{""Q0"":""fred is fighting luke""}","<img src=""stim_listA/fight6.gif""</stim_listA>",are fighting each other,
null,"<div style=""font-size:60px;"">+</div>",,html-keyboard-response,62,1237797,0.0-13.0-0.3,12363,List2A,black,man,,,,null,,,,
null,"<img src=""stim_listA/argue8.gif""</stim_listA>",,html-keyboard-response,63,1239800,0.0-13.0-1.3,12363,List2A,black,man,,,,null,,,,
null,are arguing with each other,,html-keyboard-response,64,1241803,0.0-13.0-2.3,12363,List2A,black,man,,,,null,,,,
14793,,,survey-text,65,1256597,0.0-13.0-3.3,12363,List2A,black,man,,,,,"{""Q0"":""kate is arguing with ruth""}","<img src=""stim_listA/argue8.gif""</stim_listA>",are arguing with each other,
null,"<div style=""font-size:60px;"">+</div>",,html-keyboard-response,66,1257098,0.0-13.0-0.4,12363,List2A,black,man,,,,null,,,,
null,"<img src=""stim_listA/marry6.gif""</stim_listA>",,html-keyboard-response,67,1259101,0.0-13.0-1.4,12363,List2A,black,man,,,,null,,,,
null,are marrying each other,,html-keyboard-response,68,1261103,0.0-13.0-2.4,12363,List2A,black,man,,,,null,,,,
87417,,,survey-text,69,1348520,0.0-13.0-3.4,12363,List2A,black,man,,,,,"{""Q0"":""Luke and Mike are marrying each other""}","<img src=""stim_listA/marry6.gif""</stim_listA>",are marrying each other,
null,"<div style=""font-size:60px;"">+</div>",,html-keyboard-response,70,1349021,0.0-13.0-0.5,12363,List2A,black,man,,,,null,,,,
null,"<img src=""stim_listA/argue1.gif""</stim_listA>",,html-keyboard-response,71,1351024,0.0-13.0-1.5,12363,List2A,black,man,,,,null,,,,
null,is arguing with,,html-keyboard-response,72,1353026,0.0-13.0-2.5,12363,List2A,black,man,,,,null,,,,
9548,,,survey-text,73,1362575,0.0-13.0-3.5,12363,List2A,black,man,,,,,"{""Q0"":""Jane is arguing with Dave""}","<img src=""stim_listA/argue1.gif""</stim_listA>",is arguing with,
null,"<div style=""font-size:60px;"">+</div>",,html-keyboard-response,74,1363076,0.0-13.0-0.6,12363,List2A,black,man,,,,null,,,,
null,"<img src=""stim_listA/talk4.gif""</stim_listA>",,html-keyboard-response,75,1365079,0.0-13.0-1.6,12363,List2A,black,man,,,,null,,,,
null,are talking to each other,,html-keyboard-response,76,1367081,0.0-13.0-2.6,12363,List2A,black,man,,,,null,,,,
168423,,,survey-text,77,1535506,0.0-13.0-3.6,12363,List2A,black,man,,,,,"{""Q0"":""Mike and Beth are talking to each other""}","<img src=""stim_listA/talk4.gif""</stim_listA>",are talking to each other,
null,"<div style=""font-size:60px;"">+</div>",,html-keyboard-response,78,1536007,0.0-13.0-0.7,12363,List2A,black,man,,,,null,,,,
null,"<img src=""stim_listA/dance7.gif""</stim_listA>",,html-keyboard-response,79,1538010,0.0-13.0-1.7,12363,List2A,black,man,,,,null,,,,
null,is dancing with,,html-keyboard-response,80,1540011,0.0-13.0-2.7,12363,List2A,black,man,,,,null,,,,
16433,,,survey-text,81,1556445,0.0-13.0-3.7,12363,List2A,black,man,,,,,"{""Q0"":""Ruth is dancing with Kate""}","<img src=""stim_listA/dance7.gif""</stim_listA>",is dancing with,
null,"<div style=""font-size:60px;"">+</div>",,html-keyboard-response,82,1556947,0.0-13.0-0.8,12363,List2A,black,man,,,,null,,,,
null,"<img src=""stim_listA/touch2.gif""</stim_listA>",,html-keyboard-response,83,1558948,0.0-13.0-1.8,12363,List2A,black,man,,,,null,,,,
null,are touching each other,,html-keyboard-response,84,1560950,0.0-13.0-2.8,12363,List2A,black,man,,,,null,,,,
16617,,,survey-text,85,1577568,0.0-13.0-3.8,12363,List2A,black,man,,,,,"{""Q0"":""Ruth and Luke are touching each other""}","<img src=""stim_listA/touch2.gif""</stim_listA>",are touching each other,
null,"<div style=""font-size:60px;"">+</div>",,html-keyboard-response,86,1578068,0.0-13.0-0.9,12363,List2A,black,man,,,,null,,,,
null,"<img src=""stim_listA/shout5.gif""</stim_listA>",,html-keyboard-response,87,1580071,0.0-13.0-1.9,12363,List2A,black,man,,,,null,,,,
null,is shouting at,,html-keyboard-response,88,1582072,0.0-13.0-2.9,12363,List2A,black,man,,,,null,,,,
13233,,,survey-text,89,1595305,0.0-13.0-3.9,12363,List2A,black,man,,,,,"{""Q0"":""Luke is shouting at fred""}","<img src=""stim_listA/shout5.gif""</stim_listA>",is shouting at,
null,"<div style=""font-size:60px;"">+</div>",,html-keyboard-response,90,1595808,0.0-13.0-0.10,12363,List2A,black,man,,,,null,,,,
null,"<img src=""stim_listA/shout1.gif""</stim_listA>",,html-keyboard-response,91,1597811,0.0-13.0-1.10,12363,List2A,black,man,,,,null,,,,
null,is shouting at,,html-keyboard-response,92,1599812,0.0-13.0-2.10,12363,List2A,black,man,,,,null,,,,
211570,,,survey-text,93,1811383,0.0-13.0-3.10,12363,List2A,black,man,,,,,"{""Q0"":""Luke is shouting at Ruth""}","<img src=""stim_listA/shout1.gif""</stim_listA>",is shouting at,
null,"<div style=""font-size:60px;"">+</div>",,html-keyboard-response,94,1811886,0.0-13.0-0.11,12363,List2A,black,man,,,,null,,,,
null,"<img src=""stim_listA/argue3.gif""</stim_listA>",,html-keyboard-response,95,1813888,0.0-13.0-1.11,12363,List2A,black,man,,,,null,,,,
null,is arguing with,,html-keyboard-response,96,1815889,0.0-13.0-2.11,12363,List2A,black,man,,,,null,,,,
391762,,,survey-text,97,2207651,0.0-13.0-3.11,12363,List2A,black,man,,,,,"{""Q0"":""Ruth is arguing with Beth""}","<img src=""stim_listA/argue3.gif""</stim_listA>",is arguing with,
null,"<div style=""font-size:60px;"">+</div>",,html-keyboard-response,98,2208154,0.0-13.0-0.12,12363,List2A,black,man,,,,null,,,,
null,"<img src=""stim_listA/fight4.gif""</stim_listA>",,html-keyboard-response,99,2210157,0.0-13.0-1.12,12363,List2A,black,man,,,,null,,,,
null,are fighting each other,,html-keyboard-response,100,2212160,0.0-13.0-2.12,12363,List2A,black,man,,,,null,,,,
28962,,,survey-text,101,2241123,0.0-13.0-3.12,12363,List2A,black,man,,,,,"{""Q0"":""Kate is fighting Fred""}","<img src=""stim_listA/fight4.gif""</stim_listA>",are fighting each other,
null,"<div style=""font-size:60px;"">+</div>",,html-keyboard-response,102,2241626,0.0-13.0-0.13,12363,List2A,black,man,,,,null,,,,
null,"<img src=""stim_listA/talk8.gif""</stim_listA>",,html-keyboard-response,103,2243629,0.0-13.0-1.13,12363,List2A,black,man,,,,null,,,,
null,are talking to each other,,html-keyboard-response,104,2245632,0.0-13.0-2.13,12363,List2A,black,man,,,,null,,,,
11834,,,survey-text,105,2257467,0.0-13.0-3.13,12363,List2A,black,man,,,,,"{""Q0"":""Kate and Jane are talking to each other""}","<img src=""stim_listA/talk8.gif""</stim_listA>",are talking to each other,
null,"<div style=""font-size:60px;"">+</div>",,html-keyboard-response,106,2257967,0.0-13.0-0.14,12363,List2A,black,man,,,,null,,,,
null,"<img src=""stim_listA/touch4.gif""</stim_listA>",,html-keyboard-response,107,2259969,0.0-13.0-1.14,12363,List2A,black,man,,,,null,,,,
null,are touching each other,,html-keyboard-response,108,2261971,0.0-13.0-2.14,12363,List2A,black,man,,,,null,,,,
10909,,,survey-text,109,2272881,0.0-13.0-3.14,12363,List2A,black,man,,,,,"{""Q0"":""Beth and Fred are touching each other""}","<img src=""stim_listA/touch4.gif""</stim_listA>",are touching each other,
null,"<div style=""font-size:60px;"">+</div>",,html-keyboard-response,110,2273382,0.0-13.0-0.15,12363,List2A,black,man,,,,null,,,,
null,"<img src=""stim_listA/dance4.gif""</stim_listA>",,html-keyboard-response,111,2275384,0.0-13.0-1.15,12363,List2A,black,man,,,,null,,,,
null,are dancing with each other,,html-keyboard-response,112,2277386,0.0-13.0-2.15,12363,List2A,black,man,,,,null,,,,
11638,,,survey-text,113,2289025,0.0-13.0-3.15,12363,List2A,black,man,,,,,"{""Q0"":""Kate and Mike are dancing with each other""}","<img src=""stim_listA/dance4.gif""</stim_listA>",are dancing with each other,
null,"<div style=""font-size:60px;"">+</div>",,html-keyboard-response,114,2289527,0.0-13.0-0.16,12363,List2A,black,man,,,,null,,,,
null,"<img src=""stim_listA/kiss1.gif""</stim_listA>",,html-keyboard-response,115,2291528,0.0-13.0-1.16,12363,List2A,black,man,,,,null,,,,
null,is kissing,,html-keyboard-response,116,2293530,0.0-13.0-2.16,12363,List2A,black,man,,,,null,,,,
109597,,,survey-text,117,2403129,0.0-13.0-3.16,12363,List2A,black,man,,,,,"{""Q0"":""Ruth is kissing Luke""}","<img src=""stim_listA/kiss1.gif""</stim_listA>",is kissing,
null,"<div style=""font-size:60px;"">+</div>",,html-keyboard-response,118,2403630,0.0-13.0-0.17,12363,List2A,black,man,,,,null,,,,
null,"<img src=""stim_listA/marry3.gif""</stim_listA>",,html-keyboard-response,119,2405631,0.0-13.0-1.17,12363,List2A,black,man,,,,null,,,,
null,is marrying,,html-keyboard-response,120,2407632,0.0-13.0-2.17,12363,List2A,black,man,,,,null,,,,
9762,,,survey-text,121,2417395,0.0-13.0-3.17,12363,List2A,black,man,,,,,"{""Q0"":""Mike is marrying Beth""}","<img src=""stim_listA/marry3.gif""</stim_listA>",is marrying,
null,"<div style=""font-size:60px;"">+</div>",,html-keyboard-response,122,2417896,0.0-13.0-0.18,12363,List2A,black,man,,,,null,,,,
null,"<img src=""stim_listA/kiss4.gif""</stim_listA>",,html-keyboard-response,123,2419899,0.0-13.0-1.18,12363,List2A,black,man,,,,null,,,,
null,are kissing each other,,html-keyboard-response,124,2421900,0.0-13.0-2.18,12363,List2A,black,man,,,,null,,,,
22127,,,survey-text,125,2444029,0.0-13.0-3.18,12363,List2A,black,man,,,,,"{""Q0"":""Mike and kate are kissing each other""}","<img src=""stim_listA/kiss4.gif""</stim_listA>",are kissing each other,
null,"<div style=""font-size:60px;"">+</div>",,html-keyboard-response,126,2444530,0.0-13.0-0.19,12363,List2A,black,man,,,,null,,,,
null,"<img src=""stim_listA/fight3.gif""</stim_listA>",,html-keyboard-response,127,2446532,0.0-13.0-1.19,12363,List2A,black,man,,,,null,,,,
null,is fighting,,html-keyboard-response,128,2448534,0.0-13.0-2.19,12363,List2A,black,man,,,,null,,,,
8202,,,survey-text,129,2456737,0.0-13.0-3.19,12363,List2A,black,man,,,,,"{""Q0"":""Jane is fighting Dave""}","<img src=""stim_listA/fight3.gif""</stim_listA>",is fighting,
6777,"<img src='img/portrait_matrix_list2.JPG' style='width:900px;height:500px;''></img><p>If you have memorised all the portraits and names and are ready to start, press Continue.</p><p><strong>Please note: Your memory of these faces will be tested 4 times during this experiment.</strong></p>",0,html-button-response,130,2463515,0.0-14.0-0.0,12363,List2A,black,man,,,,,,,,
2741,"<img src=""portrait/WM1.jpg""style=""width:400px;height:400px;""></img>",6,html-button-response,131,2467258,0.0-14.0-1.0,12363,List2A,black,man,,TRUE,6,,,,,
null,CORRECT,,html-keyboard-response,132,2468762,0.0-14.0-2.0-0.0,12363,List2A,black,man,,,,null,,,,
2018,"<img src=""portrait/BW1.jpg""style=""width:400px;height:400px;""></img>",0,html-button-response,133,2470782,0.0-14.0-4.0,12363,List2A,black,man,,TRUE,0,,,,,
null,CORRECT,,html-keyboard-response,134,2472283,0.0-14.0-5.0-0.0,12363,List2A,black,man,,,,null,,,,
2331,"<img src=""portrait/WM2.jpg""style=""width:400px;height:400px;""></img>",7,html-button-response,135,2474616,0.0-14.0-7.0,12363,List2A,black,man,,TRUE,7,,,,,
null,CORRECT,,html-keyboard-response,136,2476119,0.0-14.0-8.0-0.0,12363,List2A,black,man,,,,null,,,,
1562,"<img src=""portrait/BM2.jpg""style=""width:400px;height:400px;""></img>",5,html-button-response,137,2477682,0.0-14.0-10.0,12363,List2A,black,man,,TRUE,5,,,,,
null,CORRECT,,html-keyboard-response,138,2479184,0.0-14.0-11.0-0.0,12363,List2A,black,man,,,,null,,,,
2045,"<img src=""portrait/WW2.jpg""style=""width:400px;height:400px;""></img>",3,html-button-response,139,2481231,0.0-14.0-13.0,12363,List2A,black,man,,TRUE,3,,,,,
null,CORRECT,,html-keyboard-response,140,2482733,0.0-14.0-14.0-0.0,12363,List2A,black,man,,,,null,,,,
1716,"<img src=""portrait/WW1.jpg""style=""width:400px;height:400px;""></img>",1,html-button-response,141,2484451,0.0-14.0-16.0,12363,List2A,black,man,,TRUE,1,,,,,
null,CORRECT,,html-keyboard-response,142,2485954,0.0-14.0-17.0-0.0,12363,List2A,black,man,,,,null,,,,
1481,"<img src=""portrait/BM1.jpg""style=""width:400px;height:400px;""></img>",4,html-button-response,143,2487436,0.0-14.0-19.0,12363,List2A,black,man,,TRUE,4,,,,,
null,CORRECT,,html-keyboard-response,144,2488939,0.0-14.0-20.0-0.0,12363,List2A,black,man,,,,null,,,,
3892,"<img src=""portrait/BW2.jpg""style=""width:400px;height:400px;""></img>",2,html-button-response,145,2492833,0.0-14.0-22.0,12363,List2A,black,man,,TRUE,2,,,,,
null,CORRECT,,html-keyboard-response,146,2494336,0.0-14.0-23.0-0.0,12363,List2A,black,man,,,,null,,,,
869,<p>You got 8 out of 8 right first time. Press Continue.</p>,0,html-button-response,147,2495205,0.0-14.0-25.0,12363,List2A,black,man,,,,,,,,
null,"<div style=""font-size:60px;"">+</div>",,html-keyboard-response,148,2496708,0.0-15.0-0.0,12363,List2A,black,man,,,,null,,,,
null,"<img src=""stim_listA/dance2.gif""</stim_listA>",,html-keyboard-response,149,2498710,0.0-15.0-1.0,12363,List2A,black,man,,,,null,,,,
null,are dancing with each other,,html-keyboard-response,150,2500713,0.0-15.0-2.0,12363,List2A,black,man,,,,null,,,,
18258,,,survey-text,151,2518972,0.0-15.0-3.0,12363,List2A,black,man,,,,,"{""Q0"":""Dave and Jane are dancing with each other""}","<img src=""stim_listA/dance2.gif""</stim_listA>",are dancing with each other,
null,"<div style=""font-size:60px;"">+</div>",,html-keyboard-response,152,2519473,0.0-15.0-0.1,12363,List2A,black,man,,,,null,,,,
null,"<img src=""stim_listA/touch8.gif""</stim_listA>",,html-keyboard-response,153,2521474,0.0-15.0-1.1,12363,List2A,black,man,,,,null,,,,
null,are touching each other,,html-keyboard-response,154,2523477,0.0-15.0-2.1,12363,List2A,black,man,,,,null,,,,
11565,,,survey-text,155,2535043,0.0-15.0-3.1,12363,List2A,black,man,,,,,"{""Q0"":""Beth and ruth are touching each other""}","<img src=""stim_listA/touch8.gif""</stim_listA>",are touching each other,
null,"<div style=""font-size:60px;"">+</div>",,html-keyboard-response,156,2535545,0.0-15.0-0.2,12363,List2A,black,man,,,,null,,,,
null,"<img src=""stim_listA/argue6.gif""</stim_listA>",,html-keyboard-response,157,2537546,0.0-15.0-1.2,12363,List2A,black,man,,,,null,,,,
null,are arguing with each other,,html-keyboard-response,158,2539547,0.0-15.0-2.2,12363,List2A,black,man,,,,null,,,,
14582,,,survey-text,159,2554130,0.0-15.0-3.2,12363,List2A,black,man,,,,,"{""Q0"":""Mike and luke are arguing with each other""}","<img src=""stim_listA/argue6.gif""</stim_listA>",are arguing with each other,
null,"<div style=""font-size:60px;"">+</div>",,html-keyboard-response,160,2554631,0.0-15.0-0.3,12363,List2A,black,man,,,,null,,,,
null,"<img src=""stim_listA/meet1.gif""</stim_listA>",,html-keyboard-response,161,2556639,0.0-15.0-1.3,12363,List2A,black,man,,,,null,,,,
null,is meeting,,html-keyboard-response,162,2558641,0.0-15.0-2.3,12363,List2A,black,man,,,,null,,,,
13230,,,survey-text,163,2571872,0.0-15.0-3.3,12363,List2A,black,man,,,,,"{""Q0"":""Dave is meeting Jane""}","<img src=""stim_listA/meet1.gif""</stim_listA>",is meeting,
null,"<div style=""font-size:60px;"">+</div>",,html-keyboard-response,164,2572372,0.0-15.0-0.4,12363,List2A,black,man,,,,null,,,,
null,"<img src=""stim_listA/marry8.gif""</stim_listA>",,html-keyboard-response,165,2574375,0.0-15.0-1.4,12363,List2A,black,man,,,,null,,,,
null,are marrying each other,,html-keyboard-response,166,2576376,0.0-15.0-2.4,12363,List2A,black,man,,,,null,,,,
13735,,,survey-text,167,2590111,0.0-15.0-3.4,12363,List2A,black,man,,,,,"{""Q0"":""Kate and Ruth are marrying each other""}","<img src=""stim_listA/marry8.gif""</stim_listA>",are marrying each other,
null,"<div style=""font-size:60px;"">+</div>",,html-keyboard-response,168,2590612,0.0-15.0-0.5,12363,List2A,black,man,,,,null,,,,
null,"<img src=""stim_listA/shout4.gif""</stim_listA>",,html-keyboard-response,169,2592614,0.0-15.0-1.5,12363,List2A,black,man,,,,null,,,,
null,are shouting at each other,,html-keyboard-response,170,2594617,0.0-15.0-2.5,12363,List2A,black,man,,,,null,,,,
10882,,,survey-text,171,2605499,0.0-15.0-3.5,12363,List2A,black,man,,,,,"{""Q0"":""Kate and Mike are shouting at each other""}","<img src=""stim_listA/shout4.gif""</stim_listA>",are shouting at each other,
null,"<div style=""font-size:60px;"">+</div>",,html-keyboard-response,172,2606000,0.0-15.0-0.6,12363,List2A,black,man,,,,null,,,,
null,"<img src=""stim_listA/dance1.gif""</stim_listA>",,html-keyboard-response,173,2608002,0.0-15.0-1.6,12363,List2A,black,man,,,,null,,,,
null,is dancing with,,html-keyboard-response,174,2610003,0.0-15.0-2.6,12363,List2A,black,man,,,,null,,,,
15874,,,survey-text,175,2625878,0.0-15.0-3.6,12363,List2A,black,man,,,,,"{""Q0"":""Jane is dancing with Luke""}","<img src=""stim_listA/dance1.gif""</stim_listA>",is dancing with,
null,"<div style=""font-size:60px;"">+</div>",,html-keyboard-response,176,2626380,0.0-15.0-0.7,12363,List2A,black,man,,,,null,,,,
null,"<img src=""stim_listA/talk2.gif""</stim_listA>",,html-keyboard-response,177,2628381,0.0-15.0-1.7,12363,List2A,black,man,,,,null,,,,
null,are talking to each other,,html-keyboard-response,178,2630382,0.0-15.0-2.7,12363,List2A,black,man,,,,null,,,,
12610,,,survey-text,179,2642992,0.0-15.0-3.7,12363,List2A,black,man,,,,,"{""Q0"":""Dave and Ruth are talking to each other""}","<img src=""stim_listA/talk2.gif""</stim_listA>",are talking to each other,
null,"<div style=""font-size:60px;"">+</div>",,html-keyboard-response,180,2643494,0.0-15.0-0.8,12363,List2A,black,man,,,,null,,,,
null,"<img src=""stim_listA/fight2.gif""</stim_listA>",,html-keyboard-response,181,2645497,0.0-15.0-1.8,12363,List2A,black,man,,,,null,,,,
null,are fighting each other,,html-keyboard-response,182,2647499,0.0-15.0-2.8,12363,List2A,black,man,,,,null,,,,
9943,,,survey-text,183,2657444,0.0-15.0-3.8,12363,List2A,black,man,,,,,"{""Q0"":""Ruth and Dave are fighting each other""}","<img src=""stim_listA/fight2.gif""</stim_listA>",are fighting each other,
null,"<div style=""font-size:60px;"">+</div>",,html-keyboard-response,184,2657946,0.0-15.0-0.9,12363,List2A,black,man,,,,null,,,,
null,"<img src=""stim_listA/hug7.gif""</stim_listA>",,html-keyboard-response,185,2659948,0.0-15.0-1.9,12363,List2A,black,man,,,,null,,,,
null,is hugging,,html-keyboard-response,186,2661949,0.0-15.0-2.9,12363,List2A,black,man,,,,null,,,,
8789,,,survey-text,187,2670739,0.0-15.0-3.9,12363,List2A,black,man,,,,,"{""Q0"":""Ruth is hugging Beth""}","<img src=""stim_listA/hug7.gif""</stim_listA>",is hugging,
null,"<div style=""font-size:60px;"">+</div>",,html-keyboard-response,188,2671240,0.0-15.0-0.10,12363,List2A,black,man,,,,null,,,,
null,"<img src=""stim_listA/hug1.gif""</stim_listA>",,html-keyboard-response,189,2673245,0.0-15.0-1.10,12363,List2A,black,man,,,,null,,,,
null,is hugging,,html-keyboard-response,190,2675248,0.0-15.0-2.10,12363,List2A,black,man,,,,null,,,,
15160,,,survey-text,191,2690408,0.0-15.0-3.10,12363,List2A,black,man,,,,,"{""Q0"":""Luke is hugging Ruth""}","<img src=""stim_listA/hug1.gif""</stim_listA>",is hugging,
null,"<div style=""font-size:60px;"">+</div>",,html-keyboard-response,192,2690911,0.0-15.0-0.11,12363,List2A,black,man,,,,null,,,,
null,"<img src=""stim_listA/talk6.gif""</stim_listA>",,html-keyboard-response,193,2692913,0.0-15.0-1.11,12363,List2A,black,man,,,,null,,,,
null,are talking to each other,,html-keyboard-response,194,2694914,0.0-15.0-2.11,12363,List2A,black,man,,,,null,,,,
14000,,,survey-text,195,2708915,0.0-15.0-3.11,12363,List2A,black,man,,,,,"{""Q0"":""dave and fred are talking to each other""}","<img src=""stim_listA/talk6.gif""</stim_listA>",are talking to each other,
null,"<div style=""font-size:60px;"">+</div>",,html-keyboard-response,196,2709417,0.0-15.0-0.12,12363,List2A,black,man,,,,null,,,,
null,"<img src=""stim_listA/fight7.gif""</stim_listA>",,html-keyboard-response,197,2711418,0.0-15.0-1.12,12363,List2A,black,man,,,,null,,,,
null,is fighting,,html-keyboard-response,198,2713419,0.0-15.0-2.12,12363,List2A,black,man,,,,null,,,,
9728,,,survey-text,199,2723147,0.0-15.0-3.12,12363,List2A,black,man,,,,,"{""Q0"":""Kate is fighting Jane""}","<img src=""stim_listA/fight7.gif""</stim_listA>",is fighting,
null,"<div style=""font-size:60px;"">+</div>",,html-keyboard-response,200,2723649,0.0-15.0-0.13,12363,List2A,black,man,,,,null,,,,
null,"<img src=""stim_listA/fight8.gif""</stim_listA>",,html-keyboard-response,201,2725650,0.0-15.0-1.13,12363,List2A,black,man,,,,null,,,,
null,are fighting each other,,html-keyboard-response,202,2727651,0.0-15.0-2.13,12363,List2A,black,man,,,,null,,,,
8983,,,survey-text,203,2736634,0.0-15.0-3.13,12363,List2A,black,man,,,,,"{""Q0"":""Beth and Ruth are fighting each other""}","<img src=""stim_listA/fight8.gif""</stim_listA>",are fighting each other,
null,"<div style=""font-size:60px;"">+</div>",,html-keyboard-response,204,2737135,0.0-15.0-0.14,12363,List2A,black,man,,,,null,,,,
null,"<img src=""stim_listA/marry7.gif""</stim_listA>",,html-keyboard-response,205,2739136,0.0-15.0-1.14,12363,List2A,black,man,,,,null,,,,
null,is marrying,,html-keyboard-response,206,2741138,0.0-15.0-2.14,12363,List2A,black,man,,,,null,,,,
7205,,,survey-text,207,2748344,0.0-15.0-3.14,12363,List2A,black,man,,,,,"{""Q0"":""Beth is marrying Ruth""}","<img src=""stim_listA/marry7.gif""</stim_listA>",is marrying,
null,"<div style=""font-size:60px;"">+</div>",,html-keyboard-response,208,2748844,0.0-15.0-0.15,12363,List2A,black,man,,,,null,,,,
null,"<img src=""stim_listA/meet8.gif""</stim_listA>",,html-keyboard-response,209,2750845,0.0-15.0-1.15,12363,List2A,black,man,,,,null,,,,
null,are meeting each other,,html-keyboard-response,210,2752848,0.0-15.0-2.15,12363,List2A,black,man,,,,null,,,,
17702,,,survey-text,211,2770550,0.0-15.0-3.15,12363,List2A,black,man,,,,,"{""Q0"":""Ruth and Beth are meeting each other""}","<img src=""stim_listA/meet8.gif""</stim_listA>",are meeting each other,
null,"<div style=""font-size:60px;"">+</div>",,html-keyboard-response,212,2771053,0.0-15.0-0.16,12363,List2A,black,man,,,,null,,,,
null,"<img src=""stim_listA/argue7.gif""</stim_listA>",,html-keyboard-response,213,2773055,0.0-15.0-1.16,12363,List2A,black,man,,,,null,,,,
null,is arguing with,,html-keyboard-response,214,2775057,0.0-15.0-2.16,12363,List2A,black,man,,,,null,,,,
11474,,,survey-text,215,2786531,0.0-15.0-3.16,12363,List2A,black,man,,,,,"{""Q0"":""Beth is arguing with Jane""}","<img src=""stim_listA/argue7.gif""</stim_listA>",is arguing with,
null,"<div style=""font-size:60px;"">+</div>",,html-keyboard-response,216,2787032,0.0-15.0-0.17,12363,List2A,black,man,,,,null,,,,
null,"<img src=""stim_listA/touch3.gif""</stim_listA>",,html-keyboard-response,217,2789034,0.0-15.0-1.17,12363,List2A,black,man,,,,null,,,,
null,is touching,,html-keyboard-response,218,2791037,0.0-15.0-2.17,12363,List2A,black,man,,,,null,,,,
17466,,,survey-text,219,2808504,0.0-15.0-3.17,12363,List2A,black,man,,,,,"{""Q0"":""Mike and Beth are touching eachother""}","<img src=""stim_listA/touch3.gif""</stim_listA>",is touching,
null,"<div style=""font-size:60px;"">+</div>",,html-keyboard-response,220,2809005,0.0-15.0-0.18,12363,List2A,black,man,,,,null,,,,
null,"<img src=""stim_listA/hug5.gif""</stim_listA>",,html-keyboard-response,221,2811007,0.0-15.0-1.18,12363,List2A,black,man,,,,null,,,,
null,is hugging,,html-keyboard-response,222,2813008,0.0-15.0-2.18,12363,List2A,black,man,,,,null,,,,
6992,,,survey-text,223,2820001,0.0-15.0-3.18,12363,List2A,black,man,,,,,"{""Q0"":""Luke is hugging Mike""}","<img src=""stim_listA/hug5.gif""</stim_listA>",is hugging,
null,"<div style=""font-size:60px;"">+</div>",,html-keyboard-response,224,2820502,0.0-15.0-0.19,12363,List2A,black,man,,,,null,,,,
null,"<img src=""stim_listA/kiss6.gif""</stim_listA>",,html-keyboard-response,225,2822504,0.0-15.0-1.19,12363,List2A,black,man,,,,null,,,,
null,are kissing each other,,html-keyboard-response,226,2824506,0.0-15.0-2.19,12363,List2A,black,man,,,,null,,,,
10137,,,survey-text,227,2834645,0.0-15.0-3.19,12363,List2A,black,man,,,,,"{""Q0"":""Dave and mike are kissing each other""}","<img src=""stim_listA/kiss6.gif""</stim_listA>",are kissing each other,
6847,"<img src='img/portrait_matrix_list2.JPG' style='width:900px;height:500px;''></img><p>If you have memorised all the portraits and names and are ready to start, press Continue.</p><p><strong>Please note: Your memory of these faces will be tested 4 times during this experiment.</strong></p>",0,html-button-response,228,2841492,0.0-16.0-0.0,12363,List2A,black,man,,,,,,,,
4583,"<img src=""portrait/WM1.jpg""style=""width:400px;height:400px;""></img>",6,html-button-response,229,2847077,0.0-16.0-1.0,12363,List2A,black,man,,TRUE,6,,,,,
null,CORRECT,,html-keyboard-response,230,2848579,0.0-16.0-2.0-0.0,12363,List2A,black,man,,,,null,,,,
2481,"<img src=""portrait/WW1.jpg""style=""width:400px;height:400px;""></img>",1,html-button-response,231,2851061,0.0-16.0-4.0,12363,List2A,black,man,,TRUE,1,,,,,
null,CORRECT,,html-keyboard-response,232,2852564,0.0-16.0-5.0-0.0,12363,List2A,black,man,,,,null,,,,
4291,"<img src=""portrait/WM2.jpg""style=""width:400px;height:400px;""></img>",7,html-button-response,233,2856857,0.0-16.0-7.0,12363,List2A,black,man,,TRUE,7,,,,,
null,CORRECT,,html-keyboard-response,234,2858360,0.0-16.0-8.0-0.0,12363,List2A,black,man,,,,null,,,,
1159,"<img src=""portrait/BM1.jpg""style=""width:400px;height:400px;""></img>",4,html-button-response,235,2859520,0.0-16.0-10.0,12363,List2A,black,man,,TRUE,4,,,,,
null,CORRECT,,html-keyboard-response,236,2861024,0.0-16.0-11.0-0.0,12363,List2A,black,man,,,,null,,,,
2467,"<img src=""portrait/WW2.jpg""style=""width:400px;height:400px;""></img>",3,html-button-response,237,2863494,0.0-16.0-13.0,12363,List2A,black,man,,TRUE,3,,,,,
null,CORRECT,,html-keyboard-response,238,2864995,0.0-16.0-14.0-0.0,12363,List2A,black,man,,,,null,,,,
1234,"<img src=""portrait/BM2.jpg""style=""width:400px;height:400px;""></img>",5,html-button-response,239,2866230,0.0-16.0-16.0,12363,List2A,black,man,,TRUE,5,,,,,
null,CORRECT,,html-keyboard-response,240,2867733,0.0-16.0-17.0-0.0,12363,List2A,black,man,,,,null,,,,
3460,"<img src=""portrait/BW2.jpg""style=""width:400px;height:400px;""></img>",2,html-button-response,241,2871194,0.0-16.0-19.0,12363,List2A,black,man,,TRUE,2,,,,,
null,CORRECT,,html-keyboard-response,242,2872697,0.0-16.0-20.0-0.0,12363,List2A,black,man,,,,null,,,,
2059,"<img src=""portrait/BW1.jpg""style=""width:400px;height:400px;""></img>",0,html-button-response,243,2874757,0.0-16.0-22.0,12363,List2A,black,man,,TRUE,0,,,,,
null,CORRECT,,html-keyboard-response,244,2876262,0.0-16.0-23.0-0.0,12363,List2A,black,man,,,,null,,,,
1349,<p>You got 8 out of 8 right first time. Press Continue.</p>,0,html-button-response,245,2877613,0.0-16.0-25.0,12363,List2A,black,man,,,,,,,,
null,"<div style=""font-size:60px;"">+</div>",,html-keyboard-response,246,2879116,0.0-17.0-0.0,12363,List2A,black,man,,,,null,,,,
null,"<img src=""stim_listA/shout3.gif""</stim_listA>",,html-keyboard-response,247,2881117,0.0-17.0-1.0,12363,List2A,black,man,,,,null,,,,
null,is shouting at,,html-keyboard-response,248,2883119,0.0-17.0-2.0,12363,List2A,black,man,,,,null,,,,
7742,,,survey-text,249,2890862,0.0-17.0-3.0,12363,List2A,black,man,,,,,"{""Q0"":""Kate is shouting at Ruth""}","<img src=""stim_listA/shout3.gif""</stim_listA>",is shouting at,
null,"<div style=""font-size:60px;"">+</div>",,html-keyboard-response,250,2891363,0.0-17.0-0.1,12363,List2A,black,man,,,,null,,,,
null,"<img src=""stim_listA/talk3.gif""</stim_listA>",,html-keyboard-response,251,2893365,0.0-17.0-1.1,12363,List2A,black,man,,,,null,,,,
null,is talking to,,html-keyboard-response,252,2895367,0.0-17.0-2.1,12363,List2A,black,man,,,,null,,,,
8167,,,survey-text,253,2903534,0.0-17.0-3.1,12363,List2A,black,man,,,,,"{""Q0"":""Luke is talking dave""}","<img src=""stim_listA/talk3.gif""</stim_listA>",is talking to,
null,"<div style=""font-size:60px;"">+</div>",,html-keyboard-response,254,2904035,0.0-17.0-0.2,12363,List2A,black,man,,,,null,,,,
null,"<img src=""stim_listA/dance6.gif""</stim_listA>",,html-keyboard-response,255,2906037,0.0-17.0-1.2,12363,List2A,black,man,,,,null,,,,
null,are dancing with each other,,html-keyboard-response,256,2908040,0.0-17.0-2.2,12363,List2A,black,man,,,,null,,,,
56456,,,survey-text,257,2964496,0.0-17.0-3.2,12363,List2A,black,man,,,,,"{""Q0"":""Mike is dancing with Ruth""}","<img src=""stim_listA/dance6.gif""</stim_listA>",are dancing with each other,
null,"<div style=""font-size:60px;"">+</div>",,html-keyboard-response,258,2964997,0.0-17.0-0.3,12363,List2A,black,man,,,,null,,,,
null,"<img src=""stim_listA/touch1.gif""</stim_listA>",,html-keyboard-response,259,2967000,0.0-17.0-1.3,12363,List2A,black,man,,,,null,,,,
null,is touching,,html-keyboard-response,260,2969002,0.0-17.0-2.3,12363,List2A,black,man,,,,null,,,,
11237,,,survey-text,261,2980239,0.0-17.0-3.3,12363,List2A,black,man,,,,,"{""Q0"":""Dave and Jane are touching each other""}","<img src=""stim_listA/touch1.gif""</stim_listA>",is touching,
null,"<div style=""font-size:60px;"">+</div>",,html-keyboard-response,262,2980740,0.0-17.0-0.4,12363,List2A,black,man,,,,null,,,,
null,"<img src=""stim_listA/dance5.gif""</stim_listA>",,html-keyboard-response,263,2982743,0.0-17.0-1.4,12363,List2A,black,man,,,,null,,,,
null,is dancing with,,html-keyboard-response,264,2984744,0.0-17.0-2.4,12363,List2A,black,man,,,,null,,,,
8825,,,survey-text,265,2993570,0.0-17.0-3.4,12363,List2A,black,man,,,,,"{""Q0"":""Luke and mike are dancing""}","<img src=""stim_listA/dance5.gif""</stim_listA>",is dancing with,
null,"<div style=""font-size:60px;"">+</div>",,html-keyboard-response,266,2994071,0.0-17.0-0.5,12363,List2A,black,man,,,,null,,,,
null,"<img src=""stim_listA/kiss8.gif""</stim_listA>",,html-keyboard-response,267,2996072,0.0-17.0-1.5,12363,List2A,black,man,,,,null,,,,
null,are kissing each other,,html-keyboard-response,268,2998074,0.0-17.0-2.5,12363,List2A,black,man,,,,null,,,,
10992,,,survey-text,269,3009068,0.0-17.0-3.5,12363,List2A,black,man,,,,,"{""Q0"":""Dave and mike are dancing with each other""}","<img src=""stim_listA/kiss8.gif""</stim_listA>",are kissing each other,
null,"<div style=""font-size:60px;"">+</div>",,html-keyboard-response,270,3009570,0.0-17.0-0.6,12363,List2A,black,man,,,,null,,,,
null,"<img src=""stim_listA/hug4.gif""</stim_listA>",,html-keyboard-response,271,3011572,0.0-17.0-1.6,12363,List2A,black,man,,,,null,,,,
null,are hugging each other,,html-keyboard-response,272,3013574,0.0-17.0-2.6,12363,List2A,black,man,,,,null,,,,
10384,,,survey-text,273,3023959,0.0-17.0-3.6,12363,List2A,black,man,,,,,"{""Q0"":""Kate and Mike are dancing with each other""}","<img src=""stim_listA/hug4.gif""</stim_listA>",are hugging each other,
null,"<div style=""font-size:60px;"">+</div>",,html-keyboard-response,274,3024460,0.0-17.0-0.7,12363,List2A,black,man,,,,null,,,,
null,"<img src=""stim_listA/meet5.gif""</stim_listA>",,html-keyboard-response,275,3026462,0.0-17.0-1.7,12363,List2A,black,man,,,,null,,,,
null,is meeting,,html-keyboard-response,276,3028464,0.0-17.0-2.7,12363,List2A,black,man,,,,null,,,,
6485,,,survey-text,277,3034951,0.0-17.0-3.7,12363,List2A,black,man,,,,,"{""Q0"":""Mike is meeting Dave""}","<img src=""stim_listA/meet5.gif""</stim_listA>",is meeting,
null,"<div style=""font-size:60px;"">+</div>",,html-keyboard-response,278,3035452,0.0-17.0-0.8,12363,List2A,black,man,,,,null,,,,
null,"<img src=""stim_listA/talk5.gif""</stim_listA>",,html-keyboard-response,279,3037455,0.0-17.0-1.8,12363,List2A,black,man,,,,null,,,,
null,is talking to,,html-keyboard-response,280,3039456,0.0-17.0-2.8,12363,List2A,black,man,,,,null,,,,
8138,,,survey-text,281,3047596,0.0-17.0-3.8,12363,List2A,black,man,,,,,"{""Q0"":""Luke is talking to Kate""}","<img src=""stim_listA/talk5.gif""</stim_listA>",is talking to,
null,"<div style=""font-size:60px;"">+</div>",,html-keyboard-response,282,3048097,0.0-17.0-0.9,12363,List2A,black,man,,,,null,,,,
null,"<img src=""stim_listA/dance8.gif""</stim_listA>",,html-keyboard-response,283,3050098,0.0-17.0-1.9,12363,List2A,black,man,,,,null,,,,
null,are dancing with each other,,html-keyboard-response,284,3052099,0.0-17.0-2.9,12363,List2A,black,man,,,,null,,,,
9027,,,survey-text,285,3061128,0.0-17.0-3.9,12363,List2A,black,man,,,,,"{""Q0"":""Jane and Beth are dancing with each other""}","<img src=""stim_listA/dance8.gif""</stim_listA>",are dancing with each other,
null,"<div style=""font-size:60px;"">+</div>",,html-keyboard-response,286,3061629,0.0-17.0-0.10,12363,List2A,black,man,,,,null,,,,
null,"<img src=""stim_listA/meet2.gif""</stim_listA>",,html-keyboard-response,287,3063632,0.0-17.0-1.10,12363,List2A,black,man,,,,null,,,,
null,are meeting each other,,html-keyboard-response,288,3065632,0.0-17.0-2.10,12363,List2A,black,man,,,,null,,,,
12813,,,survey-text,289,3078447,0.0-17.0-3.10,12363,List2A,black,man,,,,,"{""Q0"":""Luke and Ruth are meeting each other""}","<img src=""stim_listA/meet2.gif""</stim_listA>",are meeting each other,
null,"<div style=""font-size:60px;"">+</div>",,html-keyboard-response,290,3078949,0.0-17.0-0.11,12363,List2A,black,man,,,,null,,,,
null,"<img src=""stim_listA/touch7.gif""</stim_listA>",,html-keyboard-response,291,3080950,0.0-17.0-1.11,12363,List2A,black,man,,,,null,,,,
null,is touching,,html-keyboard-response,292,3082951,0.0-17.0-2.11,12363,List2A,black,man,,,,null,,,,
7821,,,survey-text,293,3090774,0.0-17.0-3.11,12363,List2A,black,man,,,,,"{""Q0"":""Kate is touching Ruth""}","<img src=""stim_listA/touch7.gif""</stim_listA>",is touching,
null,"<div style=""font-size:60px;"">+</div>",,html-keyboard-response,294,3091275,0.0-17.0-0.12,12363,List2A,black,man,,,,null,,,,
null,"<img src=""stim_listA/kiss5.gif""</stim_listA>",,html-keyboard-response,295,3093278,0.0-17.0-1.12,12363,List2A,black,man,,,,null,,,,
null,is kissing,,html-keyboard-response,296,3095279,0.0-17.0-2.12,12363,List2A,black,man,,,,null,,,,
6183,,,survey-text,297,3101462,0.0-17.0-3.12,12363,List2A,black,man,,,,,"{""Q0"":""Fred is kissing Luke""}","<img src=""stim_listA/kiss5.gif""</stim_listA>",is kissing,
null,"<div style=""font-size:60px;"">+</div>",,html-keyboard-response,298,3101963,0.0-17.0-0.13,12363,List2A,black,man,,,,null,,,,
null,"<img src=""stim_listA/argue2.gif""</stim_listA>",,html-keyboard-response,299,3103965,0.0-17.0-1.13,12363,List2A,black,man,,,,null,,,,
null,are arguing with each other,,html-keyboard-response,300,3105967,0.0-17.0-2.13,12363,List2A,black,man,,,,null,,,,
9176,,,survey-text,301,3115144,0.0-17.0-3.13,12363,List2A,black,man,,,,,"{""Q0"":""Luke and Jane are arguing with each other""}","<img src=""stim_listA/argue2.gif""</stim_listA>",are arguing with each other,
null,"<div style=""font-size:60px;"">+</div>",,html-keyboard-response,302,3115646,0.0-17.0-0.14,12363,List2A,black,man,,,,null,,,,
null,"<img src=""stim_listA/fight1.gif""</stim_listA>",,html-keyboard-response,303,3117647,0.0-17.0-1.14,12363,List2A,black,man,,,,null,,,,
null,is fighting,,html-keyboard-response,304,3119648,0.0-17.0-2.14,12363,List2A,black,man,,,,null,,,,
9802,,,survey-text,305,3129450,0.0-17.0-3.14,12363,List2A,black,man,,,,,"{""Q0"":""Ruth is fighting dave""}","<img src=""stim_listA/fight1.gif""</stim_listA>",is fighting,
null,"<div style=""font-size:60px;"">+</div>",,html-keyboard-response,306,3129952,0.0-17.0-0.15,12363,List2A,black,man,,,,null,,,,
null,"<img src=""stim_listA/talk7.gif""</stim_listA>",,html-keyboard-response,307,3131954,0.0-17.0-1.15,12363,List2A,black,man,,,,null,,,,
null,is talking to,,html-keyboard-response,308,3133955,0.0-17.0-2.15,12363,List2A,black,man,,,,null,,,,
6942,,,survey-text,309,3140897,0.0-17.0-3.15,12363,List2A,black,man,,,,,"{""Q0"":""Ruth is talking to kate""}","<img src=""stim_listA/talk7.gif""</stim_listA>",is talking to,
null,"<div style=""font-size:60px;"">+</div>",,html-keyboard-response,310,3141399,0.0-17.0-0.16,12363,List2A,black,man,,,,null,,,,
null,"<img src=""stim_listA/touch6.gif""</stim_listA>",,html-keyboard-response,311,3143400,0.0-17.0-1.16,12363,List2A,black,man,,,,null,,,,
null,are touching each other,,html-keyboard-response,312,3145401,0.0-17.0-2.16,12363,List2A,black,man,,,,null,,,,
11712,,,survey-text,313,3157113,0.0-17.0-3.16,12363,List2A,black,man,,,,,"{""Q0"":""Fred and luke are tocuhign each other""}","<img src=""stim_listA/touch6.gif""</stim_listA>",are touching each other,
null,"<div style=""font-size:60px;"">+</div>",,html-keyboard-response,314,3157616,0.0-17.0-0.17,12363,List2A,black,man,,,,null,,,,
null,"<img src=""stim_listA/touch5.gif""</stim_listA>",,html-keyboard-response,315,3159617,0.0-17.0-1.17,12363,List2A,black,man,,,,null,,,,
null,is touching,,html-keyboard-response,316,3161619,0.0-17.0-2.17,12363,List2A,black,man,,,,null,,,,
6945,,,survey-text,317,3168565,0.0-17.0-3.17,12363,List2A,black,man,,,,,"{""Q0"":""Mike is touching dave""}","<img src=""stim_listA/touch5.gif""</stim_listA>",is touching,
null,"<div style=""font-size:60px;"">+</div>",,html-keyboard-response,318,3169066,0.0-17.0-0.18,12363,List2A,black,man,,,,null,,,,
null,"<img src=""stim_listA/shout2.gif""</stim_listA>",,html-keyboard-response,319,3171067,0.0-17.0-1.18,12363,List2A,black,man,,,,null,,,,
null,are shouting at each other,,html-keyboard-response,320,3173070,0.0-17.0-2.18,12363,List2A,black,man,,,,null,,,,
10509,,,survey-text,321,3183580,0.0-17.0-3.18,12363,List2A,black,man,,,,,"{""Q0"":""Dave and ruth are shouting at each other""}","<img src=""stim_listA/shout2.gif""</stim_listA>",are shouting at each other,
null,"<div style=""font-size:60px;"">+</div>",,html-keyboard-response,322,3184082,0.0-17.0-0.19,12363,List2A,black,man,,,,null,,,,
null,"<img src=""stim_listA/talk1.gif""</stim_listA>",,html-keyboard-response,323,3186086,0.0-17.0-1.19,12363,List2A,black,man,,,,null,,,,
null,is talking to,,html-keyboard-response,324,3188088,0.0-17.0-2.19,12363,List2A,black,man,,,,null,,,,
7925,,,survey-text,325,3196014,0.0-17.0-3.19,12363,List2A,black,man,,,,,"{""Q0"":""Luke is talking to Ruth""}","<img src=""stim_listA/talk1.gif""</stim_listA>",is talking to,
3922,"<img src='img/portrait_matrix_list2.JPG' style='width:900px;height:500px;''></img><p>If you have memorised all the portraits and names and are ready to start, press Continue.</p><p><strong>Please note: Your memory of these faces will be tested 4 times during this experiment.</strong></p>",0,html-button-response,326,3199937,0.0-18.0-0.0,12363,List2A,black,man,,,,,,,,
3361,"<img src=""portrait/BM2.jpg""style=""width:400px;height:400px;""></img>",5,html-button-response,327,3204300,0.0-18.0-1.0,12363,List2A,black,man,,TRUE,5,,,,,
null,CORRECT,,html-keyboard-response,328,3205803,0.0-18.0-2.0-0.0,12363,List2A,black,man,,,,null,,,,
2133,"<img src=""portrait/BW1.jpg""style=""width:400px;height:400px;""></img>",0,html-button-response,329,3207938,0.0-18.0-4.0,12363,List2A,black,man,,TRUE,0,,,,,
null,CORRECT,,html-keyboard-response,330,3209440,0.0-18.0-5.0-0.0,12363,List2A,black,man,,,,null,,,,
1122,"<img src=""portrait/WW2.jpg""style=""width:400px;height:400px;""></img>",3,html-button-response,331,3210564,0.0-18.0-7.0,12363,List2A,black,man,,TRUE,3,,,,,
null,CORRECT,,html-keyboard-response,332,3212068,0.0-18.0-8.0-0.0,12363,List2A,black,man,,,,null,,,,
895,"<img src=""portrait/BM1.jpg""style=""width:400px;height:400px;""></img>",4,html-button-response,333,3212965,0.0-18.0-10.0,12363,List2A,black,man,,TRUE,4,,,,,
null,CORRECT,,html-keyboard-response,334,3214469,0.0-18.0-11.0-0.0,12363,List2A,black,man,,,,null,,,,
2899,"<img src=""portrait/WW1.jpg""style=""width:400px;height:400px;""></img>",1,html-button-response,335,3217370,0.0-18.0-13.0,12363,List2A,black,man,,TRUE,1,,,,,
null,CORRECT,,html-keyboard-response,336,3218871,0.0-18.0-14.0-0.0,12363,List2A,black,man,,,,null,,,,
1697,"<img src=""portrait/WM2.jpg""style=""width:400px;height:400px;""></img>",7,html-button-response,337,3220570,0.0-18.0-16.0,12363,List2A,black,man,,TRUE,7,,,,,
null,CORRECT,,html-keyboard-response,338,3222073,0.0-18.0-17.0-0.0,12363,List2A,black,man,,,,null,,,,
2661,"<img src=""portrait/WM1.jpg""style=""width:400px;height:400px;""></img>",6,html-button-response,339,3224735,0.0-18.0-19.0,12363,List2A,black,man,,TRUE,6,,,,,
null,CORRECT,,html-keyboard-response,340,3226237,0.0-18.0-20.0-0.0,12363,List2A,black,man,,,,null,,,,
4125,"<img src=""portrait/BW2.jpg""style=""width:400px;height:400px;""></img>",0,html-button-response,341,3230363,0.0-18.0-22.0,12363,List2A,black,man,,TRUE,2,,,,,
4397,"<img src=""portrait/BW2.jpg""style=""width:400px;height:400px;""></img>",2,html-button-response,342,3235762,0.0-18.0-24.0-0.0,12363,List2A,black,man,,FALSE,2,,,,,
null,CORRECT,,html-keyboard-response,343,3237267,0.0-18.0-24.0-1.0-0.0,12363,List2A,black,man,,,,null,,,,
1232,<p>You got 7 out of 8 right first time. Press Continue.</p>,0,html-button-response,344,3238501,0.0-18.0-25.0,12363,List2A,black,man,,,,,,,,
3093,"As you did not score 100%, the memory game will repeat. Press Continue.",0,html-button-response,345,3242598,0.0-18.0-26.0-0.0,12363,List2A,black,man,,,,,,,,
1459,"<img src='img/portrait_matrix_list2.JPG' style='width:900px;height:500px;''></img><p>If you have memorised all the portraits and names and are ready to start, press Continue.</p><p><strong>Please note: Your memory of these faces will be tested 4 times during this experiment.</strong></p>",0,html-button-response,346,3245061,0.0-18.1-0.1,12363,List2A,black,man,,,,,,,,
3465,"<img src=""portrait/BM2.jpg""style=""width:400px;height:400px;""></img>",5,html-button-response,347,3249529,0.0-18.1-1.1,12363,List2A,black,man,,TRUE,5,,,,,
null,CORRECT,,html-keyboard-response,348,3251031,0.0-18.1-2.1-0.1,12363,List2A,black,man,,,,null,,,,
5175,"<img src=""portrait/BW1.jpg""style=""width:400px;height:400px;""></img>",0,html-button-response,349,3256207,0.0-18.1-4.1,12363,List2A,black,man,,TRUE,0,,,,,
null,CORRECT,,html-keyboard-response,350,3257708,0.0-18.1-5.1-0.1,12363,List2A,black,man,,,,null,,,,
1995,"<img src=""portrait/WW2.jpg""style=""width:400px;height:400px;""></img>",3,html-button-response,351,3259705,0.0-18.1-7.1,12363,List2A,black,man,,TRUE,3,,,,,
null,CORRECT,,html-keyboard-response,352,3261207,0.0-18.1-8.1-0.1,12363,List2A,black,man,,,,null,,,,
1178,"<img src=""portrait/BM1.jpg""style=""width:400px;height:400px;""></img>",4,html-button-response,353,3262387,0.0-18.1-10.1,12363,List2A,black,man,,TRUE,4,,,,,
null,CORRECT,,html-keyboard-response,354,3263891,0.0-18.1-11.1-0.1,12363,List2A,black,man,,,,null,,,,
3191,"<img src=""portrait/WW1.jpg""style=""width:400px;height:400px;""></img>",1,html-button-response,355,3267084,0.0-18.1-13.1,12363,List2A,black,man,,TRUE,1,,,,,
null,CORRECT,,html-keyboard-response,356,3268585,0.0-18.1-14.1-0.1,12363,List2A,black,man,,,,null,,,,
2080,"<img src=""portrait/WM2.jpg""style=""width:400px;height:400px;""></img>",7,html-button-response,357,3270667,0.0-18.1-16.1,12363,List2A,black,man,,TRUE,7,,,,,
null,CORRECT,,html-keyboard-response,358,3272168,0.0-18.1-17.1-0.1,12363,List2A,black,man,,,,null,,,,
3017,"<img src=""portrait/WM1.jpg""style=""width:400px;height:400px;""></img>",6,html-button-response,359,3275187,0.0-18.1-19.1,12363,List2A,black,man,,TRUE,6,,,,,
null,CORRECT,,html-keyboard-response,360,3276689,0.0-18.1-20.1-0.1,12363,List2A,black,man,,,,null,,,,
4408,"<img src=""portrait/BW2.jpg""style=""width:400px;height:400px;""></img>",2,html-button-response,361,3281100,0.0-18.1-22.1,12363,List2A,black,man,,TRUE,2,,,,,
null,CORRECT,,html-keyboard-response,362,3282604,0.0-18.1-23.1-0.1,12363,List2A,black,man,,,,null,,,,
1060,<p>You got 8 out of 8 right first time. Press Continue.</p>,0,html-button-response,363,3283664,0.0-18.1-25.1,12363,List2A,black,man,,,,,,,,
null,"<div style=""font-size:60px;"">+</div>",,html-keyboard-response,364,3285166,0.0-19.0-0.0,12363,List2A,black,man,,,,null,,,,
null,"<img src=""stim_listA/shout8.gif""</stim_listA>",,html-keyboard-response,365,3287168,0.0-19.0-1.0,12363,List2A,black,man,,,,null,,,,
null,are shouting at each other,,html-keyboard-response,366,3289168,0.0-19.0-2.0,12363,List2A,black,man,,,,null,,,,
15636,,,survey-text,367,3304805,0.0-19.0-3.0,12363,List2A,black,man,,,,,"{""Q0"":""Kate and Jane are shouting at each other""}","<img src=""stim_listA/shout8.gif""</stim_listA>",are shouting at each other,
null,"<div style=""font-size:60px;"">+</div>",,html-keyboard-response,368,3305307,0.0-19.0-0.1,12363,List2A,black,man,,,,null,,,,
null,"<img src=""stim_listA/hug2.gif""</stim_listA>",,html-keyboard-response,369,3307309,0.0-19.0-1.1,12363,List2A,black,man,,,,null,,,,
null,are hugging each other,,html-keyboard-response,370,3309310,0.0-19.0-2.1,12363,List2A,black,man,,,,null,,,,
9328,,,survey-text,371,3318639,0.0-19.0-3.1,12363,List2A,black,man,,,,,"{""Q0"":""Dave and Jane are holding each other""}","<img src=""stim_listA/hug2.gif""</stim_listA>",are hugging each other,
null,"<div style=""font-size:60px;"">+</div>",,html-keyboard-response,372,3319143,0.0-19.0-0.2,12363,List2A,black,man,,,,null,,,,
null,"<img src=""stim_listA/fight5.gif""</stim_listA>",,html-keyboard-response,373,3321145,0.0-19.0-1.2,12363,List2A,black,man,,,,null,,,,
null,is fighting,,html-keyboard-response,374,3323146,0.0-19.0-2.2,12363,List2A,black,man,,,,null,,,,
8054,,,survey-text,375,3331200,0.0-19.0-3.2,12363,List2A,black,man,,,,,"{""Q0"":""Mike is fighting Dave""}","<img src=""stim_listA/fight5.gif""</stim_listA>",is fighting,
null,"<div style=""font-size:60px;"">+</div>",,html-keyboard-response,376,3331702,0.0-19.0-0.3,12363,List2A,black,man,,,,null,,,,
null,"<img src=""stim_listA/marry5.gif""</stim_listA>",,html-keyboard-response,377,3333702,0.0-19.0-1.3,12363,List2A,black,man,,,,null,,,,
null,is marrying,,html-keyboard-response,378,3335704,0.0-19.0-2.3,12363,List2A,black,man,,,,null,,,,
8436,,,survey-text,379,3344140,0.0-19.0-3.3,12363,List2A,black,man,,,,,"{""Q0"":""fred is marrying dave""}","<img src=""stim_listA/marry5.gif""</stim_listA>",is marrying,
null,"<div style=""font-size:60px;"">+</div>",,html-keyboard-response,380,3344641,0.0-19.0-0.4,12363,List2A,black,man,,,,null,,,,
null,"<img src=""stim_listA/meet7.gif""</stim_listA>",,html-keyboard-response,381,3346644,0.0-19.0-1.4,12363,List2A,black,man,,,,null,,,,
null,is meeting,,html-keyboard-response,382,3348645,0.0-19.0-2.4,12363,List2A,black,man,,,,null,,,,
5756,,,survey-text,383,3354402,0.0-19.0-3.4,12363,List2A,black,man,,,,,"{""Q0"":""Jane is meeting Ruth""}","<img src=""stim_listA/meet7.gif""</stim_listA>",is meeting,
null,"<div style=""font-size:60px;"">+</div>",,html-keyboard-response,384,3354903,0.0-19.0-0.5,12363,List2A,black,man,,,,null,,,,
null,"<img src=""stim_listA/kiss2.gif""</stim_listA>",,html-keyboard-response,385,3356906,0.0-19.0-1.5,12363,List2A,black,man,,,,null,,,,
null,are kissing each other,,html-keyboard-response,386,3358907,0.0-19.0-2.5,12363,List2A,black,man,,,,null,,,,
25969,,,survey-text,387,3384877,0.0-19.0-3.5,12363,List2A,black,man,,,,,"{""Q0"":""Kate is marrying Ruth""}","<img src=""stim_listA/kiss2.gif""</stim_listA>",are kissing each other,
null,"<div style=""font-size:60px;"">+</div>",,html-keyboard-response,388,3385378,0.0-19.0-0.6,12363,List2A,black,man,,,,null,,,,
null,"<img src=""stim_listA/kiss3.gif""</stim_listA>",,html-keyboard-response,389,3387380,0.0-19.0-1.6,12363,List2A,black,man,,,,null,,,,
null,is kissing,,html-keyboard-response,390,3389381,0.0-19.0-2.6,12363,List2A,black,man,,,,null,,,,
7186,,,survey-text,391,3396568,0.0-19.0-3.6,12363,List2A,black,man,,,,,"{""Q0"":""Fred is kissing Beth""}","<img src=""stim_listA/kiss3.gif""</stim_listA>",is kissing,
null,"<div style=""font-size:60px;"">+</div>",,html-keyboard-response,392,3397069,0.0-19.0-0.7,12363,List2A,black,man,,,,null,,,,
null,"<img src=""stim_listA/hug8.gif""</stim_listA>",,html-keyboard-response,393,3399072,0.0-19.0-1.7,12363,List2A,black,man,,,,null,,,,
null,are hugging each other,,html-keyboard-response,394,3401073,0.0-19.0-2.7,12363,List2A,black,man,,,,null,,,,
9567,,,survey-text,395,3410641,0.0-19.0-3.7,12363,List2A,black,man,,,,,"{""Q0"":""Beth and jane are hugging each other""}","<img src=""stim_listA/hug8.gif""</stim_listA>",are hugging each other,
null,"<div style=""font-size:60px;"">+</div>",,html-keyboard-response,396,3411142,0.0-19.0-0.8,12363,List2A,black,man,,,,null,,,,
null,"<img src=""stim_listA/dance3.gif""</stim_listA>",,html-keyboard-response,397,3413143,0.0-19.0-1.8,12363,List2A,black,man,,,,null,,,,
null,is dancing with,,html-keyboard-response,398,3415144,0.0-19.0-2.8,12363,List2A,black,man,,,,null,,,,
6060,,,survey-text,399,3421206,0.0-19.0-3.8,12363,List2A,black,man,,,,,"{""Q0"":""Kate is dancing with fred""}","<img src=""stim_listA/dance3.gif""</stim_listA>",is dancing with,
null,"<div style=""font-size:60px;"">+</div>",,html-keyboard-response,400,3421707,0.0-19.0-0.9,12363,List2A,black,man,,,,null,,,,
null,"<img src=""stim_listA/marry2.gif""</stim_listA>",,html-keyboard-response,401,3423709,0.0-19.0-1.9,12363,List2A,black,man,,,,null,,,,
null,are marrying each other,,html-keyboard-response,402,3425711,0.0-19.0-2.9,12363,List2A,black,man,,,,null,,,,
14394,,,survey-text,403,3440106,0.0-19.0-3.9,12363,List2A,black,man,,,,,"{""Q0"":""Luke is dancing with Jane""}","<img src=""stim_listA/marry2.gif""</stim_listA>",are marrying each other,
null,"<div style=""font-size:60px;"">+</div>",,html-keyboard-response,404,3440607,0.0-19.0-0.10,12363,List2A,black,man,,,,null,,,,
null,"<img src=""stim_listA/kiss7.gif""</stim_listA>",,html-keyboard-response,405,3442608,0.0-19.0-1.10,12363,List2A,black,man,,,,null,,,,
null,is kissing,,html-keyboard-response,406,3444608,0.0-19.0-2.10,12363,List2A,black,man,,,,null,,,,
7869,,,survey-text,407,3452479,0.0-19.0-3.10,12363,List2A,black,man,,,,,"{""Q0"":""Beth is kissing Ruth""}","<img src=""stim_listA/kiss7.gif""</stim_listA>",is kissing,
null,"<div style=""font-size:60px;"">+</div>",,html-keyboard-response,408,3452980,0.0-19.0-0.11,12363,List2A,black,man,,,,null,,,,
null,"<img src=""stim_listA/hug6.gif""</stim_listA>",,html-keyboard-response,409,3454983,0.0-19.0-1.11,12363,List2A,black,man,,,,null,,,,
null,are hugging each other,,html-keyboard-response,410,3456984,0.0-19.0-2.11,12363,List2A,black,man,,,,null,,,,
11105,,,survey-text,411,3468089,0.0-19.0-3.11,12363,List2A,black,man,,,,,"{""Q0"":""Dave and mike are hugging each other""}","<img src=""stim_listA/hug6.gif""</stim_listA>",are hugging each other,
null,"<div style=""font-size:60px;"">+</div>",,html-keyboard-response,412,3468590,0.0-19.0-0.12,12363,List2A,black,man,,,,null,,,,
null,"<img src=""stim_listA/shout6.gif""</stim_listA>",,html-keyboard-response,413,3470592,0.0-19.0-1.12,12363,List2A,black,man,,,,null,,,,
null,are shouting at each other,,html-keyboard-response,414,3472594,0.0-19.0-2.12,12363,List2A,black,man,,,,null,,,,
8393,,,survey-text,415,3480988,0.0-19.0-3.12,12363,List2A,black,man,,,,,"{""Q0"":""Dave and mike are shouting at each other""}","<img src=""stim_listA/shout6.gif""</stim_listA>",are shouting at each other,
null,"<div style=""font-size:60px;"">+</div>",,html-keyboard-response,416,3481490,0.0-19.0-0.13,12363,List2A,black,man,,,,null,,,,
null,"<img src=""stim_listA/argue5.gif""</stim_listA>",,html-keyboard-response,417,3483491,0.0-19.0-1.13,12363,List2A,black,man,,,,null,,,,
null,is arguing with,,html-keyboard-response,418,3485492,0.0-19.0-2.13,12363,List2A,black,man,,,,null,,,,
7966,,,survey-text,419,3493459,0.0-19.0-3.13,12363,List2A,black,man,,,,,"{""Q0"":""Dave is arguing with Fred""}","<img src=""stim_listA/argue5.gif""</stim_listA>",is arguing with,
null,"<div style=""font-size:60px;"">+</div>",,html-keyboard-response,420,3493960,0.0-19.0-0.14,12363,List2A,black,man,,,,null,,,,
null,"<img src=""stim_listA/hug3.gif""</stim_listA>",,html-keyboard-response,421,3495961,0.0-19.0-1.14,12363,List2A,black,man,,,,null,,,,
null,is hugging,,html-keyboard-response,422,3497963,0.0-19.0-2.14,12363,List2A,black,man,,,,null,,,,
6594,,,survey-text,423,3504558,0.0-19.0-3.14,12363,List2A,black,man,,,,,"{""Q0"":""Fred is hugging Beth""}","<img src=""stim_listA/hug3.gif""</stim_listA>",is hugging,
null,"<div style=""font-size:60px;"">+</div>",,html-keyboard-response,424,3505059,0.0-19.0-0.15,12363,List2A,black,man,,,,null,,,,
null,"<img src=""stim_listA/meet4.gif""</stim_listA>",,html-keyboard-response,425,3507062,0.0-19.0-1.15,12363,List2A,black,man,,,,null,,,,
null,are meeting each other,,html-keyboard-response,426,3509063,0.0-19.0-2.15,12363,List2A,black,man,,,,null,,,,
8471,,,survey-text,427,3517535,0.0-19.0-3.15,12363,List2A,black,man,,,,,"{""Q0"":""Beth and fred are meeting each other""}","<img src=""stim_listA/meet4.gif""</stim_listA>",are meeting each other,
null,"<div style=""font-size:60px;"">+</div>",,html-keyboard-response,428,3518036,0.0-19.0-0.16,12363,List2A,black,man,,,,null,,,,
null,"<img src=""stim_listA/argue4.gif""</stim_listA>",,html-keyboard-response,429,3520037,0.0-19.0-1.16,12363,List2A,black,man,,,,null,,,,
null,are arguing with each other,,html-keyboard-response,430,3522038,0.0-19.0-2.16,12363,List2A,black,man,,,,null,,,,
11574,,,survey-text,431,3533614,0.0-19.0-3.16,12363,List2A,black,man,,,,,"{""Q0"":""Beth and fred are arguing with each other""}","<img src=""stim_listA/argue4.gif""</stim_listA>",are arguing with each other,
null,"<div style=""font-size:60px;"">+</div>",,html-keyboard-response,432,3534115,0.0-19.0-0.17,12363,List2A,black,man,,,,null,,,,
null,"<img src=""stim_listA/meet6.gif""</stim_listA>",,html-keyboard-response,433,3536117,0.0-19.0-1.17,12363,List2A,black,man,,,,null,,,,
null,are meeting each other,,html-keyboard-response,434,3538118,0.0-19.0-2.17,12363,List2A,black,man,,,,null,,,,
20679,,,survey-text,435,3558799,0.0-19.0-3.17,12363,List2A,black,man,,,,,"{""Q0"":""fred and luke are meeting with each other""}","<img src=""stim_listA/meet6.gif""</stim_listA>",are meeting each other,
null,"<div style=""font-size:60px;"">+</div>",,html-keyboard-response,436,3559300,0.0-19.0-0.18,12363,List2A,black,man,,,,null,,,,
null,"<img src=""stim_listA/shout7.gif""</stim_listA>",,html-keyboard-response,437,3561301,0.0-19.0-1.18,12363,List2A,black,man,,,,null,,,,
null,is shouting at,,html-keyboard-response,438,3563302,0.0-19.0-2.18,12363,List2A,black,man,,,,null,,,,
7962,,,survey-text,439,3571265,0.0-19.0-3.18,12363,List2A,black,man,,,,,"{""Q0"":""Ruth is shouting at beth""}","<img src=""stim_listA/shout7.gif""</stim_listA>",is shouting at,
null,"<div style=""font-size:60px;"">+</div>",,html-keyboard-response,440,3571766,0.0-19.0-0.19,12363,List2A,black,man,,,,null,,,,
null,"<img src=""stim_listA/meet3.gif""</stim_listA>",,html-keyboard-response,441,3573767,0.0-19.0-1.19,12363,List2A,black,man,,,,null,,,,
null,is meeting,,html-keyboard-response,442,3575768,0.0-19.0-2.19,12363,List2A,black,man,,,,null,,,,
8877,,,survey-text,443,3584645,0.0-19.0-3.19,12363,List2A,black,man,,,,,"{""Q0"":""Beth is meeting dave""}","<img src=""stim_listA/meet3.gif""</stim_listA>",is meeting,
1329,<p>Thank you for completing that task.</p><p>The final part of this session is a short questionnaire.</p><p>Press Continue.</p>,0,html-button-response,444,3585976,0.0-20.0,12363,List2A,black,man,,,,,,,,
31692,,,survey-text,445,3618672,0.0-21.0,12363,List2A,black,man,,,,,"{""Q0"":""22"",""Q1"":""English"",""Q2"":""English"",""Q3"":""USA"",""Q4"":""Black"",""Q5"":""Male""}",,,demographics
24559,,,survey-likert,446,3643235,0.0-22.0,12363,List2A,black,man,,,,,"{""Q0"":3,""Q1"":3,""Q2"":3,""Q3"":3,""Q4"":3,""Q5"":"""",""Q6"":3,""Q7"":3,""Q8"":3,""Q9"":3,""Q10"":3,""Q11"":3,""Q12"":3,""Q13"":2}",,,likert_race
24455,,,survey-likert,447,3667693,0.0-23.0,12363,List2A,black,man,,,,,"{""Q0"":3,""Q1"":3,""Q2"":3,""Q3"":3,""Q4"":3,""Q5"":3,""Q6"":3,""Q7"":3,""Q8"":3,""Q9"":3,""Q10"":3,""Q11"":3,""Q12"":3,""Q13"":3}",,,likert_gender
9613,,,survey-text,448,3677307,0.0-24.0,12363,List2A,black,man,,,,,"{""Q0"":""ccc""}",,,worker_id
2548,,,external-html,449,3680052,0.0-25.0,12363,List2A,black,man,debrief.html,,,,,,,
