rt,stimulus,button_pressed,trial_type,trial_index,time_elapsed,internal_node_id,subject,list,ppt_race,ppt_gender,url,first_guess,correct,key_press,responses,image_type,phrase_type,test_part
3049,Welcome to the experiment. Press Continue to begin.,0,html-button-response,0,3052,0.0-0.0,12412,List1B,white,man,,,,,,,,
61847,,,external-html,1,65943,0.0-1.0,12412,List1B,white,man,consent.html,,,,,,,
9438,"<p>On the next page, you will see portraits of 8 people and their names.</p><p>Your first task is to take a few minutes to memorise the names of these people.</p><p>You will have to recall their names during the rest of the experiment, so it is</p><p>essential that you try to memorise these people and their names as best as you can.</p><br><p><strong>You will then be tested on your memory of these names and portraits.</strong></p><br><p>The experiment will start after you have completed this memory test.</p><br><p>Ready?</p>",0,html-button-response,2,75383,0.0-2.0,12412,List1B,white,man,,,,,,,,
127011,"<img src='img/portrait_matrix_list1.JPG' style='width:900px;height:500px;''></img><p>If you have memorised all the portraits and names and are ready to start, press Continue.</p><p><strong>Please note: Your memory of these faces will be tested 4 times during this experiment.</strong></p>",0,html-button-response,3,203395,0.0-3.0-0.0,12412,List1B,white,man,,,,,,,,
4960,"<img src=""portrait/BW2.jpg""style=""width:400px;height:400px;""></img>",2,html-button-response,4,209357,0.0-3.0-1.0,12412,List1B,white,man,,TRUE,2,,,,,
null,CORRECT,,html-keyboard-response,5,210862,0.0-3.0-2.0-0.0,12412,List1B,white,man,,,,null,,,,
4946,"<img src=""portrait/BW1.jpg""style=""width:400px;height:400px;""></img>",0,html-button-response,6,215809,0.0-3.0-4.0,12412,List1B,white,man,,TRUE,0,,,,,
null,CORRECT,,html-keyboard-response,7,217311,0.0-3.0-5.0-0.0,12412,List1B,white,man,,,,null,,,,
9248,"<img src=""portrait/WW1.jpg""style=""width:400px;height:400px;""></img>",1,html-button-response,8,226561,0.0-3.0-7.0,12412,List1B,white,man,,TRUE,1,,,,,
null,CORRECT,,html-keyboard-response,9,228063,0.0-3.0-8.0-0.0,12412,List1B,white,man,,,,null,,,,
3738,"<img src=""portrait/WM2.jpg""style=""width:400px;height:400px;""></img>",7,html-button-response,10,231802,0.0-3.0-10.0,12412,List1B,white,man,,TRUE,7,,,,,
null,CORRECT,,html-keyboard-response,11,233305,0.0-3.0-11.0-0.0,12412,List1B,white,man,,,,null,,,,
3552,"<img src=""portrait/BM2.jpg""style=""width:400px;height:400px;""></img>",5,html-button-response,12,236858,0.0-3.0-13.0,12412,List1B,white,man,,TRUE,5,,,,,
null,CORRECT,,html-keyboard-response,13,238360,0.0-3.0-14.0-0.0,12412,List1B,white,man,,,,null,,,,
5431,"<img src=""portrait/BM1.jpg""style=""width:400px;height:400px;""></img>",4,html-button-response,14,243792,0.0-3.0-16.0,12412,List1B,white,man,,TRUE,4,,,,,
null,CORRECT,,html-keyboard-response,15,245295,0.0-3.0-17.0-0.0,12412,List1B,white,man,,,,null,,,,
4753,"<img src=""portrait/WM1.jpg""style=""width:400px;height:400px;""></img>",6,html-button-response,16,250049,0.0-3.0-19.0,12412,List1B,white,man,,TRUE,6,,,,,
null,CORRECT,,html-keyboard-response,17,251552,0.0-3.0-20.0-0.0,12412,List1B,white,man,,,,null,,,,
3845,"<img src=""portrait/WW2.jpg""style=""width:400px;height:400px;""></img>",3,html-button-response,18,255398,0.0-3.0-22.0,12412,List1B,white,man,,TRUE,3,,,,,
null,CORRECT,,html-keyboard-response,19,256901,0.0-3.0-23.0-0.0,12412,List1B,white,man,,,,null,,,,
1679,<p>You got 8 out of 8 right first time. Press Continue.</p>,0,html-button-response,20,258581,0.0-3.0-25.0,12412,List1B,white,man,,,,,,,,
23537,"<p>In this experiment, you will view photographs of the people from the memory game interacting.</p><p>By using the <strong>exact</strong> phrase given <i>after</i> the photograph appears and recalling the correct names of the people in the photographs, form a sentence describing the interaction. You do not need to capitalise names.</p><p>Type your answer in the space provided. Please complete every sentence before moving onto the next trial.</p><p>You will only have a few seconds to memorise each given photograph and phrase before you can respond, so try your best to focus.</p><p>An example is given below. Press 'Continue' when you are ready.</p><img src='img/speaking_example_v2.jpg' style='width:800px;height:460px;''></img>",0,html-button-response,21,283121,0.0-4.0,12412,List1B,white,man,,,,,,,,
1897,"<p>Before the experiment starts, you will watch two example trials. Press 'Continue'.</p>",0,html-button-response,22,286019,0.0-5.0,12412,List1B,white,man,,,,,,,,
null,<img src='img/speaking_WW.gif'></img>,,html-keyboard-response,23,289022,0.0-6.0,12412,List1B,white,man,,,,null,,,,
null,<p>is speaking to</p>,,html-keyboard-response,24,291024,0.0-7.0,12412,List1B,white,man,,,,null,,,,
4854,<p><b>Answer:</b> kate is speaking to beth</p>,0,html-button-response,25,295879,0.0-8.0,12412,List1B,white,man,,,,,,,,
null,<img src='img/pointing_BM.gif'></img>,,html-keyboard-response,26,298882,0.0-9.0,12412,List1B,white,man,,,,null,,,,
null,<p>are pointing at each other</p>,,html-keyboard-response,27,300884,0.0-10.0,12412,List1B,white,man,,,,null,,,,
5280,<p><b>Answer:</b> luke and dave are pointing at each other</p>,0,html-button-response,28,306164,0.0-11.0,12412,List1B,white,man,,,,,,,,
6624,"<p>Ready to start the experiment?</p><br><p><strong>Remember to describe the picture using a full sentence,</strong></p><p><strong>that combines the names of the people with the given phrase.</strong></p><p><strong>If you do not do this correctly you will not be paid.</strong></p><p><strong> You do not need to capitalise names or use punctuation.</strong></p><br><p>Press 'Continue' to begin.</p>",0,html-button-response,29,313790,0.0-12.0,12412,List1B,white,man,,,,,,,,
null,"<div style=""font-size:60px;"">+</div>",,html-keyboard-response,30,315293,0.0-13.0-0.0,12412,List1B,white,man,,,,null,,,,
null,"<img src=""stim_listB/talk8.gif""</stim_listB>",,html-keyboard-response,31,317296,0.0-13.0-1.0,12412,List1B,white,man,,,,null,,,,
null,are talking to each other,,html-keyboard-response,32,319297,0.0-13.0-2.0,12412,List1B,white,man,,,,null,,,,
10084,,,survey-text,33,329383,0.0-13.0-3.0,12412,List1B,white,man,,,,,"{""Q0"":""Kate and ruth are talking to each other""}","<img src=""stim_listB/talk8.gif""</stim_listB>",are talking to each other,
null,"<div style=""font-size:60px;"">+</div>",,html-keyboard-response,34,329884,0.0-13.0-0.1,12412,List1B,white,man,,,,null,,,,
null,"<img src=""stim_listB/fight3.gif""</stim_listB>",,html-keyboard-response,35,331886,0.0-13.0-1.1,12412,List1B,white,man,,,,null,,,,
null,is fighting,,html-keyboard-response,36,333887,0.0-13.0-2.1,12412,List1B,white,man,,,,null,,,,
8945,,,survey-text,37,342833,0.0-13.0-3.1,12412,List1B,white,man,,,,,"{""Q0"":""Dave and Jane are fighting""}","<img src=""stim_listB/fight3.gif""</stim_listB>",is fighting,
null,"<div style=""font-size:60px;"">+</div>",,html-keyboard-response,38,343335,0.0-13.0-0.2,12412,List1B,white,man,,,,null,,,,
null,"<img src=""stim_listB/talk7.gif""</stim_listB>",,html-keyboard-response,39,345339,0.0-13.0-1.2,12412,List1B,white,man,,,,null,,,,
null,is talking to,,html-keyboard-response,40,347341,0.0-13.0-2.2,12412,List1B,white,man,,,,null,,,,
6431,,,survey-text,41,353773,0.0-13.0-3.2,12412,List1B,white,man,,,,,"{""Q0"":""Jane is talking to Beth""}","<img src=""stim_listB/talk7.gif""</stim_listB>",is talking to,
null,"<div style=""font-size:60px;"">+</div>",,html-keyboard-response,42,354275,0.0-13.0-0.3,12412,List1B,white,man,,,,null,,,,
null,"<img src=""stim_listB/marry6.gif""</stim_listB>",,html-keyboard-response,43,356278,0.0-13.0-1.3,12412,List1B,white,man,,,,null,,,,
null,are marrying each other,,html-keyboard-response,44,358280,0.0-13.0-2.3,12412,List1B,white,man,,,,null,,,,
8014,,,survey-text,45,366296,0.0-13.0-3.3,12412,List1B,white,man,,,,,"{""Q0"":""fred and Dave are marrying each other""}","<img src=""stim_listB/marry6.gif""</stim_listB>",are marrying each other,
null,"<div style=""font-size:60px;"">+</div>",,html-keyboard-response,46,366798,0.0-13.0-0.4,12412,List1B,white,man,,,,null,,,,
null,"<img src=""stim_listB/shout2.gif""</stim_listB>",,html-keyboard-response,47,368800,0.0-13.0-1.4,12412,List1B,white,man,,,,null,,,,
null,are shouting at each other,,html-keyboard-response,48,370802,0.0-13.0-2.4,12412,List1B,white,man,,,,null,,,,
8558,,,survey-text,49,379361,0.0-13.0-3.4,12412,List1B,white,man,,,,,"{""Q0"":""mike and Kate are shouting at each other""}","<img src=""stim_listB/shout2.gif""</stim_listB>",are shouting at each other,
null,"<div style=""font-size:60px;"">+</div>",,html-keyboard-response,50,379862,0.0-13.0-0.5,12412,List1B,white,man,,,,null,,,,
null,"<img src=""stim_listB/talk3.gif""</stim_listB>",,html-keyboard-response,51,381865,0.0-13.0-1.5,12412,List1B,white,man,,,,null,,,,
null,is talking to,,html-keyboard-response,52,383867,0.0-13.0-2.5,12412,List1B,white,man,,,,null,,,,
6583,,,survey-text,53,390451,0.0-13.0-3.5,12412,List1B,white,man,,,,,"{""Q0"":""Jane is talking to Luke""}","<img src=""stim_listB/talk3.gif""</stim_listB>",is talking to,
null,"<div style=""font-size:60px;"">+</div>",,html-keyboard-response,54,390953,0.0-13.0-0.6,12412,List1B,white,man,,,,null,,,,
null,"<img src=""stim_listB/marry1.gif""</stim_listB>",,html-keyboard-response,55,392955,0.0-13.0-1.6,12412,List1B,white,man,,,,null,,,,
null,is marrying,,html-keyboard-response,56,394957,0.0-13.0-2.6,12412,List1B,white,man,,,,null,,,,
4641,,,survey-text,57,399598,0.0-13.0-3.6,12412,List1B,white,man,,,,,"{""Q0"":""Kate is marrying mike""}","<img src=""stim_listB/marry1.gif""</stim_listB>",is marrying,
null,"<div style=""font-size:60px;"">+</div>",,html-keyboard-response,58,400100,0.0-13.0-0.7,12412,List1B,white,man,,,,null,,,,
null,"<img src=""stim_listB/marry2.gif""</stim_listB>",,html-keyboard-response,59,402102,0.0-13.0-1.7,12412,List1B,white,man,,,,null,,,,
null,are marrying each other,,html-keyboard-response,60,404104,0.0-13.0-2.7,12412,List1B,white,man,,,,null,,,,
7000,,,survey-text,61,411106,0.0-13.0-3.7,12412,List1B,white,man,,,,,"{""Q0"":""fred and Kate are marrying each other""}","<img src=""stim_listB/marry2.gif""</stim_listB>",are marrying each other,
null,"<div style=""font-size:60px;"">+</div>",,html-keyboard-response,62,411608,0.0-13.0-0.8,12412,List1B,white,man,,,,null,,,,
null,"<img src=""stim_listB/shout8.gif""</stim_listB>",,html-keyboard-response,63,413610,0.0-13.0-1.8,12412,List1B,white,man,,,,null,,,,
null,are shouting at each other,,html-keyboard-response,64,415612,0.0-13.0-2.8,12412,List1B,white,man,,,,null,,,,
9723,,,survey-text,65,425336,0.0-13.0-3.8,12412,List1B,white,man,,,,,"{""Q0"":""Kate and Jane are shouting at each other""}","<img src=""stim_listB/shout8.gif""</stim_listB>",are shouting at each other,
null,"<div style=""font-size:60px;"">+</div>",,html-keyboard-response,66,425838,0.0-13.0-0.9,12412,List1B,white,man,,,,null,,,,
null,"<img src=""stim_listB/shout6.gif""</stim_listB>",,html-keyboard-response,67,427840,0.0-13.0-1.9,12412,List1B,white,man,,,,null,,,,
null,are shouting at each other,,html-keyboard-response,68,429842,0.0-13.0-2.9,12412,List1B,white,man,,,,null,,,,
6890,,,survey-text,69,436733,0.0-13.0-3.9,12412,List1B,white,man,,,,,"{""Q0"":""mike and Dave are shouting at each other""}","<img src=""stim_listB/shout6.gif""</stim_listB>",are shouting at each other,
null,"<div style=""font-size:60px;"">+</div>",,html-keyboard-response,70,437235,0.0-13.0-0.10,12412,List1B,white,man,,,,null,,,,
null,"<img src=""stim_listB/touch1.gif""</stim_listB>",,html-keyboard-response,71,439237,0.0-13.0-1.10,12412,List1B,white,man,,,,null,,,,
null,is touching,,html-keyboard-response,72,441239,0.0-13.0-2.10,12412,List1B,white,man,,,,null,,,,
12502,,,survey-text,73,453743,0.0-13.0-3.10,12412,List1B,white,man,,,,,"{""Q0"":""mike and Kate are touching""}","<img src=""stim_listB/touch1.gif""</stim_listB>",is touching,
null,"<div style=""font-size:60px;"">+</div>",,html-keyboard-response,74,454245,0.0-13.0-0.11,12412,List1B,white,man,,,,null,,,,
null,"<img src=""stim_listB/argue6.gif""</stim_listB>",,html-keyboard-response,75,456247,0.0-13.0-1.11,12412,List1B,white,man,,,,null,,,,
null,are arguing with each other,,html-keyboard-response,76,458249,0.0-13.0-2.11,12412,List1B,white,man,,,,null,,,,
8824,,,survey-text,77,467074,0.0-13.0-3.11,12412,List1B,white,man,,,,,"{""Q0"":""fred and mike are arguing with each other""}","<img src=""stim_listB/argue6.gif""</stim_listB>",are arguing with each other,
null,"<div style=""font-size:60px;"">+</div>",,html-keyboard-response,78,467576,0.0-13.0-0.12,12412,List1B,white,man,,,,null,,,,
null,"<img src=""stim_listB/talk6.gif""</stim_listB>",,html-keyboard-response,79,469579,0.0-13.0-1.12,12412,List1B,white,man,,,,null,,,,
null,are talking to each other,,html-keyboard-response,80,471581,0.0-13.0-2.12,12412,List1B,white,man,,,,null,,,,
7033,,,survey-text,81,478615,0.0-13.0-3.12,12412,List1B,white,man,,,,,"{""Q0"":""mike and Luke are talking to each other""}","<img src=""stim_listB/talk6.gif""</stim_listB>",are talking to each other,
null,"<div style=""font-size:60px;"">+</div>",,html-keyboard-response,82,479116,0.0-13.0-0.13,12412,List1B,white,man,,,,null,,,,
null,"<img src=""stim_listB/hug6.gif""</stim_listB>",,html-keyboard-response,83,481118,0.0-13.0-1.13,12412,List1B,white,man,,,,null,,,,
null,are hugging each other,,html-keyboard-response,84,483120,0.0-13.0-2.13,12412,List1B,white,man,,,,null,,,,
9078,,,survey-text,85,492199,0.0-13.0-3.13,12412,List1B,white,man,,,,,"{""Q0"":""Dave and mike are hugging each other""}","<img src=""stim_listB/hug6.gif""</stim_listB>",are hugging each other,
null,"<div style=""font-size:60px;"">+</div>",,html-keyboard-response,86,492701,0.0-13.0-0.14,12412,List1B,white,man,,,,null,,,,
null,"<img src=""stim_listB/dance4.gif""</stim_listB>",,html-keyboard-response,87,494703,0.0-13.0-1.14,12412,List1B,white,man,,,,null,,,,
null,are dancing with each other,,html-keyboard-response,88,496705,0.0-13.0-2.14,12412,List1B,white,man,,,,null,,,,
8473,,,survey-text,89,505179,0.0-13.0-3.14,12412,List1B,white,man,,,,,"{""Q0"":""ruth and Dave are dancing ""}","<img src=""stim_listB/dance4.gif""</stim_listB>",are dancing with each other,
null,"<div style=""font-size:60px;"">+</div>",,html-keyboard-response,90,505681,0.0-13.0-0.15,12412,List1B,white,man,,,,null,,,,
null,"<img src=""stim_listB/fight4.gif""</stim_listB>",,html-keyboard-response,91,507683,0.0-13.0-1.15,12412,List1B,white,man,,,,null,,,,
null,are fighting each other,,html-keyboard-response,92,509685,0.0-13.0-2.15,12412,List1B,white,man,,,,null,,,,
9338,,,survey-text,93,519025,0.0-13.0-3.15,12412,List1B,white,man,,,,,"{""Q0"":""ruth and Luke are fighting each other""}","<img src=""stim_listB/fight4.gif""</stim_listB>",are fighting each other,
null,"<div style=""font-size:60px;"">+</div>",,html-keyboard-response,94,519526,0.0-13.0-0.16,12412,List1B,white,man,,,,null,,,,
null,"<img src=""stim_listB/fight5.gif""</stim_listB>",,html-keyboard-response,95,521528,0.0-13.0-1.16,12412,List1B,white,man,,,,null,,,,
null,is fighting,,html-keyboard-response,96,523530,0.0-13.0-2.16,12412,List1B,white,man,,,,null,,,,
6409,,,survey-text,97,529941,0.0-13.0-3.16,12412,List1B,white,man,,,,,"{""Q0"":""Dave is fighting mike""}","<img src=""stim_listB/fight5.gif""</stim_listB>",is fighting,
null,"<div style=""font-size:60px;"">+</div>",,html-keyboard-response,98,530443,0.0-13.0-0.17,12412,List1B,white,man,,,,null,,,,
null,"<img src=""stim_listB/meet6.gif""</stim_listB>",,html-keyboard-response,99,532444,0.0-13.0-1.17,12412,List1B,white,man,,,,null,,,,
null,are meeting each other,,html-keyboard-response,100,534446,0.0-13.0-2.17,12412,List1B,white,man,,,,null,,,,
6834,,,survey-text,101,541281,0.0-13.0-3.17,12412,List1B,white,man,,,,,"{""Q0"":""fred and Luke are meeting each other""}","<img src=""stim_listB/meet6.gif""</stim_listB>",are meeting each other,
null,"<div style=""font-size:60px;"">+</div>",,html-keyboard-response,102,541783,0.0-13.0-0.18,12412,List1B,white,man,,,,null,,,,
null,"<img src=""stim_listB/argue7.gif""</stim_listB>",,html-keyboard-response,103,543785,0.0-13.0-1.18,12412,List1B,white,man,,,,null,,,,
null,is arguing with,,html-keyboard-response,104,545787,0.0-13.0-2.18,12412,List1B,white,man,,,,null,,,,
6258,,,survey-text,105,552046,0.0-13.0-3.18,12412,List1B,white,man,,,,,"{""Q0"":""ruth is arguing with Kate""}","<img src=""stim_listB/argue7.gif""</stim_listB>",is arguing with,
null,"<div style=""font-size:60px;"">+</div>",,html-keyboard-response,106,552548,0.0-13.0-0.19,12412,List1B,white,man,,,,null,,,,
null,"<img src=""stim_listB/touch3.gif""</stim_listB>",,html-keyboard-response,107,554550,0.0-13.0-1.19,12412,List1B,white,man,,,,null,,,,
null,is touching,,html-keyboard-response,108,556552,0.0-13.0-2.19,12412,List1B,white,man,,,,null,,,,
5093,,,survey-text,109,561646,0.0-13.0-3.19,12412,List1B,white,man,,,,,"{""Q0"":""Jane is touching Dave""}","<img src=""stim_listB/touch3.gif""</stim_listB>",is touching,
11104,"<img src='img/portrait_matrix_list1.JPG' style='width:900px;height:500px;''></img><p>If you have memorised all the portraits and names and are ready to start, press Continue.</p><p><strong>Please note: Your memory of these faces will be tested 4 times during this experiment.</strong></p>",0,html-button-response,110,572752,0.0-14.0-0.0,12412,List1B,white,man,,,,,,,,
2417,"<img src=""portrait/WM2.jpg""style=""width:400px;height:400px;""></img>",7,html-button-response,111,576172,0.0-14.0-1.0,12412,List1B,white,man,,TRUE,7,,,,,
null,CORRECT,,html-keyboard-response,112,577675,0.0-14.0-2.0-0.0,12412,List1B,white,man,,,,null,,,,
2473,"<img src=""portrait/WW2.jpg""style=""width:400px;height:400px;""></img>",3,html-button-response,113,580150,0.0-14.0-4.0,12412,List1B,white,man,,TRUE,3,,,,,
null,CORRECT,,html-keyboard-response,114,581653,0.0-14.0-5.0-0.0,12412,List1B,white,man,,,,null,,,,
1941,"<img src=""portrait/WW1.jpg""style=""width:400px;height:400px;""></img>",1,html-button-response,115,583596,0.0-14.0-7.0,12412,List1B,white,man,,TRUE,1,,,,,
null,CORRECT,,html-keyboard-response,116,585099,0.0-14.0-8.0-0.0,12412,List1B,white,man,,,,null,,,,
2541,"<img src=""portrait/BM2.jpg""style=""width:400px;height:400px;""></img>",5,html-button-response,117,587641,0.0-14.0-10.0,12412,List1B,white,man,,TRUE,5,,,,,
null,CORRECT,,html-keyboard-response,118,589144,0.0-14.0-11.0-0.0,12412,List1B,white,man,,,,null,,,,
2904,"<img src=""portrait/WM1.jpg""style=""width:400px;height:400px;""></img>",6,html-button-response,119,592049,0.0-14.0-13.0,12412,List1B,white,man,,TRUE,6,,,,,
null,CORRECT,,html-keyboard-response,120,593552,0.0-14.0-14.0-0.0,12412,List1B,white,man,,,,null,,,,
2552,"<img src=""portrait/BW1.jpg""style=""width:400px;height:400px;""></img>",0,html-button-response,121,596105,0.0-14.0-16.0,12412,List1B,white,man,,TRUE,0,,,,,
null,CORRECT,,html-keyboard-response,122,597608,0.0-14.0-17.0-0.0,12412,List1B,white,man,,,,null,,,,
1763,"<img src=""portrait/BM1.jpg""style=""width:400px;height:400px;""></img>",4,html-button-response,123,599371,0.0-14.0-19.0,12412,List1B,white,man,,TRUE,4,,,,,
null,CORRECT,,html-keyboard-response,124,600874,0.0-14.0-20.0-0.0,12412,List1B,white,man,,,,null,,,,
4312,"<img src=""portrait/BW2.jpg""style=""width:400px;height:400px;""></img>",2,html-button-response,125,605187,0.0-14.0-22.0,12412,List1B,white,man,,TRUE,2,,,,,
null,CORRECT,,html-keyboard-response,126,606690,0.0-14.0-23.0-0.0,12412,List1B,white,man,,,,null,,,,
1281,<p>You got 8 out of 8 right first time. Press Continue.</p>,0,html-button-response,127,607973,0.0-14.0-25.0,12412,List1B,white,man,,,,,,,,
null,"<div style=""font-size:60px;"">+</div>",,html-keyboard-response,128,609476,0.0-15.0-0.0,12412,List1B,white,man,,,,null,,,,
null,"<img src=""stim_listB/meet8.gif""</stim_listB>",,html-keyboard-response,129,611478,0.0-15.0-1.0,12412,List1B,white,man,,,,null,,,,
null,are meeting each other,,html-keyboard-response,130,613480,0.0-15.0-2.0,12412,List1B,white,man,,,,null,,,,
8607,,,survey-text,131,622088,0.0-15.0-3.0,12412,List1B,white,man,,,,,"{""Q0"":""ruth and Beth are meeting each other""}","<img src=""stim_listB/meet8.gif""</stim_listB>",are meeting each other,
null,"<div style=""font-size:60px;"">+</div>",,html-keyboard-response,132,622590,0.0-15.0-0.1,12412,List1B,white,man,,,,null,,,,
null,"<img src=""stim_listB/dance3.gif""</stim_listB>",,html-keyboard-response,133,624592,0.0-15.0-1.1,12412,List1B,white,man,,,,null,,,,
null,is dancing with,,html-keyboard-response,134,626594,0.0-15.0-2.1,12412,List1B,white,man,,,,null,,,,
5810,,,survey-text,135,632405,0.0-15.0-3.1,12412,List1B,white,man,,,,,"{""Q0"":""ruth is dancing with Luke""}","<img src=""stim_listB/dance3.gif""</stim_listB>",is dancing with,
null,"<div style=""font-size:60px;"">+</div>",,html-keyboard-response,136,632907,0.0-15.0-0.2,12412,List1B,white,man,,,,null,,,,
null,"<img src=""stim_listB/kiss8.gif""</stim_listB>",,html-keyboard-response,137,634909,0.0-15.0-1.2,12412,List1B,white,man,,,,null,,,,
null,are kissing each other,,html-keyboard-response,138,636910,0.0-15.0-2.2,12412,List1B,white,man,,,,null,,,,
5363,,,survey-text,139,642274,0.0-15.0-3.2,12412,List1B,white,man,,,,,"{""Q0"":""Jane and Kate are kissing each other""}","<img src=""stim_listB/kiss8.gif""</stim_listB>",are kissing each other,
null,"<div style=""font-size:60px;"">+</div>",,html-keyboard-response,140,642776,0.0-15.0-0.3,12412,List1B,white,man,,,,null,,,,
null,"<img src=""stim_listB/shout1.gif""</stim_listB>",,html-keyboard-response,141,644778,0.0-15.0-1.3,12412,List1B,white,man,,,,null,,,,
null,is shouting at,,html-keyboard-response,142,646780,0.0-15.0-2.3,12412,List1B,white,man,,,,null,,,,
5039,,,survey-text,143,651820,0.0-15.0-3.3,12412,List1B,white,man,,,,,"{""Q0"":""Beth is shouting at Fred""}","<img src=""stim_listB/shout1.gif""</stim_listB>",is shouting at,
null,"<div style=""font-size:60px;"">+</div>",,html-keyboard-response,144,652322,0.0-15.0-0.4,12412,List1B,white,man,,,,null,,,,
null,"<img src=""stim_listB/marry8.gif""</stim_listB>",,html-keyboard-response,145,654324,0.0-15.0-1.4,12412,List1B,white,man,,,,null,,,,
null,are marrying each other,,html-keyboard-response,146,656326,0.0-15.0-2.4,12412,List1B,white,man,,,,null,,,,
8832,,,survey-text,147,665159,0.0-15.0-3.4,12412,List1B,white,man,,,,,"{""Q0"":""Jane and Beth are marrying each other""}","<img src=""stim_listB/marry8.gif""</stim_listB>",are marrying each other,
null,"<div style=""font-size:60px;"">+</div>",,html-keyboard-response,148,665661,0.0-15.0-0.5,12412,List1B,white,man,,,,null,,,,
null,"<img src=""stim_listB/hug3.gif""</stim_listB>",,html-keyboard-response,149,667663,0.0-15.0-1.5,12412,List1B,white,man,,,,null,,,,
null,is hugging,,html-keyboard-response,150,669665,0.0-15.0-2.5,12412,List1B,white,man,,,,null,,,,
8350,,,survey-text,151,678017,0.0-15.0-3.5,12412,List1B,white,man,,,,,"{""Q0"":""Luke is hugging ruth""}","<img src=""stim_listB/hug3.gif""</stim_listB>",is hugging,
null,"<div style=""font-size:60px;"">+</div>",,html-keyboard-response,152,678518,0.0-15.0-0.6,12412,List1B,white,man,,,,null,,,,
null,"<img src=""stim_listB/kiss4.gif""</stim_listB>",,html-keyboard-response,153,680520,0.0-15.0-1.6,12412,List1B,white,man,,,,null,,,,
null,are kissing each other,,html-keyboard-response,154,682522,0.0-15.0-2.6,12412,List1B,white,man,,,,null,,,,
7025,,,survey-text,155,689548,0.0-15.0-3.6,12412,List1B,white,man,,,,,"{""Q0"":""Dave and Jane are kissing""}","<img src=""stim_listB/kiss4.gif""</stim_listB>",are kissing each other,
null,"<div style=""font-size:60px;"">+</div>",,html-keyboard-response,156,690050,0.0-15.0-0.7,12412,List1B,white,man,,,,null,,,,
null,"<img src=""stim_listB/dance5.gif""</stim_listB>",,html-keyboard-response,157,692052,0.0-15.0-1.7,12412,List1B,white,man,,,,null,,,,
null,is dancing with,,html-keyboard-response,158,694054,0.0-15.0-2.7,12412,List1B,white,man,,,,null,,,,
4430,,,survey-text,159,698485,0.0-15.0-3.7,12412,List1B,white,man,,,,,"{""Q0"":""Dave is dancing with Fred""}","<img src=""stim_listB/dance5.gif""</stim_listB>",is dancing with,
null,"<div style=""font-size:60px;"">+</div>",,html-keyboard-response,160,698987,0.0-15.0-0.8,12412,List1B,white,man,,,,null,,,,
null,"<img src=""stim_listB/hug4.gif""</stim_listB>",,html-keyboard-response,161,700989,0.0-15.0-1.8,12412,List1B,white,man,,,,null,,,,
null,are hugging each other,,html-keyboard-response,162,702990,0.0-15.0-2.8,12412,List1B,white,man,,,,null,,,,
6980,,,survey-text,163,709971,0.0-15.0-3.8,12412,List1B,white,man,,,,,"{""Q0"":""Dave and Jane are hugging each other""}","<img src=""stim_listB/hug4.gif""</stim_listB>",are hugging each other,
null,"<div style=""font-size:60px;"">+</div>",,html-keyboard-response,164,710472,0.0-15.0-0.9,12412,List1B,white,man,,,,null,,,,
null,"<img src=""stim_listB/shout3.gif""</stim_listB>",,html-keyboard-response,165,712475,0.0-15.0-1.9,12412,List1B,white,man,,,,null,,,,
null,is shouting at,,html-keyboard-response,166,714476,0.0-15.0-2.9,12412,List1B,white,man,,,,null,,,,
5093,,,survey-text,167,719570,0.0-15.0-3.9,12412,List1B,white,man,,,,,"{""Q0"":""ruth is shouting at Luke""}","<img src=""stim_listB/shout3.gif""</stim_listB>",is shouting at,
null,"<div style=""font-size:60px;"">+</div>",,html-keyboard-response,168,720071,0.0-15.0-0.10,12412,List1B,white,man,,,,null,,,,
null,"<img src=""stim_listB/argue3.gif""</stim_listB>",,html-keyboard-response,169,722073,0.0-15.0-1.10,12412,List1B,white,man,,,,null,,,,
null,is arguing with,,html-keyboard-response,170,724074,0.0-15.0-2.10,12412,List1B,white,man,,,,null,,,,
6557,,,survey-text,171,730632,0.0-15.0-3.10,12412,List1B,white,man,,,,,"{""Q0"":""Dave is arguing with ruth""}","<img src=""stim_listB/argue3.gif""</stim_listB>",is arguing with,
null,"<div style=""font-size:60px;"">+</div>",,html-keyboard-response,172,731134,0.0-15.0-0.11,12412,List1B,white,man,,,,null,,,,
null,"<img src=""stim_listB/kiss3.gif""</stim_listB>",,html-keyboard-response,173,733136,0.0-15.0-1.11,12412,List1B,white,man,,,,null,,,,
null,is kissing,,html-keyboard-response,174,735138,0.0-15.0-2.11,12412,List1B,white,man,,,,null,,,,
20276,,,survey-text,175,755416,0.0-15.0-3.11,12412,List1B,white,man,,,,,"{""Q0"":""Luke is kissing ruth""}","<img src=""stim_listB/kiss3.gif""</stim_listB>",is kissing,
null,"<div style=""font-size:60px;"">+</div>",,html-keyboard-response,176,755917,0.0-15.0-0.12,12412,List1B,white,man,,,,null,,,,
null,"<img src=""stim_listB/kiss7.gif""</stim_listB>",,html-keyboard-response,177,757920,0.0-15.0-1.12,12412,List1B,white,man,,,,null,,,,
null,is kissing,,html-keyboard-response,178,759922,0.0-15.0-2.12,12412,List1B,white,man,,,,null,,,,
5734,,,survey-text,179,765657,0.0-15.0-3.12,12412,List1B,white,man,,,,,"{""Q0"":""ruth is kissing beth""}","<img src=""stim_listB/kiss7.gif""</stim_listB>",is kissing,
null,"<div style=""font-size:60px;"">+</div>",,html-keyboard-response,180,766159,0.0-15.0-0.13,12412,List1B,white,man,,,,null,,,,
null,"<img src=""stim_listB/shout4.gif""</stim_listB>",,html-keyboard-response,181,768161,0.0-15.0-1.13,12412,List1B,white,man,,,,null,,,,
null,are shouting at each other,,html-keyboard-response,182,770163,0.0-15.0-2.13,12412,List1B,white,man,,,,null,,,,
10301,,,survey-text,183,780465,0.0-15.0-3.13,12412,List1B,white,man,,,,,"{""Q0"":""Dave and Jane are shouting at each other""}","<img src=""stim_listB/shout4.gif""</stim_listB>",are shouting at each other,
null,"<div style=""font-size:60px;"">+</div>",,html-keyboard-response,184,780967,0.0-15.0-0.14,12412,List1B,white,man,,,,null,,,,
null,"<img src=""stim_listB/fight8.gif""</stim_listB>",,html-keyboard-response,185,782969,0.0-15.0-1.14,12412,List1B,white,man,,,,null,,,,
null,are fighting each other,,html-keyboard-response,186,784971,0.0-15.0-2.14,12412,List1B,white,man,,,,null,,,,
7596,,,survey-text,187,792568,0.0-15.0-3.14,12412,List1B,white,man,,,,,"{""Q0"":""Kate and ruth are fighting each other""}","<img src=""stim_listB/fight8.gif""</stim_listB>",are fighting each other,
null,"<div style=""font-size:60px;"">+</div>",,html-keyboard-response,188,793070,0.0-15.0-0.15,12412,List1B,white,man,,,,null,,,,
null,"<img src=""stim_listB/hug8.gif""</stim_listB>",,html-keyboard-response,189,795072,0.0-15.0-1.15,12412,List1B,white,man,,,,null,,,,
null,are hugging each other,,html-keyboard-response,190,797074,0.0-15.0-2.15,12412,List1B,white,man,,,,null,,,,
6135,,,survey-text,191,803210,0.0-15.0-3.15,12412,List1B,white,man,,,,,"{""Q0"":""Kate and Jane are hugging each other""}","<img src=""stim_listB/hug8.gif""</stim_listB>",are hugging each other,
null,"<div style=""font-size:60px;"">+</div>",,html-keyboard-response,192,803711,0.0-15.0-0.16,12412,List1B,white,man,,,,null,,,,
null,"<img src=""stim_listB/dance2.gif""</stim_listB>",,html-keyboard-response,193,805713,0.0-15.0-1.16,12412,List1B,white,man,,,,null,,,,
null,are dancing with each other,,html-keyboard-response,194,807715,0.0-15.0-2.16,12412,List1B,white,man,,,,null,,,,
7152,,,survey-text,195,814868,0.0-15.0-3.16,12412,List1B,white,man,,,,,"{""Q0"":""mike and Beth are dancing with each other""}","<img src=""stim_listB/dance2.gif""</stim_listB>",are dancing with each other,
null,"<div style=""font-size:60px;"">+</div>",,html-keyboard-response,196,815370,0.0-15.0-0.17,12412,List1B,white,man,,,,null,,,,
null,"<img src=""stim_listB/kiss1.gif""</stim_listB>",,html-keyboard-response,197,817371,0.0-15.0-1.17,12412,List1B,white,man,,,,null,,,,
null,is kissing,,html-keyboard-response,198,819372,0.0-15.0-2.17,12412,List1B,white,man,,,,null,,,,
3867,,,survey-text,199,823240,0.0-15.0-3.17,12412,List1B,white,man,,,,,"{""Q0"":""Beth is kissing fred""}","<img src=""stim_listB/kiss1.gif""</stim_listB>",is kissing,
null,"<div style=""font-size:60px;"">+</div>",,html-keyboard-response,200,823742,0.0-15.0-0.18,12412,List1B,white,man,,,,null,,,,
null,"<img src=""stim_listB/meet4.gif""</stim_listB>",,html-keyboard-response,201,825744,0.0-15.0-1.18,12412,List1B,white,man,,,,null,,,,
null,are meeting each other,,html-keyboard-response,202,827745,0.0-15.0-2.18,12412,List1B,white,man,,,,null,,,,
10000,,,survey-text,203,837746,0.0-15.0-3.18,12412,List1B,white,man,,,,,"{""Q0"":""Luke and ruth are meeting each other""}","<img src=""stim_listB/meet4.gif""</stim_listB>",are meeting each other,
null,"<div style=""font-size:60px;"">+</div>",,html-keyboard-response,204,838248,0.0-15.0-0.19,12412,List1B,white,man,,,,null,,,,
null,"<img src=""stim_listB/meet7.gif""</stim_listB>",,html-keyboard-response,205,840250,0.0-15.0-1.19,12412,List1B,white,man,,,,null,,,,
null,is meeting,,html-keyboard-response,206,842251,0.0-15.0-2.19,12412,List1B,white,man,,,,null,,,,
17760,,,survey-text,207,860012,0.0-15.0-3.19,12412,List1B,white,man,,,,,"{""Q0"":""ruth is kissing Jane""}","<img src=""stim_listB/meet7.gif""</stim_listB>",is meeting,
72498,"<img src='img/portrait_matrix_list1.JPG' style='width:900px;height:500px;''></img><p>If you have memorised all the portraits and names and are ready to start, press Continue.</p><p><strong>Please note: Your memory of these faces will be tested 4 times during this experiment.</strong></p>",0,html-button-response,208,932511,0.0-16.0-0.0,12412,List1B,white,man,,,,,,,,
2634,"<img src=""portrait/BW2.jpg""style=""width:400px;height:400px;""></img>",2,html-button-response,209,936147,0.0-16.0-1.0,12412,List1B,white,man,,TRUE,2,,,,,
null,CORRECT,,html-keyboard-response,210,937650,0.0-16.0-2.0-0.0,12412,List1B,white,man,,,,null,,,,
2658,"<img src=""portrait/BM2.jpg""style=""width:400px;height:400px;""></img>",5,html-button-response,211,940309,0.0-16.0-4.0,12412,List1B,white,man,,TRUE,5,,,,,
null,CORRECT,,html-keyboard-response,212,941812,0.0-16.0-5.0-0.0,12412,List1B,white,man,,,,null,,,,
2366,"<img src=""portrait/BM1.jpg""style=""width:400px;height:400px;""></img>",4,html-button-response,213,944179,0.0-16.0-7.0,12412,List1B,white,man,,TRUE,4,,,,,
null,CORRECT,,html-keyboard-response,214,945682,0.0-16.0-8.0-0.0,12412,List1B,white,man,,,,null,,,,
3499,"<img src=""portrait/WM1.jpg""style=""width:400px;height:400px;""></img>",6,html-button-response,215,949183,0.0-16.0-10.0,12412,List1B,white,man,,TRUE,6,,,,,
null,CORRECT,,html-keyboard-response,216,950686,0.0-16.0-11.0-0.0,12412,List1B,white,man,,,,null,,,,
3077,"<img src=""portrait/BW1.jpg""style=""width:400px;height:400px;""></img>",0,html-button-response,217,953764,0.0-16.0-13.0,12412,List1B,white,man,,TRUE,0,,,,,
null,CORRECT,,html-keyboard-response,218,955268,0.0-16.0-14.0-0.0,12412,List1B,white,man,,,,null,,,,
1440,"<img src=""portrait/WW2.jpg""style=""width:400px;height:400px;""></img>",3,html-button-response,219,956709,0.0-16.0-16.0,12412,List1B,white,man,,TRUE,3,,,,,
null,CORRECT,,html-keyboard-response,220,958212,0.0-16.0-17.0-0.0,12412,List1B,white,man,,,,null,,,,
1917,"<img src=""portrait/WW1.jpg""style=""width:400px;height:400px;""></img>",1,html-button-response,221,960130,0.0-16.0-19.0,12412,List1B,white,man,,TRUE,1,,,,,
null,CORRECT,,html-keyboard-response,222,961633,0.0-16.0-20.0-0.0,12412,List1B,white,man,,,,null,,,,
1454,"<img src=""portrait/WM2.jpg""style=""width:400px;height:400px;""></img>",7,html-button-response,223,963088,0.0-16.0-22.0,12412,List1B,white,man,,TRUE,7,,,,,
null,CORRECT,,html-keyboard-response,224,964591,0.0-16.0-23.0-0.0,12412,List1B,white,man,,,,null,,,,
1375,<p>You got 8 out of 8 right first time. Press Continue.</p>,0,html-button-response,225,965968,0.0-16.0-25.0,12412,List1B,white,man,,,,,,,,
null,"<div style=""font-size:60px;"">+</div>",,html-keyboard-response,226,967471,0.0-17.0-0.0,12412,List1B,white,man,,,,null,,,,
null,"<img src=""stim_listB/marry3.gif""</stim_listB>",,html-keyboard-response,227,969474,0.0-17.0-1.0,12412,List1B,white,man,,,,null,,,,
null,is marrying,,html-keyboard-response,228,971476,0.0-17.0-2.0,12412,List1B,white,man,,,,null,,,,
5026,,,survey-text,229,976502,0.0-17.0-3.0,12412,List1B,white,man,,,,,"{""Q0"":""ruth is marrying Dave""}","<img src=""stim_listB/marry3.gif""</stim_listB>",is marrying,
null,"<div style=""font-size:60px;"">+</div>",,html-keyboard-response,230,977004,0.0-17.0-0.1,12412,List1B,white,man,,,,null,,,,
null,"<img src=""stim_listB/talk4.gif""</stim_listB>",,html-keyboard-response,231,979006,0.0-17.0-1.1,12412,List1B,white,man,,,,null,,,,
null,are talking to each other,,html-keyboard-response,232,981008,0.0-17.0-2.1,12412,List1B,white,man,,,,null,,,,
6772,,,survey-text,233,987780,0.0-17.0-3.1,12412,List1B,white,man,,,,,"{""Q0"":""ruth and Dave are talking to each other""}","<img src=""stim_listB/talk4.gif""</stim_listB>",are talking to each other,
null,"<div style=""font-size:60px;"">+</div>",,html-keyboard-response,234,988282,0.0-17.0-0.2,12412,List1B,white,man,,,,null,,,,
null,"<img src=""stim_listB/meet5.gif""</stim_listB>",,html-keyboard-response,235,990284,0.0-17.0-1.2,12412,List1B,white,man,,,,null,,,,
null,is meeting,,html-keyboard-response,236,992286,0.0-17.0-2.2,12412,List1B,white,man,,,,null,,,,
5473,,,survey-text,237,997760,0.0-17.0-3.2,12412,List1B,white,man,,,,,"{""Q0"":""mike is meeting Dave""}","<img src=""stim_listB/meet5.gif""</stim_listB>",is meeting,
null,"<div style=""font-size:60px;"">+</div>",,html-keyboard-response,238,998262,0.0-17.0-0.3,12412,List1B,white,man,,,,null,,,,
null,"<img src=""stim_listB/argue1.gif""</stim_listB>",,html-keyboard-response,239,1000264,0.0-17.0-1.3,12412,List1B,white,man,,,,null,,,,
null,is arguing with,,html-keyboard-response,240,1002266,0.0-17.0-2.3,12412,List1B,white,man,,,,null,,,,
4651,,,survey-text,241,1006918,0.0-17.0-3.3,12412,List1B,white,man,,,,,"{""Q0"":""Kate is arguing with mike""}","<img src=""stim_listB/argue1.gif""</stim_listB>",is arguing with,
null,"<div style=""font-size:60px;"">+</div>",,html-keyboard-response,242,1007420,0.0-17.0-0.4,12412,List1B,white,man,,,,null,,,,
null,"<img src=""stim_listB/argue5.gif""</stim_listB>",,html-keyboard-response,243,1009422,0.0-17.0-1.4,12412,List1B,white,man,,,,null,,,,
null,is arguing with,,html-keyboard-response,244,1011424,0.0-17.0-2.4,12412,List1B,white,man,,,,null,,,,
4487,,,survey-text,245,1015913,0.0-17.0-3.4,12412,List1B,white,man,,,,,"{""Q0"":""mike is arguing with Luke""}","<img src=""stim_listB/argue5.gif""</stim_listB>",is arguing with,
null,"<div style=""font-size:60px;"">+</div>",,html-keyboard-response,246,1016414,0.0-17.0-0.5,12412,List1B,white,man,,,,null,,,,
null,"<img src=""stim_listB/talk2.gif""</stim_listB>",,html-keyboard-response,247,1018416,0.0-17.0-1.5,12412,List1B,white,man,,,,null,,,,
null,are talking to each other,,html-keyboard-response,248,1020418,0.0-17.0-2.5,12412,List1B,white,man,,,,null,,,,
6804,,,survey-text,249,1027222,0.0-17.0-3.5,12412,List1B,white,man,,,,,"{""Q0"":""mike and Beth are talking to each other""}","<img src=""stim_listB/talk2.gif""</stim_listB>",are talking to each other,
null,"<div style=""font-size:60px;"">+</div>",,html-keyboard-response,250,1027724,0.0-17.0-0.6,12412,List1B,white,man,,,,null,,,,
null,"<img src=""stim_listB/dance6.gif""</stim_listB>",,html-keyboard-response,251,1029727,0.0-17.0-1.6,12412,List1B,white,man,,,,null,,,,
null,are dancing with each other,,html-keyboard-response,252,1031728,0.0-17.0-2.6,12412,List1B,white,man,,,,null,,,,
6645,,,survey-text,253,1038374,0.0-17.0-3.6,12412,List1B,white,man,,,,,"{""Q0"":""mike and Luke are dancing with each other""}","<img src=""stim_listB/dance6.gif""</stim_listB>",are dancing with each other,
null,"<div style=""font-size:60px;"">+</div>",,html-keyboard-response,254,1038876,0.0-17.0-0.7,12412,List1B,white,man,,,,null,,,,
null,"<img src=""stim_listB/argue4.gif""</stim_listB>",,html-keyboard-response,255,1040877,0.0-17.0-1.7,12412,List1B,white,man,,,,null,,,,
null,are arguing with each other,,html-keyboard-response,256,1042879,0.0-17.0-2.7,12412,List1B,white,man,,,,null,,,,
5972,,,survey-text,257,1048852,0.0-17.0-3.7,12412,List1B,white,man,,,,,"{""Q0"":""Luke and Jane are arguing with each other""}","<img src=""stim_listB/argue4.gif""</stim_listB>",are arguing with each other,
null,"<div style=""font-size:60px;"">+</div>",,html-keyboard-response,258,1049353,0.0-17.0-0.8,12412,List1B,white,man,,,,null,,,,
null,"<img src=""stim_listB/kiss2.gif""</stim_listB>",,html-keyboard-response,259,1051354,0.0-17.0-1.8,12412,List1B,white,man,,,,null,,,,
null,are kissing each other,,html-keyboard-response,260,1053355,0.0-17.0-2.8,12412,List1B,white,man,,,,null,,,,
6810,,,survey-text,261,1060167,0.0-17.0-3.8,12412,List1B,white,man,,,,,"{""Q0"":""Kate and mike are kissing each other""}","<img src=""stim_listB/kiss2.gif""</stim_listB>",are kissing each other,
null,"<div style=""font-size:60px;"">+</div>",,html-keyboard-response,262,1060668,0.0-17.0-0.9,12412,List1B,white,man,,,,null,,,,
null,"<img src=""stim_listB/touch6.gif""</stim_listB>",,html-keyboard-response,263,1062670,0.0-17.0-1.9,12412,List1B,white,man,,,,null,,,,
null,are touching each other,,html-keyboard-response,264,1064672,0.0-17.0-2.9,12412,List1B,white,man,,,,null,,,,
6600,,,survey-text,265,1071273,0.0-17.0-3.9,12412,List1B,white,man,,,,,"{""Q0"":""fred and Luke are touching each other""}","<img src=""stim_listB/touch6.gif""</stim_listB>",are touching each other,
null,"<div style=""font-size:60px;"">+</div>",,html-keyboard-response,266,1071775,0.0-17.0-0.10,12412,List1B,white,man,,,,null,,,,
null,"<img src=""stim_listB/argue2.gif""</stim_listB>",,html-keyboard-response,267,1073777,0.0-17.0-1.10,12412,List1B,white,man,,,,null,,,,
null,are arguing with each other,,html-keyboard-response,268,1075778,0.0-17.0-2.10,12412,List1B,white,man,,,,null,,,,
9107,,,survey-text,269,1084886,0.0-17.0-3.10,12412,List1B,white,man,,,,,"{""Q0"":""Kate and fred are arguing with each other""}","<img src=""stim_listB/argue2.gif""</stim_listB>",are arguing with each other,
null,"<div style=""font-size:60px;"">+</div>",,html-keyboard-response,270,1085388,0.0-17.0-0.11,12412,List1B,white,man,,,,null,,,,
null,"<img src=""stim_listB/argue8.gif""</stim_listB>",,html-keyboard-response,271,1087390,0.0-17.0-1.11,12412,List1B,white,man,,,,null,,,,
null,are arguing with each other,,html-keyboard-response,272,1089391,0.0-17.0-2.11,12412,List1B,white,man,,,,null,,,,
6348,,,survey-text,273,1095740,0.0-17.0-3.11,12412,List1B,white,man,,,,,"{""Q0"":""Beth and Jane are arguing with each other""}","<img src=""stim_listB/argue8.gif""</stim_listB>",are arguing with each other,
null,"<div style=""font-size:60px;"">+</div>",,html-keyboard-response,274,1096242,0.0-17.0-0.12,12412,List1B,white,man,,,,null,,,,
null,"<img src=""stim_listB/dance7.gif""</stim_listB>",,html-keyboard-response,275,1098243,0.0-17.0-1.12,12412,List1B,white,man,,,,null,,,,
null,is dancing with,,html-keyboard-response,276,1100245,0.0-17.0-2.12,12412,List1B,white,man,,,,null,,,,
4883,,,survey-text,277,1105129,0.0-17.0-3.12,12412,List1B,white,man,,,,,"{""Q0"":""beth is dancing with Jane""}","<img src=""stim_listB/dance7.gif""</stim_listB>",is dancing with,
null,"<div style=""font-size:60px;"">+</div>",,html-keyboard-response,278,1105631,0.0-17.0-0.13,12412,List1B,white,man,,,,null,,,,
null,"<img src=""stim_listB/fight2.gif""</stim_listB>",,html-keyboard-response,279,1107633,0.0-17.0-1.13,12412,List1B,white,man,,,,null,,,,
null,are fighting each other,,html-keyboard-response,280,1109635,0.0-17.0-2.13,12412,List1B,white,man,,,,null,,,,
11571,,,survey-text,281,1121208,0.0-17.0-3.13,12412,List1B,white,man,,,,,"{""Q0"":""fred and beth are fighting each other""}","<img src=""stim_listB/fight2.gif""</stim_listB>",are fighting each other,
null,"<div style=""font-size:60px;"">+</div>",,html-keyboard-response,282,1121709,0.0-17.0-0.14,12412,List1B,white,man,,,,null,,,,
null,"<img src=""stim_listB/hug7.gif""</stim_listB>",,html-keyboard-response,283,1123711,0.0-17.0-1.14,12412,List1B,white,man,,,,null,,,,
null,is hugging,,html-keyboard-response,284,1125713,0.0-17.0-2.14,12412,List1B,white,man,,,,null,,,,
4390,,,survey-text,285,1130104,0.0-17.0-3.14,12412,List1B,white,man,,,,,"{""Q0"":""ruth is hugging beth""}","<img src=""stim_listB/hug7.gif""</stim_listB>",is hugging,
null,"<div style=""font-size:60px;"">+</div>",,html-keyboard-response,286,1130606,0.0-17.0-0.15,12412,List1B,white,man,,,,null,,,,
null,"<img src=""stim_listB/hug5.gif""</stim_listB>",,html-keyboard-response,287,1132608,0.0-17.0-1.15,12412,List1B,white,man,,,,null,,,,
null,is hugging,,html-keyboard-response,288,1134610,0.0-17.0-2.15,12412,List1B,white,man,,,,null,,,,
4010,,,survey-text,289,1138621,0.0-17.0-3.15,12412,List1B,white,man,,,,,"{""Q0"":""Luke is hugging fred""}","<img src=""stim_listB/hug5.gif""</stim_listB>",is hugging,
null,"<div style=""font-size:60px;"">+</div>",,html-keyboard-response,290,1139123,0.0-17.0-0.16,12412,List1B,white,man,,,,null,,,,
null,"<img src=""stim_listB/kiss5.gif""</stim_listB>",,html-keyboard-response,291,1141125,0.0-17.0-1.16,12412,List1B,white,man,,,,null,,,,
null,is kissing,,html-keyboard-response,292,1143127,0.0-17.0-2.16,12412,List1B,white,man,,,,null,,,,
5538,,,survey-text,293,1148666,0.0-17.0-3.16,12412,List1B,white,man,,,,,"{""Q0"":""Luke is kissing fred""}","<img src=""stim_listB/kiss5.gif""</stim_listB>",is kissing,
null,"<div style=""font-size:60px;"">+</div>",,html-keyboard-response,294,1149168,0.0-17.0-0.17,12412,List1B,white,man,,,,null,,,,
null,"<img src=""stim_listB/fight7.gif""</stim_listB>",,html-keyboard-response,295,1151170,0.0-17.0-1.17,12412,List1B,white,man,,,,null,,,,
null,is fighting,,html-keyboard-response,296,1153172,0.0-17.0-2.17,12412,List1B,white,man,,,,null,,,,
4963,,,survey-text,297,1158136,0.0-17.0-3.17,12412,List1B,white,man,,,,,"{""Q0"":""Kate is fighting Jane""}","<img src=""stim_listB/fight7.gif""</stim_listB>",is fighting,
null,"<div style=""font-size:60px;"">+</div>",,html-keyboard-response,298,1158637,0.0-17.0-0.18,12412,List1B,white,man,,,,null,,,,
null,"<img src=""stim_listB/talk1.gif""</stim_listB>",,html-keyboard-response,299,1160638,0.0-17.0-1.18,12412,List1B,white,man,,,,null,,,,
null,is talking to,,html-keyboard-response,300,1162640,0.0-17.0-2.18,12412,List1B,white,man,,,,null,,,,
4465,,,survey-text,301,1167106,0.0-17.0-3.18,12412,List1B,white,man,,,,,"{""Q0"":""Kate is talking to fred""}","<img src=""stim_listB/talk1.gif""</stim_listB>",is talking to,
null,"<div style=""font-size:60px;"">+</div>",,html-keyboard-response,302,1167608,0.0-17.0-0.19,12412,List1B,white,man,,,,null,,,,
null,"<img src=""stim_listB/fight6.gif""</stim_listB>",,html-keyboard-response,303,1169610,0.0-17.0-1.19,12412,List1B,white,man,,,,null,,,,
null,are fighting each other,,html-keyboard-response,304,1171612,0.0-17.0-2.19,12412,List1B,white,man,,,,null,,,,
6460,,,survey-text,305,1178073,0.0-17.0-3.19,12412,List1B,white,man,,,,,"{""Q0"":""Luke and fred are fighting each other""}","<img src=""stim_listB/fight6.gif""</stim_listB>",are fighting each other,
121092,"<img src='img/portrait_matrix_list1.JPG' style='width:900px;height:500px;''></img><p>If you have memorised all the portraits and names and are ready to start, press Continue.</p><p><strong>Please note: Your memory of these faces will be tested 4 times during this experiment.</strong></p>",0,html-button-response,306,1299167,0.0-18.0-0.0,12412,List1B,white,man,,,,,,,,
2579,"<img src=""portrait/WM2.jpg""style=""width:400px;height:400px;""></img>",7,html-button-response,307,1302749,0.0-18.0-1.0,12412,List1B,white,man,,TRUE,7,,,,,
null,CORRECT,,html-keyboard-response,308,1304251,0.0-18.0-2.0-0.0,12412,List1B,white,man,,,,null,,,,
7062,"<img src=""portrait/BM2.jpg""style=""width:400px;height:400px;""></img>",5,html-button-response,309,1311315,0.0-18.0-4.0,12412,List1B,white,man,,TRUE,5,,,,,
null,CORRECT,,html-keyboard-response,310,1312818,0.0-18.0-5.0-0.0,12412,List1B,white,man,,,,null,,,,
2384,"<img src=""portrait/BW1.jpg""style=""width:400px;height:400px;""></img>",0,html-button-response,311,1315202,0.0-18.0-7.0,12412,List1B,white,man,,TRUE,0,,,,,
null,CORRECT,,html-keyboard-response,312,1316704,0.0-18.0-8.0-0.0,12412,List1B,white,man,,,,null,,,,
6929,"<img src=""portrait/BM1.jpg""style=""width:400px;height:400px;""></img>",4,html-button-response,313,1323634,0.0-18.0-10.0,12412,List1B,white,man,,TRUE,4,,,,,
null,CORRECT,,html-keyboard-response,314,1325137,0.0-18.0-11.0-0.0,12412,List1B,white,man,,,,null,,,,
3448,"<img src=""portrait/WW1.jpg""style=""width:400px;height:400px;""></img>",1,html-button-response,315,1328586,0.0-18.0-13.0,12412,List1B,white,man,,TRUE,1,,,,,
null,CORRECT,,html-keyboard-response,316,1330089,0.0-18.0-14.0-0.0,12412,List1B,white,man,,,,null,,,,
1644,"<img src=""portrait/WW2.jpg""style=""width:400px;height:400px;""></img>",3,html-button-response,317,1331734,0.0-18.0-16.0,12412,List1B,white,man,,TRUE,3,,,,,
null,CORRECT,,html-keyboard-response,318,1333236,0.0-18.0-17.0-0.0,12412,List1B,white,man,,,,null,,,,
2644,"<img src=""portrait/WM1.jpg""style=""width:400px;height:400px;""></img>",6,html-button-response,319,1335881,0.0-18.0-19.0,12412,List1B,white,man,,TRUE,6,,,,,
null,CORRECT,,html-keyboard-response,320,1337383,0.0-18.0-20.0-0.0,12412,List1B,white,man,,,,null,,,,
2995,"<img src=""portrait/BW2.jpg""style=""width:400px;height:400px;""></img>",2,html-button-response,321,1340379,0.0-18.0-22.0,12412,List1B,white,man,,TRUE,2,,,,,
null,CORRECT,,html-keyboard-response,322,1341881,0.0-18.0-23.0-0.0,12412,List1B,white,man,,,,null,,,,
1215,<p>You got 8 out of 8 right first time. Press Continue.</p>,0,html-button-response,323,1343097,0.0-18.0-25.0,12412,List1B,white,man,,,,,,,,
null,"<div style=""font-size:60px;"">+</div>",,html-keyboard-response,324,1344601,0.0-19.0-0.0,12412,List1B,white,man,,,,null,,,,
null,"<img src=""stim_listB/shout5.gif""</stim_listB>",,html-keyboard-response,325,1346603,0.0-19.0-1.0,12412,List1B,white,man,,,,null,,,,
null,is shouting at,,html-keyboard-response,326,1348605,0.0-19.0-2.0,12412,List1B,white,man,,,,null,,,,
5365,,,survey-text,327,1353972,0.0-19.0-3.0,12412,List1B,white,man,,,,,"{""Q0"":""fred is shouting at Luke""}","<img src=""stim_listB/shout5.gif""</stim_listB>",is shouting at,
null,"<div style=""font-size:60px;"">+</div>",,html-keyboard-response,328,1354473,0.0-19.0-0.1,12412,List1B,white,man,,,,null,,,,
null,"<img src=""stim_listB/kiss6.gif""</stim_listB>",,html-keyboard-response,329,1356476,0.0-19.0-1.1,12412,List1B,white,man,,,,null,,,,
null,are kissing each other,,html-keyboard-response,330,1358478,0.0-19.0-2.1,12412,List1B,white,man,,,,null,,,,
6273,,,survey-text,331,1364751,0.0-19.0-3.1,12412,List1B,white,man,,,,,"{""Q0"":""Dave and mike are kissing each other""}","<img src=""stim_listB/kiss6.gif""</stim_listB>",are kissing each other,
null,"<div style=""font-size:60px;"">+</div>",,html-keyboard-response,332,1365252,0.0-19.0-0.2,12412,List1B,white,man,,,,null,,,,
null,"<img src=""stim_listB/marry7.gif""</stim_listB>",,html-keyboard-response,333,1367254,0.0-19.0-1.2,12412,List1B,white,man,,,,null,,,,
null,is marrying,,html-keyboard-response,334,1369256,0.0-19.0-2.2,12412,List1B,white,man,,,,null,,,,
4239,,,survey-text,335,1373495,0.0-19.0-3.2,12412,List1B,white,man,,,,,"{""Q0"":""ruth is marrying Kate""}","<img src=""stim_listB/marry7.gif""</stim_listB>",is marrying,
null,"<div style=""font-size:60px;"">+</div>",,html-keyboard-response,336,1373996,0.0-19.0-0.3,12412,List1B,white,man,,,,null,,,,
null,"<img src=""stim_listB/marry4.gif""</stim_listB>",,html-keyboard-response,337,1375998,0.0-19.0-1.3,12412,List1B,white,man,,,,null,,,,
null,are marrying each other,,html-keyboard-response,338,1378000,0.0-19.0-2.3,12412,List1B,white,man,,,,null,,,,
6961,,,survey-text,339,1384962,0.0-19.0-3.3,12412,List1B,white,man,,,,,"{""Q0"":""Luke and Jane are marrying each other""}","<img src=""stim_listB/marry4.gif""</stim_listB>",are marrying each other,
null,"<div style=""font-size:60px;"">+</div>",,html-keyboard-response,340,1385463,0.0-19.0-0.4,12412,List1B,white,man,,,,null,,,,
null,"<img src=""stim_listB/dance1.gif""</stim_listB>",,html-keyboard-response,341,1387465,0.0-19.0-1.4,12412,List1B,white,man,,,,null,,,,
null,is dancing with,,html-keyboard-response,342,1389467,0.0-19.0-2.4,12412,List1B,white,man,,,,null,,,,
4878,,,survey-text,343,1394347,0.0-19.0-3.4,12412,List1B,white,man,,,,,"{""Q0"":""Kate is dancing with fred""}","<img src=""stim_listB/dance1.gif""</stim_listB>",is dancing with,
null,"<div style=""font-size:60px;"">+</div>",,html-keyboard-response,344,1394849,0.0-19.0-0.5,12412,List1B,white,man,,,,null,,,,
null,"<img src=""stim_listB/fight1.gif""</stim_listB>",,html-keyboard-response,345,1396851,0.0-19.0-1.5,12412,List1B,white,man,,,,null,,,,
null,is fighting,,html-keyboard-response,346,1398853,0.0-19.0-2.5,12412,List1B,white,man,,,,null,,,,
6183,,,survey-text,347,1405038,0.0-19.0-3.5,12412,List1B,white,man,,,,,"{""Q0"":""Kate is fighting with mike""}","<img src=""stim_listB/fight1.gif""</stim_listB>",is fighting,
null,"<div style=""font-size:60px;"">+</div>",,html-keyboard-response,348,1405538,0.0-19.0-0.6,12412,List1B,white,man,,,,null,,,,
null,"<img src=""stim_listB/hug1.gif""</stim_listB>",,html-keyboard-response,349,1407539,0.0-19.0-1.6,12412,List1B,white,man,,,,null,,,,
null,is hugging,,html-keyboard-response,350,1409541,0.0-19.0-2.6,12412,List1B,white,man,,,,null,,,,
3994,,,survey-text,351,1413535,0.0-19.0-3.6,12412,List1B,white,man,,,,,"{""Q0"":""beth is hugging fred""}","<img src=""stim_listB/hug1.gif""</stim_listB>",is hugging,
null,"<div style=""font-size:60px;"">+</div>",,html-keyboard-response,352,1414037,0.0-19.0-0.7,12412,List1B,white,man,,,,null,,,,
null,"<img src=""stim_listB/marry5.gif""</stim_listB>",,html-keyboard-response,353,1416038,0.0-19.0-1.7,12412,List1B,white,man,,,,null,,,,
null,is marrying,,html-keyboard-response,354,1418040,0.0-19.0-2.7,12412,List1B,white,man,,,,null,,,,
6261,,,survey-text,355,1424302,0.0-19.0-3.7,12412,List1B,white,man,,,,,"{""Q0"":""Luke is marrying mike""}","<img src=""stim_listB/marry5.gif""</stim_listB>",is marrying,
null,"<div style=""font-size:60px;"">+</div>",,html-keyboard-response,356,1424804,0.0-19.0-0.8,12412,List1B,white,man,,,,null,,,,
null,"<img src=""stim_listB/touch5.gif""</stim_listB>",,html-keyboard-response,357,1426806,0.0-19.0-1.8,12412,List1B,white,man,,,,null,,,,
null,is touching,,html-keyboard-response,358,1428808,0.0-19.0-2.8,12412,List1B,white,man,,,,null,,,,
4393,,,survey-text,359,1433202,0.0-19.0-3.8,12412,List1B,white,man,,,,,"{""Q0"":""Dave is touching mike""}","<img src=""stim_listB/touch5.gif""</stim_listB>",is touching,
null,"<div style=""font-size:60px;"">+</div>",,html-keyboard-response,360,1433703,0.0-19.0-0.9,12412,List1B,white,man,,,,null,,,,
null,"<img src=""stim_listB/touch2.gif""</stim_listB>",,html-keyboard-response,361,1435705,0.0-19.0-1.9,12412,List1B,white,man,,,,null,,,,
null,are touching each other,,html-keyboard-response,362,1437707,0.0-19.0-2.9,12412,List1B,white,man,,,,null,,,,
7078,,,survey-text,363,1444787,0.0-19.0-3.9,12412,List1B,white,man,,,,,"{""Q0"":""fred and beth are touching each other""}","<img src=""stim_listB/touch2.gif""</stim_listB>",are touching each other,
null,"<div style=""font-size:60px;"">+</div>",,html-keyboard-response,364,1445288,0.0-19.0-0.10,12412,List1B,white,man,,,,null,,,,
null,"<img src=""stim_listB/meet1.gif""</stim_listB>",,html-keyboard-response,365,1447291,0.0-19.0-1.10,12412,List1B,white,man,,,,null,,,,
null,is meeting,,html-keyboard-response,366,1449293,0.0-19.0-2.10,12412,List1B,white,man,,,,null,,,,
4532,,,survey-text,367,1453826,0.0-19.0-3.10,12412,List1B,white,man,,,,,"{""Q0"":""Kate is meeting mike""}","<img src=""stim_listB/meet1.gif""</stim_listB>",is meeting,
null,"<div style=""font-size:60px;"">+</div>",,html-keyboard-response,368,1454326,0.0-19.0-0.11,12412,List1B,white,man,,,,null,,,,
null,"<img src=""stim_listB/dance8.gif""</stim_listB>",,html-keyboard-response,369,1456329,0.0-19.0-1.11,12412,List1B,white,man,,,,null,,,,
null,are dancing with each other,,html-keyboard-response,370,1458331,0.0-19.0-2.11,12412,List1B,white,man,,,,null,,,,
12895,,,survey-text,371,1471227,0.0-19.0-3.11,12412,List1B,white,man,,,,,"{""Q0"":""ruth and Kate are dancing with each other""}","<img src=""stim_listB/dance8.gif""</stim_listB>",are dancing with each other,
null,"<div style=""font-size:60px;"">+</div>",,html-keyboard-response,372,1471728,0.0-19.0-0.12,12412,List1B,white,man,,,,null,,,,
null,"<img src=""stim_listB/touch4.gif""</stim_listB>",,html-keyboard-response,373,1473730,0.0-19.0-1.12,12412,List1B,white,man,,,,null,,,,
null,are touching each other,,html-keyboard-response,374,1475732,0.0-19.0-2.12,12412,List1B,white,man,,,,null,,,,
8711,,,survey-text,375,1484444,0.0-19.0-3.12,12412,List1B,white,man,,,,,"{""Q0"":""Luke and ruth are touching each other""}","<img src=""stim_listB/touch4.gif""</stim_listB>",are touching each other,
null,"<div style=""font-size:60px;"">+</div>",,html-keyboard-response,376,1484946,0.0-19.0-0.13,12412,List1B,white,man,,,,null,,,,
null,"<img src=""stim_listB/hug2.gif""</stim_listB>",,html-keyboard-response,377,1486948,0.0-19.0-1.13,12412,List1B,white,man,,,,null,,,,
null,are hugging each other,,html-keyboard-response,378,1488950,0.0-19.0-2.13,12412,List1B,white,man,,,,null,,,,
7324,,,survey-text,379,1496275,0.0-19.0-3.13,12412,List1B,white,man,,,,,"{""Q0"":""mike and Kate are hugging each other""}","<img src=""stim_listB/hug2.gif""</stim_listB>",are hugging each other,
null,"<div style=""font-size:60px;"">+</div>",,html-keyboard-response,380,1496777,0.0-19.0-0.14,12412,List1B,white,man,,,,null,,,,
null,"<img src=""stim_listB/meet3.gif""</stim_listB>",,html-keyboard-response,381,1498779,0.0-19.0-1.14,12412,List1B,white,man,,,,null,,,,
null,is meeting,,html-keyboard-response,382,1500781,0.0-19.0-2.14,12412,List1B,white,man,,,,null,,,,
3659,,,survey-text,383,1504442,0.0-19.0-3.14,12412,List1B,white,man,,,,,"{""Q0"":""Jane is meeting Dave""}","<img src=""stim_listB/meet3.gif""</stim_listB>",is meeting,
null,"<div style=""font-size:60px;"">+</div>",,html-keyboard-response,384,1504943,0.0-19.0-0.15,12412,List1B,white,man,,,,null,,,,
null,"<img src=""stim_listB/touch7.gif""</stim_listB>",,html-keyboard-response,385,1506944,0.0-19.0-1.15,12412,List1B,white,man,,,,null,,,,
null,is touching,,html-keyboard-response,386,1508946,0.0-19.0-2.15,12412,List1B,white,man,,,,null,,,,
7272,,,survey-text,387,1516219,0.0-19.0-3.15,12412,List1B,white,man,,,,,"{""Q0"":""Jane is touching Kate""}","<img src=""stim_listB/touch7.gif""</stim_listB>",is touching,
null,"<div style=""font-size:60px;"">+</div>",,html-keyboard-response,388,1516721,0.0-19.0-0.16,12412,List1B,white,man,,,,null,,,,
null,"<img src=""stim_listB/meet2.gif""</stim_listB>",,html-keyboard-response,389,1518723,0.0-19.0-1.16,12412,List1B,white,man,,,,null,,,,
null,are meeting each other,,html-keyboard-response,390,1520725,0.0-19.0-2.16,12412,List1B,white,man,,,,null,,,,
8685,,,survey-text,391,1529411,0.0-19.0-3.16,12412,List1B,white,man,,,,,"{""Q0"":""fred is meeting beth""}","<img src=""stim_listB/meet2.gif""</stim_listB>",are meeting each other,
null,"<div style=""font-size:60px;"">+</div>",,html-keyboard-response,392,1529912,0.0-19.0-0.17,12412,List1B,white,man,,,,null,,,,
null,"<img src=""stim_listB/shout7.gif""</stim_listB>",,html-keyboard-response,393,1531912,0.0-19.0-1.17,12412,List1B,white,man,,,,null,,,,
null,is shouting at,,html-keyboard-response,394,1533913,0.0-19.0-2.17,12412,List1B,white,man,,,,null,,,,
4761,,,survey-text,395,1538675,0.0-19.0-3.17,12412,List1B,white,man,,,,,"{""Q0"":""beth is shouting at ruth""}","<img src=""stim_listB/shout7.gif""</stim_listB>",is shouting at,
null,"<div style=""font-size:60px;"">+</div>",,html-keyboard-response,396,1539177,0.0-19.0-0.18,12412,List1B,white,man,,,,null,,,,
null,"<img src=""stim_listB/touch8.gif""</stim_listB>",,html-keyboard-response,397,1541180,0.0-19.0-1.18,12412,List1B,white,man,,,,null,,,,
null,are touching each other,,html-keyboard-response,398,1543182,0.0-19.0-2.18,12412,List1B,white,man,,,,null,,,,
5763,,,survey-text,399,1548946,0.0-19.0-3.18,12412,List1B,white,man,,,,,"{""Q0"":""beth and ruth are touching each other""}","<img src=""stim_listB/touch8.gif""</stim_listB>",are touching each other,
null,"<div style=""font-size:60px;"">+</div>",,html-keyboard-response,400,1549448,0.0-19.0-0.19,12412,List1B,white,man,,,,null,,,,
null,"<img src=""stim_listB/talk5.gif""</stim_listB>",,html-keyboard-response,401,1551449,0.0-19.0-1.19,12412,List1B,white,man,,,,null,,,,
null,is talking to,,html-keyboard-response,402,1553451,0.0-19.0-2.19,12412,List1B,white,man,,,,null,,,,
4118,,,survey-text,403,1557571,0.0-19.0-3.19,12412,List1B,white,man,,,,,"{""Q0"":""Dave is talking to fred""}","<img src=""stim_listB/talk5.gif""</stim_listB>",is talking to,
2313,<p>Thank you for completing that task.</p><p>The final part of this session is a short questionnaire.</p><p>Press Continue.</p>,0,html-button-response,404,1559884,0.0-20.0,12412,List1B,white,man,,,,,,,,
24136,,,survey-text,405,1585022,0.0-21.0,12412,List1B,white,man,,,,,"{""Q0"":""28"",""Q1"":""English"",""Q2"":""English"",""Q3"":""United Kingdom"",""Q4"":""White - British"",""Q5"":""Male""}",,,demographics
44907,,,survey-likert,406,1629934,0.0-22.0,12412,List1B,white,man,,,,,"{""Q0"":3,""Q1"":3,""Q2"":3,""Q3"":4,""Q4"":2,""Q5"":4,""Q6"":3,""Q7"":1,""Q8"":2,""Q9"":2,""Q10"":3,""Q11"":3,""Q12"":3,""Q13"":3}",,,likert_race
36470,,,survey-likert,407,1666407,0.0-23.0,12412,List1B,white,man,,,,,"{""Q0"":4,""Q1"":4,""Q2"":3,""Q3"":4,""Q4"":3,""Q5"":4,""Q6"":3,""Q7"":3,""Q8"":3,""Q9"":4,""Q10"":3,""Q11"":3,""Q12"":3,""Q13"":3}",,,likert_gender
7352,,,survey-text,408,1673760,0.0-24.0,12412,List1B,white,man,,,,,"{""Q0"":""ccc""}",,,worker_id
30051,,,external-html,409,1703895,0.0-25.0,12412,List1B,white,man,debrief.html,,,,,,,
