rt,stimulus,button_pressed,trial_type,trial_index,time_elapsed,internal_node_id,subject,list,ppt_race,ppt_gender,url,first_guess,correct,key_press,responses,image_type,phrase_type,test_part
3344,Welcome to the experiment. Press Continue to begin.,0,html-button-response,0,3379,0.0-0.0,12791,List1B,white,man,,,,,,,,
118251,,,external-html,1,122690,0.0-1.0,12791,List1B,white,man,consent.html,,,,,,,
15956,"<p>On the next page, you will see portraits of 8 people and their names.</p><p>Your first task is to take a few minutes to memorise the names of these people.</p><p>You will have to recall their names during the rest of the experiment, so it is</p><p>essential that you try to memorise these people and their names as best as you can.</p><br><p><strong>You will then be tested on your memory of these names and portraits.</strong></p><br><p>The experiment will start after you have completed this memory test.</p><br><p>Ready?</p>",0,html-button-response,2,138648,0.0-2.0,12791,List1B,white,man,,,,,,,,
103989,"<img src='img/portrait_matrix_list1.JPG' style='width:900px;height:500px;''></img><p>If you have memorised all the portraits and names and are ready to start, press Continue.</p><p><strong>Please note: Your memory of these faces will be tested 4 times during this experiment.</strong></p>",0,html-button-response,3,243640,0.0-3.0-0.0,12791,List1B,white,man,,,,,,,,
3372,"<img src=""portrait/WM2.jpg""style=""width:400px;height:400px;""></img>",7,html-button-response,4,248017,0.0-3.0-1.0,12791,List1B,white,man,,TRUE,7,,,,,
null,CORRECT,,html-keyboard-response,5,249523,0.0-3.0-2.0-0.0,12791,List1B,white,man,,,,null,,,,
4010,"<img src=""portrait/BM2.jpg""style=""width:400px;height:400px;""></img>",5,html-button-response,6,253537,0.0-3.0-4.0,12791,List1B,white,man,,TRUE,5,,,,,
null,CORRECT,,html-keyboard-response,7,255042,0.0-3.0-5.0-0.0,12791,List1B,white,man,,,,null,,,,
7876,"<img src=""portrait/BW1.jpg""style=""width:400px;height:400px;""></img>",0,html-button-response,8,262920,0.0-3.0-7.0,12791,List1B,white,man,,TRUE,0,,,,,
null,CORRECT,,html-keyboard-response,9,264422,0.0-3.0-8.0-0.0,12791,List1B,white,man,,,,null,,,,
4160,"<img src=""portrait/BW2.jpg""style=""width:400px;height:400px;""></img>",2,html-button-response,10,268584,0.0-3.0-10.0,12791,List1B,white,man,,TRUE,2,,,,,
null,CORRECT,,html-keyboard-response,11,270087,0.0-3.0-11.0-0.0,12791,List1B,white,man,,,,null,,,,
8927,"<img src=""portrait/WW1.jpg""style=""width:400px;height:400px;""></img>",1,html-button-response,12,279016,0.0-3.0-13.0,12791,List1B,white,man,,TRUE,1,,,,,
null,CORRECT,,html-keyboard-response,13,280518,0.0-3.0-14.0-0.0,12791,List1B,white,man,,,,null,,,,
5870,"<img src=""portrait/BM1.jpg""style=""width:400px;height:400px;""></img>",4,html-button-response,14,286392,0.0-3.0-16.0,12791,List1B,white,man,,TRUE,4,,,,,
null,CORRECT,,html-keyboard-response,15,287894,0.0-3.0-17.0-0.0,12791,List1B,white,man,,,,null,,,,
3015,"<img src=""portrait/WW2.jpg""style=""width:400px;height:400px;""></img>",3,html-button-response,16,290912,0.0-3.0-19.0,12791,List1B,white,man,,TRUE,3,,,,,
null,CORRECT,,html-keyboard-response,17,292414,0.0-3.0-20.0-0.0,12791,List1B,white,man,,,,null,,,,
3895,"<img src=""portrait/WM1.jpg""style=""width:400px;height:400px;""></img>",6,html-button-response,18,296312,0.0-3.0-22.0,12791,List1B,white,man,,TRUE,6,,,,,
null,CORRECT,,html-keyboard-response,19,297814,0.0-3.0-23.0-0.0,12791,List1B,white,man,,,,null,,,,
1710,<p>You got 8 out of 8 right first time. Press Continue.</p>,0,html-button-response,20,299526,0.0-3.0-25.0,12791,List1B,white,man,,,,,,,,
37830,"<p>In this experiment, you will view photographs of the people from the memory game interacting.</p><p>By using the <strong>exact</strong> phrase given <i>after</i> the photograph appears and recalling the correct names of the people in the photographs, form a sentence describing the interaction. You do not need to capitalise names.</p><p>Type your answer in the space provided. Please complete every sentence before moving onto the next trial.</p><p>You will only have a few seconds to memorise each given photograph and phrase before you can respond, so try your best to focus.</p><p>An example is given below. Press 'Continue' when you are ready.</p><img src='img/speaking_example_v2.jpg' style='width:800px;height:460px;''></img>",0,html-button-response,21,338360,0.0-4.0,12791,List1B,white,man,,,,,,,,
2684,"<p>Before the experiment starts, you will watch two example trials. Press 'Continue'.</p>",0,html-button-response,22,342047,0.0-5.0,12791,List1B,white,man,,,,,,,,
null,<img src='img/speaking_WW.gif'></img>,,html-keyboard-response,23,345051,0.0-6.0,12791,List1B,white,man,,,,null,,,,
null,<p>is speaking to</p>,,html-keyboard-response,24,347053,0.0-7.0,12791,List1B,white,man,,,,null,,,,
5489,<p><b>Answer:</b> kate is speaking to beth</p>,0,html-button-response,25,352543,0.0-8.0,12791,List1B,white,man,,,,,,,,
null,<img src='img/pointing_BM.gif'></img>,,html-keyboard-response,26,355546,0.0-9.0,12791,List1B,white,man,,,,null,,,,
null,<p>are pointing at each other</p>,,html-keyboard-response,27,357548,0.0-10.0,12791,List1B,white,man,,,,null,,,,
4873,<p><b>Answer:</b> luke and dave are pointing at each other</p>,0,html-button-response,28,362423,0.0-11.0,12791,List1B,white,man,,,,,,,,
20630,"<p>Ready to start the experiment?</p><br><p><strong>Remember to describe the picture using a full sentence,</strong></p><p><strong>that combines the names of the people with the given phrase.</strong></p><p><strong>If you do not do this correctly you will not be paid.</strong></p><p><strong> You do not need to capitalise names or use punctuation.</strong></p><br><p>Press 'Continue' to begin.</p>",0,html-button-response,29,384055,0.0-12.0,12791,List1B,white,man,,,,,,,,
null,"<div style=""font-size:60px;"">+</div>",,html-keyboard-response,30,385556,0.0-13.0-0.0,12791,List1B,white,man,,,,null,,,,
null,"<img src=""stim_listB/talk1.gif""</stim_listB>",,html-keyboard-response,31,387560,0.0-13.0-1.0,12791,List1B,white,man,,,,null,,,,
null,is talking to,,html-keyboard-response,32,389563,0.0-13.0-2.0,12791,List1B,white,man,,,,null,,,,
9603,,,survey-text,33,399168,0.0-13.0-3.0,12791,List1B,white,man,,,,,"{""Q0"":""fred is talking to kate""}","<img src=""stim_listB/talk1.gif""</stim_listB>",is talking to,
null,"<div style=""font-size:60px;"">+</div>",,html-keyboard-response,34,399671,0.0-13.0-0.1,12791,List1B,white,man,,,,null,,,,
null,"<img src=""stim_listB/hug4.gif""</stim_listB>",,html-keyboard-response,35,401673,0.0-13.0-1.1,12791,List1B,white,man,,,,null,,,,
null,are hugging each other,,html-keyboard-response,36,403675,0.0-13.0-2.1,12791,List1B,white,man,,,,null,,,,
10418,,,survey-text,37,414095,0.0-13.0-3.1,12791,List1B,white,man,,,,,"{""Q0"":""dave is hugging jane""}","<img src=""stim_listB/hug4.gif""</stim_listB>",are hugging each other,
null,"<div style=""font-size:60px;"">+</div>",,html-keyboard-response,38,414596,0.0-13.0-0.2,12791,List1B,white,man,,,,null,,,,
null,"<img src=""stim_listB/marry8.gif""</stim_listB>",,html-keyboard-response,39,416598,0.0-13.0-1.2,12791,List1B,white,man,,,,null,,,,
null,are marrying each other,,html-keyboard-response,40,418600,0.0-13.0-2.2,12791,List1B,white,man,,,,null,,,,
13533,,,survey-text,41,432135,0.0-13.0-3.2,12791,List1B,white,man,,,,,"{""Q0"":""jane and beth are marrying each other""}","<img src=""stim_listB/marry8.gif""</stim_listB>",are marrying each other,
null,"<div style=""font-size:60px;"">+</div>",,html-keyboard-response,42,432636,0.0-13.0-0.3,12791,List1B,white,man,,,,null,,,,
null,"<img src=""stim_listB/talk5.gif""</stim_listB>",,html-keyboard-response,43,434639,0.0-13.0-1.3,12791,List1B,white,man,,,,null,,,,
null,is talking to,,html-keyboard-response,44,436641,0.0-13.0-2.3,12791,List1B,white,man,,,,null,,,,
7157,,,survey-text,45,443799,0.0-13.0-3.3,12791,List1B,white,man,,,,,"{""Q0"":""fred is talking to dave""}","<img src=""stim_listB/talk5.gif""</stim_listB>",is talking to,
null,"<div style=""font-size:60px;"">+</div>",,html-keyboard-response,46,444301,0.0-13.0-0.4,12791,List1B,white,man,,,,null,,,,
null,"<img src=""stim_listB/talk7.gif""</stim_listB>",,html-keyboard-response,47,446302,0.0-13.0-1.4,12791,List1B,white,man,,,,null,,,,
null,is talking to,,html-keyboard-response,48,448304,0.0-13.0-2.4,12791,List1B,white,man,,,,null,,,,
8542,,,survey-text,49,456848,0.0-13.0-3.4,12791,List1B,white,man,,,,,"{""Q0"":""jane is talking to beth""}","<img src=""stim_listB/talk7.gif""</stim_listB>",is talking to,
null,"<div style=""font-size:60px;"">+</div>",,html-keyboard-response,50,457350,0.0-13.0-0.5,12791,List1B,white,man,,,,null,,,,
null,"<img src=""stim_listB/fight5.gif""</stim_listB>",,html-keyboard-response,51,459353,0.0-13.0-1.5,12791,List1B,white,man,,,,null,,,,
null,is fighting,,html-keyboard-response,52,461354,0.0-13.0-2.5,12791,List1B,white,man,,,,null,,,,
12084,,,survey-text,53,473440,0.0-13.0-3.5,12791,List1B,white,man,,,,,"{""Q0"":""mike is fighting dave""}","<img src=""stim_listB/fight5.gif""</stim_listB>",is fighting,
null,"<div style=""font-size:60px;"">+</div>",,html-keyboard-response,54,473942,0.0-13.0-0.6,12791,List1B,white,man,,,,null,,,,
null,"<img src=""stim_listB/marry4.gif""</stim_listB>",,html-keyboard-response,55,475944,0.0-13.0-1.6,12791,List1B,white,man,,,,null,,,,
null,are marrying each other,,html-keyboard-response,56,477946,0.0-13.0-2.6,12791,List1B,white,man,,,,null,,,,
22452,,,survey-text,57,500399,0.0-13.0-3.6,12791,List1B,white,man,,,,,"{""Q0"":""jane and luke are holding hands""}","<img src=""stim_listB/marry4.gif""</stim_listB>",are marrying each other,
null,"<div style=""font-size:60px;"">+</div>",,html-keyboard-response,58,500901,0.0-13.0-0.7,12791,List1B,white,man,,,,null,,,,
null,"<img src=""stim_listB/fight3.gif""</stim_listB>",,html-keyboard-response,59,502904,0.0-13.0-1.7,12791,List1B,white,man,,,,null,,,,
null,is fighting,,html-keyboard-response,60,504906,0.0-13.0-2.7,12791,List1B,white,man,,,,null,,,,
6011,,,survey-text,61,510919,0.0-13.0-3.7,12791,List1B,white,man,,,,,"{""Q0"":""dave is fighting jane""}","<img src=""stim_listB/fight3.gif""</stim_listB>",is fighting,
null,"<div style=""font-size:60px;"">+</div>",,html-keyboard-response,62,511422,0.0-13.0-0.8,12791,List1B,white,man,,,,null,,,,
null,"<img src=""stim_listB/touch5.gif""</stim_listB>",,html-keyboard-response,63,513425,0.0-13.0-1.8,12791,List1B,white,man,,,,null,,,,
null,is touching,,html-keyboard-response,64,515427,0.0-13.0-2.8,12791,List1B,white,man,,,,null,,,,
6764,,,survey-text,65,522191,0.0-13.0-3.8,12791,List1B,white,man,,,,,"{""Q0"":""mike is touching dave""}","<img src=""stim_listB/touch5.gif""</stim_listB>",is touching,
null,"<div style=""font-size:60px;"">+</div>",,html-keyboard-response,66,522697,0.0-13.0-0.9,12791,List1B,white,man,,,,null,,,,
null,"<img src=""stim_listB/dance4.gif""</stim_listB>",,html-keyboard-response,67,524700,0.0-13.0-1.9,12791,List1B,white,man,,,,null,,,,
null,are dancing with each other,,html-keyboard-response,68,526702,0.0-13.0-2.9,12791,List1B,white,man,,,,null,,,,
12777,,,survey-text,69,539480,0.0-13.0-3.9,12791,List1B,white,man,,,,,"{""Q0"":""dave and ruth are dancing with each other""}","<img src=""stim_listB/dance4.gif""</stim_listB>",are dancing with each other,
null,"<div style=""font-size:60px;"">+</div>",,html-keyboard-response,70,539982,0.0-13.0-0.10,12791,List1B,white,man,,,,null,,,,
null,"<img src=""stim_listB/touch7.gif""</stim_listB>",,html-keyboard-response,71,541985,0.0-13.0-1.10,12791,List1B,white,man,,,,null,,,,
null,is touching,,html-keyboard-response,72,543987,0.0-13.0-2.10,12791,List1B,white,man,,,,null,,,,
9530,,,survey-text,73,553520,0.0-13.0-3.10,12791,List1B,white,man,,,,,"{""Q0"":""jane is touching kate""}","<img src=""stim_listB/touch7.gif""</stim_listB>",is touching,
null,"<div style=""font-size:60px;"">+</div>",,html-keyboard-response,74,554022,0.0-13.0-0.11,12791,List1B,white,man,,,,null,,,,
null,"<img src=""stim_listB/meet8.gif""</stim_listB>",,html-keyboard-response,75,556024,0.0-13.0-1.11,12791,List1B,white,man,,,,null,,,,
null,are meeting each other,,html-keyboard-response,76,558026,0.0-13.0-2.11,12791,List1B,white,man,,,,null,,,,
22844,,,survey-text,77,580872,0.0-13.0-3.11,12791,List1B,white,man,,,,,"{""Q0"":""beth and kate are meeting each other""}","<img src=""stim_listB/meet8.gif""</stim_listB>",are meeting each other,
null,"<div style=""font-size:60px;"">+</div>",,html-keyboard-response,78,581374,0.0-13.0-0.12,12791,List1B,white,man,,,,null,,,,
null,"<img src=""stim_listB/hug1.gif""</stim_listB>",,html-keyboard-response,79,583376,0.0-13.0-1.12,12791,List1B,white,man,,,,null,,,,
null,is hugging,,html-keyboard-response,80,585377,0.0-13.0-2.12,12791,List1B,white,man,,,,null,,,,
10341,,,survey-text,81,595719,0.0-13.0-3.12,12791,List1B,white,man,,,,,"{""Q0"":""fred is hugging beth""}","<img src=""stim_listB/hug1.gif""</stim_listB>",is hugging,
null,"<div style=""font-size:60px;"">+</div>",,html-keyboard-response,82,596221,0.0-13.0-0.13,12791,List1B,white,man,,,,null,,,,
null,"<img src=""stim_listB/fight1.gif""</stim_listB>",,html-keyboard-response,83,598223,0.0-13.0-1.13,12791,List1B,white,man,,,,null,,,,
null,is fighting,,html-keyboard-response,84,600226,0.0-13.0-2.13,12791,List1B,white,man,,,,null,,,,
10836,,,survey-text,85,611063,0.0-13.0-3.13,12791,List1B,white,man,,,,,"{""Q0"":""mike is fighting kate""}","<img src=""stim_listB/fight1.gif""</stim_listB>",is fighting,
null,"<div style=""font-size:60px;"">+</div>",,html-keyboard-response,86,611565,0.0-13.0-0.14,12791,List1B,white,man,,,,null,,,,
null,"<img src=""stim_listB/hug2.gif""</stim_listB>",,html-keyboard-response,87,613567,0.0-13.0-1.14,12791,List1B,white,man,,,,null,,,,
null,are hugging each other,,html-keyboard-response,88,615569,0.0-13.0-2.14,12791,List1B,white,man,,,,null,,,,
14308,,,survey-text,89,629879,0.0-13.0-3.14,12791,List1B,white,man,,,,,"{""Q0"":""mike and beth are hugging each other""}","<img src=""stim_listB/hug2.gif""</stim_listB>",are hugging each other,
null,"<div style=""font-size:60px;"">+</div>",,html-keyboard-response,90,630381,0.0-13.0-0.15,12791,List1B,white,man,,,,null,,,,
null,"<img src=""stim_listB/dance7.gif""</stim_listB>",,html-keyboard-response,91,632383,0.0-13.0-1.15,12791,List1B,white,man,,,,null,,,,
null,is dancing with,,html-keyboard-response,92,634385,0.0-13.0-2.15,12791,List1B,white,man,,,,null,,,,
9573,,,survey-text,93,643959,0.0-13.0-3.15,12791,List1B,white,man,,,,,"{""Q0"":""jane is dancing with beth""}","<img src=""stim_listB/dance7.gif""</stim_listB>",is dancing with,
null,"<div style=""font-size:60px;"">+</div>",,html-keyboard-response,94,644461,0.0-13.0-0.16,12791,List1B,white,man,,,,null,,,,
null,"<img src=""stim_listB/fight6.gif""</stim_listB>",,html-keyboard-response,95,646463,0.0-13.0-1.16,12791,List1B,white,man,,,,null,,,,
null,are fighting each other,,html-keyboard-response,96,648465,0.0-13.0-2.16,12791,List1B,white,man,,,,null,,,,
20708,,,survey-text,97,669175,0.0-13.0-3.16,12791,List1B,white,man,,,,,"{""Q0"":""fred and luke are fighting each other""}","<img src=""stim_listB/fight6.gif""</stim_listB>",are fighting each other,
null,"<div style=""font-size:60px;"">+</div>",,html-keyboard-response,98,669677,0.0-13.0-0.17,12791,List1B,white,man,,,,null,,,,
null,"<img src=""stim_listB/shout1.gif""</stim_listB>",,html-keyboard-response,99,671679,0.0-13.0-1.17,12791,List1B,white,man,,,,null,,,,
null,is shouting at,,html-keyboard-response,100,673681,0.0-13.0-2.17,12791,List1B,white,man,,,,null,,,,
10772,,,survey-text,101,684455,0.0-13.0-3.17,12791,List1B,white,man,,,,,"{""Q0"":""fred is shouting at kate""}","<img src=""stim_listB/shout1.gif""</stim_listB>",is shouting at,
null,"<div style=""font-size:60px;"">+</div>",,html-keyboard-response,102,684957,0.0-13.0-0.18,12791,List1B,white,man,,,,null,,,,
null,"<img src=""stim_listB/fight2.gif""</stim_listB>",,html-keyboard-response,103,686959,0.0-13.0-1.18,12791,List1B,white,man,,,,null,,,,
null,are fighting each other,,html-keyboard-response,104,688961,0.0-13.0-2.18,12791,List1B,white,man,,,,null,,,,
13373,,,survey-text,105,702336,0.0-13.0-3.18,12791,List1B,white,man,,,,,"{""Q0"":""fred and kate are fighting each other""}","<img src=""stim_listB/fight2.gif""</stim_listB>",are fighting each other,
null,"<div style=""font-size:60px;"">+</div>",,html-keyboard-response,106,702838,0.0-13.0-0.19,12791,List1B,white,man,,,,null,,,,
null,"<img src=""stim_listB/talk6.gif""</stim_listB>",,html-keyboard-response,107,704840,0.0-13.0-1.19,12791,List1B,white,man,,,,null,,,,
null,are talking to each other,,html-keyboard-response,108,706842,0.0-13.0-2.19,12791,List1B,white,man,,,,null,,,,
11252,,,survey-text,109,718095,0.0-13.0-3.19,12791,List1B,white,man,,,,,"{""Q0"":""mike and luke are talking to each other""}","<img src=""stim_listB/talk6.gif""</stim_listB>",are talking to each other,
45925,"<img src='img/portrait_matrix_list1.JPG' style='width:900px;height:500px;''></img><p>If you have memorised all the portraits and names and are ready to start, press Continue.</p><p><strong>Please note: Your memory of these faces will be tested 4 times during this experiment.</strong></p>",0,html-button-response,110,764024,0.0-14.0-0.0,12791,List1B,white,man,,,,,,,,
2492,"<img src=""portrait/BW2.jpg""style=""width:400px;height:400px;""></img>",2,html-button-response,111,767520,0.0-14.0-1.0,12791,List1B,white,man,,TRUE,2,,,,,
null,CORRECT,,html-keyboard-response,112,769023,0.0-14.0-2.0-0.0,12791,List1B,white,man,,,,null,,,,
2014,"<img src=""portrait/BM1.jpg""style=""width:400px;height:400px;""></img>",4,html-button-response,113,771040,0.0-14.0-4.0,12791,List1B,white,man,,TRUE,4,,,,,
null,CORRECT,,html-keyboard-response,114,772542,0.0-14.0-5.0-0.0,12791,List1B,white,man,,,,null,,,,
2862,"<img src=""portrait/WM1.jpg""style=""width:400px;height:400px;""></img>",6,html-button-response,115,775406,0.0-14.0-7.0,12791,List1B,white,man,,TRUE,6,,,,,
null,CORRECT,,html-keyboard-response,116,776909,0.0-14.0-8.0-0.0,12791,List1B,white,man,,,,null,,,,
9624,"<img src=""portrait/WW1.jpg""style=""width:400px;height:400px;""></img>",1,html-button-response,117,786536,0.0-14.0-10.0,12791,List1B,white,man,,TRUE,1,,,,,
null,CORRECT,,html-keyboard-response,118,788038,0.0-14.0-11.0-0.0,12791,List1B,white,man,,,,null,,,,
4223,"<img src=""portrait/BW1.jpg""style=""width:400px;height:400px;""></img>",0,html-button-response,119,792264,0.0-14.0-13.0,12791,List1B,white,man,,TRUE,0,,,,,
null,CORRECT,,html-keyboard-response,120,793766,0.0-14.0-14.0-0.0,12791,List1B,white,man,,,,null,,,,
2102,"<img src=""portrait/BM2.jpg""style=""width:400px;height:400px;""></img>",5,html-button-response,121,795872,0.0-14.0-16.0,12791,List1B,white,man,,TRUE,5,,,,,
null,CORRECT,,html-keyboard-response,122,797374,0.0-14.0-17.0-0.0,12791,List1B,white,man,,,,null,,,,
1278,"<img src=""portrait/WW2.jpg""style=""width:400px;height:400px;""></img>",3,html-button-response,123,798655,0.0-14.0-19.0,12791,List1B,white,man,,TRUE,3,,,,,
null,CORRECT,,html-keyboard-response,124,800160,0.0-14.0-20.0-0.0,12791,List1B,white,man,,,,null,,,,
2132,"<img src=""portrait/WM2.jpg""style=""width:400px;height:400px;""></img>",7,html-button-response,125,802295,0.0-14.0-22.0,12791,List1B,white,man,,TRUE,7,,,,,
null,CORRECT,,html-keyboard-response,126,803799,0.0-14.0-23.0-0.0,12791,List1B,white,man,,,,null,,,,
1110,<p>You got 8 out of 8 right first time. Press Continue.</p>,0,html-button-response,127,804911,0.0-14.0-25.0,12791,List1B,white,man,,,,,,,,
null,"<div style=""font-size:60px;"">+</div>",,html-keyboard-response,128,806414,0.0-15.0-0.0,12791,List1B,white,man,,,,null,,,,
null,"<img src=""stim_listB/marry3.gif""</stim_listB>",,html-keyboard-response,129,808416,0.0-15.0-1.0,12791,List1B,white,man,,,,null,,,,
null,is marrying,,html-keyboard-response,130,810418,0.0-15.0-2.0,12791,List1B,white,man,,,,null,,,,
14324,,,survey-text,131,824744,0.0-15.0-3.0,12791,List1B,white,man,,,,,"{""Q0"":""dave is marrying ruth""}","<img src=""stim_listB/marry3.gif""</stim_listB>",is marrying,
null,"<div style=""font-size:60px;"">+</div>",,html-keyboard-response,132,825246,0.0-15.0-0.1,12791,List1B,white,man,,,,null,,,,
null,"<img src=""stim_listB/meet5.gif""</stim_listB>",,html-keyboard-response,133,827249,0.0-15.0-1.1,12791,List1B,white,man,,,,null,,,,
null,is meeting,,html-keyboard-response,134,829251,0.0-15.0-2.1,12791,List1B,white,man,,,,null,,,,
6411,,,survey-text,135,835664,0.0-15.0-3.1,12791,List1B,white,man,,,,,"{""Q0"":""dave is meeting mike""}","<img src=""stim_listB/meet5.gif""</stim_listB>",is meeting,
null,"<div style=""font-size:60px;"">+</div>",,html-keyboard-response,136,836165,0.0-15.0-0.2,12791,List1B,white,man,,,,null,,,,
null,"<img src=""stim_listB/meet6.gif""</stim_listB>",,html-keyboard-response,137,838167,0.0-15.0-1.2,12791,List1B,white,man,,,,null,,,,
null,are meeting each other,,html-keyboard-response,138,840169,0.0-15.0-2.2,12791,List1B,white,man,,,,null,,,,
8924,,,survey-text,139,849096,0.0-15.0-3.2,12791,List1B,white,man,,,,,"{""Q0"":""fed and luke are meeting each other""}","<img src=""stim_listB/meet6.gif""</stim_listB>",are meeting each other,
null,"<div style=""font-size:60px;"">+</div>",,html-keyboard-response,140,849598,0.0-15.0-0.3,12791,List1B,white,man,,,,null,,,,
null,"<img src=""stim_listB/fight8.gif""</stim_listB>",,html-keyboard-response,141,851601,0.0-15.0-1.3,12791,List1B,white,man,,,,null,,,,
null,are fighting each other,,html-keyboard-response,142,853602,0.0-15.0-2.3,12791,List1B,white,man,,,,null,,,,
9667,,,survey-text,143,863271,0.0-15.0-3.3,12791,List1B,white,man,,,,,"{""Q0"":""ruth and beth are fighting each other""}","<img src=""stim_listB/fight8.gif""</stim_listB>",are fighting each other,
null,"<div style=""font-size:60px;"">+</div>",,html-keyboard-response,144,863773,0.0-15.0-0.4,12791,List1B,white,man,,,,null,,,,
null,"<img src=""stim_listB/touch6.gif""</stim_listB>",,html-keyboard-response,145,865775,0.0-15.0-1.4,12791,List1B,white,man,,,,null,,,,
null,are touching each other,,html-keyboard-response,146,867777,0.0-15.0-2.4,12791,List1B,white,man,,,,null,,,,
14821,,,survey-text,147,882599,0.0-15.0-3.4,12791,List1B,white,man,,,,,"{""Q0"":""fred and luke are touching each other""}","<img src=""stim_listB/touch6.gif""</stim_listB>",are touching each other,
null,"<div style=""font-size:60px;"">+</div>",,html-keyboard-response,148,883100,0.0-15.0-0.5,12791,List1B,white,man,,,,null,,,,
null,"<img src=""stim_listB/shout3.gif""</stim_listB>",,html-keyboard-response,149,885104,0.0-15.0-1.5,12791,List1B,white,man,,,,null,,,,
null,is shouting at,,html-keyboard-response,150,887106,0.0-15.0-2.5,12791,List1B,white,man,,,,null,,,,
7404,,,survey-text,151,894512,0.0-15.0-3.5,12791,List1B,white,man,,,,,"{""Q0"":""ruth is shouting at luke""}","<img src=""stim_listB/shout3.gif""</stim_listB>",is shouting at,
null,"<div style=""font-size:60px;"">+</div>",,html-keyboard-response,152,895013,0.0-15.0-0.6,12791,List1B,white,man,,,,null,,,,
null,"<img src=""stim_listB/touch3.gif""</stim_listB>",,html-keyboard-response,153,897016,0.0-15.0-1.6,12791,List1B,white,man,,,,null,,,,
null,is touching,,html-keyboard-response,154,899017,0.0-15.0-2.6,12791,List1B,white,man,,,,null,,,,
5748,,,survey-text,155,904767,0.0-15.0-3.6,12791,List1B,white,man,,,,,"{""Q0"":""dave is touching jane""}","<img src=""stim_listB/touch3.gif""</stim_listB>",is touching,
null,"<div style=""font-size:60px;"">+</div>",,html-keyboard-response,156,905269,0.0-15.0-0.7,12791,List1B,white,man,,,,null,,,,
null,"<img src=""stim_listB/touch2.gif""</stim_listB>",,html-keyboard-response,157,907271,0.0-15.0-1.7,12791,List1B,white,man,,,,null,,,,
null,are touching each other,,html-keyboard-response,158,909273,0.0-15.0-2.7,12791,List1B,white,man,,,,null,,,,
15012,,,survey-text,159,924287,0.0-15.0-3.7,12791,List1B,white,man,,,,,"{""Q0"":""fred and beth are touching each other""}","<img src=""stim_listB/touch2.gif""</stim_listB>",are touching each other,
null,"<div style=""font-size:60px;"">+</div>",,html-keyboard-response,160,924789,0.0-15.0-0.8,12791,List1B,white,man,,,,null,,,,
null,"<img src=""stim_listB/touch8.gif""</stim_listB>",,html-keyboard-response,161,926792,0.0-15.0-1.8,12791,List1B,white,man,,,,null,,,,
null,are touching each other,,html-keyboard-response,162,928794,0.0-15.0-2.8,12791,List1B,white,man,,,,null,,,,
10619,,,survey-text,163,939414,0.0-15.0-3.8,12791,List1B,white,man,,,,,"{""Q0"":""ruth and beth are touching each other""}","<img src=""stim_listB/touch8.gif""</stim_listB>",are touching each other,
null,"<div style=""font-size:60px;"">+</div>",,html-keyboard-response,164,939917,0.0-15.0-0.9,12791,List1B,white,man,,,,null,,,,
null,"<img src=""stim_listB/argue2.gif""</stim_listB>",,html-keyboard-response,165,941919,0.0-15.0-1.9,12791,List1B,white,man,,,,null,,,,
null,are arguing with each other,,html-keyboard-response,166,943921,0.0-15.0-2.9,12791,List1B,white,man,,,,null,,,,
10836,,,survey-text,167,954759,0.0-15.0-3.9,12791,List1B,white,man,,,,,"{""Q0"":""fred and kate are arguing with each other""}","<img src=""stim_listB/argue2.gif""</stim_listB>",are arguing with each other,
null,"<div style=""font-size:60px;"">+</div>",,html-keyboard-response,168,955261,0.0-15.0-0.10,12791,List1B,white,man,,,,null,,,,
null,"<img src=""stim_listB/shout4.gif""</stim_listB>",,html-keyboard-response,169,957263,0.0-15.0-1.10,12791,List1B,white,man,,,,null,,,,
null,are shouting at each other,,html-keyboard-response,170,959265,0.0-15.0-2.10,12791,List1B,white,man,,,,null,,,,
13716,,,survey-text,171,972983,0.0-15.0-3.10,12791,List1B,white,man,,,,,"{""Q0"":""dave and jane are shouting at each other""}","<img src=""stim_listB/shout4.gif""</stim_listB>",are shouting at each other,
null,"<div style=""font-size:60px;"">+</div>",,html-keyboard-response,172,973485,0.0-15.0-0.11,12791,List1B,white,man,,,,null,,,,
null,"<img src=""stim_listB/hug8.gif""</stim_listB>",,html-keyboard-response,173,975487,0.0-15.0-1.11,12791,List1B,white,man,,,,null,,,,
null,are hugging each other,,html-keyboard-response,174,977489,0.0-15.0-2.11,12791,List1B,white,man,,,,null,,,,
11468,,,survey-text,175,988959,0.0-15.0-3.11,12791,List1B,white,man,,,,,"{""Q0"":""kate and jane are hugging each other""}","<img src=""stim_listB/hug8.gif""</stim_listB>",are hugging each other,
null,"<div style=""font-size:60px;"">+</div>",,html-keyboard-response,176,989462,0.0-15.0-0.12,12791,List1B,white,man,,,,null,,,,
null,"<img src=""stim_listB/hug3.gif""</stim_listB>",,html-keyboard-response,177,991464,0.0-15.0-1.12,12791,List1B,white,man,,,,null,,,,
null,is hugging,,html-keyboard-response,178,993465,0.0-15.0-2.12,12791,List1B,white,man,,,,null,,,,
8220,,,survey-text,179,1001687,0.0-15.0-3.12,12791,List1B,white,man,,,,,"{""Q0"":""luke is hugging ruth""}","<img src=""stim_listB/hug3.gif""</stim_listB>",is hugging,
null,"<div style=""font-size:60px;"">+</div>",,html-keyboard-response,180,1002189,0.0-15.0-0.13,12791,List1B,white,man,,,,null,,,,
null,"<img src=""stim_listB/marry1.gif""</stim_listB>",,html-keyboard-response,181,1004194,0.0-15.0-1.13,12791,List1B,white,man,,,,null,,,,
null,is marrying,,html-keyboard-response,182,1006196,0.0-15.0-2.13,12791,List1B,white,man,,,,null,,,,
7873,,,survey-text,183,1014071,0.0-15.0-3.13,12791,List1B,white,man,,,,,"{""Q0"":""mike is marrying beth""}","<img src=""stim_listB/marry1.gif""</stim_listB>",is marrying,
null,"<div style=""font-size:60px;"">+</div>",,html-keyboard-response,184,1014574,0.0-15.0-0.14,12791,List1B,white,man,,,,null,,,,
null,"<img src=""stim_listB/fight7.gif""</stim_listB>",,html-keyboard-response,185,1016576,0.0-15.0-1.14,12791,List1B,white,man,,,,null,,,,
null,is fighting,,html-keyboard-response,186,1018578,0.0-15.0-2.14,12791,List1B,white,man,,,,null,,,,
6675,,,survey-text,187,1025255,0.0-15.0-3.14,12791,List1B,white,man,,,,,"{""Q0"":""kate is fighting jane""}","<img src=""stim_listB/fight7.gif""</stim_listB>",is fighting,
null,"<div style=""font-size:60px;"">+</div>",,html-keyboard-response,188,1025757,0.0-15.0-0.15,12791,List1B,white,man,,,,null,,,,
null,"<img src=""stim_listB/talk4.gif""</stim_listB>",,html-keyboard-response,189,1027760,0.0-15.0-1.15,12791,List1B,white,man,,,,null,,,,
null,are talking to each other,,html-keyboard-response,190,1029762,0.0-15.0-2.15,12791,List1B,white,man,,,,null,,,,
8484,,,survey-text,191,1038247,0.0-15.0-3.15,12791,List1B,white,man,,,,,"{""Q0"":""dave and ruth are talking to each other""}","<img src=""stim_listB/talk4.gif""</stim_listB>",are talking to each other,
null,"<div style=""font-size:60px;"">+</div>",,html-keyboard-response,192,1038749,0.0-15.0-0.16,12791,List1B,white,man,,,,null,,,,
null,"<img src=""stim_listB/hug7.gif""</stim_listB>",,html-keyboard-response,193,1040752,0.0-15.0-1.16,12791,List1B,white,man,,,,null,,,,
null,is hugging,,html-keyboard-response,194,1042753,0.0-15.0-2.16,12791,List1B,white,man,,,,null,,,,
7892,,,survey-text,195,1050647,0.0-15.0-3.16,12791,List1B,white,man,,,,,"{""Q0"":""ruth is hugging beth""}","<img src=""stim_listB/hug7.gif""</stim_listB>",is hugging,
null,"<div style=""font-size:60px;"">+</div>",,html-keyboard-response,196,1051149,0.0-15.0-0.17,12791,List1B,white,man,,,,null,,,,
null,"<img src=""stim_listB/marry6.gif""</stim_listB>",,html-keyboard-response,197,1053151,0.0-15.0-1.17,12791,List1B,white,man,,,,null,,,,
null,are marrying each other,,html-keyboard-response,198,1055153,0.0-15.0-2.17,12791,List1B,white,man,,,,null,,,,
13332,,,survey-text,199,1068487,0.0-15.0-3.17,12791,List1B,white,man,,,,,"{""Q0"":""fred and dave are marrying each other""}","<img src=""stim_listB/marry6.gif""</stim_listB>",are marrying each other,
null,"<div style=""font-size:60px;"">+</div>",,html-keyboard-response,200,1068991,0.0-15.0-0.18,12791,List1B,white,man,,,,null,,,,
null,"<img src=""stim_listB/talk8.gif""</stim_listB>",,html-keyboard-response,201,1070993,0.0-15.0-1.18,12791,List1B,white,man,,,,null,,,,
null,are talking to each other,,html-keyboard-response,202,1072996,0.0-15.0-2.18,12791,List1B,white,man,,,,null,,,,
14641,,,survey-text,203,1087639,0.0-15.0-3.18,12791,List1B,white,man,,,,,"{""Q0"":""ruth and kate are talking to each other""}","<img src=""stim_listB/talk8.gif""</stim_listB>",are talking to each other,
null,"<div style=""font-size:60px;"">+</div>",,html-keyboard-response,204,1088141,0.0-15.0-0.19,12791,List1B,white,man,,,,null,,,,
null,"<img src=""stim_listB/shout6.gif""</stim_listB>",,html-keyboard-response,205,1090143,0.0-15.0-1.19,12791,List1B,white,man,,,,null,,,,
null,are shouting at each other,,html-keyboard-response,206,1092145,0.0-15.0-2.19,12791,List1B,white,man,,,,null,,,,
9092,,,survey-text,207,1101239,0.0-15.0-3.19,12791,List1B,white,man,,,,,"{""Q0"":""dave and mike are shouting at each other""}","<img src=""stim_listB/shout6.gif""</stim_listB>",are shouting at each other,
20013,"<img src='img/portrait_matrix_list1.JPG' style='width:900px;height:500px;''></img><p>If you have memorised all the portraits and names and are ready to start, press Continue.</p><p><strong>Please note: Your memory of these faces will be tested 4 times during this experiment.</strong></p>",0,html-button-response,208,1121255,0.0-16.0-0.0,12791,List1B,white,man,,,,,,,,
8364,"<img src=""portrait/WW1.jpg""style=""width:400px;height:400px;""></img>",1,html-button-response,209,1130624,0.0-16.0-1.0,12791,List1B,white,man,,TRUE,1,,,,,
null,CORRECT,,html-keyboard-response,210,1132127,0.0-16.0-2.0-0.0,12791,List1B,white,man,,,,null,,,,
1966,"<img src=""portrait/BM2.jpg""style=""width:400px;height:400px;""></img>",5,html-button-response,211,1134096,0.0-16.0-4.0,12791,List1B,white,man,,TRUE,5,,,,,
null,CORRECT,,html-keyboard-response,212,1135599,0.0-16.0-5.0-0.0,12791,List1B,white,man,,,,null,,,,
2485,"<img src=""portrait/BW2.jpg""style=""width:400px;height:400px;""></img>",2,html-button-response,213,1138088,0.0-16.0-7.0,12791,List1B,white,man,,TRUE,2,,,,,
null,CORRECT,,html-keyboard-response,214,1139590,0.0-16.0-8.0-0.0,12791,List1B,white,man,,,,null,,,,
2526,"<img src=""portrait/BM1.jpg""style=""width:400px;height:400px;""></img>",4,html-button-response,215,1142120,0.0-16.0-10.0,12791,List1B,white,man,,TRUE,4,,,,,
null,CORRECT,,html-keyboard-response,216,1143622,0.0-16.0-11.0-0.0,12791,List1B,white,man,,,,null,,,,
2150,"<img src=""portrait/WM1.jpg""style=""width:400px;height:400px;""></img>",6,html-button-response,217,1145776,0.0-16.0-13.0,12791,List1B,white,man,,TRUE,6,,,,,
null,CORRECT,,html-keyboard-response,218,1147279,0.0-16.0-14.0-0.0,12791,List1B,white,man,,,,null,,,,
1637,"<img src=""portrait/WM2.jpg""style=""width:400px;height:400px;""></img>",7,html-button-response,219,1148920,0.0-16.0-16.0,12791,List1B,white,man,,TRUE,7,,,,,
null,CORRECT,,html-keyboard-response,220,1150423,0.0-16.0-17.0-0.0,12791,List1B,white,man,,,,null,,,,
12758,"<img src=""portrait/WW2.jpg""style=""width:400px;height:400px;""></img>",3,html-button-response,221,1163184,0.0-16.0-19.0,12791,List1B,white,man,,TRUE,3,,,,,
null,CORRECT,,html-keyboard-response,222,1164686,0.0-16.0-20.0-0.0,12791,List1B,white,man,,,,null,,,,
3918,"<img src=""portrait/BW1.jpg""style=""width:400px;height:400px;""></img>",0,html-button-response,223,1168607,0.0-16.0-22.0,12791,List1B,white,man,,TRUE,0,,,,,
null,CORRECT,,html-keyboard-response,224,1170108,0.0-16.0-23.0-0.0,12791,List1B,white,man,,,,null,,,,
1334,<p>You got 8 out of 8 right first time. Press Continue.</p>,0,html-button-response,225,1171447,0.0-16.0-25.0,12791,List1B,white,man,,,,,,,,
null,"<div style=""font-size:60px;"">+</div>",,html-keyboard-response,226,1172950,0.0-17.0-0.0,12791,List1B,white,man,,,,null,,,,
null,"<img src=""stim_listB/argue6.gif""</stim_listB>",,html-keyboard-response,227,1174952,0.0-17.0-1.0,12791,List1B,white,man,,,,null,,,,
null,are arguing with each other,,html-keyboard-response,228,1176954,0.0-17.0-2.0,12791,List1B,white,man,,,,null,,,,
12011,,,survey-text,229,1188967,0.0-17.0-3.0,12791,List1B,white,man,,,,,"{""Q0"":""fred and dave are arguing with each other""}","<img src=""stim_listB/argue6.gif""</stim_listB>",are arguing with each other,
null,"<div style=""font-size:60px;"">+</div>",,html-keyboard-response,230,1189468,0.0-17.0-0.1,12791,List1B,white,man,,,,null,,,,
null,"<img src=""stim_listB/touch1.gif""</stim_listB>",,html-keyboard-response,231,1191472,0.0-17.0-1.1,12791,List1B,white,man,,,,null,,,,
null,is touching,,html-keyboard-response,232,1193473,0.0-17.0-2.1,12791,List1B,white,man,,,,null,,,,
9973,,,survey-text,233,1203447,0.0-17.0-3.1,12791,List1B,white,man,,,,,"{""Q0"":""mike is touching kate""}","<img src=""stim_listB/touch1.gif""</stim_listB>",is touching,
null,"<div style=""font-size:60px;"">+</div>",,html-keyboard-response,234,1203949,0.0-17.0-0.2,12791,List1B,white,man,,,,null,,,,
null,"<img src=""stim_listB/shout5.gif""</stim_listB>",,html-keyboard-response,235,1205951,0.0-17.0-1.2,12791,List1B,white,man,,,,null,,,,
null,is shouting at,,html-keyboard-response,236,1207953,0.0-17.0-2.2,12791,List1B,white,man,,,,null,,,,
5789,,,survey-text,237,1213743,0.0-17.0-3.2,12791,List1B,white,man,,,,,"{""Q0"":""luke is shouting at fred""}","<img src=""stim_listB/shout5.gif""</stim_listB>",is shouting at,
null,"<div style=""font-size:60px;"">+</div>",,html-keyboard-response,238,1214246,0.0-17.0-0.3,12791,List1B,white,man,,,,null,,,,
null,"<img src=""stim_listB/marry2.gif""</stim_listB>",,html-keyboard-response,239,1216249,0.0-17.0-1.3,12791,List1B,white,man,,,,null,,,,
null,are marrying each other,,html-keyboard-response,240,1218251,0.0-17.0-2.3,12791,List1B,white,man,,,,null,,,,
11266,,,survey-text,241,1229518,0.0-17.0-3.3,12791,List1B,white,man,,,,,"{""Q0"":""fred and kate are marrying each other""}","<img src=""stim_listB/marry2.gif""</stim_listB>",are marrying each other,
null,"<div style=""font-size:60px;"">+</div>",,html-keyboard-response,242,1230020,0.0-17.0-0.4,12791,List1B,white,man,,,,null,,,,
null,"<img src=""stim_listB/shout8.gif""</stim_listB>",,html-keyboard-response,243,1232030,0.0-17.0-1.4,12791,List1B,white,man,,,,null,,,,
null,are shouting at each other,,html-keyboard-response,244,1234031,0.0-17.0-2.4,12791,List1B,white,man,,,,null,,,,
10654,,,survey-text,245,1244687,0.0-17.0-3.4,12791,List1B,white,man,,,,,"{""Q0"":""kate and jane are shouting at each other""}","<img src=""stim_listB/shout8.gif""</stim_listB>",are shouting at each other,
null,"<div style=""font-size:60px;"">+</div>",,html-keyboard-response,246,1245189,0.0-17.0-0.5,12791,List1B,white,man,,,,null,,,,
null,"<img src=""stim_listB/kiss7.gif""</stim_listB>",,html-keyboard-response,247,1247192,0.0-17.0-1.5,12791,List1B,white,man,,,,null,,,,
null,is kissing,,html-keyboard-response,248,1249194,0.0-17.0-2.5,12791,List1B,white,man,,,,null,,,,
24628,,,survey-text,249,1273824,0.0-17.0-3.5,12791,List1B,white,man,,,,,"{""Q0"":""ruth and beth are kissing each other""}","<img src=""stim_listB/kiss7.gif""</stim_listB>",is kissing,
null,"<div style=""font-size:60px;"">+</div>",,html-keyboard-response,250,1274325,0.0-17.0-0.6,12791,List1B,white,man,,,,null,,,,
null,"<img src=""stim_listB/argue3.gif""</stim_listB>",,html-keyboard-response,251,1276328,0.0-17.0-1.6,12791,List1B,white,man,,,,null,,,,
null,is arguing with,,html-keyboard-response,252,1278329,0.0-17.0-2.6,12791,List1B,white,man,,,,null,,,,
6373,,,survey-text,253,1284704,0.0-17.0-3.6,12791,List1B,white,man,,,,,"{""Q0"":""dave is arguing with ruth""}","<img src=""stim_listB/argue3.gif""</stim_listB>",is arguing with,
null,"<div style=""font-size:60px;"">+</div>",,html-keyboard-response,254,1285206,0.0-17.0-0.7,12791,List1B,white,man,,,,null,,,,
null,"<img src=""stim_listB/meet2.gif""</stim_listB>",,html-keyboard-response,255,1287208,0.0-17.0-1.7,12791,List1B,white,man,,,,null,,,,
null,are meeting each other,,html-keyboard-response,256,1289210,0.0-17.0-2.7,12791,List1B,white,man,,,,null,,,,
11483,,,survey-text,257,1300695,0.0-17.0-3.7,12791,List1B,white,man,,,,,"{""Q0"":""fred and beth are meeting each other""}","<img src=""stim_listB/meet2.gif""</stim_listB>",are meeting each other,
null,"<div style=""font-size:60px;"">+</div>",,html-keyboard-response,258,1301196,0.0-17.0-0.8,12791,List1B,white,man,,,,null,,,,
null,"<img src=""stim_listB/shout7.gif""</stim_listB>",,html-keyboard-response,259,1303199,0.0-17.0-1.8,12791,List1B,white,man,,,,null,,,,
null,is shouting at,,html-keyboard-response,260,1305201,0.0-17.0-2.8,12791,List1B,white,man,,,,null,,,,
6805,,,survey-text,261,1312007,0.0-17.0-3.8,12791,List1B,white,man,,,,,"{""Q0"":""ruth is shouting at beth""}","<img src=""stim_listB/shout7.gif""</stim_listB>",is shouting at,
null,"<div style=""font-size:60px;"">+</div>",,html-keyboard-response,262,1312509,0.0-17.0-0.9,12791,List1B,white,man,,,,null,,,,
null,"<img src=""stim_listB/kiss5.gif""</stim_listB>",,html-keyboard-response,263,1314511,0.0-17.0-1.9,12791,List1B,white,man,,,,null,,,,
null,is kissing,,html-keyboard-response,264,1316513,0.0-17.0-2.9,12791,List1B,white,man,,,,null,,,,
5172,,,survey-text,265,1321687,0.0-17.0-3.9,12791,List1B,white,man,,,,,"{""Q0"":""fred is kissing luke""}","<img src=""stim_listB/kiss5.gif""</stim_listB>",is kissing,
null,"<div style=""font-size:60px;"">+</div>",,html-keyboard-response,266,1322189,0.0-17.0-0.10,12791,List1B,white,man,,,,null,,,,
null,"<img src=""stim_listB/hug5.gif""</stim_listB>",,html-keyboard-response,267,1324192,0.0-17.0-1.10,12791,List1B,white,man,,,,null,,,,
null,is hugging,,html-keyboard-response,268,1326194,0.0-17.0-2.10,12791,List1B,white,man,,,,null,,,,
5387,,,survey-text,269,1331584,0.0-17.0-3.10,12791,List1B,white,man,,,,,"{""Q0"":""fred is hugging luke""}","<img src=""stim_listB/hug5.gif""</stim_listB>",is hugging,
null,"<div style=""font-size:60px;"">+</div>",,html-keyboard-response,270,1332085,0.0-17.0-0.11,12791,List1B,white,man,,,,null,,,,
null,"<img src=""stim_listB/shout2.gif""</stim_listB>",,html-keyboard-response,271,1334088,0.0-17.0-1.11,12791,List1B,white,man,,,,null,,,,
null,are shouting at each other,,html-keyboard-response,272,1336089,0.0-17.0-2.11,12791,List1B,white,man,,,,null,,,,
12060,,,survey-text,273,1348151,0.0-17.0-3.11,12791,List1B,white,man,,,,,"{""Q0"":""mike and kate are shouting at each other""}","<img src=""stim_listB/shout2.gif""</stim_listB>",are shouting at each other,
null,"<div style=""font-size:60px;"">+</div>",,html-keyboard-response,274,1348653,0.0-17.0-0.12,12791,List1B,white,man,,,,null,,,,
null,"<img src=""stim_listB/dance2.gif""</stim_listB>",,html-keyboard-response,275,1350655,0.0-17.0-1.12,12791,List1B,white,man,,,,null,,,,
null,are dancing with each other,,html-keyboard-response,276,1352657,0.0-17.0-2.12,12791,List1B,white,man,,,,null,,,,
12732,,,survey-text,277,1365391,0.0-17.0-3.12,12791,List1B,white,man,,,,,"{""Q0"":""mike and beth are dancing with each other""}","<img src=""stim_listB/dance2.gif""</stim_listB>",are dancing with each other,
null,"<div style=""font-size:60px;"">+</div>",,html-keyboard-response,278,1365893,0.0-17.0-0.13,12791,List1B,white,man,,,,null,,,,
null,"<img src=""stim_listB/hug6.gif""</stim_listB>",,html-keyboard-response,279,1367895,0.0-17.0-1.13,12791,List1B,white,man,,,,null,,,,
null,are hugging each other,,html-keyboard-response,280,1369896,0.0-17.0-2.13,12791,List1B,white,man,,,,null,,,,
7806,,,survey-text,281,1377704,0.0-17.0-3.13,12791,List1B,white,man,,,,,"{""Q0"":""mike and dave are hugging each other""}","<img src=""stim_listB/hug6.gif""</stim_listB>",are hugging each other,
null,"<div style=""font-size:60px;"">+</div>",,html-keyboard-response,282,1378206,0.0-17.0-0.14,12791,List1B,white,man,,,,null,,,,
null,"<img src=""stim_listB/argue1.gif""</stim_listB>",,html-keyboard-response,283,1380208,0.0-17.0-1.14,12791,List1B,white,man,,,,null,,,,
null,is arguing with,,html-keyboard-response,284,1382209,0.0-17.0-2.14,12791,List1B,white,man,,,,null,,,,
16158,,,survey-text,285,1398368,0.0-17.0-3.14,12791,List1B,white,man,,,,,"{""Q0"":""beth is arguing with mike""}","<img src=""stim_listB/argue1.gif""</stim_listB>",is arguing with,
null,"<div style=""font-size:60px;"">+</div>",,html-keyboard-response,286,1398869,0.0-17.0-0.15,12791,List1B,white,man,,,,null,,,,
null,"<img src=""stim_listB/talk2.gif""</stim_listB>",,html-keyboard-response,287,1400872,0.0-17.0-1.15,12791,List1B,white,man,,,,null,,,,
null,are talking to each other,,html-keyboard-response,288,1402874,0.0-17.0-2.15,12791,List1B,white,man,,,,null,,,,
9901,,,survey-text,289,1412776,0.0-17.0-3.15,12791,List1B,white,man,,,,,"{""Q0"":""beth and mike are talking to each other""}","<img src=""stim_listB/talk2.gif""</stim_listB>",are talking to each other,
null,"<div style=""font-size:60px;"">+</div>",,html-keyboard-response,290,1413277,0.0-17.0-0.16,12791,List1B,white,man,,,,null,,,,
null,"<img src=""stim_listB/argue7.gif""</stim_listB>",,html-keyboard-response,291,1415279,0.0-17.0-1.16,12791,List1B,white,man,,,,null,,,,
null,is arguing with,,html-keyboard-response,292,1417281,0.0-17.0-2.16,12791,List1B,white,man,,,,null,,,,
11389,,,survey-text,293,1428672,0.0-17.0-3.16,12791,List1B,white,man,,,,,"{""Q0"":""ruth is arguing with kate""}","<img src=""stim_listB/argue7.gif""</stim_listB>",is arguing with,
null,"<div style=""font-size:60px;"">+</div>",,html-keyboard-response,294,1429174,0.0-17.0-0.17,12791,List1B,white,man,,,,null,,,,
null,"<img src=""stim_listB/fight4.gif""</stim_listB>",,html-keyboard-response,295,1431176,0.0-17.0-1.17,12791,List1B,white,man,,,,null,,,,
null,are fighting each other,,html-keyboard-response,296,1433178,0.0-17.0-2.17,12791,List1B,white,man,,,,null,,,,
9131,,,survey-text,297,1442312,0.0-17.0-3.17,12791,List1B,white,man,,,,,"{""Q0"":""ruth and luke are fighting each other""}","<img src=""stim_listB/fight4.gif""</stim_listB>",are fighting each other,
null,"<div style=""font-size:60px;"">+</div>",,html-keyboard-response,298,1442814,0.0-17.0-0.18,12791,List1B,white,man,,,,null,,,,
null,"<img src=""stim_listB/argue4.gif""</stim_listB>",,html-keyboard-response,299,1444816,0.0-17.0-1.18,12791,List1B,white,man,,,,null,,,,
null,are arguing with each other,,html-keyboard-response,300,1446818,0.0-17.0-2.18,12791,List1B,white,man,,,,null,,,,
9851,,,survey-text,301,1456671,0.0-17.0-3.18,12791,List1B,white,man,,,,,"{""Q0"":""luke and jane are arguing with each other""}","<img src=""stim_listB/argue4.gif""</stim_listB>",are arguing with each other,
null,"<div style=""font-size:60px;"">+</div>",,html-keyboard-response,302,1457174,0.0-17.0-0.19,12791,List1B,white,man,,,,null,,,,
null,"<img src=""stim_listB/kiss1.gif""</stim_listB>",,html-keyboard-response,303,1459177,0.0-17.0-1.19,12791,List1B,white,man,,,,null,,,,
null,is kissing,,html-keyboard-response,304,1461178,0.0-17.0-2.19,12791,List1B,white,man,,,,null,,,,
16627,,,survey-text,305,1477806,0.0-17.0-3.19,12791,List1B,white,man,,,,,"{""Q0"":""fred is kissing  beth""}","<img src=""stim_listB/kiss1.gif""</stim_listB>",is kissing,
12415,"<img src='img/portrait_matrix_list1.JPG' style='width:900px;height:500px;''></img><p>If you have memorised all the portraits and names and are ready to start, press Continue.</p><p><strong>Please note: Your memory of these faces will be tested 4 times during this experiment.</strong></p>",0,html-button-response,306,1490223,0.0-18.0-0.0,12791,List1B,white,man,,,,,,,,
1765,"<img src=""portrait/BW2.jpg""style=""width:400px;height:400px;""></img>",2,html-button-response,307,1492991,0.0-18.0-1.0,12791,List1B,white,man,,TRUE,2,,,,,
null,CORRECT,,html-keyboard-response,308,1494494,0.0-18.0-2.0-0.0,12791,List1B,white,man,,,,null,,,,
1575,"<img src=""portrait/BM1.jpg""style=""width:400px;height:400px;""></img>",4,html-button-response,309,1496072,0.0-18.0-4.0,12791,List1B,white,man,,TRUE,4,,,,,
null,CORRECT,,html-keyboard-response,310,1497578,0.0-18.0-5.0-0.0,12791,List1B,white,man,,,,null,,,,
2245,"<img src=""portrait/BM2.jpg""style=""width:400px;height:400px;""></img>",5,html-button-response,311,1499825,0.0-18.0-7.0,12791,List1B,white,man,,TRUE,5,,,,,
null,CORRECT,,html-keyboard-response,312,1501328,0.0-18.0-8.0-0.0,12791,List1B,white,man,,,,null,,,,
1822,"<img src=""portrait/WM2.jpg""style=""width:400px;height:400px;""></img>",7,html-button-response,313,1503153,0.0-18.0-10.0,12791,List1B,white,man,,TRUE,7,,,,,
null,CORRECT,,html-keyboard-response,314,1504655,0.0-18.0-11.0-0.0,12791,List1B,white,man,,,,null,,,,
2008,"<img src=""portrait/BW1.jpg""style=""width:400px;height:400px;""></img>",0,html-button-response,315,1506664,0.0-18.0-13.0,12791,List1B,white,man,,TRUE,0,,,,,
null,CORRECT,,html-keyboard-response,316,1508166,0.0-18.0-14.0-0.0,12791,List1B,white,man,,,,null,,,,
2561,"<img src=""portrait/WM1.jpg""style=""width:400px;height:400px;""></img>",6,html-button-response,317,1510730,0.0-18.0-16.0,12791,List1B,white,man,,TRUE,6,,,,,
null,CORRECT,,html-keyboard-response,318,1512233,0.0-18.0-17.0-0.0,12791,List1B,white,man,,,,null,,,,
1253,"<img src=""portrait/WW2.jpg""style=""width:400px;height:400px;""></img>",3,html-button-response,319,1513488,0.0-18.0-19.0,12791,List1B,white,man,,TRUE,3,,,,,
null,CORRECT,,html-keyboard-response,320,1514991,0.0-18.0-20.0-0.0,12791,List1B,white,man,,,,null,,,,
1677,"<img src=""portrait/WW1.jpg""style=""width:400px;height:400px;""></img>",1,html-button-response,321,1516671,0.0-18.0-22.0,12791,List1B,white,man,,TRUE,1,,,,,
null,CORRECT,,html-keyboard-response,322,1518173,0.0-18.0-23.0-0.0,12791,List1B,white,man,,,,null,,,,
1144,<p>You got 8 out of 8 right first time. Press Continue.</p>,0,html-button-response,323,1519320,0.0-18.0-25.0,12791,List1B,white,man,,,,,,,,
null,"<div style=""font-size:60px;"">+</div>",,html-keyboard-response,324,1520823,0.0-19.0-0.0,12791,List1B,white,man,,,,null,,,,
null,"<img src=""stim_listB/kiss3.gif""</stim_listB>",,html-keyboard-response,325,1522826,0.0-19.0-1.0,12791,List1B,white,man,,,,null,,,,
null,is kissing,,html-keyboard-response,326,1524828,0.0-19.0-2.0,12791,List1B,white,man,,,,null,,,,
8010,,,survey-text,327,1532840,0.0-19.0-3.0,12791,List1B,white,man,,,,,"{""Q0"":""ruth is kissing luke""}","<img src=""stim_listB/kiss3.gif""</stim_listB>",is kissing,
null,"<div style=""font-size:60px;"">+</div>",,html-keyboard-response,328,1533342,0.0-19.0-0.1,12791,List1B,white,man,,,,null,,,,
null,"<img src=""stim_listB/talk3.gif""</stim_listB>",,html-keyboard-response,329,1535345,0.0-19.0-1.1,12791,List1B,white,man,,,,null,,,,
null,is talking to,,html-keyboard-response,330,1537347,0.0-19.0-2.1,12791,List1B,white,man,,,,null,,,,
6539,,,survey-text,331,1543888,0.0-19.0-3.1,12791,List1B,white,man,,,,,"{""Q0"":""luke is talking to jane""}","<img src=""stim_listB/talk3.gif""</stim_listB>",is talking to,
null,"<div style=""font-size:60px;"">+</div>",,html-keyboard-response,332,1544391,0.0-19.0-0.2,12791,List1B,white,man,,,,null,,,,
null,"<img src=""stim_listB/dance6.gif""</stim_listB>",,html-keyboard-response,333,1546393,0.0-19.0-1.2,12791,List1B,white,man,,,,null,,,,
null,are dancing with each other,,html-keyboard-response,334,1548394,0.0-19.0-2.2,12791,List1B,white,man,,,,null,,,,
8516,,,survey-text,335,1556912,0.0-19.0-3.2,12791,List1B,white,man,,,,,"{""Q0"":""luke and mike are dancing with each other""}","<img src=""stim_listB/dance6.gif""</stim_listB>",are dancing with each other,
null,"<div style=""font-size:60px;"">+</div>",,html-keyboard-response,336,1557413,0.0-19.0-0.3,12791,List1B,white,man,,,,null,,,,
null,"<img src=""stim_listB/marry5.gif""</stim_listB>",,html-keyboard-response,337,1559415,0.0-19.0-1.3,12791,List1B,white,man,,,,null,,,,
null,is marrying,,html-keyboard-response,338,1561417,0.0-19.0-2.3,12791,List1B,white,man,,,,null,,,,
6570,,,survey-text,339,1567991,0.0-19.0-3.3,12791,List1B,white,man,,,,,"{""Q0"":""luke is marrying mike""}","<img src=""stim_listB/marry5.gif""</stim_listB>",is marrying,
null,"<div style=""font-size:60px;"">+</div>",,html-keyboard-response,340,1568494,0.0-19.0-0.4,12791,List1B,white,man,,,,null,,,,
null,"<img src=""stim_listB/kiss6.gif""</stim_listB>",,html-keyboard-response,341,1570496,0.0-19.0-1.4,12791,List1B,white,man,,,,null,,,,
null,are kissing each other,,html-keyboard-response,342,1572498,0.0-19.0-2.4,12791,List1B,white,man,,,,null,,,,
8428,,,survey-text,343,1580927,0.0-19.0-3.4,12791,List1B,white,man,,,,,"{""Q0"":""mike and dave are kissing each other""}","<img src=""stim_listB/kiss6.gif""</stim_listB>",are kissing each other,
null,"<div style=""font-size:60px;"">+</div>",,html-keyboard-response,344,1581430,0.0-19.0-0.5,12791,List1B,white,man,,,,null,,,,
null,"<img src=""stim_listB/argue5.gif""</stim_listB>",,html-keyboard-response,345,1583432,0.0-19.0-1.5,12791,List1B,white,man,,,,null,,,,
null,is arguing with,,html-keyboard-response,346,1585434,0.0-19.0-2.5,12791,List1B,white,man,,,,null,,,,
5995,,,survey-text,347,1591431,0.0-19.0-3.5,12791,List1B,white,man,,,,,"{""Q0"":""mike is arguing with luke""}","<img src=""stim_listB/argue5.gif""</stim_listB>",is arguing with,
null,"<div style=""font-size:60px;"">+</div>",,html-keyboard-response,348,1591933,0.0-19.0-0.6,12791,List1B,white,man,,,,null,,,,
null,"<img src=""stim_listB/meet7.gif""</stim_listB>",,html-keyboard-response,349,1593935,0.0-19.0-1.6,12791,List1B,white,man,,,,null,,,,
null,is meeting,,html-keyboard-response,350,1595937,0.0-19.0-2.6,12791,List1B,white,man,,,,null,,,,
6373,,,survey-text,351,1602311,0.0-19.0-3.6,12791,List1B,white,man,,,,,"{""Q0"":""kate is meeting jane""}","<img src=""stim_listB/meet7.gif""</stim_listB>",is meeting,
null,"<div style=""font-size:60px;"">+</div>",,html-keyboard-response,352,1602813,0.0-19.0-0.7,12791,List1B,white,man,,,,null,,,,
null,"<img src=""stim_listB/dance5.gif""</stim_listB>",,html-keyboard-response,353,1604815,0.0-19.0-1.7,12791,List1B,white,man,,,,null,,,,
null,is dancing with,,html-keyboard-response,354,1606816,0.0-19.0-2.7,12791,List1B,white,man,,,,null,,,,
6213,,,survey-text,355,1613031,0.0-19.0-3.7,12791,List1B,white,man,,,,,"{""Q0"":""fred is dancing with dave""}","<img src=""stim_listB/dance5.gif""</stim_listB>",is dancing with,
null,"<div style=""font-size:60px;"">+</div>",,html-keyboard-response,356,1613533,0.0-19.0-0.8,12791,List1B,white,man,,,,null,,,,
null,"<img src=""stim_listB/dance3.gif""</stim_listB>",,html-keyboard-response,357,1615535,0.0-19.0-1.8,12791,List1B,white,man,,,,null,,,,
null,is dancing with,,html-keyboard-response,358,1617537,0.0-19.0-2.8,12791,List1B,white,man,,,,null,,,,
7510,,,survey-text,359,1625048,0.0-19.0-3.8,12791,List1B,white,man,,,,,"{""Q0"":""luke is dancing with jane""}","<img src=""stim_listB/dance3.gif""</stim_listB>",is dancing with,
null,"<div style=""font-size:60px;"">+</div>",,html-keyboard-response,360,1625549,0.0-19.0-0.9,12791,List1B,white,man,,,,null,,,,
null,"<img src=""stim_listB/kiss2.gif""</stim_listB>",,html-keyboard-response,361,1627552,0.0-19.0-1.9,12791,List1B,white,man,,,,null,,,,
null,are kissing each other,,html-keyboard-response,362,1629553,0.0-19.0-2.9,12791,List1B,white,man,,,,null,,,,
10821,,,survey-text,363,1640376,0.0-19.0-3.9,12791,List1B,white,man,,,,,"{""Q0"":""mike and kate are kissing each other""}","<img src=""stim_listB/kiss2.gif""</stim_listB>",are kissing each other,
null,"<div style=""font-size:60px;"">+</div>",,html-keyboard-response,364,1640878,0.0-19.0-0.10,12791,List1B,white,man,,,,null,,,,
null,"<img src=""stim_listB/dance1.gif""</stim_listB>",,html-keyboard-response,365,1642881,0.0-19.0-1.10,12791,List1B,white,man,,,,null,,,,
null,is dancing with,,html-keyboard-response,366,1644883,0.0-19.0-2.10,12791,List1B,white,man,,,,null,,,,
8402,,,survey-text,367,1653288,0.0-19.0-3.10,12791,List1B,white,man,,,,,"{""Q0"":""fred is dancing with kate""}","<img src=""stim_listB/dance1.gif""</stim_listB>",is dancing with,
null,"<div style=""font-size:60px;"">+</div>",,html-keyboard-response,368,1653790,0.0-19.0-0.11,12791,List1B,white,man,,,,null,,,,
null,"<img src=""stim_listB/meet4.gif""</stim_listB>",,html-keyboard-response,369,1655793,0.0-19.0-1.11,12791,List1B,white,man,,,,null,,,,
null,are meeting each other,,html-keyboard-response,370,1657795,0.0-19.0-2.11,12791,List1B,white,man,,,,null,,,,
8115,,,survey-text,371,1665911,0.0-19.0-3.11,12791,List1B,white,man,,,,,"{""Q0"":""ruth and luke are meeting each other""}","<img src=""stim_listB/meet4.gif""</stim_listB>",are meeting each other,
null,"<div style=""font-size:60px;"">+</div>",,html-keyboard-response,372,1666413,0.0-19.0-0.12,12791,List1B,white,man,,,,null,,,,
null,"<img src=""stim_listB/kiss4.gif""</stim_listB>",,html-keyboard-response,373,1668416,0.0-19.0-1.12,12791,List1B,white,man,,,,null,,,,
null,are kissing each other,,html-keyboard-response,374,1670417,0.0-19.0-2.12,12791,List1B,white,man,,,,null,,,,
11213,,,survey-text,375,1681631,0.0-19.0-3.12,12791,List1B,white,man,,,,,"{""Q0"":""dave and jane are kissing each other""}","<img src=""stim_listB/kiss4.gif""</stim_listB>",are kissing each other,
null,"<div style=""font-size:60px;"">+</div>",,html-keyboard-response,376,1682134,0.0-19.0-0.13,12791,List1B,white,man,,,,null,,,,
null,"<img src=""stim_listB/touch4.gif""</stim_listB>",,html-keyboard-response,377,1684136,0.0-19.0-1.13,12791,List1B,white,man,,,,null,,,,
null,are touching each other,,html-keyboard-response,378,1686138,0.0-19.0-2.13,12791,List1B,white,man,,,,null,,,,
8827,,,survey-text,379,1694967,0.0-19.0-3.13,12791,List1B,white,man,,,,,"{""Q0"":""ruth and luke are touching each other""}","<img src=""stim_listB/touch4.gif""</stim_listB>",are touching each other,
null,"<div style=""font-size:60px;"">+</div>",,html-keyboard-response,380,1695470,0.0-19.0-0.14,12791,List1B,white,man,,,,null,,,,
null,"<img src=""stim_listB/dance8.gif""</stim_listB>",,html-keyboard-response,381,1697472,0.0-19.0-1.14,12791,List1B,white,man,,,,null,,,,
null,are dancing with each other,,html-keyboard-response,382,1699474,0.0-19.0-2.14,12791,List1B,white,man,,,,null,,,,
17940,,,survey-text,383,1717415,0.0-19.0-3.14,12791,List1B,white,man,,,,,"{""Q0"":""ruth and kate are dancing with each other""}","<img src=""stim_listB/dance8.gif""</stim_listB>",are dancing with each other,
null,"<div style=""font-size:60px;"">+</div>",,html-keyboard-response,384,1717917,0.0-19.0-0.15,12791,List1B,white,man,,,,null,,,,
null,"<img src=""stim_listB/kiss8.gif""</stim_listB>",,html-keyboard-response,385,1719920,0.0-19.0-1.15,12791,List1B,white,man,,,,null,,,,
null,are kissing each other,,html-keyboard-response,386,1721922,0.0-19.0-2.15,12791,List1B,white,man,,,,null,,,,
7395,,,survey-text,387,1729319,0.0-19.0-3.15,12791,List1B,white,man,,,,,"{""Q0"":""kate and jane are kissing each other""}","<img src=""stim_listB/kiss8.gif""</stim_listB>",are kissing each other,
null,"<div style=""font-size:60px;"">+</div>",,html-keyboard-response,388,1729820,0.0-19.0-0.16,12791,List1B,white,man,,,,null,,,,
null,"<img src=""stim_listB/argue8.gif""</stim_listB>",,html-keyboard-response,389,1731823,0.0-19.0-1.16,12791,List1B,white,man,,,,null,,,,
null,are arguing with each other,,html-keyboard-response,390,1733825,0.0-19.0-2.16,12791,List1B,white,man,,,,null,,,,
12630,,,survey-text,391,1746455,0.0-19.0-3.16,12791,List1B,white,man,,,,,"{""Q0"":""beth and jane are arguing with each other""}","<img src=""stim_listB/argue8.gif""</stim_listB>",are arguing with each other,
null,"<div style=""font-size:60px;"">+</div>",,html-keyboard-response,392,1746957,0.0-19.0-0.17,12791,List1B,white,man,,,,null,,,,
null,"<img src=""stim_listB/meet3.gif""</stim_listB>",,html-keyboard-response,393,1748959,0.0-19.0-1.17,12791,List1B,white,man,,,,null,,,,
null,is meeting,,html-keyboard-response,394,1750962,0.0-19.0-2.17,12791,List1B,white,man,,,,null,,,,
5420,,,survey-text,395,1756384,0.0-19.0-3.17,12791,List1B,white,man,,,,,"{""Q0"":""dave is meeting jane""}","<img src=""stim_listB/meet3.gif""</stim_listB>",is meeting,
null,"<div style=""font-size:60px;"">+</div>",,html-keyboard-response,396,1756886,0.0-19.0-0.18,12791,List1B,white,man,,,,null,,,,
null,"<img src=""stim_listB/marry7.gif""</stim_listB>",,html-keyboard-response,397,1758889,0.0-19.0-1.18,12791,List1B,white,man,,,,null,,,,
null,is marrying,,html-keyboard-response,398,1760891,0.0-19.0-2.18,12791,List1B,white,man,,,,null,,,,
13690,,,survey-text,399,1774583,0.0-19.0-3.18,12791,List1B,white,man,,,,,"{""Q0"":""ruth is marrying kate""}","<img src=""stim_listB/marry7.gif""</stim_listB>",is marrying,
null,"<div style=""font-size:60px;"">+</div>",,html-keyboard-response,400,1775086,0.0-19.0-0.19,12791,List1B,white,man,,,,null,,,,
null,"<img src=""stim_listB/meet1.gif""</stim_listB>",,html-keyboard-response,401,1777088,0.0-19.0-1.19,12791,List1B,white,man,,,,null,,,,
null,is meeting,,html-keyboard-response,402,1779090,0.0-19.0-2.19,12791,List1B,white,man,,,,null,,,,
7667,,,survey-text,403,1786759,0.0-19.0-3.19,12791,List1B,white,man,,,,,"{""Q0"":""mike is meeting kate""}","<img src=""stim_listB/meet1.gif""</stim_listB>",is meeting,
2566,<p>Thank you for completing that task.</p><p>The final part of this session is a short questionnaire.</p><p>Press Continue.</p>,0,html-button-response,404,1789327,0.0-20.0,12791,List1B,white,man,,,,,,,,
30430,,,survey-text,405,1820760,0.0-21.0,12791,List1B,white,man,,,,,"{""Q0"":""35"",""Q1"":""English"",""Q2"":""English"",""Q3"":""UK"",""Q4"":""White British"",""Q5"":""Male""}",,,demographics
47865,,,survey-likert,406,1868638,0.0-22.0,12791,List1B,white,man,,,,,"{""Q0"":3,""Q1"":3,""Q2"":3,""Q3"":3,""Q4"":3,""Q5"":3,""Q6"":3,""Q7"":1,""Q8"":3,""Q9"":1,""Q10"":3,""Q11"":3,""Q12"":3,""Q13"":3}",,,likert_race
46108,,,survey-likert,407,1914762,0.0-23.0,12791,List1B,white,man,,,,,"{""Q0"":3,""Q1"":3,""Q2"":3,""Q3"":4,""Q4"":3,""Q5"":4,""Q6"":3,""Q7"":1,""Q8"":3,""Q9"":3,""Q10"":3,""Q11"":3,""Q12"":3,""Q13"":3}",,,likert_gender
8409,,,survey-text,408,1923184,0.0-24.0,12791,List1B,white,man,,,,,"{""Q0"":""ccc""}",,,worker_id
16858,,,external-html,409,1940128,0.0-25.0,12791,List1B,white,man,debrief.html,,,,,,,
