rt,stimulus,button_pressed,trial_type,trial_index,time_elapsed,internal_node_id,subject,list,ppt_race,ppt_gender,url,first_guess,correct,key_press,responses,image_type,phrase_type,test_part
1834,Welcome to the experiment. Press Continue to begin.,0,html-button-response,0,1840,0.0-0.0,13343,List2A,white,woman,,,,,,,,
34374,,,external-html,1,37389,0.0-1.0,13343,List2A,white,woman,consent.html,,,,,,,
10790,"<p>On the next page, you will see portraits of 8 people and their names.</p><p>Your first task is to take a few minutes to memorise the names of these people.</p><p>You will have to recall their names during the rest of the experiment, so it is</p><p>essential that you try to memorise these people and their names as best as you can.</p><br><p><strong>You will then be tested on your memory of these names and portraits.</strong></p><br><p>The experiment will start after you have completed this memory test.</p><br><p>Ready?</p>",0,html-button-response,2,48182,0.0-2.0,13343,List2A,white,woman,,,,,,,,
146887,"<img src='img/portrait_matrix_list2.JPG' style='width:900px;height:500px;''></img><p>If you have memorised all the portraits and names and are ready to start, press Continue.</p><p><strong>Please note: Your memory of these faces will be tested 4 times during this experiment.</strong></p>",0,html-button-response,3,196071,0.0-3.0-0.0,13343,List2A,white,woman,,,,,,,,
2575,"<img src=""portrait/WW2.jpg""style=""width:400px;height:400px;""></img>",3,html-button-response,4,199649,0.0-3.0-1.0,13343,List2A,white,woman,,TRUE,3,,,,,
null,CORRECT,,html-keyboard-response,5,201154,0.0-3.0-2.0-0.0,13343,List2A,white,woman,,,,null,,,,
1819,"<img src=""portrait/WM2.jpg""style=""width:400px;height:400px;""></img>",7,html-button-response,6,202976,0.0-3.0-4.0,13343,List2A,white,woman,,TRUE,7,,,,,
null,CORRECT,,html-keyboard-response,7,204481,0.0-3.0-5.0-0.0,13343,List2A,white,woman,,,,null,,,,
2485,"<img src=""portrait/WW1.jpg""style=""width:400px;height:400px;""></img>",1,html-button-response,8,206969,0.0-3.0-7.0,13343,List2A,white,woman,,TRUE,1,,,,,
null,CORRECT,,html-keyboard-response,9,208471,0.0-3.0-8.0-0.0,13343,List2A,white,woman,,,,null,,,,
2030,"<img src=""portrait/BM2.jpg""style=""width:400px;height:400px;""></img>",5,html-button-response,10,210503,0.0-3.0-10.0,13343,List2A,white,woman,,TRUE,5,,,,,
null,CORRECT,,html-keyboard-response,11,212006,0.0-3.0-11.0-0.0,13343,List2A,white,woman,,,,null,,,,
2303,"<img src=""portrait/BW2.jpg""style=""width:400px;height:400px;""></img>",2,html-button-response,12,214311,0.0-3.0-13.0,13343,List2A,white,woman,,TRUE,2,,,,,
null,CORRECT,,html-keyboard-response,13,215813,0.0-3.0-14.0-0.0,13343,List2A,white,woman,,,,null,,,,
2043,"<img src=""portrait/BW1.jpg""style=""width:400px;height:400px;""></img>",0,html-button-response,14,217859,0.0-3.0-16.0,13343,List2A,white,woman,,TRUE,0,,,,,
null,CORRECT,,html-keyboard-response,15,219361,0.0-3.0-17.0-0.0,13343,List2A,white,woman,,,,null,,,,
2623,"<img src=""portrait/BM1.jpg""style=""width:400px;height:400px;""></img>",4,html-button-response,16,221987,0.0-3.0-19.0,13343,List2A,white,woman,,TRUE,4,,,,,
null,CORRECT,,html-keyboard-response,17,223490,0.0-3.0-20.0-0.0,13343,List2A,white,woman,,,,null,,,,
2529,"<img src=""portrait/WM1.jpg""style=""width:400px;height:400px;""></img>",6,html-button-response,18,226021,0.0-3.0-22.0,13343,List2A,white,woman,,TRUE,6,,,,,
null,CORRECT,,html-keyboard-response,19,227524,0.0-3.0-23.0-0.0,13343,List2A,white,woman,,,,null,,,,
1748,<p>You got 8 out of 8 right first time. Press Continue.</p>,0,html-button-response,20,229274,0.0-3.0-25.0,13343,List2A,white,woman,,,,,,,,
33949,"<p>In this experiment, you will view photographs of the people from the memory game interacting.</p><p>By using the <strong>exact</strong> phrase given <i>after</i> the photograph appears and recalling the correct names of the people in the photographs, form a sentence describing the interaction. You do not need to capitalise names.</p><p>Type your answer in the space provided. Please complete every sentence before moving onto the next trial.</p><p>You will only have a few seconds to memorise each given photograph and phrase before you can respond, so try your best to focus.</p><p>An example is given below. Press 'Continue' when you are ready.</p><img src='img/speaking_example_v2.jpg' style='width:800px;height:460px;''></img>",0,html-button-response,21,264228,0.0-4.0,13343,List2A,white,woman,,,,,,,,
3121,"<p>Before the experiment starts, you will watch two example trials. Press 'Continue'.</p>",0,html-button-response,22,268351,0.0-5.0,13343,List2A,white,woman,,,,,,,,
null,<img src='img/speaking_WW.gif'></img>,,html-keyboard-response,23,271353,0.0-6.0,13343,List2A,white,woman,,,,null,,,,
null,<p>is speaking to</p>,,html-keyboard-response,24,273355,0.0-7.0,13343,List2A,white,woman,,,,null,,,,
5497,<p><b>Answer:</b> jane is speaking to ruth</p>,0,html-button-response,25,278853,0.0-8.0,13343,List2A,white,woman,,,,,,,,
null,<img src='img/pointing_BM.gif'></img>,,html-keyboard-response,26,281856,0.0-9.0,13343,List2A,white,woman,,,,null,,,,
null,<p>are pointing at each other</p>,,html-keyboard-response,27,283857,0.0-10.0,13343,List2A,white,woman,,,,null,,,,
3762,<p><b>Answer:</b> fred and mike are pointing at each other</p>,0,html-button-response,28,287620,0.0-11.0,13343,List2A,white,woman,,,,,,,,
11003,"<p>Ready to start the experiment?</p><br><p><strong>Remember to describe the picture using a full sentence,</strong></p><p><strong>that combines the names of the people with the given phrase.</strong></p><p><strong>If you do not do this correctly you will not be paid.</strong></p><p><strong> You do not need to capitalise names or use punctuation.</strong></p><br><p>Press 'Continue' to begin.</p>",0,html-button-response,29,299626,0.0-12.0,13343,List2A,white,woman,,,,,,,,
null,"<div style=""font-size:60px;"">+</div>",,html-keyboard-response,30,301128,0.0-13.0-0.0,13343,List2A,white,woman,,,,null,,,,
null,"<img src=""stim_listA/hug4.gif""</stim_listA>",,html-keyboard-response,31,303131,0.0-13.0-1.0,13343,List2A,white,woman,,,,null,,,,
null,are hugging each other,,html-keyboard-response,32,305133,0.0-13.0-2.0,13343,List2A,white,woman,,,,null,,,,
13601,,,survey-text,33,318737,0.0-13.0-3.0,13343,List2A,white,woman,,,,,"{""Q0"":""Kate and Mike are hugging each other""}","<img src=""stim_listA/hug4.gif""</stim_listA>",are hugging each other,
null,"<div style=""font-size:60px;"">+</div>",,html-keyboard-response,34,319240,0.0-13.0-0.1,13343,List2A,white,woman,,,,null,,,,
null,"<img src=""stim_listA/shout7.gif""</stim_listA>",,html-keyboard-response,35,321241,0.0-13.0-1.1,13343,List2A,white,woman,,,,null,,,,
null,is shouting at,,html-keyboard-response,36,323242,0.0-13.0-2.1,13343,List2A,white,woman,,,,null,,,,
10512,,,survey-text,37,333756,0.0-13.0-3.1,13343,List2A,white,woman,,,,,"{""Q0"":""ruth is shouting at beth""}","<img src=""stim_listA/shout7.gif""</stim_listA>",is shouting at,
null,"<div style=""font-size:60px;"">+</div>",,html-keyboard-response,38,334257,0.0-13.0-0.2,13343,List2A,white,woman,,,,null,,,,
null,"<img src=""stim_listA/shout4.gif""</stim_listA>",,html-keyboard-response,39,336260,0.0-13.0-1.2,13343,List2A,white,woman,,,,null,,,,
null,are shouting at each other,,html-keyboard-response,40,338261,0.0-13.0-2.2,13343,List2A,white,woman,,,,null,,,,
6307,,,survey-text,41,344570,0.0-13.0-3.2,13343,List2A,white,woman,,,,,"{""Q0"":""kate and mike are shouting at each other""}","<img src=""stim_listA/shout4.gif""</stim_listA>",are shouting at each other,
null,"<div style=""font-size:60px;"">+</div>",,html-keyboard-response,42,345072,0.0-13.0-0.3,13343,List2A,white,woman,,,,null,,,,
null,"<img src=""stim_listA/fight7.gif""</stim_listA>",,html-keyboard-response,43,347074,0.0-13.0-1.3,13343,List2A,white,woman,,,,null,,,,
null,is fighting,,html-keyboard-response,44,349076,0.0-13.0-2.3,13343,List2A,white,woman,,,,null,,,,
11697,,,survey-text,45,360775,0.0-13.0-3.3,13343,List2A,white,woman,,,,,"{""Q0"":""jane is fighting kate""}","<img src=""stim_listA/fight7.gif""</stim_listA>",is fighting,
null,"<div style=""font-size:60px;"">+</div>",,html-keyboard-response,46,361276,0.0-13.0-0.4,13343,List2A,white,woman,,,,null,,,,
null,"<img src=""stim_listA/kiss6.gif""</stim_listA>",,html-keyboard-response,47,363279,0.0-13.0-1.4,13343,List2A,white,woman,,,,null,,,,
null,are kissing each other,,html-keyboard-response,48,365280,0.0-13.0-2.4,13343,List2A,white,woman,,,,null,,,,
7676,,,survey-text,49,372958,0.0-13.0-3.4,13343,List2A,white,woman,,,,,"{""Q0"":""mike and dave are kissing each other""}","<img src=""stim_listA/kiss6.gif""</stim_listA>",are kissing each other,
null,"<div style=""font-size:60px;"">+</div>",,html-keyboard-response,50,373460,0.0-13.0-0.5,13343,List2A,white,woman,,,,null,,,,
null,"<img src=""stim_listA/touch7.gif""</stim_listA>",,html-keyboard-response,51,375462,0.0-13.0-1.5,13343,List2A,white,woman,,,,null,,,,
null,is touching,,html-keyboard-response,52,377463,0.0-13.0-2.5,13343,List2A,white,woman,,,,null,,,,
5516,,,survey-text,53,382981,0.0-13.0-3.5,13343,List2A,white,woman,,,,,"{""Q0"":""jane is touching kate""}","<img src=""stim_listA/touch7.gif""</stim_listA>",is touching,
null,"<div style=""font-size:60px;"">+</div>",,html-keyboard-response,54,383482,0.0-13.0-0.6,13343,List2A,white,woman,,,,null,,,,
null,"<img src=""stim_listA/argue1.gif""</stim_listA>",,html-keyboard-response,55,385485,0.0-13.0-1.6,13343,List2A,white,woman,,,,null,,,,
null,is arguing with,,html-keyboard-response,56,387486,0.0-13.0-2.6,13343,List2A,white,woman,,,,null,,,,
8374,,,survey-text,57,395861,0.0-13.0-3.6,13343,List2A,white,woman,,,,,"{""Q0"":""dave is arguing with ruth""}","<img src=""stim_listA/argue1.gif""</stim_listA>",is arguing with,
null,"<div style=""font-size:60px;"">+</div>",,html-keyboard-response,58,396363,0.0-13.0-0.7,13343,List2A,white,woman,,,,null,,,,
null,"<img src=""stim_listA/talk4.gif""</stim_listA>",,html-keyboard-response,59,398365,0.0-13.0-1.7,13343,List2A,white,woman,,,,null,,,,
null,are talking to each other,,html-keyboard-response,60,400366,0.0-13.0-2.7,13343,List2A,white,woman,,,,null,,,,
9805,,,survey-text,61,410172,0.0-13.0-3.7,13343,List2A,white,woman,,,,,"{""Q0"":""beth and mike are talking to each other""}","<img src=""stim_listA/talk4.gif""</stim_listA>",are talking to each other,
null,"<div style=""font-size:60px;"">+</div>",,html-keyboard-response,62,410674,0.0-13.0-0.8,13343,List2A,white,woman,,,,null,,,,
null,"<img src=""stim_listA/dance2.gif""</stim_listA>",,html-keyboard-response,63,412676,0.0-13.0-1.8,13343,List2A,white,woman,,,,null,,,,
null,are dancing with each other,,html-keyboard-response,64,414678,0.0-13.0-2.8,13343,List2A,white,woman,,,,null,,,,
6476,,,survey-text,65,421154,0.0-13.0-3.8,13343,List2A,white,woman,,,,,"{""Q0"":""dave and ruth are dancing with each other""}","<img src=""stim_listA/dance2.gif""</stim_listA>",are dancing with each other,
null,"<div style=""font-size:60px;"">+</div>",,html-keyboard-response,66,421660,0.0-13.0-0.9,13343,List2A,white,woman,,,,null,,,,
null,"<img src=""stim_listA/meet4.gif""</stim_listA>",,html-keyboard-response,67,423663,0.0-13.0-1.9,13343,List2A,white,woman,,,,null,,,,
null,are meeting each other,,html-keyboard-response,68,425664,0.0-13.0-2.9,13343,List2A,white,woman,,,,null,,,,
10969,,,survey-text,69,436635,0.0-13.0-3.9,13343,List2A,white,woman,,,,,"{""Q0"":""beth and fred are meeting each other""}","<img src=""stim_listA/meet4.gif""</stim_listA>",are meeting each other,
null,"<div style=""font-size:60px;"">+</div>",,html-keyboard-response,70,437137,0.0-13.0-0.10,13343,List2A,white,woman,,,,null,,,,
null,"<img src=""stim_listA/fight2.gif""</stim_listA>",,html-keyboard-response,71,439139,0.0-13.0-1.10,13343,List2A,white,woman,,,,null,,,,
null,are fighting each other,,html-keyboard-response,72,441140,0.0-13.0-2.10,13343,List2A,white,woman,,,,null,,,,
7669,,,survey-text,73,448810,0.0-13.0-3.10,13343,List2A,white,woman,,,,,"{""Q0"":""ruth and luke are fighting each other""}","<img src=""stim_listA/fight2.gif""</stim_listA>",are fighting each other,
null,"<div style=""font-size:60px;"">+</div>",,html-keyboard-response,74,449312,0.0-13.0-0.11,13343,List2A,white,woman,,,,null,,,,
null,"<img src=""stim_listA/dance5.gif""</stim_listA>",,html-keyboard-response,75,451314,0.0-13.0-1.11,13343,List2A,white,woman,,,,null,,,,
null,is dancing with,,html-keyboard-response,76,453316,0.0-13.0-2.11,13343,List2A,white,woman,,,,null,,,,
5995,,,survey-text,77,459313,0.0-13.0-3.11,13343,List2A,white,woman,,,,,"{""Q0"":""luke is dancing with mike""}","<img src=""stim_listA/dance5.gif""</stim_listA>",is dancing with,
null,"<div style=""font-size:60px;"">+</div>",,html-keyboard-response,78,459815,0.0-13.0-0.12,13343,List2A,white,woman,,,,null,,,,
null,"<img src=""stim_listA/hug8.gif""</stim_listA>",,html-keyboard-response,79,461817,0.0-13.0-1.12,13343,List2A,white,woman,,,,null,,,,
null,are hugging each other,,html-keyboard-response,80,463818,0.0-13.0-2.12,13343,List2A,white,woman,,,,null,,,,
9542,,,survey-text,81,473362,0.0-13.0-3.12,13343,List2A,white,woman,,,,,"{""Q0"":""jane and kate are hugging each other""}","<img src=""stim_listA/hug8.gif""</stim_listA>",are hugging each other,
null,"<div style=""font-size:60px;"">+</div>",,html-keyboard-response,82,473864,0.0-13.0-0.13,13343,List2A,white,woman,,,,null,,,,
null,"<img src=""stim_listA/hug2.gif""</stim_listA>",,html-keyboard-response,83,475866,0.0-13.0-1.13,13343,List2A,white,woman,,,,null,,,,
null,are hugging each other,,html-keyboard-response,84,477868,0.0-13.0-2.13,13343,List2A,white,woman,,,,null,,,,
9264,,,survey-text,85,487133,0.0-13.0-3.13,13343,List2A,white,woman,,,,,"{""Q0"":""jane and dave are hugging each other""}","<img src=""stim_listA/hug2.gif""</stim_listA>",are hugging each other,
null,"<div style=""font-size:60px;"">+</div>",,html-keyboard-response,86,487635,0.0-13.0-0.14,13343,List2A,white,woman,,,,null,,,,
null,"<img src=""stim_listA/hug6.gif""</stim_listA>",,html-keyboard-response,87,489637,0.0-13.0-1.14,13343,List2A,white,woman,,,,null,,,,
null,are hugging each other,,html-keyboard-response,88,491638,0.0-13.0-2.14,13343,List2A,white,woman,,,,null,,,,
9211,,,survey-text,89,500850,0.0-13.0-3.14,13343,List2A,white,woman,,,,,"{""Q0"":""mike and dave are hugging each other""}","<img src=""stim_listA/hug6.gif""</stim_listA>",are hugging each other,
null,"<div style=""font-size:60px;"">+</div>",,html-keyboard-response,90,501352,0.0-13.0-0.15,13343,List2A,white,woman,,,,null,,,,
null,"<img src=""stim_listA/fight8.gif""</stim_listA>",,html-keyboard-response,91,503354,0.0-13.0-1.15,13343,List2A,white,woman,,,,null,,,,
null,are fighting each other,,html-keyboard-response,92,505355,0.0-13.0-2.15,13343,List2A,white,woman,,,,null,,,,
6921,,,survey-text,93,512278,0.0-13.0-3.15,13343,List2A,white,woman,,,,,"{""Q0"":""beth and ruth are fighting each other""}","<img src=""stim_listA/fight8.gif""</stim_listA>",are fighting each other,
null,"<div style=""font-size:60px;"">+</div>",,html-keyboard-response,94,512779,0.0-13.0-0.16,13343,List2A,white,woman,,,,null,,,,
null,"<img src=""stim_listA/touch6.gif""</stim_listA>",,html-keyboard-response,95,514781,0.0-13.0-1.16,13343,List2A,white,woman,,,,null,,,,
null,are touching each other,,html-keyboard-response,96,516783,0.0-13.0-2.16,13343,List2A,white,woman,,,,null,,,,
9114,,,survey-text,97,525897,0.0-13.0-3.16,13343,List2A,white,woman,,,,,"{""Q0"":""fred and luke are touching each other""}","<img src=""stim_listA/touch6.gif""</stim_listA>",are touching each other,
null,"<div style=""font-size:60px;"">+</div>",,html-keyboard-response,98,526399,0.0-13.0-0.17,13343,List2A,white,woman,,,,null,,,,
null,"<img src=""stim_listA/kiss3.gif""</stim_listA>",,html-keyboard-response,99,528402,0.0-13.0-1.17,13343,List2A,white,woman,,,,null,,,,
null,is kissing,,html-keyboard-response,100,530403,0.0-13.0-2.17,13343,List2A,white,woman,,,,null,,,,
9124,,,survey-text,101,539529,0.0-13.0-3.17,13343,List2A,white,woman,,,,,"{""Q0"":""beth is kissing fred""}","<img src=""stim_listA/kiss3.gif""</stim_listA>",is kissing,
null,"<div style=""font-size:60px;"">+</div>",,html-keyboard-response,102,540031,0.0-13.0-0.18,13343,List2A,white,woman,,,,null,,,,
null,"<img src=""stim_listA/argue3.gif""</stim_listA>",,html-keyboard-response,103,542033,0.0-13.0-1.18,13343,List2A,white,woman,,,,null,,,,
null,is arguing with,,html-keyboard-response,104,544035,0.0-13.0-2.18,13343,List2A,white,woman,,,,null,,,,
5918,,,survey-text,105,549953,0.0-13.0-3.18,13343,List2A,white,woman,,,,,"{""Q0"":""mike is arguing with beth""}","<img src=""stim_listA/argue3.gif""</stim_listA>",is arguing with,
null,"<div style=""font-size:60px;"">+</div>",,html-keyboard-response,106,550455,0.0-13.0-0.19,13343,List2A,white,woman,,,,null,,,,
null,"<img src=""stim_listA/argue4.gif""</stim_listA>",,html-keyboard-response,107,552458,0.0-13.0-1.19,13343,List2A,white,woman,,,,null,,,,
null,are arguing with each other,,html-keyboard-response,108,554459,0.0-13.0-2.19,13343,List2A,white,woman,,,,null,,,,
12741,,,survey-text,109,567201,0.0-13.0-3.19,13343,List2A,white,woman,,,,,"{""Q0"":""kate and fred are arguing with each other""}","<img src=""stim_listA/argue4.gif""</stim_listA>",are arguing with each other,
10918,"<img src='img/portrait_matrix_list2.JPG' style='width:900px;height:500px;''></img><p>If you have memorised all the portraits and names and are ready to start, press Continue.</p><p><strong>Please note: Your memory of these faces will be tested 4 times during this experiment.</strong></p>",0,html-button-response,110,578121,0.0-14.0-0.0,13343,List2A,white,woman,,,,,,,,
1526,"<img src=""portrait/WM2.jpg""style=""width:400px;height:400px;""></img>",7,html-button-response,111,580651,0.0-14.0-1.0,13343,List2A,white,woman,,TRUE,7,,,,,
null,CORRECT,,html-keyboard-response,112,582153,0.0-14.0-2.0-0.0,13343,List2A,white,woman,,,,null,,,,
2096,"<img src=""portrait/BW1.jpg""style=""width:400px;height:400px;""></img>",0,html-button-response,113,584251,0.0-14.0-4.0,13343,List2A,white,woman,,TRUE,0,,,,,
null,CORRECT,,html-keyboard-response,114,585753,0.0-14.0-5.0-0.0,13343,List2A,white,woman,,,,null,,,,
2199,"<img src=""portrait/BM2.jpg""style=""width:400px;height:400px;""></img>",5,html-button-response,115,587955,0.0-14.0-7.0,13343,List2A,white,woman,,TRUE,5,,,,,
null,CORRECT,,html-keyboard-response,116,589457,0.0-14.0-8.0-0.0,13343,List2A,white,woman,,,,null,,,,
2395,"<img src=""portrait/BM1.jpg""style=""width:400px;height:400px;""></img>",4,html-button-response,117,591855,0.0-14.0-10.0,13343,List2A,white,woman,,TRUE,4,,,,,
null,CORRECT,,html-keyboard-response,118,593359,0.0-14.0-11.0-0.0,13343,List2A,white,woman,,,,null,,,,
3530,"<img src=""portrait/WM1.jpg""style=""width:400px;height:400px;""></img>",6,html-button-response,119,596891,0.0-14.0-13.0,13343,List2A,white,woman,,TRUE,6,,,,,
null,CORRECT,,html-keyboard-response,120,598395,0.0-14.0-14.0-0.0,13343,List2A,white,woman,,,,null,,,,
1519,"<img src=""portrait/WW2.jpg""style=""width:400px;height:400px;""></img>",3,html-button-response,121,599916,0.0-14.0-16.0,13343,List2A,white,woman,,TRUE,3,,,,,
null,CORRECT,,html-keyboard-response,122,601419,0.0-14.0-17.0-0.0,13343,List2A,white,woman,,,,null,,,,
2785,"<img src=""portrait/BW2.jpg""style=""width:400px;height:400px;""></img>",2,html-button-response,123,604207,0.0-14.0-19.0,13343,List2A,white,woman,,TRUE,2,,,,,
null,CORRECT,,html-keyboard-response,124,605710,0.0-14.0-20.0-0.0,13343,List2A,white,woman,,,,null,,,,
2243,"<img src=""portrait/WW1.jpg""style=""width:400px;height:400px;""></img>",1,html-button-response,125,607955,0.0-14.0-22.0,13343,List2A,white,woman,,TRUE,1,,,,,
null,CORRECT,,html-keyboard-response,126,609458,0.0-14.0-23.0-0.0,13343,List2A,white,woman,,,,null,,,,
4159,<p>You got 8 out of 8 right first time. Press Continue.</p>,0,html-button-response,127,613620,0.0-14.0-25.0,13343,List2A,white,woman,,,,,,,,
null,"<div style=""font-size:60px;"">+</div>",,html-keyboard-response,128,615122,0.0-15.0-0.0,13343,List2A,white,woman,,,,null,,,,
null,"<img src=""stim_listA/dance4.gif""</stim_listA>",,html-keyboard-response,129,617125,0.0-15.0-1.0,13343,List2A,white,woman,,,,null,,,,
null,are dancing with each other,,html-keyboard-response,130,619127,0.0-15.0-2.0,13343,List2A,white,woman,,,,null,,,,
7471,,,survey-text,131,626599,0.0-15.0-3.0,13343,List2A,white,woman,,,,,"{""Q0"":""beth and mike are dancing with each other""}","<img src=""stim_listA/dance4.gif""</stim_listA>",are dancing with each other,
null,"<div style=""font-size:60px;"">+</div>",,html-keyboard-response,132,627101,0.0-15.0-0.1,13343,List2A,white,woman,,,,null,,,,
null,"<img src=""stim_listA/kiss2.gif""</stim_listA>",,html-keyboard-response,133,629104,0.0-15.0-1.1,13343,List2A,white,woman,,,,null,,,,
null,are kissing each other,,html-keyboard-response,134,631105,0.0-15.0-2.1,13343,List2A,white,woman,,,,null,,,,
7260,,,survey-text,135,638367,0.0-15.0-3.1,13343,List2A,white,woman,,,,,"{""Q0"":""jane and dave are kissing each other""}","<img src=""stim_listA/kiss2.gif""</stim_listA>",are kissing each other,
null,"<div style=""font-size:60px;"">+</div>",,html-keyboard-response,136,638869,0.0-15.0-0.2,13343,List2A,white,woman,,,,null,,,,
null,"<img src=""stim_listA/fight4.gif""</stim_listA>",,html-keyboard-response,137,640871,0.0-15.0-1.2,13343,List2A,white,woman,,,,null,,,,
null,are fighting each other,,html-keyboard-response,138,642872,0.0-15.0-2.2,13343,List2A,white,woman,,,,null,,,,
6572,,,survey-text,139,649446,0.0-15.0-3.2,13343,List2A,white,woman,,,,,"{""Q0"":""beth and fred are fighting each other""}","<img src=""stim_listA/fight4.gif""</stim_listA>",are fighting each other,
null,"<div style=""font-size:60px;"">+</div>",,html-keyboard-response,140,649947,0.0-15.0-0.3,13343,List2A,white,woman,,,,null,,,,
null,"<img src=""stim_listA/meet8.gif""</stim_listA>",,html-keyboard-response,141,651950,0.0-15.0-1.3,13343,List2A,white,woman,,,,null,,,,
null,are meeting each other,,html-keyboard-response,142,653951,0.0-15.0-2.3,13343,List2A,white,woman,,,,null,,,,
7993,,,survey-text,143,661945,0.0-15.0-3.3,13343,List2A,white,woman,,,,,"{""Q0"":""beth and ruth are meeting each other""}","<img src=""stim_listA/meet8.gif""</stim_listA>",are meeting each other,
null,"<div style=""font-size:60px;"">+</div>",,html-keyboard-response,144,662447,0.0-15.0-0.4,13343,List2A,white,woman,,,,null,,,,
null,"<img src=""stim_listA/talk1.gif""</stim_listA>",,html-keyboard-response,145,664450,0.0-15.0-1.4,13343,List2A,white,woman,,,,null,,,,
null,is talking to,,html-keyboard-response,146,666451,0.0-15.0-2.4,13343,List2A,white,woman,,,,null,,,,
5732,,,survey-text,147,672185,0.0-15.0-3.4,13343,List2A,white,woman,,,,,"{""Q0"":""luke is talking to jane""}","<img src=""stim_listA/talk1.gif""</stim_listA>",is talking to,
null,"<div style=""font-size:60px;"">+</div>",,html-keyboard-response,148,672689,0.0-15.0-0.5,13343,List2A,white,woman,,,,null,,,,
null,"<img src=""stim_listA/fight1.gif""</stim_listA>",,html-keyboard-response,149,674691,0.0-15.0-1.5,13343,List2A,white,woman,,,,null,,,,
null,is fighting,,html-keyboard-response,150,676693,0.0-15.0-2.5,13343,List2A,white,woman,,,,null,,,,
5200,,,survey-text,151,681894,0.0-15.0-3.5,13343,List2A,white,woman,,,,,"{""Q0"":""dave is fighting jane""}","<img src=""stim_listA/fight1.gif""</stim_listA>",is fighting,
null,"<div style=""font-size:60px;"">+</div>",,html-keyboard-response,152,682396,0.0-15.0-0.6,13343,List2A,white,woman,,,,null,,,,
null,"<img src=""stim_listA/fight5.gif""</stim_listA>",,html-keyboard-response,153,684398,0.0-15.0-1.6,13343,List2A,white,woman,,,,null,,,,
null,is fighting,,html-keyboard-response,154,686400,0.0-15.0-2.6,13343,List2A,white,woman,,,,null,,,,
5218,,,survey-text,155,691619,0.0-15.0-3.6,13343,List2A,white,woman,,,,,"{""Q0"":""dave is fighting mike""}","<img src=""stim_listA/fight5.gif""</stim_listA>",is fighting,
null,"<div style=""font-size:60px;"">+</div>",,html-keyboard-response,156,692121,0.0-15.0-0.7,13343,List2A,white,woman,,,,null,,,,
null,"<img src=""stim_listA/touch8.gif""</stim_listA>",,html-keyboard-response,157,694123,0.0-15.0-1.7,13343,List2A,white,woman,,,,null,,,,
null,are touching each other,,html-keyboard-response,158,696124,0.0-15.0-2.7,13343,List2A,white,woman,,,,null,,,,
7458,,,survey-text,159,703583,0.0-15.0-3.7,13343,List2A,white,woman,,,,,"{""Q0"":""beth and ruth are touching each other""}","<img src=""stim_listA/touch8.gif""</stim_listA>",are touching each other,
null,"<div style=""font-size:60px;"">+</div>",,html-keyboard-response,160,704085,0.0-15.0-0.8,13343,List2A,white,woman,,,,null,,,,
null,"<img src=""stim_listA/fight6.gif""</stim_listA>",,html-keyboard-response,161,706087,0.0-15.0-1.8,13343,List2A,white,woman,,,,null,,,,
null,are fighting each other,,html-keyboard-response,162,708088,0.0-15.0-2.8,13343,List2A,white,woman,,,,null,,,,
9382,,,survey-text,163,717472,0.0-15.0-3.8,13343,List2A,white,woman,,,,,"{""Q0"":""fred and luke are fighting each other""}","<img src=""stim_listA/fight6.gif""</stim_listA>",are fighting each other,
null,"<div style=""font-size:60px;"">+</div>",,html-keyboard-response,164,717974,0.0-15.0-0.9,13343,List2A,white,woman,,,,null,,,,
null,"<img src=""stim_listA/dance8.gif""</stim_listA>",,html-keyboard-response,165,719976,0.0-15.0-1.9,13343,List2A,white,woman,,,,null,,,,
null,are dancing with each other,,html-keyboard-response,166,721978,0.0-15.0-2.9,13343,List2A,white,woman,,,,null,,,,
9556,,,survey-text,167,731535,0.0-15.0-3.9,13343,List2A,white,woman,,,,,"{""Q0"":""beth and jane are dancing with each other""}","<img src=""stim_listA/dance8.gif""</stim_listA>",are dancing with each other,
null,"<div style=""font-size:60px;"">+</div>",,html-keyboard-response,168,732037,0.0-15.0-0.10,13343,List2A,white,woman,,,,null,,,,
null,"<img src=""stim_listA/shout3.gif""</stim_listA>",,html-keyboard-response,169,734039,0.0-15.0-1.10,13343,List2A,white,woman,,,,null,,,,
null,is shouting at,,html-keyboard-response,170,736041,0.0-15.0-2.10,13343,List2A,white,woman,,,,null,,,,
6034,,,survey-text,171,742077,0.0-15.0-3.10,13343,List2A,white,woman,,,,,"{""Q0"":""fred is shouting at beth""}","<img src=""stim_listA/shout3.gif""</stim_listA>",is shouting at,
null,"<div style=""font-size:60px;"">+</div>",,html-keyboard-response,172,742579,0.0-15.0-0.11,13343,List2A,white,woman,,,,null,,,,
null,"<img src=""stim_listA/shout1.gif""</stim_listA>",,html-keyboard-response,173,744581,0.0-15.0-1.11,13343,List2A,white,woman,,,,null,,,,
null,is shouting at,,html-keyboard-response,174,746582,0.0-15.0-2.11,13343,List2A,white,woman,,,,null,,,,
7258,,,survey-text,175,753841,0.0-15.0-3.11,13343,List2A,white,woman,,,,,"{""Q0"":""luke is shouting at ruth""}","<img src=""stim_listA/shout1.gif""</stim_listA>",is shouting at,
null,"<div style=""font-size:60px;"">+</div>",,html-keyboard-response,176,754343,0.0-15.0-0.12,13343,List2A,white,woman,,,,null,,,,
null,"<img src=""stim_listA/marry5.gif""</stim_listA>",,html-keyboard-response,177,756346,0.0-15.0-1.12,13343,List2A,white,woman,,,,null,,,,
null,is marrying,,html-keyboard-response,178,758347,0.0-15.0-2.12,13343,List2A,white,woman,,,,null,,,,
4966,,,survey-text,179,763315,0.0-15.0-3.12,13343,List2A,white,woman,,,,,"{""Q0"":""dave is marrying fred""}","<img src=""stim_listA/marry5.gif""</stim_listA>",is marrying,
null,"<div style=""font-size:60px;"">+</div>",,html-keyboard-response,180,763817,0.0-15.0-0.13,13343,List2A,white,woman,,,,null,,,,
null,"<img src=""stim_listA/argue2.gif""</stim_listA>",,html-keyboard-response,181,765819,0.0-15.0-1.13,13343,List2A,white,woman,,,,null,,,,
null,are arguing with each other,,html-keyboard-response,182,767821,0.0-15.0-2.13,13343,List2A,white,woman,,,,null,,,,
7543,,,survey-text,183,775365,0.0-15.0-3.13,13343,List2A,white,woman,,,,,"{""Q0"":""jane and luke are arguing with each other""}","<img src=""stim_listA/argue2.gif""</stim_listA>",are arguing with each other,
null,"<div style=""font-size:60px;"">+</div>",,html-keyboard-response,184,775867,0.0-15.0-0.14,13343,List2A,white,woman,,,,null,,,,
null,"<img src=""stim_listA/shout6.gif""</stim_listA>",,html-keyboard-response,185,777869,0.0-15.0-1.14,13343,List2A,white,woman,,,,null,,,,
null,are shouting at each other,,html-keyboard-response,186,779870,0.0-15.0-2.14,13343,List2A,white,woman,,,,null,,,,
8678,,,survey-text,187,788550,0.0-15.0-3.14,13343,List2A,white,woman,,,,,"{""Q0"":""mike and dave are shouting at each other""}","<img src=""stim_listA/shout6.gif""</stim_listA>",are shouting at each other,
null,"<div style=""font-size:60px;"">+</div>",,html-keyboard-response,188,789052,0.0-15.0-0.15,13343,List2A,white,woman,,,,null,,,,
null,"<img src=""stim_listA/marry6.gif""</stim_listA>",,html-keyboard-response,189,791054,0.0-15.0-1.15,13343,List2A,white,woman,,,,null,,,,
null,are marrying each other,,html-keyboard-response,190,793056,0.0-15.0-2.15,13343,List2A,white,woman,,,,null,,,,
7021,,,survey-text,191,800079,0.0-15.0-3.15,13343,List2A,white,woman,,,,,"{""Q0"":""mike and luke are marrying each other""}","<img src=""stim_listA/marry6.gif""</stim_listA>",are marrying each other,
null,"<div style=""font-size:60px;"">+</div>",,html-keyboard-response,192,800580,0.0-15.0-0.16,13343,List2A,white,woman,,,,null,,,,
null,"<img src=""stim_listA/touch3.gif""</stim_listA>",,html-keyboard-response,193,802583,0.0-15.0-1.16,13343,List2A,white,woman,,,,null,,,,
null,is touching,,html-keyboard-response,194,804584,0.0-15.0-2.16,13343,List2A,white,woman,,,,null,,,,
4573,,,survey-text,195,809159,0.0-15.0-3.16,13343,List2A,white,woman,,,,,"{""Q0"":""mike is touching kate""}","<img src=""stim_listA/touch3.gif""</stim_listA>",is touching,
null,"<div style=""font-size:60px;"">+</div>",,html-keyboard-response,196,809661,0.0-15.0-0.17,13343,List2A,white,woman,,,,null,,,,
null,"<img src=""stim_listA/talk2.gif""</stim_listA>",,html-keyboard-response,197,811664,0.0-15.0-1.17,13343,List2A,white,woman,,,,null,,,,
null,are talking to each other,,html-keyboard-response,198,813665,0.0-15.0-2.17,13343,List2A,white,woman,,,,null,,,,
7413,,,survey-text,199,821080,0.0-15.0-3.17,13343,List2A,white,woman,,,,,"{""Q0"":""beth and dave are talking to each other""}","<img src=""stim_listA/talk2.gif""</stim_listA>",are talking to each other,
null,"<div style=""font-size:60px;"">+</div>",,html-keyboard-response,200,821582,0.0-15.0-0.18,13343,List2A,white,woman,,,,null,,,,
null,"<img src=""stim_listA/argue6.gif""</stim_listA>",,html-keyboard-response,201,823584,0.0-15.0-1.18,13343,List2A,white,woman,,,,null,,,,
null,are arguing with each other,,html-keyboard-response,202,825585,0.0-15.0-2.18,13343,List2A,white,woman,,,,null,,,,
7162,,,survey-text,203,832749,0.0-15.0-3.18,13343,List2A,white,woman,,,,,"{""Q0"":""mike and luke are arguing with each other""}","<img src=""stim_listA/argue6.gif""</stim_listA>",are arguing with each other,
null,"<div style=""font-size:60px;"">+</div>",,html-keyboard-response,204,833251,0.0-15.0-0.19,13343,List2A,white,woman,,,,null,,,,
null,"<img src=""stim_listA/kiss5.gif""</stim_listA>",,html-keyboard-response,205,835254,0.0-15.0-1.19,13343,List2A,white,woman,,,,null,,,,
null,is kissing,,html-keyboard-response,206,837255,0.0-15.0-2.19,13343,List2A,white,woman,,,,null,,,,
5564,,,survey-text,207,842822,0.0-15.0-3.19,13343,List2A,white,woman,,,,,"{""Q0"":""luke is kissing fred""}","<img src=""stim_listA/kiss5.gif""</stim_listA>",is kissing,
4180,"<img src='img/portrait_matrix_list2.JPG' style='width:900px;height:500px;''></img><p>If you have memorised all the portraits and names and are ready to start, press Continue.</p><p><strong>Please note: Your memory of these faces will be tested 4 times during this experiment.</strong></p>",0,html-button-response,208,847005,0.0-16.0-0.0,13343,List2A,white,woman,,,,,,,,
2372,"<img src=""portrait/BW1.jpg""style=""width:400px;height:400px;""></img>",0,html-button-response,209,850379,0.0-16.0-1.0,13343,List2A,white,woman,,TRUE,0,,,,,
null,CORRECT,,html-keyboard-response,210,851881,0.0-16.0-2.0-0.0,13343,List2A,white,woman,,,,null,,,,
1745,"<img src=""portrait/BW2.jpg""style=""width:400px;height:400px;""></img>",2,html-button-response,211,853629,0.0-16.0-4.0,13343,List2A,white,woman,,TRUE,2,,,,,
null,CORRECT,,html-keyboard-response,212,855131,0.0-16.0-5.0-0.0,13343,List2A,white,woman,,,,null,,,,
2251,"<img src=""portrait/WM1.jpg""style=""width:400px;height:400px;""></img>",6,html-button-response,213,857385,0.0-16.0-7.0,13343,List2A,white,woman,,TRUE,6,,,,,
null,CORRECT,,html-keyboard-response,214,858887,0.0-16.0-8.0-0.0,13343,List2A,white,woman,,,,null,,,,
1756,"<img src=""portrait/WW1.jpg""style=""width:400px;height:400px;""></img>",1,html-button-response,215,860647,0.0-16.0-10.0,13343,List2A,white,woman,,TRUE,1,,,,,
null,CORRECT,,html-keyboard-response,216,862150,0.0-16.0-11.0-0.0,13343,List2A,white,woman,,,,null,,,,
1898,"<img src=""portrait/WM2.jpg""style=""width:400px;height:400px;""></img>",7,html-button-response,217,864051,0.0-16.0-13.0,13343,List2A,white,woman,,TRUE,7,,,,,
null,CORRECT,,html-keyboard-response,218,865554,0.0-16.0-14.0-0.0,13343,List2A,white,woman,,,,null,,,,
1692,"<img src=""portrait/BM2.jpg""style=""width:400px;height:400px;""></img>",5,html-button-response,219,867248,0.0-16.0-16.0,13343,List2A,white,woman,,TRUE,5,,,,,
null,CORRECT,,html-keyboard-response,220,868752,0.0-16.0-17.0-0.0,13343,List2A,white,woman,,,,null,,,,
1335,"<img src=""portrait/BM1.jpg""style=""width:400px;height:400px;""></img>",4,html-button-response,221,870090,0.0-16.0-19.0,13343,List2A,white,woman,,TRUE,4,,,,,
null,CORRECT,,html-keyboard-response,222,871593,0.0-16.0-20.0-0.0,13343,List2A,white,woman,,,,null,,,,
1319,"<img src=""portrait/WW2.jpg""style=""width:400px;height:400px;""></img>",3,html-button-response,223,872914,0.0-16.0-22.0,13343,List2A,white,woman,,TRUE,3,,,,,
null,CORRECT,,html-keyboard-response,224,874417,0.0-16.0-23.0-0.0,13343,List2A,white,woman,,,,null,,,,
1307,<p>You got 8 out of 8 right first time. Press Continue.</p>,0,html-button-response,225,875727,0.0-16.0-25.0,13343,List2A,white,woman,,,,,,,,
null,"<div style=""font-size:60px;"">+</div>",,html-keyboard-response,226,877230,0.0-17.0-0.0,13343,List2A,white,woman,,,,null,,,,
null,"<img src=""stim_listA/touch2.gif""</stim_listA>",,html-keyboard-response,227,879232,0.0-17.0-1.0,13343,List2A,white,woman,,,,null,,,,
null,are touching each other,,html-keyboard-response,228,881233,0.0-17.0-2.0,13343,List2A,white,woman,,,,null,,,,
6406,,,survey-text,229,887641,0.0-17.0-3.0,13343,List2A,white,woman,,,,,"{""Q0"":""beth and luke are touching each other""}","<img src=""stim_listA/touch2.gif""</stim_listA>",are touching each other,
null,"<div style=""font-size:60px;"">+</div>",,html-keyboard-response,230,888143,0.0-17.0-0.1,13343,List2A,white,woman,,,,null,,,,
null,"<img src=""stim_listA/touch1.gif""</stim_listA>",,html-keyboard-response,231,890146,0.0-17.0-1.1,13343,List2A,white,woman,,,,null,,,,
null,is touching,,html-keyboard-response,232,892147,0.0-17.0-2.1,13343,List2A,white,woman,,,,null,,,,
4057,,,survey-text,233,896206,0.0-17.0-3.1,13343,List2A,white,woman,,,,,"{""Q0"":""dave is touching jane""}","<img src=""stim_listA/touch1.gif""</stim_listA>",is touching,
null,"<div style=""font-size:60px;"">+</div>",,html-keyboard-response,234,896707,0.0-17.0-0.2,13343,List2A,white,woman,,,,null,,,,
null,"<img src=""stim_listA/talk3.gif""</stim_listA>",,html-keyboard-response,235,898710,0.0-17.0-1.2,13343,List2A,white,woman,,,,null,,,,
null,is talking to,,html-keyboard-response,236,900711,0.0-17.0-2.2,13343,List2A,white,woman,,,,null,,,,
5298,,,survey-text,237,906011,0.0-17.0-3.2,13343,List2A,white,woman,,,,,"{""Q0"":""fred is talking to kate""}","<img src=""stim_listA/talk3.gif""</stim_listA>",is talking to,
null,"<div style=""font-size:60px;"">+</div>",,html-keyboard-response,238,906512,0.0-17.0-0.3,13343,List2A,white,woman,,,,null,,,,
null,"<img src=""stim_listA/shout5.gif""</stim_listA>",,html-keyboard-response,239,908514,0.0-17.0-1.3,13343,List2A,white,woman,,,,null,,,,
null,is shouting at,,html-keyboard-response,240,910516,0.0-17.0-2.3,13343,List2A,white,woman,,,,null,,,,
5857,,,survey-text,241,916375,0.0-17.0-3.3,13343,List2A,white,woman,,,,,"{""Q0"":""luke is shouting at fred""}","<img src=""stim_listA/shout5.gif""</stim_listA>",is shouting at,
null,"<div style=""font-size:60px;"">+</div>",,html-keyboard-response,242,916877,0.0-17.0-0.4,13343,List2A,white,woman,,,,null,,,,
null,"<img src=""stim_listA/kiss4.gif""</stim_listA>",,html-keyboard-response,243,918880,0.0-17.0-1.4,13343,List2A,white,woman,,,,null,,,,
null,are kissing each other,,html-keyboard-response,244,920882,0.0-17.0-2.4,13343,List2A,white,woman,,,,null,,,,
12739,,,survey-text,245,933624,0.0-17.0-3.4,13343,List2A,white,woman,,,,,"{""Q0"":""kate and mike are kissing each other""}","<img src=""stim_listA/kiss4.gif""</stim_listA>",are kissing each other,
null,"<div style=""font-size:60px;"">+</div>",,html-keyboard-response,246,934126,0.0-17.0-0.5,13343,List2A,white,woman,,,,null,,,,
null,"<img src=""stim_listA/meet3.gif""</stim_listA>",,html-keyboard-response,247,936128,0.0-17.0-1.5,13343,List2A,white,woman,,,,null,,,,
null,is meeting,,html-keyboard-response,248,938130,0.0-17.0-2.5,13343,List2A,white,woman,,,,null,,,,
3958,,,survey-text,249,942089,0.0-17.0-3.5,13343,List2A,white,woman,,,,,"{""Q0"":""mike is meeting kate""}","<img src=""stim_listA/meet3.gif""</stim_listA>",is meeting,
null,"<div style=""font-size:60px;"">+</div>",,html-keyboard-response,250,942591,0.0-17.0-0.6,13343,List2A,white,woman,,,,null,,,,
null,"<img src=""stim_listA/talk7.gif""</stim_listA>",,html-keyboard-response,251,944594,0.0-17.0-1.6,13343,List2A,white,woman,,,,null,,,,
null,is talking to,,html-keyboard-response,252,946595,0.0-17.0-2.6,13343,List2A,white,woman,,,,null,,,,
3983,,,survey-text,253,950580,0.0-17.0-3.6,13343,List2A,white,woman,,,,,"{""Q0"":""ruth is talking to kate""}","<img src=""stim_listA/talk7.gif""</stim_listA>",is talking to,
null,"<div style=""font-size:60px;"">+</div>",,html-keyboard-response,254,951082,0.0-17.0-0.7,13343,List2A,white,woman,,,,null,,,,
null,"<img src=""stim_listA/dance3.gif""</stim_listA>",,html-keyboard-response,255,953085,0.0-17.0-1.7,13343,List2A,white,woman,,,,null,,,,
null,is dancing with,,html-keyboard-response,256,955086,0.0-17.0-2.7,13343,List2A,white,woman,,,,null,,,,
7228,,,survey-text,257,962316,0.0-17.0-3.7,13343,List2A,white,woman,,,,,"{""Q0"":""fred is dancing with kate""}","<img src=""stim_listA/dance3.gif""</stim_listA>",is dancing with,
null,"<div style=""font-size:60px;"">+</div>",,html-keyboard-response,258,962818,0.0-17.0-0.8,13343,List2A,white,woman,,,,null,,,,
null,"<img src=""stim_listA/marry1.gif""</stim_listA>",,html-keyboard-response,259,964821,0.0-17.0-1.8,13343,List2A,white,woman,,,,null,,,,
null,is marrying,,html-keyboard-response,260,966822,0.0-17.0-2.8,13343,List2A,white,woman,,,,null,,,,
5720,,,survey-text,261,972544,0.0-17.0-3.8,13343,List2A,white,woman,,,,,"{""Q0"":""dave is marrying ruth""}","<img src=""stim_listA/marry1.gif""</stim_listA>",is marrying,
null,"<div style=""font-size:60px;"">+</div>",,html-keyboard-response,262,973046,0.0-17.0-0.9,13343,List2A,white,woman,,,,null,,,,
null,"<img src=""stim_listA/meet2.gif""</stim_listA>",,html-keyboard-response,263,975048,0.0-17.0-1.9,13343,List2A,white,woman,,,,null,,,,
null,are meeting each other,,html-keyboard-response,264,977050,0.0-17.0-2.9,13343,List2A,white,woman,,,,null,,,,
7367,,,survey-text,265,984418,0.0-17.0-3.9,13343,List2A,white,woman,,,,,"{""Q0"":""ruth and luke are meeting each other""}","<img src=""stim_listA/meet2.gif""</stim_listA>",are meeting each other,
null,"<div style=""font-size:60px;"">+</div>",,html-keyboard-response,266,984920,0.0-17.0-0.10,13343,List2A,white,woman,,,,null,,,,
null,"<img src=""stim_listA/fight3.gif""</stim_listA>",,html-keyboard-response,267,986923,0.0-17.0-1.10,13343,List2A,white,woman,,,,null,,,,
null,is fighting,,html-keyboard-response,268,988924,0.0-17.0-2.10,13343,List2A,white,woman,,,,null,,,,
5526,,,survey-text,269,994452,0.0-17.0-3.10,13343,List2A,white,woman,,,,,"{""Q0"":""mike is fighting kate""}","<img src=""stim_listA/fight3.gif""</stim_listA>",is fighting,
null,"<div style=""font-size:60px;"">+</div>",,html-keyboard-response,270,994954,0.0-17.0-0.11,13343,List2A,white,woman,,,,null,,,,
null,"<img src=""stim_listA/hug7.gif""</stim_listA>",,html-keyboard-response,271,996957,0.0-17.0-1.11,13343,List2A,white,woman,,,,null,,,,
null,is hugging,,html-keyboard-response,272,998958,0.0-17.0-2.11,13343,List2A,white,woman,,,,null,,,,
5274,,,survey-text,273,1004234,0.0-17.0-3.11,13343,List2A,white,woman,,,,,"{""Q0"":""beth is hugging ruth""}","<img src=""stim_listA/hug7.gif""</stim_listA>",is hugging,
null,"<div style=""font-size:60px;"">+</div>",,html-keyboard-response,274,1004736,0.0-17.0-0.12,13343,List2A,white,woman,,,,null,,,,
null,"<img src=""stim_listA/dance1.gif""</stim_listA>",,html-keyboard-response,275,1006738,0.0-17.0-1.12,13343,List2A,white,woman,,,,null,,,,
null,is dancing with,,html-keyboard-response,276,1008739,0.0-17.0-2.12,13343,List2A,white,woman,,,,null,,,,
6513,,,survey-text,277,1015254,0.0-17.0-3.12,13343,List2A,white,woman,,,,,"{""Q0"":""luke is dancing with jane""}","<img src=""stim_listA/dance1.gif""</stim_listA>",is dancing with,
null,"<div style=""font-size:60px;"">+</div>",,html-keyboard-response,278,1015756,0.0-17.0-0.13,13343,List2A,white,woman,,,,null,,,,
null,"<img src=""stim_listA/marry4.gif""</stim_listA>",,html-keyboard-response,279,1017758,0.0-17.0-1.13,13343,List2A,white,woman,,,,null,,,,
null,are marrying each other,,html-keyboard-response,280,1019760,0.0-17.0-2.13,13343,List2A,white,woman,,,,null,,,,
9100,,,survey-text,281,1028862,0.0-17.0-3.13,13343,List2A,white,woman,,,,,"{""Q0"":""kate and fred are marrying each other""}","<img src=""stim_listA/marry4.gif""</stim_listA>",are marrying each other,
null,"<div style=""font-size:60px;"">+</div>",,html-keyboard-response,282,1029364,0.0-17.0-0.14,13343,List2A,white,woman,,,,null,,,,
null,"<img src=""stim_listA/marry7.gif""</stim_listA>",,html-keyboard-response,283,1031367,0.0-17.0-1.14,13343,List2A,white,woman,,,,null,,,,
null,is marrying,,html-keyboard-response,284,1033368,0.0-17.0-2.14,13343,List2A,white,woman,,,,null,,,,
4954,,,survey-text,285,1038323,0.0-17.0-3.14,13343,List2A,white,woman,,,,,"{""Q0"":""jane is marrying beth""}","<img src=""stim_listA/marry7.gif""</stim_listA>",is marrying,
null,"<div style=""font-size:60px;"">+</div>",,html-keyboard-response,286,1038825,0.0-17.0-0.15,13343,List2A,white,woman,,,,null,,,,
null,"<img src=""stim_listA/argue5.gif""</stim_listA>",,html-keyboard-response,287,1040828,0.0-17.0-1.15,13343,List2A,white,woman,,,,null,,,,
null,is arguing with,,html-keyboard-response,288,1042829,0.0-17.0-2.15,13343,List2A,white,woman,,,,null,,,,
6058,,,survey-text,289,1048889,0.0-17.0-3.15,13343,List2A,white,woman,,,,,"{""Q0"":""dave is arguing with fred""}","<img src=""stim_listA/argue5.gif""</stim_listA>",is arguing with,
null,"<div style=""font-size:60px;"">+</div>",,html-keyboard-response,290,1049391,0.0-17.0-0.16,13343,List2A,white,woman,,,,null,,,,
null,"<img src=""stim_listA/meet5.gif""</stim_listA>",,html-keyboard-response,291,1051395,0.0-17.0-1.16,13343,List2A,white,woman,,,,null,,,,
null,is meeting,,html-keyboard-response,292,1053396,0.0-17.0-2.16,13343,List2A,white,woman,,,,null,,,,
5981,,,survey-text,293,1059379,0.0-17.0-3.16,13343,List2A,white,woman,,,,,"{""Q0"":""dave is meeting mike""}","<img src=""stim_listA/meet5.gif""</stim_listA>",is meeting,
null,"<div style=""font-size:60px;"">+</div>",,html-keyboard-response,294,1059881,0.0-17.0-0.17,13343,List2A,white,woman,,,,null,,,,
null,"<img src=""stim_listA/meet6.gif""</stim_listA>",,html-keyboard-response,295,1061883,0.0-17.0-1.17,13343,List2A,white,woman,,,,null,,,,
null,are meeting each other,,html-keyboard-response,296,1063885,0.0-17.0-2.17,13343,List2A,white,woman,,,,null,,,,
6034,,,survey-text,297,1069920,0.0-17.0-3.17,13343,List2A,white,woman,,,,,"{""Q0"":""fred and luke are meeting each other""}","<img src=""stim_listA/meet6.gif""</stim_listA>",are meeting each other,
null,"<div style=""font-size:60px;"">+</div>",,html-keyboard-response,298,1070422,0.0-17.0-0.18,13343,List2A,white,woman,,,,null,,,,
null,"<img src=""stim_listA/argue7.gif""</stim_listA>",,html-keyboard-response,299,1072425,0.0-17.0-1.18,13343,List2A,white,woman,,,,null,,,,
null,is arguing with,,html-keyboard-response,300,1074426,0.0-17.0-2.18,13343,List2A,white,woman,,,,null,,,,
5277,,,survey-text,301,1079704,0.0-17.0-3.18,13343,List2A,white,woman,,,,,"{""Q0"":""jane is arguing with beth""}","<img src=""stim_listA/argue7.gif""</stim_listA>",is arguing with,
null,"<div style=""font-size:60px;"">+</div>",,html-keyboard-response,302,1080206,0.0-17.0-0.19,13343,List2A,white,woman,,,,null,,,,
null,"<img src=""stim_listA/meet1.gif""</stim_listA>",,html-keyboard-response,303,1082209,0.0-17.0-1.19,13343,List2A,white,woman,,,,null,,,,
null,is meeting,,html-keyboard-response,304,1084210,0.0-17.0-2.19,13343,List2A,white,woman,,,,null,,,,
4996,,,survey-text,305,1089208,0.0-17.0-3.19,13343,List2A,white,woman,,,,,"{""Q0"":""dave is meeting jane""}","<img src=""stim_listA/meet1.gif""</stim_listA>",is meeting,
2230,"<img src='img/portrait_matrix_list2.JPG' style='width:900px;height:500px;''></img><p>If you have memorised all the portraits and names and are ready to start, press Continue.</p><p><strong>Please note: Your memory of these faces will be tested 4 times during this experiment.</strong></p>",0,html-button-response,306,1091440,0.0-18.0-0.0,13343,List2A,white,woman,,,,,,,,
1604,"<img src=""portrait/BW2.jpg""style=""width:400px;height:400px;""></img>",2,html-button-response,307,1094048,0.0-18.0-1.0,13343,List2A,white,woman,,TRUE,2,,,,,
null,CORRECT,,html-keyboard-response,308,1095551,0.0-18.0-2.0-0.0,13343,List2A,white,woman,,,,null,,,,
1810,"<img src=""portrait/BM2.jpg""style=""width:400px;height:400px;""></img>",5,html-button-response,309,1097364,0.0-18.0-4.0,13343,List2A,white,woman,,TRUE,5,,,,,
null,CORRECT,,html-keyboard-response,310,1098867,0.0-18.0-5.0-0.0,13343,List2A,white,woman,,,,null,,,,
1571,"<img src=""portrait/WM2.jpg""style=""width:400px;height:400px;""></img>",7,html-button-response,311,1100441,0.0-18.0-7.0,13343,List2A,white,woman,,TRUE,7,,,,,
null,CORRECT,,html-keyboard-response,312,1101943,0.0-18.0-8.0-0.0,13343,List2A,white,woman,,,,null,,,,
1896,"<img src=""portrait/WM1.jpg""style=""width:400px;height:400px;""></img>",6,html-button-response,313,1103842,0.0-18.0-10.0,13343,List2A,white,woman,,TRUE,6,,,,,
null,CORRECT,,html-keyboard-response,314,1105345,0.0-18.0-11.0-0.0,13343,List2A,white,woman,,,,null,,,,
2605,"<img src=""portrait/BW1.jpg""style=""width:400px;height:400px;""></img>",0,html-button-response,315,1107952,0.0-18.0-13.0,13343,List2A,white,woman,,TRUE,0,,,,,
null,CORRECT,,html-keyboard-response,316,1109455,0.0-18.0-14.0-0.0,13343,List2A,white,woman,,,,null,,,,
1316,"<img src=""portrait/WW2.jpg""style=""width:400px;height:400px;""></img>",3,html-button-response,317,1110773,0.0-18.0-16.0,13343,List2A,white,woman,,TRUE,3,,,,,
null,CORRECT,,html-keyboard-response,318,1112277,0.0-18.0-17.0-0.0,13343,List2A,white,woman,,,,null,,,,
1572,"<img src=""portrait/BM1.jpg""style=""width:400px;height:400px;""></img>",4,html-button-response,319,1113851,0.0-18.0-19.0,13343,List2A,white,woman,,TRUE,4,,,,,
null,CORRECT,,html-keyboard-response,320,1115353,0.0-18.0-20.0-0.0,13343,List2A,white,woman,,,,null,,,,
1442,"<img src=""portrait/WW1.jpg""style=""width:400px;height:400px;""></img>",1,html-button-response,321,1116798,0.0-18.0-22.0,13343,List2A,white,woman,,TRUE,1,,,,,
null,CORRECT,,html-keyboard-response,322,1118300,0.0-18.0-23.0-0.0,13343,List2A,white,woman,,,,null,,,,
1513,<p>You got 8 out of 8 right first time. Press Continue.</p>,0,html-button-response,323,1119816,0.0-18.0-25.0,13343,List2A,white,woman,,,,,,,,
null,"<div style=""font-size:60px;"">+</div>",,html-keyboard-response,324,1121319,0.0-19.0-0.0,13343,List2A,white,woman,,,,null,,,,
null,"<img src=""stim_listA/talk8.gif""</stim_listA>",,html-keyboard-response,325,1123321,0.0-19.0-1.0,13343,List2A,white,woman,,,,null,,,,
null,are talking to each other,,html-keyboard-response,326,1125323,0.0-19.0-2.0,13343,List2A,white,woman,,,,null,,,,
5599,,,survey-text,327,1130924,0.0-19.0-3.0,13343,List2A,white,woman,,,,,"{""Q0"":""beth and jane are talking to each other""}","<img src=""stim_listA/talk8.gif""</stim_listA>",are talking to each other,
null,"<div style=""font-size:60px;"">+</div>",,html-keyboard-response,328,1131426,0.0-19.0-0.1,13343,List2A,white,woman,,,,null,,,,
null,"<img src=""stim_listA/dance6.gif""</stim_listA>",,html-keyboard-response,329,1133429,0.0-19.0-1.1,13343,List2A,white,woman,,,,null,,,,
null,are dancing with each other,,html-keyboard-response,330,1135430,0.0-19.0-2.1,13343,List2A,white,woman,,,,null,,,,
9730,,,survey-text,331,1145162,0.0-19.0-3.1,13343,List2A,white,woman,,,,,"{""Q0"":""fred and dave are dancing with each other""}","<img src=""stim_listA/dance6.gif""</stim_listA>",are dancing with each other,
null,"<div style=""font-size:60px;"">+</div>",,html-keyboard-response,332,1145664,0.0-19.0-0.2,13343,List2A,white,woman,,,,null,,,,
null,"<img src=""stim_listA/shout2.gif""</stim_listA>",,html-keyboard-response,333,1147666,0.0-19.0-1.2,13343,List2A,white,woman,,,,null,,,,
null,are shouting at each other,,html-keyboard-response,334,1149668,0.0-19.0-2.2,13343,List2A,white,woman,,,,null,,,,
6721,,,survey-text,335,1156391,0.0-19.0-3.2,13343,List2A,white,woman,,,,,"{""Q0"":""jane and dave are shouting at each other""}","<img src=""stim_listA/shout2.gif""</stim_listA>",are shouting at each other,
null,"<div style=""font-size:60px;"">+</div>",,html-keyboard-response,336,1156893,0.0-19.0-0.3,13343,List2A,white,woman,,,,null,,,,
null,"<img src=""stim_listA/kiss1.gif""</stim_listA>",,html-keyboard-response,337,1158895,0.0-19.0-1.3,13343,List2A,white,woman,,,,null,,,,
null,is kissing,,html-keyboard-response,338,1160897,0.0-19.0-2.3,13343,List2A,white,woman,,,,null,,,,
5876,,,survey-text,339,1166774,0.0-19.0-3.3,13343,List2A,white,woman,,,,,"{""Q0"":""luke is kissing ruth""}","<img src=""stim_listA/kiss1.gif""</stim_listA>",is kissing,
null,"<div style=""font-size:60px;"">+</div>",,html-keyboard-response,340,1167276,0.0-19.0-0.4,13343,List2A,white,woman,,,,null,,,,
null,"<img src=""stim_listA/marry2.gif""</stim_listA>",,html-keyboard-response,341,1169278,0.0-19.0-1.4,13343,List2A,white,woman,,,,null,,,,
null,are marrying each other,,html-keyboard-response,342,1171280,0.0-19.0-2.4,13343,List2A,white,woman,,,,null,,,,
8403,,,survey-text,343,1179685,0.0-19.0-3.4,13343,List2A,white,woman,,,,,"{""Q0"":""jane and luke are marrying each other""}","<img src=""stim_listA/marry2.gif""</stim_listA>",are marrying each other,
null,"<div style=""font-size:60px;"">+</div>",,html-keyboard-response,344,1180187,0.0-19.0-0.5,13343,List2A,white,woman,,,,null,,,,
null,"<img src=""stim_listA/dance7.gif""</stim_listA>",,html-keyboard-response,345,1182190,0.0-19.0-1.5,13343,List2A,white,woman,,,,null,,,,
null,is dancing with,,html-keyboard-response,346,1184191,0.0-19.0-2.5,13343,List2A,white,woman,,,,null,,,,
7679,,,survey-text,347,1191872,0.0-19.0-3.5,13343,List2A,white,woman,,,,,"{""Q0"":""beth is dancing with kate""}","<img src=""stim_listA/dance7.gif""</stim_listA>",is dancing with,
null,"<div style=""font-size:60px;"">+</div>",,html-keyboard-response,348,1192374,0.0-19.0-0.6,13343,List2A,white,woman,,,,null,,,,
null,"<img src=""stim_listA/argue8.gif""</stim_listA>",,html-keyboard-response,349,1194377,0.0-19.0-1.6,13343,List2A,white,woman,,,,null,,,,
null,are arguing with each other,,html-keyboard-response,350,1196378,0.0-19.0-2.6,13343,List2A,white,woman,,,,null,,,,
8640,,,survey-text,351,1205020,0.0-19.0-3.6,13343,List2A,white,woman,,,,,"{""Q0"":""kate and ruth are arguing with each other""}","<img src=""stim_listA/argue8.gif""</stim_listA>",are arguing with each other,
null,"<div style=""font-size:60px;"">+</div>",,html-keyboard-response,352,1205522,0.0-19.0-0.7,13343,List2A,white,woman,,,,null,,,,
null,"<img src=""stim_listA/shout8.gif""</stim_listA>",,html-keyboard-response,353,1207524,0.0-19.0-1.7,13343,List2A,white,woman,,,,null,,,,
null,are shouting at each other,,html-keyboard-response,354,1209526,0.0-19.0-2.7,13343,List2A,white,woman,,,,null,,,,
7662,,,survey-text,355,1217190,0.0-19.0-3.7,13343,List2A,white,woman,,,,,"{""Q0"":""kate and jane are shouting at each other""}","<img src=""stim_listA/shout8.gif""</stim_listA>",are shouting at each other,
null,"<div style=""font-size:60px;"">+</div>",,html-keyboard-response,356,1217692,0.0-19.0-0.8,13343,List2A,white,woman,,,,null,,,,
null,"<img src=""stim_listA/talk6.gif""</stim_listA>",,html-keyboard-response,357,1219694,0.0-19.0-1.8,13343,List2A,white,woman,,,,null,,,,
null,are talking to each other,,html-keyboard-response,358,1221695,0.0-19.0-2.8,13343,List2A,white,woman,,,,null,,,,
6053,,,survey-text,359,1227750,0.0-19.0-3.8,13343,List2A,white,woman,,,,,"{""Q0"":""fred and dave are talking to each other""}","<img src=""stim_listA/talk6.gif""</stim_listA>",are talking to each other,
null,"<div style=""font-size:60px;"">+</div>",,html-keyboard-response,360,1228252,0.0-19.0-0.9,13343,List2A,white,woman,,,,null,,,,
null,"<img src=""stim_listA/hug1.gif""</stim_listA>",,html-keyboard-response,361,1230254,0.0-19.0-1.9,13343,List2A,white,woman,,,,null,,,,
null,is hugging,,html-keyboard-response,362,1232256,0.0-19.0-2.9,13343,List2A,white,woman,,,,null,,,,
4760,,,survey-text,363,1237018,0.0-19.0-3.9,13343,List2A,white,woman,,,,,"{""Q0"":""luke is hugging beth""}","<img src=""stim_listA/hug1.gif""</stim_listA>",is hugging,
null,"<div style=""font-size:60px;"">+</div>",,html-keyboard-response,364,1237520,0.0-19.0-0.10,13343,List2A,white,woman,,,,null,,,,
null,"<img src=""stim_listA/talk5.gif""</stim_listA>",,html-keyboard-response,365,1239523,0.0-19.0-1.10,13343,List2A,white,woman,,,,null,,,,
null,is talking to,,html-keyboard-response,366,1241524,0.0-19.0-2.10,13343,List2A,white,woman,,,,null,,,,
5623,,,survey-text,367,1247149,0.0-19.0-3.10,13343,List2A,white,woman,,,,,"{""Q0"":""luke is talking to mike""}","<img src=""stim_listA/talk5.gif""</stim_listA>",is talking to,
null,"<div style=""font-size:60px;"">+</div>",,html-keyboard-response,368,1247651,0.0-19.0-0.11,13343,List2A,white,woman,,,,null,,,,
null,"<img src=""stim_listA/meet7.gif""</stim_listA>",,html-keyboard-response,369,1249654,0.0-19.0-1.11,13343,List2A,white,woman,,,,null,,,,
null,is meeting,,html-keyboard-response,370,1251655,0.0-19.0-2.11,13343,List2A,white,woman,,,,null,,,,
8054,,,survey-text,371,1259712,0.0-19.0-3.11,13343,List2A,white,woman,,,,,"{""Q0"":""jane is meeting kate""}","<img src=""stim_listA/meet7.gif""</stim_listA>",is meeting,
null,"<div style=""font-size:60px;"">+</div>",,html-keyboard-response,372,1260214,0.0-19.0-0.12,13343,List2A,white,woman,,,,null,,,,
null,"<img src=""stim_listA/hug3.gif""</stim_listA>",,html-keyboard-response,373,1262216,0.0-19.0-1.12,13343,List2A,white,woman,,,,null,,,,
null,is hugging,,html-keyboard-response,374,1264217,0.0-19.0-2.12,13343,List2A,white,woman,,,,null,,,,
6323,,,survey-text,375,1270542,0.0-19.0-3.12,13343,List2A,white,woman,,,,,"{""Q0"":""fred is hugging beth""}","<img src=""stim_listA/hug3.gif""</stim_listA>",is hugging,
null,"<div style=""font-size:60px;"">+</div>",,html-keyboard-response,376,1271044,0.0-19.0-0.13,13343,List2A,white,woman,,,,null,,,,
null,"<img src=""stim_listA/kiss8.gif""</stim_listA>",,html-keyboard-response,377,1273047,0.0-19.0-1.13,13343,List2A,white,woman,,,,null,,,,
null,are kissing each other,,html-keyboard-response,378,1275049,0.0-19.0-2.13,13343,List2A,white,woman,,,,null,,,,
10697,,,survey-text,379,1285747,0.0-19.0-3.13,13343,List2A,white,woman,,,,,"{""Q0"":""kate and jane are kissing each other""}","<img src=""stim_listA/kiss8.gif""</stim_listA>",are kissing each other,
null,"<div style=""font-size:60px;"">+</div>",,html-keyboard-response,380,1286249,0.0-19.0-0.14,13343,List2A,white,woman,,,,null,,,,
null,"<img src=""stim_listA/marry3.gif""</stim_listA>",,html-keyboard-response,381,1288252,0.0-19.0-1.14,13343,List2A,white,woman,,,,null,,,,
null,is marrying,,html-keyboard-response,382,1290253,0.0-19.0-2.14,13343,List2A,white,woman,,,,null,,,,
4338,,,survey-text,383,1294592,0.0-19.0-3.14,13343,List2A,white,woman,,,,,"{""Q0"":""mike is marrying beth""}","<img src=""stim_listA/marry3.gif""</stim_listA>",is marrying,
null,"<div style=""font-size:60px;"">+</div>",,html-keyboard-response,384,1295094,0.0-19.0-0.15,13343,List2A,white,woman,,,,null,,,,
null,"<img src=""stim_listA/touch4.gif""</stim_listA>",,html-keyboard-response,385,1297097,0.0-19.0-1.15,13343,List2A,white,woman,,,,null,,,,
null,are touching each other,,html-keyboard-response,386,1299099,0.0-19.0-2.15,13343,List2A,white,woman,,,,null,,,,
10282,,,survey-text,387,1309382,0.0-19.0-3.15,13343,List2A,white,woman,,,,,"{""Q0"":""beth and fred are touching each other""}","<img src=""stim_listA/touch4.gif""</stim_listA>",are touching each other,
null,"<div style=""font-size:60px;"">+</div>",,html-keyboard-response,388,1309884,0.0-19.0-0.16,13343,List2A,white,woman,,,,null,,,,
null,"<img src=""stim_listA/touch5.gif""</stim_listA>",,html-keyboard-response,389,1311887,0.0-19.0-1.16,13343,List2A,white,woman,,,,null,,,,
null,is touching,,html-keyboard-response,390,1313888,0.0-19.0-2.16,13343,List2A,white,woman,,,,null,,,,
4247,,,survey-text,391,1318136,0.0-19.0-3.16,13343,List2A,white,woman,,,,,"{""Q0"":""dave is touching mike""}","<img src=""stim_listA/touch5.gif""</stim_listA>",is touching,
null,"<div style=""font-size:60px;"">+</div>",,html-keyboard-response,392,1318638,0.0-19.0-0.17,13343,List2A,white,woman,,,,null,,,,
null,"<img src=""stim_listA/hug5.gif""</stim_listA>",,html-keyboard-response,393,1320641,0.0-19.0-1.17,13343,List2A,white,woman,,,,null,,,,
null,is hugging,,html-keyboard-response,394,1322642,0.0-19.0-2.17,13343,List2A,white,woman,,,,null,,,,
5111,,,survey-text,395,1327755,0.0-19.0-3.17,13343,List2A,white,woman,,,,,"{""Q0"":""luke is hugging fred""}","<img src=""stim_listA/hug5.gif""</stim_listA>",is hugging,
null,"<div style=""font-size:60px;"">+</div>",,html-keyboard-response,396,1328257,0.0-19.0-0.18,13343,List2A,white,woman,,,,null,,,,
null,"<img src=""stim_listA/kiss7.gif""</stim_listA>",,html-keyboard-response,397,1330260,0.0-19.0-1.18,13343,List2A,white,woman,,,,null,,,,
null,is kissing,,html-keyboard-response,398,1332261,0.0-19.0-2.18,13343,List2A,white,woman,,,,null,,,,
6390,,,survey-text,399,1338652,0.0-19.0-3.18,13343,List2A,white,woman,,,,,"{""Q0"":""ruth is kissing beth""}","<img src=""stim_listA/kiss7.gif""</stim_listA>",is kissing,
null,"<div style=""font-size:60px;"">+</div>",,html-keyboard-response,400,1339154,0.0-19.0-0.19,13343,List2A,white,woman,,,,null,,,,
null,"<img src=""stim_listA/marry8.gif""</stim_listA>",,html-keyboard-response,401,1341157,0.0-19.0-1.19,13343,List2A,white,woman,,,,null,,,,
null,are marrying each other,,html-keyboard-response,402,1343158,0.0-19.0-2.19,13343,List2A,white,woman,,,,null,,,,
7364,,,survey-text,403,1350524,0.0-19.0-3.19,13343,List2A,white,woman,,,,,"{""Q0"":""kate and ruth are marrying each other""}","<img src=""stim_listA/marry8.gif""</stim_listA>",are marrying each other,
2535,<p>Thank you for completing that task.</p><p>The final part of this session is a short questionnaire.</p><p>Press Continue.</p>,0,html-button-response,404,1353061,0.0-20.0,13343,List2A,white,woman,,,,,,,,
23865,,,survey-text,405,1377929,0.0-21.0,13343,List2A,white,woman,,,,,"{""Q0"":""33"",""Q1"":""English"",""Q2"":""English"",""Q3"":""United States of America"",""Q4"":""caucasian"",""Q5"":""female""}",,,demographics
73407,,,survey-likert,406,1451346,0.0-22.0,13343,List2A,white,woman,,,,,"{""Q0"":4,""Q1"":3,""Q2"":1,""Q3"":5,""Q4"":5,""Q5"":5,""Q6"":4,""Q7"":1,""Q8"":3,""Q9"":4,""Q10"":3,""Q11"":"""",""Q12"":2,""Q13"":2}",,,likert_race
46258,,,survey-likert,407,1497611,0.0-23.0,13343,List2A,white,woman,,,,,"{""Q0"":5,""Q1"":6,""Q2"":6,""Q3"":6,""Q4"":6,""Q5"":4,""Q6"":5,""Q7"":4,""Q8"":5,""Q9"":5,""Q10"":3,""Q11"":3,""Q12"":2,""Q13"":2}",,,likert_gender
13189,,,survey-text,408,1510804,0.0-24.0,13343,List2A,white,woman,,,,,"{""Q0"":""ccc""}",,,worker_id
30167,,,external-html,409,1541345,0.0-25.0,13343,List2A,white,woman,debrief.html,,,,,,,
