rt,stimulus,button_pressed,trial_type,trial_index,time_elapsed,internal_node_id,subject,list,ppt_race,ppt_gender,url,first_guess,correct,key_press,responses,image_type,phrase_type,test_part
1681,Welcome to the experiment. Press Continue to begin.,0,html-button-response,0,1684,0.0-0.0,13660,List2A,black,woman,,,,,,,,
15303,,,external-html,1,18066,0.0-1.0,13660,List2A,black,woman,consent.html,,,,,,,
8208,"<p>On the next page, you will see portraits of 8 people and their names.</p><p>Your first task is to take a few minutes to memorise the names of these people.</p><p>You will have to recall their names during the rest of the experiment, so it is</p><p>essential that you try to memorise these people and their names as best as you can.</p><br><p><strong>You will then be tested on your memory of these names and portraits.</strong></p><br><p>The experiment will start after you have completed this memory test.</p><br><p>Ready?</p>",0,html-button-response,2,26276,0.0-2.0,13660,List2A,black,woman,,,,,,,,
24064,"<img src='img/portrait_matrix_list2.JPG' style='width:900px;height:500px;''></img><p>If you have memorised all the portraits and names and are ready to start, press Continue.</p><p><strong>Please note: Your memory of these faces will be tested 4 times during this experiment.</strong></p>",0,html-button-response,3,51342,0.0-3.0-0.0,13660,List2A,black,woman,,,,,,,,
2173,"<img src=""portrait/BM2.jpg""style=""width:400px;height:400px;""></img>",5,html-button-response,4,54517,0.0-3.0-1.0,13660,List2A,black,woman,,TRUE,5,,,,,
null,CORRECT,,html-keyboard-response,5,56021,0.0-3.0-2.0-0.0,13660,List2A,black,woman,,,,null,,,,
2634,"<img src=""portrait/WW1.jpg""style=""width:400px;height:400px;""></img>",1,html-button-response,6,58655,0.0-3.0-4.0,13660,List2A,black,woman,,TRUE,1,,,,,
null,CORRECT,,html-keyboard-response,7,60157,0.0-3.0-5.0-0.0,13660,List2A,black,woman,,,,null,,,,
3253,"<img src=""portrait/WM1.jpg""style=""width:400px;height:400px;""></img>",6,html-button-response,8,63411,0.0-3.0-7.0,13660,List2A,black,woman,,TRUE,6,,,,,
null,CORRECT,,html-keyboard-response,9,64913,0.0-3.0-8.0-0.0,13660,List2A,black,woman,,,,null,,,,
2461,"<img src=""portrait/WM2.jpg""style=""width:400px;height:400px;""></img>",7,html-button-response,10,67375,0.0-3.0-10.0,13660,List2A,black,woman,,TRUE,7,,,,,
null,CORRECT,,html-keyboard-response,11,68877,0.0-3.0-11.0-0.0,13660,List2A,black,woman,,,,null,,,,
3153,"<img src=""portrait/BW1.jpg""style=""width:400px;height:400px;""></img>",0,html-button-response,12,72031,0.0-3.0-13.0,13660,List2A,black,woman,,TRUE,0,,,,,
null,CORRECT,,html-keyboard-response,13,73533,0.0-3.0-14.0-0.0,13660,List2A,black,woman,,,,null,,,,
1726,"<img src=""portrait/WW2.jpg""style=""width:400px;height:400px;""></img>",3,html-button-response,14,75261,0.0-3.0-16.0,13660,List2A,black,woman,,TRUE,3,,,,,
null,CORRECT,,html-keyboard-response,15,76766,0.0-3.0-17.0-0.0,13660,List2A,black,woman,,,,null,,,,
2635,"<img src=""portrait/BW2.jpg""style=""width:400px;height:400px;""></img>",2,html-button-response,16,79401,0.0-3.0-19.0,13660,List2A,black,woman,,TRUE,2,,,,,
null,CORRECT,,html-keyboard-response,17,80904,0.0-3.0-20.0-0.0,13660,List2A,black,woman,,,,null,,,,
4881,"<img src=""portrait/BM1.jpg""style=""width:400px;height:400px;""></img>",6,html-button-response,18,85785,0.0-3.0-22.0,13660,List2A,black,woman,,TRUE,4,,,,,
3193,"<img src=""portrait/BM1.jpg""style=""width:400px;height:400px;""></img>",4,html-button-response,19,89979,0.0-3.0-24.0-0.0,13660,List2A,black,woman,,FALSE,4,,,,,
null,CORRECT,,html-keyboard-response,20,91482,0.0-3.0-24.0-1.0-0.0,13660,List2A,black,woman,,,,null,,,,
1950,<p>You got 7 out of 8 right first time. Press Continue.</p>,0,html-button-response,21,93433,0.0-3.0-25.0,13660,List2A,black,woman,,,,,,,,
3694,"As you did not score 100%, the memory game will repeat. Press Continue.",0,html-button-response,22,98129,0.0-3.0-26.0-0.0,13660,List2A,black,woman,,,,,,,,
16418,"<img src='img/portrait_matrix_list2.JPG' style='width:900px;height:500px;''></img><p>If you have memorised all the portraits and names and are ready to start, press Continue.</p><p><strong>Please note: Your memory of these faces will be tested 4 times during this experiment.</strong></p>",0,html-button-response,23,115549,0.0-3.1-0.1,13660,List2A,black,woman,,,,,,,,
6692,"<img src=""portrait/BM2.jpg""style=""width:400px;height:400px;""></img>",5,html-button-response,24,123243,0.0-3.1-1.1,13660,List2A,black,woman,,TRUE,5,,,,,
null,CORRECT,,html-keyboard-response,25,124747,0.0-3.1-2.1-0.1,13660,List2A,black,woman,,,,null,,,,
6112,"<img src=""portrait/WW1.jpg""style=""width:400px;height:400px;""></img>",1,html-button-response,26,130859,0.0-3.1-4.1,13660,List2A,black,woman,,TRUE,1,,,,,
null,CORRECT,,html-keyboard-response,27,132361,0.0-3.1-5.1-0.1,13660,List2A,black,woman,,,,null,,,,
2437,"<img src=""portrait/WM1.jpg""style=""width:400px;height:400px;""></img>",6,html-button-response,28,134799,0.0-3.1-7.1,13660,List2A,black,woman,,TRUE,6,,,,,
null,CORRECT,,html-keyboard-response,29,136302,0.0-3.1-8.1-0.1,13660,List2A,black,woman,,,,null,,,,
4310,"<img src=""portrait/WM2.jpg""style=""width:400px;height:400px;""></img>",7,html-button-response,30,140613,0.0-3.1-10.1,13660,List2A,black,woman,,TRUE,7,,,,,
null,CORRECT,,html-keyboard-response,31,142118,0.0-3.1-11.1-0.1,13660,List2A,black,woman,,,,null,,,,
3837,"<img src=""portrait/BW1.jpg""style=""width:400px;height:400px;""></img>",0,html-button-response,32,145955,0.0-3.1-13.1,13660,List2A,black,woman,,TRUE,0,,,,,
null,CORRECT,,html-keyboard-response,33,147456,0.0-3.1-14.1-0.1,13660,List2A,black,woman,,,,null,,,,
3254,"<img src=""portrait/WW2.jpg""style=""width:400px;height:400px;""></img>",3,html-button-response,34,150711,0.0-3.1-16.1,13660,List2A,black,woman,,TRUE,3,,,,,
null,CORRECT,,html-keyboard-response,35,152213,0.0-3.1-17.1-0.1,13660,List2A,black,woman,,,,null,,,,
3393,"<img src=""portrait/BW2.jpg""style=""width:400px;height:400px;""></img>",2,html-button-response,36,155607,0.0-3.1-19.1,13660,List2A,black,woman,,TRUE,2,,,,,
null,CORRECT,,html-keyboard-response,37,157109,0.0-3.1-20.1-0.1,13660,List2A,black,woman,,,,null,,,,
4774,"<img src=""portrait/BM1.jpg""style=""width:400px;height:400px;""></img>",4,html-button-response,38,161883,0.0-3.1-22.1,13660,List2A,black,woman,,TRUE,4,,,,,
null,CORRECT,,html-keyboard-response,39,163386,0.0-3.1-23.1-0.1,13660,List2A,black,woman,,,,null,,,,
1318,<p>You got 8 out of 8 right first time. Press Continue.</p>,0,html-button-response,40,164705,0.0-3.1-25.1,13660,List2A,black,woman,,,,,,,,
24489,"<p>In this experiment, you will view photographs of the people from the memory game interacting.</p><p>By using the <strong>exact</strong> phrase given <i>after</i> the photograph appears and recalling the correct names of the people in the photographs, form a sentence describing the interaction. You do not need to capitalise names.</p><p>Type your answer in the space provided. Please complete every sentence before moving onto the next trial.</p><p>You will only have a few seconds to memorise each given photograph and phrase before you can respond, so try your best to focus.</p><p>An example is given below. Press 'Continue' when you are ready.</p><img src='img/speaking_example_v2.jpg' style='width:800px;height:460px;''></img>",0,html-button-response,41,190195,0.0-4.0,13660,List2A,black,woman,,,,,,,,
1410,"<p>Before the experiment starts, you will watch two example trials. Press 'Continue'.</p>",0,html-button-response,42,192607,0.0-5.0,13660,List2A,black,woman,,,,,,,,
null,<img src='img/speaking_WW.gif'></img>,,html-keyboard-response,43,195609,0.0-6.0,13660,List2A,black,woman,,,,null,,,,
null,<p>is speaking to</p>,,html-keyboard-response,44,197610,0.0-7.0,13660,List2A,black,woman,,,,null,,,,
9192,<p><b>Answer:</b> jane is speaking to ruth</p>,0,html-button-response,45,206803,0.0-8.0,13660,List2A,black,woman,,,,,,,,
null,<img src='img/pointing_BM.gif'></img>,,html-keyboard-response,46,209807,0.0-9.0,13660,List2A,black,woman,,,,null,,,,
null,<p>are pointing at each other</p>,,html-keyboard-response,47,211807,0.0-10.0,13660,List2A,black,woman,,,,null,,,,
1929,<p><b>Answer:</b> fred and mike are pointing at each other</p>,0,html-button-response,48,213737,0.0-11.0,13660,List2A,black,woman,,,,,,,,
2383,"<p>Ready to start the experiment?</p><br><p><strong>Remember to describe the picture using a full sentence,</strong></p><p><strong> that combines the names of the people with the given phrase.</strong></p><p><strong> You do not need to capitalise names or use punctuation.</strong></p><br><p>Press 'Continue' to begin.</p>",0,html-button-response,49,217121,0.0-12.0,13660,List2A,black,woman,,,,,,,,
null,"<div style=""font-size:60px;"">+</div>",,html-keyboard-response,50,218624,0.0-13.0-0.0,13660,List2A,black,woman,,,,null,,,,
null,"<img src=""stim_listA/meet8.gif""</stim_listA>",,html-keyboard-response,51,220626,0.0-13.0-1.0,13660,List2A,black,woman,,,,null,,,,
null,are meeting each other,,html-keyboard-response,52,222628,0.0-13.0-2.0,13660,List2A,black,woman,,,,null,,,,
11034,,,survey-text,53,233663,0.0-13.0-3.0,13660,List2A,black,woman,,,,,"{""Q0"":""beth and ruth are shaking hands""}","<img src=""stim_listA/meet8.gif""</stim_listA>",are meeting each other,
null,"<div style=""font-size:60px;"">+</div>",,html-keyboard-response,54,234165,0.0-13.0-0.1,13660,List2A,black,woman,,,,null,,,,
null,"<img src=""stim_listA/argue8.gif""</stim_listA>",,html-keyboard-response,55,236167,0.0-13.0-1.1,13660,List2A,black,woman,,,,null,,,,
null,are arguing with each other,,html-keyboard-response,56,238169,0.0-13.0-2.1,13660,List2A,black,woman,,,,null,,,,
16184,,,survey-text,57,254353,0.0-13.0-3.1,13660,List2A,black,woman,,,,,"{""Q0"":""kate and ruth are arguing with each other""}","<img src=""stim_listA/argue8.gif""</stim_listA>",are arguing with each other,
null,"<div style=""font-size:60px;"">+</div>",,html-keyboard-response,58,254854,0.0-13.0-0.2,13660,List2A,black,woman,,,,null,,,,
null,"<img src=""stim_listA/dance6.gif""</stim_listA>",,html-keyboard-response,59,256858,0.0-13.0-1.2,13660,List2A,black,woman,,,,null,,,,
null,are dancing with each other,,html-keyboard-response,60,258860,0.0-13.0-2.2,13660,List2A,black,woman,,,,null,,,,
11557,,,survey-text,61,270419,0.0-13.0-3.2,13660,List2A,black,woman,,,,,"{""Q0"":""fred and dave are dancing with each other""}","<img src=""stim_listA/dance6.gif""</stim_listA>",are dancing with each other,
null,"<div style=""font-size:60px;"">+</div>",,html-keyboard-response,62,270920,0.0-13.0-0.3,13660,List2A,black,woman,,,,null,,,,
null,"<img src=""stim_listA/shout2.gif""</stim_listA>",,html-keyboard-response,63,272921,0.0-13.0-1.3,13660,List2A,black,woman,,,,null,,,,
null,are shouting at each other,,html-keyboard-response,64,274922,0.0-13.0-2.3,13660,List2A,black,woman,,,,null,,,,
12762,,,survey-text,65,287685,0.0-13.0-3.3,13660,List2A,black,woman,,,,,"{""Q0"":""jane and dave are shouting at each other""}","<img src=""stim_listA/shout2.gif""</stim_listA>",are shouting at each other,
null,"<div style=""font-size:60px;"">+</div>",,html-keyboard-response,66,288186,0.0-13.0-0.4,13660,List2A,black,woman,,,,null,,,,
null,"<img src=""stim_listA/fight8.gif""</stim_listA>",,html-keyboard-response,67,290188,0.0-13.0-1.4,13660,List2A,black,woman,,,,null,,,,
null,are fighting each other,,html-keyboard-response,68,292189,0.0-13.0-2.4,13660,List2A,black,woman,,,,null,,,,
11684,,,survey-text,69,303873,0.0-13.0-3.4,13660,List2A,black,woman,,,,,"{""Q0"":""ruth and beth are fighting with each other""}","<img src=""stim_listA/fight8.gif""</stim_listA>",are fighting each other,
null,"<div style=""font-size:60px;"">+</div>",,html-keyboard-response,70,304375,0.0-13.0-0.5,13660,List2A,black,woman,,,,null,,,,
null,"<img src=""stim_listA/marry2.gif""</stim_listA>",,html-keyboard-response,71,306376,0.0-13.0-1.5,13660,List2A,black,woman,,,,null,,,,
null,are marrying each other,,html-keyboard-response,72,308377,0.0-13.0-2.5,13660,List2A,black,woman,,,,null,,,,
8298,,,survey-text,73,316676,0.0-13.0-3.5,13660,List2A,black,woman,,,,,"{""Q0"":""jane and luke are marrying each other""}","<img src=""stim_listA/marry2.gif""</stim_listA>",are marrying each other,
null,"<div style=""font-size:60px;"">+</div>",,html-keyboard-response,74,317178,0.0-13.0-0.6,13660,List2A,black,woman,,,,null,,,,
null,"<img src=""stim_listA/fight6.gif""</stim_listA>",,html-keyboard-response,75,319180,0.0-13.0-1.6,13660,List2A,black,woman,,,,null,,,,
null,are fighting each other,,html-keyboard-response,76,321181,0.0-13.0-2.6,13660,List2A,black,woman,,,,null,,,,
10265,,,survey-text,77,331446,0.0-13.0-3.6,13660,List2A,black,woman,,,,,"{""Q0"":""fred and luke are fighting each other""}","<img src=""stim_listA/fight6.gif""</stim_listA>",are fighting each other,
null,"<div style=""font-size:60px;"">+</div>",,html-keyboard-response,78,331948,0.0-13.0-0.7,13660,List2A,black,woman,,,,null,,,,
null,"<img src=""stim_listA/shout5.gif""</stim_listA>",,html-keyboard-response,79,333949,0.0-13.0-1.7,13660,List2A,black,woman,,,,null,,,,
null,is shouting at,,html-keyboard-response,80,335952,0.0-13.0-2.7,13660,List2A,black,woman,,,,null,,,,
5886,,,survey-text,81,341838,0.0-13.0-3.7,13660,List2A,black,woman,,,,,"{""Q0"":""fred is shouting at luke""}","<img src=""stim_listA/shout5.gif""</stim_listA>",is shouting at,
null,"<div style=""font-size:60px;"">+</div>",,html-keyboard-response,82,342340,0.0-13.0-0.8,13660,List2A,black,woman,,,,null,,,,
null,"<img src=""stim_listA/argue2.gif""</stim_listA>",,html-keyboard-response,83,344342,0.0-13.0-1.8,13660,List2A,black,woman,,,,null,,,,
null,are arguing with each other,,html-keyboard-response,84,346343,0.0-13.0-2.8,13660,List2A,black,woman,,,,null,,,,
18149,,,survey-text,85,364492,0.0-13.0-3.8,13660,List2A,black,woman,,,,,"{""Q0"":""jane and luke are arguing with each other""}","<img src=""stim_listA/argue2.gif""</stim_listA>",are arguing with each other,
null,"<div style=""font-size:60px;"">+</div>",,html-keyboard-response,86,364994,0.0-13.0-0.9,13660,List2A,black,woman,,,,null,,,,
null,"<img src=""stim_listA/dance8.gif""</stim_listA>",,html-keyboard-response,87,366996,0.0-13.0-1.9,13660,List2A,black,woman,,,,null,,,,
null,are dancing with each other,,html-keyboard-response,88,368997,0.0-13.0-2.9,13660,List2A,black,woman,,,,null,,,,
12176,,,survey-text,89,381173,0.0-13.0-3.9,13660,List2A,black,woman,,,,,"{""Q0"":""beth and jane are dancing with each other""}","<img src=""stim_listA/dance8.gif""</stim_listA>",are dancing with each other,
null,"<div style=""font-size:60px;"">+</div>",,html-keyboard-response,90,381674,0.0-13.0-0.10,13660,List2A,black,woman,,,,null,,,,
null,"<img src=""stim_listA/meet2.gif""</stim_listA>",,html-keyboard-response,91,383676,0.0-13.0-1.10,13660,List2A,black,woman,,,,null,,,,
null,are meeting each other,,html-keyboard-response,92,385678,0.0-13.0-2.10,13660,List2A,black,woman,,,,null,,,,
9941,,,survey-text,93,395619,0.0-13.0-3.10,13660,List2A,black,woman,,,,,"{""Q0"":""ruth and luke are meeting each other""}","<img src=""stim_listA/meet2.gif""</stim_listA>",are meeting each other,
null,"<div style=""font-size:60px;"">+</div>",,html-keyboard-response,94,396121,0.0-13.0-0.11,13660,List2A,black,woman,,,,null,,,,
null,"<img src=""stim_listA/shout6.gif""</stim_listA>",,html-keyboard-response,95,398123,0.0-13.0-1.11,13660,List2A,black,woman,,,,null,,,,
null,are shouting at each other,,html-keyboard-response,96,400124,0.0-13.0-2.11,13660,List2A,black,woman,,,,null,,,,
10325,,,survey-text,97,410449,0.0-13.0-3.11,13660,List2A,black,woman,,,,,"{""Q0"":""mike and luke are shouting at each other""}","<img src=""stim_listA/shout6.gif""</stim_listA>",are shouting at each other,
null,"<div style=""font-size:60px;"">+</div>",,html-keyboard-response,98,410950,0.0-13.0-0.12,13660,List2A,black,woman,,,,null,,,,
null,"<img src=""stim_listA/talk3.gif""</stim_listA>",,html-keyboard-response,99,412952,0.0-13.0-1.12,13660,List2A,black,woman,,,,null,,,,
null,is talking to,,html-keyboard-response,100,414953,0.0-13.0-2.12,13660,List2A,black,woman,,,,null,,,,
8636,,,survey-text,101,423591,0.0-13.0-3.12,13660,List2A,black,woman,,,,,"{""Q0"":""kate is talking to fred""}","<img src=""stim_listA/talk3.gif""</stim_listA>",is talking to,
null,"<div style=""font-size:60px;"">+</div>",,html-keyboard-response,102,424093,0.0-13.0-0.13,13660,List2A,black,woman,,,,null,,,,
null,"<img src=""stim_listA/meet6.gif""</stim_listA>",,html-keyboard-response,103,426094,0.0-13.0-1.13,13660,List2A,black,woman,,,,null,,,,
null,are meeting each other,,html-keyboard-response,104,428096,0.0-13.0-2.13,13660,List2A,black,woman,,,,null,,,,
9886,,,survey-text,105,437983,0.0-13.0-3.13,13660,List2A,black,woman,,,,,"{""Q0"":""fred and luke are meeting each other""}","<img src=""stim_listA/meet6.gif""</stim_listA>",are meeting each other,
null,"<div style=""font-size:60px;"">+</div>",,html-keyboard-response,106,438484,0.0-13.0-0.14,13660,List2A,black,woman,,,,null,,,,
null,"<img src=""stim_listA/hug6.gif""</stim_listA>",,html-keyboard-response,107,440485,0.0-13.0-1.14,13660,List2A,black,woman,,,,null,,,,
null,are hugging each other,,html-keyboard-response,108,442487,0.0-13.0-2.14,13660,List2A,black,woman,,,,null,,,,
10889,,,survey-text,109,453377,0.0-13.0-3.14,13660,List2A,black,woman,,,,,"{""Q0"":""mike and dave are hugging each other""}","<img src=""stim_listA/hug6.gif""</stim_listA>",are hugging each other,
null,"<div style=""font-size:60px;"">+</div>",,html-keyboard-response,110,453878,0.0-13.0-0.15,13660,List2A,black,woman,,,,null,,,,
null,"<img src=""stim_listA/hug7.gif""</stim_listA>",,html-keyboard-response,111,455879,0.0-13.0-1.15,13660,List2A,black,woman,,,,null,,,,
null,is hugging,,html-keyboard-response,112,457880,0.0-13.0-2.15,13660,List2A,black,woman,,,,null,,,,
7603,,,survey-text,113,465485,0.0-13.0-3.15,13660,List2A,black,woman,,,,,"{""Q0"":""ruth is hugging kate""}","<img src=""stim_listA/hug7.gif""</stim_listA>",is hugging,
null,"<div style=""font-size:60px;"">+</div>",,html-keyboard-response,114,465987,0.0-13.0-0.16,13660,List2A,black,woman,,,,null,,,,
null,"<img src=""stim_listA/dance2.gif""</stim_listA>",,html-keyboard-response,115,467988,0.0-13.0-1.16,13660,List2A,black,woman,,,,null,,,,
null,are dancing with each other,,html-keyboard-response,116,469990,0.0-13.0-2.16,13660,List2A,black,woman,,,,null,,,,
10725,,,survey-text,117,480717,0.0-13.0-3.16,13660,List2A,black,woman,,,,,"{""Q0"":""ruth and dave are dancing with each other""}","<img src=""stim_listA/dance2.gif""</stim_listA>",are dancing with each other,
null,"<div style=""font-size:60px;"">+</div>",,html-keyboard-response,118,481219,0.0-13.0-0.17,13660,List2A,black,woman,,,,null,,,,
null,"<img src=""stim_listA/argue1.gif""</stim_listA>",,html-keyboard-response,119,483221,0.0-13.0-1.17,13660,List2A,black,woman,,,,null,,,,
null,is arguing with,,html-keyboard-response,120,485223,0.0-13.0-2.17,13660,List2A,black,woman,,,,null,,,,
7495,,,survey-text,121,492719,0.0-13.0-3.17,13660,List2A,black,woman,,,,,"{""Q0"":""ruth is arguing with dave""}","<img src=""stim_listA/argue1.gif""</stim_listA>",is arguing with,
null,"<div style=""font-size:60px;"">+</div>",,html-keyboard-response,122,493220,0.0-13.0-0.18,13660,List2A,black,woman,,,,null,,,,
null,"<img src=""stim_listA/hug8.gif""</stim_listA>",,html-keyboard-response,123,495222,0.0-13.0-1.18,13660,List2A,black,woman,,,,null,,,,
null,are hugging each other,,html-keyboard-response,124,497223,0.0-13.0-2.18,13660,List2A,black,woman,,,,null,,,,
8368,,,survey-text,125,505591,0.0-13.0-3.18,13660,List2A,black,woman,,,,,"{""Q0"":""kate and jane are hugging each other""}","<img src=""stim_listA/hug8.gif""</stim_listA>",are hugging each other,
null,"<div style=""font-size:60px;"">+</div>",,html-keyboard-response,126,506093,0.0-13.0-0.19,13660,List2A,black,woman,,,,null,,,,
null,"<img src=""stim_listA/kiss2.gif""</stim_listA>",,html-keyboard-response,127,508094,0.0-13.0-1.19,13660,List2A,black,woman,,,,null,,,,
null,are kissing each other,,html-keyboard-response,128,510095,0.0-13.0-2.19,13660,List2A,black,woman,,,,null,,,,
8637,,,survey-text,129,518733,0.0-13.0-3.19,13660,List2A,black,woman,,,,,"{""Q0"":""jane and dave are kissing each other""}","<img src=""stim_listA/kiss2.gif""</stim_listA>",are kissing each other,
2638,"<img src='img/portrait_matrix_list2.JPG' style='width:900px;height:500px;''></img><p>If you have memorised all the portraits and names and are ready to start, press Continue.</p><p><strong>Please note: Your memory of these faces will be tested 4 times during this experiment.</strong></p>",0,html-button-response,130,521371,0.0-14.0-0.0,13660,List2A,black,woman,,,,,,,,
4130,"<img src=""portrait/WM1.jpg""style=""width:400px;height:400px;""></img>",6,html-button-response,131,526503,0.0-14.0-1.0,13660,List2A,black,woman,,TRUE,6,,,,,
null,CORRECT,,html-keyboard-response,132,528006,0.0-14.0-2.0-0.0,13660,List2A,black,woman,,,,null,,,,
2172,"<img src=""portrait/BW1.jpg""style=""width:400px;height:400px;""></img>",0,html-button-response,133,530179,0.0-14.0-4.0,13660,List2A,black,woman,,TRUE,0,,,,,
null,CORRECT,,html-keyboard-response,134,531682,0.0-14.0-5.0-0.0,13660,List2A,black,woman,,,,null,,,,
5241,"<img src=""portrait/BM1.jpg""style=""width:400px;height:400px;""></img>",4,html-button-response,135,536925,0.0-14.0-7.0,13660,List2A,black,woman,,TRUE,4,,,,,
null,CORRECT,,html-keyboard-response,136,538429,0.0-14.0-8.0-0.0,13660,List2A,black,woman,,,,null,,,,
1283,"<img src=""portrait/WW2.jpg""style=""width:400px;height:400px;""></img>",3,html-button-response,137,539713,0.0-14.0-10.0,13660,List2A,black,woman,,TRUE,3,,,,,
null,CORRECT,,html-keyboard-response,138,541215,0.0-14.0-11.0-0.0,13660,List2A,black,woman,,,,null,,,,
3247,"<img src=""portrait/WW1.jpg""style=""width:400px;height:400px;""></img>",1,html-button-response,139,544463,0.0-14.0-13.0,13660,List2A,black,woman,,TRUE,1,,,,,
null,CORRECT,,html-keyboard-response,140,545966,0.0-14.0-14.0-0.0,13660,List2A,black,woman,,,,null,,,,
2512,"<img src=""portrait/WM2.jpg""style=""width:400px;height:400px;""></img>",7,html-button-response,141,548479,0.0-14.0-16.0,13660,List2A,black,woman,,TRUE,7,,,,,
null,CORRECT,,html-keyboard-response,142,549981,0.0-14.0-17.0-0.0,13660,List2A,black,woman,,,,null,,,,
3150,"<img src=""portrait/BM2.jpg""style=""width:400px;height:400px;""></img>",5,html-button-response,143,553133,0.0-14.0-19.0,13660,List2A,black,woman,,TRUE,5,,,,,
null,CORRECT,,html-keyboard-response,144,554634,0.0-14.0-20.0-0.0,13660,List2A,black,woman,,,,null,,,,
4409,"<img src=""portrait/BW2.jpg""style=""width:400px;height:400px;""></img>",2,html-button-response,145,559045,0.0-14.0-22.0,13660,List2A,black,woman,,TRUE,2,,,,,
null,CORRECT,,html-keyboard-response,146,560547,0.0-14.0-23.0-0.0,13660,List2A,black,woman,,,,null,,,,
1310,<p>You got 8 out of 8 right first time. Press Continue.</p>,0,html-button-response,147,561859,0.0-14.0-25.0,13660,List2A,black,woman,,,,,,,,
null,"<div style=""font-size:60px;"">+</div>",,html-keyboard-response,148,563362,0.0-15.0-0.0,13660,List2A,black,woman,,,,null,,,,
null,"<img src=""stim_listA/dance5.gif""</stim_listA>",,html-keyboard-response,149,565363,0.0-15.0-1.0,13660,List2A,black,woman,,,,null,,,,
null,is dancing with,,html-keyboard-response,150,567364,0.0-15.0-2.0,13660,List2A,black,woman,,,,null,,,,
7981,,,survey-text,151,575347,0.0-15.0-3.0,13660,List2A,black,woman,,,,,"{""Q0"":""luke is dancing with mike""}","<img src=""stim_listA/dance5.gif""</stim_listA>",is dancing with,
null,"<div style=""font-size:60px;"">+</div>",,html-keyboard-response,152,575848,0.0-15.0-0.1,13660,List2A,black,woman,,,,null,,,,
null,"<img src=""stim_listA/touch3.gif""</stim_listA>",,html-keyboard-response,153,577849,0.0-15.0-1.1,13660,List2A,black,woman,,,,null,,,,
null,is touching,,html-keyboard-response,154,579851,0.0-15.0-2.1,13660,List2A,black,woman,,,,null,,,,
4884,,,survey-text,155,584737,0.0-15.0-3.1,13660,List2A,black,woman,,,,,"{""Q0"":""mike is touching kate""}","<img src=""stim_listA/touch3.gif""</stim_listA>",is touching,
null,"<div style=""font-size:60px;"">+</div>",,html-keyboard-response,156,585239,0.0-15.0-0.2,13660,List2A,black,woman,,,,null,,,,
null,"<img src=""stim_listA/talk6.gif""</stim_listA>",,html-keyboard-response,157,587241,0.0-15.0-1.2,13660,List2A,black,woman,,,,null,,,,
null,are talking to each other,,html-keyboard-response,158,589243,0.0-15.0-2.2,13660,List2A,black,woman,,,,null,,,,
7994,,,survey-text,159,597239,0.0-15.0-3.2,13660,List2A,black,woman,,,,,"{""Q0"":""fred and dave are talking with each other""}","<img src=""stim_listA/talk6.gif""</stim_listA>",are talking to each other,
null,"<div style=""font-size:60px;"">+</div>",,html-keyboard-response,160,597740,0.0-15.0-0.3,13660,List2A,black,woman,,,,null,,,,
null,"<img src=""stim_listA/argue5.gif""</stim_listA>",,html-keyboard-response,161,599742,0.0-15.0-1.3,13660,List2A,black,woman,,,,null,,,,
null,is arguing with,,html-keyboard-response,162,601744,0.0-15.0-2.3,13660,List2A,black,woman,,,,null,,,,
5312,,,survey-text,163,607057,0.0-15.0-3.3,13660,List2A,black,woman,,,,,"{""Q0"":""dave is arguing with fred""}","<img src=""stim_listA/argue5.gif""</stim_listA>",is arguing with,
null,"<div style=""font-size:60px;"">+</div>",,html-keyboard-response,164,607558,0.0-15.0-0.4,13660,List2A,black,woman,,,,null,,,,
null,"<img src=""stim_listA/dance3.gif""</stim_listA>",,html-keyboard-response,165,609559,0.0-15.0-1.4,13660,List2A,black,woman,,,,null,,,,
null,is dancing with,,html-keyboard-response,166,611561,0.0-15.0-2.4,13660,List2A,black,woman,,,,null,,,,
6408,,,survey-text,167,617971,0.0-15.0-3.4,13660,List2A,black,woman,,,,,"{""Q0"":""fred is dancing with kate""}","<img src=""stim_listA/dance3.gif""</stim_listA>",is dancing with,
null,"<div style=""font-size:60px;"">+</div>",,html-keyboard-response,168,618471,0.0-15.0-0.5,13660,List2A,black,woman,,,,null,,,,
null,"<img src=""stim_listA/talk2.gif""</stim_listA>",,html-keyboard-response,169,620473,0.0-15.0-1.5,13660,List2A,black,woman,,,,null,,,,
null,are talking to each other,,html-keyboard-response,170,622475,0.0-15.0-2.5,13660,List2A,black,woman,,,,null,,,,
13373,,,survey-text,171,635848,0.0-15.0-3.5,13660,List2A,black,woman,,,,,"{""Q0"":""ruth and dave are talking with each other""}","<img src=""stim_listA/talk2.gif""</stim_listA>",are talking to each other,
null,"<div style=""font-size:60px;"">+</div>",,html-keyboard-response,172,636351,0.0-15.0-0.6,13660,List2A,black,woman,,,,null,,,,
null,"<img src=""stim_listA/talk7.gif""</stim_listA>",,html-keyboard-response,173,638354,0.0-15.0-1.6,13660,List2A,black,woman,,,,null,,,,
null,is talking to,,html-keyboard-response,174,640356,0.0-15.0-2.6,13660,List2A,black,woman,,,,null,,,,
9298,,,survey-text,175,649654,0.0-15.0-3.6,13660,List2A,black,woman,,,,,"{""Q0"":""ruth is talking to kate""}","<img src=""stim_listA/talk7.gif""</stim_listA>",is talking to,
null,"<div style=""font-size:60px;"">+</div>",,html-keyboard-response,176,650157,0.0-15.0-0.7,13660,List2A,black,woman,,,,null,,,,
null,"<img src=""stim_listA/marry8.gif""</stim_listA>",,html-keyboard-response,177,652159,0.0-15.0-1.7,13660,List2A,black,woman,,,,null,,,,
null,are marrying each other,,html-keyboard-response,178,654161,0.0-15.0-2.7,13660,List2A,black,woman,,,,null,,,,
8725,,,survey-text,179,662887,0.0-15.0-3.7,13660,List2A,black,woman,,,,,"{""Q0"":""kate and ruth are marrying each other""}","<img src=""stim_listA/marry8.gif""</stim_listA>",are marrying each other,
null,"<div style=""font-size:60px;"">+</div>",,html-keyboard-response,180,663388,0.0-15.0-0.8,13660,List2A,black,woman,,,,null,,,,
null,"<img src=""stim_listA/marry5.gif""</stim_listA>",,html-keyboard-response,181,665391,0.0-15.0-1.8,13660,List2A,black,woman,,,,null,,,,
null,is marrying,,html-keyboard-response,182,667393,0.0-15.0-2.8,13660,List2A,black,woman,,,,null,,,,
7032,,,survey-text,183,674425,0.0-15.0-3.8,13660,List2A,black,woman,,,,,"{""Q0"":""dave is marrying fred""}","<img src=""stim_listA/marry5.gif""</stim_listA>",is marrying,
null,"<div style=""font-size:60px;"">+</div>",,html-keyboard-response,184,674927,0.0-15.0-0.9,13660,List2A,black,woman,,,,null,,,,
null,"<img src=""stim_listA/fight7.gif""</stim_listA>",,html-keyboard-response,185,676928,0.0-15.0-1.9,13660,List2A,black,woman,,,,null,,,,
null,is fighting,,html-keyboard-response,186,678929,0.0-15.0-2.9,13660,List2A,black,woman,,,,null,,,,
4214,,,survey-text,187,683143,0.0-15.0-3.9,13660,List2A,black,woman,,,,,"{""Q0"":""jane is fighting kate""}","<img src=""stim_listA/fight7.gif""</stim_listA>",is fighting,
null,"<div style=""font-size:60px;"">+</div>",,html-keyboard-response,188,683644,0.0-15.0-0.10,13660,List2A,black,woman,,,,null,,,,
null,"<img src=""stim_listA/touch6.gif""</stim_listA>",,html-keyboard-response,189,685646,0.0-15.0-1.10,13660,List2A,black,woman,,,,null,,,,
null,are touching each other,,html-keyboard-response,190,687647,0.0-15.0-2.10,13660,List2A,black,woman,,,,null,,,,
11398,,,survey-text,191,699045,0.0-15.0-3.10,13660,List2A,black,woman,,,,,"{""Q0"":""fred and luke are touching each other""}","<img src=""stim_listA/touch6.gif""</stim_listA>",are touching each other,
null,"<div style=""font-size:60px;"">+</div>",,html-keyboard-response,192,699547,0.0-15.0-0.11,13660,List2A,black,woman,,,,null,,,,
null,"<img src=""stim_listA/dance1.gif""</stim_listA>",,html-keyboard-response,193,701548,0.0-15.0-1.11,13660,List2A,black,woman,,,,null,,,,
null,is dancing with,,html-keyboard-response,194,703550,0.0-15.0-2.11,13660,List2A,black,woman,,,,null,,,,
6763,,,survey-text,195,710313,0.0-15.0-3.11,13660,List2A,black,woman,,,,,"{""Q0"":""luke is dancing with jane""}","<img src=""stim_listA/dance1.gif""</stim_listA>",is dancing with,
null,"<div style=""font-size:60px;"">+</div>",,html-keyboard-response,196,710815,0.0-15.0-0.12,13660,List2A,black,woman,,,,null,,,,
null,"<img src=""stim_listA/fight5.gif""</stim_listA>",,html-keyboard-response,197,712816,0.0-15.0-1.12,13660,List2A,black,woman,,,,null,,,,
null,is fighting,,html-keyboard-response,198,714817,0.0-15.0-2.12,13660,List2A,black,woman,,,,null,,,,
6610,,,survey-text,199,721427,0.0-15.0-3.12,13660,List2A,black,woman,,,,,"{""Q0"":""dave is fighting mike""}","<img src=""stim_listA/fight5.gif""</stim_listA>",is fighting,
null,"<div style=""font-size:60px;"">+</div>",,html-keyboard-response,200,721928,0.0-15.0-0.13,13660,List2A,black,woman,,,,null,,,,
null,"<img src=""stim_listA/fight2.gif""</stim_listA>",,html-keyboard-response,201,723929,0.0-15.0-1.13,13660,List2A,black,woman,,,,null,,,,
null,are fighting each other,,html-keyboard-response,202,725930,0.0-15.0-2.13,13660,List2A,black,woman,,,,null,,,,
7034,,,survey-text,203,732965,0.0-15.0-3.13,13660,List2A,black,woman,,,,,"{""Q0"":""ruth and luke are fighting each other""}","<img src=""stim_listA/fight2.gif""</stim_listA>",are fighting each other,
null,"<div style=""font-size:60px;"">+</div>",,html-keyboard-response,204,733466,0.0-15.0-0.14,13660,List2A,black,woman,,,,null,,,,
null,"<img src=""stim_listA/kiss4.gif""</stim_listA>",,html-keyboard-response,205,735468,0.0-15.0-1.14,13660,List2A,black,woman,,,,null,,,,
null,are kissing each other,,html-keyboard-response,206,737468,0.0-15.0-2.14,13660,List2A,black,woman,,,,null,,,,
9953,,,survey-text,207,747422,0.0-15.0-3.14,13660,List2A,black,woman,,,,,"{""Q0"":""kate and mike are kissing each other""}","<img src=""stim_listA/kiss4.gif""</stim_listA>",are kissing each other,
null,"<div style=""font-size:60px;"">+</div>",,html-keyboard-response,208,747924,0.0-15.0-0.15,13660,List2A,black,woman,,,,null,,,,
null,"<img src=""stim_listA/shout7.gif""</stim_listA>",,html-keyboard-response,209,749927,0.0-15.0-1.15,13660,List2A,black,woman,,,,null,,,,
null,is shouting at,,html-keyboard-response,210,751928,0.0-15.0-2.15,13660,List2A,black,woman,,,,null,,,,
6340,,,survey-text,211,758269,0.0-15.0-3.15,13660,List2A,black,woman,,,,,"{""Q0"":""ruth is shouting at beth""}","<img src=""stim_listA/shout7.gif""</stim_listA>",is shouting at,
null,"<div style=""font-size:60px;"">+</div>",,html-keyboard-response,212,758769,0.0-15.0-0.16,13660,List2A,black,woman,,,,null,,,,
null,"<img src=""stim_listA/hug4.gif""</stim_listA>",,html-keyboard-response,213,760771,0.0-15.0-1.16,13660,List2A,black,woman,,,,null,,,,
null,are hugging each other,,html-keyboard-response,214,762773,0.0-15.0-2.16,13660,List2A,black,woman,,,,null,,,,
7681,,,survey-text,215,770455,0.0-15.0-3.16,13660,List2A,black,woman,,,,,"{""Q0"":""kate and mike are hugging each other""}","<img src=""stim_listA/hug4.gif""</stim_listA>",are hugging each other,
null,"<div style=""font-size:60px;"">+</div>",,html-keyboard-response,216,770955,0.0-15.0-0.17,13660,List2A,black,woman,,,,null,,,,
null,"<img src=""stim_listA/meet1.gif""</stim_listA>",,html-keyboard-response,217,772956,0.0-15.0-1.17,13660,List2A,black,woman,,,,null,,,,
null,is meeting,,html-keyboard-response,218,774958,0.0-15.0-2.17,13660,List2A,black,woman,,,,null,,,,
4990,,,survey-text,219,779949,0.0-15.0-3.17,13660,List2A,black,woman,,,,,"{""Q0"":""dave is meeting jane""}","<img src=""stim_listA/meet1.gif""</stim_listA>",is meeting,
null,"<div style=""font-size:60px;"">+</div>",,html-keyboard-response,220,780450,0.0-15.0-0.18,13660,List2A,black,woman,,,,null,,,,
null,"<img src=""stim_listA/talk4.gif""</stim_listA>",,html-keyboard-response,221,782453,0.0-15.0-1.18,13660,List2A,black,woman,,,,null,,,,
null,are talking to each other,,html-keyboard-response,222,784455,0.0-15.0-2.18,13660,List2A,black,woman,,,,null,,,,
12440,,,survey-text,223,796897,0.0-15.0-3.18,13660,List2A,black,woman,,,,,"{""Q0"":""beth and mike are talking to each other""}","<img src=""stim_listA/talk4.gif""</stim_listA>",are talking to each other,
null,"<div style=""font-size:60px;"">+</div>",,html-keyboard-response,224,797398,0.0-15.0-0.19,13660,List2A,black,woman,,,,null,,,,
null,"<img src=""stim_listA/kiss8.gif""</stim_listA>",,html-keyboard-response,225,799401,0.0-15.0-1.19,13660,List2A,black,woman,,,,null,,,,
null,are kissing each other,,html-keyboard-response,226,801403,0.0-15.0-2.19,13660,List2A,black,woman,,,,null,,,,
9358,,,survey-text,227,810763,0.0-15.0-3.19,13660,List2A,black,woman,,,,,"{""Q0"":""beth and jane are kissing each other""}","<img src=""stim_listA/kiss8.gif""</stim_listA>",are kissing each other,
1601,"<img src='img/portrait_matrix_list2.JPG' style='width:900px;height:500px;''></img><p>If you have memorised all the portraits and names and are ready to start, press Continue.</p><p><strong>Please note: Your memory of these faces will be tested 4 times during this experiment.</strong></p>",0,html-button-response,228,812364,0.0-16.0-0.0,13660,List2A,black,woman,,,,,,,,
2898,"<img src=""portrait/WW1.jpg""style=""width:400px;height:400px;""></img>",1,html-button-response,229,816265,0.0-16.0-1.0,13660,List2A,black,woman,,TRUE,1,,,,,
null,CORRECT,,html-keyboard-response,230,817767,0.0-16.0-2.0-0.0,13660,List2A,black,woman,,,,null,,,,
1580,"<img src=""portrait/BM2.jpg""style=""width:400px;height:400px;""></img>",5,html-button-response,231,819349,0.0-16.0-4.0,13660,List2A,black,woman,,TRUE,5,,,,,
null,CORRECT,,html-keyboard-response,232,820850,0.0-16.0-5.0-0.0,13660,List2A,black,woman,,,,null,,,,
3613,"<img src=""portrait/BW1.jpg""style=""width:400px;height:400px;""></img>",1,html-button-response,233,824465,0.0-16.0-7.0,13660,List2A,black,woman,,TRUE,0,,,,,
1903,"<img src=""portrait/BW1.jpg""style=""width:400px;height:400px;""></img>",0,html-button-response,234,827371,0.0-16.0-9.0-0.0,13660,List2A,black,woman,,FALSE,0,,,,,
null,CORRECT,,html-keyboard-response,235,828875,0.0-16.0-9.0-1.0-0.0,13660,List2A,black,woman,,,,null,,,,
1766,"<img src=""portrait/WW2.jpg""style=""width:400px;height:400px;""></img>",3,html-button-response,236,830643,0.0-16.0-10.0,13660,List2A,black,woman,,TRUE,3,,,,,
null,CORRECT,,html-keyboard-response,237,832146,0.0-16.0-11.0-0.0,13660,List2A,black,woman,,,,null,,,,
3702,"<img src=""portrait/WM2.jpg""style=""width:400px;height:400px;""></img>",7,html-button-response,238,835849,0.0-16.0-13.0,13660,List2A,black,woman,,TRUE,7,,,,,
null,CORRECT,,html-keyboard-response,239,837351,0.0-16.0-14.0-0.0,13660,List2A,black,woman,,,,null,,,,
1842,"<img src=""portrait/WM1.jpg""style=""width:400px;height:400px;""></img>",6,html-button-response,240,839195,0.0-16.0-16.0,13660,List2A,black,woman,,TRUE,6,,,,,
null,CORRECT,,html-keyboard-response,241,840697,0.0-16.0-17.0-0.0,13660,List2A,black,woman,,,,null,,,,
2048,"<img src=""portrait/BM1.jpg""style=""width:400px;height:400px;""></img>",4,html-button-response,242,842747,0.0-16.0-19.0,13660,List2A,black,woman,,TRUE,4,,,,,
null,CORRECT,,html-keyboard-response,243,844249,0.0-16.0-20.0-0.0,13660,List2A,black,woman,,,,null,,,,
1603,"<img src=""portrait/BW2.jpg""style=""width:400px;height:400px;""></img>",0,html-button-response,244,845852,0.0-16.0-22.0,13660,List2A,black,woman,,TRUE,2,,,,,
2744,"<img src=""portrait/BW2.jpg""style=""width:400px;height:400px;""></img>",2,html-button-response,245,849599,0.0-16.0-24.0-0.0,13660,List2A,black,woman,,FALSE,2,,,,,
null,CORRECT,,html-keyboard-response,246,851100,0.0-16.0-24.0-1.0-0.0,13660,List2A,black,woman,,,,null,,,,
1041,<p>You got 6 out of 8 right first time. Press Continue.</p>,0,html-button-response,247,852142,0.0-16.0-25.0,13660,List2A,black,woman,,,,,,,,
1456,"As you did not score 100%, the memory game will repeat. Press Continue.",0,html-button-response,248,854600,0.0-16.0-26.0-0.0,13660,List2A,black,woman,,,,,,,,
1849,"<img src='img/portrait_matrix_list2.JPG' style='width:900px;height:500px;''></img><p>If you have memorised all the portraits and names and are ready to start, press Continue.</p><p><strong>Please note: Your memory of these faces will be tested 4 times during this experiment.</strong></p>",0,html-button-response,249,857453,0.0-16.1-0.1,13660,List2A,black,woman,,,,,,,,
3198,"<img src=""portrait/WW1.jpg""style=""width:400px;height:400px;""></img>",1,html-button-response,250,861653,0.0-16.1-1.1,13660,List2A,black,woman,,TRUE,1,,,,,
null,CORRECT,,html-keyboard-response,251,863155,0.0-16.1-2.1-0.1,13660,List2A,black,woman,,,,null,,,,
2025,"<img src=""portrait/BM2.jpg""style=""width:400px;height:400px;""></img>",5,html-button-response,252,865181,0.0-16.1-4.1,13660,List2A,black,woman,,TRUE,5,,,,,
null,CORRECT,,html-keyboard-response,253,866684,0.0-16.1-5.1-0.1,13660,List2A,black,woman,,,,null,,,,
2657,"<img src=""portrait/BW1.jpg""style=""width:400px;height:400px;""></img>",0,html-button-response,254,869343,0.0-16.1-7.1,13660,List2A,black,woman,,TRUE,0,,,,,
null,CORRECT,,html-keyboard-response,255,870845,0.0-16.1-8.1-0.1,13660,List2A,black,woman,,,,null,,,,
1673,"<img src=""portrait/WW2.jpg""style=""width:400px;height:400px;""></img>",3,html-button-response,256,872519,0.0-16.1-10.1,13660,List2A,black,woman,,TRUE,3,,,,,
null,CORRECT,,html-keyboard-response,257,874021,0.0-16.1-11.1-0.1,13660,List2A,black,woman,,,,null,,,,
2689,"<img src=""portrait/WM2.jpg""style=""width:400px;height:400px;""></img>",7,html-button-response,258,876711,0.0-16.1-13.1,13660,List2A,black,woman,,TRUE,7,,,,,
null,CORRECT,,html-keyboard-response,259,878213,0.0-16.1-14.1-0.1,13660,List2A,black,woman,,,,null,,,,
1672,"<img src=""portrait/WM1.jpg""style=""width:400px;height:400px;""></img>",6,html-button-response,260,879887,0.0-16.1-16.1,13660,List2A,black,woman,,TRUE,6,,,,,
null,CORRECT,,html-keyboard-response,261,881390,0.0-16.1-17.1-0.1,13660,List2A,black,woman,,,,null,,,,
2341,"<img src=""portrait/BM1.jpg""style=""width:400px;height:400px;""></img>",4,html-button-response,262,883733,0.0-16.1-19.1,13660,List2A,black,woman,,TRUE,4,,,,,
null,CORRECT,,html-keyboard-response,263,885236,0.0-16.1-20.1-0.1,13660,List2A,black,woman,,,,null,,,,
2340,"<img src=""portrait/BW2.jpg""style=""width:400px;height:400px;""></img>",2,html-button-response,264,887577,0.0-16.1-22.1,13660,List2A,black,woman,,TRUE,2,,,,,
null,CORRECT,,html-keyboard-response,265,889079,0.0-16.1-23.1-0.1,13660,List2A,black,woman,,,,null,,,,
1656,<p>You got 8 out of 8 right first time. Press Continue.</p>,0,html-button-response,266,890737,0.0-16.1-25.1,13660,List2A,black,woman,,,,,,,,
null,"<div style=""font-size:60px;"">+</div>",,html-keyboard-response,267,892240,0.0-17.0-0.0,13660,List2A,black,woman,,,,null,,,,
null,"<img src=""stim_listA/argue4.gif""</stim_listA>",,html-keyboard-response,268,894241,0.0-17.0-1.0,13660,List2A,black,woman,,,,null,,,,
null,are arguing with each other,,html-keyboard-response,269,896242,0.0-17.0-2.0,13660,List2A,black,woman,,,,null,,,,
8821,,,survey-text,270,905065,0.0-17.0-3.0,13660,List2A,black,woman,,,,,"{""Q0"":""kate and fred are arguing with each other""}","<img src=""stim_listA/argue4.gif""</stim_listA>",are arguing with each other,
null,"<div style=""font-size:60px;"">+</div>",,html-keyboard-response,271,905566,0.0-17.0-0.1,13660,List2A,black,woman,,,,null,,,,
null,"<img src=""stim_listA/argue7.gif""</stim_listA>",,html-keyboard-response,272,907568,0.0-17.0-1.1,13660,List2A,black,woman,,,,null,,,,
null,is arguing with,,html-keyboard-response,273,909570,0.0-17.0-2.1,13660,List2A,black,woman,,,,null,,,,
5228,,,survey-text,274,914799,0.0-17.0-3.1,13660,List2A,black,woman,,,,,"{""Q0"":""jane is arguing with beth""}","<img src=""stim_listA/argue7.gif""</stim_listA>",is arguing with,
null,"<div style=""font-size:60px;"">+</div>",,html-keyboard-response,275,915301,0.0-17.0-0.2,13660,List2A,black,woman,,,,null,,,,
null,"<img src=""stim_listA/marry3.gif""</stim_listA>",,html-keyboard-response,276,917303,0.0-17.0-1.2,13660,List2A,black,woman,,,,null,,,,
null,is marrying,,html-keyboard-response,277,919304,0.0-17.0-2.2,13660,List2A,black,woman,,,,null,,,,
5328,,,survey-text,278,924633,0.0-17.0-3.2,13660,List2A,black,woman,,,,,"{""Q0"":""mike is marrying beth""}","<img src=""stim_listA/marry3.gif""</stim_listA>",is marrying,
null,"<div style=""font-size:60px;"">+</div>",,html-keyboard-response,279,925134,0.0-17.0-0.3,13660,List2A,black,woman,,,,null,,,,
null,"<img src=""stim_listA/marry6.gif""</stim_listA>",,html-keyboard-response,280,927136,0.0-17.0-1.3,13660,List2A,black,woman,,,,null,,,,
null,are marrying each other,,html-keyboard-response,281,929137,0.0-17.0-2.3,13660,List2A,black,woman,,,,null,,,,
7625,,,survey-text,282,936763,0.0-17.0-3.3,13660,List2A,black,woman,,,,,"{""Q0"":""mike and luke are marrying each other""}","<img src=""stim_listA/marry6.gif""</stim_listA>",are marrying each other,
null,"<div style=""font-size:60px;"">+</div>",,html-keyboard-response,283,937264,0.0-17.0-0.4,13660,List2A,black,woman,,,,null,,,,
null,"<img src=""stim_listA/touch4.gif""</stim_listA>",,html-keyboard-response,284,939266,0.0-17.0-1.4,13660,List2A,black,woman,,,,null,,,,
null,are touching each other,,html-keyboard-response,285,941267,0.0-17.0-2.4,13660,List2A,black,woman,,,,null,,,,
7741,,,survey-text,286,949009,0.0-17.0-3.4,13660,List2A,black,woman,,,,,"{""Q0"":""beth and fred are touching each other""}","<img src=""stim_listA/touch4.gif""</stim_listA>",are touching each other,
null,"<div style=""font-size:60px;"">+</div>",,html-keyboard-response,287,949510,0.0-17.0-0.5,13660,List2A,black,woman,,,,null,,,,
null,"<img src=""stim_listA/meet7.gif""</stim_listA>",,html-keyboard-response,288,951512,0.0-17.0-1.5,13660,List2A,black,woman,,,,null,,,,
null,is meeting,,html-keyboard-response,289,953514,0.0-17.0-2.5,13660,List2A,black,woman,,,,null,,,,
4018,,,survey-text,290,957533,0.0-17.0-3.5,13660,List2A,black,woman,,,,,"{""Q0"":""jane is meeting kate""}","<img src=""stim_listA/meet7.gif""</stim_listA>",is meeting,
null,"<div style=""font-size:60px;"">+</div>",,html-keyboard-response,291,958034,0.0-17.0-0.6,13660,List2A,black,woman,,,,null,,,,
null,"<img src=""stim_listA/touch5.gif""</stim_listA>",,html-keyboard-response,292,960035,0.0-17.0-1.6,13660,List2A,black,woman,,,,null,,,,
null,is touching,,html-keyboard-response,293,962036,0.0-17.0-2.6,13660,List2A,black,woman,,,,null,,,,
6084,,,survey-text,294,968120,0.0-17.0-3.6,13660,List2A,black,woman,,,,,"{""Q0"":""dave is touching mike""}","<img src=""stim_listA/touch5.gif""</stim_listA>",is touching,
null,"<div style=""font-size:60px;"">+</div>",,html-keyboard-response,295,968623,0.0-17.0-0.7,13660,List2A,black,woman,,,,null,,,,
null,"<img src=""stim_listA/touch1.gif""</stim_listA>",,html-keyboard-response,296,970625,0.0-17.0-1.7,13660,List2A,black,woman,,,,null,,,,
null,is touching,,html-keyboard-response,297,972625,0.0-17.0-2.7,13660,List2A,black,woman,,,,null,,,,
4896,,,survey-text,298,977523,0.0-17.0-3.7,13660,List2A,black,woman,,,,,"{""Q0"":""dave is touching jane""}","<img src=""stim_listA/touch1.gif""</stim_listA>",is touching,
null,"<div style=""font-size:60px;"">+</div>",,html-keyboard-response,299,978024,0.0-17.0-0.8,13660,List2A,black,woman,,,,null,,,,
null,"<img src=""stim_listA/touch8.gif""</stim_listA>",,html-keyboard-response,300,980026,0.0-17.0-1.8,13660,List2A,black,woman,,,,null,,,,
null,are touching each other,,html-keyboard-response,301,982027,0.0-17.0-2.8,13660,List2A,black,woman,,,,null,,,,
6524,,,survey-text,302,988552,0.0-17.0-3.8,13660,List2A,black,woman,,,,,"{""Q0"":""beth and jane are touching each other""}","<img src=""stim_listA/touch8.gif""</stim_listA>",are touching each other,
null,"<div style=""font-size:60px;"">+</div>",,html-keyboard-response,303,989054,0.0-17.0-0.9,13660,List2A,black,woman,,,,null,,,,
null,"<img src=""stim_listA/shout8.gif""</stim_listA>",,html-keyboard-response,304,991056,0.0-17.0-1.9,13660,List2A,black,woman,,,,null,,,,
null,are shouting at each other,,html-keyboard-response,305,993058,0.0-17.0-2.9,13660,List2A,black,woman,,,,null,,,,
8849,,,survey-text,306,1001909,0.0-17.0-3.9,13660,List2A,black,woman,,,,,"{""Q0"":""kate and jane are shouting at each other""}","<img src=""stim_listA/shout8.gif""</stim_listA>",are shouting at each other,
null,"<div style=""font-size:60px;"">+</div>",,html-keyboard-response,307,1002410,0.0-17.0-0.10,13660,List2A,black,woman,,,,null,,,,
null,"<img src=""stim_listA/dance4.gif""</stim_listA>",,html-keyboard-response,308,1004411,0.0-17.0-1.10,13660,List2A,black,woman,,,,null,,,,
null,are dancing with each other,,html-keyboard-response,309,1006413,0.0-17.0-2.10,13660,List2A,black,woman,,,,null,,,,
7093,,,survey-text,310,1013507,0.0-17.0-3.10,13660,List2A,black,woman,,,,,"{""Q0"":""beth and mike are dancing with each other""}","<img src=""stim_listA/dance4.gif""</stim_listA>",are dancing with each other,
null,"<div style=""font-size:60px;"">+</div>",,html-keyboard-response,311,1014008,0.0-17.0-0.11,13660,List2A,black,woman,,,,null,,,,
null,"<img src=""stim_listA/dance7.gif""</stim_listA>",,html-keyboard-response,312,1016010,0.0-17.0-1.11,13660,List2A,black,woman,,,,null,,,,
null,is dancing with,,html-keyboard-response,313,1018011,0.0-17.0-2.11,13660,List2A,black,woman,,,,null,,,,
20340,,,survey-text,314,1038353,0.0-17.0-3.11,13660,List2A,black,woman,,,,,"{""Q0"":""ruth and jane are dancing with each other""}","<img src=""stim_listA/dance7.gif""</stim_listA>",is dancing with,
null,"<div style=""font-size:60px;"">+</div>",,html-keyboard-response,315,1038854,0.0-17.0-0.12,13660,List2A,black,woman,,,,null,,,,
null,"<img src=""stim_listA/shout4.gif""</stim_listA>",,html-keyboard-response,316,1040855,0.0-17.0-1.12,13660,List2A,black,woman,,,,null,,,,
null,are shouting at each other,,html-keyboard-response,317,1042856,0.0-17.0-2.12,13660,List2A,black,woman,,,,null,,,,
7186,,,survey-text,318,1050043,0.0-17.0-3.12,13660,List2A,black,woman,,,,,"{""Q0"":""kate and mike are shouting at each other""}","<img src=""stim_listA/shout4.gif""</stim_listA>",are shouting at each other,
null,"<div style=""font-size:60px;"">+</div>",,html-keyboard-response,319,1050544,0.0-17.0-0.13,13660,List2A,black,woman,,,,null,,,,
null,"<img src=""stim_listA/meet5.gif""</stim_listA>",,html-keyboard-response,320,1052546,0.0-17.0-1.13,13660,List2A,black,woman,,,,null,,,,
null,is meeting,,html-keyboard-response,321,1054547,0.0-17.0-2.13,13660,List2A,black,woman,,,,null,,,,
4002,,,survey-text,322,1058550,0.0-17.0-3.13,13660,List2A,black,woman,,,,,"{""Q0"":""dave is meeting mike""}","<img src=""stim_listA/meet5.gif""</stim_listA>",is meeting,
null,"<div style=""font-size:60px;"">+</div>",,html-keyboard-response,323,1059053,0.0-17.0-0.14,13660,List2A,black,woman,,,,null,,,,
null,"<img src=""stim_listA/meet4.gif""</stim_listA>",,html-keyboard-response,324,1061055,0.0-17.0-1.14,13660,List2A,black,woman,,,,null,,,,
null,are meeting each other,,html-keyboard-response,325,1063057,0.0-17.0-2.14,13660,List2A,black,woman,,,,null,,,,
6722,,,survey-text,326,1069781,0.0-17.0-3.14,13660,List2A,black,woman,,,,,"{""Q0"":""beth and fred are meeting each other""}","<img src=""stim_listA/meet4.gif""</stim_listA>",are meeting each other,
null,"<div style=""font-size:60px;"">+</div>",,html-keyboard-response,327,1070283,0.0-17.0-0.15,13660,List2A,black,woman,,,,null,,,,
null,"<img src=""stim_listA/argue6.gif""</stim_listA>",,html-keyboard-response,328,1072285,0.0-17.0-1.15,13660,List2A,black,woman,,,,null,,,,
null,are arguing with each other,,html-keyboard-response,329,1074285,0.0-17.0-2.15,13660,List2A,black,woman,,,,null,,,,
8494,,,survey-text,330,1082780,0.0-17.0-3.15,13660,List2A,black,woman,,,,,"{""Q0"":""mike and luke are arguing with each other""}","<img src=""stim_listA/argue6.gif""</stim_listA>",are arguing with each other,
null,"<div style=""font-size:60px;"">+</div>",,html-keyboard-response,331,1083282,0.0-17.0-0.16,13660,List2A,black,woman,,,,null,,,,
null,"<img src=""stim_listA/fight4.gif""</stim_listA>",,html-keyboard-response,332,1085283,0.0-17.0-1.16,13660,List2A,black,woman,,,,null,,,,
null,are fighting each other,,html-keyboard-response,333,1087284,0.0-17.0-2.16,13660,List2A,black,woman,,,,null,,,,
7811,,,survey-text,334,1095097,0.0-17.0-3.16,13660,List2A,black,woman,,,,,"{""Q0"":""beth and fred are fighting each other""}","<img src=""stim_listA/fight4.gif""</stim_listA>",are fighting each other,
null,"<div style=""font-size:60px;"">+</div>",,html-keyboard-response,335,1095599,0.0-17.0-0.17,13660,List2A,black,woman,,,,null,,,,
null,"<img src=""stim_listA/shout1.gif""</stim_listA>",,html-keyboard-response,336,1097600,0.0-17.0-1.17,13660,List2A,black,woman,,,,null,,,,
null,is shouting at,,html-keyboard-response,337,1099601,0.0-17.0-2.17,13660,List2A,black,woman,,,,null,,,,
7408,,,survey-text,338,1107011,0.0-17.0-3.17,13660,List2A,black,woman,,,,,"{""Q0"":""luke is shouting at ruth""}","<img src=""stim_listA/shout1.gif""</stim_listA>",is shouting at,
null,"<div style=""font-size:60px;"">+</div>",,html-keyboard-response,339,1107512,0.0-17.0-0.18,13660,List2A,black,woman,,,,null,,,,
null,"<img src=""stim_listA/kiss1.gif""</stim_listA>",,html-keyboard-response,340,1109513,0.0-17.0-1.18,13660,List2A,black,woman,,,,null,,,,
null,is kissing,,html-keyboard-response,341,1111515,0.0-17.0-2.18,13660,List2A,black,woman,,,,null,,,,
5290,,,survey-text,342,1116806,0.0-17.0-3.18,13660,List2A,black,woman,,,,,"{""Q0"":""luke is kissing ruth""}","<img src=""stim_listA/kiss1.gif""</stim_listA>",is kissing,
null,"<div style=""font-size:60px;"">+</div>",,html-keyboard-response,343,1117307,0.0-17.0-0.19,13660,List2A,black,woman,,,,null,,,,
null,"<img src=""stim_listA/hug5.gif""</stim_listA>",,html-keyboard-response,344,1119309,0.0-17.0-1.19,13660,List2A,black,woman,,,,null,,,,
null,is hugging,,html-keyboard-response,345,1121310,0.0-17.0-2.19,13660,List2A,black,woman,,,,null,,,,
6499,,,survey-text,346,1127810,0.0-17.0-3.19,13660,List2A,black,woman,,,,,"{""Q0"":""luke is hugging fred""}","<img src=""stim_listA/hug5.gif""</stim_listA>",is hugging,
2449,"<img src='img/portrait_matrix_list2.JPG' style='width:900px;height:500px;''></img><p>If you have memorised all the portraits and names and are ready to start, press Continue.</p><p><strong>Please note: Your memory of these faces will be tested 4 times during this experiment.</strong></p>",0,html-button-response,347,1130260,0.0-18.0-0.0,13660,List2A,black,woman,,,,,,,,
1504,"<img src=""portrait/WW2.jpg""style=""width:400px;height:400px;""></img>",3,html-button-response,348,1132766,0.0-18.0-1.0,13660,List2A,black,woman,,TRUE,3,,,,,
null,CORRECT,,html-keyboard-response,349,1134270,0.0-18.0-2.0-0.0,13660,List2A,black,woman,,,,null,,,,
1446,"<img src=""portrait/BM1.jpg""style=""width:400px;height:400px;""></img>",4,html-button-response,350,1135716,0.0-18.0-4.0,13660,List2A,black,woman,,TRUE,4,,,,,
null,CORRECT,,html-keyboard-response,351,1137219,0.0-18.0-5.0-0.0,13660,List2A,black,woman,,,,null,,,,
1640,"<img src=""portrait/BM2.jpg""style=""width:400px;height:400px;""></img>",5,html-button-response,352,1138860,0.0-18.0-7.0,13660,List2A,black,woman,,TRUE,5,,,,,
null,CORRECT,,html-keyboard-response,353,1140363,0.0-18.0-8.0-0.0,13660,List2A,black,woman,,,,null,,,,
2343,"<img src=""portrait/BW1.jpg""style=""width:400px;height:400px;""></img>",0,html-button-response,354,1142706,0.0-18.0-10.0,13660,List2A,black,woman,,TRUE,0,,,,,
null,CORRECT,,html-keyboard-response,355,1144209,0.0-18.0-11.0-0.0,13660,List2A,black,woman,,,,null,,,,
1317,"<img src=""portrait/WM2.jpg""style=""width:400px;height:400px;""></img>",7,html-button-response,356,1145526,0.0-18.0-13.0,13660,List2A,black,woman,,TRUE,7,,,,,
null,CORRECT,,html-keyboard-response,357,1147028,0.0-18.0-14.0-0.0,13660,List2A,black,woman,,,,null,,,,
1193,"<img src=""portrait/WM1.jpg""style=""width:400px;height:400px;""></img>",6,html-button-response,358,1148222,0.0-18.0-16.0,13660,List2A,black,woman,,TRUE,6,,,,,
null,CORRECT,,html-keyboard-response,359,1149725,0.0-18.0-17.0-0.0,13660,List2A,black,woman,,,,null,,,,
3474,"<img src=""portrait/WW1.jpg""style=""width:400px;height:400px;""></img>",1,html-button-response,360,1153200,0.0-18.0-19.0,13660,List2A,black,woman,,TRUE,1,,,,,
null,CORRECT,,html-keyboard-response,361,1154704,0.0-18.0-20.0-0.0,13660,List2A,black,woman,,,,null,,,,
1464,"<img src=""portrait/BW2.jpg""style=""width:400px;height:400px;""></img>",2,html-button-response,362,1156168,0.0-18.0-22.0,13660,List2A,black,woman,,TRUE,2,,,,,
null,CORRECT,,html-keyboard-response,363,1157671,0.0-18.0-23.0-0.0,13660,List2A,black,woman,,,,null,,,,
1078,<p>You got 8 out of 8 right first time. Press Continue.</p>,0,html-button-response,364,1158750,0.0-18.0-25.0,13660,List2A,black,woman,,,,,,,,
null,"<div style=""font-size:60px;"">+</div>",,html-keyboard-response,365,1160253,0.0-19.0-0.0,13660,List2A,black,woman,,,,null,,,,
null,"<img src=""stim_listA/argue3.gif""</stim_listA>",,html-keyboard-response,366,1162254,0.0-19.0-1.0,13660,List2A,black,woman,,,,null,,,,
null,is arguing with,,html-keyboard-response,367,1164256,0.0-19.0-2.0,13660,List2A,black,woman,,,,null,,,,
7348,,,survey-text,368,1171604,0.0-19.0-3.0,13660,List2A,black,woman,,,,,"{""Q0"":""mike is arguing with beth""}","<img src=""stim_listA/argue3.gif""</stim_listA>",is arguing with,
null,"<div style=""font-size:60px;"">+</div>",,html-keyboard-response,369,1172106,0.0-19.0-0.1,13660,List2A,black,woman,,,,null,,,,
null,"<img src=""stim_listA/talk1.gif""</stim_listA>",,html-keyboard-response,370,1174108,0.0-19.0-1.1,13660,List2A,black,woman,,,,null,,,,
null,is talking to,,html-keyboard-response,371,1176109,0.0-19.0-2.1,13660,List2A,black,woman,,,,null,,,,
4756,,,survey-text,372,1180866,0.0-19.0-3.1,13660,List2A,black,woman,,,,,"{""Q0"":""luke is talking to jane""}","<img src=""stim_listA/talk1.gif""</stim_listA>",is talking to,
null,"<div style=""font-size:60px;"">+</div>",,html-keyboard-response,373,1181367,0.0-19.0-0.2,13660,List2A,black,woman,,,,null,,,,
null,"<img src=""stim_listA/hug1.gif""</stim_listA>",,html-keyboard-response,374,1183369,0.0-19.0-1.2,13660,List2A,black,woman,,,,null,,,,
null,is hugging,,html-keyboard-response,375,1185371,0.0-19.0-2.2,13660,List2A,black,woman,,,,null,,,,
5113,,,survey-text,376,1190484,0.0-19.0-3.2,13660,List2A,black,woman,,,,,"{""Q0"":""luke is hugging ruth""}","<img src=""stim_listA/hug1.gif""</stim_listA>",is hugging,
null,"<div style=""font-size:60px;"">+</div>",,html-keyboard-response,377,1190986,0.0-19.0-0.3,13660,List2A,black,woman,,,,null,,,,
null,"<img src=""stim_listA/talk5.gif""</stim_listA>",,html-keyboard-response,378,1192988,0.0-19.0-1.3,13660,List2A,black,woman,,,,null,,,,
null,is talking to,,html-keyboard-response,379,1194989,0.0-19.0-2.3,13660,List2A,black,woman,,,,null,,,,
5365,,,survey-text,380,1200354,0.0-19.0-3.3,13660,List2A,black,woman,,,,,"{""Q0"":""luke is talking to mike""}","<img src=""stim_listA/talk5.gif""</stim_listA>",is talking to,
null,"<div style=""font-size:60px;"">+</div>",,html-keyboard-response,381,1200856,0.0-19.0-0.4,13660,List2A,black,woman,,,,null,,,,
null,"<img src=""stim_listA/hug3.gif""</stim_listA>",,html-keyboard-response,382,1202857,0.0-19.0-1.4,13660,List2A,black,woman,,,,null,,,,
null,is hugging,,html-keyboard-response,383,1204859,0.0-19.0-2.4,13660,List2A,black,woman,,,,null,,,,
4626,,,survey-text,384,1209486,0.0-19.0-3.4,13660,List2A,black,woman,,,,,"{""Q0"":""fred is hugging beth""}","<img src=""stim_listA/hug3.gif""</stim_listA>",is hugging,
null,"<div style=""font-size:60px;"">+</div>",,html-keyboard-response,385,1209988,0.0-19.0-0.5,13660,List2A,black,woman,,,,null,,,,
null,"<img src=""stim_listA/touch7.gif""</stim_listA>",,html-keyboard-response,386,1211990,0.0-19.0-1.5,13660,List2A,black,woman,,,,null,,,,
null,is touching,,html-keyboard-response,387,1213991,0.0-19.0-2.5,13660,List2A,black,woman,,,,null,,,,
4387,,,survey-text,388,1218379,0.0-19.0-3.5,13660,List2A,black,woman,,,,,"{""Q0"":""jane is touching kate""}","<img src=""stim_listA/touch7.gif""</stim_listA>",is touching,
null,"<div style=""font-size:60px;"">+</div>",,html-keyboard-response,389,1218880,0.0-19.0-0.6,13660,List2A,black,woman,,,,null,,,,
null,"<img src=""stim_listA/kiss5.gif""</stim_listA>",,html-keyboard-response,390,1220882,0.0-19.0-1.6,13660,List2A,black,woman,,,,null,,,,
null,is kissing,,html-keyboard-response,391,1222882,0.0-19.0-2.6,13660,List2A,black,woman,,,,null,,,,
6091,,,survey-text,392,1228975,0.0-19.0-3.6,13660,List2A,black,woman,,,,,"{""Q0"":""luke is kissing fred""}","<img src=""stim_listA/kiss5.gif""</stim_listA>",is kissing,
null,"<div style=""font-size:60px;"">+</div>",,html-keyboard-response,393,1229477,0.0-19.0-0.7,13660,List2A,black,woman,,,,null,,,,
null,"<img src=""stim_listA/kiss3.gif""</stim_listA>",,html-keyboard-response,394,1231479,0.0-19.0-1.7,13660,List2A,black,woman,,,,null,,,,
null,is kissing,,html-keyboard-response,395,1233480,0.0-19.0-2.7,13660,List2A,black,woman,,,,null,,,,
7477,,,survey-text,396,1240958,0.0-19.0-3.7,13660,List2A,black,woman,,,,,"{""Q0"":""fred is kissing beth""}","<img src=""stim_listA/kiss3.gif""</stim_listA>",is kissing,
null,"<div style=""font-size:60px;"">+</div>",,html-keyboard-response,397,1241460,0.0-19.0-0.8,13660,List2A,black,woman,,,,null,,,,
null,"<img src=""stim_listA/kiss7.gif""</stim_listA>",,html-keyboard-response,398,1243461,0.0-19.0-1.8,13660,List2A,black,woman,,,,null,,,,
null,is kissing,,html-keyboard-response,399,1245463,0.0-19.0-2.8,13660,List2A,black,woman,,,,null,,,,
4487,,,survey-text,400,1249951,0.0-19.0-3.8,13660,List2A,black,woman,,,,,"{""Q0"":""ruth is kissing beth""}","<img src=""stim_listA/kiss7.gif""</stim_listA>",is kissing,
null,"<div style=""font-size:60px;"">+</div>",,html-keyboard-response,401,1250453,0.0-19.0-0.9,13660,List2A,black,woman,,,,null,,,,
null,"<img src=""stim_listA/marry4.gif""</stim_listA>",,html-keyboard-response,402,1252455,0.0-19.0-1.9,13660,List2A,black,woman,,,,null,,,,
null,are marrying each other,,html-keyboard-response,403,1254456,0.0-19.0-2.9,13660,List2A,black,woman,,,,null,,,,
8710,,,survey-text,404,1263167,0.0-19.0-3.9,13660,List2A,black,woman,,,,,"{""Q0"":""kate and fred are marrying each other""}","<img src=""stim_listA/marry4.gif""</stim_listA>",are marrying each other,
null,"<div style=""font-size:60px;"">+</div>",,html-keyboard-response,405,1263668,0.0-19.0-0.10,13660,List2A,black,woman,,,,null,,,,
null,"<img src=""stim_listA/touch2.gif""</stim_listA>",,html-keyboard-response,406,1265670,0.0-19.0-1.10,13660,List2A,black,woman,,,,null,,,,
null,are touching each other,,html-keyboard-response,407,1267672,0.0-19.0-2.10,13660,List2A,black,woman,,,,null,,,,
7275,,,survey-text,408,1274949,0.0-19.0-3.10,13660,List2A,black,woman,,,,,"{""Q0"":""ruth and luke are touching each other""}","<img src=""stim_listA/touch2.gif""</stim_listA>",are touching each other,
null,"<div style=""font-size:60px;"">+</div>",,html-keyboard-response,409,1275450,0.0-19.0-0.11,13660,List2A,black,woman,,,,null,,,,
null,"<img src=""stim_listA/kiss6.gif""</stim_listA>",,html-keyboard-response,410,1277451,0.0-19.0-1.11,13660,List2A,black,woman,,,,null,,,,
null,are kissing each other,,html-keyboard-response,411,1279453,0.0-19.0-2.11,13660,List2A,black,woman,,,,null,,,,
6223,,,survey-text,412,1285678,0.0-19.0-3.11,13660,List2A,black,woman,,,,,"{""Q0"":""mike and dave are kissing each other""}","<img src=""stim_listA/kiss6.gif""</stim_listA>",are kissing each other,
null,"<div style=""font-size:60px;"">+</div>",,html-keyboard-response,413,1286179,0.0-19.0-0.12,13660,List2A,black,woman,,,,null,,,,
null,"<img src=""stim_listA/shout3.gif""</stim_listA>",,html-keyboard-response,414,1288181,0.0-19.0-1.12,13660,List2A,black,woman,,,,null,,,,
null,is shouting at,,html-keyboard-response,415,1290182,0.0-19.0-2.12,13660,List2A,black,woman,,,,null,,,,
7045,,,survey-text,416,1297228,0.0-19.0-3.12,13660,List2A,black,woman,,,,,"{""Q0"":""fred is shouting at beth""}","<img src=""stim_listA/shout3.gif""</stim_listA>",is shouting at,
null,"<div style=""font-size:60px;"">+</div>",,html-keyboard-response,417,1297729,0.0-19.0-0.13,13660,List2A,black,woman,,,,null,,,,
null,"<img src=""stim_listA/marry1.gif""</stim_listA>",,html-keyboard-response,418,1299731,0.0-19.0-1.13,13660,List2A,black,woman,,,,null,,,,
null,is marrying,,html-keyboard-response,419,1301732,0.0-19.0-2.13,13660,List2A,black,woman,,,,null,,,,
5081,,,survey-text,420,1306814,0.0-19.0-3.13,13660,List2A,black,woman,,,,,"{""Q0"":""dave is marrying ruth""}","<img src=""stim_listA/marry1.gif""</stim_listA>",is marrying,
null,"<div style=""font-size:60px;"">+</div>",,html-keyboard-response,421,1307315,0.0-19.0-0.14,13660,List2A,black,woman,,,,null,,,,
null,"<img src=""stim_listA/marry7.gif""</stim_listA>",,html-keyboard-response,422,1309316,0.0-19.0-1.14,13660,List2A,black,woman,,,,null,,,,
null,is marrying,,html-keyboard-response,423,1311318,0.0-19.0-2.14,13660,List2A,black,woman,,,,null,,,,
6161,,,survey-text,424,1317480,0.0-19.0-3.14,13660,List2A,black,woman,,,,,"{""Q0"":""jane is marrying beth""}","<img src=""stim_listA/marry7.gif""</stim_listA>",is marrying,
null,"<div style=""font-size:60px;"">+</div>",,html-keyboard-response,425,1317982,0.0-19.0-0.15,13660,List2A,black,woman,,,,null,,,,
null,"<img src=""stim_listA/talk8.gif""</stim_listA>",,html-keyboard-response,426,1319983,0.0-19.0-1.15,13660,List2A,black,woman,,,,null,,,,
null,are talking to each other,,html-keyboard-response,427,1321986,0.0-19.0-2.15,13660,List2A,black,woman,,,,null,,,,
8048,,,survey-text,428,1330034,0.0-19.0-3.15,13660,List2A,black,woman,,,,,"{""Q0"":""beth and jane are talking to each other""}","<img src=""stim_listA/talk8.gif""</stim_listA>",are talking to each other,
null,"<div style=""font-size:60px;"">+</div>",,html-keyboard-response,429,1330536,0.0-19.0-0.16,13660,List2A,black,woman,,,,null,,,,
null,"<img src=""stim_listA/hug2.gif""</stim_listA>",,html-keyboard-response,430,1332538,0.0-19.0-1.16,13660,List2A,black,woman,,,,null,,,,
null,are hugging each other,,html-keyboard-response,431,1334540,0.0-19.0-2.16,13660,List2A,black,woman,,,,null,,,,
7092,,,survey-text,432,1341633,0.0-19.0-3.16,13660,List2A,black,woman,,,,,"{""Q0"":""jane and dave are hugging each other""}","<img src=""stim_listA/hug2.gif""</stim_listA>",are hugging each other,
null,"<div style=""font-size:60px;"">+</div>",,html-keyboard-response,433,1342134,0.0-19.0-0.17,13660,List2A,black,woman,,,,null,,,,
null,"<img src=""stim_listA/fight1.gif""</stim_listA>",,html-keyboard-response,434,1344136,0.0-19.0-1.17,13660,List2A,black,woman,,,,null,,,,
null,is fighting,,html-keyboard-response,435,1346139,0.0-19.0-2.17,13660,List2A,black,woman,,,,null,,,,
5225,,,survey-text,436,1351365,0.0-19.0-3.17,13660,List2A,black,woman,,,,,"{""Q0"":""dave is fighting jane""}","<img src=""stim_listA/fight1.gif""</stim_listA>",is fighting,
null,"<div style=""font-size:60px;"">+</div>",,html-keyboard-response,437,1351866,0.0-19.0-0.18,13660,List2A,black,woman,,,,null,,,,
null,"<img src=""stim_listA/fight3.gif""</stim_listA>",,html-keyboard-response,438,1353867,0.0-19.0-1.18,13660,List2A,black,woman,,,,null,,,,
null,is fighting,,html-keyboard-response,439,1355869,0.0-19.0-2.18,13660,List2A,black,woman,,,,null,,,,
5321,,,survey-text,440,1361191,0.0-19.0-3.18,13660,List2A,black,woman,,,,,"{""Q0"":""mike is fighting kate""}","<img src=""stim_listA/fight3.gif""</stim_listA>",is fighting,
null,"<div style=""font-size:60px;"">+</div>",,html-keyboard-response,441,1361692,0.0-19.0-0.19,13660,List2A,black,woman,,,,null,,,,
null,"<img src=""stim_listA/meet3.gif""</stim_listA>",,html-keyboard-response,442,1363693,0.0-19.0-1.19,13660,List2A,black,woman,,,,null,,,,
null,is meeting,,html-keyboard-response,443,1365695,0.0-19.0-2.19,13660,List2A,black,woman,,,,null,,,,
8687,,,survey-text,444,1374383,0.0-19.0-3.19,13660,List2A,black,woman,,,,,"{""Q0"":""mike is meeting kate""}","<img src=""stim_listA/meet3.gif""</stim_listA>",is meeting,
1803,<p>Thank you for completing that task.</p><p>The final part of this session is a short questionnaire.</p><p>Press Continue.</p>,0,html-button-response,445,1376187,0.0-20.0,13660,List2A,black,woman,,,,,,,,
21784,,,survey-text,446,1398973,0.0-21.0,13660,List2A,black,woman,,,,,"{""Q0"":""28"",""Q1"":""English"",""Q2"":""English"",""Q3"":""United Kingdom"",""Q4"":""Black "",""Q5"":""Female""}",,,demographics
29912,,,survey-likert,447,1428890,0.0-22.0,13660,List2A,black,woman,,,,,"{""Q0"":5,""Q1"":5,""Q2"":6,""Q3"":6,""Q4"":5,""Q5"":5,""Q6"":5,""Q7"":3,""Q8"":5,""Q9"":5,""Q10"":5,""Q11"":3,""Q12"":5,""Q13"":4}",,,likert_race
18795,,,survey-likert,448,1447689,0.0-23.0,13660,List2A,black,woman,,,,,"{""Q0"":5,""Q1"":5,""Q2"":5,""Q3"":5,""Q4"":5,""Q5"":5,""Q6"":5,""Q7"":2,""Q8"":3,""Q9"":3,""Q10"":3,""Q11"":3,""Q12"":3,""Q13"":3}",,,likert_gender
3756,,,survey-text,449,1451446,0.0-24.0,13660,List2A,black,woman,,,,,"{""Q0"":""ccc""}",,,worker_id
23415,,,external-html,450,1474954,0.0-25.0,13660,List2A,black,woman,debrief.html,,,,,,,
