rt,stimulus,button_pressed,trial_type,trial_index,time_elapsed,internal_node_id,subject,list,ppt_race,ppt_gender,url,first_guess,correct,key_press,responses,image_type,phrase_type,test_part
2253,Welcome to the experiment. Press Continue to begin.,0,html-button-response,0,2256,0.0-0.0,13860,List1B,black,woman,,,,,,,,
15085,,,external-html,1,18481,0.0-1.0,13860,List1B,black,woman,consent.html,,,,,,,
21290,"<p>On the next page, you will see portraits of 8 people and their names.</p><p>Your first task is to take a few minutes to memorise the names of these people.</p><p>You will have to recall their names during the rest of the experiment, so it is</p><p>essential that you try to memorise these people and their names as best as you can.</p><br><p><strong>You will then be tested on your memory of these names and portraits.</strong></p><br><p>The experiment will start after you have completed this memory test.</p><br><p>Ready?</p>",0,html-button-response,2,39773,0.0-2.0,13860,List1B,black,woman,,,,,,,,
55356,"<img src='img/portrait_matrix_list1.JPG' style='width:900px;height:500px;''></img><p>If you have memorised all the portraits and names and are ready to start, press Continue.</p><p><strong>Please note: Your memory of these faces will be tested 4 times during this experiment.</strong></p>",0,html-button-response,3,96131,0.0-3.0-0.0,13860,List1B,black,woman,,,,,,,,
3059,"<img src=""portrait/WM1.jpg""style=""width:400px;height:400px;""></img>",6,html-button-response,4,100194,0.0-3.0-1.0,13860,List1B,black,woman,,TRUE,6,,,,,
null,CORRECT,,html-keyboard-response,5,101700,0.0-3.0-2.0-0.0,13860,List1B,black,woman,,,,null,,,,
3682,"<img src=""portrait/WW2.jpg""style=""width:400px;height:400px;""></img>",3,html-button-response,6,105384,0.0-3.0-4.0,13860,List1B,black,woman,,TRUE,3,,,,,
null,CORRECT,,html-keyboard-response,7,106888,0.0-3.0-5.0-0.0,13860,List1B,black,woman,,,,null,,,,
11915,"<img src=""portrait/WM2.jpg""style=""width:400px;height:400px;""></img>",7,html-button-response,8,118805,0.0-3.0-7.0,13860,List1B,black,woman,,TRUE,7,,,,,
null,CORRECT,,html-keyboard-response,9,120307,0.0-3.0-8.0-0.0,13860,List1B,black,woman,,,,null,,,,
5022,"<img src=""portrait/BW1.jpg""style=""width:400px;height:400px;""></img>",0,html-button-response,10,125331,0.0-3.0-10.0,13860,List1B,black,woman,,TRUE,0,,,,,
null,CORRECT,,html-keyboard-response,11,126834,0.0-3.0-11.0-0.0,13860,List1B,black,woman,,,,null,,,,
4126,"<img src=""portrait/WW1.jpg""style=""width:400px;height:400px;""></img>",1,html-button-response,12,130961,0.0-3.0-13.0,13860,List1B,black,woman,,TRUE,1,,,,,
null,CORRECT,,html-keyboard-response,13,132463,0.0-3.0-14.0-0.0,13860,List1B,black,woman,,,,null,,,,
4971,"<img src=""portrait/BM1.jpg""style=""width:400px;height:400px;""></img>",4,html-button-response,14,137435,0.0-3.0-16.0,13860,List1B,black,woman,,TRUE,4,,,,,
null,CORRECT,,html-keyboard-response,15,138937,0.0-3.0-17.0-0.0,13860,List1B,black,woman,,,,null,,,,
2088,"<img src=""portrait/BW2.jpg""style=""width:400px;height:400px;""></img>",2,html-button-response,16,141027,0.0-3.0-19.0,13860,List1B,black,woman,,TRUE,2,,,,,
null,CORRECT,,html-keyboard-response,17,142529,0.0-3.0-20.0-0.0,13860,List1B,black,woman,,,,null,,,,
2185,"<img src=""portrait/BM2.jpg""style=""width:400px;height:400px;""></img>",5,html-button-response,18,144715,0.0-3.0-22.0,13860,List1B,black,woman,,TRUE,5,,,,,
null,CORRECT,,html-keyboard-response,19,146218,0.0-3.0-23.0-0.0,13860,List1B,black,woman,,,,null,,,,
1885,<p>You got 8 out of 8 right first time. Press Continue.</p>,0,html-button-response,20,148105,0.0-3.0-25.0,13860,List1B,black,woman,,,,,,,,
40751,"<p>In this experiment, you will view photographs of the people from the memory game interacting.</p><p>By using the <strong>exact</strong> phrase given <i>after</i> the photograph appears and recalling the correct names of the people in the photographs, form a sentence describing the interaction. You do not need to capitalise names.</p><p>Type your answer in the space provided. Please complete every sentence before moving onto the next trial.</p><p>You will only have a few seconds to memorise each given photograph and phrase before you can respond, so try your best to focus.</p><p>An example is given below. Press 'Continue' when you are ready.</p><img src='img/speaking_example_v2.jpg' style='width:800px;height:460px;''></img>",0,html-button-response,21,189859,0.0-4.0,13860,List1B,black,woman,,,,,,,,
2220,"<p>Before the experiment starts, you will watch two example trials. Press 'Continue'.</p>",0,html-button-response,22,193083,0.0-5.0,13860,List1B,black,woman,,,,,,,,
null,<img src='img/speaking_WW.gif'></img>,,html-keyboard-response,23,196084,0.0-6.0,13860,List1B,black,woman,,,,null,,,,
null,<p>is speaking to</p>,,html-keyboard-response,24,198086,0.0-7.0,13860,List1B,black,woman,,,,null,,,,
2904,<p><b>Answer:</b> kate is speaking to beth</p>,0,html-button-response,25,200991,0.0-8.0,13860,List1B,black,woman,,,,,,,,
null,<img src='img/pointing_BM.gif'></img>,,html-keyboard-response,26,203996,0.0-9.0,13860,List1B,black,woman,,,,null,,,,
null,<p>are pointing at each other</p>,,html-keyboard-response,27,205999,0.0-10.0,13860,List1B,black,woman,,,,null,,,,
6546,<p><b>Answer:</b> luke and dave are pointing at each other</p>,0,html-button-response,28,212547,0.0-11.0,13860,List1B,black,woman,,,,,,,,
7288,"<p>Ready to start the experiment?</p><br><p><strong>Remember to describe the picture using a full sentence,</strong></p><p><strong>that combines the names of the people with the given phrase.</strong></p><p><strong>If you do not do this correctly you will not be paid.</strong></p><p><strong> You do not need to capitalise names or use punctuation.</strong></p><br><p>Press 'Continue' to begin.</p>",0,html-button-response,29,220837,0.0-12.0,13860,List1B,black,woman,,,,,,,,
null,"<div style=""font-size:60px;"">+</div>",,html-keyboard-response,30,222339,0.0-13.0-0.0,13860,List1B,black,woman,,,,null,,,,
null,"<img src=""stim_listB/meet4.gif""</stim_listB>",,html-keyboard-response,31,224340,0.0-13.0-1.0,13860,List1B,black,woman,,,,null,,,,
null,are meeting each other,,html-keyboard-response,32,226342,0.0-13.0-2.0,13860,List1B,black,woman,,,,null,,,,
27573,,,survey-text,33,253917,0.0-13.0-3.0,13860,List1B,black,woman,,,,,"{""Q0"":""Luke and Ruth are meeting each other""}","<img src=""stim_listB/meet4.gif""</stim_listB>",are meeting each other,
null,"<div style=""font-size:60px;"">+</div>",,html-keyboard-response,34,254419,0.0-13.0-0.1,13860,List1B,black,woman,,,,null,,,,
null,"<img src=""stim_listB/argue6.gif""</stim_listB>",,html-keyboard-response,35,256421,0.0-13.0-1.1,13860,List1B,black,woman,,,,null,,,,
null,are arguing with each other,,html-keyboard-response,36,258422,0.0-13.0-2.1,13860,List1B,black,woman,,,,null,,,,
9884,,,survey-text,37,268307,0.0-13.0-3.1,13860,List1B,black,woman,,,,,"{""Q0"":""Dave and Fred are arguing with each other""}","<img src=""stim_listB/argue6.gif""</stim_listB>",are arguing with each other,
null,"<div style=""font-size:60px;"">+</div>",,html-keyboard-response,38,268810,0.0-13.0-0.2,13860,List1B,black,woman,,,,null,,,,
null,"<img src=""stim_listB/dance7.gif""</stim_listB>",,html-keyboard-response,39,270813,0.0-13.0-1.2,13860,List1B,black,woman,,,,null,,,,
null,is dancing with,,html-keyboard-response,40,272814,0.0-13.0-2.2,13860,List1B,black,woman,,,,null,,,,
13358,,,survey-text,41,286172,0.0-13.0-3.2,13860,List1B,black,woman,,,,,"{""Q0"":""Jane is dancing with Beth""}","<img src=""stim_listB/dance7.gif""</stim_listB>",is dancing with,
null,"<div style=""font-size:60px;"">+</div>",,html-keyboard-response,42,286675,0.0-13.0-0.3,13860,List1B,black,woman,,,,null,,,,
null,"<img src=""stim_listB/argue4.gif""</stim_listB>",,html-keyboard-response,43,288677,0.0-13.0-1.3,13860,List1B,black,woman,,,,null,,,,
null,are arguing with each other,,html-keyboard-response,44,290678,0.0-13.0-2.3,13860,List1B,black,woman,,,,null,,,,
14994,,,survey-text,45,305673,0.0-13.0-3.3,13860,List1B,black,woman,,,,,"{""Q0"":""Dave and Jane are arguing with each other""}","<img src=""stim_listB/argue4.gif""</stim_listB>",are arguing with each other,
null,"<div style=""font-size:60px;"">+</div>",,html-keyboard-response,46,306175,0.0-13.0-0.4,13860,List1B,black,woman,,,,null,,,,
null,"<img src=""stim_listB/marry7.gif""</stim_listB>",,html-keyboard-response,47,308178,0.0-13.0-1.4,13860,List1B,black,woman,,,,null,,,,
null,is marrying,,html-keyboard-response,48,310179,0.0-13.0-2.4,13860,List1B,black,woman,,,,null,,,,
22141,,,survey-text,49,332321,0.0-13.0-3.4,13860,List1B,black,woman,,,,,"{""Q0"":""Ruth is marrying Kate""}","<img src=""stim_listB/marry7.gif""</stim_listB>",is marrying,
null,"<div style=""font-size:60px;"">+</div>",,html-keyboard-response,50,332823,0.0-13.0-0.5,13860,List1B,black,woman,,,,null,,,,
null,"<img src=""stim_listB/kiss5.gif""</stim_listB>",,html-keyboard-response,51,334825,0.0-13.0-1.5,13860,List1B,black,woman,,,,null,,,,
null,is kissing,,html-keyboard-response,52,336826,0.0-13.0-2.5,13860,List1B,black,woman,,,,null,,,,
6660,,,survey-text,53,343487,0.0-13.0-3.5,13860,List1B,black,woman,,,,,"{""Q0"":""Dave is kissing Fred""}","<img src=""stim_listB/kiss5.gif""</stim_listB>",is kissing,
null,"<div style=""font-size:60px;"">+</div>",,html-keyboard-response,54,343989,0.0-13.0-0.6,13860,List1B,black,woman,,,,null,,,,
null,"<img src=""stim_listB/marry2.gif""</stim_listB>",,html-keyboard-response,55,345992,0.0-13.0-1.6,13860,List1B,black,woman,,,,null,,,,
null,are marrying each other,,html-keyboard-response,56,347993,0.0-13.0-2.6,13860,List1B,black,woman,,,,null,,,,
11529,,,survey-text,57,359523,0.0-13.0-3.6,13860,List1B,black,woman,,,,,"{""Q0"":""Fred and Kate are marrying each other""}","<img src=""stim_listB/marry2.gif""</stim_listB>",are marrying each other,
null,"<div style=""font-size:60px;"">+</div>",,html-keyboard-response,58,360024,0.0-13.0-0.7,13860,List1B,black,woman,,,,null,,,,
null,"<img src=""stim_listB/shout4.gif""</stim_listB>",,html-keyboard-response,59,362028,0.0-13.0-1.7,13860,List1B,black,woman,,,,null,,,,
null,are shouting at each other,,html-keyboard-response,60,364030,0.0-13.0-2.7,13860,List1B,black,woman,,,,null,,,,
11421,,,survey-text,61,375453,0.0-13.0-3.7,13860,List1B,black,woman,,,,,"{""Q0"":""Dave and Jane are shouting at each other""}","<img src=""stim_listB/shout4.gif""</stim_listB>",are shouting at each other,
null,"<div style=""font-size:60px;"">+</div>",,html-keyboard-response,62,375955,0.0-13.0-0.8,13860,List1B,black,woman,,,,null,,,,
null,"<img src=""stim_listB/touch6.gif""</stim_listB>",,html-keyboard-response,63,377958,0.0-13.0-1.8,13860,List1B,black,woman,,,,null,,,,
null,are touching each other,,html-keyboard-response,64,379960,0.0-13.0-2.8,13860,List1B,black,woman,,,,null,,,,
10303,,,survey-text,65,390265,0.0-13.0-3.8,13860,List1B,black,woman,,,,,"{""Q0"":""Fred and Dave are touching each other""}","<img src=""stim_listB/touch6.gif""</stim_listB>",are touching each other,
null,"<div style=""font-size:60px;"">+</div>",,html-keyboard-response,66,390768,0.0-13.0-0.9,13860,List1B,black,woman,,,,null,,,,
null,"<img src=""stim_listB/dance6.gif""</stim_listB>",,html-keyboard-response,67,392771,0.0-13.0-1.9,13860,List1B,black,woman,,,,null,,,,
null,are dancing with each other,,html-keyboard-response,68,394772,0.0-13.0-2.9,13860,List1B,black,woman,,,,null,,,,
9901,,,survey-text,69,404673,0.0-13.0-3.9,13860,List1B,black,woman,,,,,"{""Q0"":""Mike and dave are dancing with each other""}","<img src=""stim_listB/dance6.gif""</stim_listB>",are dancing with each other,
null,"<div style=""font-size:60px;"">+</div>",,html-keyboard-response,70,405174,0.0-13.0-0.10,13860,List1B,black,woman,,,,null,,,,
null,"<img src=""stim_listB/shout2.gif""</stim_listB>",,html-keyboard-response,71,407177,0.0-13.0-1.10,13860,List1B,black,woman,,,,null,,,,
null,are shouting at each other,,html-keyboard-response,72,409179,0.0-13.0-2.10,13860,List1B,black,woman,,,,null,,,,
10603,,,survey-text,73,419783,0.0-13.0-3.10,13860,List1B,black,woman,,,,,"{""Q0"":""Mike and Kate are shouting at each other""}","<img src=""stim_listB/shout2.gif""</stim_listB>",are shouting at each other,
null,"<div style=""font-size:60px;"">+</div>",,html-keyboard-response,74,420285,0.0-13.0-0.11,13860,List1B,black,woman,,,,null,,,,
null,"<img src=""stim_listB/dance5.gif""</stim_listB>",,html-keyboard-response,75,422288,0.0-13.0-1.11,13860,List1B,black,woman,,,,null,,,,
null,is dancing with,,html-keyboard-response,76,424290,0.0-13.0-2.11,13860,List1B,black,woman,,,,null,,,,
9154,,,survey-text,77,433445,0.0-13.0-3.11,13860,List1B,black,woman,,,,,"{""Q0"":""Dave is dancing with Fred""}","<img src=""stim_listB/dance5.gif""</stim_listB>",is dancing with,
null,"<div style=""font-size:60px;"">+</div>",,html-keyboard-response,78,433947,0.0-13.0-0.12,13860,List1B,black,woman,,,,null,,,,
null,"<img src=""stim_listB/argue7.gif""</stim_listB>",,html-keyboard-response,79,435948,0.0-13.0-1.12,13860,List1B,black,woman,,,,null,,,,
null,is arguing with,,html-keyboard-response,80,437949,0.0-13.0-2.12,13860,List1B,black,woman,,,,null,,,,
7126,,,survey-text,81,445077,0.0-13.0-3.12,13860,List1B,black,woman,,,,,"{""Q0"":""Ruth is arguing with Kate""}","<img src=""stim_listB/argue7.gif""</stim_listB>",is arguing with,
null,"<div style=""font-size:60px;"">+</div>",,html-keyboard-response,82,445580,0.0-13.0-0.13,13860,List1B,black,woman,,,,null,,,,
null,"<img src=""stim_listB/touch3.gif""</stim_listB>",,html-keyboard-response,83,447582,0.0-13.0-1.13,13860,List1B,black,woman,,,,null,,,,
null,is touching,,html-keyboard-response,84,449583,0.0-13.0-2.13,13860,List1B,black,woman,,,,null,,,,
7403,,,survey-text,85,456986,0.0-13.0-3.13,13860,List1B,black,woman,,,,,"{""Q0"":""Jane is touching Luke""}","<img src=""stim_listB/touch3.gif""</stim_listB>",is touching,
null,"<div style=""font-size:60px;"">+</div>",,html-keyboard-response,86,457488,0.0-13.0-0.14,13860,List1B,black,woman,,,,null,,,,
null,"<img src=""stim_listB/dance2.gif""</stim_listB>",,html-keyboard-response,87,459491,0.0-13.0-1.14,13860,List1B,black,woman,,,,null,,,,
null,are dancing with each other,,html-keyboard-response,88,461492,0.0-13.0-2.14,13860,List1B,black,woman,,,,null,,,,
13171,,,survey-text,89,474665,0.0-13.0-3.14,13860,List1B,black,woman,,,,,"{""Q0"":""Mike and Beth are dancing with each other""}","<img src=""stim_listB/dance2.gif""</stim_listB>",are dancing with each other,
null,"<div style=""font-size:60px;"">+</div>",,html-keyboard-response,90,475167,0.0-13.0-0.15,13860,List1B,black,woman,,,,null,,,,
null,"<img src=""stim_listB/meet2.gif""</stim_listB>",,html-keyboard-response,91,477170,0.0-13.0-1.15,13860,List1B,black,woman,,,,null,,,,
null,are meeting each other,,html-keyboard-response,92,479172,0.0-13.0-2.15,13860,List1B,black,woman,,,,null,,,,
10673,,,survey-text,93,489846,0.0-13.0-3.15,13860,List1B,black,woman,,,,,"{""Q0"":""Fred and Beth are meeting each other""}","<img src=""stim_listB/meet2.gif""</stim_listB>",are meeting each other,
null,"<div style=""font-size:60px;"">+</div>",,html-keyboard-response,94,490348,0.0-13.0-0.16,13860,List1B,black,woman,,,,null,,,,
null,"<img src=""stim_listB/kiss3.gif""</stim_listB>",,html-keyboard-response,95,492349,0.0-13.0-1.16,13860,List1B,black,woman,,,,null,,,,
null,is kissing,,html-keyboard-response,96,494352,0.0-13.0-2.16,13860,List1B,black,woman,,,,null,,,,
10791,,,survey-text,97,505144,0.0-13.0-3.16,13860,List1B,black,woman,,,,,"{""Q0"":""Dave is kissing Ruth""}","<img src=""stim_listB/kiss3.gif""</stim_listB>",is kissing,
null,"<div style=""font-size:60px;"">+</div>",,html-keyboard-response,98,505646,0.0-13.0-0.17,13860,List1B,black,woman,,,,null,,,,
null,"<img src=""stim_listB/meet1.gif""</stim_listB>",,html-keyboard-response,99,507648,0.0-13.0-1.17,13860,List1B,black,woman,,,,null,,,,
null,is meeting,,html-keyboard-response,100,509650,0.0-13.0-2.17,13860,List1B,black,woman,,,,null,,,,
6477,,,survey-text,101,516128,0.0-13.0-3.17,13860,List1B,black,woman,,,,,"{""Q0"":""Kate is meeting Mike""}","<img src=""stim_listB/meet1.gif""</stim_listB>",is meeting,
null,"<div style=""font-size:60px;"">+</div>",,html-keyboard-response,102,516630,0.0-13.0-0.18,13860,List1B,black,woman,,,,null,,,,
null,"<img src=""stim_listB/dance8.gif""</stim_listB>",,html-keyboard-response,103,518633,0.0-13.0-1.18,13860,List1B,black,woman,,,,null,,,,
null,are dancing with each other,,html-keyboard-response,104,520634,0.0-13.0-2.18,13860,List1B,black,woman,,,,null,,,,
8875,,,survey-text,105,529510,0.0-13.0-3.18,13860,List1B,black,woman,,,,,"{""Q0"":""Ruth and Kate are dancing with each other""}","<img src=""stim_listB/dance8.gif""</stim_listB>",are dancing with each other,
null,"<div style=""font-size:60px;"">+</div>",,html-keyboard-response,106,530012,0.0-13.0-0.19,13860,List1B,black,woman,,,,null,,,,
null,"<img src=""stim_listB/marry4.gif""</stim_listB>",,html-keyboard-response,107,532014,0.0-13.0-1.19,13860,List1B,black,woman,,,,null,,,,
null,are marrying each other,,html-keyboard-response,108,534015,0.0-13.0-2.19,13860,List1B,black,woman,,,,null,,,,
14249,,,survey-text,109,548265,0.0-13.0-3.19,13860,List1B,black,woman,,,,,"{""Q0"":""Dave and Jane are marrying each other""}","<img src=""stim_listB/marry4.gif""</stim_listB>",are marrying each other,
18689,"<img src='img/portrait_matrix_list1.JPG' style='width:900px;height:500px;''></img><p>If you have memorised all the portraits and names and are ready to start, press Continue.</p><p><strong>Please note: Your memory of these faces will be tested 4 times during this experiment.</strong></p>",0,html-button-response,110,566955,0.0-14.0-0.0,13860,List1B,black,woman,,,,,,,,
3795,"<img src=""portrait/BW1.jpg""style=""width:400px;height:400px;""></img>",0,html-button-response,111,571753,0.0-14.0-1.0,13860,List1B,black,woman,,TRUE,0,,,,,
null,CORRECT,,html-keyboard-response,112,573256,0.0-14.0-2.0-0.0,13860,List1B,black,woman,,,,null,,,,
2285,"<img src=""portrait/WM1.jpg""style=""width:400px;height:400px;""></img>",6,html-button-response,113,575543,0.0-14.0-4.0,13860,List1B,black,woman,,TRUE,6,,,,,
null,CORRECT,,html-keyboard-response,114,577047,0.0-14.0-5.0-0.0,13860,List1B,black,woman,,,,null,,,,
1908,"<img src=""portrait/WM2.jpg""style=""width:400px;height:400px;""></img>",7,html-button-response,115,578957,0.0-14.0-7.0,13860,List1B,black,woman,,TRUE,7,,,,,
null,CORRECT,,html-keyboard-response,116,580461,0.0-14.0-8.0-0.0,13860,List1B,black,woman,,,,null,,,,
3754,"<img src=""portrait/BM1.jpg""style=""width:400px;height:400px;""></img>",4,html-button-response,117,584217,0.0-14.0-10.0,13860,List1B,black,woman,,TRUE,4,,,,,
null,CORRECT,,html-keyboard-response,118,585719,0.0-14.0-11.0-0.0,13860,List1B,black,woman,,,,null,,,,
2851,"<img src=""portrait/BW2.jpg""style=""width:400px;height:400px;""></img>",2,html-button-response,119,588572,0.0-14.0-13.0,13860,List1B,black,woman,,TRUE,2,,,,,
null,CORRECT,,html-keyboard-response,120,590074,0.0-14.0-14.0-0.0,13860,List1B,black,woman,,,,null,,,,
2152,"<img src=""portrait/BM2.jpg""style=""width:400px;height:400px;""></img>",5,html-button-response,121,592227,0.0-14.0-16.0,13860,List1B,black,woman,,TRUE,5,,,,,
null,CORRECT,,html-keyboard-response,122,593730,0.0-14.0-17.0-0.0,13860,List1B,black,woman,,,,null,,,,
1689,"<img src=""portrait/WW2.jpg""style=""width:400px;height:400px;""></img>",3,html-button-response,123,595421,0.0-14.0-19.0,13860,List1B,black,woman,,TRUE,3,,,,,
null,CORRECT,,html-keyboard-response,124,596923,0.0-14.0-20.0-0.0,13860,List1B,black,woman,,,,null,,,,
1542,"<img src=""portrait/WW1.jpg""style=""width:400px;height:400px;""></img>",1,html-button-response,125,598467,0.0-14.0-22.0,13860,List1B,black,woman,,TRUE,1,,,,,
null,CORRECT,,html-keyboard-response,126,599969,0.0-14.0-23.0-0.0,13860,List1B,black,woman,,,,null,,,,
2176,<p>You got 8 out of 8 right first time. Press Continue.</p>,0,html-button-response,127,602147,0.0-14.0-25.0,13860,List1B,black,woman,,,,,,,,
null,"<div style=""font-size:60px;"">+</div>",,html-keyboard-response,128,603652,0.0-15.0-0.0,13860,List1B,black,woman,,,,null,,,,
null,"<img src=""stim_listB/talk5.gif""</stim_listB>",,html-keyboard-response,129,605655,0.0-15.0-1.0,13860,List1B,black,woman,,,,null,,,,
null,is talking to,,html-keyboard-response,130,607658,0.0-15.0-2.0,13860,List1B,black,woman,,,,null,,,,
14722,,,survey-text,131,622381,0.0-15.0-3.0,13860,List1B,black,woman,,,,,"{""Q0"":""Fred is talking with Dave""}","<img src=""stim_listB/talk5.gif""</stim_listB>",is talking to,
null,"<div style=""font-size:60px;"">+</div>",,html-keyboard-response,132,622883,0.0-15.0-0.1,13860,List1B,black,woman,,,,null,,,,
null,"<img src=""stim_listB/fight5.gif""</stim_listB>",,html-keyboard-response,133,624886,0.0-15.0-1.1,13860,List1B,black,woman,,,,null,,,,
null,is fighting,,html-keyboard-response,134,626889,0.0-15.0-2.1,13860,List1B,black,woman,,,,null,,,,
17167,,,survey-text,135,644058,0.0-15.0-3.1,13860,List1B,black,woman,,,,,"{""Q0"":""Dave is fightng Mike""}","<img src=""stim_listB/fight5.gif""</stim_listB>",is fighting,
null,"<div style=""font-size:60px;"">+</div>",,html-keyboard-response,136,644560,0.0-15.0-0.2,13860,List1B,black,woman,,,,null,,,,
null,"<img src=""stim_listB/shout7.gif""</stim_listB>",,html-keyboard-response,137,646562,0.0-15.0-1.2,13860,List1B,black,woman,,,,null,,,,
null,is shouting at,,html-keyboard-response,138,648563,0.0-15.0-2.2,13860,List1B,black,woman,,,,null,,,,
8739,,,survey-text,139,657303,0.0-15.0-3.2,13860,List1B,black,woman,,,,,"{""Q0"":""Ruth is shouting at Beth""}","<img src=""stim_listB/shout7.gif""</stim_listB>",is shouting at,
null,"<div style=""font-size:60px;"">+</div>",,html-keyboard-response,140,657806,0.0-15.0-0.3,13860,List1B,black,woman,,,,null,,,,
null,"<img src=""stim_listB/fight1.gif""</stim_listB>",,html-keyboard-response,141,659809,0.0-15.0-1.3,13860,List1B,black,woman,,,,null,,,,
null,is fighting,,html-keyboard-response,142,661811,0.0-15.0-2.3,13860,List1B,black,woman,,,,null,,,,
7408,,,survey-text,143,669221,0.0-15.0-3.3,13860,List1B,black,woman,,,,,"{""Q0"":""Kate is fighting Mike""}","<img src=""stim_listB/fight1.gif""</stim_listB>",is fighting,
null,"<div style=""font-size:60px;"">+</div>",,html-keyboard-response,144,669724,0.0-15.0-0.4,13860,List1B,black,woman,,,,null,,,,
null,"<img src=""stim_listB/talk7.gif""</stim_listB>",,html-keyboard-response,145,671726,0.0-15.0-1.4,13860,List1B,black,woman,,,,null,,,,
null,is talking to,,html-keyboard-response,146,673727,0.0-15.0-2.4,13860,List1B,black,woman,,,,null,,,,
5713,,,survey-text,147,679441,0.0-15.0-3.4,13860,List1B,black,woman,,,,,"{""Q0"":""Jane is talking to Beth""}","<img src=""stim_listB/talk7.gif""</stim_listB>",is talking to,
null,"<div style=""font-size:60px;"">+</div>",,html-keyboard-response,148,679942,0.0-15.0-0.5,13860,List1B,black,woman,,,,null,,,,
null,"<img src=""stim_listB/marry6.gif""</stim_listB>",,html-keyboard-response,149,681946,0.0-15.0-1.5,13860,List1B,black,woman,,,,null,,,,
null,are marrying each other,,html-keyboard-response,150,683947,0.0-15.0-2.5,13860,List1B,black,woman,,,,null,,,,
19934,,,survey-text,151,703883,0.0-15.0-3.5,13860,List1B,black,woman,,,,,"{""Q0"":""Fred and Dave are talking with each other""}","<img src=""stim_listB/marry6.gif""</stim_listB>",are marrying each other,
null,"<div style=""font-size:60px;"">+</div>",,html-keyboard-response,152,704384,0.0-15.0-0.6,13860,List1B,black,woman,,,,null,,,,
null,"<img src=""stim_listB/touch7.gif""</stim_listB>",,html-keyboard-response,153,706386,0.0-15.0-1.6,13860,List1B,black,woman,,,,null,,,,
null,is touching,,html-keyboard-response,154,708387,0.0-15.0-2.6,13860,List1B,black,woman,,,,null,,,,
6779,,,survey-text,155,715167,0.0-15.0-3.6,13860,List1B,black,woman,,,,,"{""Q0"":""Jane is touching Kate""}","<img src=""stim_listB/touch7.gif""</stim_listB>",is touching,
null,"<div style=""font-size:60px;"">+</div>",,html-keyboard-response,156,715669,0.0-15.0-0.7,13860,List1B,black,woman,,,,null,,,,
null,"<img src=""stim_listB/argue5.gif""</stim_listB>",,html-keyboard-response,157,717672,0.0-15.0-1.7,13860,List1B,black,woman,,,,null,,,,
null,is arguing with,,html-keyboard-response,158,719673,0.0-15.0-2.7,13860,List1B,black,woman,,,,null,,,,
7075,,,survey-text,159,726749,0.0-15.0-3.7,13860,List1B,black,woman,,,,,"{""Q0"":""Luke is arguing with Mike""}","<img src=""stim_listB/argue5.gif""</stim_listB>",is arguing with,
null,"<div style=""font-size:60px;"">+</div>",,html-keyboard-response,160,727251,0.0-15.0-0.8,13860,List1B,black,woman,,,,null,,,,
null,"<img src=""stim_listB/marry1.gif""</stim_listB>",,html-keyboard-response,161,729254,0.0-15.0-1.8,13860,List1B,black,woman,,,,null,,,,
null,is marrying,,html-keyboard-response,162,731255,0.0-15.0-2.8,13860,List1B,black,woman,,,,null,,,,
6618,,,survey-text,163,737875,0.0-15.0-3.8,13860,List1B,black,woman,,,,,"{""Q0"":""Mike is marrying Beth""}","<img src=""stim_listB/marry1.gif""</stim_listB>",is marrying,
null,"<div style=""font-size:60px;"">+</div>",,html-keyboard-response,164,738377,0.0-15.0-0.9,13860,List1B,black,woman,,,,null,,,,
null,"<img src=""stim_listB/dance3.gif""</stim_listB>",,html-keyboard-response,165,740379,0.0-15.0-1.9,13860,List1B,black,woman,,,,null,,,,
null,is dancing with,,html-keyboard-response,166,742381,0.0-15.0-2.9,13860,List1B,black,woman,,,,null,,,,
6338,,,survey-text,167,748721,0.0-15.0-3.9,13860,List1B,black,woman,,,,,"{""Q0"":""Luke is dancing with Jane""}","<img src=""stim_listB/dance3.gif""</stim_listB>",is dancing with,
null,"<div style=""font-size:60px;"">+</div>",,html-keyboard-response,168,749222,0.0-15.0-0.10,13860,List1B,black,woman,,,,null,,,,
null,"<img src=""stim_listB/dance1.gif""</stim_listB>",,html-keyboard-response,169,751225,0.0-15.0-1.10,13860,List1B,black,woman,,,,null,,,,
null,is dancing with,,html-keyboard-response,170,753227,0.0-15.0-2.10,13860,List1B,black,woman,,,,null,,,,
7435,,,survey-text,171,760663,0.0-15.0-3.10,13860,List1B,black,woman,,,,,"{""Q0"":""Kate is dancing with Fred""}","<img src=""stim_listB/dance1.gif""</stim_listB>",is dancing with,
null,"<div style=""font-size:60px;"">+</div>",,html-keyboard-response,172,761164,0.0-15.0-0.11,13860,List1B,black,woman,,,,null,,,,
null,"<img src=""stim_listB/hug7.gif""</stim_listB>",,html-keyboard-response,173,763166,0.0-15.0-1.11,13860,List1B,black,woman,,,,null,,,,
null,is hugging,,html-keyboard-response,174,765168,0.0-15.0-2.11,13860,List1B,black,woman,,,,null,,,,
5698,,,survey-text,175,770867,0.0-15.0-3.11,13860,List1B,black,woman,,,,,"{""Q0"":""Ruth is hugging Beth""}","<img src=""stim_listB/hug7.gif""</stim_listB>",is hugging,
null,"<div style=""font-size:60px;"">+</div>",,html-keyboard-response,176,771369,0.0-15.0-0.12,13860,List1B,black,woman,,,,null,,,,
null,"<img src=""stim_listB/hug6.gif""</stim_listB>",,html-keyboard-response,177,773371,0.0-15.0-1.12,13860,List1B,black,woman,,,,null,,,,
null,are hugging each other,,html-keyboard-response,178,775373,0.0-15.0-2.12,13860,List1B,black,woman,,,,null,,,,
7795,,,survey-text,179,783168,0.0-15.0-3.12,13860,List1B,black,woman,,,,,"{""Q0"":""Mike is hugging Dave""}","<img src=""stim_listB/hug6.gif""</stim_listB>",are hugging each other,
null,"<div style=""font-size:60px;"">+</div>",,html-keyboard-response,180,783671,0.0-15.0-0.13,13860,List1B,black,woman,,,,null,,,,
null,"<img src=""stim_listB/argue8.gif""</stim_listB>",,html-keyboard-response,181,785673,0.0-15.0-1.13,13860,List1B,black,woman,,,,null,,,,
null,are arguing with each other,,html-keyboard-response,182,787675,0.0-15.0-2.13,13860,List1B,black,woman,,,,null,,,,
12618,,,survey-text,183,800294,0.0-15.0-3.13,13860,List1B,black,woman,,,,,"{""Q0"":""Beth and Jane are arguing with each other""}","<img src=""stim_listB/argue8.gif""</stim_listB>",are arguing with each other,
null,"<div style=""font-size:60px;"">+</div>",,html-keyboard-response,184,800797,0.0-15.0-0.14,13860,List1B,black,woman,,,,null,,,,
null,"<img src=""stim_listB/shout1.gif""</stim_listB>",,html-keyboard-response,185,802798,0.0-15.0-1.14,13860,List1B,black,woman,,,,null,,,,
null,is shouting at,,html-keyboard-response,186,804799,0.0-15.0-2.14,13860,List1B,black,woman,,,,null,,,,
5832,,,survey-text,187,810632,0.0-15.0-3.14,13860,List1B,black,woman,,,,,"{""Q0"":""Beth is shouting at Fred""}","<img src=""stim_listB/shout1.gif""</stim_listB>",is shouting at,
null,"<div style=""font-size:60px;"">+</div>",,html-keyboard-response,188,811133,0.0-15.0-0.15,13860,List1B,black,woman,,,,null,,,,
null,"<img src=""stim_listB/argue3.gif""</stim_listB>",,html-keyboard-response,189,813140,0.0-15.0-1.15,13860,List1B,black,woman,,,,null,,,,
null,is arguing with,,html-keyboard-response,190,815141,0.0-15.0-2.15,13860,List1B,black,woman,,,,null,,,,
9821,,,survey-text,191,824963,0.0-15.0-3.15,13860,List1B,black,woman,,,,,"{""Q0"":""Ruth is arguing with Dave""}","<img src=""stim_listB/argue3.gif""</stim_listB>",is arguing with,
null,"<div style=""font-size:60px;"">+</div>",,html-keyboard-response,192,825465,0.0-15.0-0.16,13860,List1B,black,woman,,,,null,,,,
null,"<img src=""stim_listB/argue1.gif""</stim_listB>",,html-keyboard-response,193,827469,0.0-15.0-1.16,13860,List1B,black,woman,,,,null,,,,
null,is arguing with,,html-keyboard-response,194,829472,0.0-15.0-2.16,13860,List1B,black,woman,,,,null,,,,
9163,,,survey-text,195,838636,0.0-15.0-3.16,13860,List1B,black,woman,,,,,"{""Q0"":""Beth is arguing with Mike""}","<img src=""stim_listB/argue1.gif""</stim_listB>",is arguing with,
null,"<div style=""font-size:60px;"">+</div>",,html-keyboard-response,196,839137,0.0-15.0-0.17,13860,List1B,black,woman,,,,null,,,,
null,"<img src=""stim_listB/marry3.gif""</stim_listB>",,html-keyboard-response,197,841141,0.0-15.0-1.17,13860,List1B,black,woman,,,,null,,,,
null,is marrying,,html-keyboard-response,198,843142,0.0-15.0-2.17,13860,List1B,black,woman,,,,null,,,,
7137,,,survey-text,199,850280,0.0-15.0-3.17,13860,List1B,black,woman,,,,,"{""Q0"":""Dave is marrying Ruth""}","<img src=""stim_listB/marry3.gif""</stim_listB>",is marrying,
null,"<div style=""font-size:60px;"">+</div>",,html-keyboard-response,200,850782,0.0-15.0-0.18,13860,List1B,black,woman,,,,null,,,,
null,"<img src=""stim_listB/fight7.gif""</stim_listB>",,html-keyboard-response,201,852785,0.0-15.0-1.18,13860,List1B,black,woman,,,,null,,,,
null,is fighting,,html-keyboard-response,202,854786,0.0-15.0-2.18,13860,List1B,black,woman,,,,null,,,,
8545,,,survey-text,203,863333,0.0-15.0-3.18,13860,List1B,black,woman,,,,,"{""Q0"":""Jane is fighting Kate""}","<img src=""stim_listB/fight7.gif""</stim_listB>",is fighting,
null,"<div style=""font-size:60px;"">+</div>",,html-keyboard-response,204,863834,0.0-15.0-0.19,13860,List1B,black,woman,,,,null,,,,
null,"<img src=""stim_listB/shout5.gif""</stim_listB>",,html-keyboard-response,205,865837,0.0-15.0-1.19,13860,List1B,black,woman,,,,null,,,,
null,is shouting at,,html-keyboard-response,206,867839,0.0-15.0-2.19,13860,List1B,black,woman,,,,null,,,,
7253,,,survey-text,207,875093,0.0-15.0-3.19,13860,List1B,black,woman,,,,,"{""Q0"":""Luke is shouting at Fred""}","<img src=""stim_listB/shout5.gif""</stim_listB>",is shouting at,
4345,"<img src='img/portrait_matrix_list1.JPG' style='width:900px;height:500px;''></img><p>If you have memorised all the portraits and names and are ready to start, press Continue.</p><p><strong>Please note: Your memory of these faces will be tested 4 times during this experiment.</strong></p>",0,html-button-response,208,879439,0.0-16.0-0.0,13860,List1B,black,woman,,,,,,,,
1377,"<img src=""portrait/BM1.jpg""style=""width:400px;height:400px;""></img>",4,html-button-response,209,881819,0.0-16.0-1.0,13860,List1B,black,woman,,TRUE,4,,,,,
null,CORRECT,,html-keyboard-response,210,883323,0.0-16.0-2.0-0.0,13860,List1B,black,woman,,,,null,,,,
3372,"<img src=""portrait/WW1.jpg""style=""width:400px;height:400px;""></img>",1,html-button-response,211,886697,0.0-16.0-4.0,13860,List1B,black,woman,,TRUE,1,,,,,
null,CORRECT,,html-keyboard-response,212,888200,0.0-16.0-5.0-0.0,13860,List1B,black,woman,,,,null,,,,
2025,"<img src=""portrait/WM2.jpg""style=""width:400px;height:400px;""></img>",7,html-button-response,213,890227,0.0-16.0-7.0,13860,List1B,black,woman,,TRUE,7,,,,,
null,CORRECT,,html-keyboard-response,214,891729,0.0-16.0-8.0-0.0,13860,List1B,black,woman,,,,null,,,,
1534,"<img src=""portrait/BW2.jpg""style=""width:400px;height:400px;""></img>",2,html-button-response,215,893265,0.0-16.0-10.0,13860,List1B,black,woman,,TRUE,2,,,,,
null,CORRECT,,html-keyboard-response,216,894768,0.0-16.0-11.0-0.0,13860,List1B,black,woman,,,,null,,,,
1690,"<img src=""portrait/BW1.jpg""style=""width:400px;height:400px;""></img>",0,html-button-response,217,896459,0.0-16.0-13.0,13860,List1B,black,woman,,TRUE,0,,,,,
null,CORRECT,,html-keyboard-response,218,897962,0.0-16.0-14.0-0.0,13860,List1B,black,woman,,,,null,,,,
1761,"<img src=""portrait/WW2.jpg""style=""width:400px;height:400px;""></img>",3,html-button-response,219,899725,0.0-16.0-16.0,13860,List1B,black,woman,,TRUE,3,,,,,
null,CORRECT,,html-keyboard-response,220,901231,0.0-16.0-17.0-0.0,13860,List1B,black,woman,,,,null,,,,
2306,"<img src=""portrait/WM1.jpg""style=""width:400px;height:400px;""></img>",6,html-button-response,221,903540,0.0-16.0-19.0,13860,List1B,black,woman,,TRUE,6,,,,,
null,CORRECT,,html-keyboard-response,222,905045,0.0-16.0-20.0-0.0,13860,List1B,black,woman,,,,null,,,,
3651,"<img src=""portrait/BM2.jpg""style=""width:400px;height:400px;""></img>",5,html-button-response,223,908699,0.0-16.0-22.0,13860,List1B,black,woman,,TRUE,5,,,,,
null,CORRECT,,html-keyboard-response,224,910202,0.0-16.0-23.0-0.0,13860,List1B,black,woman,,,,null,,,,
1300,<p>You got 8 out of 8 right first time. Press Continue.</p>,0,html-button-response,225,911503,0.0-16.0-25.0,13860,List1B,black,woman,,,,,,,,
null,"<div style=""font-size:60px;"">+</div>",,html-keyboard-response,226,913009,0.0-17.0-0.0,13860,List1B,black,woman,,,,null,,,,
null,"<img src=""stim_listB/meet7.gif""</stim_listB>",,html-keyboard-response,227,915010,0.0-17.0-1.0,13860,List1B,black,woman,,,,null,,,,
null,is meeting,,html-keyboard-response,228,917012,0.0-17.0-2.0,13860,List1B,black,woman,,,,null,,,,
10222,,,survey-text,229,927235,0.0-17.0-3.0,13860,List1B,black,woman,,,,,"{""Q0"":""jane is meeting kate""}","<img src=""stim_listB/meet7.gif""</stim_listB>",is meeting,
null,"<div style=""font-size:60px;"">+</div>",,html-keyboard-response,230,927736,0.0-17.0-0.1,13860,List1B,black,woman,,,,null,,,,
null,"<img src=""stim_listB/hug3.gif""</stim_listB>",,html-keyboard-response,231,929738,0.0-17.0-1.1,13860,List1B,black,woman,,,,null,,,,
null,is hugging,,html-keyboard-response,232,931740,0.0-17.0-2.1,13860,List1B,black,woman,,,,null,,,,
6536,,,survey-text,233,938277,0.0-17.0-3.1,13860,List1B,black,woman,,,,,"{""Q0"":""Ruth is hugging luke""}","<img src=""stim_listB/hug3.gif""</stim_listB>",is hugging,
null,"<div style=""font-size:60px;"">+</div>",,html-keyboard-response,234,938778,0.0-17.0-0.2,13860,List1B,black,woman,,,,null,,,,
null,"<img src=""stim_listB/kiss8.gif""</stim_listB>",,html-keyboard-response,235,940781,0.0-17.0-1.2,13860,List1B,black,woman,,,,null,,,,
null,are kissing each other,,html-keyboard-response,236,942783,0.0-17.0-2.2,13860,List1B,black,woman,,,,null,,,,
8735,,,survey-text,237,951519,0.0-17.0-3.2,13860,List1B,black,woman,,,,,"{""Q0"":""jane and kate are kissing each other""}","<img src=""stim_listB/kiss8.gif""</stim_listB>",are kissing each other,
null,"<div style=""font-size:60px;"">+</div>",,html-keyboard-response,238,952021,0.0-17.0-0.3,13860,List1B,black,woman,,,,null,,,,
null,"<img src=""stim_listB/hug5.gif""</stim_listB>",,html-keyboard-response,239,954024,0.0-17.0-1.3,13860,List1B,black,woman,,,,null,,,,
null,is hugging,,html-keyboard-response,240,956025,0.0-17.0-2.3,13860,List1B,black,woman,,,,null,,,,
6588,,,survey-text,241,962615,0.0-17.0-3.3,13860,List1B,black,woman,,,,,"{""Q0"":""luke is hugging fred""}","<img src=""stim_listB/hug5.gif""</stim_listB>",is hugging,
null,"<div style=""font-size:60px;"">+</div>",,html-keyboard-response,242,963116,0.0-17.0-0.4,13860,List1B,black,woman,,,,null,,,,
null,"<img src=""stim_listB/kiss7.gif""</stim_listB>",,html-keyboard-response,243,965117,0.0-17.0-1.4,13860,List1B,black,woman,,,,null,,,,
null,is kissing,,html-keyboard-response,244,967118,0.0-17.0-2.4,13860,List1B,black,woman,,,,null,,,,
6764,,,survey-text,245,973882,0.0-17.0-3.4,13860,List1B,black,woman,,,,,"{""Q0"":""ruth is kissing beth""}","<img src=""stim_listB/kiss7.gif""</stim_listB>",is kissing,
null,"<div style=""font-size:60px;"">+</div>",,html-keyboard-response,246,974384,0.0-17.0-0.5,13860,List1B,black,woman,,,,null,,,,
null,"<img src=""stim_listB/kiss4.gif""</stim_listB>",,html-keyboard-response,247,976385,0.0-17.0-1.5,13860,List1B,black,woman,,,,null,,,,
null,are kissing each other,,html-keyboard-response,248,978386,0.0-17.0-2.5,13860,List1B,black,woman,,,,null,,,,
10413,,,survey-text,249,988800,0.0-17.0-3.5,13860,List1B,black,woman,,,,,"{""Q0"":""dave and jane are kissing each other""}","<img src=""stim_listB/kiss4.gif""</stim_listB>",are kissing each other,
null,"<div style=""font-size:60px;"">+</div>",,html-keyboard-response,250,989305,0.0-17.0-0.6,13860,List1B,black,woman,,,,null,,,,
null,"<img src=""stim_listB/touch5.gif""</stim_listB>",,html-keyboard-response,251,991307,0.0-17.0-1.6,13860,List1B,black,woman,,,,null,,,,
null,is touching,,html-keyboard-response,252,993308,0.0-17.0-2.6,13860,List1B,black,woman,,,,null,,,,
7683,,,survey-text,253,1000992,0.0-17.0-3.6,13860,List1B,black,woman,,,,,"{""Q0"":""mike is touching dave""}","<img src=""stim_listB/touch5.gif""</stim_listB>",is touching,
null,"<div style=""font-size:60px;"">+</div>",,html-keyboard-response,254,1001494,0.0-17.0-0.7,13860,List1B,black,woman,,,,null,,,,
null,"<img src=""stim_listB/kiss2.gif""</stim_listB>",,html-keyboard-response,255,1003496,0.0-17.0-1.7,13860,List1B,black,woman,,,,null,,,,
null,are kissing each other,,html-keyboard-response,256,1005498,0.0-17.0-2.7,13860,List1B,black,woman,,,,null,,,,
11433,,,survey-text,257,1016932,0.0-17.0-3.7,13860,List1B,black,woman,,,,,"{""Q0"":""mike and kate are kissing each other""}","<img src=""stim_listB/kiss2.gif""</stim_listB>",are kissing each other,
null,"<div style=""font-size:60px;"">+</div>",,html-keyboard-response,258,1017435,0.0-17.0-0.8,13860,List1B,black,woman,,,,null,,,,
null,"<img src=""stim_listB/fight2.gif""</stim_listB>",,html-keyboard-response,259,1019437,0.0-17.0-1.8,13860,List1B,black,woman,,,,null,,,,
null,are fighting each other,,html-keyboard-response,260,1021439,0.0-17.0-2.8,13860,List1B,black,woman,,,,null,,,,
10824,,,survey-text,261,1032265,0.0-17.0-3.8,13860,List1B,black,woman,,,,,"{""Q0"":""fred and beth are fighting each other""}","<img src=""stim_listB/fight2.gif""</stim_listB>",are fighting each other,
null,"<div style=""font-size:60px;"">+</div>",,html-keyboard-response,262,1032766,0.0-17.0-0.9,13860,List1B,black,woman,,,,null,,,,
null,"<img src=""stim_listB/touch8.gif""</stim_listB>",,html-keyboard-response,263,1034768,0.0-17.0-1.9,13860,List1B,black,woman,,,,null,,,,
null,are touching each other,,html-keyboard-response,264,1036769,0.0-17.0-2.9,13860,List1B,black,woman,,,,null,,,,
10128,,,survey-text,265,1046899,0.0-17.0-3.9,13860,List1B,black,woman,,,,,"{""Q0"":""beth and ruth are touching each other""}","<img src=""stim_listB/touch8.gif""</stim_listB>",are touching each other,
null,"<div style=""font-size:60px;"">+</div>",,html-keyboard-response,266,1047400,0.0-17.0-0.10,13860,List1B,black,woman,,,,null,,,,
null,"<img src=""stim_listB/fight6.gif""</stim_listB>",,html-keyboard-response,267,1049402,0.0-17.0-1.10,13860,List1B,black,woman,,,,null,,,,
null,are fighting each other,,html-keyboard-response,268,1051403,0.0-17.0-2.10,13860,List1B,black,woman,,,,null,,,,
8323,,,survey-text,269,1059727,0.0-17.0-3.10,13860,List1B,black,woman,,,,,"{""Q0"":""fred and luke are fighting each other""}","<img src=""stim_listB/fight6.gif""</stim_listB>",are fighting each other,
null,"<div style=""font-size:60px;"">+</div>",,html-keyboard-response,270,1060228,0.0-17.0-0.11,13860,List1B,black,woman,,,,null,,,,
null,"<img src=""stim_listB/fight3.gif""</stim_listB>",,html-keyboard-response,271,1062230,0.0-17.0-1.11,13860,List1B,black,woman,,,,null,,,,
null,is fighting,,html-keyboard-response,272,1064231,0.0-17.0-2.11,13860,List1B,black,woman,,,,null,,,,
7951,,,survey-text,273,1072183,0.0-17.0-3.11,13860,List1B,black,woman,,,,,"{""Q0"":""jane is fighting dave""}","<img src=""stim_listB/fight3.gif""</stim_listB>",is fighting,
null,"<div style=""font-size:60px;"">+</div>",,html-keyboard-response,274,1072684,0.0-17.0-0.12,13860,List1B,black,woman,,,,null,,,,
null,"<img src=""stim_listB/meet8.gif""</stim_listB>",,html-keyboard-response,275,1074686,0.0-17.0-1.12,13860,List1B,black,woman,,,,null,,,,
null,are meeting each other,,html-keyboard-response,276,1076688,0.0-17.0-2.12,13860,List1B,black,woman,,,,null,,,,
14518,,,survey-text,277,1091207,0.0-17.0-3.12,13860,List1B,black,woman,,,,,"{""Q0"":""beth and ruth are meeting each other""}","<img src=""stim_listB/meet8.gif""</stim_listB>",are meeting each other,
null,"<div style=""font-size:60px;"">+</div>",,html-keyboard-response,278,1091708,0.0-17.0-0.13,13860,List1B,black,woman,,,,null,,,,
null,"<img src=""stim_listB/talk2.gif""</stim_listB>",,html-keyboard-response,279,1093710,0.0-17.0-1.13,13860,List1B,black,woman,,,,null,,,,
null,are talking to each other,,html-keyboard-response,280,1095713,0.0-17.0-2.13,13860,List1B,black,woman,,,,null,,,,
14230,,,survey-text,281,1109944,0.0-17.0-3.13,13860,List1B,black,woman,,,,,"{""Q0"":""mike and beth are talking to each other""}","<img src=""stim_listB/talk2.gif""</stim_listB>",are talking to each other,
null,"<div style=""font-size:60px;"">+</div>",,html-keyboard-response,282,1110447,0.0-17.0-0.14,13860,List1B,black,woman,,,,null,,,,
null,"<img src=""stim_listB/marry8.gif""</stim_listB>",,html-keyboard-response,283,1112450,0.0-17.0-1.14,13860,List1B,black,woman,,,,null,,,,
null,are marrying each other,,html-keyboard-response,284,1114451,0.0-17.0-2.14,13860,List1B,black,woman,,,,null,,,,
9854,,,survey-text,285,1124306,0.0-17.0-3.14,13860,List1B,black,woman,,,,,"{""Q0"":""beth and jane are marrying each other""}","<img src=""stim_listB/marry8.gif""</stim_listB>",are marrying each other,
null,"<div style=""font-size:60px;"">+</div>",,html-keyboard-response,286,1124810,0.0-17.0-0.15,13860,List1B,black,woman,,,,null,,,,
null,"<img src=""stim_listB/kiss1.gif""</stim_listB>",,html-keyboard-response,287,1126812,0.0-17.0-1.15,13860,List1B,black,woman,,,,null,,,,
null,is kissing,,html-keyboard-response,288,1128815,0.0-17.0-2.15,13860,List1B,black,woman,,,,null,,,,
10194,,,survey-text,289,1139010,0.0-17.0-3.15,13860,List1B,black,woman,,,,,"{""Q0"":""beth is kissing fred""}","<img src=""stim_listB/kiss1.gif""</stim_listB>",is kissing,
null,"<div style=""font-size:60px;"">+</div>",,html-keyboard-response,290,1139511,0.0-17.0-0.16,13860,List1B,black,woman,,,,null,,,,
null,"<img src=""stim_listB/hug4.gif""</stim_listB>",,html-keyboard-response,291,1141512,0.0-17.0-1.16,13860,List1B,black,woman,,,,null,,,,
null,are hugging each other,,html-keyboard-response,292,1143513,0.0-17.0-2.16,13860,List1B,black,woman,,,,null,,,,
13066,,,survey-text,293,1156581,0.0-17.0-3.16,13860,List1B,black,woman,,,,,"{""Q0"":""dave and jane are hugging each other""}","<img src=""stim_listB/hug4.gif""</stim_listB>",are hugging each other,
null,"<div style=""font-size:60px;"">+</div>",,html-keyboard-response,294,1157084,0.0-17.0-0.17,13860,List1B,black,woman,,,,null,,,,
null,"<img src=""stim_listB/touch1.gif""</stim_listB>",,html-keyboard-response,295,1159086,0.0-17.0-1.17,13860,List1B,black,woman,,,,null,,,,
null,is touching,,html-keyboard-response,296,1161087,0.0-17.0-2.17,13860,List1B,black,woman,,,,null,,,,
6526,,,survey-text,297,1167615,0.0-17.0-3.17,13860,List1B,black,woman,,,,,"{""Q0"":""kate is touching mike""}","<img src=""stim_listB/touch1.gif""</stim_listB>",is touching,
null,"<div style=""font-size:60px;"">+</div>",,html-keyboard-response,298,1168116,0.0-17.0-0.18,13860,List1B,black,woman,,,,null,,,,
null,"<img src=""stim_listB/talk6.gif""</stim_listB>",,html-keyboard-response,299,1170118,0.0-17.0-1.18,13860,List1B,black,woman,,,,null,,,,
null,are talking to each other,,html-keyboard-response,300,1172120,0.0-17.0-2.18,13860,List1B,black,woman,,,,null,,,,
11163,,,survey-text,301,1183285,0.0-17.0-3.18,13860,List1B,black,woman,,,,,"{""Q0"":""mike and luke are talking to each other""}","<img src=""stim_listB/talk6.gif""</stim_listB>",are talking to each other,
null,"<div style=""font-size:60px;"">+</div>",,html-keyboard-response,302,1183787,0.0-17.0-0.19,13860,List1B,black,woman,,,,null,,,,
null,"<img src=""stim_listB/talk8.gif""</stim_listB>",,html-keyboard-response,303,1185790,0.0-17.0-1.19,13860,List1B,black,woman,,,,null,,,,
null,are talking to each other,,html-keyboard-response,304,1187792,0.0-17.0-2.19,13860,List1B,black,woman,,,,null,,,,
8915,,,survey-text,305,1196709,0.0-17.0-3.19,13860,List1B,black,woman,,,,,"{""Q0"":""kate and ruth are talking to each other""}","<img src=""stim_listB/talk8.gif""</stim_listB>",are talking to each other,
1604,"<img src='img/portrait_matrix_list1.JPG' style='width:900px;height:500px;''></img><p>If you have memorised all the portraits and names and are ready to start, press Continue.</p><p><strong>Please note: Your memory of these faces will be tested 4 times during this experiment.</strong></p>",0,html-button-response,306,1198315,0.0-18.0-0.0,13860,List1B,black,woman,,,,,,,,
2702,"<img src=""portrait/BM1.jpg""style=""width:400px;height:400px;""></img>",4,html-button-response,307,1202019,0.0-18.0-1.0,13860,List1B,black,woman,,TRUE,4,,,,,
null,CORRECT,,html-keyboard-response,308,1203522,0.0-18.0-2.0-0.0,13860,List1B,black,woman,,,,null,,,,
1964,"<img src=""portrait/BM2.jpg""style=""width:400px;height:400px;""></img>",5,html-button-response,309,1205488,0.0-18.0-4.0,13860,List1B,black,woman,,TRUE,5,,,,,
null,CORRECT,,html-keyboard-response,310,1206990,0.0-18.0-5.0-0.0,13860,List1B,black,woman,,,,null,,,,
1511,"<img src=""portrait/BW2.jpg""style=""width:400px;height:400px;""></img>",2,html-button-response,311,1208502,0.0-18.0-7.0,13860,List1B,black,woman,,TRUE,2,,,,,
null,CORRECT,,html-keyboard-response,312,1210006,0.0-18.0-8.0-0.0,13860,List1B,black,woman,,,,null,,,,
1862,"<img src=""portrait/WM1.jpg""style=""width:400px;height:400px;""></img>",6,html-button-response,313,1211870,0.0-18.0-10.0,13860,List1B,black,woman,,TRUE,6,,,,,
null,CORRECT,,html-keyboard-response,314,1213373,0.0-18.0-11.0-0.0,13860,List1B,black,woman,,,,null,,,,
1386,"<img src=""portrait/WW2.jpg""style=""width:400px;height:400px;""></img>",3,html-button-response,315,1214761,0.0-18.0-13.0,13860,List1B,black,woman,,TRUE,3,,,,,
null,CORRECT,,html-keyboard-response,316,1216264,0.0-18.0-14.0-0.0,13860,List1B,black,woman,,,,null,,,,
1244,"<img src=""portrait/BW1.jpg""style=""width:400px;height:400px;""></img>",0,html-button-response,317,1217510,0.0-18.0-16.0,13860,List1B,black,woman,,TRUE,0,,,,,
null,CORRECT,,html-keyboard-response,318,1219012,0.0-18.0-17.0-0.0,13860,List1B,black,woman,,,,null,,,,
1567,"<img src=""portrait/WM2.jpg""style=""width:400px;height:400px;""></img>",7,html-button-response,319,1220580,0.0-18.0-19.0,13860,List1B,black,woman,,TRUE,7,,,,,
null,CORRECT,,html-keyboard-response,320,1222082,0.0-18.0-20.0-0.0,13860,List1B,black,woman,,,,null,,,,
837,"<img src=""portrait/WW1.jpg""style=""width:400px;height:400px;""></img>",1,html-button-response,321,1222920,0.0-18.0-22.0,13860,List1B,black,woman,,TRUE,1,,,,,
null,CORRECT,,html-keyboard-response,322,1224424,0.0-18.0-23.0-0.0,13860,List1B,black,woman,,,,null,,,,
1393,<p>You got 8 out of 8 right first time. Press Continue.</p>,0,html-button-response,323,1225818,0.0-18.0-25.0,13860,List1B,black,woman,,,,,,,,
null,"<div style=""font-size:60px;"">+</div>",,html-keyboard-response,324,1227321,0.0-19.0-0.0,13860,List1B,black,woman,,,,null,,,,
null,"<img src=""stim_listB/marry5.gif""</stim_listB>",,html-keyboard-response,325,1229323,0.0-19.0-1.0,13860,List1B,black,woman,,,,null,,,,
null,is marrying,,html-keyboard-response,326,1231325,0.0-19.0-2.0,13860,List1B,black,woman,,,,null,,,,
9232,,,survey-text,327,1240558,0.0-19.0-3.0,13860,List1B,black,woman,,,,,"{""Q0"":""luke is marrying mike""}","<img src=""stim_listB/marry5.gif""</stim_listB>",is marrying,
null,"<div style=""font-size:60px;"">+</div>",,html-keyboard-response,328,1241060,0.0-19.0-0.1,13860,List1B,black,woman,,,,null,,,,
null,"<img src=""stim_listB/touch2.gif""</stim_listB>",,html-keyboard-response,329,1243063,0.0-19.0-1.1,13860,List1B,black,woman,,,,null,,,,
null,are touching each other,,html-keyboard-response,330,1245065,0.0-19.0-2.1,13860,List1B,black,woman,,,,null,,,,
9707,,,survey-text,331,1254772,0.0-19.0-3.1,13860,List1B,black,woman,,,,,"{""Q0"":""fred and beth are touching each other""}","<img src=""stim_listB/touch2.gif""</stim_listB>",are touching each other,
null,"<div style=""font-size:60px;"">+</div>",,html-keyboard-response,332,1255275,0.0-19.0-0.2,13860,List1B,black,woman,,,,null,,,,
null,"<img src=""stim_listB/talk1.gif""</stim_listB>",,html-keyboard-response,333,1257277,0.0-19.0-1.2,13860,List1B,black,woman,,,,null,,,,
null,is talking to,,html-keyboard-response,334,1259279,0.0-19.0-2.2,13860,List1B,black,woman,,,,null,,,,
9384,,,survey-text,335,1268664,0.0-19.0-3.2,13860,List1B,black,woman,,,,,"{""Q0"":""kate is talking to fred""}","<img src=""stim_listB/talk1.gif""</stim_listB>",is talking to,
null,"<div style=""font-size:60px;"">+</div>",,html-keyboard-response,336,1269166,0.0-19.0-0.3,13860,List1B,black,woman,,,,null,,,,
null,"<img src=""stim_listB/dance4.gif""</stim_listB>",,html-keyboard-response,337,1271167,0.0-19.0-1.3,13860,List1B,black,woman,,,,null,,,,
null,are dancing with each other,,html-keyboard-response,338,1273168,0.0-19.0-2.3,13860,List1B,black,woman,,,,null,,,,
10821,,,survey-text,339,1283990,0.0-19.0-3.3,13860,List1B,black,woman,,,,,"{""Q0"":""dave and ruth are dancing with each other""}","<img src=""stim_listB/dance4.gif""</stim_listB>",are dancing with each other,
null,"<div style=""font-size:60px;"">+</div>",,html-keyboard-response,340,1284492,0.0-19.0-0.4,13860,List1B,black,woman,,,,null,,,,
null,"<img src=""stim_listB/hug1.gif""</stim_listB>",,html-keyboard-response,341,1286494,0.0-19.0-1.4,13860,List1B,black,woman,,,,null,,,,
null,is hugging,,html-keyboard-response,342,1288496,0.0-19.0-2.4,13860,List1B,black,woman,,,,null,,,,
7547,,,survey-text,343,1296044,0.0-19.0-3.4,13860,List1B,black,woman,,,,,"{""Q0"":""fred is hugging beth""}","<img src=""stim_listB/hug1.gif""</stim_listB>",is hugging,
null,"<div style=""font-size:60px;"">+</div>",,html-keyboard-response,344,1296546,0.0-19.0-0.5,13860,List1B,black,woman,,,,null,,,,
null,"<img src=""stim_listB/argue2.gif""</stim_listB>",,html-keyboard-response,345,1298549,0.0-19.0-1.5,13860,List1B,black,woman,,,,null,,,,
null,are arguing with each other,,html-keyboard-response,346,1300550,0.0-19.0-2.5,13860,List1B,black,woman,,,,null,,,,
18058,,,survey-text,347,1318608,0.0-19.0-3.5,13860,List1B,black,woman,,,,,"{""Q0"":""fred and kate are arguing with each other""}","<img src=""stim_listB/argue2.gif""</stim_listB>",are arguing with each other,
null,"<div style=""font-size:60px;"">+</div>",,html-keyboard-response,348,1319110,0.0-19.0-0.6,13860,List1B,black,woman,,,,null,,,,
null,"<img src=""stim_listB/meet5.gif""</stim_listB>",,html-keyboard-response,349,1321112,0.0-19.0-1.6,13860,List1B,black,woman,,,,null,,,,
null,is meeting,,html-keyboard-response,350,1323115,0.0-19.0-2.6,13860,List1B,black,woman,,,,null,,,,
16074,,,survey-text,351,1339190,0.0-19.0-3.6,13860,List1B,black,woman,,,,,"{""Q0"":""dave is meeting mike""}","<img src=""stim_listB/meet5.gif""</stim_listB>",is meeting,
null,"<div style=""font-size:60px;"">+</div>",,html-keyboard-response,352,1339692,0.0-19.0-0.7,13860,List1B,black,woman,,,,null,,,,
null,"<img src=""stim_listB/fight4.gif""</stim_listB>",,html-keyboard-response,353,1341694,0.0-19.0-1.7,13860,List1B,black,woman,,,,null,,,,
null,are fighting each other,,html-keyboard-response,354,1343696,0.0-19.0-2.7,13860,List1B,black,woman,,,,null,,,,
9482,,,survey-text,355,1353178,0.0-19.0-3.7,13860,List1B,black,woman,,,,,"{""Q0"":""luke and ruth are fighting each other""}","<img src=""stim_listB/fight4.gif""</stim_listB>",are fighting each other,
null,"<div style=""font-size:60px;"">+</div>",,html-keyboard-response,356,1353681,0.0-19.0-0.8,13860,List1B,black,woman,,,,null,,,,
null,"<img src=""stim_listB/shout6.gif""</stim_listB>",,html-keyboard-response,357,1355684,0.0-19.0-1.8,13860,List1B,black,woman,,,,null,,,,
null,are shouting at each other,,html-keyboard-response,358,1357685,0.0-19.0-2.8,13860,List1B,black,woman,,,,null,,,,
10418,,,survey-text,359,1368105,0.0-19.0-3.8,13860,List1B,black,woman,,,,,"{""Q0"":""mike and dave are shouting at each other""}","<img src=""stim_listB/shout6.gif""</stim_listB>",are shouting at each other,
null,"<div style=""font-size:60px;"">+</div>",,html-keyboard-response,360,1368608,0.0-19.0-0.9,13860,List1B,black,woman,,,,null,,,,
null,"<img src=""stim_listB/touch4.gif""</stim_listB>",,html-keyboard-response,361,1370611,0.0-19.0-1.9,13860,List1B,black,woman,,,,null,,,,
null,are touching each other,,html-keyboard-response,362,1372614,0.0-19.0-2.9,13860,List1B,black,woman,,,,null,,,,
7760,,,survey-text,363,1380374,0.0-19.0-3.9,13860,List1B,black,woman,,,,,"{""Q0"":""luke and ruth are touching each other""}","<img src=""stim_listB/touch4.gif""</stim_listB>",are touching each other,
null,"<div style=""font-size:60px;"">+</div>",,html-keyboard-response,364,1380876,0.0-19.0-0.10,13860,List1B,black,woman,,,,null,,,,
null,"<img src=""stim_listB/shout3.gif""</stim_listB>",,html-keyboard-response,365,1382879,0.0-19.0-1.10,13860,List1B,black,woman,,,,null,,,,
null,is shouting at,,html-keyboard-response,366,1384882,0.0-19.0-2.10,13860,List1B,black,woman,,,,null,,,,
7293,,,survey-text,367,1392176,0.0-19.0-3.10,13860,List1B,black,woman,,,,,"{""Q0"":""ruth is shouting at luke""}","<img src=""stim_listB/shout3.gif""</stim_listB>",is shouting at,
null,"<div style=""font-size:60px;"">+</div>",,html-keyboard-response,368,1392677,0.0-19.0-0.11,13860,List1B,black,woman,,,,null,,,,
null,"<img src=""stim_listB/hug2.gif""</stim_listB>",,html-keyboard-response,369,1394680,0.0-19.0-1.11,13860,List1B,black,woman,,,,null,,,,
null,are hugging each other,,html-keyboard-response,370,1396680,0.0-19.0-2.11,13860,List1B,black,woman,,,,null,,,,
7617,,,survey-text,371,1404298,0.0-19.0-3.11,13860,List1B,black,woman,,,,,"{""Q0"":""kate and mike are hugging each other""}","<img src=""stim_listB/hug2.gif""</stim_listB>",are hugging each other,
null,"<div style=""font-size:60px;"">+</div>",,html-keyboard-response,372,1404799,0.0-19.0-0.12,13860,List1B,black,woman,,,,null,,,,
null,"<img src=""stim_listB/fight8.gif""</stim_listB>",,html-keyboard-response,373,1406802,0.0-19.0-1.12,13860,List1B,black,woman,,,,null,,,,
null,are fighting each other,,html-keyboard-response,374,1408803,0.0-19.0-2.12,13860,List1B,black,woman,,,,null,,,,
10054,,,survey-text,375,1418858,0.0-19.0-3.12,13860,List1B,black,woman,,,,,"{""Q0"":""beth and ruth are fighting each other""}","<img src=""stim_listB/fight8.gif""</stim_listB>",are fighting each other,
null,"<div style=""font-size:60px;"">+</div>",,html-keyboard-response,376,1419361,0.0-19.0-0.13,13860,List1B,black,woman,,,,null,,,,
null,"<img src=""stim_listB/hug8.gif""</stim_listB>",,html-keyboard-response,377,1421363,0.0-19.0-1.13,13860,List1B,black,woman,,,,null,,,,
null,are hugging each other,,html-keyboard-response,378,1423366,0.0-19.0-2.13,13860,List1B,black,woman,,,,null,,,,
12799,,,survey-text,379,1436167,0.0-19.0-3.13,13860,List1B,black,woman,,,,,"{""Q0"":""jane and kate are hugging each other""}","<img src=""stim_listB/hug8.gif""</stim_listB>",are hugging each other,
null,"<div style=""font-size:60px;"">+</div>",,html-keyboard-response,380,1436668,0.0-19.0-0.14,13860,List1B,black,woman,,,,null,,,,
null,"<img src=""stim_listB/kiss6.gif""</stim_listB>",,html-keyboard-response,381,1438670,0.0-19.0-1.14,13860,List1B,black,woman,,,,null,,,,
null,are kissing each other,,html-keyboard-response,382,1440672,0.0-19.0-2.14,13860,List1B,black,woman,,,,null,,,,
8884,,,survey-text,383,1449558,0.0-19.0-3.14,13860,List1B,black,woman,,,,,"{""Q0"":""mike and dave are kissing each other""}","<img src=""stim_listB/kiss6.gif""</stim_listB>",are kissing each other,
null,"<div style=""font-size:60px;"">+</div>",,html-keyboard-response,384,1450060,0.0-19.0-0.15,13860,List1B,black,woman,,,,null,,,,
null,"<img src=""stim_listB/meet3.gif""</stim_listB>",,html-keyboard-response,385,1452062,0.0-19.0-1.15,13860,List1B,black,woman,,,,null,,,,
null,is meeting,,html-keyboard-response,386,1454065,0.0-19.0-2.15,13860,List1B,black,woman,,,,null,,,,
7977,,,survey-text,387,1462044,0.0-19.0-3.15,13860,List1B,black,woman,,,,,"{""Q0"":""jane is meeting dave""}","<img src=""stim_listB/meet3.gif""</stim_listB>",is meeting,
null,"<div style=""font-size:60px;"">+</div>",,html-keyboard-response,388,1462545,0.0-19.0-0.16,13860,List1B,black,woman,,,,null,,,,
null,"<img src=""stim_listB/talk4.gif""</stim_listB>",,html-keyboard-response,389,1464548,0.0-19.0-1.16,13860,List1B,black,woman,,,,null,,,,
null,are talking to each other,,html-keyboard-response,390,1466551,0.0-19.0-2.16,13860,List1B,black,woman,,,,null,,,,
9848,,,survey-text,391,1476400,0.0-19.0-3.16,13860,List1B,black,woman,,,,,"{""Q0"":""ruth and dave are talking to each other""}","<img src=""stim_listB/talk4.gif""</stim_listB>",are talking to each other,
null,"<div style=""font-size:60px;"">+</div>",,html-keyboard-response,392,1476901,0.0-19.0-0.17,13860,List1B,black,woman,,,,null,,,,
null,"<img src=""stim_listB/meet6.gif""</stim_listB>",,html-keyboard-response,393,1478903,0.0-19.0-1.17,13860,List1B,black,woman,,,,null,,,,
null,are meeting each other,,html-keyboard-response,394,1480904,0.0-19.0-2.17,13860,List1B,black,woman,,,,null,,,,
7626,,,survey-text,395,1488532,0.0-19.0-3.17,13860,List1B,black,woman,,,,,"{""Q0"":""fred and luke are meeting each other""}","<img src=""stim_listB/meet6.gif""</stim_listB>",are meeting each other,
null,"<div style=""font-size:60px;"">+</div>",,html-keyboard-response,396,1489035,0.0-19.0-0.18,13860,List1B,black,woman,,,,null,,,,
null,"<img src=""stim_listB/talk3.gif""</stim_listB>",,html-keyboard-response,397,1491038,0.0-19.0-1.18,13860,List1B,black,woman,,,,null,,,,
null,is talking to,,html-keyboard-response,398,1493040,0.0-19.0-2.18,13860,List1B,black,woman,,,,null,,,,
5404,,,survey-text,399,1498446,0.0-19.0-3.18,13860,List1B,black,woman,,,,,"{""Q0"":""jane is talking to luke""}","<img src=""stim_listB/talk3.gif""</stim_listB>",is talking to,
null,"<div style=""font-size:60px;"">+</div>",,html-keyboard-response,400,1498948,0.0-19.0-0.19,13860,List1B,black,woman,,,,null,,,,
null,"<img src=""stim_listB/shout8.gif""</stim_listB>",,html-keyboard-response,401,1500951,0.0-19.0-1.19,13860,List1B,black,woman,,,,null,,,,
null,are shouting at each other,,html-keyboard-response,402,1502953,0.0-19.0-2.19,13860,List1B,black,woman,,,,null,,,,
9236,,,survey-text,403,1512190,0.0-19.0-3.19,13860,List1B,black,woman,,,,,"{""Q0"":""kate and jane are shouting at each other""}","<img src=""stim_listB/shout8.gif""</stim_listB>",are shouting at each other,
2435,<p>Thank you for completing that task.</p><p>The final part of this session is a short questionnaire.</p><p>Press Continue.</p>,0,html-button-response,404,1514626,0.0-20.0,13860,List1B,black,woman,,,,,,,,
32986,,,survey-text,405,1548614,0.0-21.0,13860,List1B,black,woman,,,,,"{""Q0"":""20"",""Q1"":""English"",""Q2"":""English"",""Q3"":""United States"",""Q4"":""Black"",""Q5"":""Female""}",,,demographics
79514,,,survey-likert,406,1628134,0.0-22.0,13860,List1B,black,woman,,,,,"{""Q0"":3,""Q1"":2,""Q2"":2,""Q3"":5,""Q4"":3,""Q5"":5,""Q6"":1,""Q7"":1,""Q8"":0,""Q9"":0,""Q10"":0,""Q11"":1,""Q12"":1,""Q13"":1}",,,likert_race
58849,,,survey-likert,407,1687004,0.0-23.0,13860,List1B,black,woman,,,,,"{""Q0"":5,""Q1"":6,""Q2"":5,""Q3"":6,""Q4"":4,""Q5"":5,""Q6"":1,""Q7"":0,""Q8"":0,""Q9"":0,""Q10"":0,""Q11"":0,""Q12"":3,""Q13"":1}",,,likert_gender
84741,,,survey-text,408,1771762,0.0-24.0,13860,List1B,black,woman,,,,,"{""Q0"":""ccc""}",,,worker_id
6873,,,external-html,409,1778887,0.0-25.0,13860,List1B,black,woman,debrief.html,,,,,,,
