rt,stimulus,button_pressed,trial_type,trial_index,time_elapsed,internal_node_id,subject,list,ppt_race,ppt_gender,url,first_guess,correct,key_press,responses,image_type,phrase_type,test_part
2381,Welcome to the experiment. Press Continue to begin.,0,html-button-response,0,2387,0.0-0.0,15196,List2B,white,man,,,,,,,,
44918,,,external-html,1,48504,0.0-1.0,15196,List2B,white,man,consent.html,,,,,,,
18190,"<p>On the next page, you will see portraits of 8 people and their names.</p><p>Your first task is to take a few minutes to memorise the names of these people.</p><p>You will have to recall their names during the rest of the experiment, so it is</p><p>essential that you try to memorise these people and their names as best as you can.</p><br><p><strong>You will then be tested on your memory of these names and portraits.</strong></p><br><p>The experiment will start after you have completed this memory test.</p><br><p>Ready?</p>",0,html-button-response,2,66699,0.0-2.0,15196,List2B,white,man,,,,,,,,
116277,"<img src='img/portrait_matrix_list2.JPG' style='width:900px;height:500px;''></img><p>If you have memorised all the portraits and names and are ready to start, press Continue.</p><p><strong>Please note: Your memory of these faces will be tested 4 times during this experiment.</strong></p>",0,html-button-response,3,183989,0.0-3.0-0.0,15196,List2B,white,man,,,,,,,,
4247,"<img src=""portrait/WM2.jpg""style=""width:400px;height:400px;""></img>",7,html-button-response,4,189254,0.0-3.0-1.0,15196,List2B,white,man,,TRUE,7,,,,,
null,CORRECT,,html-keyboard-response,5,190767,0.0-3.0-2.0-0.0,15196,List2B,white,man,,,,null,,,,
4246,"<img src=""portrait/WM1.jpg""style=""width:400px;height:400px;""></img>",6,html-button-response,6,195020,0.0-3.0-4.0,15196,List2B,white,man,,TRUE,6,,,,,
null,CORRECT,,html-keyboard-response,7,196526,0.0-3.0-5.0-0.0,15196,List2B,white,man,,,,null,,,,
2756,"<img src=""portrait/BM2.jpg""style=""width:400px;height:400px;""></img>",5,html-button-response,8,199289,0.0-3.0-7.0,15196,List2B,white,man,,TRUE,5,,,,,
null,CORRECT,,html-keyboard-response,9,200794,0.0-3.0-8.0-0.0,15196,List2B,white,man,,,,null,,,,
6502,"<img src=""portrait/BW1.jpg""style=""width:400px;height:400px;""></img>",0,html-button-response,10,207303,0.0-3.0-10.0,15196,List2B,white,man,,TRUE,0,,,,,
null,CORRECT,,html-keyboard-response,11,208806,0.0-3.0-11.0-0.0,15196,List2B,white,man,,,,null,,,,
3361,"<img src=""portrait/WW1.jpg""style=""width:400px;height:400px;""></img>",1,html-button-response,12,212172,0.0-3.0-13.0,15196,List2B,white,man,,TRUE,1,,,,,
null,CORRECT,,html-keyboard-response,13,213678,0.0-3.0-14.0-0.0,15196,List2B,white,man,,,,null,,,,
3437,"<img src=""portrait/BM1.jpg""style=""width:400px;height:400px;""></img>",4,html-button-response,14,217123,0.0-3.0-16.0,15196,List2B,white,man,,TRUE,4,,,,,
null,CORRECT,,html-keyboard-response,15,218627,0.0-3.0-17.0-0.0,15196,List2B,white,man,,,,null,,,,
2155,"<img src=""portrait/WW2.jpg""style=""width:400px;height:400px;""></img>",3,html-button-response,16,220789,0.0-3.0-19.0,15196,List2B,white,man,,TRUE,3,,,,,
null,CORRECT,,html-keyboard-response,17,222293,0.0-3.0-20.0-0.0,15196,List2B,white,man,,,,null,,,,
2624,"<img src=""portrait/BW2.jpg""style=""width:400px;height:400px;""></img>",2,html-button-response,18,224923,0.0-3.0-22.0,15196,List2B,white,man,,TRUE,2,,,,,
null,CORRECT,,html-keyboard-response,19,226427,0.0-3.0-23.0-0.0,15196,List2B,white,man,,,,null,,,,
3423,<p>You got 8 out of 8 right first time. Press Continue.</p>,0,html-button-response,20,229856,0.0-3.0-25.0,15196,List2B,white,man,,,,,,,,
92611,"<p>In this experiment, you will view photographs of the people from the memory game interacting.</p><p>By using the <strong>exact</strong> phrase given <i>after</i> the photograph appears and recalling the correct names of the people in the photographs, form a sentence describing the interaction. You do not need to capitalise names.</p><p>Type your answer in the space provided. Please complete every sentence before moving onto the next trial.</p><p>You will only have a few seconds to memorise each given photograph and phrase before you can respond, so try your best to focus.</p><p>An example is given below. Press 'Continue' when you are ready.</p><img src='img/speaking_example_v2.jpg' style='width:800px;height:460px;''></img>",0,html-button-response,21,323476,0.0-4.0,15196,List2B,white,man,,,,,,,,
2928,"<p>Before the experiment starts, you will watch two example trials. Press 'Continue'.</p>",0,html-button-response,22,327413,0.0-5.0,15196,List2B,white,man,,,,,,,,
null,<img src='img/speaking_WW.gif'></img>,,html-keyboard-response,23,330418,0.0-6.0,15196,List2B,white,man,,,,null,,,,
null,<p>is speaking to</p>,,html-keyboard-response,24,332422,0.0-7.0,15196,List2B,white,man,,,,null,,,,
5222,<p><b>Answer:</b> jane is speaking to ruth</p>,0,html-button-response,25,337648,0.0-8.0,15196,List2B,white,man,,,,,,,,
null,<img src='img/pointing_BM.gif'></img>,,html-keyboard-response,26,340653,0.0-9.0,15196,List2B,white,man,,,,null,,,,
null,<p>are pointing at each other</p>,,html-keyboard-response,27,342656,0.0-10.0,15196,List2B,white,man,,,,null,,,,
22136,<p><b>Answer:</b> fred and mike are pointing at each other</p>,0,html-button-response,28,364797,0.0-11.0,15196,List2B,white,man,,,,,,,,
14913,"<p>Ready to start the experiment?</p><br><p><strong>Remember to describe the picture using a full sentence,</strong></p><p><strong> that combines the names of the people with the given phrase.</strong></p><p><strong> You do not need to capitalise names or use punctuation.</strong></p><br><p>Press 'Continue' to begin.</p>",0,html-button-response,29,380715,0.0-12.0,15196,List2B,white,man,,,,,,,,
null,"<div style=""font-size:60px;"">+</div>",,html-keyboard-response,30,382219,0.0-13.0-0.0,15196,List2B,white,man,,,,null,,,,
null,"<img src=""stim_listB/dance1.gif""</stim_listB>",,html-keyboard-response,31,384225,0.0-13.0-1.0,15196,List2B,white,man,,,,null,,,,
null,is dancing with,,html-keyboard-response,32,386228,0.0-13.0-2.0,15196,List2B,white,man,,,,null,,,,
28397,,,survey-text,33,414633,0.0-13.0-3.0,15196,List2B,white,man,,,,,"{""Q0"":""Jane is dancing with luke""}","<img src=""stim_listB/dance1.gif""</stim_listB>",is dancing with,
null,"<div style=""font-size:60px;"">+</div>",,html-keyboard-response,34,415139,0.0-13.0-0.1,15196,List2B,white,man,,,,null,,,,
null,"<img src=""stim_listB/shout5.gif""</stim_listB>",,html-keyboard-response,35,417145,0.0-13.0-1.1,15196,List2B,white,man,,,,null,,,,
null,is shouting at,,html-keyboard-response,36,419149,0.0-13.0-2.1,15196,List2B,white,man,,,,null,,,,
31292,,,survey-text,37,450448,0.0-13.0-3.1,15196,List2B,white,man,,,,,"{""Q0"":""Fred is shouting at luke ""}","<img src=""stim_listB/shout5.gif""</stim_listB>",is shouting at,
null,"<div style=""font-size:60px;"">+</div>",,html-keyboard-response,38,450951,0.0-13.0-0.2,15196,List2B,white,man,,,,null,,,,
null,"<img src=""stim_listB/kiss5.gif""</stim_listB>",,html-keyboard-response,39,452956,0.0-13.0-1.2,15196,List2B,white,man,,,,null,,,,
null,is kissing,,html-keyboard-response,40,454959,0.0-13.0-2.2,15196,List2B,white,man,,,,null,,,,
16561,,,survey-text,41,471524,0.0-13.0-3.2,15196,List2B,white,man,,,,,"{""Q0"":""Fred is kissing luke""}","<img src=""stim_listB/kiss5.gif""</stim_listB>",is kissing,
null,"<div style=""font-size:60px;"">+</div>",,html-keyboard-response,42,472026,0.0-13.0-0.3,15196,List2B,white,man,,,,null,,,,
null,"<img src=""stim_listB/talk5.gif""</stim_listB>",,html-keyboard-response,43,474031,0.0-13.0-1.3,15196,List2B,white,man,,,,null,,,,
null,is talking to,,html-keyboard-response,44,476035,0.0-13.0-2.3,15196,List2B,white,man,,,,null,,,,
12992,,,survey-text,45,489030,0.0-13.0-3.3,15196,List2B,white,man,,,,,"{""Q0"":""Mike is talking to luke""}","<img src=""stim_listB/talk5.gif""</stim_listB>",is talking to,
null,"<div style=""font-size:60px;"">+</div>",,html-keyboard-response,46,489534,0.0-13.0-0.4,15196,List2B,white,man,,,,null,,,,
null,"<img src=""stim_listB/talk7.gif""</stim_listB>",,html-keyboard-response,47,491539,0.0-13.0-1.4,15196,List2B,white,man,,,,null,,,,
null,is talking to,,html-keyboard-response,48,493544,0.0-13.0-2.4,15196,List2B,white,man,,,,null,,,,
16255,,,survey-text,49,509803,0.0-13.0-3.4,15196,List2B,white,man,,,,,"{""Q0"":""Ruth is talking to Kate ""}","<img src=""stim_listB/talk7.gif""</stim_listB>",is talking to,
null,"<div style=""font-size:60px;"">+</div>",,html-keyboard-response,50,510307,0.0-13.0-0.5,15196,List2B,white,man,,,,null,,,,
null,"<img src=""stim_listB/meet7.gif""</stim_listB>",,html-keyboard-response,51,512312,0.0-13.0-1.5,15196,List2B,white,man,,,,null,,,,
null,is meeting,,html-keyboard-response,52,514316,0.0-13.0-2.5,15196,List2B,white,man,,,,null,,,,
18952,,,survey-text,53,533272,0.0-13.0-3.5,15196,List2B,white,man,,,,,"{""Q0"":""Kate is meeting Jane ""}","<img src=""stim_listB/meet7.gif""</stim_listB>",is meeting,
null,"<div style=""font-size:60px;"">+</div>",,html-keyboard-response,54,533775,0.0-13.0-0.6,15196,List2B,white,man,,,,null,,,,
null,"<img src=""stim_listB/hug7.gif""</stim_listB>",,html-keyboard-response,55,535781,0.0-13.0-1.6,15196,List2B,white,man,,,,null,,,,
null,is hugging,,html-keyboard-response,56,537785,0.0-13.0-2.6,15196,List2B,white,man,,,,null,,,,
15284,,,survey-text,57,553072,0.0-13.0-3.6,15196,List2B,white,man,,,,,"{""Q0"":""Ruth is hugging Beth ""}","<img src=""stim_listB/hug7.gif""</stim_listB>",is hugging,
null,"<div style=""font-size:60px;"">+</div>",,html-keyboard-response,58,553576,0.0-13.0-0.7,15196,List2B,white,man,,,,null,,,,
null,"<img src=""stim_listB/meet8.gif""</stim_listB>",,html-keyboard-response,59,555580,0.0-13.0-1.7,15196,List2B,white,man,,,,null,,,,
null,are meeting each other,,html-keyboard-response,60,557583,0.0-13.0-2.7,15196,List2B,white,man,,,,null,,,,
24356,,,survey-text,61,581943,0.0-13.0-3.7,15196,List2B,white,man,,,,,"{""Q0"":""Ruth and Beth are meeting each other""}","<img src=""stim_listB/meet8.gif""</stim_listB>",are meeting each other,
null,"<div style=""font-size:60px;"">+</div>",,html-keyboard-response,62,582446,0.0-13.0-0.8,15196,List2B,white,man,,,,null,,,,
null,"<img src=""stim_listB/argue5.gif""</stim_listB>",,html-keyboard-response,63,584449,0.0-13.0-1.8,15196,List2B,white,man,,,,null,,,,
null,is arguing with,,html-keyboard-response,64,586452,0.0-13.0-2.8,15196,List2B,white,man,,,,null,,,,
30837,,,survey-text,65,617293,0.0-13.0-3.8,15196,List2B,white,man,,,,,"{""Q0"":""Dave is arguing with Fred ""}","<img src=""stim_listB/argue5.gif""</stim_listB>",is arguing with,
null,"<div style=""font-size:60px;"">+</div>",,html-keyboard-response,66,617806,0.0-13.0-0.9,15196,List2B,white,man,,,,null,,,,
null,"<img src=""stim_listB/marry7.gif""</stim_listB>",,html-keyboard-response,67,619811,0.0-13.0-1.9,15196,List2B,white,man,,,,null,,,,
null,is marrying,,html-keyboard-response,68,621815,0.0-13.0-2.9,15196,List2B,white,man,,,,null,,,,
16041,,,survey-text,69,637860,0.0-13.0-3.9,15196,List2B,white,man,,,,,"{""Q0"":""Jane is marrying Beth ""}","<img src=""stim_listB/marry7.gif""</stim_listB>",is marrying,
null,"<div style=""font-size:60px;"">+</div>",,html-keyboard-response,70,638363,0.0-13.0-0.10,15196,List2B,white,man,,,,null,,,,
null,"<img src=""stim_listB/marry4.gif""</stim_listB>",,html-keyboard-response,71,640367,0.0-13.0-1.10,15196,List2B,white,man,,,,null,,,,
null,are marrying each other,,html-keyboard-response,72,642371,0.0-13.0-2.10,15196,List2B,white,man,,,,null,,,,
20585,,,survey-text,73,662961,0.0-13.0-3.10,15196,List2B,white,man,,,,,"{""Q0"":""Kate and Fred are marrying each other""}","<img src=""stim_listB/marry4.gif""</stim_listB>",are marrying each other,
null,"<div style=""font-size:60px;"">+</div>",,html-keyboard-response,74,663465,0.0-13.0-0.11,15196,List2B,white,man,,,,null,,,,
null,"<img src=""stim_listB/kiss8.gif""</stim_listB>",,html-keyboard-response,75,665469,0.0-13.0-1.11,15196,List2B,white,man,,,,null,,,,
null,are kissing each other,,html-keyboard-response,76,667474,0.0-13.0-2.11,15196,List2B,white,man,,,,null,,,,
19952,,,survey-text,77,687430,0.0-13.0-3.11,15196,List2B,white,man,,,,,"{""Q0"":""Kate and Jane are kissing each other ""}","<img src=""stim_listB/kiss8.gif""</stim_listB>",are kissing each other,
null,"<div style=""font-size:60px;"">+</div>",,html-keyboard-response,78,687934,0.0-13.0-0.12,15196,List2B,white,man,,,,null,,,,
null,"<img src=""stim_listB/touch1.gif""</stim_listB>",,html-keyboard-response,79,689939,0.0-13.0-1.12,15196,List2B,white,man,,,,null,,,,
null,is touching,,html-keyboard-response,80,691943,0.0-13.0-2.12,15196,List2B,white,man,,,,null,,,,
17116,,,survey-text,81,709063,0.0-13.0-3.12,15196,List2B,white,man,,,,,"{""Q0"":""Jane is touching Dave ""}","<img src=""stim_listB/touch1.gif""</stim_listB>",is touching,
null,"<div style=""font-size:60px;"">+</div>",,html-keyboard-response,82,709567,0.0-13.0-0.13,15196,List2B,white,man,,,,null,,,,
null,"<img src=""stim_listB/hug6.gif""</stim_listB>",,html-keyboard-response,83,711573,0.0-13.0-1.13,15196,List2B,white,man,,,,null,,,,
null,are hugging each other,,html-keyboard-response,84,713578,0.0-13.0-2.13,15196,List2B,white,man,,,,null,,,,
28138,,,survey-text,85,741720,0.0-13.0-3.13,15196,List2B,white,man,,,,,"{""Q0"":""Mike and Dave are hugging each other""}","<img src=""stim_listB/hug6.gif""</stim_listB>",are hugging each other,
null,"<div style=""font-size:60px;"">+</div>",,html-keyboard-response,86,742223,0.0-13.0-0.14,15196,List2B,white,man,,,,null,,,,
null,"<img src=""stim_listB/argue4.gif""</stim_listB>",,html-keyboard-response,87,744227,0.0-13.0-1.14,15196,List2B,white,man,,,,null,,,,
null,are arguing with each other,,html-keyboard-response,88,746239,0.0-13.0-2.14,15196,List2B,white,man,,,,null,,,,
29696,,,survey-text,89,775940,0.0-13.0-3.14,15196,List2B,white,man,,,,,"{""Q0"":""Fred and Kate are arguing with each other""}","<img src=""stim_listB/argue4.gif""</stim_listB>",are arguing with each other,
null,"<div style=""font-size:60px;"">+</div>",,html-keyboard-response,90,776443,0.0-13.0-0.15,15196,List2B,white,man,,,,null,,,,
null,"<img src=""stim_listB/shout1.gif""</stim_listB>",,html-keyboard-response,91,778447,0.0-13.0-1.15,15196,List2B,white,man,,,,null,,,,
null,is shouting at,,html-keyboard-response,92,780449,0.0-13.0-2.15,15196,List2B,white,man,,,,null,,,,
20772,,,survey-text,93,801223,0.0-13.0-3.15,15196,List2B,white,man,,,,,"{""Q0"":""Ruth is shouting at luke ""}","<img src=""stim_listB/shout1.gif""</stim_listB>",is shouting at,
null,"<div style=""font-size:60px;"">+</div>",,html-keyboard-response,94,801727,0.0-13.0-0.16,15196,List2B,white,man,,,,null,,,,
null,"<img src=""stim_listB/fight4.gif""</stim_listB>",,html-keyboard-response,95,803732,0.0-13.0-1.16,15196,List2B,white,man,,,,null,,,,
null,are fighting each other,,html-keyboard-response,96,805737,0.0-13.0-2.16,15196,List2B,white,man,,,,null,,,,
22533,,,survey-text,97,828274,0.0-13.0-3.16,15196,List2B,white,man,,,,,"{""Q0"":""Beth and Fred are fighting each other""}","<img src=""stim_listB/fight4.gif""</stim_listB>",are fighting each other,
null,"<div style=""font-size:60px;"">+</div>",,html-keyboard-response,98,828778,0.0-13.0-0.17,15196,List2B,white,man,,,,null,,,,
null,"<img src=""stim_listB/fight1.gif""</stim_listB>",,html-keyboard-response,99,830787,0.0-13.0-1.17,15196,List2B,white,man,,,,null,,,,
null,is fighting,,html-keyboard-response,100,832792,0.0-13.0-2.17,15196,List2B,white,man,,,,null,,,,
15432,,,survey-text,101,848228,0.0-13.0-3.17,15196,List2B,white,man,,,,,"{""Q0"":""Dave is fighting Jane ""}","<img src=""stim_listB/fight1.gif""</stim_listB>",is fighting,
null,"<div style=""font-size:60px;"">+</div>",,html-keyboard-response,102,848732,0.0-13.0-0.18,15196,List2B,white,man,,,,null,,,,
null,"<img src=""stim_listB/fight7.gif""</stim_listB>",,html-keyboard-response,103,850736,0.0-13.0-1.18,15196,List2B,white,man,,,,null,,,,
null,is fighting,,html-keyboard-response,104,852739,0.0-13.0-2.18,15196,List2B,white,man,,,,null,,,,
14406,,,survey-text,105,867149,0.0-13.0-3.18,15196,List2B,white,man,,,,,"{""Q0"":""Dave is fighting Fred ""}","<img src=""stim_listB/fight7.gif""</stim_listB>",is fighting,
null,"<div style=""font-size:60px;"">+</div>",,html-keyboard-response,106,867652,0.0-13.0-0.19,15196,List2B,white,man,,,,null,,,,
null,"<img src=""stim_listB/hug3.gif""</stim_listB>",,html-keyboard-response,107,869656,0.0-13.0-1.19,15196,List2B,white,man,,,,null,,,,
null,is hugging,,html-keyboard-response,108,871660,0.0-13.0-2.19,15196,List2B,white,man,,,,null,,,,
16718,,,survey-text,109,888382,0.0-13.0-3.19,15196,List2B,white,man,,,,,"{""Q0"":""Fred is hugging Beth ""}","<img src=""stim_listB/hug3.gif""</stim_listB>",is hugging,
12529,"<img src='img/portrait_matrix_list2.JPG' style='width:900px;height:500px;''></img><p>If you have memorised all the portraits and names and are ready to start, press Continue.</p><p><strong>Please note: Your memory of these faces will be tested 4 times during this experiment.</strong></p>",0,html-button-response,110,900918,0.0-14.0-0.0,15196,List2B,white,man,,,,,,,,
6053,"<img src=""portrait/BW2.jpg""style=""width:400px;height:400px;""></img>",2,html-button-response,111,907976,0.0-14.0-1.0,15196,List2B,white,man,,TRUE,2,,,,,
null,CORRECT,,html-keyboard-response,112,909481,0.0-14.0-2.0-0.0,15196,List2B,white,man,,,,null,,,,
7602,"<img src=""portrait/WW2.jpg""style=""width:400px;height:400px;""></img>",3,html-button-response,113,917094,0.0-14.0-4.0,15196,List2B,white,man,,TRUE,3,,,,,
null,CORRECT,,html-keyboard-response,114,918607,0.0-14.0-5.0-0.0,15196,List2B,white,man,,,,null,,,,
6044,"<img src=""portrait/WM1.jpg""style=""width:400px;height:400px;""></img>",6,html-button-response,115,924661,0.0-14.0-7.0,15196,List2B,white,man,,TRUE,6,,,,,
null,CORRECT,,html-keyboard-response,116,926166,0.0-14.0-8.0-0.0,15196,List2B,white,man,,,,null,,,,
3056,"<img src=""portrait/WW1.jpg""style=""width:400px;height:400px;""></img>",1,html-button-response,117,929231,0.0-14.0-10.0,15196,List2B,white,man,,TRUE,1,,,,,
null,CORRECT,,html-keyboard-response,118,930735,0.0-14.0-11.0-0.0,15196,List2B,white,man,,,,null,,,,
2318,"<img src=""portrait/BM2.jpg""style=""width:400px;height:400px;""></img>",5,html-button-response,119,933062,0.0-14.0-13.0,15196,List2B,white,man,,TRUE,5,,,,,
null,CORRECT,,html-keyboard-response,120,934566,0.0-14.0-14.0-0.0,15196,List2B,white,man,,,,null,,,,
3336,"<img src=""portrait/WM2.jpg""style=""width:400px;height:400px;""></img>",7,html-button-response,121,937912,0.0-14.0-16.0,15196,List2B,white,man,,TRUE,7,,,,,
null,CORRECT,,html-keyboard-response,122,939417,0.0-14.0-17.0-0.0,15196,List2B,white,man,,,,null,,,,
3319,"<img src=""portrait/BM1.jpg""style=""width:400px;height:400px;""></img>",4,html-button-response,123,942745,0.0-14.0-19.0,15196,List2B,white,man,,TRUE,4,,,,,
null,CORRECT,,html-keyboard-response,124,944249,0.0-14.0-20.0-0.0,15196,List2B,white,man,,,,null,,,,
2670,"<img src=""portrait/BW1.jpg""style=""width:400px;height:400px;""></img>",0,html-button-response,125,946930,0.0-14.0-22.0,15196,List2B,white,man,,TRUE,0,,,,,
null,CORRECT,,html-keyboard-response,126,948434,0.0-14.0-23.0-0.0,15196,List2B,white,man,,,,null,,,,
2054,<p>You got 8 out of 8 right first time. Press Continue.</p>,0,html-button-response,127,950495,0.0-14.0-25.0,15196,List2B,white,man,,,,,,,,
null,"<div style=""font-size:60px;"">+</div>",,html-keyboard-response,128,952001,0.0-15.0-0.0,15196,List2B,white,man,,,,null,,,,
null,"<img src=""stim_listB/shout4.gif""</stim_listB>",,html-keyboard-response,129,954007,0.0-15.0-1.0,15196,List2B,white,man,,,,null,,,,
null,are shouting at each other,,html-keyboard-response,130,956013,0.0-15.0-2.0,15196,List2B,white,man,,,,null,,,,
23222,,,survey-text,131,979239,0.0-15.0-3.0,15196,List2B,white,man,,,,,"{""Q0"":""Kate and mike are shouting at each other""}","<img src=""stim_listB/shout4.gif""</stim_listB>",are shouting at each other,
null,"<div style=""font-size:60px;"">+</div>",,html-keyboard-response,132,979743,0.0-15.0-0.1,15196,List2B,white,man,,,,null,,,,
null,"<img src=""stim_listB/kiss3.gif""</stim_listB>",,html-keyboard-response,133,981747,0.0-15.0-1.1,15196,List2B,white,man,,,,null,,,,
null,is kissing,,html-keyboard-response,134,983751,0.0-15.0-2.1,15196,List2B,white,man,,,,null,,,,
12499,,,survey-text,135,996254,0.0-15.0-3.1,15196,List2B,white,man,,,,,"{""Q0"":""Fred is kissing Beth ""}","<img src=""stim_listB/kiss3.gif""</stim_listB>",is kissing,
null,"<div style=""font-size:60px;"">+</div>",,html-keyboard-response,136,996758,0.0-15.0-0.2,15196,List2B,white,man,,,,null,,,,
null,"<img src=""stim_listB/shout6.gif""</stim_listB>",,html-keyboard-response,137,998767,0.0-15.0-1.2,15196,List2B,white,man,,,,null,,,,
null,are shouting at each other,,html-keyboard-response,138,1000771,0.0-15.0-2.2,15196,List2B,white,man,,,,null,,,,
20069,,,survey-text,139,1020845,0.0-15.0-3.2,15196,List2B,white,man,,,,,"{""Q0"":""Dave and mike are shouting at each other ""}","<img src=""stim_listB/shout6.gif""</stim_listB>",are shouting at each other,
null,"<div style=""font-size:60px;"">+</div>",,html-keyboard-response,140,1021348,0.0-15.0-0.3,15196,List2B,white,man,,,,null,,,,
null,"<img src=""stim_listB/touch2.gif""</stim_listB>",,html-keyboard-response,141,1023351,0.0-15.0-1.3,15196,List2B,white,man,,,,null,,,,
null,are touching each other,,html-keyboard-response,142,1025354,0.0-15.0-2.3,15196,List2B,white,man,,,,null,,,,
18619,,,survey-text,143,1043978,0.0-15.0-3.3,15196,List2B,white,man,,,,,"{""Q0"":""Ruth and luke are touching each other ""}","<img src=""stim_listB/touch2.gif""</stim_listB>",are touching each other,
null,"<div style=""font-size:60px;"">+</div>",,html-keyboard-response,144,1044483,0.0-15.0-0.4,15196,List2B,white,man,,,,null,,,,
null,"<img src=""stim_listB/argue8.gif""</stim_listB>",,html-keyboard-response,145,1046487,0.0-15.0-1.4,15196,List2B,white,man,,,,null,,,,
null,are arguing with each other,,html-keyboard-response,146,1048490,0.0-15.0-2.4,15196,List2B,white,man,,,,null,,,,
24452,,,survey-text,147,1072944,0.0-15.0-3.4,15196,List2B,white,man,,,,,"{""Q0"":""Ruth and Beth are arguing with each other ""}","<img src=""stim_listB/argue8.gif""</stim_listB>",are arguing with each other,
null,"<div style=""font-size:60px;"">+</div>",,html-keyboard-response,148,1073448,0.0-15.0-0.5,15196,List2B,white,man,,,,null,,,,
null,"<img src=""stim_listB/meet6.gif""</stim_listB>",,html-keyboard-response,149,1075461,0.0-15.0-1.5,15196,List2B,white,man,,,,null,,,,
null,are meeting each other,,html-keyboard-response,150,1077465,0.0-15.0-2.5,15196,List2B,white,man,,,,null,,,,
19006,,,survey-text,151,1096476,0.0-15.0-3.5,15196,List2B,white,man,,,,,"{""Q0"":""Luke and Fred are meeting each other ""}","<img src=""stim_listB/meet6.gif""</stim_listB>",are meeting each other,
null,"<div style=""font-size:60px;"">+</div>",,html-keyboard-response,152,1096979,0.0-15.0-0.6,15196,List2B,white,man,,,,null,,,,
null,"<img src=""stim_listB/meet4.gif""</stim_listB>",,html-keyboard-response,153,1098983,0.0-15.0-1.6,15196,List2B,white,man,,,,null,,,,
null,are meeting each other,,html-keyboard-response,154,1100988,0.0-15.0-2.6,15196,List2B,white,man,,,,null,,,,
17955,,,survey-text,155,1118946,0.0-15.0-3.6,15196,List2B,white,man,,,,,"{""Q0"":""Beth and Fred are meeting each other ""}","<img src=""stim_listB/meet4.gif""</stim_listB>",are meeting each other,
null,"<div style=""font-size:60px;"">+</div>",,html-keyboard-response,156,1119450,0.0-15.0-0.7,15196,List2B,white,man,,,,null,,,,
null,"<img src=""stim_listB/kiss2.gif""</stim_listB>",,html-keyboard-response,157,1121455,0.0-15.0-1.7,15196,List2B,white,man,,,,null,,,,
null,are kissing each other,,html-keyboard-response,158,1123459,0.0-15.0-2.7,15196,List2B,white,man,,,,null,,,,
20242,,,survey-text,159,1143706,0.0-15.0-3.7,15196,List2B,white,man,,,,,"{""Q0"":""Jane and Dave are kissing each other ""}","<img src=""stim_listB/kiss2.gif""</stim_listB>",are kissing each other,
null,"<div style=""font-size:60px;"">+</div>",,html-keyboard-response,160,1144209,0.0-15.0-0.8,15196,List2B,white,man,,,,null,,,,
null,"<img src=""stim_listB/hug4.gif""</stim_listB>",,html-keyboard-response,161,1146214,0.0-15.0-1.8,15196,List2B,white,man,,,,null,,,,
null,are hugging each other,,html-keyboard-response,162,1148219,0.0-15.0-2.8,15196,List2B,white,man,,,,null,,,,
30650,,,survey-text,163,1178874,0.0-15.0-3.8,15196,List2B,white,man,,,,,"{""Q0"":""Didn’t see anybody""}","<img src=""stim_listB/hug4.gif""</stim_listB>",are hugging each other,
null,"<div style=""font-size:60px;"">+</div>",,html-keyboard-response,164,1179378,0.0-15.0-0.9,15196,List2B,white,man,,,,null,,,,
null,"<img src=""stim_listB/fight3.gif""</stim_listB>",,html-keyboard-response,165,1181384,0.0-15.0-1.9,15196,List2B,white,man,,,,null,,,,
null,is fighting,,html-keyboard-response,166,1183389,0.0-15.0-2.9,15196,List2B,white,man,,,,null,,,,
11494,,,survey-text,167,1194887,0.0-15.0-3.9,15196,List2B,white,man,,,,,"{""Q0"":""is fighting ""}","<img src=""stim_listB/fight3.gif""</stim_listB>",is fighting,
null,"<div style=""font-size:60px;"">+</div>",,html-keyboard-response,168,1195390,0.0-15.0-0.10,15196,List2B,white,man,,,,null,,,,
null,"<img src=""stim_listB/argue2.gif""</stim_listB>",,html-keyboard-response,169,1197393,0.0-15.0-1.10,15196,List2B,white,man,,,,null,,,,
null,are arguing with each other,,html-keyboard-response,170,1199395,0.0-15.0-2.10,15196,List2B,white,man,,,,null,,,,
23408,,,survey-text,171,1222807,0.0-15.0-3.10,15196,List2B,white,man,,,,,"{""Q0"":""Jane and luke are arguing with each other ""}","<img src=""stim_listB/argue2.gif""</stim_listB>",are arguing with each other,
null,"<div style=""font-size:60px;"">+</div>",,html-keyboard-response,172,1223312,0.0-15.0-0.11,15196,List2B,white,man,,,,null,,,,
null,"<img src=""stim_listB/talk4.gif""</stim_listB>",,html-keyboard-response,173,1225317,0.0-15.0-1.11,15196,List2B,white,man,,,,null,,,,
null,are talking to each other,,html-keyboard-response,174,1227321,0.0-15.0-2.11,15196,List2B,white,man,,,,null,,,,
31157,,,survey-text,175,1258481,0.0-15.0-3.11,15196,List2B,white,man,,,,,"{""Q0"":""Mike and Beth are talking to each other ""}","<img src=""stim_listB/talk4.gif""</stim_listB>",are talking to each other,
null,"<div style=""font-size:60px;"">+</div>",,html-keyboard-response,176,1258984,0.0-15.0-0.12,15196,List2B,white,man,,,,null,,,,
null,"<img src=""stim_listB/marry8.gif""</stim_listB>",,html-keyboard-response,177,1260990,0.0-15.0-1.12,15196,List2B,white,man,,,,null,,,,
null,are marrying each other,,html-keyboard-response,178,1262994,0.0-15.0-2.12,15196,List2B,white,man,,,,null,,,,
26964,,,survey-text,179,1289963,0.0-15.0-3.12,15196,List2B,white,man,,,,,"{""Q0"":""Ruth and Kate are marrying each other ""}","<img src=""stim_listB/marry8.gif""</stim_listB>",are marrying each other,
null,"<div style=""font-size:60px;"">+</div>",,html-keyboard-response,180,1290467,0.0-15.0-0.13,15196,List2B,white,man,,,,null,,,,
null,"<img src=""stim_listB/dance6.gif""</stim_listB>",,html-keyboard-response,181,1292472,0.0-15.0-1.13,15196,List2B,white,man,,,,null,,,,
null,are dancing with each other,,html-keyboard-response,182,1294479,0.0-15.0-2.13,15196,List2B,white,man,,,,null,,,,
23543,,,survey-text,183,1318026,0.0-15.0-3.13,15196,List2B,white,man,,,,,"{""Q0"":""Fred and Dave are dancing with each other ""}","<img src=""stim_listB/dance6.gif""</stim_listB>",are dancing with each other,
null,"<div style=""font-size:60px;"">+</div>",,html-keyboard-response,184,1318529,0.0-15.0-0.14,15196,List2B,white,man,,,,null,,,,
null,"<img src=""stim_listB/kiss7.gif""</stim_listB>",,html-keyboard-response,185,1320532,0.0-15.0-1.14,15196,List2B,white,man,,,,null,,,,
null,is kissing,,html-keyboard-response,186,1322536,0.0-15.0-2.14,15196,List2B,white,man,,,,null,,,,
16189,,,survey-text,187,1338729,0.0-15.0-3.14,15196,List2B,white,man,,,,,"{""Q0"":""Ruth is kissing Beth ""}","<img src=""stim_listB/kiss7.gif""</stim_listB>",is kissing,
null,"<div style=""font-size:60px;"">+</div>",,html-keyboard-response,188,1339232,0.0-15.0-0.15,15196,List2B,white,man,,,,null,,,,
null,"<img src=""stim_listB/meet5.gif""</stim_listB>",,html-keyboard-response,189,1341236,0.0-15.0-1.15,15196,List2B,white,man,,,,null,,,,
null,is meeting,,html-keyboard-response,190,1343240,0.0-15.0-2.15,15196,List2B,white,man,,,,null,,,,
12504,,,survey-text,191,1355748,0.0-15.0-3.15,15196,List2B,white,man,,,,,"{""Q0"":""Dave is meeting mike""}","<img src=""stim_listB/meet5.gif""</stim_listB>",is meeting,
null,"<div style=""font-size:60px;"">+</div>",,html-keyboard-response,192,1356251,0.0-15.0-0.16,15196,List2B,white,man,,,,null,,,,
null,"<img src=""stim_listB/fight5.gif""</stim_listB>",,html-keyboard-response,193,1358257,0.0-15.0-1.16,15196,List2B,white,man,,,,null,,,,
null,is fighting,,html-keyboard-response,194,1360263,0.0-15.0-2.16,15196,List2B,white,man,,,,null,,,,
34864,,,survey-text,195,1395132,0.0-15.0-3.16,15196,List2B,white,man,,,,,"{""Q0"":""Dave is fighting mike""}","<img src=""stim_listB/fight5.gif""</stim_listB>",is fighting,
null,"<div style=""font-size:60px;"">+</div>",,html-keyboard-response,196,1395643,0.0-15.0-0.17,15196,List2B,white,man,,,,null,,,,
null,"<img src=""stim_listB/talk8.gif""</stim_listB>",,html-keyboard-response,197,1397647,0.0-15.0-1.17,15196,List2B,white,man,,,,null,,,,
null,are talking to each other,,html-keyboard-response,198,1399652,0.0-15.0-2.17,15196,List2B,white,man,,,,null,,,,
19962,,,survey-text,199,1419618,0.0-15.0-3.17,15196,List2B,white,man,,,,,"{""Q0"":""Jane and Beth are talking to each other ""}","<img src=""stim_listB/talk8.gif""</stim_listB>",are talking to each other,
null,"<div style=""font-size:60px;"">+</div>",,html-keyboard-response,200,1420121,0.0-15.0-0.18,15196,List2B,white,man,,,,null,,,,
null,"<img src=""stim_listB/argue7.gif""</stim_listB>",,html-keyboard-response,201,1422125,0.0-15.0-1.18,15196,List2B,white,man,,,,null,,,,
null,is arguing with,,html-keyboard-response,202,1424129,0.0-15.0-2.18,15196,List2B,white,man,,,,null,,,,
21423,,,survey-text,203,1445556,0.0-15.0-3.18,15196,List2B,white,man,,,,,"{""Q0"":""Jane is arguing with Beth ""}","<img src=""stim_listB/argue7.gif""</stim_listB>",is arguing with,
null,"<div style=""font-size:60px;"">+</div>",,html-keyboard-response,204,1446058,0.0-15.0-0.19,15196,List2B,white,man,,,,null,,,,
null,"<img src=""stim_listB/touch5.gif""</stim_listB>",,html-keyboard-response,205,1448062,0.0-15.0-1.19,15196,List2B,white,man,,,,null,,,,
null,is touching,,html-keyboard-response,206,1450067,0.0-15.0-2.19,15196,List2B,white,man,,,,null,,,,
13535,,,survey-text,207,1463605,0.0-15.0-3.19,15196,List2B,white,man,,,,,"{""Q0"":""Mike is touching Dave ""}","<img src=""stim_listB/touch5.gif""</stim_listB>",is touching,
58505,"<img src='img/portrait_matrix_list2.JPG' style='width:900px;height:500px;''></img><p>If you have memorised all the portraits and names and are ready to start, press Continue.</p><p><strong>Please note: Your memory of these faces will be tested 4 times during this experiment.</strong></p>",0,html-button-response,208,1522119,0.0-16.0-0.0,15196,List2B,white,man,,,,,,,,
4007,"<img src=""portrait/BW2.jpg""style=""width:400px;height:400px;""></img>",2,html-button-response,209,1527141,0.0-16.0-1.0,15196,List2B,white,man,,TRUE,2,,,,,
null,CORRECT,,html-keyboard-response,210,1528647,0.0-16.0-2.0-0.0,15196,List2B,white,man,,,,null,,,,
3384,"<img src=""portrait/WM1.jpg""style=""width:400px;height:400px;""></img>",6,html-button-response,211,1532037,0.0-16.0-4.0,15196,List2B,white,man,,TRUE,6,,,,,
null,CORRECT,,html-keyboard-response,212,1533542,0.0-16.0-5.0-0.0,15196,List2B,white,man,,,,null,,,,
1955,"<img src=""portrait/WM2.jpg""style=""width:400px;height:400px;""></img>",7,html-button-response,213,1535507,0.0-16.0-7.0,15196,List2B,white,man,,TRUE,7,,,,,
null,CORRECT,,html-keyboard-response,214,1537011,0.0-16.0-8.0-0.0,15196,List2B,white,man,,,,null,,,,
2568,"<img src=""portrait/WW1.jpg""style=""width:400px;height:400px;""></img>",1,html-button-response,215,1539587,0.0-16.0-10.0,15196,List2B,white,man,,TRUE,1,,,,,
null,CORRECT,,html-keyboard-response,216,1541091,0.0-16.0-11.0-0.0,15196,List2B,white,man,,,,null,,,,
2124,"<img src=""portrait/BM2.jpg""style=""width:400px;height:400px;""></img>",5,html-button-response,217,1543221,0.0-16.0-13.0,15196,List2B,white,man,,TRUE,5,,,,,
null,CORRECT,,html-keyboard-response,218,1544726,0.0-16.0-14.0-0.0,15196,List2B,white,man,,,,null,,,,
2133,"<img src=""portrait/BM1.jpg""style=""width:400px;height:400px;""></img>",4,html-button-response,219,1546866,0.0-16.0-16.0,15196,List2B,white,man,,TRUE,4,,,,,
null,CORRECT,,html-keyboard-response,220,1548370,0.0-16.0-17.0-0.0,15196,List2B,white,man,,,,null,,,,
1809,"<img src=""portrait/WW2.jpg""style=""width:400px;height:400px;""></img>",3,html-button-response,221,1550192,0.0-16.0-19.0,15196,List2B,white,man,,TRUE,3,,,,,
null,CORRECT,,html-keyboard-response,222,1551696,0.0-16.0-20.0-0.0,15196,List2B,white,man,,,,null,,,,
3069,"<img src=""portrait/BW1.jpg""style=""width:400px;height:400px;""></img>",0,html-button-response,223,1554777,0.0-16.0-22.0,15196,List2B,white,man,,TRUE,0,,,,,
null,CORRECT,,html-keyboard-response,224,1556280,0.0-16.0-23.0-0.0,15196,List2B,white,man,,,,null,,,,
2105,<p>You got 8 out of 8 right first time. Press Continue.</p>,0,html-button-response,225,1558387,0.0-16.0-25.0,15196,List2B,white,man,,,,,,,,
null,"<div style=""font-size:60px;"">+</div>",,html-keyboard-response,226,1559895,0.0-17.0-0.0,15196,List2B,white,man,,,,null,,,,
null,"<img src=""stim_listB/dance3.gif""</stim_listB>",,html-keyboard-response,227,1561900,0.0-17.0-1.0,15196,List2B,white,man,,,,null,,,,
null,is dancing with,,html-keyboard-response,228,1563902,0.0-17.0-2.0,15196,List2B,white,man,,,,null,,,,
17226,,,survey-text,229,1581130,0.0-17.0-3.0,15196,List2B,white,man,,,,,"{""Q0"":""Kate is dancing with Fred ""}","<img src=""stim_listB/dance3.gif""</stim_listB>",is dancing with,
null,"<div style=""font-size:60px;"">+</div>",,html-keyboard-response,230,1581634,0.0-17.0-0.1,15196,List2B,white,man,,,,null,,,,
null,"<img src=""stim_listB/shout3.gif""</stim_listB>",,html-keyboard-response,231,1583638,0.0-17.0-1.1,15196,List2B,white,man,,,,null,,,,
null,is shouting at,,html-keyboard-response,232,1585642,0.0-17.0-2.1,15196,List2B,white,man,,,,null,,,,
15570,,,survey-text,233,1601216,0.0-17.0-3.1,15196,List2B,white,man,,,,,"{""Q0"":""Beth is shouting at Fred ""}","<img src=""stim_listB/shout3.gif""</stim_listB>",is shouting at,
null,"<div style=""font-size:60px;"">+</div>",,html-keyboard-response,234,1601720,0.0-17.0-0.2,15196,List2B,white,man,,,,null,,,,
null,"<img src=""stim_listB/marry6.gif""</stim_listB>",,html-keyboard-response,235,1603731,0.0-17.0-1.2,15196,List2B,white,man,,,,null,,,,
null,are marrying each other,,html-keyboard-response,236,1605736,0.0-17.0-2.2,15196,List2B,white,man,,,,null,,,,
16060,,,survey-text,237,1621800,0.0-17.0-3.2,15196,List2B,white,man,,,,,"{""Q0"":""Mike and luke are marrying each other ""}","<img src=""stim_listB/marry6.gif""</stim_listB>",are marrying each other,
null,"<div style=""font-size:60px;"">+</div>",,html-keyboard-response,238,1622305,0.0-17.0-0.3,15196,List2B,white,man,,,,null,,,,
null,"<img src=""stim_listB/touch7.gif""</stim_listB>",,html-keyboard-response,239,1624309,0.0-17.0-1.3,15196,List2B,white,man,,,,null,,,,
null,is touching,,html-keyboard-response,240,1626313,0.0-17.0-2.3,15196,List2B,white,man,,,,null,,,,
10519,,,survey-text,241,1636836,0.0-17.0-3.3,15196,List2B,white,man,,,,,"{""Q0"":""Is touching ""}","<img src=""stim_listB/touch7.gif""</stim_listB>",is touching,
null,"<div style=""font-size:60px;"">+</div>",,html-keyboard-response,242,1637340,0.0-17.0-0.4,15196,List2B,white,man,,,,null,,,,
null,"<img src=""stim_listB/talk1.gif""</stim_listB>",,html-keyboard-response,243,1639345,0.0-17.0-1.4,15196,List2B,white,man,,,,null,,,,
null,is talking to,,html-keyboard-response,244,1641350,0.0-17.0-2.4,15196,List2B,white,man,,,,null,,,,
13234,,,survey-text,245,1654588,0.0-17.0-3.4,15196,List2B,white,man,,,,,"{""Q0"":""Jane is talking to Luke ""}","<img src=""stim_listB/talk1.gif""</stim_listB>",is talking to,
null,"<div style=""font-size:60px;"">+</div>",,html-keyboard-response,246,1655090,0.0-17.0-0.5,15196,List2B,white,man,,,,null,,,,
null,"<img src=""stim_listB/dance8.gif""</stim_listB>",,html-keyboard-response,247,1657093,0.0-17.0-1.5,15196,List2B,white,man,,,,null,,,,
null,are dancing with each other,,html-keyboard-response,248,1659096,0.0-17.0-2.5,15196,List2B,white,man,,,,null,,,,
20639,,,survey-text,249,1679738,0.0-17.0-3.5,15196,List2B,white,man,,,,,"{""Q0"":""Beth and Jane are dancing with each other ""}","<img src=""stim_listB/dance8.gif""</stim_listB>",are dancing with each other,
null,"<div style=""font-size:60px;"">+</div>",,html-keyboard-response,250,1680242,0.0-17.0-0.6,15196,List2B,white,man,,,,null,,,,
null,"<img src=""stim_listB/marry3.gif""</stim_listB>",,html-keyboard-response,251,1682248,0.0-17.0-1.6,15196,List2B,white,man,,,,null,,,,
null,is marrying,,html-keyboard-response,252,1684252,0.0-17.0-2.6,15196,List2B,white,man,,,,null,,,,
12365,,,survey-text,253,1696621,0.0-17.0-3.6,15196,List2B,white,man,,,,,"{""Q0"":""Mike is marrying Beth ""}","<img src=""stim_listB/marry3.gif""</stim_listB>",is marrying,
null,"<div style=""font-size:60px;"">+</div>",,html-keyboard-response,254,1697125,0.0-17.0-0.7,15196,List2B,white,man,,,,null,,,,
null,"<img src=""stim_listB/talk6.gif""</stim_listB>",,html-keyboard-response,255,1699129,0.0-17.0-1.7,15196,List2B,white,man,,,,null,,,,
null,are talking to each other,,html-keyboard-response,256,1701133,0.0-17.0-2.7,15196,List2B,white,man,,,,null,,,,
19054,,,survey-text,257,1720193,0.0-17.0-3.7,15196,List2B,white,man,,,,,"{""Q0"":""Dave and Fred are talking to each other ""}","<img src=""stim_listB/talk6.gif""</stim_listB>",are talking to each other,
null,"<div style=""font-size:60px;"">+</div>",,html-keyboard-response,258,1720698,0.0-17.0-0.8,15196,List2B,white,man,,,,null,,,,
null,"<img src=""stim_listB/dance4.gif""</stim_listB>",,html-keyboard-response,259,1722703,0.0-17.0-1.8,15196,List2B,white,man,,,,null,,,,
null,are dancing with each other,,html-keyboard-response,260,1724707,0.0-17.0-2.8,15196,List2B,white,man,,,,null,,,,
15164,,,survey-text,261,1739877,0.0-17.0-3.8,15196,List2B,white,man,,,,,"{""Q0"":""Mike and Beth are dancing with each other ""}","<img src=""stim_listB/dance4.gif""</stim_listB>",are dancing with each other,
null,"<div style=""font-size:60px;"">+</div>",,html-keyboard-response,262,1740380,0.0-17.0-0.9,15196,List2B,white,man,,,,null,,,,
null,"<img src=""stim_listB/marry2.gif""</stim_listB>",,html-keyboard-response,263,1742385,0.0-17.0-1.9,15196,List2B,white,man,,,,null,,,,
null,are marrying each other,,html-keyboard-response,264,1744389,0.0-17.0-2.9,15196,List2B,white,man,,,,null,,,,
20430,,,survey-text,265,1764823,0.0-17.0-3.9,15196,List2B,white,man,,,,,"{""Q0"":""Jane and luke are marrying each other ""}","<img src=""stim_listB/marry2.gif""</stim_listB>",are marrying each other,
null,"<div style=""font-size:60px;"">+</div>",,html-keyboard-response,266,1765326,0.0-17.0-0.10,15196,List2B,white,man,,,,null,,,,
null,"<img src=""stim_listB/talk3.gif""</stim_listB>",,html-keyboard-response,267,1767332,0.0-17.0-1.10,15196,List2B,white,man,,,,null,,,,
null,is talking to,,html-keyboard-response,268,1769336,0.0-17.0-2.10,15196,List2B,white,man,,,,null,,,,
14491,,,survey-text,269,1783831,0.0-17.0-3.10,15196,List2B,white,man,,,,,"{""Q0"":""Kate is talking to Fred ""}","<img src=""stim_listB/talk3.gif""</stim_listB>",is talking to,
null,"<div style=""font-size:60px;"">+</div>",,html-keyboard-response,270,1784334,0.0-17.0-0.11,15196,List2B,white,man,,,,null,,,,
null,"<img src=""stim_listB/touch3.gif""</stim_listB>",,html-keyboard-response,271,1786339,0.0-17.0-1.11,15196,List2B,white,man,,,,null,,,,
null,is touching,,html-keyboard-response,272,1788343,0.0-17.0-2.11,15196,List2B,white,man,,,,null,,,,
12382,,,survey-text,273,1800729,0.0-17.0-3.11,15196,List2B,white,man,,,,,"{""Q0"":""Kate is touching mike""}","<img src=""stim_listB/touch3.gif""</stim_listB>",is touching,
null,"<div style=""font-size:60px;"">+</div>",,html-keyboard-response,274,1801232,0.0-17.0-0.12,15196,List2B,white,man,,,,null,,,,
null,"<img src=""stim_listB/dance5.gif""</stim_listB>",,html-keyboard-response,275,1803236,0.0-17.0-1.12,15196,List2B,white,man,,,,null,,,,
null,is dancing with,,html-keyboard-response,276,1805241,0.0-17.0-2.12,15196,List2B,white,man,,,,null,,,,
12720,,,survey-text,277,1817964,0.0-17.0-3.12,15196,List2B,white,man,,,,,"{""Q0"":""Luke is dancing with Mike ""}","<img src=""stim_listB/dance5.gif""</stim_listB>",is dancing with,
null,"<div style=""font-size:60px;"">+</div>",,html-keyboard-response,278,1818468,0.0-17.0-0.13,15196,List2B,white,man,,,,null,,,,
null,"<img src=""stim_listB/dance7.gif""</stim_listB>",,html-keyboard-response,279,1820471,0.0-17.0-1.13,15196,List2B,white,man,,,,null,,,,
null,is dancing with,,html-keyboard-response,280,1822476,0.0-17.0-2.13,15196,List2B,white,man,,,,null,,,,
14036,,,survey-text,281,1836517,0.0-17.0-3.13,15196,List2B,white,man,,,,,"{""Q0"":""Kate is dancing with Ruth ""}","<img src=""stim_listB/dance7.gif""</stim_listB>",is dancing with,
null,"<div style=""font-size:60px;"">+</div>",,html-keyboard-response,282,1837021,0.0-17.0-0.14,15196,List2B,white,man,,,,null,,,,
null,"<img src=""stim_listB/fight8.gif""</stim_listB>",,html-keyboard-response,283,1839025,0.0-17.0-1.14,15196,List2B,white,man,,,,null,,,,
null,are fighting each other,,html-keyboard-response,284,1841030,0.0-17.0-2.14,15196,List2B,white,man,,,,null,,,,
19579,,,survey-text,285,1860620,0.0-17.0-3.14,15196,List2B,white,man,,,,,"{""Q0"":""Ruth and Beth are fighting each other ""}","<img src=""stim_listB/fight8.gif""</stim_listB>",are fighting each other,
null,"<div style=""font-size:60px;"">+</div>",,html-keyboard-response,286,1861123,0.0-17.0-0.15,15196,List2B,white,man,,,,null,,,,
null,"<img src=""stim_listB/kiss4.gif""</stim_listB>",,html-keyboard-response,287,1863127,0.0-17.0-1.15,15196,List2B,white,man,,,,null,,,,
null,are kissing each other,,html-keyboard-response,288,1865132,0.0-17.0-2.15,15196,List2B,white,man,,,,null,,,,
14584,,,survey-text,289,1879720,0.0-17.0-3.15,15196,List2B,white,man,,,,,"{""Q0"":""Mike and Kate are kissing each other ""}","<img src=""stim_listB/kiss4.gif""</stim_listB>",are kissing each other,
null,"<div style=""font-size:60px;"">+</div>",,html-keyboard-response,290,1880224,0.0-17.0-0.16,15196,List2B,white,man,,,,null,,,,
null,"<img src=""stim_listB/talk2.gif""</stim_listB>",,html-keyboard-response,291,1882230,0.0-17.0-1.16,15196,List2B,white,man,,,,null,,,,
null,are talking to each other,,html-keyboard-response,292,1884233,0.0-17.0-2.16,15196,List2B,white,man,,,,null,,,,
20396,,,survey-text,293,1904633,0.0-17.0-3.16,15196,List2B,white,man,,,,,"{""Q0"":""Dave and Ruth are talking to each other ""}","<img src=""stim_listB/talk2.gif""</stim_listB>",are talking to each other,
null,"<div style=""font-size:60px;"">+</div>",,html-keyboard-response,294,1905136,0.0-17.0-0.17,15196,List2B,white,man,,,,null,,,,
null,"<img src=""stim_listB/dance2.gif""</stim_listB>",,html-keyboard-response,295,1907141,0.0-17.0-1.17,15196,List2B,white,man,,,,null,,,,
null,are dancing with each other,,html-keyboard-response,296,1909153,0.0-17.0-2.17,15196,List2B,white,man,,,,null,,,,
25762,,,survey-text,297,1934919,0.0-17.0-3.17,15196,List2B,white,man,,,,,"{""Q0"":""Dave and Ruth are dancing with each other ""}","<img src=""stim_listB/dance2.gif""</stim_listB>",are dancing with each other,
null,"<div style=""font-size:60px;"">+</div>",,html-keyboard-response,298,1935423,0.0-17.0-0.18,15196,List2B,white,man,,,,null,,,,
null,"<img src=""stim_listB/kiss1.gif""</stim_listB>",,html-keyboard-response,299,1937427,0.0-17.0-1.18,15196,List2B,white,man,,,,null,,,,
null,is kissing,,html-keyboard-response,300,1939431,0.0-17.0-2.18,15196,List2B,white,man,,,,null,,,,
13272,,,survey-text,301,1952707,0.0-17.0-3.18,15196,List2B,white,man,,,,,"{""Q0"":""Ruth is kissing Luke ""}","<img src=""stim_listB/kiss1.gif""</stim_listB>",is kissing,
null,"<div style=""font-size:60px;"">+</div>",,html-keyboard-response,302,1953210,0.0-17.0-0.19,15196,List2B,white,man,,,,null,,,,
null,"<img src=""stim_listB/shout8.gif""</stim_listB>",,html-keyboard-response,303,1955214,0.0-17.0-1.19,15196,List2B,white,man,,,,null,,,,
null,are shouting at each other,,html-keyboard-response,304,1957219,0.0-17.0-2.19,15196,List2B,white,man,,,,null,,,,
19338,,,survey-text,305,1976560,0.0-17.0-3.19,15196,List2B,white,man,,,,,"{""Q0"":""Jane and Kate are shouting at each other ""}","<img src=""stim_listB/shout8.gif""</stim_listB>",are shouting at each other,
12681,"<img src='img/portrait_matrix_list2.JPG' style='width:900px;height:500px;''></img><p>If you have memorised all the portraits and names and are ready to start, press Continue.</p><p><strong>Please note: Your memory of these faces will be tested 4 times during this experiment.</strong></p>",0,html-button-response,306,1989268,0.0-18.0-0.0,15196,List2B,white,man,,,,,,,,
3114,"<img src=""portrait/BM1.jpg""style=""width:400px;height:400px;""></img>",4,html-button-response,307,1993391,0.0-18.0-1.0,15196,List2B,white,man,,TRUE,4,,,,,
null,CORRECT,,html-keyboard-response,308,1994898,0.0-18.0-2.0-0.0,15196,List2B,white,man,,,,null,,,,
3130,"<img src=""portrait/BM2.jpg""style=""width:400px;height:400px;""></img>",5,html-button-response,309,1998039,0.0-18.0-4.0,15196,List2B,white,man,,TRUE,5,,,,,
null,CORRECT,,html-keyboard-response,310,1999544,0.0-18.0-5.0-0.0,15196,List2B,white,man,,,,null,,,,
2099,"<img src=""portrait/WM2.jpg""style=""width:400px;height:400px;""></img>",7,html-button-response,311,2001656,0.0-18.0-7.0,15196,List2B,white,man,,TRUE,7,,,,,
null,CORRECT,,html-keyboard-response,312,2003160,0.0-18.0-8.0-0.0,15196,List2B,white,man,,,,null,,,,
4571,"<img src=""portrait/WW2.jpg""style=""width:400px;height:400px;""></img>",3,html-button-response,313,2007742,0.0-18.0-10.0,15196,List2B,white,man,,TRUE,3,,,,,
null,CORRECT,,html-keyboard-response,314,2009246,0.0-18.0-11.0-0.0,15196,List2B,white,man,,,,null,,,,
2203,"<img src=""portrait/BW2.jpg""style=""width:400px;height:400px;""></img>",2,html-button-response,315,2011458,0.0-18.0-13.0,15196,List2B,white,man,,TRUE,2,,,,,
null,CORRECT,,html-keyboard-response,316,2012963,0.0-18.0-14.0-0.0,15196,List2B,white,man,,,,null,,,,
2217,"<img src=""portrait/WW1.jpg""style=""width:400px;height:400px;""></img>",1,html-button-response,317,2015190,0.0-18.0-16.0,15196,List2B,white,man,,TRUE,1,,,,,
null,CORRECT,,html-keyboard-response,318,2016694,0.0-18.0-17.0-0.0,15196,List2B,white,man,,,,null,,,,
1826,"<img src=""portrait/WM1.jpg""style=""width:400px;height:400px;""></img>",6,html-button-response,319,2018526,0.0-18.0-19.0,15196,List2B,white,man,,TRUE,6,,,,,
null,CORRECT,,html-keyboard-response,320,2020030,0.0-18.0-20.0-0.0,15196,List2B,white,man,,,,null,,,,
1583,"<img src=""portrait/BW1.jpg""style=""width:400px;height:400px;""></img>",0,html-button-response,321,2021624,0.0-18.0-22.0,15196,List2B,white,man,,TRUE,0,,,,,
null,CORRECT,,html-keyboard-response,322,2023129,0.0-18.0-23.0-0.0,15196,List2B,white,man,,,,null,,,,
2421,<p>You got 8 out of 8 right first time. Press Continue.</p>,0,html-button-response,323,2025556,0.0-18.0-25.0,15196,List2B,white,man,,,,,,,,
null,"<div style=""font-size:60px;"">+</div>",,html-keyboard-response,324,2027065,0.0-19.0-0.0,15196,List2B,white,man,,,,null,,,,
null,"<img src=""stim_listB/argue1.gif""</stim_listB>",,html-keyboard-response,325,2029071,0.0-19.0-1.0,15196,List2B,white,man,,,,null,,,,
null,is arguing with,,html-keyboard-response,326,2031074,0.0-19.0-2.0,15196,List2B,white,man,,,,null,,,,
15203,,,survey-text,327,2046282,0.0-19.0-3.0,15196,List2B,white,man,,,,,"{""Q0"":""Dave is arguing with Ruth ""}","<img src=""stim_listB/argue1.gif""</stim_listB>",is arguing with,
null,"<div style=""font-size:60px;"">+</div>",,html-keyboard-response,328,2046784,0.0-19.0-0.1,15196,List2B,white,man,,,,null,,,,
null,"<img src=""stim_listB/argue6.gif""</stim_listB>",,html-keyboard-response,329,2048784,0.0-19.0-1.1,15196,List2B,white,man,,,,null,,,,
null,are arguing with each other,,html-keyboard-response,330,2050786,0.0-19.0-2.1,15196,List2B,white,man,,,,null,,,,
17996,,,survey-text,331,2068785,0.0-19.0-3.1,15196,List2B,white,man,,,,,"{""Q0"":""Luke and mike are arguing with each other ""}","<img src=""stim_listB/argue6.gif""</stim_listB>",are arguing with each other,
null,"<div style=""font-size:60px;"">+</div>",,html-keyboard-response,332,2069288,0.0-19.0-0.2,15196,List2B,white,man,,,,null,,,,
null,"<img src=""stim_listB/hug1.gif""</stim_listB>",,html-keyboard-response,333,2071297,0.0-19.0-1.2,15196,List2B,white,man,,,,null,,,,
null,is hugging,,html-keyboard-response,334,2073299,0.0-19.0-2.2,15196,List2B,white,man,,,,null,,,,
13095,,,survey-text,335,2086398,0.0-19.0-3.2,15196,List2B,white,man,,,,,"{""Q0"":""Luke is hugging Ruth ""}","<img src=""stim_listB/hug1.gif""</stim_listB>",is hugging,
null,"<div style=""font-size:60px;"">+</div>",,html-keyboard-response,336,2086902,0.0-19.0-0.3,15196,List2B,white,man,,,,null,,,,
null,"<img src=""stim_listB/touch4.gif""</stim_listB>",,html-keyboard-response,337,2088906,0.0-19.0-1.3,15196,List2B,white,man,,,,null,,,,
null,are touching each other,,html-keyboard-response,338,2090910,0.0-19.0-2.3,15196,List2B,white,man,,,,null,,,,
19264,,,survey-text,339,2110179,0.0-19.0-3.3,15196,List2B,white,man,,,,,"{""Q0"":""Fred and Beth are touching each other ""}","<img src=""stim_listB/touch4.gif""</stim_listB>",are touching each other,
null,"<div style=""font-size:60px;"">+</div>",,html-keyboard-response,340,2110682,0.0-19.0-0.4,15196,List2B,white,man,,,,null,,,,
null,"<img src=""stim_listB/fight2.gif""</stim_listB>",,html-keyboard-response,341,2112686,0.0-19.0-1.4,15196,List2B,white,man,,,,null,,,,
null,are fighting each other,,html-keyboard-response,342,2114690,0.0-19.0-2.4,15196,List2B,white,man,,,,null,,,,
53879,,,survey-text,343,2168580,0.0-19.0-3.4,15196,List2B,white,man,,,,,"{""Q0"":""Ruth and Luke are fighting each other ""}","<img src=""stim_listB/fight2.gif""</stim_listB>",are fighting each other,
null,"<div style=""font-size:60px;"">+</div>",,html-keyboard-response,344,2169084,0.0-19.0-0.5,15196,List2B,white,man,,,,null,,,,
null,"<img src=""stim_listB/meet2.gif""</stim_listB>",,html-keyboard-response,345,2171089,0.0-19.0-1.5,15196,List2B,white,man,,,,null,,,,
null,are meeting each other,,html-keyboard-response,346,2173093,0.0-19.0-2.5,15196,List2B,white,man,,,,null,,,,
15756,,,survey-text,347,2188853,0.0-19.0-3.5,15196,List2B,white,man,,,,,"{""Q0"":""Are meeting each other ""}","<img src=""stim_listB/meet2.gif""</stim_listB>",are meeting each other,
null,"<div style=""font-size:60px;"">+</div>",,html-keyboard-response,348,2189356,0.0-19.0-0.6,15196,List2B,white,man,,,,null,,,,
null,"<img src=""stim_listB/hug5.gif""</stim_listB>",,html-keyboard-response,349,2191360,0.0-19.0-1.6,15196,List2B,white,man,,,,null,,,,
null,is hugging,,html-keyboard-response,350,2193364,0.0-19.0-2.6,15196,List2B,white,man,,,,null,,,,
15752,,,survey-text,351,2209120,0.0-19.0-3.6,15196,List2B,white,man,,,,,"{""Q0"":""Luke is hugging Fred ""}","<img src=""stim_listB/hug5.gif""</stim_listB>",is hugging,
null,"<div style=""font-size:60px;"">+</div>",,html-keyboard-response,352,2209624,0.0-19.0-0.7,15196,List2B,white,man,,,,null,,,,
null,"<img src=""stim_listB/hug8.gif""</stim_listB>",,html-keyboard-response,353,2211628,0.0-19.0-1.7,15196,List2B,white,man,,,,null,,,,
null,are hugging each other,,html-keyboard-response,354,2213633,0.0-19.0-2.7,15196,List2B,white,man,,,,null,,,,
24750,,,survey-text,355,2238389,0.0-19.0-3.7,15196,List2B,white,man,,,,,"{""Q0"":""Jane and Kate are hugging each other ""}","<img src=""stim_listB/hug8.gif""</stim_listB>",are hugging each other,
null,"<div style=""font-size:60px;"">+</div>",,html-keyboard-response,356,2238893,0.0-19.0-0.8,15196,List2B,white,man,,,,null,,,,
null,"<img src=""stim_listB/touch6.gif""</stim_listB>",,html-keyboard-response,357,2240897,0.0-19.0-1.8,15196,List2B,white,man,,,,null,,,,
null,are touching each other,,html-keyboard-response,358,2242900,0.0-19.0-2.8,15196,List2B,white,man,,,,null,,,,
41218,,,survey-text,359,2284122,0.0-19.0-3.8,15196,List2B,white,man,,,,,"{""Q0"":""Luke and Fred are touching each other ""}","<img src=""stim_listB/touch6.gif""</stim_listB>",are touching each other,
null,"<div style=""font-size:60px;"">+</div>",,html-keyboard-response,360,2284625,0.0-19.0-0.9,15196,List2B,white,man,,,,null,,,,
null,"<img src=""stim_listB/hug2.gif""</stim_listB>",,html-keyboard-response,361,2286629,0.0-19.0-1.9,15196,List2B,white,man,,,,null,,,,
null,are hugging each other,,html-keyboard-response,362,2288634,0.0-19.0-2.9,15196,List2B,white,man,,,,null,,,,
142706,,,survey-text,363,2431351,0.0-19.0-3.9,15196,List2B,white,man,,,,,"{""Q0"":""Dave and Kate are hugging each other ""}","<img src=""stim_listB/hug2.gif""</stim_listB>",are hugging each other,
null,"<div style=""font-size:60px;"">+</div>",,html-keyboard-response,364,2431856,0.0-19.0-0.10,15196,List2B,white,man,,,,null,,,,
null,"<img src=""stim_listB/shout2.gif""</stim_listB>",,html-keyboard-response,365,2433862,0.0-19.0-1.10,15196,List2B,white,man,,,,null,,,,
null,are shouting at each other,,html-keyboard-response,366,2435867,0.0-19.0-2.10,15196,List2B,white,man,,,,null,,,,
23059,,,survey-text,367,2458931,0.0-19.0-3.10,15196,List2B,white,man,,,,,"{""Q0"":""Dave and Jane are shouting at each other ""}","<img src=""stim_listB/shout2.gif""</stim_listB>",are shouting at each other,
null,"<div style=""font-size:60px;"">+</div>",,html-keyboard-response,368,2459437,0.0-19.0-0.11,15196,List2B,white,man,,,,null,,,,
null,"<img src=""stim_listB/fight6.gif""</stim_listB>",,html-keyboard-response,369,2461441,0.0-19.0-1.11,15196,List2B,white,man,,,,null,,,,
null,are fighting each other,,html-keyboard-response,370,2463446,0.0-19.0-2.11,15196,List2B,white,man,,,,null,,,,
19518,,,survey-text,371,2482970,0.0-19.0-3.11,15196,List2B,white,man,,,,,"{""Q0"":""Luke and Fred are fighting each other ""}","<img src=""stim_listB/fight6.gif""</stim_listB>",are fighting each other,
null,"<div style=""font-size:60px;"">+</div>",,html-keyboard-response,372,2483473,0.0-19.0-0.12,15196,List2B,white,man,,,,null,,,,
null,"<img src=""stim_listB/argue3.gif""</stim_listB>",,html-keyboard-response,373,2485478,0.0-19.0-1.12,15196,List2B,white,man,,,,null,,,,
null,is arguing with,,html-keyboard-response,374,2487483,0.0-19.0-2.12,15196,List2B,white,man,,,,null,,,,
8968,,,survey-text,375,2496456,0.0-19.0-3.12,15196,List2B,white,man,,,,,"{""Q0"":""Is arguing with ""}","<img src=""stim_listB/argue3.gif""</stim_listB>",is arguing with,
null,"<div style=""font-size:60px;"">+</div>",,html-keyboard-response,376,2496960,0.0-19.0-0.13,15196,List2B,white,man,,,,null,,,,
null,"<img src=""stim_listB/kiss6.gif""</stim_listB>",,html-keyboard-response,377,2498964,0.0-19.0-1.13,15196,List2B,white,man,,,,null,,,,
null,are kissing each other,,html-keyboard-response,378,2500968,0.0-19.0-2.13,15196,List2B,white,man,,,,null,,,,
23568,,,survey-text,379,2524540,0.0-19.0-3.13,15196,List2B,white,man,,,,,"{""Q0"":""Dave and Mike are kissing each other ""}","<img src=""stim_listB/kiss6.gif""</stim_listB>",are kissing each other,
null,"<div style=""font-size:60px;"">+</div>",,html-keyboard-response,380,2525044,0.0-19.0-0.14,15196,List2B,white,man,,,,null,,,,
null,"<img src=""stim_listB/marry5.gif""</stim_listB>",,html-keyboard-response,381,2527047,0.0-19.0-1.14,15196,List2B,white,man,,,,null,,,,
null,is marrying,,html-keyboard-response,382,2529054,0.0-19.0-2.14,15196,List2B,white,man,,,,null,,,,
17882,,,survey-text,383,2546940,0.0-19.0-3.14,15196,List2B,white,man,,,,,"{""Q0"":""Dave is marrying Fred ""}","<img src=""stim_listB/marry5.gif""</stim_listB>",is marrying,
null,"<div style=""font-size:60px;"">+</div>",,html-keyboard-response,384,2547444,0.0-19.0-0.15,15196,List2B,white,man,,,,null,,,,
null,"<img src=""stim_listB/marry1.gif""</stim_listB>",,html-keyboard-response,385,2549448,0.0-19.0-1.15,15196,List2B,white,man,,,,null,,,,
null,is marrying,,html-keyboard-response,386,2551452,0.0-19.0-2.15,15196,List2B,white,man,,,,null,,,,
15453,,,survey-text,387,2566909,0.0-19.0-3.15,15196,List2B,white,man,,,,,"{""Q0"":""Ruth is marrying Dave ""}","<img src=""stim_listB/marry1.gif""</stim_listB>",is marrying,
null,"<div style=""font-size:60px;"">+</div>",,html-keyboard-response,388,2567414,0.0-19.0-0.16,15196,List2B,white,man,,,,null,,,,
null,"<img src=""stim_listB/touch8.gif""</stim_listB>",,html-keyboard-response,389,2569418,0.0-19.0-1.16,15196,List2B,white,man,,,,null,,,,
null,are touching each other,,html-keyboard-response,390,2571423,0.0-19.0-2.16,15196,List2B,white,man,,,,null,,,,
21634,,,survey-text,391,2593062,0.0-19.0-3.16,15196,List2B,white,man,,,,,"{""Q0"":""Ruth and Beth are touching each other ""}","<img src=""stim_listB/touch8.gif""</stim_listB>",are touching each other,
null,"<div style=""font-size:60px;"">+</div>",,html-keyboard-response,392,2593565,0.0-19.0-0.17,15196,List2B,white,man,,,,null,,,,
null,"<img src=""stim_listB/shout7.gif""</stim_listB>",,html-keyboard-response,393,2595569,0.0-19.0-1.17,15196,List2B,white,man,,,,null,,,,
null,is shouting at,,html-keyboard-response,394,2597573,0.0-19.0-2.17,15196,List2B,white,man,,,,null,,,,
39702,,,survey-text,395,2637280,0.0-19.0-3.17,15196,List2B,white,man,,,,,"{""Q0"":""Beth is shouting at Ruth ""}","<img src=""stim_listB/shout7.gif""</stim_listB>",is shouting at,
null,"<div style=""font-size:60px;"">+</div>",,html-keyboard-response,396,2637784,0.0-19.0-0.18,15196,List2B,white,man,,,,null,,,,
null,"<img src=""stim_listB/meet1.gif""</stim_listB>",,html-keyboard-response,397,2639788,0.0-19.0-1.18,15196,List2B,white,man,,,,null,,,,
null,is meeting,,html-keyboard-response,398,2641793,0.0-19.0-2.18,15196,List2B,white,man,,,,null,,,,
20437,,,survey-text,399,2662233,0.0-19.0-3.18,15196,List2B,white,man,,,,,"{""Q0"":""Jane is meeting Dave ""}","<img src=""stim_listB/meet1.gif""</stim_listB>",is meeting,
null,"<div style=""font-size:60px;"">+</div>",,html-keyboard-response,400,2662736,0.0-19.0-0.19,15196,List2B,white,man,,,,null,,,,
null,"<img src=""stim_listB/meet3.gif""</stim_listB>",,html-keyboard-response,401,2664740,0.0-19.0-1.19,15196,List2B,white,man,,,,null,,,,
null,is meeting,,html-keyboard-response,402,2666745,0.0-19.0-2.19,15196,List2B,white,man,,,,null,,,,
14015,,,survey-text,403,2680764,0.0-19.0-3.19,15196,List2B,white,man,,,,,"{""Q0"":""Kate is meeting Mike ""}","<img src=""stim_listB/meet3.gif""</stim_listB>",is meeting,
2972,<p>Thank you for completing that task.</p><p>The final part of this session is a short questionnaire.</p><p>Press Continue.</p>,0,html-button-response,404,2683748,0.0-20.0,15196,List2B,white,man,,,,,,,,
44358,,,survey-text,405,2729117,0.0-21.0,15196,List2B,white,man,,,,,"{""Q0"":""37"",""Q1"":""English "",""Q2"":""English "",""Q3"":""England "",""Q4"":""White "",""Q5"":""Male""}",,,demographics
71598,,,survey-likert,406,2800747,0.0-22.0,15196,List2B,white,man,,,,,"{""Q0"":3,""Q1"":3,""Q2"":2,""Q3"":4,""Q4"":1,""Q5"":3,""Q6"":1,""Q7"":0,""Q8"":0,""Q9"":0,""Q10"":2,""Q11"":2,""Q12"":3,""Q13"":1}",,,likert_race
67367,,,survey-likert,407,2868120,0.0-23.0,15196,List2B,white,man,,,,,"{""Q0"":4,""Q1"":3,""Q2"":3,""Q3"":5,""Q4"":3,""Q5"":3,""Q6"":2,""Q7"":0,""Q8"":1,""Q9"":1,""Q10"":2,""Q11"":2,""Q12"":0,""Q13"":0}",,,likert_gender
29330,,,survey-text,408,2897453,0.0-24.0,15196,List2B,white,man,,,,,"{""Q0"":""ccc""}",,,worker_id
30468,,,external-html,409,2928061,0.0-25.0,15196,List2B,white,man,debrief.html,,,,,,,
