rt,stimulus,button_pressed,trial_type,trial_index,time_elapsed,internal_node_id,subject,list,ppt_race,ppt_gender,url,first_guess,correct,key_press,responses,image_type,phrase_type,test_part
2002,Welcome to the experiment. Press Continue to begin.,0,html-button-response,0,2009,0.0-0.0,15352,List2B,white,woman,,,,,,,,
45694,,,external-html,1,48745,0.0-1.0,15352,List2B,white,woman,consent.html,,,,,,,
9398,"<p>On the next page, you will see portraits of 8 people and their names.</p><p>Your first task is to take a few minutes to memorise the names of these people.</p><p>You will have to recall their names during the rest of the experiment, so it is</p><p>essential that you try to memorise these people and their names as best as you can.</p><br><p><strong>You will then be tested on your memory of these names and portraits.</strong></p><br><p>The experiment will start after you have completed this memory test.</p><br><p>Ready?</p>",0,html-button-response,2,58145,0.0-2.0,15352,List2B,white,woman,,,,,,,,
78416,"<img src='img/portrait_matrix_list2.JPG' style='width:900px;height:500px;''></img><p>If you have memorised all the portraits and names and are ready to start, press Continue.</p><p><strong>Please note: Your memory of these faces will be tested 4 times during this experiment.</strong></p>",0,html-button-response,3,137570,0.0-3.0-0.0,15352,List2B,white,woman,,,,,,,,
2662,"<img src=""portrait/WM2.jpg""style=""width:400px;height:400px;""></img>",7,html-button-response,4,141240,0.0-3.0-1.0,15352,List2B,white,woman,,TRUE,7,,,,,
null,CORRECT,,html-keyboard-response,5,142767,0.0-3.0-2.0-0.0,15352,List2B,white,woman,,,,null,,,,
4238,"<img src=""portrait/BM1.jpg""style=""width:400px;height:400px;""></img>",4,html-button-response,6,147008,0.0-3.0-4.0,15352,List2B,white,woman,,TRUE,4,,,,,
null,CORRECT,,html-keyboard-response,7,148547,0.0-3.0-5.0-0.0,15352,List2B,white,woman,,,,null,,,,
5331,"<img src=""portrait/BW2.jpg""style=""width:400px;height:400px;""></img>",2,html-button-response,8,153881,0.0-3.0-7.0,15352,List2B,white,woman,,TRUE,2,,,,,
null,CORRECT,,html-keyboard-response,9,155417,0.0-3.0-8.0-0.0,15352,List2B,white,woman,,,,null,,,,
2430,"<img src=""portrait/WW2.jpg""style=""width:400px;height:400px;""></img>",3,html-button-response,10,157849,0.0-3.0-10.0,15352,List2B,white,woman,,TRUE,3,,,,,
null,CORRECT,,html-keyboard-response,11,159377,0.0-3.0-11.0-0.0,15352,List2B,white,woman,,,,null,,,,
5677,"<img src=""portrait/WW1.jpg""style=""width:400px;height:400px;""></img>",1,html-button-response,12,165056,0.0-3.0-13.0,15352,List2B,white,woman,,TRUE,1,,,,,
null,CORRECT,,html-keyboard-response,13,166588,0.0-3.0-14.0-0.0,15352,List2B,white,woman,,,,null,,,,
3282,"<img src=""portrait/BW1.jpg""style=""width:400px;height:400px;""></img>",0,html-button-response,14,169873,0.0-3.0-16.0,15352,List2B,white,woman,,TRUE,0,,,,,
null,CORRECT,,html-keyboard-response,15,171394,0.0-3.0-17.0-0.0,15352,List2B,white,woman,,,,null,,,,
2493,"<img src=""portrait/WM1.jpg""style=""width:400px;height:400px;""></img>",6,html-button-response,16,173889,0.0-3.0-19.0,15352,List2B,white,woman,,TRUE,6,,,,,
null,CORRECT,,html-keyboard-response,17,175417,0.0-3.0-20.0-0.0,15352,List2B,white,woman,,,,null,,,,
2237,"<img src=""portrait/BM2.jpg""style=""width:400px;height:400px;""></img>",5,html-button-response,18,177656,0.0-3.0-22.0,15352,List2B,white,woman,,TRUE,5,,,,,
null,CORRECT,,html-keyboard-response,19,179195,0.0-3.0-23.0-0.0,15352,List2B,white,woman,,,,null,,,,
2073,<p>You got 8 out of 8 right first time. Press Continue.</p>,0,html-button-response,20,181273,0.0-3.0-25.0,15352,List2B,white,woman,,,,,,,,
57390,"<p>In this experiment, you will view photographs of the people from the memory game interacting.</p><p>By using the <strong>exact</strong> phrase given <i>after</i> the photograph appears and recalling the correct names of the people in the photographs, form a sentence describing the interaction. You do not need to capitalise names.</p><p>Type your answer in the space provided. Please complete every sentence before moving onto the next trial.</p><p>You will only have a few seconds to memorise each given photograph and phrase before you can respond, so try your best to focus.</p><p>An example is given below. Press 'Continue' when you are ready.</p><img src='img/speaking_example_v2.jpg' style='width:800px;height:460px;''></img>",0,html-button-response,21,239682,0.0-4.0,15352,List2B,white,woman,,,,,,,,
3223,"<p>Before the experiment starts, you will watch two example trials. Press 'Continue'.</p>",0,html-button-response,22,243913,0.0-5.0,15352,List2B,white,woman,,,,,,,,
null,<img src='img/speaking_WW.gif'></img>,,html-keyboard-response,23,246927,0.0-6.0,15352,List2B,white,woman,,,,null,,,,
null,<p>is speaking to</p>,,html-keyboard-response,24,248948,0.0-7.0,15352,List2B,white,woman,,,,null,,,,
6515,<p><b>Answer:</b> jane is speaking to ruth</p>,0,html-button-response,25,255465,0.0-8.0,15352,List2B,white,woman,,,,,,,,
null,<img src='img/pointing_BM.gif'></img>,,html-keyboard-response,26,258476,0.0-9.0,15352,List2B,white,woman,,,,null,,,,
null,<p>are pointing at each other</p>,,html-keyboard-response,27,260498,0.0-10.0,15352,List2B,white,woman,,,,null,,,,
5637,<p><b>Answer:</b> fred and mike are pointing at each other</p>,0,html-button-response,28,266136,0.0-11.0,15352,List2B,white,woman,,,,,,,,
11374,"<p>Ready to start the experiment?</p><br><p><strong>Remember to describe the picture using a full sentence,</strong></p><p><strong>that combines the names of the people with the given phrase.</strong></p><p><strong>If you do not do this correctly you will not be paid.</strong></p><p><strong> You do not need to capitalise names or use punctuation.</strong></p><br><p>Press 'Continue' to begin.</p>",0,html-button-response,29,278513,0.0-12.0,15352,List2B,white,woman,,,,,,,,
null,"<div style=""font-size:60px;"">+</div>",,html-keyboard-response,30,280027,0.0-13.0-0.0,15352,List2B,white,woman,,,,null,,,,
null,"<img src=""stim_listB/shout6.gif""</stim_listB>",,html-keyboard-response,31,282048,0.0-13.0-1.0,15352,List2B,white,woman,,,,null,,,,
null,are shouting at each other,,html-keyboard-response,32,284067,0.0-13.0-2.0,15352,List2B,white,woman,,,,null,,,,
17186,,,survey-text,33,301257,0.0-13.0-3.0,15352,List2B,white,woman,,,,,"{""Q0"":""dave and mike are shouting at each other""}","<img src=""stim_listB/shout6.gif""</stim_listB>",are shouting at each other,
null,"<div style=""font-size:60px;"">+</div>",,html-keyboard-response,34,301768,0.0-13.0-0.1,15352,List2B,white,woman,,,,null,,,,
null,"<img src=""stim_listB/hug6.gif""</stim_listB>",,html-keyboard-response,35,303778,0.0-13.0-1.1,15352,List2B,white,woman,,,,null,,,,
null,are hugging each other,,html-keyboard-response,36,305786,0.0-13.0-2.1,15352,List2B,white,woman,,,,null,,,,
11196,,,survey-text,37,316986,0.0-13.0-3.1,15352,List2B,white,woman,,,,,"{""Q0"":""dave and mike are hugging each other""}","<img src=""stim_listB/hug6.gif""</stim_listB>",are hugging each other,
null,"<div style=""font-size:60px;"">+</div>",,html-keyboard-response,38,317487,0.0-13.0-0.2,15352,List2B,white,woman,,,,null,,,,
null,"<img src=""stim_listB/talk6.gif""</stim_listB>",,html-keyboard-response,39,319496,0.0-13.0-1.2,15352,List2B,white,woman,,,,null,,,,
null,are talking to each other,,html-keyboard-response,40,321507,0.0-13.0-2.2,15352,List2B,white,woman,,,,null,,,,
13139,,,survey-text,41,334649,0.0-13.0-3.2,15352,List2B,white,woman,,,,,"{""Q0"":""dave and fred are talking to each other""}","<img src=""stim_listB/talk6.gif""</stim_listB>",are talking to each other,
null,"<div style=""font-size:60px;"">+</div>",,html-keyboard-response,42,335157,0.0-13.0-0.3,15352,List2B,white,woman,,,,null,,,,
null,"<img src=""stim_listB/fight2.gif""</stim_listB>",,html-keyboard-response,43,337166,0.0-13.0-1.3,15352,List2B,white,woman,,,,null,,,,
null,are fighting each other,,html-keyboard-response,44,339188,0.0-13.0-2.3,15352,List2B,white,woman,,,,null,,,,
15139,,,survey-text,45,354328,0.0-13.0-3.3,15352,List2B,white,woman,,,,,"{""Q0"":""ruth and luke are fighting each other""}","<img src=""stim_listB/fight2.gif""</stim_listB>",are fighting each other,
null,"<div style=""font-size:60px;"">+</div>",,html-keyboard-response,46,354836,0.0-13.0-0.4,15352,List2B,white,woman,,,,null,,,,
null,"<img src=""stim_listB/argue5.gif""</stim_listB>",,html-keyboard-response,47,356847,0.0-13.0-1.4,15352,List2B,white,woman,,,,null,,,,
null,is arguing with,,html-keyboard-response,48,358857,0.0-13.0-2.4,15352,List2B,white,woman,,,,null,,,,
10661,,,survey-text,49,369521,0.0-13.0-3.4,15352,List2B,white,woman,,,,,"{""Q0"":""dave is arguing with fred""}","<img src=""stim_listB/argue5.gif""</stim_listB>",is arguing with,
null,"<div style=""font-size:60px;"">+</div>",,html-keyboard-response,50,370028,0.0-13.0-0.5,15352,List2B,white,woman,,,,null,,,,
null,"<img src=""stim_listB/touch2.gif""</stim_listB>",,html-keyboard-response,51,372037,0.0-13.0-1.5,15352,List2B,white,woman,,,,null,,,,
null,are touching each other,,html-keyboard-response,52,374057,0.0-13.0-2.5,15352,List2B,white,woman,,,,null,,,,
9878,,,survey-text,53,383937,0.0-13.0-3.5,15352,List2B,white,woman,,,,,"{""Q0"":""luke and ruth are touching each other""}","<img src=""stim_listB/touch2.gif""</stim_listB>",are touching each other,
null,"<div style=""font-size:60px;"">+</div>",,html-keyboard-response,54,384449,0.0-13.0-0.6,15352,List2B,white,woman,,,,null,,,,
null,"<img src=""stim_listB/touch1.gif""</stim_listB>",,html-keyboard-response,55,386458,0.0-13.0-1.6,15352,List2B,white,woman,,,,null,,,,
null,is touching,,html-keyboard-response,56,388468,0.0-13.0-2.6,15352,List2B,white,woman,,,,null,,,,
8683,,,survey-text,57,397153,0.0-13.0-3.6,15352,List2B,white,woman,,,,,"{""Q0"":""dave is touching beth""}","<img src=""stim_listB/touch1.gif""</stim_listB>",is touching,
null,"<div style=""font-size:60px;"">+</div>",,html-keyboard-response,58,397667,0.0-13.0-0.7,15352,List2B,white,woman,,,,null,,,,
null,"<img src=""stim_listB/argue6.gif""</stim_listB>",,html-keyboard-response,59,399677,0.0-13.0-1.7,15352,List2B,white,woman,,,,null,,,,
null,are arguing with each other,,html-keyboard-response,60,401698,0.0-13.0-2.7,15352,List2B,white,woman,,,,null,,,,
15406,,,survey-text,61,417104,0.0-13.0-3.7,15352,List2B,white,woman,,,,,"{""Q0"":""luke and mike are arguing with each other""}","<img src=""stim_listB/argue6.gif""</stim_listB>",are arguing with each other,
null,"<div style=""font-size:60px;"">+</div>",,html-keyboard-response,62,417619,0.0-13.0-0.8,15352,List2B,white,woman,,,,null,,,,
null,"<img src=""stim_listB/marry1.gif""</stim_listB>",,html-keyboard-response,63,419638,0.0-13.0-1.8,15352,List2B,white,woman,,,,null,,,,
null,is marrying,,html-keyboard-response,64,421648,0.0-13.0-2.8,15352,List2B,white,woman,,,,null,,,,
7424,,,survey-text,65,429073,0.0-13.0-3.8,15352,List2B,white,woman,,,,,"{""Q0"":""dave is marrying beth""}","<img src=""stim_listB/marry1.gif""</stim_listB>",is marrying,
null,"<div style=""font-size:60px;"">+</div>",,html-keyboard-response,66,429574,0.0-13.0-0.9,15352,List2B,white,woman,,,,null,,,,
null,"<img src=""stim_listB/shout5.gif""</stim_listB>",,html-keyboard-response,67,431578,0.0-13.0-1.9,15352,List2B,white,woman,,,,null,,,,
null,is shouting at,,html-keyboard-response,68,433591,0.0-13.0-2.9,15352,List2B,white,woman,,,,null,,,,
9345,,,survey-text,69,442937,0.0-13.0-3.9,15352,List2B,white,woman,,,,,"{""Q0"":""dave is shouting at fred""}","<img src=""stim_listB/shout5.gif""</stim_listB>",is shouting at,
null,"<div style=""font-size:60px;"">+</div>",,html-keyboard-response,70,443448,0.0-13.0-0.10,15352,List2B,white,woman,,,,null,,,,
null,"<img src=""stim_listB/dance5.gif""</stim_listB>",,html-keyboard-response,71,445468,0.0-13.0-1.10,15352,List2B,white,woman,,,,null,,,,
null,is dancing with,,html-keyboard-response,72,447478,0.0-13.0-2.10,15352,List2B,white,woman,,,,null,,,,
10800,,,survey-text,73,458280,0.0-13.0-3.10,15352,List2B,white,woman,,,,,"{""Q0"":""mike is dancing with luke""}","<img src=""stim_listB/dance5.gif""</stim_listB>",is dancing with,
null,"<div style=""font-size:60px;"">+</div>",,html-keyboard-response,74,458798,0.0-13.0-0.11,15352,List2B,white,woman,,,,null,,,,
null,"<img src=""stim_listB/meet8.gif""</stim_listB>",,html-keyboard-response,75,460807,0.0-13.0-1.11,15352,List2B,white,woman,,,,null,,,,
null,are meeting each other,,html-keyboard-response,76,462814,0.0-13.0-2.11,15352,List2B,white,woman,,,,null,,,,
10322,,,survey-text,77,473136,0.0-13.0-3.11,15352,List2B,white,woman,,,,,"{""Q0"":""beth and kate are meeting each other""}","<img src=""stim_listB/meet8.gif""</stim_listB>",are meeting each other,
null,"<div style=""font-size:60px;"">+</div>",,html-keyboard-response,78,473655,0.0-13.0-0.12,15352,List2B,white,woman,,,,null,,,,
null,"<img src=""stim_listB/meet2.gif""</stim_listB>",,html-keyboard-response,79,475667,0.0-13.0-1.12,15352,List2B,white,woman,,,,null,,,,
null,are meeting each other,,html-keyboard-response,80,477675,0.0-13.0-2.12,15352,List2B,white,woman,,,,null,,,,
9110,,,survey-text,81,486786,0.0-13.0-3.12,15352,List2B,white,woman,,,,,"{""Q0"":""luke and beth are meeting each other""}","<img src=""stim_listB/meet2.gif""</stim_listB>",are meeting each other,
null,"<div style=""font-size:60px;"">+</div>",,html-keyboard-response,82,487289,0.0-13.0-0.13,15352,List2B,white,woman,,,,null,,,,
null,"<img src=""stim_listB/fight4.gif""</stim_listB>",,html-keyboard-response,83,489308,0.0-13.0-1.13,15352,List2B,white,woman,,,,null,,,,
null,are fighting each other,,html-keyboard-response,84,491321,0.0-13.0-2.13,15352,List2B,white,woman,,,,null,,,,
9607,,,survey-text,85,500930,0.0-13.0-3.13,15352,List2B,white,woman,,,,,"{""Q0"":""kate and fred are fighting each other""}","<img src=""stim_listB/fight4.gif""</stim_listB>",are fighting each other,
null,"<div style=""font-size:60px;"">+</div>",,html-keyboard-response,86,501447,0.0-13.0-0.14,15352,List2B,white,woman,,,,null,,,,
null,"<img src=""stim_listB/touch6.gif""</stim_listB>",,html-keyboard-response,87,503468,0.0-13.0-1.14,15352,List2B,white,woman,,,,null,,,,
null,are touching each other,,html-keyboard-response,88,505478,0.0-13.0-2.14,15352,List2B,white,woman,,,,null,,,,
11759,,,survey-text,89,517241,0.0-13.0-3.14,15352,List2B,white,woman,,,,,"{""Q0"":""luke and fred are touching each other""}","<img src=""stim_listB/touch6.gif""</stim_listB>",are touching each other,
null,"<div style=""font-size:60px;"">+</div>",,html-keyboard-response,90,517748,0.0-13.0-0.15,15352,List2B,white,woman,,,,null,,,,
null,"<img src=""stim_listB/touch8.gif""</stim_listB>",,html-keyboard-response,91,519811,0.0-13.0-1.15,15352,List2B,white,woman,,,,null,,,,
null,are touching each other,,html-keyboard-response,92,521817,0.0-13.0-2.15,15352,List2B,white,woman,,,,null,,,,
19838,,,survey-text,93,541658,0.0-13.0-3.15,15352,List2B,white,woman,,,,,"{""Q0"":""kate and beth are touching each other""}","<img src=""stim_listB/touch8.gif""</stim_listB>",are touching each other,
null,"<div style=""font-size:60px;"">+</div>",,html-keyboard-response,94,542168,0.0-13.0-0.16,15352,List2B,white,woman,,,,null,,,,
null,"<img src=""stim_listB/shout3.gif""</stim_listB>",,html-keyboard-response,95,544177,0.0-13.0-1.16,15352,List2B,white,woman,,,,null,,,,
null,is shouting at,,html-keyboard-response,96,546198,0.0-13.0-2.16,15352,List2B,white,woman,,,,null,,,,
7608,,,survey-text,97,553809,0.0-13.0-3.16,15352,List2B,white,woman,,,,,"{""Q0"":""kate is shouting at fred""}","<img src=""stim_listB/shout3.gif""</stim_listB>",is shouting at,
null,"<div style=""font-size:60px;"">+</div>",,html-keyboard-response,98,554318,0.0-13.0-0.17,15352,List2B,white,woman,,,,null,,,,
null,"<img src=""stim_listB/talk4.gif""</stim_listB>",,html-keyboard-response,99,556337,0.0-13.0-1.17,15352,List2B,white,woman,,,,null,,,,
null,are talking to each other,,html-keyboard-response,100,558357,0.0-13.0-2.17,15352,List2B,white,woman,,,,null,,,,
9161,,,survey-text,101,567520,0.0-13.0-3.17,15352,List2B,white,woman,,,,,"{""Q0"":""mike and kate are talking to each other""}","<img src=""stim_listB/talk4.gif""</stim_listB>",are talking to each other,
null,"<div style=""font-size:60px;"">+</div>",,html-keyboard-response,102,568033,0.0-13.0-0.18,15352,List2B,white,woman,,,,null,,,,
null,"<img src=""stim_listB/fight5.gif""</stim_listB>",,html-keyboard-response,103,570038,0.0-13.0-1.18,15352,List2B,white,woman,,,,null,,,,
null,is fighting,,html-keyboard-response,104,572043,0.0-13.0-2.18,15352,List2B,white,woman,,,,null,,,,
6508,,,survey-text,105,578553,0.0-13.0-3.18,15352,List2B,white,woman,,,,,"{""Q0"":""dave is fighting mike""}","<img src=""stim_listB/fight5.gif""</stim_listB>",is fighting,
null,"<div style=""font-size:60px;"">+</div>",,html-keyboard-response,106,579067,0.0-13.0-0.19,15352,List2B,white,woman,,,,null,,,,
null,"<img src=""stim_listB/argue2.gif""</stim_listB>",,html-keyboard-response,107,581086,0.0-13.0-1.19,15352,List2B,white,woman,,,,null,,,,
null,are arguing with each other,,html-keyboard-response,108,583098,0.0-13.0-2.19,15352,List2B,white,woman,,,,null,,,,
25366,,,survey-text,109,608465,0.0-13.0-3.19,15352,List2B,white,woman,,,,,"{""Q0"":""luke and jane are arguing with each other""}","<img src=""stim_listB/argue2.gif""</stim_listB>",are arguing with each other,
49742,"<img src='img/portrait_matrix_list2.JPG' style='width:900px;height:500px;''></img><p>If you have memorised all the portraits and names and are ready to start, press Continue.</p><p><strong>Please note: Your memory of these faces will be tested 4 times during this experiment.</strong></p>",0,html-button-response,110,658211,0.0-14.0-0.0,15352,List2B,white,woman,,,,,,,,
1614,"<img src=""portrait/WM2.jpg""style=""width:400px;height:400px;""></img>",7,html-button-response,111,660834,0.0-14.0-1.0,15352,List2B,white,woman,,TRUE,7,,,,,
null,CORRECT,,html-keyboard-response,112,662349,0.0-14.0-2.0-0.0,15352,List2B,white,woman,,,,null,,,,
2986,"<img src=""portrait/BW2.jpg""style=""width:400px;height:400px;""></img>",2,html-button-response,113,665337,0.0-14.0-4.0,15352,List2B,white,woman,,TRUE,2,,,,,
null,CORRECT,,html-keyboard-response,114,666868,0.0-14.0-5.0-0.0,15352,List2B,white,woman,,,,null,,,,
4361,"<img src=""portrait/WW1.jpg""style=""width:400px;height:400px;""></img>",1,html-button-response,115,671234,0.0-14.0-7.0,15352,List2B,white,woman,,TRUE,1,,,,,
null,CORRECT,,html-keyboard-response,116,672746,0.0-14.0-8.0-0.0,15352,List2B,white,woman,,,,null,,,,
2806,"<img src=""portrait/WM1.jpg""style=""width:400px;height:400px;""></img>",6,html-button-response,117,675553,0.0-14.0-10.0,15352,List2B,white,woman,,TRUE,6,,,,,
null,CORRECT,,html-keyboard-response,118,677078,0.0-14.0-11.0-0.0,15352,List2B,white,woman,,,,null,,,,
2194,"<img src=""portrait/BM2.jpg""style=""width:400px;height:400px;""></img>",5,html-button-response,119,679273,0.0-14.0-13.0,15352,List2B,white,woman,,TRUE,5,,,,,
null,CORRECT,,html-keyboard-response,120,680798,0.0-14.0-14.0-0.0,15352,List2B,white,woman,,,,null,,,,
2185,"<img src=""portrait/BW1.jpg""style=""width:400px;height:400px;""></img>",0,html-button-response,121,682986,0.0-14.0-16.0,15352,List2B,white,woman,,TRUE,0,,,,,
null,CORRECT,,html-keyboard-response,122,684507,0.0-14.0-17.0-0.0,15352,List2B,white,woman,,,,null,,,,
2329,"<img src=""portrait/BM1.jpg""style=""width:400px;height:400px;""></img>",4,html-button-response,123,686841,0.0-14.0-19.0,15352,List2B,white,woman,,TRUE,4,,,,,
null,CORRECT,,html-keyboard-response,124,688368,0.0-14.0-20.0-0.0,15352,List2B,white,woman,,,,null,,,,
1789,"<img src=""portrait/WW2.jpg""style=""width:400px;height:400px;""></img>",3,html-button-response,125,690161,0.0-14.0-22.0,15352,List2B,white,woman,,TRUE,3,,,,,
null,CORRECT,,html-keyboard-response,126,691685,0.0-14.0-23.0-0.0,15352,List2B,white,woman,,,,null,,,,
1378,<p>You got 8 out of 8 right first time. Press Continue.</p>,0,html-button-response,127,693066,0.0-14.0-25.0,15352,List2B,white,woman,,,,,,,,
null,"<div style=""font-size:60px;"">+</div>",,html-keyboard-response,128,694578,0.0-15.0-0.0,15352,List2B,white,woman,,,,null,,,,
null,"<img src=""stim_listB/argue8.gif""</stim_listB>",,html-keyboard-response,129,696593,0.0-15.0-1.0,15352,List2B,white,woman,,,,null,,,,
null,are arguing with each other,,html-keyboard-response,130,698595,0.0-15.0-2.0,15352,List2B,white,woman,,,,null,,,,
18926,,,survey-text,131,717522,0.0-15.0-3.0,15352,List2B,white,woman,,,,,"{""Q0"":""kate and ruth are arguing with each other""}","<img src=""stim_listB/argue8.gif""</stim_listB>",are arguing with each other,
null,"<div style=""font-size:60px;"">+</div>",,html-keyboard-response,132,718025,0.0-15.0-0.1,15352,List2B,white,woman,,,,null,,,,
null,"<img src=""stim_listB/fight3.gif""</stim_listB>",,html-keyboard-response,133,720038,0.0-15.0-1.1,15352,List2B,white,woman,,,,null,,,,
null,is fighting,,html-keyboard-response,134,722057,0.0-15.0-2.1,15352,List2B,white,woman,,,,null,,,,
6878,,,survey-text,135,728937,0.0-15.0-3.1,15352,List2B,white,woman,,,,,"{""Q0"":""kate is fighting mike""}","<img src=""stim_listB/fight3.gif""</stim_listB>",is fighting,
null,"<div style=""font-size:60px;"">+</div>",,html-keyboard-response,136,729441,0.0-15.0-0.2,15352,List2B,white,woman,,,,null,,,,
null,"<img src=""stim_listB/meet4.gif""</stim_listB>",,html-keyboard-response,137,731449,0.0-15.0-1.2,15352,List2B,white,woman,,,,null,,,,
null,are meeting each other,,html-keyboard-response,138,733468,0.0-15.0-2.2,15352,List2B,white,woman,,,,null,,,,
12332,,,survey-text,139,745801,0.0-15.0-3.2,15352,List2B,white,woman,,,,,"{""Q0"":""beth and fred are meeting each other""}","<img src=""stim_listB/meet4.gif""</stim_listB>",are meeting each other,
null,"<div style=""font-size:60px;"">+</div>",,html-keyboard-response,140,746308,0.0-15.0-0.3,15352,List2B,white,woman,,,,null,,,,
null,"<img src=""stim_listB/fight6.gif""</stim_listB>",,html-keyboard-response,141,748318,0.0-15.0-1.3,15352,List2B,white,woman,,,,null,,,,
null,are fighting each other,,html-keyboard-response,142,750337,0.0-15.0-2.3,15352,List2B,white,woman,,,,null,,,,
11261,,,survey-text,143,761601,0.0-15.0-3.3,15352,List2B,white,woman,,,,,"{""Q0"":""luke and fred are fighting each other""}","<img src=""stim_listB/fight6.gif""</stim_listB>",are fighting each other,
null,"<div style=""font-size:60px;"">+</div>",,html-keyboard-response,144,762118,0.0-15.0-0.4,15352,List2B,white,woman,,,,null,,,,
null,"<img src=""stim_listB/marry2.gif""</stim_listB>",,html-keyboard-response,145,764138,0.0-15.0-1.4,15352,List2B,white,woman,,,,null,,,,
null,are marrying each other,,html-keyboard-response,146,766145,0.0-15.0-2.4,15352,List2B,white,woman,,,,null,,,,
9832,,,survey-text,147,775979,0.0-15.0-3.4,15352,List2B,white,woman,,,,,"{""Q0"":""jane and luke are marrying each other""}","<img src=""stim_listB/marry2.gif""</stim_listB>",are marrying each other,
null,"<div style=""font-size:60px;"">+</div>",,html-keyboard-response,148,776499,0.0-15.0-0.5,15352,List2B,white,woman,,,,null,,,,
null,"<img src=""stim_listB/dance8.gif""</stim_listB>",,html-keyboard-response,149,778518,0.0-15.0-1.5,15352,List2B,white,woman,,,,null,,,,
null,are dancing with each other,,html-keyboard-response,150,780538,0.0-15.0-2.5,15352,List2B,white,woman,,,,null,,,,
16821,,,survey-text,151,797361,0.0-15.0-3.5,15352,List2B,white,woman,,,,,"{""Q0"":""jane and beth are dancing with each other""}","<img src=""stim_listB/dance8.gif""</stim_listB>",are dancing with each other,
null,"<div style=""font-size:60px;"">+</div>",,html-keyboard-response,152,797868,0.0-15.0-0.6,15352,List2B,white,woman,,,,null,,,,
null,"<img src=""stim_listB/fight1.gif""</stim_listB>",,html-keyboard-response,153,799888,0.0-15.0-1.6,15352,List2B,white,woman,,,,null,,,,
null,is fighting,,html-keyboard-response,154,801899,0.0-15.0-2.6,15352,List2B,white,woman,,,,null,,,,
8054,,,survey-text,155,809953,0.0-15.0-3.6,15352,List2B,white,woman,,,,,"{""Q0"":""jane is fighting dave""}","<img src=""stim_listB/fight1.gif""</stim_listB>",is fighting,
null,"<div style=""font-size:60px;"">+</div>",,html-keyboard-response,156,810469,0.0-15.0-0.7,15352,List2B,white,woman,,,,null,,,,
null,"<img src=""stim_listB/meet7.gif""</stim_listB>",,html-keyboard-response,157,812479,0.0-15.0-1.7,15352,List2B,white,woman,,,,null,,,,
null,is meeting,,html-keyboard-response,158,814495,0.0-15.0-2.7,15352,List2B,white,woman,,,,null,,,,
5920,,,survey-text,159,820418,0.0-15.0-3.7,15352,List2B,white,woman,,,,,"{""Q0"":""jane is meeting kate""}","<img src=""stim_listB/meet7.gif""</stim_listB>",is meeting,
null,"<div style=""font-size:60px;"">+</div>",,html-keyboard-response,160,820938,0.0-15.0-0.8,15352,List2B,white,woman,,,,null,,,,
null,"<img src=""stim_listB/hug2.gif""</stim_listB>",,html-keyboard-response,161,822948,0.0-15.0-1.8,15352,List2B,white,woman,,,,null,,,,
null,are hugging each other,,html-keyboard-response,162,824958,0.0-15.0-2.8,15352,List2B,white,woman,,,,null,,,,
9467,,,survey-text,163,834425,0.0-15.0-3.8,15352,List2B,white,woman,,,,,"{""Q0"":""jane and dave are hugging each other""}","<img src=""stim_listB/hug2.gif""</stim_listB>",are hugging each other,
null,"<div style=""font-size:60px;"">+</div>",,html-keyboard-response,164,834935,0.0-15.0-0.9,15352,List2B,white,woman,,,,null,,,,
null,"<img src=""stim_listB/dance3.gif""</stim_listB>",,html-keyboard-response,165,836948,0.0-15.0-1.9,15352,List2B,white,woman,,,,null,,,,
null,is dancing with,,html-keyboard-response,166,838953,0.0-15.0-2.9,15352,List2B,white,woman,,,,null,,,,
6943,,,survey-text,167,845897,0.0-15.0-3.9,15352,List2B,white,woman,,,,,"{""Q0"":""fred is dancing with kate""}","<img src=""stim_listB/dance3.gif""</stim_listB>",is dancing with,
null,"<div style=""font-size:60px;"">+</div>",,html-keyboard-response,168,846408,0.0-15.0-0.10,15352,List2B,white,woman,,,,null,,,,
null,"<img src=""stim_listB/kiss3.gif""</stim_listB>",,html-keyboard-response,169,848427,0.0-15.0-1.10,15352,List2B,white,woman,,,,null,,,,
null,is kissing,,html-keyboard-response,170,850433,0.0-15.0-2.10,15352,List2B,white,woman,,,,null,,,,
6983,,,survey-text,171,857417,0.0-15.0-3.10,15352,List2B,white,woman,,,,,"{""Q0"":""beth is kissing fred""}","<img src=""stim_listB/kiss3.gif""</stim_listB>",is kissing,
null,"<div style=""font-size:60px;"">+</div>",,html-keyboard-response,172,857939,0.0-15.0-0.11,15352,List2B,white,woman,,,,null,,,,
null,"<img src=""stim_listB/kiss8.gif""</stim_listB>",,html-keyboard-response,173,859959,0.0-15.0-1.11,15352,List2B,white,woman,,,,null,,,,
null,are kissing each other,,html-keyboard-response,174,861962,0.0-15.0-2.11,15352,List2B,white,woman,,,,null,,,,
17731,,,survey-text,175,879698,0.0-15.0-3.11,15352,List2B,white,woman,,,,,"{""Q0"":""jane and kate is kissing each other""}","<img src=""stim_listB/kiss8.gif""</stim_listB>",are kissing each other,
null,"<div style=""font-size:60px;"">+</div>",,html-keyboard-response,176,880219,0.0-15.0-0.12,15352,List2B,white,woman,,,,null,,,,
null,"<img src=""stim_listB/shout7.gif""</stim_listB>",,html-keyboard-response,177,882238,0.0-15.0-1.12,15352,List2B,white,woman,,,,null,,,,
null,is shouting at,,html-keyboard-response,178,884248,0.0-15.0-2.12,15352,List2B,white,woman,,,,null,,,,
10480,,,survey-text,179,894729,0.0-15.0-3.12,15352,List2B,white,woman,,,,,"{""Q0"":""beth is shouting at ruth""}","<img src=""stim_listB/shout7.gif""</stim_listB>",is shouting at,
null,"<div style=""font-size:60px;"">+</div>",,html-keyboard-response,180,895249,0.0-15.0-0.13,15352,List2B,white,woman,,,,null,,,,
null,"<img src=""stim_listB/hug7.gif""</stim_listB>",,html-keyboard-response,181,897265,0.0-15.0-1.13,15352,List2B,white,woman,,,,null,,,,
null,is hugging,,html-keyboard-response,182,899267,0.0-15.0-2.13,15352,List2B,white,woman,,,,null,,,,
7317,,,survey-text,183,906585,0.0-15.0-3.13,15352,List2B,white,woman,,,,,"{""Q0"":""beth is hugging ruth""}","<img src=""stim_listB/hug7.gif""</stim_listB>",is hugging,
null,"<div style=""font-size:60px;"">+</div>",,html-keyboard-response,184,907088,0.0-15.0-0.14,15352,List2B,white,woman,,,,null,,,,
null,"<img src=""stim_listB/touch7.gif""</stim_listB>",,html-keyboard-response,185,909108,0.0-15.0-1.14,15352,List2B,white,woman,,,,null,,,,
null,is touching,,html-keyboard-response,186,911113,0.0-15.0-2.14,15352,List2B,white,woman,,,,null,,,,
6048,,,survey-text,187,917161,0.0-15.0-3.14,15352,List2B,white,woman,,,,,"{""Q0"":""jane is touching kate""}","<img src=""stim_listB/touch7.gif""</stim_listB>",is touching,
null,"<div style=""font-size:60px;"">+</div>",,html-keyboard-response,188,917668,0.0-15.0-0.15,15352,List2B,white,woman,,,,null,,,,
null,"<img src=""stim_listB/fight8.gif""</stim_listB>",,html-keyboard-response,189,919680,0.0-15.0-1.15,15352,List2B,white,woman,,,,null,,,,
null,are fighting each other,,html-keyboard-response,190,921689,0.0-15.0-2.15,15352,List2B,white,woman,,,,null,,,,
16124,,,survey-text,191,937817,0.0-15.0-3.15,15352,List2B,white,woman,,,,,"{""Q0"":""beth and ruth are fighting each other""}","<img src=""stim_listB/fight8.gif""</stim_listB>",are fighting each other,
null,"<div style=""font-size:60px;"">+</div>",,html-keyboard-response,192,938337,0.0-15.0-0.16,15352,List2B,white,woman,,,,null,,,,
null,"<img src=""stim_listB/kiss4.gif""</stim_listB>",,html-keyboard-response,193,940359,0.0-15.0-1.16,15352,List2B,white,woman,,,,null,,,,
null,are kissing each other,,html-keyboard-response,194,942369,0.0-15.0-2.16,15352,List2B,white,woman,,,,null,,,,
14175,,,survey-text,195,956545,0.0-15.0-3.16,15352,List2B,white,woman,,,,,"{""Q0"":""kate and mike are kissing each other""}","<img src=""stim_listB/kiss4.gif""</stim_listB>",are kissing each other,
null,"<div style=""font-size:60px;"">+</div>",,html-keyboard-response,196,957049,0.0-15.0-0.17,15352,List2B,white,woman,,,,null,,,,
null,"<img src=""stim_listB/dance7.gif""</stim_listB>",,html-keyboard-response,197,959069,0.0-15.0-1.17,15352,List2B,white,woman,,,,null,,,,
null,is dancing with,,html-keyboard-response,198,961078,0.0-15.0-2.17,15352,List2B,white,woman,,,,null,,,,
10945,,,survey-text,199,972025,0.0-15.0-3.17,15352,List2B,white,woman,,,,,"{""Q0"":""kate is dancing with ruth""}","<img src=""stim_listB/dance7.gif""</stim_listB>",is dancing with,
null,"<div style=""font-size:60px;"">+</div>",,html-keyboard-response,200,972529,0.0-15.0-0.18,15352,List2B,white,woman,,,,null,,,,
null,"<img src=""stim_listB/argue1.gif""</stim_listB>",,html-keyboard-response,201,974538,0.0-15.0-1.18,15352,List2B,white,woman,,,,null,,,,
null,is arguing with,,html-keyboard-response,202,976540,0.0-15.0-2.18,15352,List2B,white,woman,,,,null,,,,
6716,,,survey-text,203,983258,0.0-15.0-3.18,15352,List2B,white,woman,,,,,"{""Q0"":""ruth is arguing with dave""}","<img src=""stim_listB/argue1.gif""</stim_listB>",is arguing with,
null,"<div style=""font-size:60px;"">+</div>",,html-keyboard-response,204,983771,0.0-15.0-0.19,15352,List2B,white,woman,,,,null,,,,
null,"<img src=""stim_listB/kiss7.gif""</stim_listB>",,html-keyboard-response,205,985779,0.0-15.0-1.19,15352,List2B,white,woman,,,,null,,,,
null,is kissing,,html-keyboard-response,206,987787,0.0-15.0-2.19,15352,List2B,white,woman,,,,null,,,,
5997,,,survey-text,207,993785,0.0-15.0-3.19,15352,List2B,white,woman,,,,,"{""Q0"":""beth is kissing ruth""}","<img src=""stim_listB/kiss7.gif""</stim_listB>",is kissing,
8638,"<img src='img/portrait_matrix_list2.JPG' style='width:900px;height:500px;''></img><p>If you have memorised all the portraits and names and are ready to start, press Continue.</p><p><strong>Please note: Your memory of these faces will be tested 4 times during this experiment.</strong></p>",0,html-button-response,208,1002426,0.0-16.0-0.0,15352,List2B,white,woman,,,,,,,,
1430,"<img src=""portrait/WM2.jpg""style=""width:400px;height:400px;""></img>",7,html-button-response,209,1004866,0.0-16.0-1.0,15352,List2B,white,woman,,TRUE,7,,,,,
null,CORRECT,,html-keyboard-response,210,1006390,0.0-16.0-2.0-0.0,15352,List2B,white,woman,,,,null,,,,
2091,"<img src=""portrait/BW1.jpg""style=""width:400px;height:400px;""></img>",0,html-button-response,211,1008482,0.0-16.0-4.0,15352,List2B,white,woman,,TRUE,0,,,,,
null,CORRECT,,html-keyboard-response,212,1009999,0.0-16.0-5.0-0.0,15352,List2B,white,woman,,,,null,,,,
2298,"<img src=""portrait/WM1.jpg""style=""width:400px;height:400px;""></img>",6,html-button-response,213,1012299,0.0-16.0-7.0,15352,List2B,white,woman,,TRUE,6,,,,,
null,CORRECT,,html-keyboard-response,214,1013839,0.0-16.0-8.0-0.0,15352,List2B,white,woman,,,,null,,,,
1464,"<img src=""portrait/BM1.jpg""style=""width:400px;height:400px;""></img>",4,html-button-response,215,1015306,0.0-16.0-10.0,15352,List2B,white,woman,,TRUE,4,,,,,
null,CORRECT,,html-keyboard-response,216,1016828,0.0-16.0-11.0-0.0,15352,List2B,white,woman,,,,null,,,,
1962,"<img src=""portrait/BW2.jpg""style=""width:400px;height:400px;""></img>",2,html-button-response,217,1018794,0.0-16.0-13.0,15352,List2B,white,woman,,TRUE,2,,,,,
null,CORRECT,,html-keyboard-response,218,1020329,0.0-16.0-14.0-0.0,15352,List2B,white,woman,,,,null,,,,
1383,"<img src=""portrait/WW2.jpg""style=""width:400px;height:400px;""></img>",3,html-button-response,219,1021714,0.0-16.0-16.0,15352,List2B,white,woman,,TRUE,3,,,,,
null,CORRECT,,html-keyboard-response,220,1023248,0.0-16.0-17.0-0.0,15352,List2B,white,woman,,,,null,,,,
1880,"<img src=""portrait/WW1.jpg""style=""width:400px;height:400px;""></img>",1,html-button-response,221,1025130,0.0-16.0-19.0,15352,List2B,white,woman,,TRUE,1,,,,,
null,CORRECT,,html-keyboard-response,222,1026665,0.0-16.0-20.0-0.0,15352,List2B,white,woman,,,,null,,,,
1695,"<img src=""portrait/BM2.jpg""style=""width:400px;height:400px;""></img>",5,html-button-response,223,1028362,0.0-16.0-22.0,15352,List2B,white,woman,,TRUE,5,,,,,
null,CORRECT,,html-keyboard-response,224,1029889,0.0-16.0-23.0-0.0,15352,List2B,white,woman,,,,null,,,,
1125,<p>You got 8 out of 8 right first time. Press Continue.</p>,0,html-button-response,225,1031018,0.0-16.0-25.0,15352,List2B,white,woman,,,,,,,,
null,"<div style=""font-size:60px;"">+</div>",,html-keyboard-response,226,1032549,0.0-17.0-0.0,15352,List2B,white,woman,,,,null,,,,
null,"<img src=""stim_listB/meet1.gif""</stim_listB>",,html-keyboard-response,227,1034559,0.0-17.0-1.0,15352,List2B,white,woman,,,,null,,,,
null,is meeting,,html-keyboard-response,228,1036569,0.0-17.0-2.0,15352,List2B,white,woman,,,,null,,,,
5064,,,survey-text,229,1041634,0.0-17.0-3.0,15352,List2B,white,woman,,,,,"{""Q0"":""dave is meeting jane""}","<img src=""stim_listB/meet1.gif""</stim_listB>",is meeting,
null,"<div style=""font-size:60px;"">+</div>",,html-keyboard-response,230,1042138,0.0-17.0-0.1,15352,List2B,white,woman,,,,null,,,,
null,"<img src=""stim_listB/shout8.gif""</stim_listB>",,html-keyboard-response,231,1044159,0.0-17.0-1.1,15352,List2B,white,woman,,,,null,,,,
null,are shouting at each other,,html-keyboard-response,232,1046168,0.0-17.0-2.1,15352,List2B,white,woman,,,,null,,,,
9653,,,survey-text,233,1055825,0.0-17.0-3.1,15352,List2B,white,woman,,,,,"{""Q0"":""jane and kate are shouting at each other""}","<img src=""stim_listB/shout8.gif""</stim_listB>",are shouting at each other,
null,"<div style=""font-size:60px;"">+</div>",,html-keyboard-response,234,1056329,0.0-17.0-0.2,15352,List2B,white,woman,,,,null,,,,
null,"<img src=""stim_listB/marry6.gif""</stim_listB>",,html-keyboard-response,235,1058348,0.0-17.0-1.2,15352,List2B,white,woman,,,,null,,,,
null,are marrying each other,,html-keyboard-response,236,1060362,0.0-17.0-2.2,15352,List2B,white,woman,,,,null,,,,
8863,,,survey-text,237,1069226,0.0-17.0-3.2,15352,List2B,white,woman,,,,,"{""Q0"":""mike and luke are marrying each other""}","<img src=""stim_listB/marry6.gif""</stim_listB>",are marrying each other,
null,"<div style=""font-size:60px;"">+</div>",,html-keyboard-response,238,1069739,0.0-17.0-0.3,15352,List2B,white,woman,,,,null,,,,
null,"<img src=""stim_listB/argue4.gif""</stim_listB>",,html-keyboard-response,239,1071754,0.0-17.0-1.3,15352,List2B,white,woman,,,,null,,,,
null,are arguing with each other,,html-keyboard-response,240,1073758,0.0-17.0-2.3,15352,List2B,white,woman,,,,null,,,,
9818,,,survey-text,241,1083578,0.0-17.0-3.3,15352,List2B,white,woman,,,,,"{""Q0"":""kate and fred are arguing with each other""}","<img src=""stim_listB/argue4.gif""</stim_listB>",are arguing with each other,
null,"<div style=""font-size:60px;"">+</div>",,html-keyboard-response,242,1084087,0.0-17.0-0.4,15352,List2B,white,woman,,,,null,,,,
null,"<img src=""stim_listB/hug8.gif""</stim_listB>",,html-keyboard-response,243,1086108,0.0-17.0-1.4,15352,List2B,white,woman,,,,null,,,,
null,are hugging each other,,html-keyboard-response,244,1088118,0.0-17.0-2.4,15352,List2B,white,woman,,,,null,,,,
8915,,,survey-text,245,1097034,0.0-17.0-3.4,15352,List2B,white,woman,,,,,"{""Q0"":""kate and jane are hugging each other""}","<img src=""stim_listB/hug8.gif""</stim_listB>",are hugging each other,
null,"<div style=""font-size:60px;"">+</div>",,html-keyboard-response,246,1097538,0.0-17.0-0.5,15352,List2B,white,woman,,,,null,,,,
null,"<img src=""stim_listB/hug5.gif""</stim_listB>",,html-keyboard-response,247,1099558,0.0-17.0-1.5,15352,List2B,white,woman,,,,null,,,,
null,is hugging,,html-keyboard-response,248,1101578,0.0-17.0-2.5,15352,List2B,white,woman,,,,null,,,,
6391,,,survey-text,249,1107970,0.0-17.0-3.5,15352,List2B,white,woman,,,,,"{""Q0"":""luke is hugging fred""}","<img src=""stim_listB/hug5.gif""</stim_listB>",is hugging,
null,"<div style=""font-size:60px;"">+</div>",,html-keyboard-response,250,1108478,0.0-17.0-0.6,15352,List2B,white,woman,,,,null,,,,
null,"<img src=""stim_listB/marry3.gif""</stim_listB>",,html-keyboard-response,251,1110489,0.0-17.0-1.6,15352,List2B,white,woman,,,,null,,,,
null,is marrying,,html-keyboard-response,252,1112494,0.0-17.0-2.6,15352,List2B,white,woman,,,,null,,,,
5460,,,survey-text,253,1117954,0.0-17.0-3.6,15352,List2B,white,woman,,,,,"{""Q0"":""mike is marrying beth""}","<img src=""stim_listB/marry3.gif""</stim_listB>",is marrying,
null,"<div style=""font-size:60px;"">+</div>",,html-keyboard-response,254,1118459,0.0-17.0-0.7,15352,List2B,white,woman,,,,null,,,,
null,"<img src=""stim_listB/kiss5.gif""</stim_listB>",,html-keyboard-response,255,1120469,0.0-17.0-1.7,15352,List2B,white,woman,,,,null,,,,
null,is kissing,,html-keyboard-response,256,1122490,0.0-17.0-2.7,15352,List2B,white,woman,,,,null,,,,
5524,,,survey-text,257,1128019,0.0-17.0-3.7,15352,List2B,white,woman,,,,,"{""Q0"":""fred is kissing luke""}","<img src=""stim_listB/kiss5.gif""</stim_listB>",is kissing,
null,"<div style=""font-size:60px;"">+</div>",,html-keyboard-response,258,1128529,0.0-17.0-0.8,15352,List2B,white,woman,,,,null,,,,
null,"<img src=""stim_listB/touch3.gif""</stim_listB>",,html-keyboard-response,259,1130539,0.0-17.0-1.8,15352,List2B,white,woman,,,,null,,,,
null,is touching,,html-keyboard-response,260,1132554,0.0-17.0-2.8,15352,List2B,white,woman,,,,null,,,,
5197,,,survey-text,261,1137754,0.0-17.0-3.8,15352,List2B,white,woman,,,,,"{""Q0"":""kate is touching mike""}","<img src=""stim_listB/touch3.gif""</stim_listB>",is touching,
null,"<div style=""font-size:60px;"">+</div>",,html-keyboard-response,262,1138269,0.0-17.0-0.9,15352,List2B,white,woman,,,,null,,,,
null,"<img src=""stim_listB/marry7.gif""</stim_listB>",,html-keyboard-response,263,1140278,0.0-17.0-1.9,15352,List2B,white,woman,,,,null,,,,
null,is marrying,,html-keyboard-response,264,1142284,0.0-17.0-2.9,15352,List2B,white,woman,,,,null,,,,
7406,,,survey-text,265,1149690,0.0-17.0-3.9,15352,List2B,white,woman,,,,,"{""Q0"":""beth is marrying jane""}","<img src=""stim_listB/marry7.gif""</stim_listB>",is marrying,
null,"<div style=""font-size:60px;"">+</div>",,html-keyboard-response,266,1150199,0.0-17.0-0.10,15352,List2B,white,woman,,,,null,,,,
null,"<img src=""stim_listB/talk3.gif""</stim_listB>",,html-keyboard-response,267,1152219,0.0-17.0-1.10,15352,List2B,white,woman,,,,null,,,,
null,is talking to,,html-keyboard-response,268,1154229,0.0-17.0-2.10,15352,List2B,white,woman,,,,null,,,,
6179,,,survey-text,269,1160410,0.0-17.0-3.10,15352,List2B,white,woman,,,,,"{""Q0"":""kate is talking to fred""}","<img src=""stim_listB/talk3.gif""</stim_listB>",is talking to,
null,"<div style=""font-size:60px;"">+</div>",,html-keyboard-response,270,1160928,0.0-17.0-0.11,15352,List2B,white,woman,,,,null,,,,
null,"<img src=""stim_listB/meet5.gif""</stim_listB>",,html-keyboard-response,271,1162949,0.0-17.0-1.11,15352,List2B,white,woman,,,,null,,,,
null,is meeting,,html-keyboard-response,272,1164959,0.0-17.0-2.11,15352,List2B,white,woman,,,,null,,,,
8299,,,survey-text,273,1173258,0.0-17.0-3.11,15352,List2B,white,woman,,,,,"{""Q0"":""mike is meeting dave""}","<img src=""stim_listB/meet5.gif""</stim_listB>",is meeting,
null,"<div style=""font-size:60px;"">+</div>",,html-keyboard-response,274,1173779,0.0-17.0-0.12,15352,List2B,white,woman,,,,null,,,,
null,"<img src=""stim_listB/fight7.gif""</stim_listB>",,html-keyboard-response,275,1175798,0.0-17.0-1.12,15352,List2B,white,woman,,,,null,,,,
null,is fighting,,html-keyboard-response,276,1177819,0.0-17.0-2.12,15352,List2B,white,woman,,,,null,,,,
7006,,,survey-text,277,1184826,0.0-17.0-3.12,15352,List2B,white,woman,,,,,"{""Q0"":""kate is fighting jane""}","<img src=""stim_listB/fight7.gif""</stim_listB>",is fighting,
null,"<div style=""font-size:60px;"">+</div>",,html-keyboard-response,278,1185338,0.0-17.0-0.13,15352,List2B,white,woman,,,,null,,,,
null,"<img src=""stim_listB/talk5.gif""</stim_listB>",,html-keyboard-response,279,1187359,0.0-17.0-1.13,15352,List2B,white,woman,,,,null,,,,
null,is talking to,,html-keyboard-response,280,1189368,0.0-17.0-2.13,15352,List2B,white,woman,,,,null,,,,
6944,,,survey-text,281,1196313,0.0-17.0-3.13,15352,List2B,white,woman,,,,,"{""Q0"":""luke is talking to mike""}","<img src=""stim_listB/talk5.gif""</stim_listB>",is talking to,
null,"<div style=""font-size:60px;"">+</div>",,html-keyboard-response,282,1196828,0.0-17.0-0.14,15352,List2B,white,woman,,,,null,,,,
null,"<img src=""stim_listB/dance6.gif""</stim_listB>",,html-keyboard-response,283,1198831,0.0-17.0-1.14,15352,List2B,white,woman,,,,null,,,,
null,are dancing with each other,,html-keyboard-response,284,1200838,0.0-17.0-2.14,15352,List2B,white,woman,,,,null,,,,
10169,,,survey-text,285,1211010,0.0-17.0-3.14,15352,List2B,white,woman,,,,,"{""Q0"":""dave and fred are dancing with each other""}","<img src=""stim_listB/dance6.gif""</stim_listB>",are dancing with each other,
null,"<div style=""font-size:60px;"">+</div>",,html-keyboard-response,286,1211530,0.0-17.0-0.15,15352,List2B,white,woman,,,,null,,,,
null,"<img src=""stim_listB/kiss6.gif""</stim_listB>",,html-keyboard-response,287,1213550,0.0-17.0-1.15,15352,List2B,white,woman,,,,null,,,,
null,are kissing each other,,html-keyboard-response,288,1215560,0.0-17.0-2.15,15352,List2B,white,woman,,,,null,,,,
8560,,,survey-text,289,1224122,0.0-17.0-3.15,15352,List2B,white,woman,,,,,"{""Q0"":""mike and dave are kissing each other""}","<img src=""stim_listB/kiss6.gif""</stim_listB>",are kissing each other,
null,"<div style=""font-size:60px;"">+</div>",,html-keyboard-response,290,1224628,0.0-17.0-0.16,15352,List2B,white,woman,,,,null,,,,
null,"<img src=""stim_listB/talk1.gif""</stim_listB>",,html-keyboard-response,291,1226639,0.0-17.0-1.16,15352,List2B,white,woman,,,,null,,,,
null,is talking to,,html-keyboard-response,292,1228659,0.0-17.0-2.16,15352,List2B,white,woman,,,,null,,,,
6518,,,survey-text,293,1235178,0.0-17.0-3.16,15352,List2B,white,woman,,,,,"{""Q0"":""jane is talking to luke""}","<img src=""stim_listB/talk1.gif""</stim_listB>",is talking to,
null,"<div style=""font-size:60px;"">+</div>",,html-keyboard-response,294,1235699,0.0-17.0-0.17,15352,List2B,white,woman,,,,null,,,,
null,"<img src=""stim_listB/argue7.gif""</stim_listB>",,html-keyboard-response,295,1237715,0.0-17.0-1.17,15352,List2B,white,woman,,,,null,,,,
null,is arguing with,,html-keyboard-response,296,1239729,0.0-17.0-2.17,15352,List2B,white,woman,,,,null,,,,
7936,,,survey-text,297,1247666,0.0-17.0-3.17,15352,List2B,white,woman,,,,,"{""Q0"":""jane is arguing with beth""}","<img src=""stim_listB/argue7.gif""</stim_listB>",is arguing with,
null,"<div style=""font-size:60px;"">+</div>",,html-keyboard-response,298,1248179,0.0-17.0-0.18,15352,List2B,white,woman,,,,null,,,,
null,"<img src=""stim_listB/talk7.gif""</stim_listB>",,html-keyboard-response,299,1250181,0.0-17.0-1.18,15352,List2B,white,woman,,,,null,,,,
null,is talking to,,html-keyboard-response,300,1252189,0.0-17.0-2.18,15352,List2B,white,woman,,,,null,,,,
7549,,,survey-text,301,1259738,0.0-17.0-3.18,15352,List2B,white,woman,,,,,"{""Q0"":""kate is talking to ruth""}","<img src=""stim_listB/talk7.gif""</stim_listB>",is talking to,
null,"<div style=""font-size:60px;"">+</div>",,html-keyboard-response,302,1260245,0.0-17.0-0.19,15352,List2B,white,woman,,,,null,,,,
null,"<img src=""stim_listB/hug4.gif""</stim_listB>",,html-keyboard-response,303,1262269,0.0-17.0-1.19,15352,List2B,white,woman,,,,null,,,,
null,are hugging each other,,html-keyboard-response,304,1264283,0.0-17.0-2.19,15352,List2B,white,woman,,,,null,,,,
9054,,,survey-text,305,1273338,0.0-17.0-3.19,15352,List2B,white,woman,,,,,"{""Q0"":""kate and mike are hugging each other""}","<img src=""stim_listB/hug4.gif""</stim_listB>",are hugging each other,
9909,"<img src='img/portrait_matrix_list2.JPG' style='width:900px;height:500px;''></img><p>If you have memorised all the portraits and names and are ready to start, press Continue.</p><p><strong>Please note: Your memory of these faces will be tested 4 times during this experiment.</strong></p>",0,html-button-response,306,1283251,0.0-18.0-0.0,15352,List2B,white,woman,,,,,,,,
2568,"<img src=""portrait/WW1.jpg""style=""width:400px;height:400px;""></img>",1,html-button-response,307,1286842,0.0-18.0-1.0,15352,List2B,white,woman,,TRUE,1,,,,,
null,CORRECT,,html-keyboard-response,308,1288359,0.0-18.0-2.0-0.0,15352,List2B,white,woman,,,,null,,,,
1326,"<img src=""portrait/WW2.jpg""style=""width:400px;height:400px;""></img>",3,html-button-response,309,1289690,0.0-18.0-4.0,15352,List2B,white,woman,,TRUE,3,,,,,
null,CORRECT,,html-keyboard-response,310,1291220,0.0-18.0-5.0-0.0,15352,List2B,white,woman,,,,null,,,,
2148,"<img src=""portrait/BM1.jpg""style=""width:400px;height:400px;""></img>",4,html-button-response,311,1293370,0.0-18.0-7.0,15352,List2B,white,woman,,TRUE,4,,,,,
null,CORRECT,,html-keyboard-response,312,1294907,0.0-18.0-8.0-0.0,15352,List2B,white,woman,,,,null,,,,
1253,"<img src=""portrait/WM2.jpg""style=""width:400px;height:400px;""></img>",7,html-button-response,313,1296163,0.0-18.0-10.0,15352,List2B,white,woman,,TRUE,7,,,,,
null,CORRECT,,html-keyboard-response,314,1297689,0.0-18.0-11.0-0.0,15352,List2B,white,woman,,,,null,,,,
1687,"<img src=""portrait/BW1.jpg""style=""width:400px;height:400px;""></img>",0,html-button-response,315,1299378,0.0-18.0-13.0,15352,List2B,white,woman,,TRUE,0,,,,,
null,CORRECT,,html-keyboard-response,316,1300899,0.0-18.0-14.0-0.0,15352,List2B,white,woman,,,,null,,,,
1765,"<img src=""portrait/WM1.jpg""style=""width:400px;height:400px;""></img>",6,html-button-response,317,1302666,0.0-18.0-16.0,15352,List2B,white,woman,,TRUE,6,,,,,
null,CORRECT,,html-keyboard-response,318,1304190,0.0-18.0-17.0-0.0,15352,List2B,white,woman,,,,null,,,,
1938,"<img src=""portrait/BW2.jpg""style=""width:400px;height:400px;""></img>",2,html-button-response,319,1306131,0.0-18.0-19.0,15352,List2B,white,woman,,TRUE,2,,,,,
null,CORRECT,,html-keyboard-response,320,1307669,0.0-18.0-20.0-0.0,15352,List2B,white,woman,,,,null,,,,
1546,"<img src=""portrait/BM2.jpg""style=""width:400px;height:400px;""></img>",5,html-button-response,321,1309218,0.0-18.0-22.0,15352,List2B,white,woman,,TRUE,5,,,,,
null,CORRECT,,html-keyboard-response,322,1310750,0.0-18.0-23.0-0.0,15352,List2B,white,woman,,,,null,,,,
1201,<p>You got 8 out of 8 right first time. Press Continue.</p>,0,html-button-response,323,1311954,0.0-18.0-25.0,15352,List2B,white,woman,,,,,,,,
null,"<div style=""font-size:60px;"">+</div>",,html-keyboard-response,324,1313477,0.0-19.0-0.0,15352,List2B,white,woman,,,,null,,,,
null,"<img src=""stim_listB/talk8.gif""</stim_listB>",,html-keyboard-response,325,1315489,0.0-19.0-1.0,15352,List2B,white,woman,,,,null,,,,
null,are talking to each other,,html-keyboard-response,326,1317500,0.0-19.0-2.0,15352,List2B,white,woman,,,,null,,,,
9774,,,survey-text,327,1327274,0.0-19.0-3.0,15352,List2B,white,woman,,,,,"{""Q0"":""jane and beth are talking to each other""}","<img src=""stim_listB/talk8.gif""</stim_listB>",are talking to each other,
null,"<div style=""font-size:60px;"">+</div>",,html-keyboard-response,328,1327780,0.0-19.0-0.1,15352,List2B,white,woman,,,,null,,,,
null,"<img src=""stim_listB/talk2.gif""</stim_listB>",,html-keyboard-response,329,1329798,0.0-19.0-1.1,15352,List2B,white,woman,,,,null,,,,
null,are talking to each other,,html-keyboard-response,330,1331818,0.0-19.0-2.1,15352,List2B,white,woman,,,,null,,,,
8670,,,survey-text,331,1340490,0.0-19.0-3.1,15352,List2B,white,woman,,,,,"{""Q0"":""dave and ruth are talking to each other""}","<img src=""stim_listB/talk2.gif""</stim_listB>",are talking to each other,
null,"<div style=""font-size:60px;"">+</div>",,html-keyboard-response,332,1340999,0.0-19.0-0.2,15352,List2B,white,woman,,,,null,,,,
null,"<img src=""stim_listB/dance4.gif""</stim_listB>",,html-keyboard-response,333,1343019,0.0-19.0-1.2,15352,List2B,white,woman,,,,null,,,,
null,are dancing with each other,,html-keyboard-response,334,1345029,0.0-19.0-2.2,15352,List2B,white,woman,,,,null,,,,
11436,,,survey-text,335,1356467,0.0-19.0-3.2,15352,List2B,white,woman,,,,,"{""Q0"":""beth and mike are dancing with each other""}","<img src=""stim_listB/dance4.gif""</stim_listB>",are dancing with each other,
null,"<div style=""font-size:60px;"">+</div>",,html-keyboard-response,336,1356979,0.0-19.0-0.3,15352,List2B,white,woman,,,,null,,,,
null,"<img src=""stim_listB/meet3.gif""</stim_listB>",,html-keyboard-response,337,1358999,0.0-19.0-1.3,15352,List2B,white,woman,,,,null,,,,
null,is meeting,,html-keyboard-response,338,1361010,0.0-19.0-2.3,15352,List2B,white,woman,,,,null,,,,
5150,,,survey-text,339,1366162,0.0-19.0-3.3,15352,List2B,white,woman,,,,,"{""Q0"":""kate is meeting mike""}","<img src=""stim_listB/meet3.gif""</stim_listB>",is meeting,
null,"<div style=""font-size:60px;"">+</div>",,html-keyboard-response,340,1366679,0.0-19.0-0.4,15352,List2B,white,woman,,,,null,,,,
null,"<img src=""stim_listB/marry5.gif""</stim_listB>",,html-keyboard-response,341,1368688,0.0-19.0-1.4,15352,List2B,white,woman,,,,null,,,,
null,is marrying,,html-keyboard-response,342,1370691,0.0-19.0-2.4,15352,List2B,white,woman,,,,null,,,,
7102,,,survey-text,343,1377794,0.0-19.0-3.4,15352,List2B,white,woman,,,,,"{""Q0"":""fred is marrying dave""}","<img src=""stim_listB/marry5.gif""</stim_listB>",is marrying,
null,"<div style=""font-size:60px;"">+</div>",,html-keyboard-response,344,1378309,0.0-19.0-0.5,15352,List2B,white,woman,,,,null,,,,
null,"<img src=""stim_listB/marry8.gif""</stim_listB>",,html-keyboard-response,345,1380329,0.0-19.0-1.5,15352,List2B,white,woman,,,,null,,,,
null,are marrying each other,,html-keyboard-response,346,1382349,0.0-19.0-2.5,15352,List2B,white,woman,,,,null,,,,
10212,,,survey-text,347,1392562,0.0-19.0-3.5,15352,List2B,white,woman,,,,,"{""Q0"":""kate and ruth are marrying each other""}","<img src=""stim_listB/marry8.gif""</stim_listB>",are marrying each other,
null,"<div style=""font-size:60px;"">+</div>",,html-keyboard-response,348,1393079,0.0-19.0-0.6,15352,List2B,white,woman,,,,null,,,,
null,"<img src=""stim_listB/hug3.gif""</stim_listB>",,html-keyboard-response,349,1395099,0.0-19.0-1.6,15352,List2B,white,woman,,,,null,,,,
null,is hugging,,html-keyboard-response,350,1397115,0.0-19.0-2.6,15352,List2B,white,woman,,,,null,,,,
6407,,,survey-text,351,1403523,0.0-19.0-3.6,15352,List2B,white,woman,,,,,"{""Q0"":""beth is hugging fred""}","<img src=""stim_listB/hug3.gif""</stim_listB>",is hugging,
null,"<div style=""font-size:60px;"">+</div>",,html-keyboard-response,352,1404029,0.0-19.0-0.7,15352,List2B,white,woman,,,,null,,,,
null,"<img src=""stim_listB/meet6.gif""</stim_listB>",,html-keyboard-response,353,1406035,0.0-19.0-1.7,15352,List2B,white,woman,,,,null,,,,
null,are meeting each other,,html-keyboard-response,354,1408037,0.0-19.0-2.7,15352,List2B,white,woman,,,,null,,,,
9405,,,survey-text,355,1417443,0.0-19.0-3.7,15352,List2B,white,woman,,,,,"{""Q0"":""luke and fred are meeting each other""}","<img src=""stim_listB/meet6.gif""</stim_listB>",are meeting each other,
null,"<div style=""font-size:60px;"">+</div>",,html-keyboard-response,356,1417949,0.0-19.0-0.8,15352,List2B,white,woman,,,,null,,,,
null,"<img src=""stim_listB/marry4.gif""</stim_listB>",,html-keyboard-response,357,1419959,0.0-19.0-1.8,15352,List2B,white,woman,,,,null,,,,
null,are marrying each other,,html-keyboard-response,358,1421970,0.0-19.0-2.8,15352,List2B,white,woman,,,,null,,,,
8846,,,survey-text,359,1430819,0.0-19.0-3.8,15352,List2B,white,woman,,,,,"{""Q0"":""kate and fred are marrying each other""}","<img src=""stim_listB/marry4.gif""</stim_listB>",are marrying each other,
null,"<div style=""font-size:60px;"">+</div>",,html-keyboard-response,360,1431337,0.0-19.0-0.9,15352,List2B,white,woman,,,,null,,,,
null,"<img src=""stim_listB/dance1.gif""</stim_listB>",,html-keyboard-response,361,1433339,0.0-19.0-1.9,15352,List2B,white,woman,,,,null,,,,
null,is dancing with,,html-keyboard-response,362,1435359,0.0-19.0-2.9,15352,List2B,white,woman,,,,null,,,,
7962,,,survey-text,363,1443323,0.0-19.0-3.9,15352,List2B,white,woman,,,,,"{""Q0"":""jane is dancing with luke""}","<img src=""stim_listB/dance1.gif""</stim_listB>",is dancing with,
null,"<div style=""font-size:60px;"">+</div>",,html-keyboard-response,364,1443832,0.0-19.0-0.10,15352,List2B,white,woman,,,,null,,,,
null,"<img src=""stim_listB/kiss1.gif""</stim_listB>",,html-keyboard-response,365,1445850,0.0-19.0-1.10,15352,List2B,white,woman,,,,null,,,,
null,is kissing,,html-keyboard-response,366,1447859,0.0-19.0-2.10,15352,List2B,white,woman,,,,null,,,,
5165,,,survey-text,367,1453026,0.0-19.0-3.10,15352,List2B,white,woman,,,,,"{""Q0"":""luke is kissing ruth""}","<img src=""stim_listB/kiss1.gif""</stim_listB>",is kissing,
null,"<div style=""font-size:60px;"">+</div>",,html-keyboard-response,368,1453529,0.0-19.0-0.11,15352,List2B,white,woman,,,,null,,,,
null,"<img src=""stim_listB/touch5.gif""</stim_listB>",,html-keyboard-response,369,1455551,0.0-19.0-1.11,15352,List2B,white,woman,,,,null,,,,
null,is touching,,html-keyboard-response,370,1457561,0.0-19.0-2.11,15352,List2B,white,woman,,,,null,,,,
5181,,,survey-text,371,1462746,0.0-19.0-3.11,15352,List2B,white,woman,,,,,"{""Q0"":""dave is touching mike""}","<img src=""stim_listB/touch5.gif""</stim_listB>",is touching,
null,"<div style=""font-size:60px;"">+</div>",,html-keyboard-response,372,1463260,0.0-19.0-0.12,15352,List2B,white,woman,,,,null,,,,
null,"<img src=""stim_listB/kiss2.gif""</stim_listB>",,html-keyboard-response,373,1465278,0.0-19.0-1.12,15352,List2B,white,woman,,,,null,,,,
null,are kissing each other,,html-keyboard-response,374,1467289,0.0-19.0-2.12,15352,List2B,white,woman,,,,null,,,,
9911,,,survey-text,375,1477202,0.0-19.0-3.12,15352,List2B,white,woman,,,,,"{""Q0"":""dave and jane are kissing each other""}","<img src=""stim_listB/kiss2.gif""</stim_listB>",are kissing each other,
null,"<div style=""font-size:60px;"">+</div>",,html-keyboard-response,376,1477704,0.0-19.0-0.13,15352,List2B,white,woman,,,,null,,,,
null,"<img src=""stim_listB/dance2.gif""</stim_listB>",,html-keyboard-response,377,1479709,0.0-19.0-1.13,15352,List2B,white,woman,,,,null,,,,
null,are dancing with each other,,html-keyboard-response,378,1481721,0.0-19.0-2.13,15352,List2B,white,woman,,,,null,,,,
12070,,,survey-text,379,1493794,0.0-19.0-3.13,15352,List2B,white,woman,,,,,"{""Q0"":""dave and ruth are dancing with each other""}","<img src=""stim_listB/dance2.gif""</stim_listB>",are dancing with each other,
null,"<div style=""font-size:60px;"">+</div>",,html-keyboard-response,380,1494299,0.0-19.0-0.14,15352,List2B,white,woman,,,,null,,,,
null,"<img src=""stim_listB/touch4.gif""</stim_listB>",,html-keyboard-response,381,1496314,0.0-19.0-1.14,15352,List2B,white,woman,,,,null,,,,
null,are touching each other,,html-keyboard-response,382,1498329,0.0-19.0-2.14,15352,List2B,white,woman,,,,null,,,,
11455,,,survey-text,383,1509786,0.0-19.0-3.14,15352,List2B,white,woman,,,,,"{""Q0"":""beth and fred are touching each other""}","<img src=""stim_listB/touch4.gif""</stim_listB>",are touching each other,
null,"<div style=""font-size:60px;"">+</div>",,html-keyboard-response,384,1510299,0.0-19.0-0.15,15352,List2B,white,woman,,,,null,,,,
null,"<img src=""stim_listB/shout2.gif""</stim_listB>",,html-keyboard-response,385,1512319,0.0-19.0-1.15,15352,List2B,white,woman,,,,null,,,,
null,are shouting at each other,,html-keyboard-response,386,1514325,0.0-19.0-2.15,15352,List2B,white,woman,,,,null,,,,
10757,,,survey-text,387,1525083,0.0-19.0-3.15,15352,List2B,white,woman,,,,,"{""Q0"":""dave and jane are shouting at each other""}","<img src=""stim_listB/shout2.gif""</stim_listB>",are shouting at each other,
null,"<div style=""font-size:60px;"">+</div>",,html-keyboard-response,388,1525589,0.0-19.0-0.16,15352,List2B,white,woman,,,,null,,,,
null,"<img src=""stim_listB/shout1.gif""</stim_listB>",,html-keyboard-response,389,1527609,0.0-19.0-1.16,15352,List2B,white,woman,,,,null,,,,
null,is shouting at,,html-keyboard-response,390,1529619,0.0-19.0-2.16,15352,List2B,white,woman,,,,null,,,,
6533,,,survey-text,391,1536155,0.0-19.0-3.16,15352,List2B,white,woman,,,,,"{""Q0"":""luke is shouting at ruth""}","<img src=""stim_listB/shout1.gif""</stim_listB>",is shouting at,
null,"<div style=""font-size:60px;"">+</div>",,html-keyboard-response,392,1536669,0.0-19.0-0.17,15352,List2B,white,woman,,,,null,,,,
null,"<img src=""stim_listB/shout4.gif""</stim_listB>",,html-keyboard-response,393,1538689,0.0-19.0-1.17,15352,List2B,white,woman,,,,null,,,,
null,are shouting at each other,,html-keyboard-response,394,1540699,0.0-19.0-2.17,15352,List2B,white,woman,,,,null,,,,
9798,,,survey-text,395,1550499,0.0-19.0-3.17,15352,List2B,white,woman,,,,,"{""Q0"":""kate and mike are shouting at each other""}","<img src=""stim_listB/shout4.gif""</stim_listB>",are shouting at each other,
null,"<div style=""font-size:60px;"">+</div>",,html-keyboard-response,396,1551019,0.0-19.0-0.18,15352,List2B,white,woman,,,,null,,,,
null,"<img src=""stim_listB/argue3.gif""</stim_listB>",,html-keyboard-response,397,1553040,0.0-19.0-1.18,15352,List2B,white,woman,,,,null,,,,
null,is arguing with,,html-keyboard-response,398,1555044,0.0-19.0-2.18,15352,List2B,white,woman,,,,null,,,,
7340,,,survey-text,399,1562387,0.0-19.0-3.18,15352,List2B,white,woman,,,,,"{""Q0"":""beth is arguing with mike""}","<img src=""stim_listB/argue3.gif""</stim_listB>",is arguing with,
null,"<div style=""font-size:60px;"">+</div>",,html-keyboard-response,400,1562900,0.0-19.0-0.19,15352,List2B,white,woman,,,,null,,,,
null,"<img src=""stim_listB/hug1.gif""</stim_listB>",,html-keyboard-response,401,1564910,0.0-19.0-1.19,15352,List2B,white,woman,,,,null,,,,
null,is hugging,,html-keyboard-response,402,1566929,0.0-19.0-2.19,15352,List2B,white,woman,,,,null,,,,
9048,,,survey-text,403,1575979,0.0-19.0-3.19,15352,List2B,white,woman,,,,,"{""Q0"":""luke is hugging ruth""}","<img src=""stim_listB/hug1.gif""</stim_listB>",is hugging,
2086,<p>Thank you for completing that task.</p><p>The final part of this session is a short questionnaire.</p><p>Press Continue.</p>,0,html-button-response,404,1578067,0.0-20.0,15352,List2B,white,woman,,,,,,,,
82692,,,survey-text,405,1661764,0.0-21.0,15352,List2B,white,woman,,,,,"{""Q0"":""28"",""Q1"":""English"",""Q2"":""English"",""Q3"":""UK"",""Q4"":""Caucasian"",""Q5"":""Female""}",,,demographics
87605,,,survey-likert,406,1749376,0.0-22.0,15352,List2B,white,woman,,,,,"{""Q0"":3,""Q1"":1,""Q2"":1,""Q3"":3,""Q4"":3,""Q5"":3,""Q6"":3,""Q7"":0,""Q8"":0,""Q9"":0,""Q10"":1,""Q11"":0,""Q12"":5,""Q13"":5}",,,likert_race
75440,,,survey-likert,407,1824824,0.0-23.0,15352,List2B,white,woman,,,,,"{""Q0"":3,""Q1"":3,""Q2"":3,""Q3"":5,""Q4"":5,""Q5"":3,""Q6"":3,""Q7"":3,""Q8"":2,""Q9"":1,""Q10"":0,""Q11"":0,""Q12"":5,""Q13"":5}",,,likert_gender
6447,,,survey-text,408,1831275,0.0-24.0,15352,List2B,white,woman,,,,,"{""Q0"":""ccc""}",,,worker_id
38773,,,external-html,409,1870123,0.0-25.0,15352,List2B,white,woman,debrief.html,,,,,,,
