rt,stimulus,button_pressed,trial_type,trial_index,time_elapsed,internal_node_id,subject,list,ppt_race,ppt_gender,url,first_guess,correct,key_press,responses,image_type,phrase_type,test_part
2386,Welcome to the experiment. Press Continue to begin.,0,html-button-response,0,2412,0.0-0.0,16069,List1A,black,man,,,,,,,,
25172,,,external-html,1,28775,0.0-1.0,16069,List1A,black,man,consent.html,,,,,,,
9817,"<p>On the next page, you will see portraits of 8 people and their names.</p><p>Your first task is to take a few minutes to memorise the names of these people.</p><p>You will have to recall their names during the rest of the experiment, so it is</p><p>essential that you try to memorise these people and their names as best as you can.</p><br><p><strong>You will then be tested on your memory of these names and portraits.</strong></p><br><p>The experiment will start after you have completed this memory test.</p><br><p>Ready?</p>",0,html-button-response,2,38596,0.0-2.0,16069,List1A,black,man,,,,,,,,
69310,"<img src='img/portrait_matrix_list1.JPG' style='width:900px;height:500px;''></img><p>If you have memorised all the portraits and names and are ready to start, press Continue.</p><p><strong>Please note: Your memory of these faces will be tested 4 times during this experiment.</strong></p>",0,html-button-response,3,108909,0.0-3.0-0.0,16069,List1A,black,man,,,,,,,,
8491,"<img src=""portrait/BW1.jpg""style=""width:400px;height:400px;""></img>",0,html-button-response,4,118406,0.0-3.0-1.0,16069,List1A,black,man,,TRUE,0,,,,,
null,CORRECT,,html-keyboard-response,5,119913,0.0-3.0-2.0-0.0,16069,List1A,black,man,,,,null,,,,
2742,"<img src=""portrait/WW1.jpg""style=""width:400px;height:400px;""></img>",1,html-button-response,6,122660,0.0-3.0-4.0,16069,List1A,black,man,,TRUE,1,,,,,
null,CORRECT,,html-keyboard-response,7,124165,0.0-3.0-5.0-0.0,16069,List1A,black,man,,,,null,,,,
3351,"<img src=""portrait/BM2.jpg""style=""width:400px;height:400px;""></img>",5,html-button-response,8,127520,0.0-3.0-7.0,16069,List1A,black,man,,TRUE,5,,,,,
null,CORRECT,,html-keyboard-response,9,129024,0.0-3.0-8.0-0.0,16069,List1A,black,man,,,,null,,,,
2498,"<img src=""portrait/WM2.jpg""style=""width:400px;height:400px;""></img>",7,html-button-response,10,131525,0.0-3.0-10.0,16069,List1A,black,man,,TRUE,7,,,,,
null,CORRECT,,html-keyboard-response,11,133030,0.0-3.0-11.0-0.0,16069,List1A,black,man,,,,null,,,,
2880,"<img src=""portrait/BW2.jpg""style=""width:400px;height:400px;""></img>",2,html-button-response,12,135913,0.0-3.0-13.0,16069,List1A,black,man,,TRUE,2,,,,,
null,CORRECT,,html-keyboard-response,13,137417,0.0-3.0-14.0-0.0,16069,List1A,black,man,,,,null,,,,
3184,"<img src=""portrait/WM1.jpg""style=""width:400px;height:400px;""></img>",6,html-button-response,14,140604,0.0-3.0-16.0,16069,List1A,black,man,,TRUE,6,,,,,
null,CORRECT,,html-keyboard-response,15,142107,0.0-3.0-17.0-0.0,16069,List1A,black,man,,,,null,,,,
2529,"<img src=""portrait/WW2.jpg""style=""width:400px;height:400px;""></img>",3,html-button-response,16,144638,0.0-3.0-19.0,16069,List1A,black,man,,TRUE,3,,,,,
null,CORRECT,,html-keyboard-response,17,146142,0.0-3.0-20.0-0.0,16069,List1A,black,man,,,,null,,,,
5688,"<img src=""portrait/BM1.jpg""style=""width:400px;height:400px;""></img>",4,html-button-response,18,151832,0.0-3.0-22.0,16069,List1A,black,man,,TRUE,4,,,,,
null,CORRECT,,html-keyboard-response,19,153346,0.0-3.0-23.0-0.0,16069,List1A,black,man,,,,null,,,,
1813,<p>You got 8 out of 8 right first time. Press Continue.</p>,0,html-button-response,20,155160,0.0-3.0-25.0,16069,List1A,black,man,,,,,,,,
101740,"<p>In this experiment, you will view photographs of the people from the memory game interacting.</p><p>By using the <strong>exact</strong> phrase given <i>after</i> the photograph appears and recalling the correct names of the people in the photographs, form a sentence describing the interaction. You do not need to capitalise names.</p><p>Type your answer in the space provided. Please complete every sentence before moving onto the next trial.</p><p>You will only have a few seconds to memorise each given photograph and phrase before you can respond, so try your best to focus.</p><p>An example is given below. Press 'Continue' when you are ready.</p><img src='img/speaking_example_v2.jpg' style='width:800px;height:460px;''></img>",0,html-button-response,21,257903,0.0-4.0,16069,List1A,black,man,,,,,,,,
4740,"<p>Before the experiment starts, you will watch two example trials. Press 'Continue'.</p>",0,html-button-response,22,263648,0.0-5.0,16069,List1A,black,man,,,,,,,,
null,<img src='img/speaking_WW.gif'></img>,,html-keyboard-response,23,266654,0.0-6.0,16069,List1A,black,man,,,,null,,,,
null,<p>is speaking to</p>,,html-keyboard-response,24,268656,0.0-7.0,16069,List1A,black,man,,,,null,,,,
2640,<p><b>Answer:</b> kate is speaking to beth</p>,0,html-button-response,25,271296,0.0-8.0,16069,List1A,black,man,,,,,,,,
null,<img src='img/pointing_BM.gif'></img>,,html-keyboard-response,26,274301,0.0-9.0,16069,List1A,black,man,,,,null,,,,
null,<p>are pointing at each other</p>,,html-keyboard-response,27,276302,0.0-10.0,16069,List1A,black,man,,,,null,,,,
1443,<p><b>Answer:</b> luke and dave are pointing at each other</p>,0,html-button-response,28,277746,0.0-11.0,16069,List1A,black,man,,,,,,,,
10602,"<p>Ready to start the experiment?</p><br><p><strong>Remember to describe the picture using a full sentence,</strong></p><p><strong>that combines the names of the people with the given phrase.</strong></p><p><strong>If you do not do this correctly you will not be paid.</strong></p><p><strong> You do not need to capitalise names or use punctuation.</strong></p><br><p>Press 'Continue' to begin.</p>",0,html-button-response,29,289352,0.0-12.0,16069,List1A,black,man,,,,,,,,
null,"<div style=""font-size:60px;"">+</div>",,html-keyboard-response,30,290856,0.0-13.0-0.0,16069,List1A,black,man,,,,null,,,,
null,"<img src=""stim_listA/talk5.gif""</stim_listA>",,html-keyboard-response,31,292859,0.0-13.0-1.0,16069,List1A,black,man,,,,null,,,,
null,is talking to,,html-keyboard-response,32,294862,0.0-13.0-2.0,16069,List1A,black,man,,,,null,,,,
12021,,,survey-text,33,306886,0.0-13.0-3.0,16069,List1A,black,man,,,,,"{""Q0"":""Fred is talking to dave.""}","<img src=""stim_listA/talk5.gif""</stim_listA>",is talking to,
null,"<div style=""font-size:60px;"">+</div>",,html-keyboard-response,34,307393,0.0-13.0-0.1,16069,List1A,black,man,,,,null,,,,
null,"<img src=""stim_listA/meet2.gif""</stim_listA>",,html-keyboard-response,35,309395,0.0-13.0-1.1,16069,List1A,black,man,,,,null,,,,
null,are meeting each other,,html-keyboard-response,36,311397,0.0-13.0-2.1,16069,List1A,black,man,,,,null,,,,
8981,,,survey-text,37,320380,0.0-13.0-3.1,16069,List1A,black,man,,,,,"{""Q0"":""Beth and fred are meeting each other.""}","<img src=""stim_listA/meet2.gif""</stim_listA>",are meeting each other,
null,"<div style=""font-size:60px;"">+</div>",,html-keyboard-response,38,320883,0.0-13.0-0.2,16069,List1A,black,man,,,,null,,,,
null,"<img src=""stim_listA/meet4.gif""</stim_listA>",,html-keyboard-response,39,322886,0.0-13.0-1.2,16069,List1A,black,man,,,,null,,,,
null,are meeting each other,,html-keyboard-response,40,324888,0.0-13.0-2.2,16069,List1A,black,man,,,,null,,,,
12191,,,survey-text,41,337081,0.0-13.0-3.2,16069,List1A,black,man,,,,,"{""Q0"":""Beth and luke are shaking hands.""}","<img src=""stim_listA/meet4.gif""</stim_listA>",are meeting each other,
null,"<div style=""font-size:60px;"">+</div>",,html-keyboard-response,42,337584,0.0-13.0-0.3,16069,List1A,black,man,,,,null,,,,
null,"<img src=""stim_listA/dance5.gif""</stim_listA>",,html-keyboard-response,43,339590,0.0-13.0-1.3,16069,List1A,black,man,,,,null,,,,
null,is dancing with,,html-keyboard-response,44,341592,0.0-13.0-2.3,16069,List1A,black,man,,,,null,,,,
7313,,,survey-text,45,348907,0.0-13.0-3.3,16069,List1A,black,man,,,,,"{""Q0"":""Fred is dancing with dave.""}","<img src=""stim_listA/dance5.gif""</stim_listA>",is dancing with,
null,"<div style=""font-size:60px;"">+</div>",,html-keyboard-response,46,349410,0.0-13.0-0.4,16069,List1A,black,man,,,,null,,,,
null,"<img src=""stim_listA/talk4.gif""</stim_listA>",,html-keyboard-response,47,351411,0.0-13.0-1.4,16069,List1A,black,man,,,,null,,,,
null,are talking to each other,,html-keyboard-response,48,353414,0.0-13.0-2.4,16069,List1A,black,man,,,,null,,,,
8865,,,survey-text,49,362280,0.0-13.0-3.4,16069,List1A,black,man,,,,,"{""Q0"":""Beth and dave are talking to each other.""}","<img src=""stim_listA/talk4.gif""</stim_listA>",are talking to each other,
null,"<div style=""font-size:60px;"">+</div>",,html-keyboard-response,50,362781,0.0-13.0-0.5,16069,List1A,black,man,,,,null,,,,
null,"<img src=""stim_listA/dance7.gif""</stim_listA>",,html-keyboard-response,51,364783,0.0-13.0-1.5,16069,List1A,black,man,,,,null,,,,
null,is dancing with,,html-keyboard-response,52,366785,0.0-13.0-2.5,16069,List1A,black,man,,,,null,,,,
7092,,,survey-text,53,373878,0.0-13.0-3.5,16069,List1A,black,man,,,,,"{""Q0"":""Beth is dancing with Jane""}","<img src=""stim_listA/dance7.gif""</stim_listA>",is dancing with,
null,"<div style=""font-size:60px;"">+</div>",,html-keyboard-response,54,374381,0.0-13.0-0.6,16069,List1A,black,man,,,,null,,,,
null,"<img src=""stim_listA/marry7.gif""</stim_listA>",,html-keyboard-response,55,376383,0.0-13.0-1.6,16069,List1A,black,man,,,,null,,,,
null,is marrying,,html-keyboard-response,56,378386,0.0-13.0-2.6,16069,List1A,black,man,,,,null,,,,
15642,,,survey-text,57,394030,0.0-13.0-3.6,16069,List1A,black,man,,,,,"{""Q0"":""Kate is marrying ruth.""}","<img src=""stim_listA/marry7.gif""</stim_listA>",is marrying,
null,"<div style=""font-size:60px;"">+</div>",,html-keyboard-response,58,394532,0.0-13.0-0.7,16069,List1A,black,man,,,,null,,,,
null,"<img src=""stim_listA/shout6.gif""</stim_listA>",,html-keyboard-response,59,396534,0.0-13.0-1.7,16069,List1A,black,man,,,,null,,,,
null,are shouting at each other,,html-keyboard-response,60,398537,0.0-13.0-2.7,16069,List1A,black,man,,,,null,,,,
6916,,,survey-text,61,405455,0.0-13.0-3.7,16069,List1A,black,man,,,,,"{""Q0"":""mike and dave are shouting at each other.""}","<img src=""stim_listA/shout6.gif""</stim_listA>",are shouting at each other,
null,"<div style=""font-size:60px;"">+</div>",,html-keyboard-response,62,405958,0.0-13.0-0.8,16069,List1A,black,man,,,,null,,,,
null,"<img src=""stim_listA/touch8.gif""</stim_listA>",,html-keyboard-response,63,407961,0.0-13.0-1.8,16069,List1A,black,man,,,,null,,,,
null,are touching each other,,html-keyboard-response,64,409964,0.0-13.0-2.8,16069,List1A,black,man,,,,null,,,,
10680,,,survey-text,65,420646,0.0-13.0-3.8,16069,List1A,black,man,,,,,"{""Q0"":""Beth and ruth are touching each other""}","<img src=""stim_listA/touch8.gif""</stim_listA>",are touching each other,
null,"<div style=""font-size:60px;"">+</div>",,html-keyboard-response,66,421153,0.0-13.0-0.9,16069,List1A,black,man,,,,null,,,,
null,"<img src=""stim_listA/hug7.gif""</stim_listA>",,html-keyboard-response,67,423156,0.0-13.0-1.9,16069,List1A,black,man,,,,null,,,,
null,is hugging,,html-keyboard-response,68,425158,0.0-13.0-2.9,16069,List1A,black,man,,,,null,,,,
4588,,,survey-text,69,429748,0.0-13.0-3.9,16069,List1A,black,man,,,,,"{""Q0"":""Ruth is hugging beth.""}","<img src=""stim_listA/hug7.gif""</stim_listA>",is hugging,
null,"<div style=""font-size:60px;"">+</div>",,html-keyboard-response,70,430252,0.0-13.0-0.10,16069,List1A,black,man,,,,null,,,,
null,"<img src=""stim_listA/marry8.gif""</stim_listA>",,html-keyboard-response,71,432256,0.0-13.0-1.10,16069,List1A,black,man,,,,null,,,,
null,are marrying each other,,html-keyboard-response,72,434257,0.0-13.0-2.10,16069,List1A,black,man,,,,null,,,,
8254,,,survey-text,73,442511,0.0-13.0-3.10,16069,List1A,black,man,,,,,"{""Q0"":""Jane and beth are marrying each other""}","<img src=""stim_listA/marry8.gif""</stim_listA>",are marrying each other,
null,"<div style=""font-size:60px;"">+</div>",,html-keyboard-response,74,443014,0.0-13.0-0.11,16069,List1A,black,man,,,,null,,,,
null,"<img src=""stim_listA/argue1.gif""</stim_listA>",,html-keyboard-response,75,445016,0.0-13.0-1.11,16069,List1A,black,man,,,,null,,,,
null,is arguing with,,html-keyboard-response,76,447018,0.0-13.0-2.11,16069,List1A,black,man,,,,null,,,,
5274,,,survey-text,77,452293,0.0-13.0-3.11,16069,List1A,black,man,,,,,"{""Q0"":""Mike is arguing with beth""}","<img src=""stim_listA/argue1.gif""</stim_listA>",is arguing with,
null,"<div style=""font-size:60px;"">+</div>",,html-keyboard-response,78,452794,0.0-13.0-0.12,16069,List1A,black,man,,,,null,,,,
null,"<img src=""stim_listA/hug1.gif""</stim_listA>",,html-keyboard-response,79,454797,0.0-13.0-1.12,16069,List1A,black,man,,,,null,,,,
null,is hugging,,html-keyboard-response,80,456799,0.0-13.0-2.12,16069,List1A,black,man,,,,null,,,,
7970,,,survey-text,81,464770,0.0-13.0-3.12,16069,List1A,black,man,,,,,"{""Q0"":""Fred is hugging beth""}","<img src=""stim_listA/hug1.gif""</stim_listA>",is hugging,
null,"<div style=""font-size:60px;"">+</div>",,html-keyboard-response,82,465274,0.0-13.0-0.13,16069,List1A,black,man,,,,null,,,,
null,"<img src=""stim_listA/dance6.gif""</stim_listA>",,html-keyboard-response,83,467277,0.0-13.0-1.13,16069,List1A,black,man,,,,null,,,,
null,are dancing with each other,,html-keyboard-response,84,469279,0.0-13.0-2.13,16069,List1A,black,man,,,,null,,,,
8706,,,survey-text,85,477985,0.0-13.0-3.13,16069,List1A,black,man,,,,,"{""Q0"":""Luke and mike are dancing with each other""}","<img src=""stim_listA/dance6.gif""</stim_listA>",are dancing with each other,
null,"<div style=""font-size:60px;"">+</div>",,html-keyboard-response,86,478489,0.0-13.0-0.14,16069,List1A,black,man,,,,null,,,,
null,"<img src=""stim_listA/kiss3.gif""</stim_listA>",,html-keyboard-response,87,480494,0.0-13.0-1.14,16069,List1A,black,man,,,,null,,,,
null,is kissing,,html-keyboard-response,88,482496,0.0-13.0-2.14,16069,List1A,black,man,,,,null,,,,
4937,,,survey-text,89,487434,0.0-13.0-3.14,16069,List1A,black,man,,,,,"{""Q0"":""ruth is kissing luke""}","<img src=""stim_listA/kiss3.gif""</stim_listA>",is kissing,
null,"<div style=""font-size:60px;"">+</div>",,html-keyboard-response,90,487935,0.0-13.0-0.15,16069,List1A,black,man,,,,null,,,,
null,"<img src=""stim_listA/argue3.gif""</stim_listA>",,html-keyboard-response,91,489939,0.0-13.0-1.15,16069,List1A,black,man,,,,null,,,,
null,is arguing with,,html-keyboard-response,92,491943,0.0-13.0-2.15,16069,List1A,black,man,,,,null,,,,
6086,,,survey-text,93,498031,0.0-13.0-3.15,16069,List1A,black,man,,,,,"{""Q0"":""Dave is arguing with ruth""}","<img src=""stim_listA/argue3.gif""</stim_listA>",is arguing with,
null,"<div style=""font-size:60px;"">+</div>",,html-keyboard-response,94,498534,0.0-13.0-0.16,16069,List1A,black,man,,,,null,,,,
null,"<img src=""stim_listA/fight3.gif""</stim_listA>",,html-keyboard-response,95,500540,0.0-13.0-1.16,16069,List1A,black,man,,,,null,,,,
null,is fighting,,html-keyboard-response,96,502542,0.0-13.0-2.16,16069,List1A,black,man,,,,null,,,,
6509,,,survey-text,97,509052,0.0-13.0-3.16,16069,List1A,black,man,,,,,"{""Q0"":""Jane is fighting dave""}","<img src=""stim_listA/fight3.gif""</stim_listA>",is fighting,
null,"<div style=""font-size:60px;"">+</div>",,html-keyboard-response,98,509556,0.0-13.0-0.17,16069,List1A,black,man,,,,null,,,,
null,"<img src=""stim_listA/fight7.gif""</stim_listA>",,html-keyboard-response,99,511560,0.0-13.0-1.17,16069,List1A,black,man,,,,null,,,,
null,is fighting,,html-keyboard-response,100,513569,0.0-13.0-2.17,16069,List1A,black,man,,,,null,,,,
5389,,,survey-text,101,518959,0.0-13.0-3.17,16069,List1A,black,man,,,,,"{""Q0"":""Jane is fighting kate""}","<img src=""stim_listA/fight7.gif""</stim_listA>",is fighting,
null,"<div style=""font-size:60px;"">+</div>",,html-keyboard-response,102,519462,0.0-13.0-0.18,16069,List1A,black,man,,,,null,,,,
null,"<img src=""stim_listA/meet3.gif""</stim_listA>",,html-keyboard-response,103,521465,0.0-13.0-1.18,16069,List1A,black,man,,,,null,,,,
null,is meeting,,html-keyboard-response,104,523468,0.0-13.0-2.18,16069,List1A,black,man,,,,null,,,,
5351,,,survey-text,105,528821,0.0-13.0-3.18,16069,List1A,black,man,,,,,"{""Q0"":""Jane is meeting dave""}","<img src=""stim_listA/meet3.gif""</stim_listA>",is meeting,
null,"<div style=""font-size:60px;"">+</div>",,html-keyboard-response,106,529323,0.0-13.0-0.19,16069,List1A,black,man,,,,null,,,,
null,"<img src=""stim_listA/meet5.gif""</stim_listA>",,html-keyboard-response,107,531325,0.0-13.0-1.19,16069,List1A,black,man,,,,null,,,,
null,is meeting,,html-keyboard-response,108,533328,0.0-13.0-2.19,16069,List1A,black,man,,,,null,,,,
4516,,,survey-text,109,537845,0.0-13.0-3.19,16069,List1A,black,man,,,,,"{""Q0"":""Mike is meeting dave.""}","<img src=""stim_listA/meet5.gif""</stim_listA>",is meeting,
10127,"<img src='img/portrait_matrix_list1.JPG' style='width:900px;height:500px;''></img><p>If you have memorised all the portraits and names and are ready to start, press Continue.</p><p><strong>Please note: Your memory of these faces will be tested 4 times during this experiment.</strong></p>",0,html-button-response,110,547975,0.0-14.0-0.0,16069,List1A,black,man,,,,,,,,
2337,"<img src=""portrait/BW1.jpg""style=""width:400px;height:400px;""></img>",0,html-button-response,111,551315,0.0-14.0-1.0,16069,List1A,black,man,,TRUE,0,,,,,
null,CORRECT,,html-keyboard-response,112,552820,0.0-14.0-2.0-0.0,16069,List1A,black,man,,,,null,,,,
2108,"<img src=""portrait/WM2.jpg""style=""width:400px;height:400px;""></img>",7,html-button-response,113,554931,0.0-14.0-4.0,16069,List1A,black,man,,TRUE,7,,,,,
null,CORRECT,,html-keyboard-response,114,556436,0.0-14.0-5.0-0.0,16069,List1A,black,man,,,,null,,,,
1907,"<img src=""portrait/WW2.jpg""style=""width:400px;height:400px;""></img>",3,html-button-response,115,558345,0.0-14.0-7.0,16069,List1A,black,man,,TRUE,3,,,,,
null,CORRECT,,html-keyboard-response,116,559851,0.0-14.0-8.0-0.0,16069,List1A,black,man,,,,null,,,,
5954,"<img src=""portrait/WW1.jpg""style=""width:400px;height:400px;""></img>",1,html-button-response,117,565807,0.0-14.0-10.0,16069,List1A,black,man,,TRUE,1,,,,,
null,CORRECT,,html-keyboard-response,118,567311,0.0-14.0-11.0-0.0,16069,List1A,black,man,,,,null,,,,
2051,"<img src=""portrait/BW2.jpg""style=""width:400px;height:400px;""></img>",2,html-button-response,119,569364,0.0-14.0-13.0,16069,List1A,black,man,,TRUE,2,,,,,
null,CORRECT,,html-keyboard-response,120,570870,0.0-14.0-14.0-0.0,16069,List1A,black,man,,,,null,,,,
2493,"<img src=""portrait/WM1.jpg""style=""width:400px;height:400px;""></img>",6,html-button-response,121,573365,0.0-14.0-16.0,16069,List1A,black,man,,TRUE,6,,,,,
null,CORRECT,,html-keyboard-response,122,574875,0.0-14.0-17.0-0.0,16069,List1A,black,man,,,,null,,,,
1593,"<img src=""portrait/BM1.jpg""style=""width:400px;height:400px;""></img>",4,html-button-response,123,576470,0.0-14.0-19.0,16069,List1A,black,man,,TRUE,4,,,,,
null,CORRECT,,html-keyboard-response,124,577971,0.0-14.0-20.0-0.0,16069,List1A,black,man,,,,null,,,,
4240,"<img src=""portrait/BM2.jpg""style=""width:400px;height:400px;""></img>",5,html-button-response,125,582214,0.0-14.0-22.0,16069,List1A,black,man,,TRUE,5,,,,,
null,CORRECT,,html-keyboard-response,126,583718,0.0-14.0-23.0-0.0,16069,List1A,black,man,,,,null,,,,
1772,<p>You got 8 out of 8 right first time. Press Continue.</p>,0,html-button-response,127,585491,0.0-14.0-25.0,16069,List1A,black,man,,,,,,,,
null,"<div style=""font-size:60px;"">+</div>",,html-keyboard-response,128,586995,0.0-15.0-0.0,16069,List1A,black,man,,,,null,,,,
null,"<img src=""stim_listA/hug2.gif""</stim_listA>",,html-keyboard-response,129,588997,0.0-15.0-1.0,16069,List1A,black,man,,,,null,,,,
null,are hugging each other,,html-keyboard-response,130,590999,0.0-15.0-2.0,16069,List1A,black,man,,,,null,,,,
13625,,,survey-text,131,604625,0.0-15.0-3.0,16069,List1A,black,man,,,,,"{""Q0"":""mike and kate are hugging each other""}","<img src=""stim_listA/hug2.gif""</stim_listA>",are hugging each other,
null,"<div style=""font-size:60px;"">+</div>",,html-keyboard-response,132,605127,0.0-15.0-0.1,16069,List1A,black,man,,,,null,,,,
null,"<img src=""stim_listA/hug3.gif""</stim_listA>",,html-keyboard-response,133,607130,0.0-15.0-1.1,16069,List1A,black,man,,,,null,,,,
null,is hugging,,html-keyboard-response,134,609132,0.0-15.0-2.1,16069,List1A,black,man,,,,null,,,,
5315,,,survey-text,135,614449,0.0-15.0-3.1,16069,List1A,black,man,,,,,"{""Q0"":""luke is hugging ruth""}","<img src=""stim_listA/hug3.gif""</stim_listA>",is hugging,
null,"<div style=""font-size:60px;"">+</div>",,html-keyboard-response,136,614953,0.0-15.0-0.2,16069,List1A,black,man,,,,null,,,,
null,"<img src=""stim_listA/kiss4.gif""</stim_listA>",,html-keyboard-response,137,616956,0.0-15.0-1.2,16069,List1A,black,man,,,,null,,,,
null,are kissing each other,,html-keyboard-response,138,618958,0.0-15.0-2.2,16069,List1A,black,man,,,,null,,,,
9322,,,survey-text,139,628281,0.0-15.0-3.2,16069,List1A,black,man,,,,,"{""Q0"":""dave and jane are kissing each other""}","<img src=""stim_listA/kiss4.gif""</stim_listA>",are kissing each other,
null,"<div style=""font-size:60px;"">+</div>",,html-keyboard-response,140,628784,0.0-15.0-0.3,16069,List1A,black,man,,,,null,,,,
null,"<img src=""stim_listA/kiss2.gif""</stim_listA>",,html-keyboard-response,141,630787,0.0-15.0-1.3,16069,List1A,black,man,,,,null,,,,
null,are kissing each other,,html-keyboard-response,142,632788,0.0-15.0-2.3,16069,List1A,black,man,,,,null,,,,
9681,,,survey-text,143,642471,0.0-15.0-3.3,16069,List1A,black,man,,,,,"{""Q0"":""mike and kate are kissing each other""}","<img src=""stim_listA/kiss2.gif""</stim_listA>",are kissing each other,
null,"<div style=""font-size:60px;"">+</div>",,html-keyboard-response,144,642974,0.0-15.0-0.4,16069,List1A,black,man,,,,null,,,,
null,"<img src=""stim_listA/marry6.gif""</stim_listA>",,html-keyboard-response,145,644976,0.0-15.0-1.4,16069,List1A,black,man,,,,null,,,,
null,are marrying each other,,html-keyboard-response,146,646978,0.0-15.0-2.4,16069,List1A,black,man,,,,null,,,,
9255,,,survey-text,147,656234,0.0-15.0-3.4,16069,List1A,black,man,,,,,"{""Q0"":""fred and dave are marrying each other""}","<img src=""stim_listA/marry6.gif""</stim_listA>",are marrying each other,
null,"<div style=""font-size:60px;"">+</div>",,html-keyboard-response,148,656736,0.0-15.0-0.5,16069,List1A,black,man,,,,null,,,,
null,"<img src=""stim_listA/meet7.gif""</stim_listA>",,html-keyboard-response,149,658738,0.0-15.0-1.5,16069,List1A,black,man,,,,null,,,,
null,is meeting,,html-keyboard-response,150,660740,0.0-15.0-2.5,16069,List1A,black,man,,,,null,,,,
8370,,,survey-text,151,669112,0.0-15.0-3.5,16069,List1A,black,man,,,,,"{""Q0"":""kate is meeting jane""}","<img src=""stim_listA/meet7.gif""</stim_listA>",is meeting,
null,"<div style=""font-size:60px;"">+</div>",,html-keyboard-response,152,669614,0.0-15.0-0.6,16069,List1A,black,man,,,,null,,,,
null,"<img src=""stim_listA/dance1.gif""</stim_listA>",,html-keyboard-response,153,671616,0.0-15.0-1.6,16069,List1A,black,man,,,,null,,,,
null,is dancing with,,html-keyboard-response,154,673619,0.0-15.0-2.6,16069,List1A,black,man,,,,null,,,,
6407,,,survey-text,155,680026,0.0-15.0-3.6,16069,List1A,black,man,,,,,"{""Q0"":""fred is dancing with kate""}","<img src=""stim_listA/dance1.gif""</stim_listA>",is dancing with,
null,"<div style=""font-size:60px;"">+</div>",,html-keyboard-response,156,680529,0.0-15.0-0.7,16069,List1A,black,man,,,,null,,,,
null,"<img src=""stim_listA/argue6.gif""</stim_listA>",,html-keyboard-response,157,682533,0.0-15.0-1.7,16069,List1A,black,man,,,,null,,,,
null,are arguing with each other,,html-keyboard-response,158,684534,0.0-15.0-2.7,16069,List1A,black,man,,,,null,,,,
10114,,,survey-text,159,694650,0.0-15.0-3.7,16069,List1A,black,man,,,,,"{""Q0"":""fred and dave are arguing with each other""}","<img src=""stim_listA/argue6.gif""</stim_listA>",are arguing with each other,
null,"<div style=""font-size:60px;"">+</div>",,html-keyboard-response,160,695153,0.0-15.0-0.8,16069,List1A,black,man,,,,null,,,,
null,"<img src=""stim_listA/marry5.gif""</stim_listA>",,html-keyboard-response,161,697155,0.0-15.0-1.8,16069,List1A,black,man,,,,null,,,,
null,is marrying,,html-keyboard-response,162,699157,0.0-15.0-2.8,16069,List1A,black,man,,,,null,,,,
5230,,,survey-text,163,704388,0.0-15.0-3.8,16069,List1A,black,man,,,,,"{""Q0"":""Mike is marrying luke""}","<img src=""stim_listA/marry5.gif""</stim_listA>",is marrying,
null,"<div style=""font-size:60px;"">+</div>",,html-keyboard-response,164,704892,0.0-15.0-0.9,16069,List1A,black,man,,,,null,,,,
null,"<img src=""stim_listA/argue4.gif""</stim_listA>",,html-keyboard-response,165,706896,0.0-15.0-1.9,16069,List1A,black,man,,,,null,,,,
null,are arguing with each other,,html-keyboard-response,166,708897,0.0-15.0-2.9,16069,List1A,black,man,,,,null,,,,
14576,,,survey-text,167,723475,0.0-15.0-3.9,16069,List1A,black,man,,,,,"{""Q0"":""Jane and luke are arguing with each other""}","<img src=""stim_listA/argue4.gif""</stim_listA>",are arguing with each other,
null,"<div style=""font-size:60px;"">+</div>",,html-keyboard-response,168,723978,0.0-15.0-0.10,16069,List1A,black,man,,,,null,,,,
null,"<img src=""stim_listA/fight5.gif""</stim_listA>",,html-keyboard-response,169,725981,0.0-15.0-1.10,16069,List1A,black,man,,,,null,,,,
null,is fighting,,html-keyboard-response,170,727983,0.0-15.0-2.10,16069,List1A,black,man,,,,null,,,,
7173,,,survey-text,171,735156,0.0-15.0-3.10,16069,List1A,black,man,,,,,"{""Q0"":""Mike is fighting dave""}","<img src=""stim_listA/fight5.gif""</stim_listA>",is fighting,
null,"<div style=""font-size:60px;"">+</div>",,html-keyboard-response,172,735658,0.0-15.0-0.11,16069,List1A,black,man,,,,null,,,,
null,"<img src=""stim_listA/touch2.gif""</stim_listA>",,html-keyboard-response,173,737660,0.0-15.0-1.11,16069,List1A,black,man,,,,null,,,,
null,are touching each other,,html-keyboard-response,174,739662,0.0-15.0-2.11,16069,List1A,black,man,,,,null,,,,
10005,,,survey-text,175,749669,0.0-15.0-3.11,16069,List1A,black,man,,,,,"{""Q0"":""Beth and fred are touching each other""}","<img src=""stim_listA/touch2.gif""</stim_listA>",are touching each other,
null,"<div style=""font-size:60px;"">+</div>",,html-keyboard-response,176,750173,0.0-15.0-0.12,16069,List1A,black,man,,,,null,,,,
null,"<img src=""stim_listA/talk3.gif""</stim_listA>",,html-keyboard-response,177,752177,0.0-15.0-1.12,16069,List1A,black,man,,,,null,,,,
null,is talking to,,html-keyboard-response,178,754180,0.0-15.0-2.12,16069,List1A,black,man,,,,null,,,,
6408,,,survey-text,179,760590,0.0-15.0-3.12,16069,List1A,black,man,,,,,"{""Q0"":""Jane is talking to luke""}","<img src=""stim_listA/talk3.gif""</stim_listA>",is talking to,
null,"<div style=""font-size:60px;"">+</div>",,html-keyboard-response,180,761094,0.0-15.0-0.13,16069,List1A,black,man,,,,null,,,,
null,"<img src=""stim_listA/shout4.gif""</stim_listA>",,html-keyboard-response,181,763095,0.0-15.0-1.13,16069,List1A,black,man,,,,null,,,,
null,are shouting at each other,,html-keyboard-response,182,765096,0.0-15.0-2.13,16069,List1A,black,man,,,,null,,,,
11949,,,survey-text,183,777047,0.0-15.0-3.13,16069,List1A,black,man,,,,,"{""Q0"":""Dave and jane are shouting at each other""}","<img src=""stim_listA/shout4.gif""</stim_listA>",are shouting at each other,
null,"<div style=""font-size:60px;"">+</div>",,html-keyboard-response,184,777550,0.0-15.0-0.14,16069,List1A,black,man,,,,null,,,,
null,"<img src=""stim_listA/dance8.gif""</stim_listA>",,html-keyboard-response,185,779555,0.0-15.0-1.14,16069,List1A,black,man,,,,null,,,,
null,are dancing with each other,,html-keyboard-response,186,781557,0.0-15.0-2.14,16069,List1A,black,man,,,,null,,,,
8740,,,survey-text,187,790299,0.0-15.0-3.14,16069,List1A,black,man,,,,,"{""Q0"":""ruth and kate are dancing with each other""}","<img src=""stim_listA/dance8.gif""</stim_listA>",are dancing with each other,
null,"<div style=""font-size:60px;"">+</div>",,html-keyboard-response,188,790802,0.0-15.0-0.15,16069,List1A,black,man,,,,null,,,,
null,"<img src=""stim_listA/touch4.gif""</stim_listA>",,html-keyboard-response,189,792806,0.0-15.0-1.15,16069,List1A,black,man,,,,null,,,,
null,are touching each other,,html-keyboard-response,190,794808,0.0-15.0-2.15,16069,List1A,black,man,,,,null,,,,
8010,,,survey-text,191,802819,0.0-15.0-3.15,16069,List1A,black,man,,,,,"{""Q0"":""ruth and luke are touching each other""}","<img src=""stim_listA/touch4.gif""</stim_listA>",are touching each other,
null,"<div style=""font-size:60px;"">+</div>",,html-keyboard-response,192,803320,0.0-15.0-0.16,16069,List1A,black,man,,,,null,,,,
null,"<img src=""stim_listA/dance3.gif""</stim_listA>",,html-keyboard-response,193,805323,0.0-15.0-1.16,16069,List1A,black,man,,,,null,,,,
null,is dancing with,,html-keyboard-response,194,807324,0.0-15.0-2.16,16069,List1A,black,man,,,,null,,,,
8943,,,survey-text,195,816269,0.0-15.0-3.16,16069,List1A,black,man,,,,,"{""Q0"":""Jane is dancing with luke""}","<img src=""stim_listA/dance3.gif""</stim_listA>",is dancing with,
null,"<div style=""font-size:60px;"">+</div>",,html-keyboard-response,196,816775,0.0-15.0-0.17,16069,List1A,black,man,,,,null,,,,
null,"<img src=""stim_listA/talk6.gif""</stim_listA>",,html-keyboard-response,197,818784,0.0-15.0-1.17,16069,List1A,black,man,,,,null,,,,
null,are talking to each other,,html-keyboard-response,198,820786,0.0-15.0-2.17,16069,List1A,black,man,,,,null,,,,
11172,,,survey-text,199,831960,0.0-15.0-3.17,16069,List1A,black,man,,,,,"{""Q0"":""Luke and mike are talking to each other""}","<img src=""stim_listA/talk6.gif""</stim_listA>",are talking to each other,
null,"<div style=""font-size:60px;"">+</div>",,html-keyboard-response,200,832463,0.0-15.0-0.18,16069,List1A,black,man,,,,null,,,,
null,"<img src=""stim_listA/touch6.gif""</stim_listA>",,html-keyboard-response,201,834466,0.0-15.0-1.18,16069,List1A,black,man,,,,null,,,,
null,are touching each other,,html-keyboard-response,202,836467,0.0-15.0-2.18,16069,List1A,black,man,,,,null,,,,
9537,,,survey-text,203,846005,0.0-15.0-3.18,16069,List1A,black,man,,,,,"{""Q0"":""fred and luke are touching each other""}","<img src=""stim_listA/touch6.gif""</stim_listA>",are touching each other,
null,"<div style=""font-size:60px;"">+</div>",,html-keyboard-response,204,846507,0.0-15.0-0.19,16069,List1A,black,man,,,,null,,,,
null,"<img src=""stim_listA/meet1.gif""</stim_listA>",,html-keyboard-response,205,848514,0.0-15.0-1.19,16069,List1A,black,man,,,,null,,,,
null,is meeting,,html-keyboard-response,206,850517,0.0-15.0-2.19,16069,List1A,black,man,,,,null,,,,
7913,,,survey-text,207,858431,0.0-15.0-3.19,16069,List1A,black,man,,,,,"{""Q0"":""kate is meeting mike""}","<img src=""stim_listA/meet1.gif""</stim_listA>",is meeting,
38571,"<img src='img/portrait_matrix_list1.JPG' style='width:900px;height:500px;''></img><p>If you have memorised all the portraits and names and are ready to start, press Continue.</p><p><strong>Please note: Your memory of these faces will be tested 4 times during this experiment.</strong></p>",0,html-button-response,208,897004,0.0-16.0-0.0,16069,List1A,black,man,,,,,,,,
3765,"<img src=""portrait/BM1.jpg""style=""width:400px;height:400px;""></img>",4,html-button-response,209,901772,0.0-16.0-1.0,16069,List1A,black,man,,TRUE,4,,,,,
null,CORRECT,,html-keyboard-response,210,903281,0.0-16.0-2.0-0.0,16069,List1A,black,man,,,,null,,,,
2377,"<img src=""portrait/WM2.jpg""style=""width:400px;height:400px;""></img>",7,html-button-response,211,905660,0.0-16.0-4.0,16069,List1A,black,man,,TRUE,7,,,,,
null,CORRECT,,html-keyboard-response,212,907164,0.0-16.0-5.0-0.0,16069,List1A,black,man,,,,null,,,,
11344,"<img src=""portrait/BW2.jpg""style=""width:400px;height:400px;""></img>",2,html-button-response,213,918510,0.0-16.0-7.0,16069,List1A,black,man,,TRUE,2,,,,,
null,CORRECT,,html-keyboard-response,214,920016,0.0-16.0-8.0-0.0,16069,List1A,black,man,,,,null,,,,
2266,"<img src=""portrait/BW1.jpg""style=""width:400px;height:400px;""></img>",0,html-button-response,215,922284,0.0-16.0-10.0,16069,List1A,black,man,,TRUE,0,,,,,
null,CORRECT,,html-keyboard-response,216,923789,0.0-16.0-11.0-0.0,16069,List1A,black,man,,,,null,,,,
2676,"<img src=""portrait/BM2.jpg""style=""width:400px;height:400px;""></img>",5,html-button-response,217,926467,0.0-16.0-13.0,16069,List1A,black,man,,TRUE,5,,,,,
null,CORRECT,,html-keyboard-response,218,927973,0.0-16.0-14.0-0.0,16069,List1A,black,man,,,,null,,,,
1789,"<img src=""portrait/WW2.jpg""style=""width:400px;height:400px;""></img>",3,html-button-response,219,929765,0.0-16.0-16.0,16069,List1A,black,man,,TRUE,3,,,,,
null,CORRECT,,html-keyboard-response,220,931270,0.0-16.0-17.0-0.0,16069,List1A,black,man,,,,null,,,,
2660,"<img src=""portrait/WM1.jpg""style=""width:400px;height:400px;""></img>",6,html-button-response,221,933933,0.0-16.0-19.0,16069,List1A,black,man,,TRUE,6,,,,,
null,CORRECT,,html-keyboard-response,222,935437,0.0-16.0-20.0-0.0,16069,List1A,black,man,,,,null,,,,
2021,"<img src=""portrait/WW1.jpg""style=""width:400px;height:400px;""></img>",1,html-button-response,223,937461,0.0-16.0-22.0,16069,List1A,black,man,,TRUE,1,,,,,
null,CORRECT,,html-keyboard-response,224,938964,0.0-16.0-23.0-0.0,16069,List1A,black,man,,,,null,,,,
49310,<p>You got 8 out of 8 right first time. Press Continue.</p>,0,html-button-response,225,988276,0.0-16.0-25.0,16069,List1A,black,man,,,,,,,,
null,"<div style=""font-size:60px;"">+</div>",,html-keyboard-response,226,989784,0.0-17.0-0.0,16069,List1A,black,man,,,,null,,,,
null,"<img src=""stim_listA/hug8.gif""</stim_listA>",,html-keyboard-response,227,991787,0.0-17.0-1.0,16069,List1A,black,man,,,,null,,,,
null,are hugging each other,,html-keyboard-response,228,993788,0.0-17.0-2.0,16069,List1A,black,man,,,,null,,,,
8825,,,survey-text,229,1002615,0.0-17.0-3.0,16069,List1A,black,man,,,,,"{""Q0"":""Jane and kate are hugging each other""}","<img src=""stim_listA/hug8.gif""</stim_listA>",are hugging each other,
null,"<div style=""font-size:60px;"">+</div>",,html-keyboard-response,230,1003118,0.0-17.0-0.1,16069,List1A,black,man,,,,null,,,,
null,"<img src=""stim_listA/shout7.gif""</stim_listA>",,html-keyboard-response,231,1005121,0.0-17.0-1.1,16069,List1A,black,man,,,,null,,,,
null,is shouting at,,html-keyboard-response,232,1007124,0.0-17.0-2.1,16069,List1A,black,man,,,,null,,,,
6373,,,survey-text,233,1013499,0.0-17.0-3.1,16069,List1A,black,man,,,,,"{""Q0"":""ruth is shouting at beth""}","<img src=""stim_listA/shout7.gif""</stim_listA>",is shouting at,
null,"<div style=""font-size:60px;"">+</div>",,html-keyboard-response,234,1014002,0.0-17.0-0.2,16069,List1A,black,man,,,,null,,,,
null,"<img src=""stim_listA/argue5.gif""</stim_listA>",,html-keyboard-response,235,1016006,0.0-17.0-1.2,16069,List1A,black,man,,,,null,,,,
null,is arguing with,,html-keyboard-response,236,1018008,0.0-17.0-2.2,16069,List1A,black,man,,,,null,,,,
8227,,,survey-text,237,1026237,0.0-17.0-3.2,16069,List1A,black,man,,,,,"{""Q0"":""luke is arguing with mike""}","<img src=""stim_listA/argue5.gif""</stim_listA>",is arguing with,
null,"<div style=""font-size:60px;"">+</div>",,html-keyboard-response,238,1026740,0.0-17.0-0.3,16069,List1A,black,man,,,,null,,,,
null,"<img src=""stim_listA/touch3.gif""</stim_listA>",,html-keyboard-response,239,1028744,0.0-17.0-1.3,16069,List1A,black,man,,,,null,,,,
null,is touching,,html-keyboard-response,240,1030747,0.0-17.0-2.3,16069,List1A,black,man,,,,null,,,,
5721,,,survey-text,241,1036470,0.0-17.0-3.3,16069,List1A,black,man,,,,,"{""Q0"":""dave is touching jane""}","<img src=""stim_listA/touch3.gif""</stim_listA>",is touching,
null,"<div style=""font-size:60px;"">+</div>",,html-keyboard-response,242,1036973,0.0-17.0-0.4,16069,List1A,black,man,,,,null,,,,
null,"<img src=""stim_listA/shout3.gif""</stim_listA>",,html-keyboard-response,243,1038975,0.0-17.0-1.4,16069,List1A,black,man,,,,null,,,,
null,is shouting at,,html-keyboard-response,244,1040978,0.0-17.0-2.4,16069,List1A,black,man,,,,null,,,,
12728,,,survey-text,245,1053708,0.0-17.0-3.4,16069,List1A,black,man,,,,,"{""Q0"":""luke is shouting at ruth""}","<img src=""stim_listA/shout3.gif""</stim_listA>",is shouting at,
null,"<div style=""font-size:60px;"">+</div>",,html-keyboard-response,246,1054210,0.0-17.0-0.5,16069,List1A,black,man,,,,null,,,,
null,"<img src=""stim_listA/marry2.gif""</stim_listA>",,html-keyboard-response,247,1056213,0.0-17.0-1.5,16069,List1A,black,man,,,,null,,,,
null,are marrying each other,,html-keyboard-response,248,1058216,0.0-17.0-2.5,16069,List1A,black,man,,,,null,,,,
11381,,,survey-text,249,1069599,0.0-17.0-3.5,16069,List1A,black,man,,,,,"{""Q0"":""kate and fred are marrying each other""}","<img src=""stim_listA/marry2.gif""</stim_listA>",are marrying each other,
null,"<div style=""font-size:60px;"">+</div>",,html-keyboard-response,250,1070102,0.0-17.0-0.6,16069,List1A,black,man,,,,null,,,,
null,"<img src=""stim_listA/talk7.gif""</stim_listA>",,html-keyboard-response,251,1072106,0.0-17.0-1.6,16069,List1A,black,man,,,,null,,,,
null,is talking to,,html-keyboard-response,252,1074110,0.0-17.0-2.6,16069,List1A,black,man,,,,null,,,,
5941,,,survey-text,253,1080055,0.0-17.0-3.6,16069,List1A,black,man,,,,,"{""Q0"":""jane is talking to beth""}","<img src=""stim_listA/talk7.gif""</stim_listA>",is talking to,
null,"<div style=""font-size:60px;"">+</div>",,html-keyboard-response,254,1080565,0.0-17.0-0.7,16069,List1A,black,man,,,,null,,,,
null,"<img src=""stim_listA/marry4.gif""</stim_listA>",,html-keyboard-response,255,1082568,0.0-17.0-1.7,16069,List1A,black,man,,,,null,,,,
null,are marrying each other,,html-keyboard-response,256,1084571,0.0-17.0-2.7,16069,List1A,black,man,,,,null,,,,
7224,,,survey-text,257,1091797,0.0-17.0-3.7,16069,List1A,black,man,,,,,"{""Q0"":""luke and jane are marrying each other""}","<img src=""stim_listA/marry4.gif""</stim_listA>",are marrying each other,
null,"<div style=""font-size:60px;"">+</div>",,html-keyboard-response,258,1092299,0.0-17.0-0.8,16069,List1A,black,man,,,,null,,,,
null,"<img src=""stim_listA/fight4.gif""</stim_listA>",,html-keyboard-response,259,1094302,0.0-17.0-1.8,16069,List1A,black,man,,,,null,,,,
null,are fighting each other,,html-keyboard-response,260,1096305,0.0-17.0-2.8,16069,List1A,black,man,,,,null,,,,
9077,,,survey-text,261,1105384,0.0-17.0-3.8,16069,List1A,black,man,,,,,"{""Q0"":""ruth and luke are fighting each other""}","<img src=""stim_listA/fight4.gif""</stim_listA>",are fighting each other,
null,"<div style=""font-size:60px;"">+</div>",,html-keyboard-response,262,1105887,0.0-17.0-0.9,16069,List1A,black,man,,,,null,,,,
null,"<img src=""stim_listA/argue8.gif""</stim_listA>",,html-keyboard-response,263,1107888,0.0-17.0-1.9,16069,List1A,black,man,,,,null,,,,
null,are arguing with each other,,html-keyboard-response,264,1109900,0.0-17.0-2.9,16069,List1A,black,man,,,,null,,,,
8083,,,survey-text,265,1117985,0.0-17.0-3.9,16069,List1A,black,man,,,,,"{""Q0"":""jane and beth are arguing with each other""}","<img src=""stim_listA/argue8.gif""</stim_listA>",are arguing with each other,
null,"<div style=""font-size:60px;"">+</div>",,html-keyboard-response,266,1118487,0.0-17.0-0.10,16069,List1A,black,man,,,,null,,,,
null,"<img src=""stim_listA/talk8.gif""</stim_listA>",,html-keyboard-response,267,1120491,0.0-17.0-1.10,16069,List1A,black,man,,,,null,,,,
null,are talking to each other,,html-keyboard-response,268,1122493,0.0-17.0-2.10,16069,List1A,black,man,,,,null,,,,
37771,,,survey-text,269,1160266,0.0-17.0-3.10,16069,List1A,black,man,,,,,"{""Q0"":""(note: no image was displayed) Ruth and beth are arguing with each other ?""}","<img src=""stim_listA/talk8.gif""</stim_listA>",are talking to each other,
null,"<div style=""font-size:60px;"">+</div>",,html-keyboard-response,270,1160767,0.0-17.0-0.11,16069,List1A,black,man,,,,null,,,,
null,"<img src=""stim_listA/dance4.gif""</stim_listA>",,html-keyboard-response,271,1162771,0.0-17.0-1.11,16069,List1A,black,man,,,,null,,,,
null,are dancing with each other,,html-keyboard-response,272,1164774,0.0-17.0-2.11,16069,List1A,black,man,,,,null,,,,
11067,,,survey-text,273,1175842,0.0-17.0-3.11,16069,List1A,black,man,,,,,"{""Q0"":""Ruth and dave are dancing with each other""}","<img src=""stim_listA/dance4.gif""</stim_listA>",are dancing with each other,
null,"<div style=""font-size:60px;"">+</div>",,html-keyboard-response,274,1176344,0.0-17.0-0.12,16069,List1A,black,man,,,,null,,,,
null,"<img src=""stim_listA/talk2.gif""</stim_listA>",,html-keyboard-response,275,1178347,0.0-17.0-1.12,16069,List1A,black,man,,,,null,,,,
null,are talking to each other,,html-keyboard-response,276,1180350,0.0-17.0-2.12,16069,List1A,black,man,,,,null,,,,
16534,,,survey-text,277,1196885,0.0-17.0-3.12,16069,List1A,black,man,,,,,"{""Q0"":""Beth and mike are talking to each other""}","<img src=""stim_listA/talk2.gif""</stim_listA>",are talking to each other,
null,"<div style=""font-size:60px;"">+</div>",,html-keyboard-response,278,1197387,0.0-17.0-0.13,16069,List1A,black,man,,,,null,,,,
null,"<img src=""stim_listA/kiss7.gif""</stim_listA>",,html-keyboard-response,279,1199391,0.0-17.0-1.13,16069,List1A,black,man,,,,null,,,,
null,is kissing,,html-keyboard-response,280,1201392,0.0-17.0-2.13,16069,List1A,black,man,,,,null,,,,
10177,,,survey-text,281,1211571,0.0-17.0-3.13,16069,List1A,black,man,,,,,"{""Q0"":""beth and ruth are kissing each other""}","<img src=""stim_listA/kiss7.gif""</stim_listA>",is kissing,
null,"<div style=""font-size:60px;"">+</div>",,html-keyboard-response,282,1212074,0.0-17.0-0.14,16069,List1A,black,man,,,,null,,,,
null,"<img src=""stim_listA/fight2.gif""</stim_listA>",,html-keyboard-response,283,1214077,0.0-17.0-1.14,16069,List1A,black,man,,,,null,,,,
null,are fighting each other,,html-keyboard-response,284,1216079,0.0-17.0-2.14,16069,List1A,black,man,,,,null,,,,
12559,,,survey-text,285,1228639,0.0-17.0-3.14,16069,List1A,black,man,,,,,"{""Q0"":""fred and kate are fighting each other""}","<img src=""stim_listA/fight2.gif""</stim_listA>",are fighting each other,
null,"<div style=""font-size:60px;"">+</div>",,html-keyboard-response,286,1229142,0.0-17.0-0.15,16069,List1A,black,man,,,,null,,,,
null,"<img src=""stim_listA/touch7.gif""</stim_listA>",,html-keyboard-response,287,1231154,0.0-17.0-1.15,16069,List1A,black,man,,,,null,,,,
null,is touching,,html-keyboard-response,288,1233157,0.0-17.0-2.15,16069,List1A,black,man,,,,null,,,,
5560,,,survey-text,289,1238718,0.0-17.0-3.15,16069,List1A,black,man,,,,,"{""Q0"":""jane is touching kate""}","<img src=""stim_listA/touch7.gif""</stim_listA>",is touching,
null,"<div style=""font-size:60px;"">+</div>",,html-keyboard-response,290,1239219,0.0-17.0-0.16,16069,List1A,black,man,,,,null,,,,
null,"<img src=""stim_listA/shout8.gif""</stim_listA>",,html-keyboard-response,291,1241222,0.0-17.0-1.16,16069,List1A,black,man,,,,null,,,,
null,are shouting at each other,,html-keyboard-response,292,1243223,0.0-17.0-2.16,16069,List1A,black,man,,,,null,,,,
7283,,,survey-text,293,1250507,0.0-17.0-3.16,16069,List1A,black,man,,,,,"{""Q0"":""kate and jane are shouting at each other""}","<img src=""stim_listA/shout8.gif""</stim_listA>",are shouting at each other,
null,"<div style=""font-size:60px;"">+</div>",,html-keyboard-response,294,1251011,0.0-17.0-0.17,16069,List1A,black,man,,,,null,,,,
null,"<img src=""stim_listA/argue2.gif""</stim_listA>",,html-keyboard-response,295,1253015,0.0-17.0-1.17,16069,List1A,black,man,,,,null,,,,
null,are arguing with each other,,html-keyboard-response,296,1255018,0.0-17.0-2.17,16069,List1A,black,man,,,,null,,,,
7015,,,survey-text,297,1262034,0.0-17.0-3.17,16069,List1A,black,man,,,,,"{""Q0"":""fred and kate are arguing with each other""}","<img src=""stim_listA/argue2.gif""</stim_listA>",are arguing with each other,
null,"<div style=""font-size:60px;"">+</div>",,html-keyboard-response,298,1262537,0.0-17.0-0.18,16069,List1A,black,man,,,,null,,,,
null,"<img src=""stim_listA/fight8.gif""</stim_listA>",,html-keyboard-response,299,1264540,0.0-17.0-1.18,16069,List1A,black,man,,,,null,,,,
null,are fighting each other,,html-keyboard-response,300,1266541,0.0-17.0-2.18,16069,List1A,black,man,,,,null,,,,
7513,,,survey-text,301,1274055,0.0-17.0-3.18,16069,List1A,black,man,,,,,"{""Q0"":""ruth and beth are fighting each other""}","<img src=""stim_listA/fight8.gif""</stim_listA>",are fighting each other,
null,"<div style=""font-size:60px;"">+</div>",,html-keyboard-response,302,1274557,0.0-17.0-0.19,16069,List1A,black,man,,,,null,,,,
null,"<img src=""stim_listA/shout5.gif""</stim_listA>",,html-keyboard-response,303,1276559,0.0-17.0-1.19,16069,List1A,black,man,,,,null,,,,
null,is shouting at,,html-keyboard-response,304,1278562,0.0-17.0-2.19,16069,List1A,black,man,,,,null,,,,
7635,,,survey-text,305,1286198,0.0-17.0-3.19,16069,List1A,black,man,,,,,"{""Q0"":""luke is shouting at fred""}","<img src=""stim_listA/shout5.gif""</stim_listA>",is shouting at,
60920,"<img src='img/portrait_matrix_list1.JPG' style='width:900px;height:500px;''></img><p>If you have memorised all the portraits and names and are ready to start, press Continue.</p><p><strong>Please note: Your memory of these faces will be tested 4 times during this experiment.</strong></p>",0,html-button-response,306,1347119,0.0-18.0-0.0,16069,List1A,black,man,,,,,,,,
4990,"<img src=""portrait/BM1.jpg""style=""width:400px;height:400px;""></img>",4,html-button-response,307,1353115,0.0-18.0-1.0,16069,List1A,black,man,,TRUE,4,,,,,
null,CORRECT,,html-keyboard-response,308,1354620,0.0-18.0-2.0-0.0,16069,List1A,black,man,,,,null,,,,
4282,"<img src=""portrait/WW2.jpg""style=""width:400px;height:400px;""></img>",3,html-button-response,309,1358904,0.0-18.0-4.0,16069,List1A,black,man,,TRUE,3,,,,,
null,CORRECT,,html-keyboard-response,310,1360410,0.0-18.0-5.0-0.0,16069,List1A,black,man,,,,null,,,,
3345,"<img src=""portrait/WM1.jpg""style=""width:400px;height:400px;""></img>",6,html-button-response,311,1363757,0.0-18.0-7.0,16069,List1A,black,man,,TRUE,6,,,,,
null,CORRECT,,html-keyboard-response,312,1365262,0.0-18.0-8.0-0.0,16069,List1A,black,man,,,,null,,,,
2436,"<img src=""portrait/BW1.jpg""style=""width:400px;height:400px;""></img>",0,html-button-response,313,1367699,0.0-18.0-10.0,16069,List1A,black,man,,TRUE,0,,,,,
null,CORRECT,,html-keyboard-response,314,1369205,0.0-18.0-11.0-0.0,16069,List1A,black,man,,,,null,,,,
2149,"<img src=""portrait/BW2.jpg""style=""width:400px;height:400px;""></img>",2,html-button-response,315,1371357,0.0-18.0-13.0,16069,List1A,black,man,,TRUE,2,,,,,
null,CORRECT,,html-keyboard-response,316,1372862,0.0-18.0-14.0-0.0,16069,List1A,black,man,,,,null,,,,
4100,"<img src=""portrait/BM2.jpg""style=""width:400px;height:400px;""></img>",5,html-button-response,317,1376964,0.0-18.0-16.0,16069,List1A,black,man,,TRUE,5,,,,,
null,CORRECT,,html-keyboard-response,318,1378468,0.0-18.0-17.0-0.0,16069,List1A,black,man,,,,null,,,,
2424,"<img src=""portrait/WM2.jpg""style=""width:400px;height:400px;""></img>",7,html-button-response,319,1380894,0.0-18.0-19.0,16069,List1A,black,man,,TRUE,7,,,,,
null,CORRECT,,html-keyboard-response,320,1382400,0.0-18.0-20.0-0.0,16069,List1A,black,man,,,,null,,,,
3545,"<img src=""portrait/WW1.jpg""style=""width:400px;height:400px;""></img>",1,html-button-response,321,1385947,0.0-18.0-22.0,16069,List1A,black,man,,TRUE,1,,,,,
null,CORRECT,,html-keyboard-response,322,1387452,0.0-18.0-23.0-0.0,16069,List1A,black,man,,,,null,,,,
1597,<p>You got 8 out of 8 right first time. Press Continue.</p>,0,html-button-response,323,1389051,0.0-18.0-25.0,16069,List1A,black,man,,,,,,,,
null,"<div style=""font-size:60px;"">+</div>",,html-keyboard-response,324,1390555,0.0-19.0-0.0,16069,List1A,black,man,,,,null,,,,
null,"<img src=""stim_listA/marry3.gif""</stim_listA>",,html-keyboard-response,325,1392558,0.0-19.0-1.0,16069,List1A,black,man,,,,null,,,,
null,is marrying,,html-keyboard-response,326,1394560,0.0-19.0-2.0,16069,List1A,black,man,,,,null,,,,
8766,,,survey-text,327,1403327,0.0-19.0-3.0,16069,List1A,black,man,,,,,"{""Q0"":""ruth is marrying dave""}","<img src=""stim_listA/marry3.gif""</stim_listA>",is marrying,
null,"<div style=""font-size:60px;"">+</div>",,html-keyboard-response,328,1403830,0.0-19.0-0.1,16069,List1A,black,man,,,,null,,,,
null,"<img src=""stim_listA/shout1.gif""</stim_listA>",,html-keyboard-response,329,1405834,0.0-19.0-1.1,16069,List1A,black,man,,,,null,,,,
null,is shouting at,,html-keyboard-response,330,1407834,0.0-19.0-2.1,16069,List1A,black,man,,,,null,,,,
10503,,,survey-text,331,1418339,0.0-19.0-3.1,16069,List1A,black,man,,,,,"{""Q0"":""beth is shouting at fred""}","<img src=""stim_listA/shout1.gif""</stim_listA>",is shouting at,
null,"<div style=""font-size:60px;"">+</div>",,html-keyboard-response,332,1418842,0.0-19.0-0.2,16069,List1A,black,man,,,,null,,,,
null,"<img src=""stim_listA/kiss6.gif""</stim_listA>",,html-keyboard-response,333,1420846,0.0-19.0-1.2,16069,List1A,black,man,,,,null,,,,
null,are kissing each other,,html-keyboard-response,334,1422849,0.0-19.0-2.2,16069,List1A,black,man,,,,null,,,,
11849,,,survey-text,335,1434700,0.0-19.0-3.2,16069,List1A,black,man,,,,,"{""Q0"":""dave and mike are kissing each other""}","<img src=""stim_listA/kiss6.gif""</stim_listA>",are kissing each other,
null,"<div style=""font-size:60px;"">+</div>",,html-keyboard-response,336,1435203,0.0-19.0-0.3,16069,List1A,black,man,,,,null,,,,
null,"<img src=""stim_listA/meet6.gif""</stim_listA>",,html-keyboard-response,337,1437216,0.0-19.0-1.3,16069,List1A,black,man,,,,null,,,,
null,are meeting each other,,html-keyboard-response,338,1439219,0.0-19.0-2.3,16069,List1A,black,man,,,,null,,,,
8861,,,survey-text,339,1448081,0.0-19.0-3.3,16069,List1A,black,man,,,,,"{""Q0"":""fred and luke are meeting each other""}","<img src=""stim_listA/meet6.gif""</stim_listA>",are meeting each other,
null,"<div style=""font-size:60px;"">+</div>",,html-keyboard-response,340,1448583,0.0-19.0-0.4,16069,List1A,black,man,,,,null,,,,
null,"<img src=""stim_listA/marry1.gif""</stim_listA>",,html-keyboard-response,341,1450586,0.0-19.0-1.4,16069,List1A,black,man,,,,null,,,,
null,is marrying,,html-keyboard-response,342,1452588,0.0-19.0-2.4,16069,List1A,black,man,,,,null,,,,
12758,,,survey-text,343,1465347,0.0-19.0-3.4,16069,List1A,black,man,,,,,"{""Q0"":""beth and mike are marrying each other""}","<img src=""stim_listA/marry1.gif""</stim_listA>",is marrying,
null,"<div style=""font-size:60px;"">+</div>",,html-keyboard-response,344,1465849,0.0-19.0-0.5,16069,List1A,black,man,,,,null,,,,
null,"<img src=""stim_listA/touch1.gif""</stim_listA>",,html-keyboard-response,345,1467852,0.0-19.0-1.5,16069,List1A,black,man,,,,null,,,,
null,is touching,,html-keyboard-response,346,1469861,0.0-19.0-2.5,16069,List1A,black,man,,,,null,,,,
6014,,,survey-text,347,1475875,0.0-19.0-3.5,16069,List1A,black,man,,,,,"{""Q0"":""kate is touching mike""}","<img src=""stim_listA/touch1.gif""</stim_listA>",is touching,
null,"<div style=""font-size:60px;"">+</div>",,html-keyboard-response,348,1476377,0.0-19.0-0.6,16069,List1A,black,man,,,,null,,,,
null,"<img src=""stim_listA/touch5.gif""</stim_listA>",,html-keyboard-response,349,1478381,0.0-19.0-1.6,16069,List1A,black,man,,,,null,,,,
null,is touching,,html-keyboard-response,350,1480383,0.0-19.0-2.6,16069,List1A,black,man,,,,null,,,,
5027,,,survey-text,351,1485410,0.0-19.0-3.6,16069,List1A,black,man,,,,,"{""Q0"":""dave is touching mike""}","<img src=""stim_listA/touch5.gif""</stim_listA>",is touching,
null,"<div style=""font-size:60px;"">+</div>",,html-keyboard-response,352,1485912,0.0-19.0-0.7,16069,List1A,black,man,,,,null,,,,
null,"<img src=""stim_listA/fight1.gif""</stim_listA>",,html-keyboard-response,353,1487915,0.0-19.0-1.7,16069,List1A,black,man,,,,null,,,,
null,is fighting,,html-keyboard-response,354,1489919,0.0-19.0-2.7,16069,List1A,black,man,,,,null,,,,
10093,,,survey-text,355,1500014,0.0-19.0-3.7,16069,List1A,black,man,,,,,"{""Q0"":""kate and mike are fighting each other""}","<img src=""stim_listA/fight1.gif""</stim_listA>",is fighting,
null,"<div style=""font-size:60px;"">+</div>",,html-keyboard-response,356,1500518,0.0-19.0-0.8,16069,List1A,black,man,,,,null,,,,
null,"<img src=""stim_listA/meet8.gif""</stim_listA>",,html-keyboard-response,357,1502521,0.0-19.0-1.8,16069,List1A,black,man,,,,null,,,,
null,are meeting each other,,html-keyboard-response,358,1504523,0.0-19.0-2.8,16069,List1A,black,man,,,,null,,,,
10945,,,survey-text,359,1515470,0.0-19.0-3.8,16069,List1A,black,man,,,,,"{""Q0"":""ruth and beth are meeting each other""}","<img src=""stim_listA/meet8.gif""</stim_listA>",are meeting each other,
null,"<div style=""font-size:60px;"">+</div>",,html-keyboard-response,360,1515973,0.0-19.0-0.9,16069,List1A,black,man,,,,null,,,,
null,"<img src=""stim_listA/talk1.gif""</stim_listA>",,html-keyboard-response,361,1517976,0.0-19.0-1.9,16069,List1A,black,man,,,,null,,,,
null,is talking to,,html-keyboard-response,362,1519978,0.0-19.0-2.9,16069,List1A,black,man,,,,null,,,,
7107,,,survey-text,363,1527086,0.0-19.0-3.9,16069,List1A,black,man,,,,,"{""Q0"":""fred is talking to kate""}","<img src=""stim_listA/talk1.gif""</stim_listA>",is talking to,
null,"<div style=""font-size:60px;"">+</div>",,html-keyboard-response,364,1527589,0.0-19.0-0.10,16069,List1A,black,man,,,,null,,,,
null,"<img src=""stim_listA/kiss8.gif""</stim_listA>",,html-keyboard-response,365,1529593,0.0-19.0-1.10,16069,List1A,black,man,,,,null,,,,
null,are kissing each other,,html-keyboard-response,366,1531595,0.0-19.0-2.10,16069,List1A,black,man,,,,null,,,,
9660,,,survey-text,367,1541256,0.0-19.0-3.10,16069,List1A,black,man,,,,,"{""Q0"":""jane and kate are kissing each other""}","<img src=""stim_listA/kiss8.gif""</stim_listA>",are kissing each other,
null,"<div style=""font-size:60px;"">+</div>",,html-keyboard-response,368,1541759,0.0-19.0-0.11,16069,List1A,black,man,,,,null,,,,
null,"<img src=""stim_listA/kiss1.gif""</stim_listA>",,html-keyboard-response,369,1543763,0.0-19.0-1.11,16069,List1A,black,man,,,,null,,,,
null,is kissing,,html-keyboard-response,370,1545764,0.0-19.0-2.11,16069,List1A,black,man,,,,null,,,,
6952,,,survey-text,371,1552718,0.0-19.0-3.11,16069,List1A,black,man,,,,,"{""Q0"":""fred is kissing beth""}","<img src=""stim_listA/kiss1.gif""</stim_listA>",is kissing,
null,"<div style=""font-size:60px;"">+</div>",,html-keyboard-response,372,1553220,0.0-19.0-0.12,16069,List1A,black,man,,,,null,,,,
null,"<img src=""stim_listA/hug6.gif""</stim_listA>",,html-keyboard-response,373,1555223,0.0-19.0-1.12,16069,List1A,black,man,,,,null,,,,
null,are hugging each other,,html-keyboard-response,374,1557226,0.0-19.0-2.12,16069,List1A,black,man,,,,null,,,,
6705,,,survey-text,375,1563932,0.0-19.0-3.12,16069,List1A,black,man,,,,,"{""Q0"":""mike and dave are hugging each other""}","<img src=""stim_listA/hug6.gif""</stim_listA>",are hugging each other,
null,"<div style=""font-size:60px;"">+</div>",,html-keyboard-response,376,1564436,0.0-19.0-0.13,16069,List1A,black,man,,,,null,,,,
null,"<img src=""stim_listA/hug4.gif""</stim_listA>",,html-keyboard-response,377,1566440,0.0-19.0-1.13,16069,List1A,black,man,,,,null,,,,
null,are hugging each other,,html-keyboard-response,378,1568442,0.0-19.0-2.13,16069,List1A,black,man,,,,null,,,,
7553,,,survey-text,379,1575996,0.0-19.0-3.13,16069,List1A,black,man,,,,,"{""Q0"":""jane and dave are hugging each other""}","<img src=""stim_listA/hug4.gif""</stim_listA>",are hugging each other,
null,"<div style=""font-size:60px;"">+</div>",,html-keyboard-response,380,1576499,0.0-19.0-0.14,16069,List1A,black,man,,,,null,,,,
null,"<img src=""stim_listA/argue7.gif""</stim_listA>",,html-keyboard-response,381,1578500,0.0-19.0-1.14,16069,List1A,black,man,,,,null,,,,
null,is arguing with,,html-keyboard-response,382,1580502,0.0-19.0-2.14,16069,List1A,black,man,,,,null,,,,
11964,,,survey-text,383,1592468,0.0-19.0-3.14,16069,List1A,black,man,,,,,"{""Q0"":""kate and ruth are pointing at each other""}","<img src=""stim_listA/argue7.gif""</stim_listA>",is arguing with,
null,"<div style=""font-size:60px;"">+</div>",,html-keyboard-response,384,1592976,0.0-19.0-0.15,16069,List1A,black,man,,,,null,,,,
null,"<img src=""stim_listA/fight6.gif""</stim_listA>",,html-keyboard-response,385,1594986,0.0-19.0-1.15,16069,List1A,black,man,,,,null,,,,
null,are fighting each other,,html-keyboard-response,386,1596989,0.0-19.0-2.15,16069,List1A,black,man,,,,null,,,,
7125,,,survey-text,387,1604115,0.0-19.0-3.15,16069,List1A,black,man,,,,,"{""Q0"":""luke and fred are fighting each other""}","<img src=""stim_listA/fight6.gif""</stim_listA>",are fighting each other,
null,"<div style=""font-size:60px;"">+</div>",,html-keyboard-response,388,1604619,0.0-19.0-0.16,16069,List1A,black,man,,,,null,,,,
null,"<img src=""stim_listA/hug5.gif""</stim_listA>",,html-keyboard-response,389,1606622,0.0-19.0-1.16,16069,List1A,black,man,,,,null,,,,
null,is hugging,,html-keyboard-response,390,1608624,0.0-19.0-2.16,16069,List1A,black,man,,,,null,,,,
6293,,,survey-text,391,1614919,0.0-19.0-3.16,16069,List1A,black,man,,,,,"{""Q0"":""fred is hugging luke""}","<img src=""stim_listA/hug5.gif""</stim_listA>",is hugging,
null,"<div style=""font-size:60px;"">+</div>",,html-keyboard-response,392,1615421,0.0-19.0-0.17,16069,List1A,black,man,,,,null,,,,
null,"<img src=""stim_listA/kiss5.gif""</stim_listA>",,html-keyboard-response,393,1617425,0.0-19.0-1.17,16069,List1A,black,man,,,,null,,,,
null,is kissing,,html-keyboard-response,394,1619427,0.0-19.0-2.17,16069,List1A,black,man,,,,null,,,,
6341,,,survey-text,395,1625769,0.0-19.0-3.17,16069,List1A,black,man,,,,,"{""Q0"":""fred is kissing luke""}","<img src=""stim_listA/kiss5.gif""</stim_listA>",is kissing,
null,"<div style=""font-size:60px;"">+</div>",,html-keyboard-response,396,1626272,0.0-19.0-0.18,16069,List1A,black,man,,,,null,,,,
null,"<img src=""stim_listA/dance2.gif""</stim_listA>",,html-keyboard-response,397,1628277,0.0-19.0-1.18,16069,List1A,black,man,,,,null,,,,
null,are dancing with each other,,html-keyboard-response,398,1630281,0.0-19.0-2.18,16069,List1A,black,man,,,,null,,,,
9777,,,survey-text,399,1640061,0.0-19.0-3.18,16069,List1A,black,man,,,,,"{""Q0"":""beth and mike are dancing with each other""}","<img src=""stim_listA/dance2.gif""</stim_listA>",are dancing with each other,
null,"<div style=""font-size:60px;"">+</div>",,html-keyboard-response,400,1640565,0.0-19.0-0.19,16069,List1A,black,man,,,,null,,,,
null,"<img src=""stim_listA/shout2.gif""</stim_listA>",,html-keyboard-response,401,1642571,0.0-19.0-1.19,16069,List1A,black,man,,,,null,,,,
null,are shouting at each other,,html-keyboard-response,402,1644574,0.0-19.0-2.19,16069,List1A,black,man,,,,null,,,,
7724,,,survey-text,403,1652299,0.0-19.0-3.19,16069,List1A,black,man,,,,,"{""Q0"":""mike and kate are shouting at each other""}","<img src=""stim_listA/shout2.gif""</stim_listA>",are shouting at each other,
2151,<p>Thank you for completing that task.</p><p>The final part of this session is a short questionnaire.</p><p>Press Continue.</p>,0,html-button-response,404,1654453,0.0-20.0,16069,List1A,black,man,,,,,,,,
20684,,,survey-text,405,1676142,0.0-21.0,16069,List1A,black,man,,,,,"{""Q0"":""27"",""Q1"":""English"",""Q2"":""English"",""Q3"":""USA"",""Q4"":""Black"",""Q5"":""Male""}",,,demographics
68607,,,survey-likert,406,1744764,0.0-22.0,16069,List1A,black,man,,,,,"{""Q0"":5,""Q1"":3,""Q2"":3,""Q3"":6,""Q4"":"""",""Q5"":5,""Q6"":3,""Q7"":1,""Q8"":3,""Q9"":3,""Q10"":2,""Q11"":3,""Q12"":1,""Q13"":2}",,,likert_race
59201,,,survey-likert,407,1803986,0.0-23.0,16069,List1A,black,man,,,,,"{""Q0"":5,""Q1"":4,""Q2"":3,""Q3"":6,""Q4"":3,""Q5"":3,""Q6"":3,""Q7"":5,""Q8"":6,""Q9"":6,""Q10"":5,""Q11"":4,""Q12"":1,""Q13"":2}",,,likert_gender
9245,,,survey-text,408,1813245,0.0-24.0,16069,List1A,black,man,,,,,"{""Q0"":""ccc""}",,,worker_id
23338,,,external-html,409,1836998,0.0-25.0,16069,List1A,black,man,debrief.html,,,,,,,
