rt,stimulus,button_pressed,trial_type,trial_index,time_elapsed,internal_node_id,subject,list,ppt_race,ppt_gender,url,first_guess,correct,key_press,responses,image_type,phrase_type,test_part
3599,Welcome to the experiment. Press Continue to begin.,0,html-button-response,0,3604,0.0-0.0,16381,List2B,black,woman,,,,,,,,
33815,,,external-html,1,38559,0.0-1.0,16381,List2B,black,woman,consent.html,,,,,,,
28840,"<p>On the next page, you will see portraits of 8 people and their names.</p><p>Your first task is to take a few minutes to memorise the names of these people.</p><p>You will have to recall their names during the rest of the experiment, so it is</p><p>essential that you try to memorise these people and their names as best as you can.</p><br><p><strong>You will then be tested on your memory of these names and portraits.</strong></p><br><p>The experiment will start after you have completed this memory test.</p><br><p>Ready?</p>",0,html-button-response,2,67401,0.0-2.0,16381,List2B,black,woman,,,,,,,,
119986,"<img src='img/portrait_matrix_list2.JPG' style='width:900px;height:500px;''></img><p>If you have memorised all the portraits and names and are ready to start, press Continue.</p><p><strong>Please note: Your memory of these faces will be tested 4 times during this experiment.</strong></p>",0,html-button-response,3,188390,0.0-3.0-0.0,16381,List2B,black,woman,,,,,,,,
10923,"<img src=""portrait/BW1.jpg""style=""width:400px;height:400px;""></img>",0,html-button-response,4,200316,0.0-3.0-1.0,16381,List2B,black,woman,,TRUE,0,,,,,
null,CORRECT,,html-keyboard-response,5,201823,0.0-3.0-2.0-0.0,16381,List2B,black,woman,,,,null,,,,
7133,"<img src=""portrait/WM2.jpg""style=""width:400px;height:400px;""></img>",7,html-button-response,6,208959,0.0-3.0-4.0,16381,List2B,black,woman,,TRUE,7,,,,,
null,CORRECT,,html-keyboard-response,7,210468,0.0-3.0-5.0-0.0,16381,List2B,black,woman,,,,null,,,,
10148,"<img src=""portrait/WM1.jpg""style=""width:400px;height:400px;""></img>",6,html-button-response,8,220617,0.0-3.0-7.0,16381,List2B,black,woman,,TRUE,6,,,,,
null,CORRECT,,html-keyboard-response,9,222122,0.0-3.0-8.0-0.0,16381,List2B,black,woman,,,,null,,,,
3254,"<img src=""portrait/WW1.jpg""style=""width:400px;height:400px;""></img>",1,html-button-response,10,225377,0.0-3.0-10.0,16381,List2B,black,woman,,TRUE,1,,,,,
null,CORRECT,,html-keyboard-response,11,226879,0.0-3.0-11.0-0.0,16381,List2B,black,woman,,,,null,,,,
10531,"<img src=""portrait/WW2.jpg""style=""width:400px;height:400px;""></img>",3,html-button-response,12,237411,0.0-3.0-13.0,16381,List2B,black,woman,,TRUE,3,,,,,
null,CORRECT,,html-keyboard-response,13,238914,0.0-3.0-14.0-0.0,16381,List2B,black,woman,,,,null,,,,
4150,"<img src=""portrait/BM1.jpg""style=""width:400px;height:400px;""></img>",4,html-button-response,14,243067,0.0-3.0-16.0,16381,List2B,black,woman,,TRUE,4,,,,,
null,CORRECT,,html-keyboard-response,15,244571,0.0-3.0-17.0-0.0,16381,List2B,black,woman,,,,null,,,,
2991,"<img src=""portrait/BM2.jpg""style=""width:400px;height:400px;""></img>",5,html-button-response,16,247564,0.0-3.0-19.0,16381,List2B,black,woman,,TRUE,5,,,,,
null,CORRECT,,html-keyboard-response,17,249068,0.0-3.0-20.0-0.0,16381,List2B,black,woman,,,,null,,,,
6768,"<img src=""portrait/BW2.jpg""style=""width:400px;height:400px;""></img>",1,html-button-response,18,255839,0.0-3.0-22.0,16381,List2B,black,woman,,TRUE,2,,,,,
30693,"<img src=""portrait/BW2.jpg""style=""width:400px;height:400px;""></img>",0,html-button-response,19,287536,0.0-3.0-24.0-0.0,16381,List2B,black,woman,,FALSE,2,,,,,
null,INCORRECT,,html-keyboard-response,20,289041,0.0-3.0-24.0-2.0-0.0,16381,List2B,black,woman,,,,null,,,,
2376,<p>You got 7 out of 8 right first time. Press Continue.</p>,0,html-button-response,21,291419,0.0-3.0-25.0,16381,List2B,black,woman,,,,,,,,
4388,"As you did not score 100%, the memory game will repeat. Press Continue.",0,html-button-response,22,296810,0.0-3.0-26.0-0.0,16381,List2B,black,woman,,,,,,,,
29747,"<img src='img/portrait_matrix_list2.JPG' style='width:900px;height:500px;''></img><p>If you have memorised all the portraits and names and are ready to start, press Continue.</p><p><strong>Please note: Your memory of these faces will be tested 4 times during this experiment.</strong></p>",0,html-button-response,23,327564,0.0-3.1-0.1,16381,List2B,black,woman,,,,,,,,
6529,"<img src=""portrait/BW1.jpg""style=""width:400px;height:400px;""></img>",0,html-button-response,24,335096,0.0-3.1-1.1,16381,List2B,black,woman,,TRUE,0,,,,,
null,CORRECT,,html-keyboard-response,25,336599,0.0-3.1-2.1-0.1,16381,List2B,black,woman,,,,null,,,,
5875,"<img src=""portrait/WM2.jpg""style=""width:400px;height:400px;""></img>",7,html-button-response,26,342477,0.0-3.1-4.1,16381,List2B,black,woman,,TRUE,7,,,,,
null,CORRECT,,html-keyboard-response,27,343981,0.0-3.1-5.1-0.1,16381,List2B,black,woman,,,,null,,,,
5569,"<img src=""portrait/WM1.jpg""style=""width:400px;height:400px;""></img>",6,html-button-response,28,349553,0.0-3.1-7.1,16381,List2B,black,woman,,TRUE,6,,,,,
null,CORRECT,,html-keyboard-response,29,351057,0.0-3.1-8.1-0.1,16381,List2B,black,woman,,,,null,,,,
7222,"<img src=""portrait/WW1.jpg""style=""width:400px;height:400px;""></img>",1,html-button-response,30,358282,0.0-3.1-10.1,16381,List2B,black,woman,,TRUE,1,,,,,
null,CORRECT,,html-keyboard-response,31,359784,0.0-3.1-11.1-0.1,16381,List2B,black,woman,,,,null,,,,
3520,"<img src=""portrait/WW2.jpg""style=""width:400px;height:400px;""></img>",3,html-button-response,32,363306,0.0-3.1-13.1,16381,List2B,black,woman,,TRUE,3,,,,,
null,CORRECT,,html-keyboard-response,33,364810,0.0-3.1-14.1-0.1,16381,List2B,black,woman,,,,null,,,,
4225,"<img src=""portrait/BM1.jpg""style=""width:400px;height:400px;""></img>",4,html-button-response,34,369038,0.0-3.1-16.1,16381,List2B,black,woman,,TRUE,4,,,,,
null,CORRECT,,html-keyboard-response,35,370541,0.0-3.1-17.1-0.1,16381,List2B,black,woman,,,,null,,,,
2023,"<img src=""portrait/BM2.jpg""style=""width:400px;height:400px;""></img>",5,html-button-response,36,372567,0.0-3.1-19.1,16381,List2B,black,woman,,TRUE,5,,,,,
null,CORRECT,,html-keyboard-response,37,374069,0.0-3.1-20.1-0.1,16381,List2B,black,woman,,,,null,,,,
3800,"<img src=""portrait/BW2.jpg""style=""width:400px;height:400px;""></img>",2,html-button-response,38,377872,0.0-3.1-22.1,16381,List2B,black,woman,,TRUE,2,,,,,
null,CORRECT,,html-keyboard-response,39,379374,0.0-3.1-23.1-0.1,16381,List2B,black,woman,,,,null,,,,
1928,<p>You got 8 out of 8 right first time. Press Continue.</p>,0,html-button-response,40,381305,0.0-3.1-25.1,16381,List2B,black,woman,,,,,,,,
29926,"<p>In this experiment, you will view photographs of the people from the memory game interacting.</p><p>By using the <strong>exact</strong> phrase given <i>after</i> the photograph appears and recalling the correct names of the people in the photographs, form a sentence describing the interaction. You do not need to capitalise names.</p><p>Type your answer in the space provided. Please complete every sentence before moving onto the next trial.</p><p>You will only have a few seconds to memorise each given photograph and phrase before you can respond, so try your best to focus.</p><p>An example is given below. Press 'Continue' when you are ready.</p><img src='img/speaking_example_v2.jpg' style='width:800px;height:460px;''></img>",0,html-button-response,41,412235,0.0-4.0,16381,List2B,black,woman,,,,,,,,
3126,"<p>Before the experiment starts, you will watch two example trials. Press 'Continue'.</p>",0,html-button-response,42,416363,0.0-5.0,16381,List2B,black,woman,,,,,,,,
null,<img src='img/speaking_WW.gif'></img>,,html-keyboard-response,43,419368,0.0-6.0,16381,List2B,black,woman,,,,null,,,,
null,<p>is speaking to</p>,,html-keyboard-response,44,421372,0.0-7.0,16381,List2B,black,woman,,,,null,,,,
7641,<p><b>Answer:</b> jane is speaking to ruth</p>,0,html-button-response,45,429015,0.0-8.0,16381,List2B,black,woman,,,,,,,,
null,<img src='img/pointing_BM.gif'></img>,,html-keyboard-response,46,432020,0.0-9.0,16381,List2B,black,woman,,,,null,,,,
null,<p>are pointing at each other</p>,,html-keyboard-response,47,434021,0.0-10.0,16381,List2B,black,woman,,,,null,,,,
6729,<p><b>Answer:</b> fred and mike are pointing at each other</p>,0,html-button-response,48,440751,0.0-11.0,16381,List2B,black,woman,,,,,,,,
10032,"<p>Ready to start the experiment?</p><br><p><strong>Remember to describe the picture using a full sentence,</strong></p><p><strong>that combines the names of the people with the given phrase.</strong></p><p><strong>If you do not do this correctly you will not be paid.</strong></p><p><strong> You do not need to capitalise names or use punctuation.</strong></p><br><p>Press 'Continue' to begin.</p>",0,html-button-response,49,451785,0.0-12.0,16381,List2B,black,woman,,,,,,,,
null,"<div style=""font-size:60px;"">+</div>",,html-keyboard-response,50,453290,0.0-13.0-0.0,16381,List2B,black,woman,,,,null,,,,
null,"<img src=""stim_listB/argue6.gif""</stim_listB>",,html-keyboard-response,51,455295,0.0-13.0-1.0,16381,List2B,black,woman,,,,null,,,,
null,are arguing with each other,,html-keyboard-response,52,457297,0.0-13.0-2.0,16381,List2B,black,woman,,,,null,,,,
21764,,,survey-text,53,479064,0.0-13.0-3.0,16381,List2B,black,woman,,,,,"{""Q0"":""luke and fred are arguing with each other""}","<img src=""stim_listB/argue6.gif""</stim_listB>",are arguing with each other,
null,"<div style=""font-size:60px;"">+</div>",,html-keyboard-response,54,479567,0.0-13.0-0.1,16381,List2B,black,woman,,,,null,,,,
null,"<img src=""stim_listB/shout8.gif""</stim_listB>",,html-keyboard-response,55,481570,0.0-13.0-1.1,16381,List2B,black,woman,,,,null,,,,
null,are shouting at each other,,html-keyboard-response,56,483573,0.0-13.0-2.1,16381,List2B,black,woman,,,,null,,,,
32745,,,survey-text,57,516319,0.0-13.0-3.1,16381,List2B,black,woman,,,,,"{""Q0"":""kate and jane are arguing with each other""}","<img src=""stim_listB/shout8.gif""</stim_listB>",are shouting at each other,
null,"<div style=""font-size:60px;"">+</div>",,html-keyboard-response,58,516822,0.0-13.0-0.2,16381,List2B,black,woman,,,,null,,,,
null,"<img src=""stim_listB/shout1.gif""</stim_listB>",,html-keyboard-response,59,518831,0.0-13.0-1.2,16381,List2B,black,woman,,,,null,,,,
null,is shouting at,,html-keyboard-response,60,520832,0.0-13.0-2.2,16381,List2B,black,woman,,,,null,,,,
18926,,,survey-text,61,539760,0.0-13.0-3.2,16381,List2B,black,woman,,,,,"{""Q0"":""luke and ruth are shouting at each other""}","<img src=""stim_listB/shout1.gif""</stim_listB>",is shouting at,
null,"<div style=""font-size:60px;"">+</div>",,html-keyboard-response,62,540263,0.0-13.0-0.3,16381,List2B,black,woman,,,,null,,,,
null,"<img src=""stim_listB/talk3.gif""</stim_listB>",,html-keyboard-response,63,542267,0.0-13.0-1.3,16381,List2B,black,woman,,,,null,,,,
null,is talking to,,html-keyboard-response,64,544269,0.0-13.0-2.3,16381,List2B,black,woman,,,,null,,,,
18550,,,survey-text,65,562821,0.0-13.0-3.3,16381,List2B,black,woman,,,,,"{""Q0"":""kate is talking to fred""}","<img src=""stim_listB/talk3.gif""</stim_listB>",is talking to,
null,"<div style=""font-size:60px;"">+</div>",,html-keyboard-response,66,563322,0.0-13.0-0.4,16381,List2B,black,woman,,,,null,,,,
null,"<img src=""stim_listB/talk4.gif""</stim_listB>",,html-keyboard-response,67,565326,0.0-13.0-1.4,16381,List2B,black,woman,,,,null,,,,
null,are talking to each other,,html-keyboard-response,68,567328,0.0-13.0-2.4,16381,List2B,black,woman,,,,null,,,,
33099,,,survey-text,69,600428,0.0-13.0-3.4,16381,List2B,black,woman,,,,,"{""Q0"":""mike and beth are talking to each other""}","<img src=""stim_listB/talk4.gif""</stim_listB>",are talking to each other,
null,"<div style=""font-size:60px;"">+</div>",,html-keyboard-response,70,600930,0.0-13.0-0.5,16381,List2B,black,woman,,,,null,,,,
null,"<img src=""stim_listB/hug2.gif""</stim_listB>",,html-keyboard-response,71,602931,0.0-13.0-1.5,16381,List2B,black,woman,,,,null,,,,
null,are hugging each other,,html-keyboard-response,72,604933,0.0-13.0-2.5,16381,List2B,black,woman,,,,null,,,,
22433,,,survey-text,73,627368,0.0-13.0-3.5,16381,List2B,black,woman,,,,,"{""Q0"":""dave and jane are hugging each other""}","<img src=""stim_listB/hug2.gif""</stim_listB>",are hugging each other,
null,"<div style=""font-size:60px;"">+</div>",,html-keyboard-response,74,627869,0.0-13.0-0.6,16381,List2B,black,woman,,,,null,,,,
null,"<img src=""stim_listB/argue3.gif""</stim_listB>",,html-keyboard-response,75,629873,0.0-13.0-1.6,16381,List2B,black,woman,,,,null,,,,
null,is arguing with,,html-keyboard-response,76,631875,0.0-13.0-2.6,16381,List2B,black,woman,,,,null,,,,
25009,,,survey-text,77,656886,0.0-13.0-3.6,16381,List2B,black,woman,,,,,"{""Q0"":""mike and beth are pointing at each other""}","<img src=""stim_listB/argue3.gif""</stim_listB>",is arguing with,
null,"<div style=""font-size:60px;"">+</div>",,html-keyboard-response,78,657387,0.0-13.0-0.7,16381,List2B,black,woman,,,,null,,,,
null,"<img src=""stim_listB/kiss8.gif""</stim_listB>",,html-keyboard-response,79,659393,0.0-13.0-1.7,16381,List2B,black,woman,,,,null,,,,
null,are kissing each other,,html-keyboard-response,80,661395,0.0-13.0-2.7,16381,List2B,black,woman,,,,null,,,,
21629,,,survey-text,81,683026,0.0-13.0-3.7,16381,List2B,black,woman,,,,,"{""Q0"":""kate and jane are kissing each other""}","<img src=""stim_listB/kiss8.gif""</stim_listB>",are kissing each other,
null,"<div style=""font-size:60px;"">+</div>",,html-keyboard-response,82,683527,0.0-13.0-0.8,16381,List2B,black,woman,,,,null,,,,
null,"<img src=""stim_listB/hug1.gif""</stim_listB>",,html-keyboard-response,83,685530,0.0-13.0-1.8,16381,List2B,black,woman,,,,null,,,,
null,is hugging,,html-keyboard-response,84,687532,0.0-13.0-2.8,16381,List2B,black,woman,,,,null,,,,
14830,,,survey-text,85,702363,0.0-13.0-3.8,16381,List2B,black,woman,,,,,"{""Q0"":""luke is hugging ruth""}","<img src=""stim_listB/hug1.gif""</stim_listB>",is hugging,
null,"<div style=""font-size:60px;"">+</div>",,html-keyboard-response,86,702866,0.0-13.0-0.9,16381,List2B,black,woman,,,,null,,,,
null,"<img src=""stim_listB/marry5.gif""</stim_listB>",,html-keyboard-response,87,704869,0.0-13.0-1.9,16381,List2B,black,woman,,,,null,,,,
null,is marrying,,html-keyboard-response,88,706873,0.0-13.0-2.9,16381,List2B,black,woman,,,,null,,,,
19060,,,survey-text,89,725936,0.0-13.0-3.9,16381,List2B,black,woman,,,,,"{""Q0"":""dave is marrying fred""}","<img src=""stim_listB/marry5.gif""</stim_listB>",is marrying,
null,"<div style=""font-size:60px;"">+</div>",,html-keyboard-response,90,726437,0.0-13.0-0.10,16381,List2B,black,woman,,,,null,,,,
null,"<img src=""stim_listB/talk5.gif""</stim_listB>",,html-keyboard-response,91,728441,0.0-13.0-1.10,16381,List2B,black,woman,,,,null,,,,
null,is talking to,,html-keyboard-response,92,730444,0.0-13.0-2.10,16381,List2B,black,woman,,,,null,,,,
10238,,,survey-text,93,740684,0.0-13.0-3.10,16381,List2B,black,woman,,,,,"{""Q0"":""luke is talking to mike""}","<img src=""stim_listB/talk5.gif""</stim_listB>",is talking to,
null,"<div style=""font-size:60px;"">+</div>",,html-keyboard-response,94,741185,0.0-13.0-0.11,16381,List2B,black,woman,,,,null,,,,
null,"<img src=""stim_listB/touch7.gif""</stim_listB>",,html-keyboard-response,95,743188,0.0-13.0-1.11,16381,List2B,black,woman,,,,null,,,,
null,is touching,,html-keyboard-response,96,745191,0.0-13.0-2.11,16381,List2B,black,woman,,,,null,,,,
10737,,,survey-text,97,755928,0.0-13.0-3.11,16381,List2B,black,woman,,,,,"{""Q0"":""kate is touching jane""}","<img src=""stim_listB/touch7.gif""</stim_listB>",is touching,
null,"<div style=""font-size:60px;"">+</div>",,html-keyboard-response,98,756429,0.0-13.0-0.12,16381,List2B,black,woman,,,,null,,,,
null,"<img src=""stim_listB/hug8.gif""</stim_listB>",,html-keyboard-response,99,758433,0.0-13.0-1.12,16381,List2B,black,woman,,,,null,,,,
null,are hugging each other,,html-keyboard-response,100,760436,0.0-13.0-2.12,16381,List2B,black,woman,,,,null,,,,
30245,,,survey-text,101,790683,0.0-13.0-3.12,16381,List2B,black,woman,,,,,"{""Q0"":""kate is hugging jane""}","<img src=""stim_listB/hug8.gif""</stim_listB>",are hugging each other,
null,"<div style=""font-size:60px;"">+</div>",,html-keyboard-response,102,791184,0.0-13.0-0.13,16381,List2B,black,woman,,,,null,,,,
null,"<img src=""stim_listB/meet2.gif""</stim_listB>",,html-keyboard-response,103,793188,0.0-13.0-1.13,16381,List2B,black,woman,,,,null,,,,
null,are meeting each other,,html-keyboard-response,104,795190,0.0-13.0-2.13,16381,List2B,black,woman,,,,null,,,,
13843,,,survey-text,105,809035,0.0-13.0-3.13,16381,List2B,black,woman,,,,,"{""Q0"":""luke and ruth are meeting each other""}","<img src=""stim_listB/meet2.gif""</stim_listB>",are meeting each other,
null,"<div style=""font-size:60px;"">+</div>",,html-keyboard-response,106,809536,0.0-13.0-0.14,16381,List2B,black,woman,,,,null,,,,
null,"<img src=""stim_listB/fight3.gif""</stim_listB>",,html-keyboard-response,107,811540,0.0-13.0-1.14,16381,List2B,black,woman,,,,null,,,,
null,is fighting,,html-keyboard-response,108,813542,0.0-13.0-2.14,16381,List2B,black,woman,,,,null,,,,
11462,,,survey-text,109,825005,0.0-13.0-3.14,16381,List2B,black,woman,,,,,"{""Q0"":""mike is fighting kate""}","<img src=""stim_listB/fight3.gif""</stim_listB>",is fighting,
null,"<div style=""font-size:60px;"">+</div>",,html-keyboard-response,110,825506,0.0-13.0-0.15,16381,List2B,black,woman,,,,null,,,,
null,"<img src=""stim_listB/fight6.gif""</stim_listB>",,html-keyboard-response,111,827510,0.0-13.0-1.15,16381,List2B,black,woman,,,,null,,,,
null,are fighting each other,,html-keyboard-response,112,829511,0.0-13.0-2.15,16381,List2B,black,woman,,,,null,,,,
17401,,,survey-text,113,846913,0.0-13.0-3.15,16381,List2B,black,woman,,,,,"{""Q0"":""luke and fred are fighting each other""}","<img src=""stim_listB/fight6.gif""</stim_listB>",are fighting each other,
null,"<div style=""font-size:60px;"">+</div>",,html-keyboard-response,114,847415,0.0-13.0-0.16,16381,List2B,black,woman,,,,null,,,,
null,"<img src=""stim_listB/hug4.gif""</stim_listB>",,html-keyboard-response,115,849420,0.0-13.0-1.16,16381,List2B,black,woman,,,,null,,,,
null,are hugging each other,,html-keyboard-response,116,851421,0.0-13.0-2.16,16381,List2B,black,woman,,,,null,,,,
14824,,,survey-text,117,866247,0.0-13.0-3.16,16381,List2B,black,woman,,,,,"{""Q0"":""kate and mike are hugging each other""}","<img src=""stim_listB/hug4.gif""</stim_listB>",are hugging each other,
null,"<div style=""font-size:60px;"">+</div>",,html-keyboard-response,118,866748,0.0-13.0-0.17,16381,List2B,black,woman,,,,null,,,,
null,"<img src=""stim_listB/marry6.gif""</stim_listB>",,html-keyboard-response,119,868750,0.0-13.0-1.17,16381,List2B,black,woman,,,,null,,,,
null,are marrying each other,,html-keyboard-response,120,870754,0.0-13.0-2.17,16381,List2B,black,woman,,,,null,,,,
15552,,,survey-text,121,886307,0.0-13.0-3.17,16381,List2B,black,woman,,,,,"{""Q0"":""luke and mike are marrying each other""}","<img src=""stim_listB/marry6.gif""</stim_listB>",are marrying each other,
null,"<div style=""font-size:60px;"">+</div>",,html-keyboard-response,122,886809,0.0-13.0-0.18,16381,List2B,black,woman,,,,null,,,,
null,"<img src=""stim_listB/argue4.gif""</stim_listB>",,html-keyboard-response,123,888812,0.0-13.0-1.18,16381,List2B,black,woman,,,,null,,,,
null,are arguing with each other,,html-keyboard-response,124,890813,0.0-13.0-2.18,16381,List2B,black,woman,,,,null,,,,
19005,,,survey-text,125,909819,0.0-13.0-3.18,16381,List2B,black,woman,,,,,"{""Q0"":""fred and kate are arguing with each other""}","<img src=""stim_listB/argue4.gif""</stim_listB>",are arguing with each other,
null,"<div style=""font-size:60px;"">+</div>",,html-keyboard-response,126,910321,0.0-13.0-0.19,16381,List2B,black,woman,,,,null,,,,
null,"<img src=""stim_listB/dance2.gif""</stim_listB>",,html-keyboard-response,127,912324,0.0-13.0-1.19,16381,List2B,black,woman,,,,null,,,,
null,are dancing with each other,,html-keyboard-response,128,914326,0.0-13.0-2.19,16381,List2B,black,woman,,,,null,,,,
23298,,,survey-text,129,937625,0.0-13.0-3.19,16381,List2B,black,woman,,,,,"{""Q0"":""ruth and dave are dancing with each other""}","<img src=""stim_listB/dance2.gif""</stim_listB>",are dancing with each other,
15473,"<img src='img/portrait_matrix_list2.JPG' style='width:900px;height:500px;''></img><p>If you have memorised all the portraits and names and are ready to start, press Continue.</p><p><strong>Please note: Your memory of these faces will be tested 4 times during this experiment.</strong></p>",0,html-button-response,130,953099,0.0-14.0-0.0,16381,List2B,black,woman,,,,,,,,
3105,"<img src=""portrait/BW2.jpg""style=""width:400px;height:400px;""></img>",2,html-button-response,131,957211,0.0-14.0-1.0,16381,List2B,black,woman,,TRUE,2,,,,,
null,CORRECT,,html-keyboard-response,132,958714,0.0-14.0-2.0-0.0,16381,List2B,black,woman,,,,null,,,,
2751,"<img src=""portrait/WW1.jpg""style=""width:400px;height:400px;""></img>",1,html-button-response,133,961468,0.0-14.0-4.0,16381,List2B,black,woman,,TRUE,1,,,,,
null,CORRECT,,html-keyboard-response,134,962970,0.0-14.0-5.0-0.0,16381,List2B,black,woman,,,,null,,,,
2033,"<img src=""portrait/BM1.jpg""style=""width:400px;height:400px;""></img>",4,html-button-response,135,965006,0.0-14.0-7.0,16381,List2B,black,woman,,TRUE,4,,,,,
null,CORRECT,,html-keyboard-response,136,966508,0.0-14.0-8.0-0.0,16381,List2B,black,woman,,,,null,,,,
3927,"<img src=""portrait/WM2.jpg""style=""width:400px;height:400px;""></img>",7,html-button-response,137,970438,0.0-14.0-10.0,16381,List2B,black,woman,,TRUE,7,,,,,
null,CORRECT,,html-keyboard-response,138,971941,0.0-14.0-11.0-0.0,16381,List2B,black,woman,,,,null,,,,
2904,"<img src=""portrait/WM1.jpg""style=""width:400px;height:400px;""></img>",6,html-button-response,139,974848,0.0-14.0-13.0,16381,List2B,black,woman,,TRUE,6,,,,,
null,CORRECT,,html-keyboard-response,140,976354,0.0-14.0-14.0-0.0,16381,List2B,black,woman,,,,null,,,,
2154,"<img src=""portrait/BM2.jpg""style=""width:400px;height:400px;""></img>",5,html-button-response,141,978509,0.0-14.0-16.0,16381,List2B,black,woman,,TRUE,5,,,,,
null,CORRECT,,html-keyboard-response,142,980012,0.0-14.0-17.0-0.0,16381,List2B,black,woman,,,,null,,,,
13094,"<img src=""portrait/BW1.jpg""style=""width:400px;height:400px;""></img>",0,html-button-response,143,993109,0.0-14.0-19.0,16381,List2B,black,woman,,TRUE,0,,,,,
null,CORRECT,,html-keyboard-response,144,994613,0.0-14.0-20.0-0.0,16381,List2B,black,woman,,,,null,,,,
3150,"<img src=""portrait/WW2.jpg""style=""width:400px;height:400px;""></img>",3,html-button-response,145,997765,0.0-14.0-22.0,16381,List2B,black,woman,,TRUE,3,,,,,
null,CORRECT,,html-keyboard-response,146,999269,0.0-14.0-23.0-0.0,16381,List2B,black,woman,,,,null,,,,
1898,<p>You got 8 out of 8 right first time. Press Continue.</p>,0,html-button-response,147,1001169,0.0-14.0-25.0,16381,List2B,black,woman,,,,,,,,
null,"<div style=""font-size:60px;"">+</div>",,html-keyboard-response,148,1002672,0.0-15.0-0.0,16381,List2B,black,woman,,,,null,,,,
null,"<img src=""stim_listB/kiss7.gif""</stim_listB>",,html-keyboard-response,149,1004677,0.0-15.0-1.0,16381,List2B,black,woman,,,,null,,,,
null,is kissing,,html-keyboard-response,150,1006679,0.0-15.0-2.0,16381,List2B,black,woman,,,,null,,,,
11741,,,survey-text,151,1018421,0.0-15.0-3.0,16381,List2B,black,woman,,,,,"{""Q0"":""ruth is kissing beth""}","<img src=""stim_listB/kiss7.gif""</stim_listB>",is kissing,
null,"<div style=""font-size:60px;"">+</div>",,html-keyboard-response,152,1018923,0.0-15.0-0.1,16381,List2B,black,woman,,,,null,,,,
null,"<img src=""stim_listB/touch1.gif""</stim_listB>",,html-keyboard-response,153,1020926,0.0-15.0-1.1,16381,List2B,black,woman,,,,null,,,,
null,is touching,,html-keyboard-response,154,1022929,0.0-15.0-2.1,16381,List2B,black,woman,,,,null,,,,
12180,,,survey-text,155,1035110,0.0-15.0-3.1,16381,List2B,black,woman,,,,,"{""Q0"":""jane is touching dave""}","<img src=""stim_listB/touch1.gif""</stim_listB>",is touching,
null,"<div style=""font-size:60px;"">+</div>",,html-keyboard-response,156,1035612,0.0-15.0-0.2,16381,List2B,black,woman,,,,null,,,,
null,"<img src=""stim_listB/touch4.gif""</stim_listB>",,html-keyboard-response,157,1037615,0.0-15.0-1.2,16381,List2B,black,woman,,,,null,,,,
null,are touching each other,,html-keyboard-response,158,1039619,0.0-15.0-2.2,16381,List2B,black,woman,,,,null,,,,
35532,,,survey-text,159,1075153,0.0-15.0-3.2,16381,List2B,black,woman,,,,,"{""Q0"":""dave and jane are touching each other""}","<img src=""stim_listB/touch4.gif""</stim_listB>",are touching each other,
null,"<div style=""font-size:60px;"">+</div>",,html-keyboard-response,160,1075655,0.0-15.0-0.3,16381,List2B,black,woman,,,,null,,,,
null,"<img src=""stim_listB/touch6.gif""</stim_listB>",,html-keyboard-response,161,1077661,0.0-15.0-1.3,16381,List2B,black,woman,,,,null,,,,
null,are touching each other,,html-keyboard-response,162,1079664,0.0-15.0-2.3,16381,List2B,black,woman,,,,null,,,,
17786,,,survey-text,163,1097451,0.0-15.0-3.3,16381,List2B,black,woman,,,,,"{""Q0"":""(no pic) are touch each other""}","<img src=""stim_listB/touch6.gif""</stim_listB>",are touching each other,
null,"<div style=""font-size:60px;"">+</div>",,html-keyboard-response,164,1097954,0.0-15.0-0.4,16381,List2B,black,woman,,,,null,,,,
null,"<img src=""stim_listB/marry1.gif""</stim_listB>",,html-keyboard-response,165,1099957,0.0-15.0-1.4,16381,List2B,black,woman,,,,null,,,,
null,is marrying,,html-keyboard-response,166,1101960,0.0-15.0-2.4,16381,List2B,black,woman,,,,null,,,,
14523,,,survey-text,167,1116484,0.0-15.0-3.4,16381,List2B,black,woman,,,,,"{""Q0"":""dave is marrying ruth""}","<img src=""stim_listB/marry1.gif""</stim_listB>",is marrying,
null,"<div style=""font-size:60px;"">+</div>",,html-keyboard-response,168,1116987,0.0-15.0-0.5,16381,List2B,black,woman,,,,null,,,,
null,"<img src=""stim_listB/talk7.gif""</stim_listB>",,html-keyboard-response,169,1118990,0.0-15.0-1.5,16381,List2B,black,woman,,,,null,,,,
null,is talking to,,html-keyboard-response,170,1120992,0.0-15.0-2.5,16381,List2B,black,woman,,,,null,,,,
14538,,,survey-text,171,1135532,0.0-15.0-3.5,16381,List2B,black,woman,,,,,"{""Q0"":""kate is talking to ruth""}","<img src=""stim_listB/talk7.gif""</stim_listB>",is talking to,
null,"<div style=""font-size:60px;"">+</div>",,html-keyboard-response,172,1136035,0.0-15.0-0.6,16381,List2B,black,woman,,,,null,,,,
null,"<img src=""stim_listB/dance8.gif""</stim_listB>",,html-keyboard-response,173,1138038,0.0-15.0-1.6,16381,List2B,black,woman,,,,null,,,,
null,are dancing with each other,,html-keyboard-response,174,1140041,0.0-15.0-2.6,16381,List2B,black,woman,,,,null,,,,
17425,,,survey-text,175,1157468,0.0-15.0-3.6,16381,List2B,black,woman,,,,,"{""Q0"":""(no pic) is dancing with each other""}","<img src=""stim_listB/dance8.gif""</stim_listB>",are dancing with each other,
null,"<div style=""font-size:60px;"">+</div>",,html-keyboard-response,176,1157969,0.0-15.0-0.7,16381,List2B,black,woman,,,,null,,,,
null,"<img src=""stim_listB/meet4.gif""</stim_listB>",,html-keyboard-response,177,1159974,0.0-15.0-1.7,16381,List2B,black,woman,,,,null,,,,
null,are meeting each other,,html-keyboard-response,178,1161977,0.0-15.0-2.7,16381,List2B,black,woman,,,,null,,,,
16857,,,survey-text,179,1178835,0.0-15.0-3.7,16381,List2B,black,woman,,,,,"{""Q0"":""(no pic) are marrying each other""}","<img src=""stim_listB/meet4.gif""</stim_listB>",are meeting each other,
null,"<div style=""font-size:60px;"">+</div>",,html-keyboard-response,180,1179337,0.0-15.0-0.8,16381,List2B,black,woman,,,,null,,,,
null,"<img src=""stim_listB/hug7.gif""</stim_listB>",,html-keyboard-response,181,1181344,0.0-15.0-1.8,16381,List2B,black,woman,,,,null,,,,
null,is hugging,,html-keyboard-response,182,1183347,0.0-15.0-2.8,16381,List2B,black,woman,,,,null,,,,
14129,,,survey-text,183,1197479,0.0-15.0-3.8,16381,List2B,black,woman,,,,,"{""Q0"":""is hugging (NO PIC)""}","<img src=""stim_listB/hug7.gif""</stim_listB>",is hugging,
null,"<div style=""font-size:60px;"">+</div>",,html-keyboard-response,184,1197981,0.0-15.0-0.9,16381,List2B,black,woman,,,,null,,,,
null,"<img src=""stim_listB/argue7.gif""</stim_listB>",,html-keyboard-response,185,1199985,0.0-15.0-1.9,16381,List2B,black,woman,,,,null,,,,
null,is arguing with,,html-keyboard-response,186,1201987,0.0-15.0-2.9,16381,List2B,black,woman,,,,null,,,,
16496,,,survey-text,187,1218484,0.0-15.0-3.9,16381,List2B,black,woman,,,,,"{""Q0"":""jane is arguing with beth""}","<img src=""stim_listB/argue7.gif""</stim_listB>",is arguing with,
null,"<div style=""font-size:60px;"">+</div>",,html-keyboard-response,188,1218986,0.0-15.0-0.10,16381,List2B,black,woman,,,,null,,,,
null,"<img src=""stim_listB/marry7.gif""</stim_listB>",,html-keyboard-response,189,1220990,0.0-15.0-1.10,16381,List2B,black,woman,,,,null,,,,
null,is marrying,,html-keyboard-response,190,1222992,0.0-15.0-2.10,16381,List2B,black,woman,,,,null,,,,
16665,,,survey-text,191,1239659,0.0-15.0-3.10,16381,List2B,black,woman,,,,,"{""Q0"":""beth is marrying jane""}","<img src=""stim_listB/marry7.gif""</stim_listB>",is marrying,
null,"<div style=""font-size:60px;"">+</div>",,html-keyboard-response,192,1240161,0.0-15.0-0.11,16381,List2B,black,woman,,,,null,,,,
null,"<img src=""stim_listB/marry8.gif""</stim_listB>",,html-keyboard-response,193,1242164,0.0-15.0-1.11,16381,List2B,black,woman,,,,null,,,,
null,are marrying each other,,html-keyboard-response,194,1244166,0.0-15.0-2.11,16381,List2B,black,woman,,,,null,,,,
13470,,,survey-text,195,1257638,0.0-15.0-3.11,16381,List2B,black,woman,,,,,"{""Q0"":""kate and ruth are marrying each other""}","<img src=""stim_listB/marry8.gif""</stim_listB>",are marrying each other,
null,"<div style=""font-size:60px;"">+</div>",,html-keyboard-response,196,1258140,0.0-15.0-0.12,16381,List2B,black,woman,,,,null,,,,
null,"<img src=""stim_listB/marry4.gif""</stim_listB>",,html-keyboard-response,197,1260142,0.0-15.0-1.12,16381,List2B,black,woman,,,,null,,,,
null,are marrying each other,,html-keyboard-response,198,1262144,0.0-15.0-2.12,16381,List2B,black,woman,,,,null,,,,
14005,,,survey-text,199,1276151,0.0-15.0-3.12,16381,List2B,black,woman,,,,,"{""Q0"":""kate and fred are marrying each other""}","<img src=""stim_listB/marry4.gif""</stim_listB>",are marrying each other,
null,"<div style=""font-size:60px;"">+</div>",,html-keyboard-response,200,1276653,0.0-15.0-0.13,16381,List2B,black,woman,,,,null,,,,
null,"<img src=""stim_listB/fight2.gif""</stim_listB>",,html-keyboard-response,201,1278656,0.0-15.0-1.13,16381,List2B,black,woman,,,,null,,,,
null,are fighting each other,,html-keyboard-response,202,1280658,0.0-15.0-2.13,16381,List2B,black,woman,,,,null,,,,
11095,,,survey-text,203,1291754,0.0-15.0-3.13,16381,List2B,black,woman,,,,,"{""Q0"":""ruth and luke are fighting each other""}","<img src=""stim_listB/fight2.gif""</stim_listB>",are fighting each other,
null,"<div style=""font-size:60px;"">+</div>",,html-keyboard-response,204,1292257,0.0-15.0-0.14,16381,List2B,black,woman,,,,null,,,,
null,"<img src=""stim_listB/kiss6.gif""</stim_listB>",,html-keyboard-response,205,1294259,0.0-15.0-1.14,16381,List2B,black,woman,,,,null,,,,
null,are kissing each other,,html-keyboard-response,206,1296262,0.0-15.0-2.14,16381,List2B,black,woman,,,,null,,,,
17839,,,survey-text,207,1314103,0.0-15.0-3.14,16381,List2B,black,woman,,,,,"{""Q0"":""mike and dave are kissing each other""}","<img src=""stim_listB/kiss6.gif""</stim_listB>",are kissing each other,
null,"<div style=""font-size:60px;"">+</div>",,html-keyboard-response,208,1314606,0.0-15.0-0.15,16381,List2B,black,woman,,,,null,,,,
null,"<img src=""stim_listB/dance7.gif""</stim_listB>",,html-keyboard-response,209,1316609,0.0-15.0-1.15,16381,List2B,black,woman,,,,null,,,,
null,is dancing with,,html-keyboard-response,210,1318611,0.0-15.0-2.15,16381,List2B,black,woman,,,,null,,,,
16464,,,survey-text,211,1335077,0.0-15.0-3.15,16381,List2B,black,woman,,,,,"{""Q0"":""ruth is dancing with kate""}","<img src=""stim_listB/dance7.gif""</stim_listB>",is dancing with,
null,"<div style=""font-size:60px;"">+</div>",,html-keyboard-response,212,1335579,0.0-15.0-0.16,16381,List2B,black,woman,,,,null,,,,
null,"<img src=""stim_listB/dance4.gif""</stim_listB>",,html-keyboard-response,213,1337582,0.0-15.0-1.16,16381,List2B,black,woman,,,,null,,,,
null,are dancing with each other,,html-keyboard-response,214,1339585,0.0-15.0-2.16,16381,List2B,black,woman,,,,null,,,,
18011,,,survey-text,215,1357598,0.0-15.0-3.16,16381,List2B,black,woman,,,,,"{""Q0"":""beth and mike are dancing with each other""}","<img src=""stim_listB/dance4.gif""</stim_listB>",are dancing with each other,
null,"<div style=""font-size:60px;"">+</div>",,html-keyboard-response,216,1358099,0.0-15.0-0.17,16381,List2B,black,woman,,,,null,,,,
null,"<img src=""stim_listB/touch5.gif""</stim_listB>",,html-keyboard-response,217,1360102,0.0-15.0-1.17,16381,List2B,black,woman,,,,null,,,,
null,is touching,,html-keyboard-response,218,1362105,0.0-15.0-2.17,16381,List2B,black,woman,,,,null,,,,
11798,,,survey-text,219,1373905,0.0-15.0-3.17,16381,List2B,black,woman,,,,,"{""Q0"":""mike is touching dave""}","<img src=""stim_listB/touch5.gif""</stim_listB>",is touching,
null,"<div style=""font-size:60px;"">+</div>",,html-keyboard-response,220,1374406,0.0-15.0-0.18,16381,List2B,black,woman,,,,null,,,,
null,"<img src=""stim_listB/meet6.gif""</stim_listB>",,html-keyboard-response,221,1376409,0.0-15.0-1.18,16381,List2B,black,woman,,,,null,,,,
null,are meeting each other,,html-keyboard-response,222,1378410,0.0-15.0-2.18,16381,List2B,black,woman,,,,null,,,,
12679,,,survey-text,223,1391091,0.0-15.0-3.18,16381,List2B,black,woman,,,,,"{""Q0"":""luke and fred are meeting each other""}","<img src=""stim_listB/meet6.gif""</stim_listB>",are meeting each other,
null,"<div style=""font-size:60px;"">+</div>",,html-keyboard-response,224,1391592,0.0-15.0-0.19,16381,List2B,black,woman,,,,null,,,,
null,"<img src=""stim_listB/shout3.gif""</stim_listB>",,html-keyboard-response,225,1393597,0.0-15.0-1.19,16381,List2B,black,woman,,,,null,,,,
null,is shouting at,,html-keyboard-response,226,1395601,0.0-15.0-2.19,16381,List2B,black,woman,,,,null,,,,
11575,,,survey-text,227,1407178,0.0-15.0-3.19,16381,List2B,black,woman,,,,,"{""Q0"":""fred is shouting at beth""}","<img src=""stim_listB/shout3.gif""</stim_listB>",is shouting at,
7408,"<img src='img/portrait_matrix_list2.JPG' style='width:900px;height:500px;''></img><p>If you have memorised all the portraits and names and are ready to start, press Continue.</p><p><strong>Please note: Your memory of these faces will be tested 4 times during this experiment.</strong></p>",0,html-button-response,228,1414588,0.0-16.0-0.0,16381,List2B,black,woman,,,,,,,,
5598,"<img src=""portrait/BW2.jpg""style=""width:400px;height:400px;""></img>",2,html-button-response,229,1421189,0.0-16.0-1.0,16381,List2B,black,woman,,TRUE,2,,,,,
null,CORRECT,,html-keyboard-response,230,1422692,0.0-16.0-2.0-0.0,16381,List2B,black,woman,,,,null,,,,
3003,"<img src=""portrait/WM2.jpg""style=""width:400px;height:400px;""></img>",7,html-button-response,231,1425698,0.0-16.0-4.0,16381,List2B,black,woman,,TRUE,7,,,,,
null,CORRECT,,html-keyboard-response,232,1427204,0.0-16.0-5.0-0.0,16381,List2B,black,woman,,,,null,,,,
2776,"<img src=""portrait/WW2.jpg""style=""width:400px;height:400px;""></img>",3,html-button-response,233,1429984,0.0-16.0-7.0,16381,List2B,black,woman,,TRUE,3,,,,,
null,CORRECT,,html-keyboard-response,234,1431489,0.0-16.0-8.0-0.0,16381,List2B,black,woman,,,,null,,,,
1783,"<img src=""portrait/BM1.jpg""style=""width:400px;height:400px;""></img>",4,html-button-response,235,1433274,0.0-16.0-10.0,16381,List2B,black,woman,,TRUE,4,,,,,
null,CORRECT,,html-keyboard-response,236,1434778,0.0-16.0-11.0-0.0,16381,List2B,black,woman,,,,null,,,,
2039,"<img src=""portrait/BW1.jpg""style=""width:400px;height:400px;""></img>",0,html-button-response,237,1436820,0.0-16.0-13.0,16381,List2B,black,woman,,TRUE,0,,,,,
null,CORRECT,,html-keyboard-response,238,1438323,0.0-16.0-14.0-0.0,16381,List2B,black,woman,,,,null,,,,
2712,"<img src=""portrait/WW1.jpg""style=""width:400px;height:400px;""></img>",1,html-button-response,239,1441037,0.0-16.0-16.0,16381,List2B,black,woman,,TRUE,1,,,,,
null,CORRECT,,html-keyboard-response,240,1442543,0.0-16.0-17.0-0.0,16381,List2B,black,woman,,,,null,,,,
1888,"<img src=""portrait/BM2.jpg""style=""width:400px;height:400px;""></img>",5,html-button-response,241,1444433,0.0-16.0-19.0,16381,List2B,black,woman,,TRUE,5,,,,,
null,CORRECT,,html-keyboard-response,242,1445935,0.0-16.0-20.0-0.0,16381,List2B,black,woman,,,,null,,,,
1948,"<img src=""portrait/WM1.jpg""style=""width:400px;height:400px;""></img>",6,html-button-response,243,1447884,0.0-16.0-22.0,16381,List2B,black,woman,,TRUE,6,,,,,
null,CORRECT,,html-keyboard-response,244,1449387,0.0-16.0-23.0-0.0,16381,List2B,black,woman,,,,null,,,,
1837,<p>You got 8 out of 8 right first time. Press Continue.</p>,0,html-button-response,245,1451227,0.0-16.0-25.0,16381,List2B,black,woman,,,,,,,,
null,"<div style=""font-size:60px;"">+</div>",,html-keyboard-response,246,1452732,0.0-17.0-0.0,16381,List2B,black,woman,,,,null,,,,
null,"<img src=""stim_listB/hug3.gif""</stim_listB>",,html-keyboard-response,247,1454736,0.0-17.0-1.0,16381,List2B,black,woman,,,,null,,,,
null,is hugging,,html-keyboard-response,248,1456738,0.0-17.0-2.0,16381,List2B,black,woman,,,,null,,,,
10353,,,survey-text,249,1467093,0.0-17.0-3.0,16381,List2B,black,woman,,,,,"{""Q0"":""beth is hugging fred""}","<img src=""stim_listB/hug3.gif""</stim_listB>",is hugging,
null,"<div style=""font-size:60px;"">+</div>",,html-keyboard-response,250,1467594,0.0-17.0-0.1,16381,List2B,black,woman,,,,null,,,,
null,"<img src=""stim_listB/touch3.gif""</stim_listB>",,html-keyboard-response,251,1469598,0.0-17.0-1.1,16381,List2B,black,woman,,,,null,,,,
null,is touching,,html-keyboard-response,252,1471600,0.0-17.0-2.1,16381,List2B,black,woman,,,,null,,,,
11735,,,survey-text,253,1483338,0.0-17.0-3.1,16381,List2B,black,woman,,,,,"{""Q0"":""mike is touching kate""}","<img src=""stim_listB/touch3.gif""</stim_listB>",is touching,
null,"<div style=""font-size:60px;"">+</div>",,html-keyboard-response,254,1483839,0.0-17.0-0.2,16381,List2B,black,woman,,,,null,,,,
null,"<img src=""stim_listB/fight8.gif""</stim_listB>",,html-keyboard-response,255,1485842,0.0-17.0-1.2,16381,List2B,black,woman,,,,null,,,,
null,are fighting each other,,html-keyboard-response,256,1487844,0.0-17.0-2.2,16381,List2B,black,woman,,,,null,,,,
13840,,,survey-text,257,1501685,0.0-17.0-3.2,16381,List2B,black,woman,,,,,"{""Q0"":""ruth and beth are fighting each other""}","<img src=""stim_listB/fight8.gif""</stim_listB>",are fighting each other,
null,"<div style=""font-size:60px;"">+</div>",,html-keyboard-response,258,1502188,0.0-17.0-0.3,16381,List2B,black,woman,,,,null,,,,
null,"<img src=""stim_listB/meet8.gif""</stim_listB>",,html-keyboard-response,259,1504192,0.0-17.0-1.3,16381,List2B,black,woman,,,,null,,,,
null,are meeting each other,,html-keyboard-response,260,1506195,0.0-17.0-2.3,16381,List2B,black,woman,,,,null,,,,
11606,,,survey-text,261,1517802,0.0-17.0-3.3,16381,List2B,black,woman,,,,,"{""Q0"":""ruth and beth are meeting each other""}","<img src=""stim_listB/meet8.gif""</stim_listB>",are meeting each other,
null,"<div style=""font-size:60px;"">+</div>",,html-keyboard-response,262,1518303,0.0-17.0-0.4,16381,List2B,black,woman,,,,null,,,,
null,"<img src=""stim_listB/dance5.gif""</stim_listB>",,html-keyboard-response,263,1520307,0.0-17.0-1.4,16381,List2B,black,woman,,,,null,,,,
null,is dancing with,,html-keyboard-response,264,1522310,0.0-17.0-2.4,16381,List2B,black,woman,,,,null,,,,
10046,,,survey-text,265,1532359,0.0-17.0-3.4,16381,List2B,black,woman,,,,,"{""Q0"":""mike is dancing with luke""}","<img src=""stim_listB/dance5.gif""</stim_listB>",is dancing with,
null,"<div style=""font-size:60px;"">+</div>",,html-keyboard-response,266,1532862,0.0-17.0-0.5,16381,List2B,black,woman,,,,null,,,,
null,"<img src=""stim_listB/argue2.gif""</stim_listB>",,html-keyboard-response,267,1534865,0.0-17.0-1.5,16381,List2B,black,woman,,,,null,,,,
null,are arguing with each other,,html-keyboard-response,268,1536868,0.0-17.0-2.5,16381,List2B,black,woman,,,,null,,,,
15963,,,survey-text,269,1552833,0.0-17.0-3.5,16381,List2B,black,woman,,,,,"{""Q0"":""luke and jane are arguing with each other""}","<img src=""stim_listB/argue2.gif""</stim_listB>",are arguing with each other,
null,"<div style=""font-size:60px;"">+</div>",,html-keyboard-response,270,1553337,0.0-17.0-0.6,16381,List2B,black,woman,,,,null,,,,
null,"<img src=""stim_listB/argue8.gif""</stim_listB>",,html-keyboard-response,271,1555341,0.0-17.0-1.6,16381,List2B,black,woman,,,,null,,,,
null,are arguing with each other,,html-keyboard-response,272,1557344,0.0-17.0-2.6,16381,List2B,black,woman,,,,null,,,,
16045,,,survey-text,273,1573392,0.0-17.0-3.6,16381,List2B,black,woman,,,,,"{""Q0"":""ruth and kate are arguing with each other""}","<img src=""stim_listB/argue8.gif""</stim_listB>",are arguing with each other,
null,"<div style=""font-size:60px;"">+</div>",,html-keyboard-response,274,1573895,0.0-17.0-0.7,16381,List2B,black,woman,,,,null,,,,
null,"<img src=""stim_listB/fight5.gif""</stim_listB>",,html-keyboard-response,275,1575899,0.0-17.0-1.7,16381,List2B,black,woman,,,,null,,,,
null,is fighting,,html-keyboard-response,276,1577903,0.0-17.0-2.7,16381,List2B,black,woman,,,,null,,,,
8218,,,survey-text,277,1586122,0.0-17.0-3.7,16381,List2B,black,woman,,,,,"{""Q0"":""mike is fighting dave""}","<img src=""stim_listB/fight5.gif""</stim_listB>",is fighting,
null,"<div style=""font-size:60px;"">+</div>",,html-keyboard-response,278,1586625,0.0-17.0-0.8,16381,List2B,black,woman,,,,null,,,,
null,"<img src=""stim_listB/argue1.gif""</stim_listB>",,html-keyboard-response,279,1588630,0.0-17.0-1.8,16381,List2B,black,woman,,,,null,,,,
null,is arguing with,,html-keyboard-response,280,1590632,0.0-17.0-2.8,16381,List2B,black,woman,,,,null,,,,
10389,,,survey-text,281,1601021,0.0-17.0-3.8,16381,List2B,black,woman,,,,,"{""Q0"":""ruth is arguing with dave""}","<img src=""stim_listB/argue1.gif""</stim_listB>",is arguing with,
null,"<div style=""font-size:60px;"">+</div>",,html-keyboard-response,282,1601524,0.0-17.0-0.9,16381,List2B,black,woman,,,,null,,,,
null,"<img src=""stim_listB/shout5.gif""</stim_listB>",,html-keyboard-response,283,1603529,0.0-17.0-1.9,16381,List2B,black,woman,,,,null,,,,
null,is shouting at,,html-keyboard-response,284,1605532,0.0-17.0-2.9,16381,List2B,black,woman,,,,null,,,,
11895,,,survey-text,285,1617429,0.0-17.0-3.9,16381,List2B,black,woman,,,,,"{""Q0"":""fred is shouting at luke""}","<img src=""stim_listB/shout5.gif""</stim_listB>",is shouting at,
null,"<div style=""font-size:60px;"">+</div>",,html-keyboard-response,286,1617931,0.0-17.0-0.10,16381,List2B,black,woman,,,,null,,,,
null,"<img src=""stim_listB/kiss3.gif""</stim_listB>",,html-keyboard-response,287,1619934,0.0-17.0-1.10,16381,List2B,black,woman,,,,null,,,,
null,is kissing,,html-keyboard-response,288,1621936,0.0-17.0-2.10,16381,List2B,black,woman,,,,null,,,,
12828,,,survey-text,289,1634765,0.0-17.0-3.10,16381,List2B,black,woman,,,,,"{""Q0"":""beth is kissing fred""}","<img src=""stim_listB/kiss3.gif""</stim_listB>",is kissing,
null,"<div style=""font-size:60px;"">+</div>",,html-keyboard-response,290,1635267,0.0-17.0-0.11,16381,List2B,black,woman,,,,null,,,,
null,"<img src=""stim_listB/shout2.gif""</stim_listB>",,html-keyboard-response,291,1637270,0.0-17.0-1.11,16381,List2B,black,woman,,,,null,,,,
null,are shouting at each other,,html-keyboard-response,292,1639272,0.0-17.0-2.11,16381,List2B,black,woman,,,,null,,,,
14186,,,survey-text,293,1653460,0.0-17.0-3.11,16381,List2B,black,woman,,,,,"{""Q0"":""dave and jane are shouting at each other""}","<img src=""stim_listB/shout2.gif""</stim_listB>",are shouting at each other,
null,"<div style=""font-size:60px;"">+</div>",,html-keyboard-response,294,1653963,0.0-17.0-0.12,16381,List2B,black,woman,,,,null,,,,
null,"<img src=""stim_listB/touch2.gif""</stim_listB>",,html-keyboard-response,295,1655966,0.0-17.0-1.12,16381,List2B,black,woman,,,,null,,,,
null,are touching each other,,html-keyboard-response,296,1657968,0.0-17.0-2.12,16381,List2B,black,woman,,,,null,,,,
11663,,,survey-text,297,1669632,0.0-17.0-3.12,16381,List2B,black,woman,,,,,"{""Q0"":""luke and ruth are touching each other""}","<img src=""stim_listB/touch2.gif""</stim_listB>",are touching each other,
null,"<div style=""font-size:60px;"">+</div>",,html-keyboard-response,298,1670136,0.0-17.0-0.13,16381,List2B,black,woman,,,,null,,,,
null,"<img src=""stim_listB/kiss5.gif""</stim_listB>",,html-keyboard-response,299,1672139,0.0-17.0-1.13,16381,List2B,black,woman,,,,null,,,,
null,is kissing,,html-keyboard-response,300,1674141,0.0-17.0-2.13,16381,List2B,black,woman,,,,null,,,,
9529,,,survey-text,301,1683671,0.0-17.0-3.13,16381,List2B,black,woman,,,,,"{""Q0"":""luke is kissing fred""}","<img src=""stim_listB/kiss5.gif""</stim_listB>",is kissing,
null,"<div style=""font-size:60px;"">+</div>",,html-keyboard-response,302,1684174,0.0-17.0-0.14,16381,List2B,black,woman,,,,null,,,,
null,"<img src=""stim_listB/kiss2.gif""</stim_listB>",,html-keyboard-response,303,1686178,0.0-17.0-1.14,16381,List2B,black,woman,,,,null,,,,
null,are kissing each other,,html-keyboard-response,304,1688180,0.0-17.0-2.14,16381,List2B,black,woman,,,,null,,,,
12106,,,survey-text,305,1700287,0.0-17.0-3.14,16381,List2B,black,woman,,,,,"{""Q0"":""jane and dave are kissing each other""}","<img src=""stim_listB/kiss2.gif""</stim_listB>",are kissing each other,
null,"<div style=""font-size:60px;"">+</div>",,html-keyboard-response,306,1700789,0.0-17.0-0.15,16381,List2B,black,woman,,,,null,,,,
null,"<img src=""stim_listB/talk6.gif""</stim_listB>",,html-keyboard-response,307,1702792,0.0-17.0-1.15,16381,List2B,black,woman,,,,null,,,,
null,are talking to each other,,html-keyboard-response,308,1704794,0.0-17.0-2.15,16381,List2B,black,woman,,,,null,,,,
11978,,,survey-text,309,1716774,0.0-17.0-3.15,16381,List2B,black,woman,,,,,"{""Q0"":""dave and fred are talking to each other""}","<img src=""stim_listB/talk6.gif""</stim_listB>",are talking to each other,
null,"<div style=""font-size:60px;"">+</div>",,html-keyboard-response,310,1717276,0.0-17.0-0.16,16381,List2B,black,woman,,,,null,,,,
null,"<img src=""stim_listB/kiss4.gif""</stim_listB>",,html-keyboard-response,311,1719280,0.0-17.0-1.16,16381,List2B,black,woman,,,,null,,,,
null,are kissing each other,,html-keyboard-response,312,1721283,0.0-17.0-2.16,16381,List2B,black,woman,,,,null,,,,
16594,,,survey-text,313,1737879,0.0-17.0-3.16,16381,List2B,black,woman,,,,,"{""Q0"":""mike and kate are kissing each other""}","<img src=""stim_listB/kiss4.gif""</stim_listB>",are kissing each other,
null,"<div style=""font-size:60px;"">+</div>",,html-keyboard-response,314,1738382,0.0-17.0-0.17,16381,List2B,black,woman,,,,null,,,,
null,"<img src=""stim_listB/marry3.gif""</stim_listB>",,html-keyboard-response,315,1740385,0.0-17.0-1.17,16381,List2B,black,woman,,,,null,,,,
null,is marrying,,html-keyboard-response,316,1742386,0.0-17.0-2.17,16381,List2B,black,woman,,,,null,,,,
11410,,,survey-text,317,1753798,0.0-17.0-3.17,16381,List2B,black,woman,,,,,"{""Q0"":""mike is marrying beth""}","<img src=""stim_listB/marry3.gif""</stim_listB>",is marrying,
null,"<div style=""font-size:60px;"">+</div>",,html-keyboard-response,318,1754300,0.0-17.0-0.18,16381,List2B,black,woman,,,,null,,,,
null,"<img src=""stim_listB/touch8.gif""</stim_listB>",,html-keyboard-response,319,1756303,0.0-17.0-1.18,16381,List2B,black,woman,,,,null,,,,
null,are touching each other,,html-keyboard-response,320,1758306,0.0-17.0-2.18,16381,List2B,black,woman,,,,null,,,,
12560,,,survey-text,321,1770867,0.0-17.0-3.18,16381,List2B,black,woman,,,,,"{""Q0"":""beth and ruth are touching each other""}","<img src=""stim_listB/touch8.gif""</stim_listB>",are touching each other,
null,"<div style=""font-size:60px;"">+</div>",,html-keyboard-response,322,1771369,0.0-17.0-0.19,16381,List2B,black,woman,,,,null,,,,
null,"<img src=""stim_listB/talk1.gif""</stim_listB>",,html-keyboard-response,323,1773371,0.0-17.0-1.19,16381,List2B,black,woman,,,,null,,,,
null,is talking to,,html-keyboard-response,324,1775373,0.0-17.0-2.19,16381,List2B,black,woman,,,,null,,,,
9036,,,survey-text,325,1784411,0.0-17.0-3.19,16381,List2B,black,woman,,,,,"{""Q0"":""jane is talking to luke""}","<img src=""stim_listB/talk1.gif""</stim_listB>",is talking to,
8030,"<img src='img/portrait_matrix_list2.JPG' style='width:900px;height:500px;''></img><p>If you have memorised all the portraits and names and are ready to start, press Continue.</p><p><strong>Please note: Your memory of these faces will be tested 4 times during this experiment.</strong></p>",0,html-button-response,326,1792443,0.0-18.0-0.0,16381,List2B,black,woman,,,,,,,,
2426,"<img src=""portrait/BM1.jpg""style=""width:400px;height:400px;""></img>",4,html-button-response,327,1795874,0.0-18.0-1.0,16381,List2B,black,woman,,TRUE,4,,,,,
null,CORRECT,,html-keyboard-response,328,1797379,0.0-18.0-2.0-0.0,16381,List2B,black,woman,,,,null,,,,
2523,"<img src=""portrait/BW2.jpg""style=""width:400px;height:400px;""></img>",2,html-button-response,329,1799905,0.0-18.0-4.0,16381,List2B,black,woman,,TRUE,2,,,,,
null,CORRECT,,html-keyboard-response,330,1801409,0.0-18.0-5.0-0.0,16381,List2B,black,woman,,,,null,,,,
1828,"<img src=""portrait/WM2.jpg""style=""width:400px;height:400px;""></img>",7,html-button-response,331,1803240,0.0-18.0-7.0,16381,List2B,black,woman,,TRUE,7,,,,,
null,CORRECT,,html-keyboard-response,332,1804742,0.0-18.0-8.0-0.0,16381,List2B,black,woman,,,,null,,,,
2394,"<img src=""portrait/WW1.jpg""style=""width:400px;height:400px;""></img>",1,html-button-response,333,1807139,0.0-18.0-10.0,16381,List2B,black,woman,,TRUE,1,,,,,
null,CORRECT,,html-keyboard-response,334,1808642,0.0-18.0-11.0-0.0,16381,List2B,black,woman,,,,null,,,,
1822,"<img src=""portrait/BM2.jpg""style=""width:400px;height:400px;""></img>",5,html-button-response,335,1810468,0.0-18.0-13.0,16381,List2B,black,woman,,TRUE,5,,,,,
null,CORRECT,,html-keyboard-response,336,1811972,0.0-18.0-14.0-0.0,16381,List2B,black,woman,,,,null,,,,
1516,"<img src=""portrait/WM1.jpg""style=""width:400px;height:400px;""></img>",6,html-button-response,337,1813491,0.0-18.0-16.0,16381,List2B,black,woman,,TRUE,6,,,,,
null,CORRECT,,html-keyboard-response,338,1814994,0.0-18.0-17.0-0.0,16381,List2B,black,woman,,,,null,,,,
2424,"<img src=""portrait/BW1.jpg""style=""width:400px;height:400px;""></img>",0,html-button-response,339,1817421,0.0-18.0-19.0,16381,List2B,black,woman,,TRUE,0,,,,,
null,CORRECT,,html-keyboard-response,340,1818926,0.0-18.0-20.0-0.0,16381,List2B,black,woman,,,,null,,,,
1973,"<img src=""portrait/WW2.jpg""style=""width:400px;height:400px;""></img>",3,html-button-response,341,1820902,0.0-18.0-22.0,16381,List2B,black,woman,,TRUE,3,,,,,
null,CORRECT,,html-keyboard-response,342,1822405,0.0-18.0-23.0-0.0,16381,List2B,black,woman,,,,null,,,,
1760,<p>You got 8 out of 8 right first time. Press Continue.</p>,0,html-button-response,343,1824167,0.0-18.0-25.0,16381,List2B,black,woman,,,,,,,,
null,"<div style=""font-size:60px;"">+</div>",,html-keyboard-response,344,1825672,0.0-19.0-0.0,16381,List2B,black,woman,,,,null,,,,
null,"<img src=""stim_listB/marry2.gif""</stim_listB>",,html-keyboard-response,345,1827676,0.0-19.0-1.0,16381,List2B,black,woman,,,,null,,,,
null,are marrying each other,,html-keyboard-response,346,1829679,0.0-19.0-2.0,16381,List2B,black,woman,,,,null,,,,
12475,,,survey-text,347,1842156,0.0-19.0-3.0,16381,List2B,black,woman,,,,,"{""Q0"":""luke and jane are marrying each other""}","<img src=""stim_listB/marry2.gif""</stim_listB>",are marrying each other,
null,"<div style=""font-size:60px;"">+</div>",,html-keyboard-response,348,1842659,0.0-19.0-0.1,16381,List2B,black,woman,,,,null,,,,
null,"<img src=""stim_listB/shout6.gif""</stim_listB>",,html-keyboard-response,349,1844662,0.0-19.0-1.1,16381,List2B,black,woman,,,,null,,,,
null,are shouting at each other,,html-keyboard-response,350,1846664,0.0-19.0-2.1,16381,List2B,black,woman,,,,null,,,,
17714,,,survey-text,351,1864380,0.0-19.0-3.1,16381,List2B,black,woman,,,,,"{""Q0"":""mike and dave are shouting at each other""}","<img src=""stim_listB/shout6.gif""</stim_listB>",are shouting at each other,
null,"<div style=""font-size:60px;"">+</div>",,html-keyboard-response,352,1864881,0.0-19.0-0.2,16381,List2B,black,woman,,,,null,,,,
null,"<img src=""stim_listB/hug5.gif""</stim_listB>",,html-keyboard-response,353,1866885,0.0-19.0-1.2,16381,List2B,black,woman,,,,null,,,,
null,is hugging,,html-keyboard-response,354,1868888,0.0-19.0-2.2,16381,List2B,black,woman,,,,null,,,,
8838,,,survey-text,355,1877728,0.0-19.0-3.2,16381,List2B,black,woman,,,,,"{""Q0"":""luke is hugging fred""}","<img src=""stim_listB/hug5.gif""</stim_listB>",is hugging,
null,"<div style=""font-size:60px;"">+</div>",,html-keyboard-response,356,1878231,0.0-19.0-0.3,16381,List2B,black,woman,,,,null,,,,
null,"<img src=""stim_listB/meet7.gif""</stim_listB>",,html-keyboard-response,357,1880235,0.0-19.0-1.3,16381,List2B,black,woman,,,,null,,,,
null,is meeting,,html-keyboard-response,358,1882238,0.0-19.0-2.3,16381,List2B,black,woman,,,,null,,,,
7559,,,survey-text,359,1889799,0.0-19.0-3.3,16381,List2B,black,woman,,,,,"{""Q0"":""kate is meeting jane""}","<img src=""stim_listB/meet7.gif""</stim_listB>",is meeting,
null,"<div style=""font-size:60px;"">+</div>",,html-keyboard-response,360,1890301,0.0-19.0-0.4,16381,List2B,black,woman,,,,null,,,,
null,"<img src=""stim_listB/argue5.gif""</stim_listB>",,html-keyboard-response,361,1892303,0.0-19.0-1.4,16381,List2B,black,woman,,,,null,,,,
null,is arguing with,,html-keyboard-response,362,1894306,0.0-19.0-2.4,16381,List2B,black,woman,,,,null,,,,
9155,,,survey-text,363,1903463,0.0-19.0-3.4,16381,List2B,black,woman,,,,,"{""Q0"":""fred is arguing with dave""}","<img src=""stim_listB/argue5.gif""</stim_listB>",is arguing with,
null,"<div style=""font-size:60px;"">+</div>",,html-keyboard-response,364,1903964,0.0-19.0-0.5,16381,List2B,black,woman,,,,null,,,,
null,"<img src=""stim_listB/hug6.gif""</stim_listB>",,html-keyboard-response,365,1905969,0.0-19.0-1.5,16381,List2B,black,woman,,,,null,,,,
null,are hugging each other,,html-keyboard-response,366,1907972,0.0-19.0-2.5,16381,List2B,black,woman,,,,null,,,,
11443,,,survey-text,367,1919416,0.0-19.0-3.5,16381,List2B,black,woman,,,,,"{""Q0"":""mike and dave are hugging each other""}","<img src=""stim_listB/hug6.gif""</stim_listB>",are hugging each other,
null,"<div style=""font-size:60px;"">+</div>",,html-keyboard-response,368,1919917,0.0-19.0-0.6,16381,List2B,black,woman,,,,null,,,,
null,"<img src=""stim_listB/shout4.gif""</stim_listB>",,html-keyboard-response,369,1921920,0.0-19.0-1.6,16381,List2B,black,woman,,,,null,,,,
null,are shouting at each other,,html-keyboard-response,370,1923922,0.0-19.0-2.6,16381,List2B,black,woman,,,,null,,,,
15692,,,survey-text,371,1939616,0.0-19.0-3.6,16381,List2B,black,woman,,,,,"{""Q0"":""mike and kate are shouting at each other""}","<img src=""stim_listB/shout4.gif""</stim_listB>",are shouting at each other,
null,"<div style=""font-size:60px;"">+</div>",,html-keyboard-response,372,1940119,0.0-19.0-0.7,16381,List2B,black,woman,,,,null,,,,
null,"<img src=""stim_listB/fight4.gif""</stim_listB>",,html-keyboard-response,373,1942123,0.0-19.0-1.7,16381,List2B,black,woman,,,,null,,,,
null,are fighting each other,,html-keyboard-response,374,1944124,0.0-19.0-2.7,16381,List2B,black,woman,,,,null,,,,
14386,,,survey-text,375,1958511,0.0-19.0-3.7,16381,List2B,black,woman,,,,,"{""Q0"":""fred and beth are fighting each other""}","<img src=""stim_listB/fight4.gif""</stim_listB>",are fighting each other,
null,"<div style=""font-size:60px;"">+</div>",,html-keyboard-response,376,1959013,0.0-19.0-0.8,16381,List2B,black,woman,,,,null,,,,
null,"<img src=""stim_listB/fight1.gif""</stim_listB>",,html-keyboard-response,377,1961015,0.0-19.0-1.8,16381,List2B,black,woman,,,,null,,,,
null,is fighting,,html-keyboard-response,378,1963018,0.0-19.0-2.8,16381,List2B,black,woman,,,,null,,,,
10963,,,survey-text,379,1973982,0.0-19.0-3.8,16381,List2B,black,woman,,,,,"{""Q0"":""dave is fighting jane""}","<img src=""stim_listB/fight1.gif""</stim_listB>",is fighting,
null,"<div style=""font-size:60px;"">+</div>",,html-keyboard-response,380,1974485,0.0-19.0-0.9,16381,List2B,black,woman,,,,null,,,,
null,"<img src=""stim_listB/dance1.gif""</stim_listB>",,html-keyboard-response,381,1976486,0.0-19.0-1.9,16381,List2B,black,woman,,,,null,,,,
null,is dancing with,,html-keyboard-response,382,1978489,0.0-19.0-2.9,16381,List2B,black,woman,,,,null,,,,
8786,,,survey-text,383,1987282,0.0-19.0-3.9,16381,List2B,black,woman,,,,,"{""Q0"":""luke is dancing with jane""}","<img src=""stim_listB/dance1.gif""</stim_listB>",is dancing with,
null,"<div style=""font-size:60px;"">+</div>",,html-keyboard-response,384,1987783,0.0-19.0-0.10,16381,List2B,black,woman,,,,null,,,,
null,"<img src=""stim_listB/dance6.gif""</stim_listB>",,html-keyboard-response,385,1989788,0.0-19.0-1.10,16381,List2B,black,woman,,,,null,,,,
null,are dancing with each other,,html-keyboard-response,386,1991790,0.0-19.0-2.10,16381,List2B,black,woman,,,,null,,,,
14479,,,survey-text,387,2006271,0.0-19.0-3.10,16381,List2B,black,woman,,,,,"{""Q0"":""fred and dave are dancing with each other""}","<img src=""stim_listB/dance6.gif""</stim_listB>",are dancing with each other,
null,"<div style=""font-size:60px;"">+</div>",,html-keyboard-response,388,2006772,0.0-19.0-0.11,16381,List2B,black,woman,,,,null,,,,
null,"<img src=""stim_listB/meet5.gif""</stim_listB>",,html-keyboard-response,389,2008778,0.0-19.0-1.11,16381,List2B,black,woman,,,,null,,,,
null,is meeting,,html-keyboard-response,390,2010780,0.0-19.0-2.11,16381,List2B,black,woman,,,,null,,,,
7014,,,survey-text,391,2017795,0.0-19.0-3.11,16381,List2B,black,woman,,,,,"{""Q0"":""mike is meeting dave""}","<img src=""stim_listB/meet5.gif""</stim_listB>",is meeting,
null,"<div style=""font-size:60px;"">+</div>",,html-keyboard-response,392,2018298,0.0-19.0-0.12,16381,List2B,black,woman,,,,null,,,,
null,"<img src=""stim_listB/dance3.gif""</stim_listB>",,html-keyboard-response,393,2020301,0.0-19.0-1.12,16381,List2B,black,woman,,,,null,,,,
null,is dancing with,,html-keyboard-response,394,2022303,0.0-19.0-2.12,16381,List2B,black,woman,,,,null,,,,
10432,,,survey-text,395,2032736,0.0-19.0-3.12,16381,List2B,black,woman,,,,,"{""Q0"":""kate is dancing with fred""}","<img src=""stim_listB/dance3.gif""</stim_listB>",is dancing with,
null,"<div style=""font-size:60px;"">+</div>",,html-keyboard-response,396,2033239,0.0-19.0-0.13,16381,List2B,black,woman,,,,null,,,,
null,"<img src=""stim_listB/kiss1.gif""</stim_listB>",,html-keyboard-response,397,2035244,0.0-19.0-1.13,16381,List2B,black,woman,,,,null,,,,
null,is kissing,,html-keyboard-response,398,2037248,0.0-19.0-2.13,16381,List2B,black,woman,,,,null,,,,
8298,,,survey-text,399,2045547,0.0-19.0-3.13,16381,List2B,black,woman,,,,,"{""Q0"":""luke is kissing ruth""}","<img src=""stim_listB/kiss1.gif""</stim_listB>",is kissing,
null,"<div style=""font-size:60px;"">+</div>",,html-keyboard-response,400,2046049,0.0-19.0-0.14,16381,List2B,black,woman,,,,null,,,,
null,"<img src=""stim_listB/talk2.gif""</stim_listB>",,html-keyboard-response,401,2048053,0.0-19.0-1.14,16381,List2B,black,woman,,,,null,,,,
null,are talking to each other,,html-keyboard-response,402,2050055,0.0-19.0-2.14,16381,List2B,black,woman,,,,null,,,,
13314,,,survey-text,403,2063371,0.0-19.0-3.14,16381,List2B,black,woman,,,,,"{""Q0"":""dave and ruth are talking to each other""}","<img src=""stim_listB/talk2.gif""</stim_listB>",are talking to each other,
null,"<div style=""font-size:60px;"">+</div>",,html-keyboard-response,404,2063874,0.0-19.0-0.15,16381,List2B,black,woman,,,,null,,,,
null,"<img src=""stim_listB/talk8.gif""</stim_listB>",,html-keyboard-response,405,2065877,0.0-19.0-1.15,16381,List2B,black,woman,,,,null,,,,
null,are talking to each other,,html-keyboard-response,406,2067878,0.0-19.0-2.15,16381,List2B,black,woman,,,,null,,,,
13249,,,survey-text,407,2081129,0.0-19.0-3.15,16381,List2B,black,woman,,,,,"{""Q0"":""jane and beth are talking to each other""}","<img src=""stim_listB/talk8.gif""</stim_listB>",are talking to each other,
null,"<div style=""font-size:60px;"">+</div>",,html-keyboard-response,408,2081631,0.0-19.0-0.16,16381,List2B,black,woman,,,,null,,,,
null,"<img src=""stim_listB/meet3.gif""</stim_listB>",,html-keyboard-response,409,2083634,0.0-19.0-1.16,16381,List2B,black,woman,,,,null,,,,
null,is meeting,,html-keyboard-response,410,2085636,0.0-19.0-2.16,16381,List2B,black,woman,,,,null,,,,
7641,,,survey-text,411,2093280,0.0-19.0-3.16,16381,List2B,black,woman,,,,,"{""Q0"":""kate is meeting mike""}","<img src=""stim_listB/meet3.gif""</stim_listB>",is meeting,
null,"<div style=""font-size:60px;"">+</div>",,html-keyboard-response,412,2093782,0.0-19.0-0.17,16381,List2B,black,woman,,,,null,,,,
null,"<img src=""stim_listB/meet1.gif""</stim_listB>",,html-keyboard-response,413,2095787,0.0-19.0-1.17,16381,List2B,black,woman,,,,null,,,,
null,is meeting,,html-keyboard-response,414,2097788,0.0-19.0-2.17,16381,List2B,black,woman,,,,null,,,,
7551,,,survey-text,415,2105341,0.0-19.0-3.17,16381,List2B,black,woman,,,,,"{""Q0"":""dave is meeting jane""}","<img src=""stim_listB/meet1.gif""</stim_listB>",is meeting,
null,"<div style=""font-size:60px;"">+</div>",,html-keyboard-response,416,2105843,0.0-19.0-0.18,16381,List2B,black,woman,,,,null,,,,
null,"<img src=""stim_listB/shout7.gif""</stim_listB>",,html-keyboard-response,417,2107846,0.0-19.0-1.18,16381,List2B,black,woman,,,,null,,,,
null,is shouting at,,html-keyboard-response,418,2109847,0.0-19.0-2.18,16381,List2B,black,woman,,,,null,,,,
10621,,,survey-text,419,2120471,0.0-19.0-3.18,16381,List2B,black,woman,,,,,"{""Q0"":""ruth is shouting at beth""}","<img src=""stim_listB/shout7.gif""</stim_listB>",is shouting at,
null,"<div style=""font-size:60px;"">+</div>",,html-keyboard-response,420,2120972,0.0-19.0-0.19,16381,List2B,black,woman,,,,null,,,,
null,"<img src=""stim_listB/fight7.gif""</stim_listB>",,html-keyboard-response,421,2122977,0.0-19.0-1.19,16381,List2B,black,woman,,,,null,,,,
null,is fighting,,html-keyboard-response,422,2124979,0.0-19.0-2.19,16381,List2B,black,woman,,,,null,,,,
18227,,,survey-text,423,2143208,0.0-19.0-3.19,16381,List2B,black,woman,,,,,"{""Q0"":""is fighting (NO PIC)""}","<img src=""stim_listB/fight7.gif""</stim_listB>",is fighting,
2972,<p>Thank you for completing that task.</p><p>The final part of this session is a short questionnaire.</p><p>Press Continue.</p>,0,html-button-response,424,2146181,0.0-20.0,16381,List2B,black,woman,,,,,,,,
34379,,,survey-text,425,2181564,0.0-21.0,16381,List2B,black,woman,,,,,"{""Q0"":""49"",""Q1"":""english"",""Q2"":""english"",""Q3"":""usa"",""Q4"":""black"",""Q5"":""female""}",,,demographics
71199,,,survey-likert,426,2252771,0.0-22.0,16381,List2B,black,woman,,,,,"{""Q0"":5,""Q1"":5,""Q2"":5,""Q3"":4,""Q4"":5,""Q5"":2,""Q6"":3,""Q7"":4,""Q8"":4,""Q9"":4,""Q10"":3,""Q11"":2,""Q12"":4,""Q13"":3}",,,likert_race
72118,,,survey-likert,427,2324895,0.0-23.0,16381,List2B,black,woman,,,,,"{""Q0"":4,""Q1"":5,""Q2"":4,""Q3"":2,""Q4"":6,""Q5"":3,""Q6"":4,""Q7"":3,""Q8"":4,""Q9"":2,""Q10"":3,""Q11"":2,""Q12"":4,""Q13"":3}",,,likert_gender
13671,,,survey-text,428,2338569,0.0-24.0,16381,List2B,black,woman,,,,,"{""Q0"":""ccc""}",,,worker_id
23937,,,external-html,429,2362878,0.0-25.0,16381,List2B,black,woman,debrief.html,,,,,,,
