rt,stimulus,button_pressed,trial_type,trial_index,time_elapsed,internal_node_id,subject,list,ppt_race,ppt_gender,url,first_guess,correct,key_press,responses,image_type,phrase_type,test_part
4604,Welcome to the experiment. Press Continue to begin.,0,html-button-response,0,4692,0.0-0.0,17268,List1B,black,man,,,,,,,,
8251,,,external-html,1,14204,0.0-1.0,17268,List1B,black,man,consent.html,,,,,,,
77369,"<p>On the next page, you will see portraits of 8 people and their names.</p><p>Your first task is to take a few minutes to memorise the names of these people.</p><p>You will have to recall their names during the rest of the experiment, so it is</p><p>essential that you try to memorise these people and their names as best as you can.</p><br><p><strong>You will then be tested on your memory of these names and portraits.</strong></p><br><p>The experiment will start after you have completed this memory test.</p><br><p>Ready?</p>",0,html-button-response,2,91577,0.0-2.0,17268,List1B,black,man,,,,,,,,
16753,"<img src='img/portrait_matrix_list1.JPG' style='width:900px;height:500px;''></img><p>If you have memorised all the portraits and names and are ready to start, press Continue.</p><p><strong>Please note: Your memory of these faces will be tested 4 times during this experiment.</strong></p>",0,html-button-response,3,109337,0.0-3.0-0.0,17268,List1B,black,man,,,,,,,,
5901,"<img src=""portrait/BM2.jpg""style=""width:400px;height:400px;""></img>",5,html-button-response,4,116245,0.0-3.0-1.0,17268,List1B,black,man,,TRUE,5,,,,,
null,CORRECT,,html-keyboard-response,5,117754,0.0-3.0-2.0-0.0,17268,List1B,black,man,,,,null,,,,
5040,"<img src=""portrait/WW1.jpg""style=""width:400px;height:400px;""></img>",1,html-button-response,6,122797,0.0-3.0-4.0,17268,List1B,black,man,,TRUE,1,,,,,
null,CORRECT,,html-keyboard-response,7,124301,0.0-3.0-5.0-0.0,17268,List1B,black,man,,,,null,,,,
3886,"<img src=""portrait/BW2.jpg""style=""width:400px;height:400px;""></img>",2,html-button-response,8,128191,0.0-3.0-7.0,17268,List1B,black,man,,TRUE,2,,,,,
null,CORRECT,,html-keyboard-response,9,129695,0.0-3.0-8.0-0.0,17268,List1B,black,man,,,,null,,,,
6612,"<img src=""portrait/BW1.jpg""style=""width:400px;height:400px;""></img>",0,html-button-response,10,136310,0.0-3.0-10.0,17268,List1B,black,man,,TRUE,0,,,,,
null,CORRECT,,html-keyboard-response,11,137813,0.0-3.0-11.0-0.0,17268,List1B,black,man,,,,null,,,,
5553,"<img src=""portrait/BM1.jpg""style=""width:400px;height:400px;""></img>",4,html-button-response,12,143368,0.0-3.0-13.0,17268,List1B,black,man,,TRUE,4,,,,,
null,CORRECT,,html-keyboard-response,13,144873,0.0-3.0-14.0-0.0,17268,List1B,black,man,,,,null,,,,
4268,"<img src=""portrait/WM2.jpg""style=""width:400px;height:400px;""></img>",7,html-button-response,14,149144,0.0-3.0-16.0,17268,List1B,black,man,,TRUE,7,,,,,
null,CORRECT,,html-keyboard-response,15,150648,0.0-3.0-17.0-0.0,17268,List1B,black,man,,,,null,,,,
5125,"<img src=""portrait/WM1.jpg""style=""width:400px;height:400px;""></img>",6,html-button-response,16,155776,0.0-3.0-19.0,17268,List1B,black,man,,TRUE,6,,,,,
null,CORRECT,,html-keyboard-response,17,157282,0.0-3.0-20.0-0.0,17268,List1B,black,man,,,,null,,,,
3324,"<img src=""portrait/WW2.jpg""style=""width:400px;height:400px;""></img>",3,html-button-response,18,160610,0.0-3.0-22.0,17268,List1B,black,man,,TRUE,3,,,,,
null,CORRECT,,html-keyboard-response,19,162115,0.0-3.0-23.0-0.0,17268,List1B,black,man,,,,null,,,,
1763,<p>You got 8 out of 8 right first time. Press Continue.</p>,0,html-button-response,20,163881,0.0-3.0-25.0,17268,List1B,black,man,,,,,,,,
26579,"<p>In this experiment, you will view photographs of the people from the memory game interacting.</p><p>By using the <strong>exact</strong> phrase given <i>after</i> the photograph appears and recalling the correct names of the people in the photographs, form a sentence describing the interaction. You do not need to capitalise names.</p><p>Type your answer in the space provided. Please complete every sentence before moving onto the next trial.</p><p>You will only have a few seconds to memorise each given photograph and phrase before you can respond, so try your best to focus.</p><p>An example is given below. Press 'Continue' when you are ready.</p><img src='img/speaking_example_v2.jpg' style='width:800px;height:460px;''></img>",0,html-button-response,21,191468,0.0-4.0,17268,List1B,black,man,,,,,,,,
1704,"<p>Before the experiment starts, you will watch two example trials. Press 'Continue'.</p>",0,html-button-response,22,194174,0.0-5.0,17268,List1B,black,man,,,,,,,,
null,<img src='img/speaking_WW.gif'></img>,,html-keyboard-response,23,197181,0.0-6.0,17268,List1B,black,man,,,,null,,,,
null,<p>is speaking to</p>,,html-keyboard-response,24,199185,0.0-7.0,17268,List1B,black,man,,,,null,,,,
9373,<p><b>Answer:</b> kate is speaking to beth</p>,0,html-button-response,25,208561,0.0-8.0,17268,List1B,black,man,,,,,,,,
null,<img src='img/pointing_BM.gif'></img>,,html-keyboard-response,26,211566,0.0-9.0,17268,List1B,black,man,,,,null,,,,
null,<p>are pointing at each other</p>,,html-keyboard-response,27,213567,0.0-10.0,17268,List1B,black,man,,,,null,,,,
2848,<p><b>Answer:</b> luke and dave are pointing at each other</p>,0,html-button-response,28,216417,0.0-11.0,17268,List1B,black,man,,,,,,,,
9786,"<p>Ready to start the experiment?</p><br><p><strong>Remember to describe the picture using a full sentence,</strong></p><p><strong>that combines the names of the people with the given phrase.</strong></p><p><strong>If you do not do this correctly you will not be paid.</strong></p><p><strong> You do not need to capitalise names or use punctuation.</strong></p><br><p>Press 'Continue' to begin.</p>",0,html-button-response,29,227207,0.0-12.0,17268,List1B,black,man,,,,,,,,
null,"<div style=""font-size:60px;"">+</div>",,html-keyboard-response,30,228710,0.0-13.0-0.0,17268,List1B,black,man,,,,null,,,,
null,"<img src=""stim_listB/dance8.gif""</stim_listB>",,html-keyboard-response,31,230715,0.0-13.0-1.0,17268,List1B,black,man,,,,null,,,,
null,are dancing with each other,,html-keyboard-response,32,232718,0.0-13.0-2.0,17268,List1B,black,man,,,,null,,,,
17573,,,survey-text,33,250294,0.0-13.0-3.0,17268,List1B,black,man,,,,,"{""Q0"":""Ruth and Jane are dancing with each other.""}","<img src=""stim_listB/dance8.gif""</stim_listB>",are dancing with each other,
null,"<div style=""font-size:60px;"">+</div>",,html-keyboard-response,34,250800,0.0-13.0-0.1,17268,List1B,black,man,,,,null,,,,
null,"<img src=""stim_listB/shout7.gif""</stim_listB>",,html-keyboard-response,35,252803,0.0-13.0-1.1,17268,List1B,black,man,,,,null,,,,
null,is shouting at,,html-keyboard-response,36,254806,0.0-13.0-2.1,17268,List1B,black,man,,,,null,,,,
13641,,,survey-text,37,268449,0.0-13.0-3.1,17268,List1B,black,man,,,,,"{""Q0"":""Ruth is shouting at Beth""}","<img src=""stim_listB/shout7.gif""</stim_listB>",is shouting at,
null,"<div style=""font-size:60px;"">+</div>",,html-keyboard-response,38,268956,0.0-13.0-0.2,17268,List1B,black,man,,,,null,,,,
null,"<img src=""stim_listB/hug3.gif""</stim_listB>",,html-keyboard-response,39,270959,0.0-13.0-1.2,17268,List1B,black,man,,,,null,,,,
null,is hugging,,html-keyboard-response,40,272962,0.0-13.0-2.2,17268,List1B,black,man,,,,null,,,,
18720,,,survey-text,41,291684,0.0-13.0-3.2,17268,List1B,black,man,,,,,"{""Q0"":""Luke is hugging Ruth.""}","<img src=""stim_listB/hug3.gif""</stim_listB>",is hugging,
null,"<div style=""font-size:60px;"">+</div>",,html-keyboard-response,42,292187,0.0-13.0-0.3,17268,List1B,black,man,,,,null,,,,
null,"<img src=""stim_listB/kiss2.gif""</stim_listB>",,html-keyboard-response,43,294192,0.0-13.0-1.3,17268,List1B,black,man,,,,null,,,,
null,are kissing each other,,html-keyboard-response,44,296196,0.0-13.0-2.3,17268,List1B,black,man,,,,null,,,,
12369,,,survey-text,45,308567,0.0-13.0-3.3,17268,List1B,black,man,,,,,"{""Q0"":""Mike is kissing Kate.""}","<img src=""stim_listB/kiss2.gif""</stim_listB>",are kissing each other,
null,"<div style=""font-size:60px;"">+</div>",,html-keyboard-response,46,309071,0.0-13.0-0.4,17268,List1B,black,man,,,,null,,,,
null,"<img src=""stim_listB/marry1.gif""</stim_listB>",,html-keyboard-response,47,311074,0.0-13.0-1.4,17268,List1B,black,man,,,,null,,,,
null,is marrying,,html-keyboard-response,48,313076,0.0-13.0-2.4,17268,List1B,black,man,,,,null,,,,
17031,,,survey-text,49,330110,0.0-13.0-3.4,17268,List1B,black,man,,,,,"{""Q0"":""Mike is marrying Beth.""}","<img src=""stim_listB/marry1.gif""</stim_listB>",is marrying,
null,"<div style=""font-size:60px;"">+</div>",,html-keyboard-response,50,330613,0.0-13.0-0.5,17268,List1B,black,man,,,,null,,,,
null,"<img src=""stim_listB/shout4.gif""</stim_listB>",,html-keyboard-response,51,332616,0.0-13.0-1.5,17268,List1B,black,man,,,,null,,,,
null,are shouting at each other,,html-keyboard-response,52,334619,0.0-13.0-2.5,17268,List1B,black,man,,,,null,,,,
14063,,,survey-text,53,348684,0.0-13.0-3.5,17268,List1B,black,man,,,,,"{""Q0"":""Dave and Jane are shouting at each other.""}","<img src=""stim_listB/shout4.gif""</stim_listB>",are shouting at each other,
null,"<div style=""font-size:60px;"">+</div>",,html-keyboard-response,54,349189,0.0-13.0-0.6,17268,List1B,black,man,,,,null,,,,
null,"<img src=""stim_listB/meet7.gif""</stim_listB>",,html-keyboard-response,55,351192,0.0-13.0-1.6,17268,List1B,black,man,,,,null,,,,
null,is meeting,,html-keyboard-response,56,353195,0.0-13.0-2.6,17268,List1B,black,man,,,,null,,,,
9169,,,survey-text,57,362366,0.0-13.0-3.6,17268,List1B,black,man,,,,,"{""Q0"":""Jane is meeting Kate.""}","<img src=""stim_listB/meet7.gif""</stim_listB>",is meeting,
null,"<div style=""font-size:60px;"">+</div>",,html-keyboard-response,58,362868,0.0-13.0-0.7,17268,List1B,black,man,,,,null,,,,
null,"<img src=""stim_listB/dance4.gif""</stim_listB>",,html-keyboard-response,59,364873,0.0-13.0-1.7,17268,List1B,black,man,,,,null,,,,
null,are dancing with each other,,html-keyboard-response,60,366876,0.0-13.0-2.7,17268,List1B,black,man,,,,null,,,,
15232,,,survey-text,61,382110,0.0-13.0-3.7,17268,List1B,black,man,,,,,"{""Q0"":""Dave and Ruth are dancing with each other.""}","<img src=""stim_listB/dance4.gif""</stim_listB>",are dancing with each other,
null,"<div style=""font-size:60px;"">+</div>",,html-keyboard-response,62,382615,0.0-13.0-0.8,17268,List1B,black,man,,,,null,,,,
null,"<img src=""stim_listB/touch5.gif""</stim_listB>",,html-keyboard-response,63,384621,0.0-13.0-1.8,17268,List1B,black,man,,,,null,,,,
null,is touching,,html-keyboard-response,64,386624,0.0-13.0-2.8,17268,List1B,black,man,,,,null,,,,
14385,,,survey-text,65,401011,0.0-13.0-3.8,17268,List1B,black,man,,,,,"{""Q0"":""Dave is touching Mike.""}","<img src=""stim_listB/touch5.gif""</stim_listB>",is touching,
null,"<div style=""font-size:60px;"">+</div>",,html-keyboard-response,66,401525,0.0-13.0-0.9,17268,List1B,black,man,,,,null,,,,
null,"<img src=""stim_listB/dance7.gif""</stim_listB>",,html-keyboard-response,67,403529,0.0-13.0-1.9,17268,List1B,black,man,,,,null,,,,
null,is dancing with,,html-keyboard-response,68,405532,0.0-13.0-2.9,17268,List1B,black,man,,,,null,,,,
12455,,,survey-text,69,417989,0.0-13.0-3.9,17268,List1B,black,man,,,,,"{""Q0"":""Jane is dancing with Beth. ""}","<img src=""stim_listB/dance7.gif""</stim_listB>",is dancing with,
null,"<div style=""font-size:60px;"">+</div>",,html-keyboard-response,70,418493,0.0-13.0-0.10,17268,List1B,black,man,,,,null,,,,
null,"<img src=""stim_listB/fight4.gif""</stim_listB>",,html-keyboard-response,71,420497,0.0-13.0-1.10,17268,List1B,black,man,,,,null,,,,
null,are fighting each other,,html-keyboard-response,72,422499,0.0-13.0-2.10,17268,List1B,black,man,,,,null,,,,
14885,,,survey-text,73,437386,0.0-13.0-3.10,17268,List1B,black,man,,,,,"{""Q0"":""Luke and Ruth are fighting each other.""}","<img src=""stim_listB/fight4.gif""</stim_listB>",are fighting each other,
null,"<div style=""font-size:60px;"">+</div>",,html-keyboard-response,74,437888,0.0-13.0-0.11,17268,List1B,black,man,,,,null,,,,
null,"<img src=""stim_listB/meet3.gif""</stim_listB>",,html-keyboard-response,75,439893,0.0-13.0-1.11,17268,List1B,black,man,,,,null,,,,
null,is meeting,,html-keyboard-response,76,441895,0.0-13.0-2.11,17268,List1B,black,man,,,,null,,,,
7641,,,survey-text,77,449538,0.0-13.0-3.11,17268,List1B,black,man,,,,,"{""Q0"":""Dave is meeting Jane.""}","<img src=""stim_listB/meet3.gif""</stim_listB>",is meeting,
null,"<div style=""font-size:60px;"">+</div>",,html-keyboard-response,78,450042,0.0-13.0-0.12,17268,List1B,black,man,,,,null,,,,
null,"<img src=""stim_listB/fight6.gif""</stim_listB>",,html-keyboard-response,79,452045,0.0-13.0-1.12,17268,List1B,black,man,,,,null,,,,
null,are fighting each other,,html-keyboard-response,80,454049,0.0-13.0-2.12,17268,List1B,black,man,,,,null,,,,
22085,,,survey-text,81,476136,0.0-13.0-3.12,17268,List1B,black,man,,,,,"{""Q0"":""Luke and Fred are fighting each other.""}","<img src=""stim_listB/fight6.gif""</stim_listB>",are fighting each other,
null,"<div style=""font-size:60px;"">+</div>",,html-keyboard-response,82,476639,0.0-13.0-0.13,17268,List1B,black,man,,,,null,,,,
null,"<img src=""stim_listB/talk3.gif""</stim_listB>",,html-keyboard-response,83,478644,0.0-13.0-1.13,17268,List1B,black,man,,,,null,,,,
null,is talking to,,html-keyboard-response,84,480647,0.0-13.0-2.13,17268,List1B,black,man,,,,null,,,,
8623,,,survey-text,85,489273,0.0-13.0-3.13,17268,List1B,black,man,,,,,"{""Q0"":""Luke is talking to Jane.""}","<img src=""stim_listB/talk3.gif""</stim_listB>",is talking to,
null,"<div style=""font-size:60px;"">+</div>",,html-keyboard-response,86,489777,0.0-13.0-0.14,17268,List1B,black,man,,,,null,,,,
null,"<img src=""stim_listB/argue1.gif""</stim_listB>",,html-keyboard-response,87,491781,0.0-13.0-1.14,17268,List1B,black,man,,,,null,,,,
null,is arguing with,,html-keyboard-response,88,493783,0.0-13.0-2.14,17268,List1B,black,man,,,,null,,,,
13431,,,survey-text,89,507216,0.0-13.0-3.14,17268,List1B,black,man,,,,,"{""Q0"":""Luke is arguing with Beth.""}","<img src=""stim_listB/argue1.gif""</stim_listB>",is arguing with,
null,"<div style=""font-size:60px;"">+</div>",,html-keyboard-response,90,507720,0.0-13.0-0.15,17268,List1B,black,man,,,,null,,,,
null,"<img src=""stim_listB/shout2.gif""</stim_listB>",,html-keyboard-response,91,509723,0.0-13.0-1.15,17268,List1B,black,man,,,,null,,,,
null,are shouting at each other,,html-keyboard-response,92,511725,0.0-13.0-2.15,17268,List1B,black,man,,,,null,,,,
12006,,,survey-text,93,523734,0.0-13.0-3.15,17268,List1B,black,man,,,,,"{""Q0"":""Mike and Kate are shouting at each other.""}","<img src=""stim_listB/shout2.gif""</stim_listB>",are shouting at each other,
null,"<div style=""font-size:60px;"">+</div>",,html-keyboard-response,94,524236,0.0-13.0-0.16,17268,List1B,black,man,,,,null,,,,
null,"<img src=""stim_listB/marry8.gif""</stim_listB>",,html-keyboard-response,95,526238,0.0-13.0-1.16,17268,List1B,black,man,,,,null,,,,
null,are marrying each other,,html-keyboard-response,96,528241,0.0-13.0-2.16,17268,List1B,black,man,,,,null,,,,
12241,,,survey-text,97,540484,0.0-13.0-3.16,17268,List1B,black,man,,,,,"{""Q0"":""Jane and Beth are marrying each other.""}","<img src=""stim_listB/marry8.gif""</stim_listB>",are marrying each other,
null,"<div style=""font-size:60px;"">+</div>",,html-keyboard-response,98,540988,0.0-13.0-0.17,17268,List1B,black,man,,,,null,,,,
null,"<img src=""stim_listB/talk8.gif""</stim_listB>",,html-keyboard-response,99,542990,0.0-13.0-1.17,17268,List1B,black,man,,,,null,,,,
null,are talking to each other,,html-keyboard-response,100,544992,0.0-13.0-2.17,17268,List1B,black,man,,,,null,,,,
13226,,,survey-text,101,558220,0.0-13.0-3.17,17268,List1B,black,man,,,,,"{""Q0"":""Ruth and Kate are talking to each other.""}","<img src=""stim_listB/talk8.gif""</stim_listB>",are talking to each other,
null,"<div style=""font-size:60px;"">+</div>",,html-keyboard-response,102,558723,0.0-13.0-0.18,17268,List1B,black,man,,,,null,,,,
null,"<img src=""stim_listB/shout3.gif""</stim_listB>",,html-keyboard-response,103,560726,0.0-13.0-1.18,17268,List1B,black,man,,,,null,,,,
null,is shouting at,,html-keyboard-response,104,562728,0.0-13.0-2.18,17268,List1B,black,man,,,,null,,,,
12920,,,survey-text,105,575650,0.0-13.0-3.18,17268,List1B,black,man,,,,,"{""Q0"":""Luke is shouting at Ruth.""}","<img src=""stim_listB/shout3.gif""</stim_listB>",is shouting at,
null,"<div style=""font-size:60px;"">+</div>",,html-keyboard-response,106,576153,0.0-13.0-0.19,17268,List1B,black,man,,,,null,,,,
null,"<img src=""stim_listB/kiss4.gif""</stim_listB>",,html-keyboard-response,107,578156,0.0-13.0-1.19,17268,List1B,black,man,,,,null,,,,
null,are kissing each other,,html-keyboard-response,108,580158,0.0-13.0-2.19,17268,List1B,black,man,,,,null,,,,
14801,,,survey-text,109,594961,0.0-13.0-3.19,17268,List1B,black,man,,,,,"{""Q0"":""Dave and Jane are kissing each other. ""}","<img src=""stim_listB/kiss4.gif""</stim_listB>",are kissing each other,
7657,"<img src='img/portrait_matrix_list1.JPG' style='width:900px;height:500px;''></img><p>If you have memorised all the portraits and names and are ready to start, press Continue.</p><p><strong>Please note: Your memory of these faces will be tested 4 times during this experiment.</strong></p>",0,html-button-response,110,602621,0.0-14.0-0.0,17268,List1B,black,man,,,,,,,,
5686,"<img src=""portrait/BW1.jpg""style=""width:400px;height:400px;""></img>",0,html-button-response,111,609313,0.0-14.0-1.0,17268,List1B,black,man,,TRUE,0,,,,,
null,CORRECT,,html-keyboard-response,112,610818,0.0-14.0-2.0-0.0,17268,List1B,black,man,,,,null,,,,
3672,"<img src=""portrait/BM2.jpg""style=""width:400px;height:400px;""></img>",5,html-button-response,113,614493,0.0-14.0-4.0,17268,List1B,black,man,,TRUE,5,,,,,
null,CORRECT,,html-keyboard-response,114,615999,0.0-14.0-5.0-0.0,17268,List1B,black,man,,,,null,,,,
3052,"<img src=""portrait/WW2.jpg""style=""width:400px;height:400px;""></img>",3,html-button-response,115,619053,0.0-14.0-7.0,17268,List1B,black,man,,TRUE,3,,,,,
null,CORRECT,,html-keyboard-response,116,620559,0.0-14.0-8.0-0.0,17268,List1B,black,man,,,,null,,,,
2905,"<img src=""portrait/BM1.jpg""style=""width:400px;height:400px;""></img>",4,html-button-response,117,623468,0.0-14.0-10.0,17268,List1B,black,man,,TRUE,4,,,,,
null,CORRECT,,html-keyboard-response,118,624973,0.0-14.0-11.0-0.0,17268,List1B,black,man,,,,null,,,,
3063,"<img src=""portrait/BW2.jpg""style=""width:400px;height:400px;""></img>",2,html-button-response,119,628038,0.0-14.0-13.0,17268,List1B,black,man,,TRUE,2,,,,,
null,CORRECT,,html-keyboard-response,120,629545,0.0-14.0-14.0-0.0,17268,List1B,black,man,,,,null,,,,
2403,"<img src=""portrait/WM2.jpg""style=""width:400px;height:400px;""></img>",7,html-button-response,121,631951,0.0-14.0-16.0,17268,List1B,black,man,,TRUE,7,,,,,
null,CORRECT,,html-keyboard-response,122,633455,0.0-14.0-17.0-0.0,17268,List1B,black,man,,,,null,,,,
3423,"<img src=""portrait/WM1.jpg""style=""width:400px;height:400px;""></img>",6,html-button-response,123,636881,0.0-14.0-19.0,17268,List1B,black,man,,TRUE,6,,,,,
null,CORRECT,,html-keyboard-response,124,638386,0.0-14.0-20.0-0.0,17268,List1B,black,man,,,,null,,,,
4385,"<img src=""portrait/WW1.jpg""style=""width:400px;height:400px;""></img>",1,html-button-response,125,642773,0.0-14.0-22.0,17268,List1B,black,man,,TRUE,1,,,,,
null,CORRECT,,html-keyboard-response,126,644279,0.0-14.0-23.0-0.0,17268,List1B,black,man,,,,null,,,,
1709,<p>You got 8 out of 8 right first time. Press Continue.</p>,0,html-button-response,127,645992,0.0-14.0-25.0,17268,List1B,black,man,,,,,,,,
null,"<div style=""font-size:60px;"">+</div>",,html-keyboard-response,128,647497,0.0-15.0-0.0,17268,List1B,black,man,,,,null,,,,
null,"<img src=""stim_listB/hug4.gif""</stim_listB>",,html-keyboard-response,129,649500,0.0-15.0-1.0,17268,List1B,black,man,,,,null,,,,
null,are hugging each other,,html-keyboard-response,130,651503,0.0-15.0-2.0,17268,List1B,black,man,,,,null,,,,
11375,,,survey-text,131,662879,0.0-15.0-3.0,17268,List1B,black,man,,,,,"{""Q0"":""Dave and Jane are hugging each other.""}","<img src=""stim_listB/hug4.gif""</stim_listB>",are hugging each other,
null,"<div style=""font-size:60px;"">+</div>",,html-keyboard-response,132,663383,0.0-15.0-0.1,17268,List1B,black,man,,,,null,,,,
null,"<img src=""stim_listB/marry4.gif""</stim_listB>",,html-keyboard-response,133,665386,0.0-15.0-1.1,17268,List1B,black,man,,,,null,,,,
null,are marrying each other,,html-keyboard-response,134,667389,0.0-15.0-2.1,17268,List1B,black,man,,,,null,,,,
15050,,,survey-text,135,682441,0.0-15.0-3.1,17268,List1B,black,man,,,,,"{""Q0"":""Luke and Jane are marrying each other.""}","<img src=""stim_listB/marry4.gif""</stim_listB>",are marrying each other,
null,"<div style=""font-size:60px;"">+</div>",,html-keyboard-response,136,682945,0.0-15.0-0.2,17268,List1B,black,man,,,,null,,,,
null,"<img src=""stim_listB/hug8.gif""</stim_listB>",,html-keyboard-response,137,684948,0.0-15.0-1.2,17268,List1B,black,man,,,,null,,,,
null,are hugging each other,,html-keyboard-response,138,686951,0.0-15.0-2.2,17268,List1B,black,man,,,,null,,,,
12099,,,survey-text,139,699053,0.0-15.0-3.2,17268,List1B,black,man,,,,,"{""Q0"":""Jane and Kate are hugging each other. ""}","<img src=""stim_listB/hug8.gif""</stim_listB>",are hugging each other,
null,"<div style=""font-size:60px;"">+</div>",,html-keyboard-response,140,699558,0.0-15.0-0.3,17268,List1B,black,man,,,,null,,,,
null,"<img src=""stim_listB/kiss6.gif""</stim_listB>",,html-keyboard-response,141,701562,0.0-15.0-1.3,17268,List1B,black,man,,,,null,,,,
null,are kissing each other,,html-keyboard-response,142,703564,0.0-15.0-2.3,17268,List1B,black,man,,,,null,,,,
10932,,,survey-text,143,714498,0.0-15.0-3.3,17268,List1B,black,man,,,,,"{""Q0"":""Dave and Mike are kissing each other.""}","<img src=""stim_listB/kiss6.gif""</stim_listB>",are kissing each other,
null,"<div style=""font-size:60px;"">+</div>",,html-keyboard-response,144,715001,0.0-15.0-0.4,17268,List1B,black,man,,,,null,,,,
null,"<img src=""stim_listB/fight5.gif""</stim_listB>",,html-keyboard-response,145,717006,0.0-15.0-1.4,17268,List1B,black,man,,,,null,,,,
null,is fighting,,html-keyboard-response,146,719008,0.0-15.0-2.4,17268,List1B,black,man,,,,null,,,,
10372,,,survey-text,147,729382,0.0-15.0-3.4,17268,List1B,black,man,,,,,"{""Q0"":""Dave is fighting Mike.""}","<img src=""stim_listB/fight5.gif""</stim_listB>",is fighting,
null,"<div style=""font-size:60px;"">+</div>",,html-keyboard-response,148,729885,0.0-15.0-0.5,17268,List1B,black,man,,,,null,,,,
null,"<img src=""stim_listB/kiss8.gif""</stim_listB>",,html-keyboard-response,149,731888,0.0-15.0-1.5,17268,List1B,black,man,,,,null,,,,
null,are kissing each other,,html-keyboard-response,150,733889,0.0-15.0-2.5,17268,List1B,black,man,,,,null,,,,
7764,,,survey-text,151,741656,0.0-15.0-3.5,17268,List1B,black,man,,,,,"{""Q0"":""Kate is kissing Jane.""}","<img src=""stim_listB/kiss8.gif""</stim_listB>",are kissing each other,
null,"<div style=""font-size:60px;"">+</div>",,html-keyboard-response,152,742158,0.0-15.0-0.6,17268,List1B,black,man,,,,null,,,,
null,"<img src=""stim_listB/shout6.gif""</stim_listB>",,html-keyboard-response,153,744161,0.0-15.0-1.6,17268,List1B,black,man,,,,null,,,,
null,are shouting at each other,,html-keyboard-response,154,746163,0.0-15.0-2.6,17268,List1B,black,man,,,,null,,,,
10963,,,survey-text,155,757128,0.0-15.0-3.6,17268,List1B,black,man,,,,,"{""Q0"":""Mike and Dave are shouting at each other.""}","<img src=""stim_listB/shout6.gif""</stim_listB>",are shouting at each other,
null,"<div style=""font-size:60px;"">+</div>",,html-keyboard-response,156,757632,0.0-15.0-0.7,17268,List1B,black,man,,,,null,,,,
null,"<img src=""stim_listB/talk7.gif""</stim_listB>",,html-keyboard-response,157,759636,0.0-15.0-1.7,17268,List1B,black,man,,,,null,,,,
null,is talking to,,html-keyboard-response,158,761638,0.0-15.0-2.7,17268,List1B,black,man,,,,null,,,,
11765,,,survey-text,159,773405,0.0-15.0-3.7,17268,List1B,black,man,,,,,"{""Q0"":""Jane is talking to Beth.""}","<img src=""stim_listB/talk7.gif""</stim_listB>",is talking to,
null,"<div style=""font-size:60px;"">+</div>",,html-keyboard-response,160,773908,0.0-15.0-0.8,17268,List1B,black,man,,,,null,,,,
null,"<img src=""stim_listB/marry3.gif""</stim_listB>",,html-keyboard-response,161,775912,0.0-15.0-1.8,17268,List1B,black,man,,,,null,,,,
null,is marrying,,html-keyboard-response,162,777914,0.0-15.0-2.8,17268,List1B,black,man,,,,null,,,,
8359,,,survey-text,163,786275,0.0-15.0-3.8,17268,List1B,black,man,,,,,"{""Q0"":""Dave is marrying Ruth.""}","<img src=""stim_listB/marry3.gif""</stim_listB>",is marrying,
null,"<div style=""font-size:60px;"">+</div>",,html-keyboard-response,164,786779,0.0-15.0-0.9,17268,List1B,black,man,,,,null,,,,
null,"<img src=""stim_listB/meet4.gif""</stim_listB>",,html-keyboard-response,165,788783,0.0-15.0-1.9,17268,List1B,black,man,,,,null,,,,
null,are meeting each other,,html-keyboard-response,166,790785,0.0-15.0-2.9,17268,List1B,black,man,,,,null,,,,
25244,,,survey-text,167,816031,0.0-15.0-3.9,17268,List1B,black,man,,,,,"{""Q0"":""Luke is meeting Ruth.""}","<img src=""stim_listB/meet4.gif""</stim_listB>",are meeting each other,
null,"<div style=""font-size:60px;"">+</div>",,html-keyboard-response,168,816533,0.0-15.0-0.10,17268,List1B,black,man,,,,null,,,,
null,"<img src=""stim_listB/argue8.gif""</stim_listB>",,html-keyboard-response,169,818540,0.0-15.0-1.10,17268,List1B,black,man,,,,null,,,,
null,are arguing with each other,,html-keyboard-response,170,820543,0.0-15.0-2.10,17268,List1B,black,man,,,,null,,,,
20704,,,survey-text,171,841249,0.0-15.0-3.10,17268,List1B,black,man,,,,,"{""Q0"":""Jane and Beth are meeting each other.""}","<img src=""stim_listB/argue8.gif""</stim_listB>",are arguing with each other,
null,"<div style=""font-size:60px;"">+</div>",,html-keyboard-response,172,841752,0.0-15.0-0.11,17268,List1B,black,man,,,,null,,,,
null,"<img src=""stim_listB/marry7.gif""</stim_listB>",,html-keyboard-response,173,843755,0.0-15.0-1.11,17268,List1B,black,man,,,,null,,,,
null,is marrying,,html-keyboard-response,174,845759,0.0-15.0-2.11,17268,List1B,black,man,,,,null,,,,
16063,,,survey-text,175,861824,0.0-15.0-3.11,17268,List1B,black,man,,,,,"{""Q0"":""Ruth is marrying Kate.""}","<img src=""stim_listB/marry7.gif""</stim_listB>",is marrying,
null,"<div style=""font-size:60px;"">+</div>",,html-keyboard-response,176,862327,0.0-15.0-0.12,17268,List1B,black,man,,,,null,,,,
null,"<img src=""stim_listB/dance3.gif""</stim_listB>",,html-keyboard-response,177,864331,0.0-15.0-1.12,17268,List1B,black,man,,,,null,,,,
null,is dancing with,,html-keyboard-response,178,866333,0.0-15.0-2.12,17268,List1B,black,man,,,,null,,,,
11394,,,survey-text,179,877729,0.0-15.0-3.12,17268,List1B,black,man,,,,,"{""Q0"":""Luke is dancing with Jane.""}","<img src=""stim_listB/dance3.gif""</stim_listB>",is dancing with,
null,"<div style=""font-size:60px;"">+</div>",,html-keyboard-response,180,878232,0.0-15.0-0.13,17268,List1B,black,man,,,,null,,,,
null,"<img src=""stim_listB/touch4.gif""</stim_listB>",,html-keyboard-response,181,880235,0.0-15.0-1.13,17268,List1B,black,man,,,,null,,,,
null,are touching each other,,html-keyboard-response,182,882238,0.0-15.0-2.13,17268,List1B,black,man,,,,null,,,,
12850,,,survey-text,183,895090,0.0-15.0-3.13,17268,List1B,black,man,,,,,"{""Q0"":""Luke and Ruth are touching each other.""}","<img src=""stim_listB/touch4.gif""</stim_listB>",are touching each other,
null,"<div style=""font-size:60px;"">+</div>",,html-keyboard-response,184,895595,0.0-15.0-0.14,17268,List1B,black,man,,,,null,,,,
null,"<img src=""stim_listB/touch7.gif""</stim_listB>",,html-keyboard-response,185,897597,0.0-15.0-1.14,17268,List1B,black,man,,,,null,,,,
null,is touching,,html-keyboard-response,186,899600,0.0-15.0-2.14,17268,List1B,black,man,,,,null,,,,
12178,,,survey-text,187,911780,0.0-15.0-3.14,17268,List1B,black,man,,,,,"{""Q0"":""Jane is touching Kate.""}","<img src=""stim_listB/touch7.gif""</stim_listB>",is touching,
null,"<div style=""font-size:60px;"">+</div>",,html-keyboard-response,188,912283,0.0-15.0-0.15,17268,List1B,black,man,,,,null,,,,
null,"<img src=""stim_listB/talk5.gif""</stim_listB>",,html-keyboard-response,189,914287,0.0-15.0-1.15,17268,List1B,black,man,,,,null,,,,
null,is talking to,,html-keyboard-response,190,916288,0.0-15.0-2.15,17268,List1B,black,man,,,,null,,,,
9516,,,survey-text,191,925806,0.0-15.0-3.15,17268,List1B,black,man,,,,,"{""Q0"":""Dave is talking to Fred.""}","<img src=""stim_listB/talk5.gif""</stim_listB>",is talking to,
null,"<div style=""font-size:60px;"">+</div>",,html-keyboard-response,192,926309,0.0-15.0-0.16,17268,List1B,black,man,,,,null,,,,
null,"<img src=""stim_listB/meet1.gif""</stim_listB>",,html-keyboard-response,193,928313,0.0-15.0-1.16,17268,List1B,black,man,,,,null,,,,
null,is meeting,,html-keyboard-response,194,930316,0.0-15.0-2.16,17268,List1B,black,man,,,,null,,,,
9976,,,survey-text,195,940294,0.0-15.0-3.16,17268,List1B,black,man,,,,,"{""Q0"":""Mike is meeting Kate.""}","<img src=""stim_listB/meet1.gif""</stim_listB>",is meeting,
null,"<div style=""font-size:60px;"">+</div>",,html-keyboard-response,196,940797,0.0-15.0-0.17,17268,List1B,black,man,,,,null,,,,
null,"<img src=""stim_listB/dance5.gif""</stim_listB>",,html-keyboard-response,197,942802,0.0-15.0-1.17,17268,List1B,black,man,,,,null,,,,
null,is dancing with,,html-keyboard-response,198,944804,0.0-15.0-2.17,17268,List1B,black,man,,,,null,,,,
8028,,,survey-text,199,952834,0.0-15.0-3.17,17268,List1B,black,man,,,,,"{""Q0"":""Dave is dancing with Fred.""}","<img src=""stim_listB/dance5.gif""</stim_listB>",is dancing with,
null,"<div style=""font-size:60px;"">+</div>",,html-keyboard-response,200,953337,0.0-15.0-0.18,17268,List1B,black,man,,,,null,,,,
null,"<img src=""stim_listB/meet5.gif""</stim_listB>",,html-keyboard-response,201,955340,0.0-15.0-1.18,17268,List1B,black,man,,,,null,,,,
null,is meeting,,html-keyboard-response,202,957343,0.0-15.0-2.18,17268,List1B,black,man,,,,null,,,,
9968,,,survey-text,203,967313,0.0-15.0-3.18,17268,List1B,black,man,,,,,"{""Q0"":""Mike is meeting Dave.""}","<img src=""stim_listB/meet5.gif""</stim_listB>",is meeting,
null,"<div style=""font-size:60px;"">+</div>",,html-keyboard-response,204,967816,0.0-15.0-0.19,17268,List1B,black,man,,,,null,,,,
null,"<img src=""stim_listB/shout8.gif""</stim_listB>",,html-keyboard-response,205,969819,0.0-15.0-1.19,17268,List1B,black,man,,,,null,,,,
null,are shouting at each other,,html-keyboard-response,206,971821,0.0-15.0-2.19,17268,List1B,black,man,,,,null,,,,
11638,,,survey-text,207,983462,0.0-15.0-3.19,17268,List1B,black,man,,,,,"{""Q0"":""Jane and Kate are shouting at each other.""}","<img src=""stim_listB/shout8.gif""</stim_listB>",are shouting at each other,
3720,"<img src='img/portrait_matrix_list1.JPG' style='width:900px;height:500px;''></img><p>If you have memorised all the portraits and names and are ready to start, press Continue.</p><p><strong>Please note: Your memory of these faces will be tested 4 times during this experiment.</strong></p>",0,html-button-response,208,987198,0.0-16.0-0.0,17268,List1B,black,man,,,,,,,,
3730,"<img src=""portrait/WM1.jpg""style=""width:400px;height:400px;""></img>",6,html-button-response,209,991933,0.0-16.0-1.0,17268,List1B,black,man,,TRUE,6,,,,,
null,CORRECT,,html-keyboard-response,210,993438,0.0-16.0-2.0-0.0,17268,List1B,black,man,,,,null,,,,
2435,"<img src=""portrait/WW1.jpg""style=""width:400px;height:400px;""></img>",1,html-button-response,211,995877,0.0-16.0-4.0,17268,List1B,black,man,,TRUE,1,,,,,
null,CORRECT,,html-keyboard-response,212,997380,0.0-16.0-5.0-0.0,17268,List1B,black,man,,,,null,,,,
2248,"<img src=""portrait/BM1.jpg""style=""width:400px;height:400px;""></img>",4,html-button-response,213,999632,0.0-16.0-7.0,17268,List1B,black,man,,TRUE,4,,,,,
null,CORRECT,,html-keyboard-response,214,1001138,0.0-16.0-8.0-0.0,17268,List1B,black,man,,,,null,,,,
2756,"<img src=""portrait/BM2.jpg""style=""width:400px;height:400px;""></img>",5,html-button-response,215,1003896,0.0-16.0-10.0,17268,List1B,black,man,,TRUE,5,,,,,
null,CORRECT,,html-keyboard-response,216,1005400,0.0-16.0-11.0-0.0,17268,List1B,black,man,,,,null,,,,
2022,"<img src=""portrait/WW2.jpg""style=""width:400px;height:400px;""></img>",3,html-button-response,217,1007425,0.0-16.0-13.0,17268,List1B,black,man,,TRUE,3,,,,,
null,CORRECT,,html-keyboard-response,218,1008931,0.0-16.0-14.0-0.0,17268,List1B,black,man,,,,null,,,,
6072,"<img src=""portrait/BW1.jpg""style=""width:400px;height:400px;""></img>",0,html-button-response,219,1015007,0.0-16.0-16.0,17268,List1B,black,man,,TRUE,0,,,,,
null,CORRECT,,html-keyboard-response,220,1016510,0.0-16.0-17.0-0.0,17268,List1B,black,man,,,,null,,,,
1676,"<img src=""portrait/BW2.jpg""style=""width:400px;height:400px;""></img>",2,html-button-response,221,1018189,0.0-16.0-19.0,17268,List1B,black,man,,TRUE,2,,,,,
null,CORRECT,,html-keyboard-response,222,1019694,0.0-16.0-20.0-0.0,17268,List1B,black,man,,,,null,,,,
2233,"<img src=""portrait/WM2.jpg""style=""width:400px;height:400px;""></img>",7,html-button-response,223,1021930,0.0-16.0-22.0,17268,List1B,black,man,,TRUE,7,,,,,
null,CORRECT,,html-keyboard-response,224,1023434,0.0-16.0-23.0-0.0,17268,List1B,black,man,,,,null,,,,
1251,<p>You got 8 out of 8 right first time. Press Continue.</p>,0,html-button-response,225,1024687,0.0-16.0-25.0,17268,List1B,black,man,,,,,,,,
null,"<div style=""font-size:60px;"">+</div>",,html-keyboard-response,226,1026191,0.0-17.0-0.0,17268,List1B,black,man,,,,null,,,,
null,"<img src=""stim_listB/talk2.gif""</stim_listB>",,html-keyboard-response,227,1028194,0.0-17.0-1.0,17268,List1B,black,man,,,,null,,,,
null,are talking to each other,,html-keyboard-response,228,1030197,0.0-17.0-2.0,17268,List1B,black,man,,,,null,,,,
28228,,,survey-text,229,1058427,0.0-17.0-3.0,17268,List1B,black,man,,,,,"{""Q0"":""Mike and Beth are talking to each other.""}","<img src=""stim_listB/talk2.gif""</stim_listB>",are talking to each other,
null,"<div style=""font-size:60px;"">+</div>",,html-keyboard-response,230,1058934,0.0-17.0-0.1,17268,List1B,black,man,,,,null,,,,
null,"<img src=""stim_listB/marry6.gif""</stim_listB>",,html-keyboard-response,231,1060938,0.0-17.0-1.1,17268,List1B,black,man,,,,null,,,,
null,are marrying each other,,html-keyboard-response,232,1062940,0.0-17.0-2.1,17268,List1B,black,man,,,,null,,,,
10623,,,survey-text,233,1073566,0.0-17.0-3.1,17268,List1B,black,man,,,,,"{""Q0"":""Dave and Fred are marrying each other.""}","<img src=""stim_listB/marry6.gif""</stim_listB>",are marrying each other,
null,"<div style=""font-size:60px;"">+</div>",,html-keyboard-response,234,1074068,0.0-17.0-0.2,17268,List1B,black,man,,,,null,,,,
null,"<img src=""stim_listB/kiss1.gif""</stim_listB>",,html-keyboard-response,235,1076071,0.0-17.0-1.2,17268,List1B,black,man,,,,null,,,,
null,is kissing,,html-keyboard-response,236,1078074,0.0-17.0-2.2,17268,List1B,black,man,,,,null,,,,
9587,,,survey-text,237,1087663,0.0-17.0-3.2,17268,List1B,black,man,,,,,"{""Q0"":""Fred is kissing Beth.""}","<img src=""stim_listB/kiss1.gif""</stim_listB>",is kissing,
null,"<div style=""font-size:60px;"">+</div>",,html-keyboard-response,238,1088165,0.0-17.0-0.3,17268,List1B,black,man,,,,null,,,,
null,"<img src=""stim_listB/fight7.gif""</stim_listB>",,html-keyboard-response,239,1090169,0.0-17.0-1.3,17268,List1B,black,man,,,,null,,,,
null,is fighting,,html-keyboard-response,240,1092171,0.0-17.0-2.3,17268,List1B,black,man,,,,null,,,,
7676,,,survey-text,241,1099849,0.0-17.0-3.3,17268,List1B,black,man,,,,,"{""Q0"":""Jane is fighting Kate.""}","<img src=""stim_listB/fight7.gif""</stim_listB>",is fighting,
null,"<div style=""font-size:60px;"">+</div>",,html-keyboard-response,242,1100352,0.0-17.0-0.4,17268,List1B,black,man,,,,null,,,,
null,"<img src=""stim_listB/touch1.gif""</stim_listB>",,html-keyboard-response,243,1102357,0.0-17.0-1.4,17268,List1B,black,man,,,,null,,,,
null,is touching,,html-keyboard-response,244,1104360,0.0-17.0-2.4,17268,List1B,black,man,,,,null,,,,
7958,,,survey-text,245,1112320,0.0-17.0-3.4,17268,List1B,black,man,,,,,"{""Q0"":""Mike is touching Kate.""}","<img src=""stim_listB/touch1.gif""</stim_listB>",is touching,
null,"<div style=""font-size:60px;"">+</div>",,html-keyboard-response,246,1112825,0.0-17.0-0.5,17268,List1B,black,man,,,,null,,,,
null,"<img src=""stim_listB/fight3.gif""</stim_listB>",,html-keyboard-response,247,1114827,0.0-17.0-1.5,17268,List1B,black,man,,,,null,,,,
null,is fighting,,html-keyboard-response,248,1116830,0.0-17.0-2.5,17268,List1B,black,man,,,,null,,,,
11524,,,survey-text,249,1128356,0.0-17.0-3.5,17268,List1B,black,man,,,,,"{""Q0"":""Dave is fighting Jane.""}","<img src=""stim_listB/fight3.gif""</stim_listB>",is fighting,
null,"<div style=""font-size:60px;"">+</div>",,html-keyboard-response,250,1128859,0.0-17.0-0.6,17268,List1B,black,man,,,,null,,,,
null,"<img src=""stim_listB/hug6.gif""</stim_listB>",,html-keyboard-response,251,1130862,0.0-17.0-1.6,17268,List1B,black,man,,,,null,,,,
null,are hugging each other,,html-keyboard-response,252,1132865,0.0-17.0-2.6,17268,List1B,black,man,,,,null,,,,
11038,,,survey-text,253,1143905,0.0-17.0-3.6,17268,List1B,black,man,,,,,"{""Q0"":""Dave and Mike are hugging each other.""}","<img src=""stim_listB/hug6.gif""</stim_listB>",are hugging each other,
null,"<div style=""font-size:60px;"">+</div>",,html-keyboard-response,254,1144408,0.0-17.0-0.7,17268,List1B,black,man,,,,null,,,,
null,"<img src=""stim_listB/argue7.gif""</stim_listB>",,html-keyboard-response,255,1146411,0.0-17.0-1.7,17268,List1B,black,man,,,,null,,,,
null,is arguing with,,html-keyboard-response,256,1148412,0.0-17.0-2.7,17268,List1B,black,man,,,,null,,,,
10309,,,survey-text,257,1158723,0.0-17.0-3.7,17268,List1B,black,man,,,,,"{""Q0"":""Ruth is arguing with Kate.""}","<img src=""stim_listB/argue7.gif""</stim_listB>",is arguing with,
null,"<div style=""font-size:60px;"">+</div>",,html-keyboard-response,258,1159231,0.0-17.0-0.8,17268,List1B,black,man,,,,null,,,,
null,"<img src=""stim_listB/dance2.gif""</stim_listB>",,html-keyboard-response,259,1161235,0.0-17.0-1.8,17268,List1B,black,man,,,,null,,,,
null,are dancing with each other,,html-keyboard-response,260,1163237,0.0-17.0-2.8,17268,List1B,black,man,,,,null,,,,
15815,,,survey-text,261,1179054,0.0-17.0-3.8,17268,List1B,black,man,,,,,"{""Q0"":""Mike and Beth are dancing with each other. ""}","<img src=""stim_listB/dance2.gif""</stim_listB>",are dancing with each other,
null,"<div style=""font-size:60px;"">+</div>",,html-keyboard-response,262,1179557,0.0-17.0-0.9,17268,List1B,black,man,,,,null,,,,
null,"<img src=""stim_listB/touch3.gif""</stim_listB>",,html-keyboard-response,263,1181562,0.0-17.0-1.9,17268,List1B,black,man,,,,null,,,,
null,is touching,,html-keyboard-response,264,1183564,0.0-17.0-2.9,17268,List1B,black,man,,,,null,,,,
7630,,,survey-text,265,1191197,0.0-17.0-3.9,17268,List1B,black,man,,,,,"{""Q0"":""Dave is touching Jane.""}","<img src=""stim_listB/touch3.gif""</stim_listB>",is touching,
null,"<div style=""font-size:60px;"">+</div>",,html-keyboard-response,266,1191699,0.0-17.0-0.10,17268,List1B,black,man,,,,null,,,,
null,"<img src=""stim_listB/fight1.gif""</stim_listB>",,html-keyboard-response,267,1193702,0.0-17.0-1.10,17268,List1B,black,man,,,,null,,,,
null,is fighting,,html-keyboard-response,268,1195704,0.0-17.0-2.10,17268,List1B,black,man,,,,null,,,,
13864,,,survey-text,269,1209571,0.0-17.0-3.10,17268,List1B,black,man,,,,,"{""Q0"":""Mike is fighting Kate.""}","<img src=""stim_listB/fight1.gif""</stim_listB>",is fighting,
null,"<div style=""font-size:60px;"">+</div>",,html-keyboard-response,270,1210075,0.0-17.0-0.11,17268,List1B,black,man,,,,null,,,,
null,"<img src=""stim_listB/hug1.gif""</stim_listB>",,html-keyboard-response,271,1212078,0.0-17.0-1.11,17268,List1B,black,man,,,,null,,,,
null,is hugging,,html-keyboard-response,272,1214079,0.0-17.0-2.11,17268,List1B,black,man,,,,null,,,,
15254,,,survey-text,273,1229335,0.0-17.0-3.11,17268,List1B,black,man,,,,,"{""Q0"":""Fred is hugging Beth.""}","<img src=""stim_listB/hug1.gif""</stim_listB>",is hugging,
null,"<div style=""font-size:60px;"">+</div>",,html-keyboard-response,274,1229838,0.0-17.0-0.12,17268,List1B,black,man,,,,null,,,,
null,"<img src=""stim_listB/meet8.gif""</stim_listB>",,html-keyboard-response,275,1231841,0.0-17.0-1.12,17268,List1B,black,man,,,,null,,,,
null,are meeting each other,,html-keyboard-response,276,1233844,0.0-17.0-2.12,17268,List1B,black,man,,,,null,,,,
24391,,,survey-text,277,1258237,0.0-17.0-3.12,17268,List1B,black,man,,,,,"{""Q0"":""Ruth and Beth are meeting each other.""}","<img src=""stim_listB/meet8.gif""</stim_listB>",are meeting each other,
null,"<div style=""font-size:60px;"">+</div>",,html-keyboard-response,278,1258740,0.0-17.0-0.13,17268,List1B,black,man,,,,null,,,,
null,"<img src=""stim_listB/hug7.gif""</stim_listB>",,html-keyboard-response,279,1260743,0.0-17.0-1.13,17268,List1B,black,man,,,,null,,,,
null,is hugging,,html-keyboard-response,280,1262745,0.0-17.0-2.13,17268,List1B,black,man,,,,null,,,,
8350,,,survey-text,281,1271097,0.0-17.0-3.13,17268,List1B,black,man,,,,,"{""Q0"":""Ruth is hugging Beth.""}","<img src=""stim_listB/hug7.gif""</stim_listB>",is hugging,
null,"<div style=""font-size:60px;"">+</div>",,html-keyboard-response,282,1271601,0.0-17.0-0.14,17268,List1B,black,man,,,,null,,,,
null,"<img src=""stim_listB/hug5.gif""</stim_listB>",,html-keyboard-response,283,1273606,0.0-17.0-1.14,17268,List1B,black,man,,,,null,,,,
null,is hugging,,html-keyboard-response,284,1275609,0.0-17.0-2.14,17268,List1B,black,man,,,,null,,,,
7169,,,survey-text,285,1282780,0.0-17.0-3.14,17268,List1B,black,man,,,,,"{""Q0"":""Luke is hugging Fred.""}","<img src=""stim_listB/hug5.gif""</stim_listB>",is hugging,
null,"<div style=""font-size:60px;"">+</div>",,html-keyboard-response,286,1283283,0.0-17.0-0.15,17268,List1B,black,man,,,,null,,,,
null,"<img src=""stim_listB/kiss3.gif""</stim_listB>",,html-keyboard-response,287,1285286,0.0-17.0-1.15,17268,List1B,black,man,,,,null,,,,
null,is kissing,,html-keyboard-response,288,1287288,0.0-17.0-2.15,17268,List1B,black,man,,,,null,,,,
7941,,,survey-text,289,1295231,0.0-17.0-3.15,17268,List1B,black,man,,,,,"{""Q0"":""Luke is kissing Ruth.""}","<img src=""stim_listB/kiss3.gif""</stim_listB>",is kissing,
null,"<div style=""font-size:60px;"">+</div>",,html-keyboard-response,290,1295734,0.0-17.0-0.16,17268,List1B,black,man,,,,null,,,,
null,"<img src=""stim_listB/hug2.gif""</stim_listB>",,html-keyboard-response,291,1297737,0.0-17.0-1.16,17268,List1B,black,man,,,,null,,,,
null,are hugging each other,,html-keyboard-response,292,1299739,0.0-17.0-2.16,17268,List1B,black,man,,,,null,,,,
10193,,,survey-text,293,1309934,0.0-17.0-3.16,17268,List1B,black,man,,,,,"{""Q0"":""Mike and Kate are hugging each other.""}","<img src=""stim_listB/hug2.gif""</stim_listB>",are hugging each other,
null,"<div style=""font-size:60px;"">+</div>",,html-keyboard-response,294,1310437,0.0-17.0-0.17,17268,List1B,black,man,,,,null,,,,
null,"<img src=""stim_listB/touch8.gif""</stim_listB>",,html-keyboard-response,295,1312442,0.0-17.0-1.17,17268,List1B,black,man,,,,null,,,,
null,are touching each other,,html-keyboard-response,296,1314444,0.0-17.0-2.17,17268,List1B,black,man,,,,null,,,,
12564,,,survey-text,297,1327011,0.0-17.0-3.17,17268,List1B,black,man,,,,,"{""Q0"":""Ruth and Beth are touching each other.""}","<img src=""stim_listB/touch8.gif""</stim_listB>",are touching each other,
null,"<div style=""font-size:60px;"">+</div>",,html-keyboard-response,298,1327515,0.0-17.0-0.18,17268,List1B,black,man,,,,null,,,,
null,"<img src=""stim_listB/argue3.gif""</stim_listB>",,html-keyboard-response,299,1329519,0.0-17.0-1.18,17268,List1B,black,man,,,,null,,,,
null,is arguing with,,html-keyboard-response,300,1331521,0.0-17.0-2.18,17268,List1B,black,man,,,,null,,,,
17474,,,survey-text,301,1348997,0.0-17.0-3.18,17268,List1B,black,man,,,,,"{""Q0"":""Dave is arguing with Ruth.""}","<img src=""stim_listB/argue3.gif""</stim_listB>",is arguing with,
null,"<div style=""font-size:60px;"">+</div>",,html-keyboard-response,302,1349501,0.0-17.0-0.19,17268,List1B,black,man,,,,null,,,,
null,"<img src=""stim_listB/touch2.gif""</stim_listB>",,html-keyboard-response,303,1351506,0.0-17.0-1.19,17268,List1B,black,man,,,,null,,,,
null,are touching each other,,html-keyboard-response,304,1353508,0.0-17.0-2.19,17268,List1B,black,man,,,,null,,,,
17080,,,survey-text,305,1370590,0.0-17.0-3.19,17268,List1B,black,man,,,,,"{""Q0"":""Fred is touching Beth.""}","<img src=""stim_listB/touch2.gif""</stim_listB>",are touching each other,
6659,"<img src='img/portrait_matrix_list1.JPG' style='width:900px;height:500px;''></img><p>If you have memorised all the portraits and names and are ready to start, press Continue.</p><p><strong>Please note: Your memory of these faces will be tested 4 times during this experiment.</strong></p>",0,html-button-response,306,1377252,0.0-18.0-0.0,17268,List1B,black,man,,,,,,,,
5910,"<img src=""portrait/BM1.jpg""style=""width:400px;height:400px;""></img>",4,html-button-response,307,1384168,0.0-18.0-1.0,17268,List1B,black,man,,TRUE,4,,,,,
null,CORRECT,,html-keyboard-response,308,1385672,0.0-18.0-2.0-0.0,17268,List1B,black,man,,,,null,,,,
3315,"<img src=""portrait/BW1.jpg""style=""width:400px;height:400px;""></img>",0,html-button-response,309,1388991,0.0-18.0-4.0,17268,List1B,black,man,,TRUE,0,,,,,
null,CORRECT,,html-keyboard-response,310,1390495,0.0-18.0-5.0-0.0,17268,List1B,black,man,,,,null,,,,
1651,"<img src=""portrait/WM2.jpg""style=""width:400px;height:400px;""></img>",7,html-button-response,311,1392151,0.0-18.0-7.0,17268,List1B,black,man,,TRUE,7,,,,,
null,CORRECT,,html-keyboard-response,312,1393657,0.0-18.0-8.0-0.0,17268,List1B,black,man,,,,null,,,,
2888,"<img src=""portrait/WW1.jpg""style=""width:400px;height:400px;""></img>",1,html-button-response,313,1396549,0.0-18.0-10.0,17268,List1B,black,man,,TRUE,1,,,,,
null,CORRECT,,html-keyboard-response,314,1398054,0.0-18.0-11.0-0.0,17268,List1B,black,man,,,,null,,,,
2718,"<img src=""portrait/BM2.jpg""style=""width:400px;height:400px;""></img>",5,html-button-response,315,1400776,0.0-18.0-13.0,17268,List1B,black,man,,TRUE,5,,,,,
null,CORRECT,,html-keyboard-response,316,1402280,0.0-18.0-14.0-0.0,17268,List1B,black,man,,,,null,,,,
1734,"<img src=""portrait/WW2.jpg""style=""width:400px;height:400px;""></img>",3,html-button-response,317,1404018,0.0-18.0-16.0,17268,List1B,black,man,,TRUE,3,,,,,
null,CORRECT,,html-keyboard-response,318,1405522,0.0-18.0-17.0-0.0,17268,List1B,black,man,,,,null,,,,
1799,"<img src=""portrait/BW2.jpg""style=""width:400px;height:400px;""></img>",2,html-button-response,319,1407324,0.0-18.0-19.0,17268,List1B,black,man,,TRUE,2,,,,,
null,CORRECT,,html-keyboard-response,320,1408830,0.0-18.0-20.0-0.0,17268,List1B,black,man,,,,null,,,,
2112,"<img src=""portrait/WM1.jpg""style=""width:400px;height:400px;""></img>",6,html-button-response,321,1410946,0.0-18.0-22.0,17268,List1B,black,man,,TRUE,6,,,,,
null,CORRECT,,html-keyboard-response,322,1412450,0.0-18.0-23.0-0.0,17268,List1B,black,man,,,,null,,,,
2562,<p>You got 8 out of 8 right first time. Press Continue.</p>,0,html-button-response,323,1415015,0.0-18.0-25.0,17268,List1B,black,man,,,,,,,,
null,"<div style=""font-size:60px;"">+</div>",,html-keyboard-response,324,1416520,0.0-19.0-0.0,17268,List1B,black,man,,,,null,,,,
null,"<img src=""stim_listB/argue6.gif""</stim_listB>",,html-keyboard-response,325,1418523,0.0-19.0-1.0,17268,List1B,black,man,,,,null,,,,
null,are arguing with each other,,html-keyboard-response,326,1420526,0.0-19.0-2.0,17268,List1B,black,man,,,,null,,,,
16496,,,survey-text,327,1437024,0.0-19.0-3.0,17268,List1B,black,man,,,,,"{""Q0"":""Fred and Dave are arguing with each other.""}","<img src=""stim_listB/argue6.gif""</stim_listB>",are arguing with each other,
null,"<div style=""font-size:60px;"">+</div>",,html-keyboard-response,328,1437526,0.0-19.0-0.1,17268,List1B,black,man,,,,null,,,,
null,"<img src=""stim_listB/marry5.gif""</stim_listB>",,html-keyboard-response,329,1439530,0.0-19.0-1.1,17268,List1B,black,man,,,,null,,,,
null,is marrying,,html-keyboard-response,330,1441532,0.0-19.0-2.1,17268,List1B,black,man,,,,null,,,,
8525,,,survey-text,331,1450059,0.0-19.0-3.1,17268,List1B,black,man,,,,,"{""Q0"":""Mike is marrying Luke.""}","<img src=""stim_listB/marry5.gif""</stim_listB>",is marrying,
null,"<div style=""font-size:60px;"">+</div>",,html-keyboard-response,332,1450562,0.0-19.0-0.2,17268,List1B,black,man,,,,null,,,,
null,"<img src=""stim_listB/marry2.gif""</stim_listB>",,html-keyboard-response,333,1452567,0.0-19.0-1.2,17268,List1B,black,man,,,,null,,,,
null,are marrying each other,,html-keyboard-response,334,1454570,0.0-19.0-2.2,17268,List1B,black,man,,,,null,,,,
9148,,,survey-text,335,1463720,0.0-19.0-3.2,17268,List1B,black,man,,,,,"{""Q0"":""Fred and Kate are marrying each other.""}","<img src=""stim_listB/marry2.gif""</stim_listB>",are marrying each other,
null,"<div style=""font-size:60px;"">+</div>",,html-keyboard-response,336,1464224,0.0-19.0-0.3,17268,List1B,black,man,,,,null,,,,
null,"<img src=""stim_listB/touch6.gif""</stim_listB>",,html-keyboard-response,337,1466229,0.0-19.0-1.3,17268,List1B,black,man,,,,null,,,,
null,are touching each other,,html-keyboard-response,338,1468231,0.0-19.0-2.3,17268,List1B,black,man,,,,null,,,,
12457,,,survey-text,339,1480690,0.0-19.0-3.3,17268,List1B,black,man,,,,,"{""Q0"":""Luke and Fred are touching each other. ""}","<img src=""stim_listB/touch6.gif""</stim_listB>",are touching each other,
null,"<div style=""font-size:60px;"">+</div>",,html-keyboard-response,340,1481193,0.0-19.0-0.4,17268,List1B,black,man,,,,null,,,,
null,"<img src=""stim_listB/argue4.gif""</stim_listB>",,html-keyboard-response,341,1483199,0.0-19.0-1.4,17268,List1B,black,man,,,,null,,,,
null,are arguing with each other,,html-keyboard-response,342,1485202,0.0-19.0-2.4,17268,List1B,black,man,,,,null,,,,
14030,,,survey-text,343,1499234,0.0-19.0-3.4,17268,List1B,black,man,,,,,"{""Q0"":""Luke and Jane are arguing with each other.""}","<img src=""stim_listB/argue4.gif""</stim_listB>",are arguing with each other,
null,"<div style=""font-size:60px;"">+</div>",,html-keyboard-response,344,1499737,0.0-19.0-0.5,17268,List1B,black,man,,,,null,,,,
null,"<img src=""stim_listB/dance6.gif""</stim_listB>",,html-keyboard-response,345,1501741,0.0-19.0-1.5,17268,List1B,black,man,,,,null,,,,
null,are dancing with each other,,html-keyboard-response,346,1503742,0.0-19.0-2.5,17268,List1B,black,man,,,,null,,,,
15385,,,survey-text,347,1519130,0.0-19.0-3.5,17268,List1B,black,man,,,,,"{""Q0"":""Mike and Luke are dancing with each other.""}","<img src=""stim_listB/dance6.gif""</stim_listB>",are dancing with each other,
null,"<div style=""font-size:60px;"">+</div>",,html-keyboard-response,348,1519634,0.0-19.0-0.6,17268,List1B,black,man,,,,null,,,,
null,"<img src=""stim_listB/argue2.gif""</stim_listB>",,html-keyboard-response,349,1521637,0.0-19.0-1.6,17268,List1B,black,man,,,,null,,,,
null,are arguing with each other,,html-keyboard-response,350,1523639,0.0-19.0-2.6,17268,List1B,black,man,,,,null,,,,
18248,,,survey-text,351,1541889,0.0-19.0-3.6,17268,List1B,black,man,,,,,"{""Q0"":""Fred and Kate are arguing with each other.""}","<img src=""stim_listB/argue2.gif""</stim_listB>",are arguing with each other,
null,"<div style=""font-size:60px;"">+</div>",,html-keyboard-response,352,1542392,0.0-19.0-0.7,17268,List1B,black,man,,,,null,,,,
null,"<img src=""stim_listB/meet2.gif""</stim_listB>",,html-keyboard-response,353,1544396,0.0-19.0-1.7,17268,List1B,black,man,,,,null,,,,
null,are meeting each other,,html-keyboard-response,354,1546399,0.0-19.0-2.7,17268,List1B,black,man,,,,null,,,,
10243,,,survey-text,355,1556644,0.0-19.0-3.7,17268,List1B,black,man,,,,,"{""Q0"":""Fred and Beth are meeting each other.""}","<img src=""stim_listB/meet2.gif""</stim_listB>",are meeting each other,
null,"<div style=""font-size:60px;"">+</div>",,html-keyboard-response,356,1557147,0.0-19.0-0.8,17268,List1B,black,man,,,,null,,,,
null,"<img src=""stim_listB/meet6.gif""</stim_listB>",,html-keyboard-response,357,1559151,0.0-19.0-1.8,17268,List1B,black,man,,,,null,,,,
null,are meeting each other,,html-keyboard-response,358,1561154,0.0-19.0-2.8,17268,List1B,black,man,,,,null,,,,
22205,,,survey-text,359,1583361,0.0-19.0-3.8,17268,List1B,black,man,,,,,"{""Q0"":""Luke and Fred are meeting each other. ""}","<img src=""stim_listB/meet6.gif""</stim_listB>",are meeting each other,
null,"<div style=""font-size:60px;"">+</div>",,html-keyboard-response,360,1583865,0.0-19.0-0.9,17268,List1B,black,man,,,,null,,,,
null,"<img src=""stim_listB/shout1.gif""</stim_listB>",,html-keyboard-response,361,1585869,0.0-19.0-1.9,17268,List1B,black,man,,,,null,,,,
null,is shouting at,,html-keyboard-response,362,1587872,0.0-19.0-2.9,17268,List1B,black,man,,,,null,,,,
11223,,,survey-text,363,1599097,0.0-19.0-3.9,17268,List1B,black,man,,,,,"{""Q0"":""Fred is shouting at Beth.""}","<img src=""stim_listB/shout1.gif""</stim_listB>",is shouting at,
null,"<div style=""font-size:60px;"">+</div>",,html-keyboard-response,364,1599601,0.0-19.0-0.10,17268,List1B,black,man,,,,null,,,,
null,"<img src=""stim_listB/talk4.gif""</stim_listB>",,html-keyboard-response,365,1601606,0.0-19.0-1.10,17268,List1B,black,man,,,,null,,,,
null,are talking to each other,,html-keyboard-response,366,1603611,0.0-19.0-2.10,17268,List1B,black,man,,,,null,,,,
16390,,,survey-text,367,1620003,0.0-19.0-3.10,17268,List1B,black,man,,,,,"{""Q0"":""Ruth is talking to Dave. ""}","<img src=""stim_listB/talk4.gif""</stim_listB>",are talking to each other,
null,"<div style=""font-size:60px;"">+</div>",,html-keyboard-response,368,1620506,0.0-19.0-0.11,17268,List1B,black,man,,,,null,,,,
null,"<img src=""stim_listB/talk1.gif""</stim_listB>",,html-keyboard-response,369,1622510,0.0-19.0-1.11,17268,List1B,black,man,,,,null,,,,
null,is talking to,,html-keyboard-response,370,1624512,0.0-19.0-2.11,17268,List1B,black,man,,,,null,,,,
7828,,,survey-text,371,1632342,0.0-19.0-3.11,17268,List1B,black,man,,,,,"{""Q0"":""Fred is talking to Kate. ""}","<img src=""stim_listB/talk1.gif""</stim_listB>",is talking to,
null,"<div style=""font-size:60px;"">+</div>",,html-keyboard-response,372,1632845,0.0-19.0-0.12,17268,List1B,black,man,,,,null,,,,
null,"<img src=""stim_listB/kiss7.gif""</stim_listB>",,html-keyboard-response,373,1634849,0.0-19.0-1.12,17268,List1B,black,man,,,,null,,,,
null,is kissing,,html-keyboard-response,374,1636851,0.0-19.0-2.12,17268,List1B,black,man,,,,null,,,,
8812,,,survey-text,375,1645666,0.0-19.0-3.12,17268,List1B,black,man,,,,,"{""Q0"":""Ruth is kissing Beth.""}","<img src=""stim_listB/kiss7.gif""</stim_listB>",is kissing,
null,"<div style=""font-size:60px;"">+</div>",,html-keyboard-response,376,1646170,0.0-19.0-0.13,17268,List1B,black,man,,,,null,,,,
null,"<img src=""stim_listB/argue5.gif""</stim_listB>",,html-keyboard-response,377,1648173,0.0-19.0-1.13,17268,List1B,black,man,,,,null,,,,
null,is arguing with,,html-keyboard-response,378,1650175,0.0-19.0-2.13,17268,List1B,black,man,,,,null,,,,
17572,,,survey-text,379,1667750,0.0-19.0-3.13,17268,List1B,black,man,,,,,"{""Q0"":""Mike is arguing with Luke. ""}","<img src=""stim_listB/argue5.gif""</stim_listB>",is arguing with,
null,"<div style=""font-size:60px;"">+</div>",,html-keyboard-response,380,1668254,0.0-19.0-0.14,17268,List1B,black,man,,,,null,,,,
null,"<img src=""stim_listB/kiss5.gif""</stim_listB>",,html-keyboard-response,381,1670259,0.0-19.0-1.14,17268,List1B,black,man,,,,null,,,,
null,is kissing,,html-keyboard-response,382,1672262,0.0-19.0-2.14,17268,List1B,black,man,,,,null,,,,
11108,,,survey-text,383,1683372,0.0-19.0-3.14,17268,List1B,black,man,,,,,"{""Q0"":""Luke is kissing Fred. ""}","<img src=""stim_listB/kiss5.gif""</stim_listB>",is kissing,
null,"<div style=""font-size:60px;"">+</div>",,html-keyboard-response,384,1683875,0.0-19.0-0.15,17268,List1B,black,man,,,,null,,,,
null,"<img src=""stim_listB/shout5.gif""</stim_listB>",,html-keyboard-response,385,1685881,0.0-19.0-1.15,17268,List1B,black,man,,,,null,,,,
null,is shouting at,,html-keyboard-response,386,1687883,0.0-19.0-2.15,17268,List1B,black,man,,,,null,,,,
13991,,,survey-text,387,1701876,0.0-19.0-3.15,17268,List1B,black,man,,,,,"{""Q0"":""Fred is shouting at Luke.""}","<img src=""stim_listB/shout5.gif""</stim_listB>",is shouting at,
null,"<div style=""font-size:60px;"">+</div>",,html-keyboard-response,388,1702379,0.0-19.0-0.16,17268,List1B,black,man,,,,null,,,,
null,"<img src=""stim_listB/fight8.gif""</stim_listB>",,html-keyboard-response,389,1704385,0.0-19.0-1.16,17268,List1B,black,man,,,,null,,,,
null,are fighting each other,,html-keyboard-response,390,1706387,0.0-19.0-2.16,17268,List1B,black,man,,,,null,,,,
10908,,,survey-text,391,1717297,0.0-19.0-3.16,17268,List1B,black,man,,,,,"{""Q0"":""Ruth and Beth are fighting each other.""}","<img src=""stim_listB/fight8.gif""</stim_listB>",are fighting each other,
null,"<div style=""font-size:60px;"">+</div>",,html-keyboard-response,392,1717800,0.0-19.0-0.17,17268,List1B,black,man,,,,null,,,,
null,"<img src=""stim_listB/dance1.gif""</stim_listB>",,html-keyboard-response,393,1719804,0.0-19.0-1.17,17268,List1B,black,man,,,,null,,,,
null,is dancing with,,html-keyboard-response,394,1721806,0.0-19.0-2.17,17268,List1B,black,man,,,,null,,,,
7403,,,survey-text,395,1729212,0.0-19.0-3.17,17268,List1B,black,man,,,,,"{""Q0"":""Fred is dancing with Kate.""}","<img src=""stim_listB/dance1.gif""</stim_listB>",is dancing with,
null,"<div style=""font-size:60px;"">+</div>",,html-keyboard-response,396,1729715,0.0-19.0-0.18,17268,List1B,black,man,,,,null,,,,
null,"<img src=""stim_listB/talk6.gif""</stim_listB>",,html-keyboard-response,397,1731719,0.0-19.0-1.18,17268,List1B,black,man,,,,null,,,,
null,are talking to each other,,html-keyboard-response,398,1733721,0.0-19.0-2.18,17268,List1B,black,man,,,,null,,,,
11532,,,survey-text,399,1745255,0.0-19.0-3.18,17268,List1B,black,man,,,,,"{""Q0"":""Luke and Mike are talking to each other. ""}","<img src=""stim_listB/talk6.gif""</stim_listB>",are talking to each other,
null,"<div style=""font-size:60px;"">+</div>",,html-keyboard-response,400,1745759,0.0-19.0-0.19,17268,List1B,black,man,,,,null,,,,
null,"<img src=""stim_listB/fight2.gif""</stim_listB>",,html-keyboard-response,401,1747764,0.0-19.0-1.19,17268,List1B,black,man,,,,null,,,,
null,are fighting each other,,html-keyboard-response,402,1749767,0.0-19.0-2.19,17268,List1B,black,man,,,,null,,,,
13565,,,survey-text,403,1763334,0.0-19.0-3.19,17268,List1B,black,man,,,,,"{""Q0"":""Fred and Beth are fighting each other.""}","<img src=""stim_listB/fight2.gif""</stim_listB>",are fighting each other,
2428,<p>Thank you for completing that task.</p><p>The final part of this session is a short questionnaire.</p><p>Press Continue.</p>,0,html-button-response,404,1765765,0.0-20.0,17268,List1B,black,man,,,,,,,,
21081,,,survey-text,405,1787851,0.0-21.0,17268,List1B,black,man,,,,,"{""Q0"":""25"",""Q1"":""English"",""Q2"":""English"",""Q3"":""USA"",""Q4"":""Black"",""Q5"":""Male""}",,,demographics
50691,,,survey-likert,406,1838564,0.0-22.0,17268,List1B,black,man,,,,,"{""Q0"":6,""Q1"":5,""Q2"":5,""Q3"":6,""Q4"":"""",""Q5"":1,""Q6"":5,""Q7"":6,""Q8"":6,""Q9"":6,""Q10"":4,""Q11"":4,""Q12"":5,""Q13"":5}",,,likert_race
35329,,,survey-likert,407,1873980,0.0-23.0,17268,List1B,black,man,,,,,"{""Q0"":5,""Q1"":5,""Q2"":5,""Q3"":6,""Q4"":4,""Q5"":5,""Q6"":5,""Q7"":5,""Q8"":5,""Q9"":5,""Q10"":5,""Q11"":5,""Q12"":5,""Q13"":5}",,,likert_gender
10497,,,survey-text,408,1884574,0.0-24.0,17268,List1B,black,man,,,,,"{""Q0"":""ccc""}",,,worker_id
27510,,,external-html,409,1912369,0.0-25.0,17268,List1B,black,man,debrief.html,,,,,,,
