rt,stimulus,button_pressed,trial_type,trial_index,time_elapsed,internal_node_id,subject,list,ppt_race,ppt_gender,url,first_guess,correct,key_press,responses,image_type,phrase_type,test_part
1545,Welcome to the experiment. Press Continue to begin.,0,html-button-response,0,1551,0.0-0.0,18280,List2A,white,woman,,,,,,,,
41221,,,external-html,1,44540,0.0-1.0,18280,List2A,white,woman,consent.html,,,,,,,
7145,"<p>On the next page, you will see portraits of 8 people and their names.</p><p>Your first task is to take a few minutes to memorise the names of these people.</p><p>You will have to recall their names during the rest of the experiment, so it is</p><p>essential that you try to memorise these people and their names as best as you can.</p><br><p><strong>You will then be tested on your memory of these names and portraits.</strong></p><br><p>The experiment will start after you have completed this memory test.</p><br><p>Ready?</p>",0,html-button-response,2,51687,0.0-2.0,18280,List2A,white,woman,,,,,,,,
116336,"<img src='img/portrait_matrix_list2.JPG' style='width:900px;height:500px;''></img><p>If you have memorised all the portraits and names and are ready to start, press Continue.</p><p><strong>Please note: Your memory of these faces will be tested 4 times during this experiment.</strong></p>",0,html-button-response,3,169027,0.0-3.0-0.0,18280,List2A,white,woman,,,,,,,,
2813,"<img src=""portrait/BW1.jpg""style=""width:400px;height:400px;""></img>",0,html-button-response,4,172843,0.0-3.0-1.0,18280,List2A,white,woman,,TRUE,0,,,,,
null,CORRECT,,html-keyboard-response,5,174349,0.0-3.0-2.0-0.0,18280,List2A,white,woman,,,,null,,,,
3071,"<img src=""portrait/WW2.jpg""style=""width:400px;height:400px;""></img>",3,html-button-response,6,177423,0.0-3.0-4.0,18280,List2A,white,woman,,TRUE,3,,,,,
null,CORRECT,,html-keyboard-response,7,178930,0.0-3.0-5.0-0.0,18280,List2A,white,woman,,,,null,,,,
3815,"<img src=""portrait/WM1.jpg""style=""width:400px;height:400px;""></img>",6,html-button-response,8,182747,0.0-3.0-7.0,18280,List2A,white,woman,,TRUE,6,,,,,
null,CORRECT,,html-keyboard-response,9,184250,0.0-3.0-8.0-0.0,18280,List2A,white,woman,,,,null,,,,
4286,"<img src=""portrait/WM2.jpg""style=""width:400px;height:400px;""></img>",7,html-button-response,10,188539,0.0-3.0-10.0,18280,List2A,white,woman,,TRUE,7,,,,,
null,CORRECT,,html-keyboard-response,11,190042,0.0-3.0-11.0-0.0,18280,List2A,white,woman,,,,null,,,,
2791,"<img src=""portrait/BW2.jpg""style=""width:400px;height:400px;""></img>",2,html-button-response,12,192835,0.0-3.0-13.0,18280,List2A,white,woman,,TRUE,2,,,,,
null,CORRECT,,html-keyboard-response,13,194338,0.0-3.0-14.0-0.0,18280,List2A,white,woman,,,,null,,,,
3259,"<img src=""portrait/WW1.jpg""style=""width:400px;height:400px;""></img>",1,html-button-response,14,197599,0.0-3.0-16.0,18280,List2A,white,woman,,TRUE,1,,,,,
null,CORRECT,,html-keyboard-response,15,199101,0.0-3.0-17.0-0.0,18280,List2A,white,woman,,,,null,,,,
2403,"<img src=""portrait/BM2.jpg""style=""width:400px;height:400px;""></img>",5,html-button-response,16,201507,0.0-3.0-19.0,18280,List2A,white,woman,,TRUE,5,,,,,
null,CORRECT,,html-keyboard-response,17,203011,0.0-3.0-20.0-0.0,18280,List2A,white,woman,,,,null,,,,
8249,"<img src=""portrait/BM1.jpg""style=""width:400px;height:400px;""></img>",4,html-button-response,18,211263,0.0-3.0-22.0,18280,List2A,white,woman,,TRUE,4,,,,,
null,CORRECT,,html-keyboard-response,19,212766,0.0-3.0-23.0-0.0,18280,List2A,white,woman,,,,null,,,,
1738,<p>You got 8 out of 8 right first time. Press Continue.</p>,0,html-button-response,20,214507,0.0-3.0-25.0,18280,List2A,white,woman,,,,,,,,
30059,"<p>In this experiment, you will view photographs of the people from the memory game interacting.</p><p>By using the <strong>exact</strong> phrase given <i>after</i> the photograph appears and recalling the correct names of the people in the photographs, form a sentence describing the interaction. You do not need to capitalise names.</p><p>Type your answer in the space provided. Please complete every sentence before moving onto the next trial.</p><p>You will only have a few seconds to memorise each given photograph and phrase before you can respond, so try your best to focus.</p><p>An example is given below. Press 'Continue' when you are ready.</p><img src='img/speaking_example_v2.jpg' style='width:800px;height:460px;''></img>",0,html-button-response,21,245570,0.0-4.0,18280,List2A,white,woman,,,,,,,,
1806,"<p>Before the experiment starts, you will watch two example trials. Press 'Continue'.</p>",0,html-button-response,22,248378,0.0-5.0,18280,List2A,white,woman,,,,,,,,
null,<img src='img/speaking_WW.gif'></img>,,html-keyboard-response,23,251380,0.0-6.0,18280,List2A,white,woman,,,,null,,,,
null,<p>is speaking to</p>,,html-keyboard-response,24,253382,0.0-7.0,18280,List2A,white,woman,,,,null,,,,
3207,<p><b>Answer:</b> jane is speaking to ruth</p>,0,html-button-response,25,256591,0.0-8.0,18280,List2A,white,woman,,,,,,,,
null,<img src='img/pointing_BM.gif'></img>,,html-keyboard-response,26,259594,0.0-9.0,18280,List2A,white,woman,,,,null,,,,
null,<p>are pointing at each other</p>,,html-keyboard-response,27,261597,0.0-10.0,18280,List2A,white,woman,,,,null,,,,
2284,<p><b>Answer:</b> fred and mike are pointing at each other</p>,0,html-button-response,28,263883,0.0-11.0,18280,List2A,white,woman,,,,,,,,
9985,"<p>Ready to start the experiment?</p><br><p><strong>Remember to describe the picture using a full sentence,</strong></p><p><strong>that combines the names of the people with the given phrase.</strong></p><p><strong>If you do not do this correctly you will not be paid.</strong></p><p><strong> You do not need to capitalise names or use punctuation.</strong></p><br><p>Press 'Continue' to begin.</p>",0,html-button-response,29,274871,0.0-12.0,18280,List2A,white,woman,,,,,,,,
null,"<div style=""font-size:60px;"">+</div>",,html-keyboard-response,30,276374,0.0-13.0-0.0,18280,List2A,white,woman,,,,null,,,,
null,"<img src=""stim_listA/argue4.gif""</stim_listA>",,html-keyboard-response,31,278378,0.0-13.0-1.0,18280,List2A,white,woman,,,,null,,,,
null,are arguing with each other,,html-keyboard-response,32,280380,0.0-13.0-2.0,18280,List2A,white,woman,,,,null,,,,
12019,,,survey-text,33,292401,0.0-13.0-3.0,18280,List2A,white,woman,,,,,"{""Q0"":""Kate and Fred are arguing with each other.""}","<img src=""stim_listA/argue4.gif""</stim_listA>",are arguing with each other,
null,"<div style=""font-size:60px;"">+</div>",,html-keyboard-response,34,292904,0.0-13.0-0.1,18280,List2A,white,woman,,,,null,,,,
null,"<img src=""stim_listA/kiss2.gif""</stim_listA>",,html-keyboard-response,35,294906,0.0-13.0-1.1,18280,List2A,white,woman,,,,null,,,,
null,are kissing each other,,html-keyboard-response,36,296908,0.0-13.0-2.1,18280,List2A,white,woman,,,,null,,,,
12658,,,survey-text,37,309568,0.0-13.0-3.1,18280,List2A,white,woman,,,,,"{""Q0"":""Dave and Jane are kissing each other.""}","<img src=""stim_listA/kiss2.gif""</stim_listA>",are kissing each other,
null,"<div style=""font-size:60px;"">+</div>",,html-keyboard-response,38,310070,0.0-13.0-0.2,18280,List2A,white,woman,,,,null,,,,
null,"<img src=""stim_listA/meet8.gif""</stim_listA>",,html-keyboard-response,39,312072,0.0-13.0-1.2,18280,List2A,white,woman,,,,null,,,,
null,are meeting each other,,html-keyboard-response,40,314074,0.0-13.0-2.2,18280,List2A,white,woman,,,,null,,,,
11335,,,survey-text,41,325411,0.0-13.0-3.2,18280,List2A,white,woman,,,,,"{""Q0"":""Beth and Jane are meeting each other.""}","<img src=""stim_listA/meet8.gif""</stim_listA>",are meeting each other,
null,"<div style=""font-size:60px;"">+</div>",,html-keyboard-response,42,325912,0.0-13.0-0.3,18280,List2A,white,woman,,,,null,,,,
null,"<img src=""stim_listA/meet3.gif""</stim_listA>",,html-keyboard-response,43,327915,0.0-13.0-1.3,18280,List2A,white,woman,,,,null,,,,
null,is meeting,,html-keyboard-response,44,329919,0.0-13.0-2.3,18280,List2A,white,woman,,,,null,,,,
7025,,,survey-text,45,336944,0.0-13.0-3.3,18280,List2A,white,woman,,,,,"{""Q0"":""Mike is meeting Beth""}","<img src=""stim_listA/meet3.gif""</stim_listA>",is meeting,
null,"<div style=""font-size:60px;"">+</div>",,html-keyboard-response,46,337446,0.0-13.0-0.4,18280,List2A,white,woman,,,,null,,,,
null,"<img src=""stim_listA/argue7.gif""</stim_listA>",,html-keyboard-response,47,339451,0.0-13.0-1.4,18280,List2A,white,woman,,,,null,,,,
null,is arguing with,,html-keyboard-response,48,341452,0.0-13.0-2.4,18280,List2A,white,woman,,,,null,,,,
23365,,,survey-text,49,364819,0.0-13.0-3.4,18280,List2A,white,woman,,,,,"{""Q0"":""Jane is arguing with Beth""}","<img src=""stim_listA/argue7.gif""</stim_listA>",is arguing with,
null,"<div style=""font-size:60px;"">+</div>",,html-keyboard-response,50,365321,0.0-13.0-0.5,18280,List2A,white,woman,,,,null,,,,
null,"<img src=""stim_listA/touch8.gif""</stim_listA>",,html-keyboard-response,51,367324,0.0-13.0-1.5,18280,List2A,white,woman,,,,null,,,,
null,are touching each other,,html-keyboard-response,52,369326,0.0-13.0-2.5,18280,List2A,white,woman,,,,null,,,,
7931,,,survey-text,53,377259,0.0-13.0-3.5,18280,List2A,white,woman,,,,,"{""Q0"":""Beth and Ruth are touching each other. ""}","<img src=""stim_listA/touch8.gif""</stim_listA>",are touching each other,
null,"<div style=""font-size:60px;"">+</div>",,html-keyboard-response,54,377762,0.0-13.0-0.6,18280,List2A,white,woman,,,,null,,,,
null,"<img src=""stim_listA/meet4.gif""</stim_listA>",,html-keyboard-response,55,379766,0.0-13.0-1.6,18280,List2A,white,woman,,,,null,,,,
null,are meeting each other,,html-keyboard-response,56,381768,0.0-13.0-2.6,18280,List2A,white,woman,,,,null,,,,
14653,,,survey-text,57,396422,0.0-13.0-3.6,18280,List2A,white,woman,,,,,"{""Q0"":""Fred and Beth are meeting each other.""}","<img src=""stim_listA/meet4.gif""</stim_listA>",are meeting each other,
null,"<div style=""font-size:60px;"">+</div>",,html-keyboard-response,58,396924,0.0-13.0-0.7,18280,List2A,white,woman,,,,null,,,,
null,"<img src=""stim_listA/shout5.gif""</stim_listA>",,html-keyboard-response,59,398928,0.0-13.0-1.7,18280,List2A,white,woman,,,,null,,,,
null,is shouting at,,html-keyboard-response,60,400930,0.0-13.0-2.7,18280,List2A,white,woman,,,,null,,,,
14882,,,survey-text,61,415814,0.0-13.0-3.7,18280,List2A,white,woman,,,,,"{""Q0"":""Luke is shouting at Fred""}","<img src=""stim_listA/shout5.gif""</stim_listA>",is shouting at,
null,"<div style=""font-size:60px;"">+</div>",,html-keyboard-response,62,416316,0.0-13.0-0.8,18280,List2A,white,woman,,,,null,,,,
null,"<img src=""stim_listA/talk7.gif""</stim_listA>",,html-keyboard-response,63,418321,0.0-13.0-1.8,18280,List2A,white,woman,,,,null,,,,
null,is talking to,,html-keyboard-response,64,420323,0.0-13.0-2.8,18280,List2A,white,woman,,,,null,,,,
11065,,,survey-text,65,431390,0.0-13.0-3.8,18280,List2A,white,woman,,,,,"{""Q0"":""Kate is talking to Ruth""}","<img src=""stim_listA/talk7.gif""</stim_listA>",is talking to,
null,"<div style=""font-size:60px;"">+</div>",,html-keyboard-response,66,431897,0.0-13.0-0.9,18280,List2A,white,woman,,,,null,,,,
null,"<img src=""stim_listA/argue5.gif""</stim_listA>",,html-keyboard-response,67,433901,0.0-13.0-1.9,18280,List2A,white,woman,,,,null,,,,
null,is arguing with,,html-keyboard-response,68,435903,0.0-13.0-2.9,18280,List2A,white,woman,,,,null,,,,
7881,,,survey-text,69,443786,0.0-13.0-3.9,18280,List2A,white,woman,,,,,"{""Q0"":""Dave is arguing with Fred""}","<img src=""stim_listA/argue5.gif""</stim_listA>",is arguing with,
null,"<div style=""font-size:60px;"">+</div>",,html-keyboard-response,70,444288,0.0-13.0-0.10,18280,List2A,white,woman,,,,null,,,,
null,"<img src=""stim_listA/marry5.gif""</stim_listA>",,html-keyboard-response,71,446291,0.0-13.0-1.10,18280,List2A,white,woman,,,,null,,,,
null,is marrying,,html-keyboard-response,72,448293,0.0-13.0-2.10,18280,List2A,white,woman,,,,null,,,,
8498,,,survey-text,73,456792,0.0-13.0-3.10,18280,List2A,white,woman,,,,,"{""Q0"":""Fred is marrying Dave""}","<img src=""stim_listA/marry5.gif""</stim_listA>",is marrying,
null,"<div style=""font-size:60px;"">+</div>",,html-keyboard-response,74,457294,0.0-13.0-0.11,18280,List2A,white,woman,,,,null,,,,
null,"<img src=""stim_listA/touch3.gif""</stim_listA>",,html-keyboard-response,75,459297,0.0-13.0-1.11,18280,List2A,white,woman,,,,null,,,,
null,is touching,,html-keyboard-response,76,461299,0.0-13.0-2.11,18280,List2A,white,woman,,,,null,,,,
5294,,,survey-text,77,466595,0.0-13.0-3.11,18280,List2A,white,woman,,,,,"{""Q0"":""Kate is touching Mike""}","<img src=""stim_listA/touch3.gif""</stim_listA>",is touching,
null,"<div style=""font-size:60px;"">+</div>",,html-keyboard-response,78,467097,0.0-13.0-0.12,18280,List2A,white,woman,,,,null,,,,
null,"<img src=""stim_listA/hug4.gif""</stim_listA>",,html-keyboard-response,79,469099,0.0-13.0-1.12,18280,List2A,white,woman,,,,null,,,,
null,are hugging each other,,html-keyboard-response,80,471101,0.0-13.0-2.12,18280,List2A,white,woman,,,,null,,,,
8298,,,survey-text,81,479400,0.0-13.0-3.12,18280,List2A,white,woman,,,,,"{""Q0"":""Mike and Kate are hugging each other""}","<img src=""stim_listA/hug4.gif""</stim_listA>",are hugging each other,
null,"<div style=""font-size:60px;"">+</div>",,html-keyboard-response,82,479902,0.0-13.0-0.13,18280,List2A,white,woman,,,,null,,,,
null,"<img src=""stim_listA/marry1.gif""</stim_listA>",,html-keyboard-response,83,481905,0.0-13.0-1.13,18280,List2A,white,woman,,,,null,,,,
null,is marrying,,html-keyboard-response,84,483908,0.0-13.0-2.13,18280,List2A,white,woman,,,,null,,,,
19597,,,survey-text,85,503506,0.0-13.0-3.13,18280,List2A,white,woman,,,,,"{""Q0"":""Luke is Marrying Ruth""}","<img src=""stim_listA/marry1.gif""</stim_listA>",is marrying,
null,"<div style=""font-size:60px;"">+</div>",,html-keyboard-response,86,504009,0.0-13.0-0.14,18280,List2A,white,woman,,,,null,,,,
null,"<img src=""stim_listA/argue2.gif""</stim_listA>",,html-keyboard-response,87,506012,0.0-13.0-1.14,18280,List2A,white,woman,,,,null,,,,
null,are arguing with each other,,html-keyboard-response,88,508014,0.0-13.0-2.14,18280,List2A,white,woman,,,,null,,,,
15962,,,survey-text,89,523978,0.0-13.0-3.14,18280,List2A,white,woman,,,,,"{""Q0"":""Jane and Luke are arguing with each other""}","<img src=""stim_listA/argue2.gif""</stim_listA>",are arguing with each other,
null,"<div style=""font-size:60px;"">+</div>",,html-keyboard-response,90,524481,0.0-13.0-0.15,18280,List2A,white,woman,,,,null,,,,
null,"<img src=""stim_listA/hug1.gif""</stim_listA>",,html-keyboard-response,91,526485,0.0-13.0-1.15,18280,List2A,white,woman,,,,null,,,,
null,is hugging,,html-keyboard-response,92,528486,0.0-13.0-2.15,18280,List2A,white,woman,,,,null,,,,
7203,,,survey-text,93,535691,0.0-13.0-3.15,18280,List2A,white,woman,,,,,"{""Q0"":""Luke is hugging Ruth""}","<img src=""stim_listA/hug1.gif""</stim_listA>",is hugging,
null,"<div style=""font-size:60px;"">+</div>",,html-keyboard-response,94,536193,0.0-13.0-0.16,18280,List2A,white,woman,,,,null,,,,
null,"<img src=""stim_listA/marry2.gif""</stim_listA>",,html-keyboard-response,95,538196,0.0-13.0-1.16,18280,List2A,white,woman,,,,null,,,,
null,are marrying each other,,html-keyboard-response,96,540198,0.0-13.0-2.16,18280,List2A,white,woman,,,,null,,,,
10037,,,survey-text,97,550237,0.0-13.0-3.16,18280,List2A,white,woman,,,,,"{""Q0"":""Jane and Luke are marrying each other""}","<img src=""stim_listA/marry2.gif""</stim_listA>",are marrying each other,
null,"<div style=""font-size:60px;"">+</div>",,html-keyboard-response,98,550739,0.0-13.0-0.17,18280,List2A,white,woman,,,,null,,,,
null,"<img src=""stim_listA/talk8.gif""</stim_listA>",,html-keyboard-response,99,552742,0.0-13.0-1.17,18280,List2A,white,woman,,,,null,,,,
null,are talking to each other,,html-keyboard-response,100,554745,0.0-13.0-2.17,18280,List2A,white,woman,,,,null,,,,
11483,,,survey-text,101,566230,0.0-13.0-3.17,18280,List2A,white,woman,,,,,"{""Q0"":""Beth and Jane are talking to each other""}","<img src=""stim_listA/talk8.gif""</stim_listA>",are talking to each other,
null,"<div style=""font-size:60px;"">+</div>",,html-keyboard-response,102,566732,0.0-13.0-0.18,18280,List2A,white,woman,,,,null,,,,
null,"<img src=""stim_listA/hug3.gif""</stim_listA>",,html-keyboard-response,103,568735,0.0-13.0-1.18,18280,List2A,white,woman,,,,null,,,,
null,is hugging,,html-keyboard-response,104,570736,0.0-13.0-2.18,18280,List2A,white,woman,,,,null,,,,
8066,,,survey-text,105,578804,0.0-13.0-3.18,18280,List2A,white,woman,,,,,"{""Q0"":""Beth is hugging Fred""}","<img src=""stim_listA/hug3.gif""</stim_listA>",is hugging,
null,"<div style=""font-size:60px;"">+</div>",,html-keyboard-response,106,579306,0.0-13.0-0.19,18280,List2A,white,woman,,,,null,,,,
null,"<img src=""stim_listA/fight6.gif""</stim_listA>",,html-keyboard-response,107,581309,0.0-13.0-1.19,18280,List2A,white,woman,,,,null,,,,
null,are fighting each other,,html-keyboard-response,108,583311,0.0-13.0-2.19,18280,List2A,white,woman,,,,null,,,,
12205,,,survey-text,109,595518,0.0-13.0-3.19,18280,List2A,white,woman,,,,,"{""Q0"":""Luke and Fred are fighting each other""}","<img src=""stim_listA/fight6.gif""</stim_listA>",are fighting each other,
12035,"<img src='img/portrait_matrix_list2.JPG' style='width:900px;height:500px;''></img><p>If you have memorised all the portraits and names and are ready to start, press Continue.</p><p><strong>Please note: Your memory of these faces will be tested 4 times during this experiment.</strong></p>",0,html-button-response,110,607555,0.0-14.0-0.0,18280,List2A,white,woman,,,,,,,,
7878,"<img src=""portrait/WM2.jpg""style=""width:400px;height:400px;""></img>",7,html-button-response,111,616441,0.0-14.0-1.0,18280,List2A,white,woman,,TRUE,7,,,,,
null,CORRECT,,html-keyboard-response,112,617944,0.0-14.0-2.0-0.0,18280,List2A,white,woman,,,,null,,,,
2977,"<img src=""portrait/BW2.jpg""style=""width:400px;height:400px;""></img>",2,html-button-response,113,620923,0.0-14.0-4.0,18280,List2A,white,woman,,TRUE,2,,,,,
null,CORRECT,,html-keyboard-response,114,622426,0.0-14.0-5.0-0.0,18280,List2A,white,woman,,,,null,,,,
4242,"<img src=""portrait/BM2.jpg""style=""width:400px;height:400px;""></img>",5,html-button-response,115,626671,0.0-14.0-7.0,18280,List2A,white,woman,,TRUE,5,,,,,
null,CORRECT,,html-keyboard-response,116,628173,0.0-14.0-8.0-0.0,18280,List2A,white,woman,,,,null,,,,
3187,"<img src=""portrait/WW2.jpg""style=""width:400px;height:400px;""></img>",3,html-button-response,117,631363,0.0-14.0-10.0,18280,List2A,white,woman,,TRUE,3,,,,,
null,CORRECT,,html-keyboard-response,118,632865,0.0-14.0-11.0-0.0,18280,List2A,white,woman,,,,null,,,,
2540,"<img src=""portrait/BM1.jpg""style=""width:400px;height:400px;""></img>",4,html-button-response,119,635408,0.0-14.0-13.0,18280,List2A,white,woman,,TRUE,4,,,,,
null,CORRECT,,html-keyboard-response,120,636911,0.0-14.0-14.0-0.0,18280,List2A,white,woman,,,,null,,,,
3299,"<img src=""portrait/WW1.jpg""style=""width:400px;height:400px;""></img>",1,html-button-response,121,640213,0.0-14.0-16.0,18280,List2A,white,woman,,TRUE,1,,,,,
null,CORRECT,,html-keyboard-response,122,641715,0.0-14.0-17.0-0.0,18280,List2A,white,woman,,,,null,,,,
3377,"<img src=""portrait/WM1.jpg""style=""width:400px;height:400px;""></img>",6,html-button-response,123,645094,0.0-14.0-19.0,18280,List2A,white,woman,,TRUE,6,,,,,
null,CORRECT,,html-keyboard-response,124,646597,0.0-14.0-20.0-0.0,18280,List2A,white,woman,,,,null,,,,
2398,"<img src=""portrait/BW1.jpg""style=""width:400px;height:400px;""></img>",0,html-button-response,125,648999,0.0-14.0-22.0,18280,List2A,white,woman,,TRUE,0,,,,,
null,CORRECT,,html-keyboard-response,126,650502,0.0-14.0-23.0-0.0,18280,List2A,white,woman,,,,null,,,,
1792,<p>You got 8 out of 8 right first time. Press Continue.</p>,0,html-button-response,127,652297,0.0-14.0-25.0,18280,List2A,white,woman,,,,,,,,
null,"<div style=""font-size:60px;"">+</div>",,html-keyboard-response,128,653801,0.0-15.0-0.0,18280,List2A,white,woman,,,,null,,,,
null,"<img src=""stim_listA/meet5.gif""</stim_listA>",,html-keyboard-response,129,655806,0.0-15.0-1.0,18280,List2A,white,woman,,,,null,,,,
null,is meeting,,html-keyboard-response,130,657808,0.0-15.0-2.0,18280,List2A,white,woman,,,,null,,,,
7581,,,survey-text,131,665391,0.0-15.0-3.0,18280,List2A,white,woman,,,,,"{""Q0"":""Dave is meeting Mike""}","<img src=""stim_listA/meet5.gif""</stim_listA>",is meeting,
null,"<div style=""font-size:60px;"">+</div>",,html-keyboard-response,132,665894,0.0-15.0-0.1,18280,List2A,white,woman,,,,null,,,,
null,"<img src=""stim_listA/dance4.gif""</stim_listA>",,html-keyboard-response,133,667897,0.0-15.0-1.1,18280,List2A,white,woman,,,,null,,,,
null,are dancing with each other,,html-keyboard-response,134,669899,0.0-15.0-2.1,18280,List2A,white,woman,,,,null,,,,
9746,,,survey-text,135,679647,0.0-15.0-3.1,18280,List2A,white,woman,,,,,"{""Q0"":""Mike and Beth are dancing with Each other""}","<img src=""stim_listA/dance4.gif""</stim_listA>",are dancing with each other,
null,"<div style=""font-size:60px;"">+</div>",,html-keyboard-response,136,680149,0.0-15.0-0.2,18280,List2A,white,woman,,,,null,,,,
null,"<img src=""stim_listA/touch4.gif""</stim_listA>",,html-keyboard-response,137,682151,0.0-15.0-1.2,18280,List2A,white,woman,,,,null,,,,
null,are touching each other,,html-keyboard-response,138,684153,0.0-15.0-2.2,18280,List2A,white,woman,,,,null,,,,
9975,,,survey-text,139,694129,0.0-15.0-3.2,18280,List2A,white,woman,,,,,"{""Q0"":""Fred and Beth are touching each other""}","<img src=""stim_listA/touch4.gif""</stim_listA>",are touching each other,
null,"<div style=""font-size:60px;"">+</div>",,html-keyboard-response,140,694631,0.0-15.0-0.3,18280,List2A,white,woman,,,,null,,,,
null,"<img src=""stim_listA/fight3.gif""</stim_listA>",,html-keyboard-response,141,696634,0.0-15.0-1.3,18280,List2A,white,woman,,,,null,,,,
null,is fighting,,html-keyboard-response,142,698635,0.0-15.0-2.3,18280,List2A,white,woman,,,,null,,,,
6084,,,survey-text,143,704721,0.0-15.0-3.3,18280,List2A,white,woman,,,,,"{""Q0"":""Kate is fighting Mike""}","<img src=""stim_listA/fight3.gif""</stim_listA>",is fighting,
null,"<div style=""font-size:60px;"">+</div>",,html-keyboard-response,144,705223,0.0-15.0-0.4,18280,List2A,white,woman,,,,null,,,,
null,"<img src=""stim_listA/marry3.gif""</stim_listA>",,html-keyboard-response,145,707226,0.0-15.0-1.4,18280,List2A,white,woman,,,,null,,,,
null,is marrying,,html-keyboard-response,146,709228,0.0-15.0-2.4,18280,List2A,white,woman,,,,null,,,,
9526,,,survey-text,147,718756,0.0-15.0-3.4,18280,List2A,white,woman,,,,,"{""Q0"":""Mike is marrying Beth""}","<img src=""stim_listA/marry3.gif""</stim_listA>",is marrying,
null,"<div style=""font-size:60px;"">+</div>",,html-keyboard-response,148,719258,0.0-15.0-0.5,18280,List2A,white,woman,,,,null,,,,
null,"<img src=""stim_listA/dance5.gif""</stim_listA>",,html-keyboard-response,149,721261,0.0-15.0-1.5,18280,List2A,white,woman,,,,null,,,,
null,is dancing with,,html-keyboard-response,150,723263,0.0-15.0-2.5,18280,List2A,white,woman,,,,null,,,,
6434,,,survey-text,151,729699,0.0-15.0-3.5,18280,List2A,white,woman,,,,,"{""Q0"":""Luke is dancing with Mike""}","<img src=""stim_listA/dance5.gif""</stim_listA>",is dancing with,
null,"<div style=""font-size:60px;"">+</div>",,html-keyboard-response,152,730201,0.0-15.0-0.6,18280,List2A,white,woman,,,,null,,,,
null,"<img src=""stim_listA/touch1.gif""</stim_listA>",,html-keyboard-response,153,732204,0.0-15.0-1.6,18280,List2A,white,woman,,,,null,,,,
null,is touching,,html-keyboard-response,154,734206,0.0-15.0-2.6,18280,List2A,white,woman,,,,null,,,,
7338,,,survey-text,155,741544,0.0-15.0-3.6,18280,List2A,white,woman,,,,,"{""Q0"":""Jane is touching Dave""}","<img src=""stim_listA/touch1.gif""</stim_listA>",is touching,
null,"<div style=""font-size:60px;"">+</div>",,html-keyboard-response,156,742047,0.0-15.0-0.7,18280,List2A,white,woman,,,,null,,,,
null,"<img src=""stim_listA/dance1.gif""</stim_listA>",,html-keyboard-response,157,744049,0.0-15.0-1.7,18280,List2A,white,woman,,,,null,,,,
null,is dancing with,,html-keyboard-response,158,746051,0.0-15.0-2.7,18280,List2A,white,woman,,,,null,,,,
7062,,,survey-text,159,753115,0.0-15.0-3.7,18280,List2A,white,woman,,,,,"{""Q0"":""Luke is dancing with Jane""}","<img src=""stim_listA/dance1.gif""</stim_listA>",is dancing with,
null,"<div style=""font-size:60px;"">+</div>",,html-keyboard-response,160,753619,0.0-15.0-0.8,18280,List2A,white,woman,,,,null,,,,
null,"<img src=""stim_listA/kiss4.gif""</stim_listA>",,html-keyboard-response,161,755622,0.0-15.0-1.8,18280,List2A,white,woman,,,,null,,,,
null,are kissing each other,,html-keyboard-response,162,757624,0.0-15.0-2.8,18280,List2A,white,woman,,,,null,,,,
10462,,,survey-text,163,768088,0.0-15.0-3.8,18280,List2A,white,woman,,,,,"{""Q0"":""Kate and Mike are kissing each other""}","<img src=""stim_listA/kiss4.gif""</stim_listA>",are kissing each other,
null,"<div style=""font-size:60px;"">+</div>",,html-keyboard-response,164,768590,0.0-15.0-0.9,18280,List2A,white,woman,,,,null,,,,
null,"<img src=""stim_listA/hug5.gif""</stim_listA>",,html-keyboard-response,165,770593,0.0-15.0-1.9,18280,List2A,white,woman,,,,null,,,,
null,is hugging,,html-keyboard-response,166,772595,0.0-15.0-2.9,18280,List2A,white,woman,,,,null,,,,
5931,,,survey-text,167,778527,0.0-15.0-3.9,18280,List2A,white,woman,,,,,"{""Q0"":""Luke is hugging Fred""}","<img src=""stim_listA/hug5.gif""</stim_listA>",is hugging,
null,"<div style=""font-size:60px;"">+</div>",,html-keyboard-response,168,779031,0.0-15.0-0.10,18280,List2A,white,woman,,,,null,,,,
null,"<img src=""stim_listA/touch6.gif""</stim_listA>",,html-keyboard-response,169,781034,0.0-15.0-1.10,18280,List2A,white,woman,,,,null,,,,
null,are touching each other,,html-keyboard-response,170,783037,0.0-15.0-2.10,18280,List2A,white,woman,,,,null,,,,
9225,,,survey-text,171,792264,0.0-15.0-3.10,18280,List2A,white,woman,,,,,"{""Q0"":""Luke and Fred are hugging each other""}","<img src=""stim_listA/touch6.gif""</stim_listA>",are touching each other,
null,"<div style=""font-size:60px;"">+</div>",,html-keyboard-response,172,792766,0.0-15.0-0.11,18280,List2A,white,woman,,,,null,,,,
null,"<img src=""stim_listA/talk2.gif""</stim_listA>",,html-keyboard-response,173,794771,0.0-15.0-1.11,18280,List2A,white,woman,,,,null,,,,
null,are talking to each other,,html-keyboard-response,174,796772,0.0-15.0-2.11,18280,List2A,white,woman,,,,null,,,,
9147,,,survey-text,175,805921,0.0-15.0-3.11,18280,List2A,white,woman,,,,,"{""Q0"":""Ruth and Dave are talking to each other""}","<img src=""stim_listA/talk2.gif""</stim_listA>",are talking to each other,
null,"<div style=""font-size:60px;"">+</div>",,html-keyboard-response,176,806423,0.0-15.0-0.12,18280,List2A,white,woman,,,,null,,,,
null,"<img src=""stim_listA/kiss3.gif""</stim_listA>",,html-keyboard-response,177,808426,0.0-15.0-1.12,18280,List2A,white,woman,,,,null,,,,
null,is kissing,,html-keyboard-response,178,810429,0.0-15.0-2.12,18280,List2A,white,woman,,,,null,,,,
5591,,,survey-text,179,816021,0.0-15.0-3.12,18280,List2A,white,woman,,,,,"{""Q0"":""Beth is kissing Fred""}","<img src=""stim_listA/kiss3.gif""</stim_listA>",is kissing,
null,"<div style=""font-size:60px;"">+</div>",,html-keyboard-response,180,816524,0.0-15.0-0.13,18280,List2A,white,woman,,,,null,,,,
null,"<img src=""stim_listA/argue3.gif""</stim_listA>",,html-keyboard-response,181,818527,0.0-15.0-1.13,18280,List2A,white,woman,,,,null,,,,
null,is arguing with,,html-keyboard-response,182,820529,0.0-15.0-2.13,18280,List2A,white,woman,,,,null,,,,
7188,,,survey-text,183,827719,0.0-15.0-3.13,18280,List2A,white,woman,,,,,"{""Q0"":""Mike is arguing with Beth""}","<img src=""stim_listA/argue3.gif""</stim_listA>",is arguing with,
null,"<div style=""font-size:60px;"">+</div>",,html-keyboard-response,184,828221,0.0-15.0-0.14,18280,List2A,white,woman,,,,null,,,,
null,"<img src=""stim_listA/kiss8.gif""</stim_listA>",,html-keyboard-response,185,830224,0.0-15.0-1.14,18280,List2A,white,woman,,,,null,,,,
null,are kissing each other,,html-keyboard-response,186,832226,0.0-15.0-2.14,18280,List2A,white,woman,,,,null,,,,
12429,,,survey-text,187,844657,0.0-15.0-3.14,18280,List2A,white,woman,,,,,"{""Q0"":""Jane and Kate are kissing each other""}","<img src=""stim_listA/kiss8.gif""</stim_listA>",are kissing each other,
null,"<div style=""font-size:60px;"">+</div>",,html-keyboard-response,188,845160,0.0-15.0-0.15,18280,List2A,white,woman,,,,null,,,,
null,"<img src=""stim_listA/dance6.gif""</stim_listA>",,html-keyboard-response,189,847163,0.0-15.0-1.15,18280,List2A,white,woman,,,,null,,,,
null,are dancing with each other,,html-keyboard-response,190,849165,0.0-15.0-2.15,18280,List2A,white,woman,,,,null,,,,
11923,,,survey-text,191,861089,0.0-15.0-3.15,18280,List2A,white,woman,,,,,"{""Q0"":""Dave and Fred are dancing with each other""}","<img src=""stim_listA/dance6.gif""</stim_listA>",are dancing with each other,
null,"<div style=""font-size:60px;"">+</div>",,html-keyboard-response,192,861591,0.0-15.0-0.16,18280,List2A,white,woman,,,,null,,,,
null,"<img src=""stim_listA/kiss5.gif""</stim_listA>",,html-keyboard-response,193,863594,0.0-15.0-1.16,18280,List2A,white,woman,,,,null,,,,
null,is kissing,,html-keyboard-response,194,865596,0.0-15.0-2.16,18280,List2A,white,woman,,,,null,,,,
5921,,,survey-text,195,871519,0.0-15.0-3.16,18280,List2A,white,woman,,,,,"{""Q0"":""Luke is kissing Fred""}","<img src=""stim_listA/kiss5.gif""</stim_listA>",is kissing,
null,"<div style=""font-size:60px;"">+</div>",,html-keyboard-response,196,872021,0.0-15.0-0.17,18280,List2A,white,woman,,,,null,,,,
null,"<img src=""stim_listA/fight8.gif""</stim_listA>",,html-keyboard-response,197,874025,0.0-15.0-1.17,18280,List2A,white,woman,,,,null,,,,
null,are fighting each other,,html-keyboard-response,198,876027,0.0-15.0-2.17,18280,List2A,white,woman,,,,null,,,,
9006,,,survey-text,199,885035,0.0-15.0-3.17,18280,List2A,white,woman,,,,,"{""Q0"":""Ruth and Beth are fighting each other""}","<img src=""stim_listA/fight8.gif""</stim_listA>",are fighting each other,
null,"<div style=""font-size:60px;"">+</div>",,html-keyboard-response,200,885537,0.0-15.0-0.18,18280,List2A,white,woman,,,,null,,,,
null,"<img src=""stim_listA/marry4.gif""</stim_listA>",,html-keyboard-response,201,887540,0.0-15.0-1.18,18280,List2A,white,woman,,,,null,,,,
null,are marrying each other,,html-keyboard-response,202,889542,0.0-15.0-2.18,18280,List2A,white,woman,,,,null,,,,
9990,,,survey-text,203,899534,0.0-15.0-3.18,18280,List2A,white,woman,,,,,"{""Q0"":""Kate and Fred are marrying each other""}","<img src=""stim_listA/marry4.gif""</stim_listA>",are marrying each other,
null,"<div style=""font-size:60px;"">+</div>",,html-keyboard-response,204,900037,0.0-15.0-0.19,18280,List2A,white,woman,,,,null,,,,
null,"<img src=""stim_listA/kiss1.gif""</stim_listA>",,html-keyboard-response,205,902040,0.0-15.0-1.19,18280,List2A,white,woman,,,,null,,,,
null,is kissing,,html-keyboard-response,206,904041,0.0-15.0-2.19,18280,List2A,white,woman,,,,null,,,,
10667,,,survey-text,207,914709,0.0-15.0-3.19,18280,List2A,white,woman,,,,,"{""Q0"":""Ruth is Kissing Luke""}","<img src=""stim_listA/kiss1.gif""</stim_listA>",is kissing,
12459,"<img src='img/portrait_matrix_list2.JPG' style='width:900px;height:500px;''></img><p>If you have memorised all the portraits and names and are ready to start, press Continue.</p><p><strong>Please note: Your memory of these faces will be tested 4 times during this experiment.</strong></p>",0,html-button-response,208,927170,0.0-16.0-0.0,18280,List2A,white,woman,,,,,,,,
4988,"<img src=""portrait/WM1.jpg""style=""width:400px;height:400px;""></img>",6,html-button-response,209,933162,0.0-16.0-1.0,18280,List2A,white,woman,,TRUE,6,,,,,
null,CORRECT,,html-keyboard-response,210,934665,0.0-16.0-2.0-0.0,18280,List2A,white,woman,,,,null,,,,
2172,"<img src=""portrait/BM2.jpg""style=""width:400px;height:400px;""></img>",5,html-button-response,211,936840,0.0-16.0-4.0,18280,List2A,white,woman,,TRUE,5,,,,,
null,CORRECT,,html-keyboard-response,212,938344,0.0-16.0-5.0-0.0,18280,List2A,white,woman,,,,null,,,,
1701,"<img src=""portrait/BW2.jpg""style=""width:400px;height:400px;""></img>",2,html-button-response,213,940047,0.0-16.0-7.0,18280,List2A,white,woman,,TRUE,2,,,,,
null,CORRECT,,html-keyboard-response,214,941553,0.0-16.0-8.0-0.0,18280,List2A,white,woman,,,,null,,,,
1778,"<img src=""portrait/WM2.jpg""style=""width:400px;height:400px;""></img>",7,html-button-response,215,943334,0.0-16.0-10.0,18280,List2A,white,woman,,TRUE,7,,,,,
null,CORRECT,,html-keyboard-response,216,944837,0.0-16.0-11.0-0.0,18280,List2A,white,woman,,,,null,,,,
2035,"<img src=""portrait/BM1.jpg""style=""width:400px;height:400px;""></img>",4,html-button-response,217,946876,0.0-16.0-13.0,18280,List2A,white,woman,,TRUE,4,,,,,
null,CORRECT,,html-keyboard-response,218,948379,0.0-16.0-14.0-0.0,18280,List2A,white,woman,,,,null,,,,
1827,"<img src=""portrait/BW1.jpg""style=""width:400px;height:400px;""></img>",0,html-button-response,219,950208,0.0-16.0-16.0,18280,List2A,white,woman,,TRUE,0,,,,,
null,CORRECT,,html-keyboard-response,220,951711,0.0-16.0-17.0-0.0,18280,List2A,white,woman,,,,null,,,,
2053,"<img src=""portrait/WW1.jpg""style=""width:400px;height:400px;""></img>",1,html-button-response,221,953768,0.0-16.0-19.0,18280,List2A,white,woman,,TRUE,1,,,,,
null,CORRECT,,html-keyboard-response,222,955272,0.0-16.0-20.0-0.0,18280,List2A,white,woman,,,,null,,,,
2866,"<img src=""portrait/WW2.jpg""style=""width:400px;height:400px;""></img>",3,html-button-response,223,958140,0.0-16.0-22.0,18280,List2A,white,woman,,TRUE,3,,,,,
null,CORRECT,,html-keyboard-response,224,959645,0.0-16.0-23.0-0.0,18280,List2A,white,woman,,,,null,,,,
3328,<p>You got 8 out of 8 right first time. Press Continue.</p>,0,html-button-response,225,962975,0.0-16.0-25.0,18280,List2A,white,woman,,,,,,,,
null,"<div style=""font-size:60px;"">+</div>",,html-keyboard-response,226,964478,0.0-17.0-0.0,18280,List2A,white,woman,,,,null,,,,
null,"<img src=""stim_listA/marry7.gif""</stim_listA>",,html-keyboard-response,227,966479,0.0-17.0-1.0,18280,List2A,white,woman,,,,null,,,,
null,is marrying,,html-keyboard-response,228,968482,0.0-17.0-2.0,18280,List2A,white,woman,,,,null,,,,
8739,,,survey-text,229,977223,0.0-17.0-3.0,18280,List2A,white,woman,,,,,"{""Q0"":""Jane is marrying Beth""}","<img src=""stim_listA/marry7.gif""</stim_listA>",is marrying,
null,"<div style=""font-size:60px;"">+</div>",,html-keyboard-response,230,977725,0.0-17.0-0.1,18280,List2A,white,woman,,,,null,,,,
null,"<img src=""stim_listA/talk6.gif""</stim_listA>",,html-keyboard-response,231,979728,0.0-17.0-1.1,18280,List2A,white,woman,,,,null,,,,
null,are talking to each other,,html-keyboard-response,232,981731,0.0-17.0-2.1,18280,List2A,white,woman,,,,null,,,,
9102,,,survey-text,233,990834,0.0-17.0-3.1,18280,List2A,white,woman,,,,,"{""Q0"":""Fred and Dave are talking to each other""}","<img src=""stim_listA/talk6.gif""</stim_listA>",are talking to each other,
null,"<div style=""font-size:60px;"">+</div>",,html-keyboard-response,234,991335,0.0-17.0-0.2,18280,List2A,white,woman,,,,null,,,,
null,"<img src=""stim_listA/kiss7.gif""</stim_listA>",,html-keyboard-response,235,993338,0.0-17.0-1.2,18280,List2A,white,woman,,,,null,,,,
null,is kissing,,html-keyboard-response,236,995341,0.0-17.0-2.2,18280,List2A,white,woman,,,,null,,,,
6724,,,survey-text,237,1002067,0.0-17.0-3.2,18280,List2A,white,woman,,,,,"{""Q0"":""Ruth is kissing Beth""}","<img src=""stim_listA/kiss7.gif""</stim_listA>",is kissing,
null,"<div style=""font-size:60px;"">+</div>",,html-keyboard-response,238,1002569,0.0-17.0-0.3,18280,List2A,white,woman,,,,null,,,,
null,"<img src=""stim_listA/dance2.gif""</stim_listA>",,html-keyboard-response,239,1004572,0.0-17.0-1.3,18280,List2A,white,woman,,,,null,,,,
null,are dancing with each other,,html-keyboard-response,240,1006574,0.0-17.0-2.3,18280,List2A,white,woman,,,,null,,,,
9489,,,survey-text,241,1016065,0.0-17.0-3.3,18280,List2A,white,woman,,,,,"{""Q0"":""Dave and Ruth are dancing with each other""}","<img src=""stim_listA/dance2.gif""</stim_listA>",are dancing with each other,
null,"<div style=""font-size:60px;"">+</div>",,html-keyboard-response,242,1016568,0.0-17.0-0.4,18280,List2A,white,woman,,,,null,,,,
null,"<img src=""stim_listA/meet1.gif""</stim_listA>",,html-keyboard-response,243,1018571,0.0-17.0-1.4,18280,List2A,white,woman,,,,null,,,,
null,is meeting,,html-keyboard-response,244,1020573,0.0-17.0-2.4,18280,List2A,white,woman,,,,null,,,,
5324,,,survey-text,245,1025898,0.0-17.0-3.4,18280,List2A,white,woman,,,,,"{""Q0"":""Jane is meeting Dave""}","<img src=""stim_listA/meet1.gif""</stim_listA>",is meeting,
null,"<div style=""font-size:60px;"">+</div>",,html-keyboard-response,246,1026401,0.0-17.0-0.5,18280,List2A,white,woman,,,,null,,,,
null,"<img src=""stim_listA/touch7.gif""</stim_listA>",,html-keyboard-response,247,1028404,0.0-17.0-1.5,18280,List2A,white,woman,,,,null,,,,
null,is touching,,html-keyboard-response,248,1030406,0.0-17.0-2.5,18280,List2A,white,woman,,,,null,,,,
7135,,,survey-text,249,1037543,0.0-17.0-3.5,18280,List2A,white,woman,,,,,"{""Q0"":""Kate is touching Jane""}","<img src=""stim_listA/touch7.gif""</stim_listA>",is touching,
null,"<div style=""font-size:60px;"">+</div>",,html-keyboard-response,250,1038046,0.0-17.0-0.6,18280,List2A,white,woman,,,,null,,,,
null,"<img src=""stim_listA/argue6.gif""</stim_listA>",,html-keyboard-response,251,1040049,0.0-17.0-1.6,18280,List2A,white,woman,,,,null,,,,
null,are arguing with each other,,html-keyboard-response,252,1042050,0.0-17.0-2.6,18280,List2A,white,woman,,,,null,,,,
9347,,,survey-text,253,1051399,0.0-17.0-3.6,18280,List2A,white,woman,,,,,"{""Q0"":""Mike and Luke are arguing with each other.""}","<img src=""stim_listA/argue6.gif""</stim_listA>",are arguing with each other,
null,"<div style=""font-size:60px;"">+</div>",,html-keyboard-response,254,1051901,0.0-17.0-0.7,18280,List2A,white,woman,,,,null,,,,
null,"<img src=""stim_listA/talk4.gif""</stim_listA>",,html-keyboard-response,255,1053904,0.0-17.0-1.7,18280,List2A,white,woman,,,,null,,,,
null,are talking to each other,,html-keyboard-response,256,1055906,0.0-17.0-2.7,18280,List2A,white,woman,,,,null,,,,
9815,,,survey-text,257,1065722,0.0-17.0-3.7,18280,List2A,white,woman,,,,,"{""Q0"":""Mike and Beth are talking to each other""}","<img src=""stim_listA/talk4.gif""</stim_listA>",are talking to each other,
null,"<div style=""font-size:60px;"">+</div>",,html-keyboard-response,258,1066225,0.0-17.0-0.8,18280,List2A,white,woman,,,,null,,,,
null,"<img src=""stim_listA/talk3.gif""</stim_listA>",,html-keyboard-response,259,1068228,0.0-17.0-1.8,18280,List2A,white,woman,,,,null,,,,
null,is talking to,,html-keyboard-response,260,1070230,0.0-17.0-2.8,18280,List2A,white,woman,,,,null,,,,
12642,,,survey-text,261,1082874,0.0-17.0-3.8,18280,List2A,white,woman,,,,,"{""Q0"":""Kate is talking to Fred""}","<img src=""stim_listA/talk3.gif""</stim_listA>",is talking to,
null,"<div style=""font-size:60px;"">+</div>",,html-keyboard-response,262,1083377,0.0-17.0-0.9,18280,List2A,white,woman,,,,null,,,,
null,"<img src=""stim_listA/shout2.gif""</stim_listA>",,html-keyboard-response,263,1085380,0.0-17.0-1.9,18280,List2A,white,woman,,,,null,,,,
null,are shouting at each other,,html-keyboard-response,264,1087382,0.0-17.0-2.9,18280,List2A,white,woman,,,,null,,,,
7883,,,survey-text,265,1095267,0.0-17.0-3.9,18280,List2A,white,woman,,,,,"{""Q0"":""Jane and Dave are shouting at each other""}","<img src=""stim_listA/shout2.gif""</stim_listA>",are shouting at each other,
null,"<div style=""font-size:60px;"">+</div>",,html-keyboard-response,266,1095769,0.0-17.0-0.10,18280,List2A,white,woman,,,,null,,,,
null,"<img src=""stim_listA/shout4.gif""</stim_listA>",,html-keyboard-response,267,1097773,0.0-17.0-1.10,18280,List2A,white,woman,,,,null,,,,
null,are shouting at each other,,html-keyboard-response,268,1099775,0.0-17.0-2.10,18280,List2A,white,woman,,,,null,,,,
16337,,,survey-text,269,1116114,0.0-17.0-3.10,18280,List2A,white,woman,,,,,"{""Q0"":""Mike and Kate are shouting at each other""}","<img src=""stim_listA/shout4.gif""</stim_listA>",are shouting at each other,
null,"<div style=""font-size:60px;"">+</div>",,html-keyboard-response,270,1116617,0.0-17.0-0.11,18280,List2A,white,woman,,,,null,,,,
null,"<img src=""stim_listA/hug2.gif""</stim_listA>",,html-keyboard-response,271,1118619,0.0-17.0-1.11,18280,List2A,white,woman,,,,null,,,,
null,are hugging each other,,html-keyboard-response,272,1120621,0.0-17.0-2.11,18280,List2A,white,woman,,,,null,,,,
10129,,,survey-text,273,1130752,0.0-17.0-3.11,18280,List2A,white,woman,,,,,"{""Q0"":""Jane and Dave are hugging each other""}","<img src=""stim_listA/hug2.gif""</stim_listA>",are hugging each other,
null,"<div style=""font-size:60px;"">+</div>",,html-keyboard-response,274,1131254,0.0-17.0-0.12,18280,List2A,white,woman,,,,null,,,,
null,"<img src=""stim_listA/kiss6.gif""</stim_listA>",,html-keyboard-response,275,1133258,0.0-17.0-1.12,18280,List2A,white,woman,,,,null,,,,
null,are kissing each other,,html-keyboard-response,276,1135260,0.0-17.0-2.12,18280,List2A,white,woman,,,,null,,,,
7941,,,survey-text,277,1143203,0.0-17.0-3.12,18280,List2A,white,woman,,,,,"{""Q0"":""Mike and Dave are kissing each other""}","<img src=""stim_listA/kiss6.gif""</stim_listA>",are kissing each other,
null,"<div style=""font-size:60px;"">+</div>",,html-keyboard-response,278,1143706,0.0-17.0-0.13,18280,List2A,white,woman,,,,null,,,,
null,"<img src=""stim_listA/fight7.gif""</stim_listA>",,html-keyboard-response,279,1145709,0.0-17.0-1.13,18280,List2A,white,woman,,,,null,,,,
null,is fighting,,html-keyboard-response,280,1147711,0.0-17.0-2.13,18280,List2A,white,woman,,,,null,,,,
7940,,,survey-text,281,1155653,0.0-17.0-3.13,18280,List2A,white,woman,,,,,"{""Q0"":""Jane is fighting Kate""}","<img src=""stim_listA/fight7.gif""</stim_listA>",is fighting,
null,"<div style=""font-size:60px;"">+</div>",,html-keyboard-response,282,1156155,0.0-17.0-0.14,18280,List2A,white,woman,,,,null,,,,
null,"<img src=""stim_listA/shout1.gif""</stim_listA>",,html-keyboard-response,283,1158158,0.0-17.0-1.14,18280,List2A,white,woman,,,,null,,,,
null,is shouting at,,html-keyboard-response,284,1160160,0.0-17.0-2.14,18280,List2A,white,woman,,,,null,,,,
5696,,,survey-text,285,1165857,0.0-17.0-3.14,18280,List2A,white,woman,,,,,"{""Q0"":""Ruth is shouting at Luke""}","<img src=""stim_listA/shout1.gif""</stim_listA>",is shouting at,
null,"<div style=""font-size:60px;"">+</div>",,html-keyboard-response,286,1166358,0.0-17.0-0.15,18280,List2A,white,woman,,,,null,,,,
null,"<img src=""stim_listA/fight5.gif""</stim_listA>",,html-keyboard-response,287,1168361,0.0-17.0-1.15,18280,List2A,white,woman,,,,null,,,,
null,is fighting,,html-keyboard-response,288,1170363,0.0-17.0-2.15,18280,List2A,white,woman,,,,null,,,,
6354,,,survey-text,289,1176719,0.0-17.0-3.15,18280,List2A,white,woman,,,,,"{""Q0"":""Mike is fighting Dave""}","<img src=""stim_listA/fight5.gif""</stim_listA>",is fighting,
null,"<div style=""font-size:60px;"">+</div>",,html-keyboard-response,290,1177221,0.0-17.0-0.16,18280,List2A,white,woman,,,,null,,,,
null,"<img src=""stim_listA/fight2.gif""</stim_listA>",,html-keyboard-response,291,1179223,0.0-17.0-1.16,18280,List2A,white,woman,,,,null,,,,
null,are fighting each other,,html-keyboard-response,292,1181226,0.0-17.0-2.16,18280,List2A,white,woman,,,,null,,,,
11423,,,survey-text,293,1192652,0.0-17.0-3.16,18280,List2A,white,woman,,,,,"{""Q0"":""Luke and Ruth are fighting each other""}","<img src=""stim_listA/fight2.gif""</stim_listA>",are fighting each other,
null,"<div style=""font-size:60px;"">+</div>",,html-keyboard-response,294,1193155,0.0-17.0-0.17,18280,List2A,white,woman,,,,null,,,,
null,"<img src=""stim_listA/dance8.gif""</stim_listA>",,html-keyboard-response,295,1195158,0.0-17.0-1.17,18280,List2A,white,woman,,,,null,,,,
null,are dancing with each other,,html-keyboard-response,296,1197161,0.0-17.0-2.17,18280,List2A,white,woman,,,,null,,,,
7761,,,survey-text,297,1204922,0.0-17.0-3.17,18280,List2A,white,woman,,,,,"{""Q0"":""Jane and Beth are dancing with each other""}","<img src=""stim_listA/dance8.gif""</stim_listA>",are dancing with each other,
null,"<div style=""font-size:60px;"">+</div>",,html-keyboard-response,298,1205425,0.0-17.0-0.18,18280,List2A,white,woman,,,,null,,,,
null,"<img src=""stim_listA/shout6.gif""</stim_listA>",,html-keyboard-response,299,1207427,0.0-17.0-1.18,18280,List2A,white,woman,,,,null,,,,
null,are shouting at each other,,html-keyboard-response,300,1209429,0.0-17.0-2.18,18280,List2A,white,woman,,,,null,,,,
12477,,,survey-text,301,1221908,0.0-17.0-3.18,18280,List2A,white,woman,,,,,"{""Q0"":""Mike and Dave are shouting at each other""}","<img src=""stim_listA/shout6.gif""</stim_listA>",are shouting at each other,
null,"<div style=""font-size:60px;"">+</div>",,html-keyboard-response,302,1222411,0.0-17.0-0.19,18280,List2A,white,woman,,,,null,,,,
null,"<img src=""stim_listA/fight4.gif""</stim_listA>",,html-keyboard-response,303,1224413,0.0-17.0-1.19,18280,List2A,white,woman,,,,null,,,,
null,are fighting each other,,html-keyboard-response,304,1226416,0.0-17.0-2.19,18280,List2A,white,woman,,,,null,,,,
11889,,,survey-text,305,1238307,0.0-17.0-3.19,18280,List2A,white,woman,,,,,"{""Q0"":""Fred and Beth are fighting each other.""}","<img src=""stim_listA/fight4.gif""</stim_listA>",are fighting each other,
49730,"<img src='img/portrait_matrix_list2.JPG' style='width:900px;height:500px;''></img><p>If you have memorised all the portraits and names and are ready to start, press Continue.</p><p><strong>Please note: Your memory of these faces will be tested 4 times during this experiment.</strong></p>",0,html-button-response,306,1288039,0.0-18.0-0.0,18280,List2A,white,woman,,,,,,,,
1677,"<img src=""portrait/BW2.jpg""style=""width:400px;height:400px;""></img>",2,html-button-response,307,1290719,0.0-18.0-1.0,18280,List2A,white,woman,,TRUE,2,,,,,
null,CORRECT,,html-keyboard-response,308,1292222,0.0-18.0-2.0-0.0,18280,List2A,white,woman,,,,null,,,,
3343,"<img src=""portrait/WM2.jpg""style=""width:400px;height:400px;""></img>",7,html-button-response,309,1295567,0.0-18.0-4.0,18280,List2A,white,woman,,TRUE,7,,,,,
null,CORRECT,,html-keyboard-response,310,1297070,0.0-18.0-5.0-0.0,18280,List2A,white,woman,,,,null,,,,
6967,"<img src=""portrait/WM1.jpg""style=""width:400px;height:400px;""></img>",6,html-button-response,311,1304039,0.0-18.0-7.0,18280,List2A,white,woman,,TRUE,6,,,,,
null,CORRECT,,html-keyboard-response,312,1305542,0.0-18.0-8.0-0.0,18280,List2A,white,woman,,,,null,,,,
2710,"<img src=""portrait/BW1.jpg""style=""width:400px;height:400px;""></img>",0,html-button-response,313,1308255,0.0-18.0-10.0,18280,List2A,white,woman,,TRUE,0,,,,,
null,CORRECT,,html-keyboard-response,314,1309757,0.0-18.0-11.0-0.0,18280,List2A,white,woman,,,,null,,,,
2367,"<img src=""portrait/WW2.jpg""style=""width:400px;height:400px;""></img>",3,html-button-response,315,1312127,0.0-18.0-13.0,18280,List2A,white,woman,,TRUE,3,,,,,
null,CORRECT,,html-keyboard-response,316,1313632,0.0-18.0-14.0-0.0,18280,List2A,white,woman,,,,null,,,,
5476,"<img src=""portrait/BM1.jpg""style=""width:400px;height:400px;""></img>",4,html-button-response,317,1319111,0.0-18.0-16.0,18280,List2A,white,woman,,TRUE,4,,,,,
null,CORRECT,,html-keyboard-response,318,1320615,0.0-18.0-17.0-0.0,18280,List2A,white,woman,,,,null,,,,
2902,"<img src=""portrait/BM2.jpg""style=""width:400px;height:400px;""></img>",5,html-button-response,319,1323519,0.0-18.0-19.0,18280,List2A,white,woman,,TRUE,5,,,,,
null,CORRECT,,html-keyboard-response,320,1325022,0.0-18.0-20.0-0.0,18280,List2A,white,woman,,,,null,,,,
3014,"<img src=""portrait/WW1.jpg""style=""width:400px;height:400px;""></img>",1,html-button-response,321,1328039,0.0-18.0-22.0,18280,List2A,white,woman,,TRUE,1,,,,,
null,CORRECT,,html-keyboard-response,322,1329543,0.0-18.0-23.0-0.0,18280,List2A,white,woman,,,,null,,,,
6334,<p>You got 8 out of 8 right first time. Press Continue.</p>,0,html-button-response,323,1335879,0.0-18.0-25.0,18280,List2A,white,woman,,,,,,,,
null,"<div style=""font-size:60px;"">+</div>",,html-keyboard-response,324,1337382,0.0-19.0-0.0,18280,List2A,white,woman,,,,null,,,,
null,"<img src=""stim_listA/hug8.gif""</stim_listA>",,html-keyboard-response,325,1339385,0.0-19.0-1.0,18280,List2A,white,woman,,,,null,,,,
null,are hugging each other,,html-keyboard-response,326,1341388,0.0-19.0-2.0,18280,List2A,white,woman,,,,null,,,,
9656,,,survey-text,327,1351045,0.0-19.0-3.0,18280,List2A,white,woman,,,,,"{""Q0"":""Kate and Jane are hugging Each other""}","<img src=""stim_listA/hug8.gif""</stim_listA>",are hugging each other,
null,"<div style=""font-size:60px;"">+</div>",,html-keyboard-response,328,1351548,0.0-19.0-0.1,18280,List2A,white,woman,,,,null,,,,
null,"<img src=""stim_listA/hug7.gif""</stim_listA>",,html-keyboard-response,329,1353550,0.0-19.0-1.1,18280,List2A,white,woman,,,,null,,,,
null,is hugging,,html-keyboard-response,330,1355552,0.0-19.0-2.1,18280,List2A,white,woman,,,,null,,,,
8221,,,survey-text,331,1363775,0.0-19.0-3.1,18280,List2A,white,woman,,,,,"{""Q0"":""Beth is hugging Ruth""}","<img src=""stim_listA/hug7.gif""</stim_listA>",is hugging,
null,"<div style=""font-size:60px;"">+</div>",,html-keyboard-response,332,1364276,0.0-19.0-0.2,18280,List2A,white,woman,,,,null,,,,
null,"<img src=""stim_listA/talk5.gif""</stim_listA>",,html-keyboard-response,333,1366281,0.0-19.0-1.2,18280,List2A,white,woman,,,,null,,,,
null,is talking to,,html-keyboard-response,334,1368282,0.0-19.0-2.2,18280,List2A,white,woman,,,,null,,,,
8085,,,survey-text,335,1376369,0.0-19.0-3.2,18280,List2A,white,woman,,,,,"{""Q0"":""Luke is talking to Mike""}","<img src=""stim_listA/talk5.gif""</stim_listA>",is talking to,
null,"<div style=""font-size:60px;"">+</div>",,html-keyboard-response,336,1376870,0.0-19.0-0.3,18280,List2A,white,woman,,,,null,,,,
null,"<img src=""stim_listA/meet2.gif""</stim_listA>",,html-keyboard-response,337,1378874,0.0-19.0-1.3,18280,List2A,white,woman,,,,null,,,,
null,are meeting each other,,html-keyboard-response,338,1380876,0.0-19.0-2.3,18280,List2A,white,woman,,,,null,,,,
13214,,,survey-text,339,1394092,0.0-19.0-3.3,18280,List2A,white,woman,,,,,"{""Q0"":""Luke and Ruth are meeting each other""}","<img src=""stim_listA/meet2.gif""</stim_listA>",are meeting each other,
null,"<div style=""font-size:60px;"">+</div>",,html-keyboard-response,340,1394594,0.0-19.0-0.4,18280,List2A,white,woman,,,,null,,,,
null,"<img src=""stim_listA/shout8.gif""</stim_listA>",,html-keyboard-response,341,1396597,0.0-19.0-1.4,18280,List2A,white,woman,,,,null,,,,
null,are shouting at each other,,html-keyboard-response,342,1398601,0.0-19.0-2.4,18280,List2A,white,woman,,,,null,,,,
13641,,,survey-text,343,1412244,0.0-19.0-3.4,18280,List2A,white,woman,,,,,"{""Q0"":""Kate and Jane are yelling at each other""}","<img src=""stim_listA/shout8.gif""</stim_listA>",are shouting at each other,
null,"<div style=""font-size:60px;"">+</div>",,html-keyboard-response,344,1412746,0.0-19.0-0.5,18280,List2A,white,woman,,,,null,,,,
null,"<img src=""stim_listA/dance3.gif""</stim_listA>",,html-keyboard-response,345,1414749,0.0-19.0-1.5,18280,List2A,white,woman,,,,null,,,,
null,is dancing with,,html-keyboard-response,346,1416750,0.0-19.0-2.5,18280,List2A,white,woman,,,,null,,,,
6309,,,survey-text,347,1423061,0.0-19.0-3.5,18280,List2A,white,woman,,,,,"{""Q0"":""Fred is dancing with Kate""}","<img src=""stim_listA/dance3.gif""</stim_listA>",is dancing with,
null,"<div style=""font-size:60px;"">+</div>",,html-keyboard-response,348,1423562,0.0-19.0-0.6,18280,List2A,white,woman,,,,null,,,,
null,"<img src=""stim_listA/meet7.gif""</stim_listA>",,html-keyboard-response,349,1425565,0.0-19.0-1.6,18280,List2A,white,woman,,,,null,,,,
null,is meeting,,html-keyboard-response,350,1427569,0.0-19.0-2.6,18280,List2A,white,woman,,,,null,,,,
5668,,,survey-text,351,1433239,0.0-19.0-3.6,18280,List2A,white,woman,,,,,"{""Q0"":""Jane is meeting Kate""}","<img src=""stim_listA/meet7.gif""</stim_listA>",is meeting,
null,"<div style=""font-size:60px;"">+</div>",,html-keyboard-response,352,1433741,0.0-19.0-0.7,18280,List2A,white,woman,,,,null,,,,
null,"<img src=""stim_listA/argue8.gif""</stim_listA>",,html-keyboard-response,353,1435744,0.0-19.0-1.7,18280,List2A,white,woman,,,,null,,,,
null,are arguing with each other,,html-keyboard-response,354,1437747,0.0-19.0-2.7,18280,List2A,white,woman,,,,null,,,,
9185,,,survey-text,355,1446934,0.0-19.0-3.7,18280,List2A,white,woman,,,,,"{""Q0"":""Ruth and Kate are arguing with each other""}","<img src=""stim_listA/argue8.gif""</stim_listA>",are arguing with each other,
null,"<div style=""font-size:60px;"">+</div>",,html-keyboard-response,356,1447437,0.0-19.0-0.8,18280,List2A,white,woman,,,,null,,,,
null,"<img src=""stim_listA/touch5.gif""</stim_listA>",,html-keyboard-response,357,1449441,0.0-19.0-1.8,18280,List2A,white,woman,,,,null,,,,
null,is touching,,html-keyboard-response,358,1451443,0.0-19.0-2.8,18280,List2A,white,woman,,,,null,,,,
6595,,,survey-text,359,1458039,0.0-19.0-3.8,18280,List2A,white,woman,,,,,"{""Q0"":""Mike is touching Dave""}","<img src=""stim_listA/touch5.gif""</stim_listA>",is touching,
null,"<div style=""font-size:60px;"">+</div>",,html-keyboard-response,360,1458542,0.0-19.0-0.9,18280,List2A,white,woman,,,,null,,,,
null,"<img src=""stim_listA/shout3.gif""</stim_listA>",,html-keyboard-response,361,1460544,0.0-19.0-1.9,18280,List2A,white,woman,,,,null,,,,
null,is shouting at,,html-keyboard-response,362,1462547,0.0-19.0-2.9,18280,List2A,white,woman,,,,null,,,,
6241,,,survey-text,363,1468789,0.0-19.0-3.9,18280,List2A,white,woman,,,,,"{""Q0"":""Beth is shouting at Fred""}","<img src=""stim_listA/shout3.gif""</stim_listA>",is shouting at,
null,"<div style=""font-size:60px;"">+</div>",,html-keyboard-response,364,1469293,0.0-19.0-0.10,18280,List2A,white,woman,,,,null,,,,
null,"<img src=""stim_listA/marry6.gif""</stim_listA>",,html-keyboard-response,365,1471296,0.0-19.0-1.10,18280,List2A,white,woman,,,,null,,,,
null,are marrying each other,,html-keyboard-response,366,1473298,0.0-19.0-2.10,18280,List2A,white,woman,,,,null,,,,
9222,,,survey-text,367,1482521,0.0-19.0-3.10,18280,List2A,white,woman,,,,,"{""Q0"":""Fred and Luke are marrying each other""}","<img src=""stim_listA/marry6.gif""</stim_listA>",are marrying each other,
null,"<div style=""font-size:60px;"">+</div>",,html-keyboard-response,368,1483023,0.0-19.0-0.11,18280,List2A,white,woman,,,,null,,,,
null,"<img src=""stim_listA/fight1.gif""</stim_listA>",,html-keyboard-response,369,1485026,0.0-19.0-1.11,18280,List2A,white,woman,,,,null,,,,
null,is fighting,,html-keyboard-response,370,1487029,0.0-19.0-2.11,18280,List2A,white,woman,,,,null,,,,
8992,,,survey-text,371,1496023,0.0-19.0-3.11,18280,List2A,white,woman,,,,,"{""Q0"":""Jane is fighting Luke""}","<img src=""stim_listA/fight1.gif""</stim_listA>",is fighting,
null,"<div style=""font-size:60px;"">+</div>",,html-keyboard-response,372,1496526,0.0-19.0-0.12,18280,List2A,white,woman,,,,null,,,,
null,"<img src=""stim_listA/hug6.gif""</stim_listA>",,html-keyboard-response,373,1498528,0.0-19.0-1.12,18280,List2A,white,woman,,,,null,,,,
null,are hugging each other,,html-keyboard-response,374,1500530,0.0-19.0-2.12,18280,List2A,white,woman,,,,null,,,,
17583,,,survey-text,375,1518114,0.0-19.0-3.12,18280,List2A,white,woman,,,,,"{""Q0"":""Mike and Dave are hugging each other""}","<img src=""stim_listA/hug6.gif""</stim_listA>",are hugging each other,
null,"<div style=""font-size:60px;"">+</div>",,html-keyboard-response,376,1518617,0.0-19.0-0.13,18280,List2A,white,woman,,,,null,,,,
null,"<img src=""stim_listA/shout7.gif""</stim_listA>",,html-keyboard-response,377,1520620,0.0-19.0-1.13,18280,List2A,white,woman,,,,null,,,,
null,is shouting at,,html-keyboard-response,378,1522622,0.0-19.0-2.13,18280,List2A,white,woman,,,,null,,,,
6991,,,survey-text,379,1529615,0.0-19.0-3.13,18280,List2A,white,woman,,,,,"{""Q0"":""Beth is shouting at Ruth""}","<img src=""stim_listA/shout7.gif""</stim_listA>",is shouting at,
null,"<div style=""font-size:60px;"">+</div>",,html-keyboard-response,380,1530117,0.0-19.0-0.14,18280,List2A,white,woman,,,,null,,,,
null,"<img src=""stim_listA/argue1.gif""</stim_listA>",,html-keyboard-response,381,1532120,0.0-19.0-1.14,18280,List2A,white,woman,,,,null,,,,
null,is arguing with,,html-keyboard-response,382,1534123,0.0-19.0-2.14,18280,List2A,white,woman,,,,null,,,,
7984,,,survey-text,383,1542109,0.0-19.0-3.14,18280,List2A,white,woman,,,,,"{""Q0"":""Ruth is arguing with Dave""}","<img src=""stim_listA/argue1.gif""</stim_listA>",is arguing with,
null,"<div style=""font-size:60px;"">+</div>",,html-keyboard-response,384,1542610,0.0-19.0-0.15,18280,List2A,white,woman,,,,null,,,,
null,"<img src=""stim_listA/touch2.gif""</stim_listA>",,html-keyboard-response,385,1544613,0.0-19.0-1.15,18280,List2A,white,woman,,,,null,,,,
null,are touching each other,,html-keyboard-response,386,1546616,0.0-19.0-2.15,18280,List2A,white,woman,,,,null,,,,
9723,,,survey-text,387,1556341,0.0-19.0-3.15,18280,List2A,white,woman,,,,,"{""Q0"":""Ruth and Luke are touching each other""}","<img src=""stim_listA/touch2.gif""</stim_listA>",are touching each other,
null,"<div style=""font-size:60px;"">+</div>",,html-keyboard-response,388,1556843,0.0-19.0-0.16,18280,List2A,white,woman,,,,null,,,,
null,"<img src=""stim_listA/talk1.gif""</stim_listA>",,html-keyboard-response,389,1558845,0.0-19.0-1.16,18280,List2A,white,woman,,,,null,,,,
null,is talking to,,html-keyboard-response,390,1560848,0.0-19.0-2.16,18280,List2A,white,woman,,,,null,,,,
12607,,,survey-text,391,1573457,0.0-19.0-3.16,18280,List2A,white,woman,,,,,"{""Q0"":""Jane is talking to Luke""}","<img src=""stim_listA/talk1.gif""</stim_listA>",is talking to,
null,"<div style=""font-size:60px;"">+</div>",,html-keyboard-response,392,1573959,0.0-19.0-0.17,18280,List2A,white,woman,,,,null,,,,
null,"<img src=""stim_listA/dance7.gif""</stim_listA>",,html-keyboard-response,393,1575962,0.0-19.0-1.17,18280,List2A,white,woman,,,,null,,,,
null,is dancing with,,html-keyboard-response,394,1577964,0.0-19.0-2.17,18280,List2A,white,woman,,,,null,,,,
19433,,,survey-text,395,1597398,0.0-19.0-3.17,18280,List2A,white,woman,,,,,"{""Q0"":""Jane is dancing with Kate""}","<img src=""stim_listA/dance7.gif""</stim_listA>",is dancing with,
null,"<div style=""font-size:60px;"">+</div>",,html-keyboard-response,396,1597901,0.0-19.0-0.18,18280,List2A,white,woman,,,,null,,,,
null,"<img src=""stim_listA/marry8.gif""</stim_listA>",,html-keyboard-response,397,1599906,0.0-19.0-1.18,18280,List2A,white,woman,,,,null,,,,
null,are marrying each other,,html-keyboard-response,398,1601908,0.0-19.0-2.18,18280,List2A,white,woman,,,,null,,,,
12043,,,survey-text,399,1613952,0.0-19.0-3.18,18280,List2A,white,woman,,,,,"{""Q0"":""Kate and Ruth are marrying each other""}","<img src=""stim_listA/marry8.gif""</stim_listA>",are marrying each other,
null,"<div style=""font-size:60px;"">+</div>",,html-keyboard-response,400,1614455,0.0-19.0-0.19,18280,List2A,white,woman,,,,null,,,,
null,"<img src=""stim_listA/meet6.gif""</stim_listA>",,html-keyboard-response,401,1616458,0.0-19.0-1.19,18280,List2A,white,woman,,,,null,,,,
null,are meeting each other,,html-keyboard-response,402,1618461,0.0-19.0-2.19,18280,List2A,white,woman,,,,null,,,,
13578,,,survey-text,403,1632041,0.0-19.0-3.19,18280,List2A,white,woman,,,,,"{""Q0"":""Dave and Luke are meeting each other""}","<img src=""stim_listA/meet6.gif""</stim_listA>",are meeting each other,
2378,<p>Thank you for completing that task.</p><p>The final part of this session is a short questionnaire.</p><p>Press Continue.</p>,0,html-button-response,404,1634420,0.0-20.0,18280,List2A,white,woman,,,,,,,,
21482,,,survey-text,405,1656906,0.0-21.0,18280,List2A,white,woman,,,,,"{""Q0"":""18"",""Q1"":""Spanish"",""Q2"":""English"",""Q3"":""Canada"",""Q4"":""White Latina"",""Q5"":""Female""}",,,demographics
57458,,,survey-likert,406,1714378,0.0-22.0,18280,List2A,white,woman,,,,,"{""Q0"":4,""Q1"":6,""Q2"":5,""Q3"":5,""Q4"":2,""Q5"":2,""Q6"":5,""Q7"":4,""Q8"":6,""Q9"":5,""Q10"":4,""Q11"":4,""Q12"":4,""Q13"":4}",,,likert_race
41677,,,survey-likert,407,1756066,0.0-23.0,18280,List2A,white,woman,,,,,"{""Q0"":5,""Q1"":3,""Q2"":2,""Q3"":6,""Q4"":5,""Q5"":5,""Q6"":6,""Q7"":4,""Q8"":5,""Q9"":6,""Q10"":3,""Q11"":3,""Q12"":1,""Q13"":0}",,,likert_gender
12532,,,survey-text,408,1768602,0.0-24.0,18280,List2A,white,woman,,,,,"{""Q0"":""ccc""}",,,worker_id
14279,,,external-html,409,1783154,0.0-25.0,18280,List2A,white,woman,debrief.html,,,,,,,
