rt,stimulus,button_pressed,trial_type,trial_index,time_elapsed,internal_node_id,subject,list,ppt_race,ppt_gender,url,first_guess,correct,key_press,responses,image_type,phrase_type,test_part
1594,Welcome to the experiment. Press Continue to begin.,0,html-button-response,0,1600,0.0-0.0,18910,List1A,white,woman,,,,,,,,
36752,,,external-html,1,39401,0.0-1.0,18910,List1A,white,woman,consent.html,,,,,,,
10020,"<p>On the next page, you will see portraits of 8 people and their names.</p><p>Your first task is to take a few minutes to memorise the names of these people.</p><p>You will have to recall their names during the rest of the experiment, so it is</p><p>essential that you try to memorise these people and their names as best as you can.</p><br><p><strong>You will then be tested on your memory of these names and portraits.</strong></p><br><p>The experiment will start after you have completed this memory test.</p><br><p>Ready?</p>",0,html-button-response,2,49425,0.0-2.0,18910,List1A,white,woman,,,,,,,,
78958,"<img src='img/portrait_matrix_list1.JPG' style='width:900px;height:500px;''></img><p>If you have memorised all the portraits and names and are ready to start, press Continue.</p><p><strong>Please note: Your memory of these faces will be tested 4 times during this experiment.</strong></p>",0,html-button-response,3,129387,0.0-3.0-0.0,18910,List1A,white,woman,,,,,,,,
5269,"<img src=""portrait/WW1.jpg""style=""width:400px;height:400px;""></img>",1,html-button-response,4,135658,0.0-3.0-1.0,18910,List1A,white,woman,,TRUE,1,,,,,
null,CORRECT,,html-keyboard-response,5,137164,0.0-3.0-2.0-0.0,18910,List1A,white,woman,,,,null,,,,
5635,"<img src=""portrait/WM2.jpg""style=""width:400px;height:400px;""></img>",7,html-button-response,6,142804,0.0-3.0-4.0,18910,List1A,white,woman,,TRUE,7,,,,,
null,CORRECT,,html-keyboard-response,7,144311,0.0-3.0-5.0-0.0,18910,List1A,white,woman,,,,null,,,,
7056,"<img src=""portrait/BW1.jpg""style=""width:400px;height:400px;""></img>",0,html-button-response,8,151370,0.0-3.0-7.0,18910,List1A,white,woman,,TRUE,0,,,,,
null,CORRECT,,html-keyboard-response,9,152872,0.0-3.0-8.0-0.0,18910,List1A,white,woman,,,,null,,,,
5992,"<img src=""portrait/BM1.jpg""style=""width:400px;height:400px;""></img>",4,html-button-response,10,158865,0.0-3.0-10.0,18910,List1A,white,woman,,TRUE,4,,,,,
null,CORRECT,,html-keyboard-response,11,160368,0.0-3.0-11.0-0.0,18910,List1A,white,woman,,,,null,,,,
3505,"<img src=""portrait/WM1.jpg""style=""width:400px;height:400px;""></img>",6,html-button-response,12,163874,0.0-3.0-13.0,18910,List1A,white,woman,,TRUE,6,,,,,
null,CORRECT,,html-keyboard-response,13,165375,0.0-3.0-14.0-0.0,18910,List1A,white,woman,,,,null,,,,
5128,"<img src=""portrait/BW2.jpg""style=""width:400px;height:400px;""></img>",2,html-button-response,14,170505,0.0-3.0-16.0,18910,List1A,white,woman,,TRUE,2,,,,,
null,CORRECT,,html-keyboard-response,15,172007,0.0-3.0-17.0-0.0,18910,List1A,white,woman,,,,null,,,,
6201,"<img src=""portrait/WW2.jpg""style=""width:400px;height:400px;""></img>",3,html-button-response,16,178209,0.0-3.0-19.0,18910,List1A,white,woman,,TRUE,3,,,,,
null,CORRECT,,html-keyboard-response,17,179711,0.0-3.0-20.0-0.0,18910,List1A,white,woman,,,,null,,,,
5657,"<img src=""portrait/BM2.jpg""style=""width:400px;height:400px;""></img>",5,html-button-response,18,185369,0.0-3.0-22.0,18910,List1A,white,woman,,TRUE,5,,,,,
null,CORRECT,,html-keyboard-response,19,186871,0.0-3.0-23.0-0.0,18910,List1A,white,woman,,,,null,,,,
2024,<p>You got 8 out of 8 right first time. Press Continue.</p>,0,html-button-response,20,188897,0.0-3.0-25.0,18910,List1A,white,woman,,,,,,,,
23533,"<p>In this experiment, you will view photographs of the people from the memory game interacting.</p><p>By using the <strong>exact</strong> phrase given <i>after</i> the photograph appears and recalling the correct names of the people in the photographs, form a sentence describing the interaction. You do not need to capitalise names.</p><p>Type your answer in the space provided. Please complete every sentence before moving onto the next trial.</p><p>You will only have a few seconds to memorise each given photograph and phrase before you can respond, so try your best to focus.</p><p>An example is given below. Press 'Continue' when you are ready.</p><img src='img/speaking_example_v2.jpg' style='width:800px;height:460px;''></img>",0,html-button-response,21,213436,0.0-4.0,18910,List1A,white,woman,,,,,,,,
2270,"<p>Before the experiment starts, you will watch two example trials. Press 'Continue'.</p>",0,html-button-response,22,216709,0.0-5.0,18910,List1A,white,woman,,,,,,,,
null,<img src='img/speaking_WW.gif'></img>,,html-keyboard-response,23,219713,0.0-6.0,18910,List1A,white,woman,,,,null,,,,
null,<p>is speaking to</p>,,html-keyboard-response,24,221715,0.0-7.0,18910,List1A,white,woman,,,,null,,,,
6913,<p><b>Answer:</b> kate is speaking to beth</p>,0,html-button-response,25,228629,0.0-8.0,18910,List1A,white,woman,,,,,,,,
null,<img src='img/pointing_BM.gif'></img>,,html-keyboard-response,26,231641,0.0-9.0,18910,List1A,white,woman,,,,null,,,,
null,<p>are pointing at each other</p>,,html-keyboard-response,27,233642,0.0-10.0,18910,List1A,white,woman,,,,null,,,,
3912,<p><b>Answer:</b> luke and dave are pointing at each other</p>,0,html-button-response,28,237555,0.0-11.0,18910,List1A,white,woman,,,,,,,,
8138,"<p>Ready to start the experiment?</p><br><p><strong>Remember to describe the picture using a full sentence,</strong></p><p><strong> that combines the names of the people with the given phrase.</strong></p><p><strong> You do not need to capitalise names or use punctuation.</strong></p><br><p>Press 'Continue' to begin.</p>",0,html-button-response,29,246695,0.0-12.0,18910,List1A,white,woman,,,,,,,,
null,"<div style=""font-size:60px;"">+</div>",,html-keyboard-response,30,248197,0.0-13.0-0.0,18910,List1A,white,woman,,,,null,,,,
null,"<img src=""stim_listA/hug4.gif""</stim_listA>",,html-keyboard-response,31,250195,0.0-13.0-1.0,18910,List1A,white,woman,,,,null,,,,
null,are hugging each other,,html-keyboard-response,32,252197,0.0-13.0-2.0,18910,List1A,white,woman,,,,null,,,,
11166,,,survey-text,33,263366,0.0-13.0-3.0,18910,List1A,white,woman,,,,,"{""Q0"":""jane and luke are hugging each other""}","<img src=""stim_listA/hug4.gif""</stim_listA>",are hugging each other,
null,"<div style=""font-size:60px;"">+</div>",,html-keyboard-response,34,263870,0.0-13.0-0.1,18910,List1A,white,woman,,,,null,,,,
null,"<img src=""stim_listA/fight5.gif""</stim_listA>",,html-keyboard-response,35,265872,0.0-13.0-1.1,18910,List1A,white,woman,,,,null,,,,
null,is fighting,,html-keyboard-response,36,267874,0.0-13.0-2.1,18910,List1A,white,woman,,,,null,,,,
17105,,,survey-text,37,284981,0.0-13.0-3.1,18910,List1A,white,woman,,,,,"{""Q0"":""mike and luke are fighting""}","<img src=""stim_listA/fight5.gif""</stim_listA>",is fighting,
null,"<div style=""font-size:60px;"">+</div>",,html-keyboard-response,38,285483,0.0-13.0-0.2,18910,List1A,white,woman,,,,null,,,,
null,"<img src=""stim_listA/meet2.gif""</stim_listA>",,html-keyboard-response,39,287487,0.0-13.0-1.2,18910,List1A,white,woman,,,,null,,,,
null,are meeting each other,,html-keyboard-response,40,289489,0.0-13.0-2.2,18910,List1A,white,woman,,,,null,,,,
11353,,,survey-text,41,300844,0.0-13.0-3.2,18910,List1A,white,woman,,,,,"{""Q0"":""fred and beth are meeting each other""}","<img src=""stim_listA/meet2.gif""</stim_listA>",are meeting each other,
null,"<div style=""font-size:60px;"">+</div>",,html-keyboard-response,42,301345,0.0-13.0-0.3,18910,List1A,white,woman,,,,null,,,,
null,"<img src=""stim_listA/kiss8.gif""</stim_listA>",,html-keyboard-response,43,303347,0.0-13.0-1.3,18910,List1A,white,woman,,,,null,,,,
null,are kissing each other,,html-keyboard-response,44,305348,0.0-13.0-2.3,18910,List1A,white,woman,,,,null,,,,
11888,,,survey-text,45,317237,0.0-13.0-3.3,18910,List1A,white,woman,,,,,"{""Q0"":""ruth and jane are kissing each other""}","<img src=""stim_listA/kiss8.gif""</stim_listA>",are kissing each other,
null,"<div style=""font-size:60px;"">+</div>",,html-keyboard-response,46,317739,0.0-13.0-0.4,18910,List1A,white,woman,,,,null,,,,
null,"<img src=""stim_listA/fight8.gif""</stim_listA>",,html-keyboard-response,47,319742,0.0-13.0-1.4,18910,List1A,white,woman,,,,null,,,,
null,are fighting each other,,html-keyboard-response,48,321744,0.0-13.0-2.4,18910,List1A,white,woman,,,,null,,,,
11050,,,survey-text,49,332797,0.0-13.0-3.4,18910,List1A,white,woman,,,,,"{""Q0"":""ruth and kate are fighting each other""}","<img src=""stim_listA/fight8.gif""</stim_listA>",are fighting each other,
null,"<div style=""font-size:60px;"">+</div>",,html-keyboard-response,50,333299,0.0-13.0-0.5,18910,List1A,white,woman,,,,null,,,,
null,"<img src=""stim_listA/marry4.gif""</stim_listA>",,html-keyboard-response,51,335303,0.0-13.0-1.5,18910,List1A,white,woman,,,,null,,,,
null,are marrying each other,,html-keyboard-response,52,337304,0.0-13.0-2.5,18910,List1A,white,woman,,,,null,,,,
17698,,,survey-text,53,355004,0.0-13.0-3.5,18910,List1A,white,woman,,,,,"{""Q0"":""luke and jane are marrying each other""}","<img src=""stim_listA/marry4.gif""</stim_listA>",are marrying each other,
null,"<div style=""font-size:60px;"">+</div>",,html-keyboard-response,54,355510,0.0-13.0-0.6,18910,List1A,white,woman,,,,null,,,,
null,"<img src=""stim_listA/dance4.gif""</stim_listA>",,html-keyboard-response,55,357513,0.0-13.0-1.6,18910,List1A,white,woman,,,,null,,,,
null,are dancing with each other,,html-keyboard-response,56,359515,0.0-13.0-2.6,18910,List1A,white,woman,,,,null,,,,
9655,,,survey-text,57,369172,0.0-13.0-3.6,18910,List1A,white,woman,,,,,"{""Q0"":""ruth and luke are dancing with each other""}","<img src=""stim_listA/dance4.gif""</stim_listA>",are dancing with each other,
null,"<div style=""font-size:60px;"">+</div>",,html-keyboard-response,58,369674,0.0-13.0-0.7,18910,List1A,white,woman,,,,null,,,,
null,"<img src=""stim_listA/fight3.gif""</stim_listA>",,html-keyboard-response,59,371670,0.0-13.0-1.7,18910,List1A,white,woman,,,,null,,,,
null,is fighting,,html-keyboard-response,60,373672,0.0-13.0-2.7,18910,List1A,white,woman,,,,null,,,,
10513,,,survey-text,61,384187,0.0-13.0-3.7,18910,List1A,white,woman,,,,,"{""Q0"":""dave and jane are fighting""}","<img src=""stim_listA/fight3.gif""</stim_listA>",is fighting,
null,"<div style=""font-size:60px;"">+</div>",,html-keyboard-response,62,384689,0.0-13.0-0.8,18910,List1A,white,woman,,,,null,,,,
null,"<img src=""stim_listA/touch4.gif""</stim_listA>",,html-keyboard-response,63,386692,0.0-13.0-1.8,18910,List1A,white,woman,,,,null,,,,
null,are touching each other,,html-keyboard-response,64,388694,0.0-13.0-2.8,18910,List1A,white,woman,,,,null,,,,
12323,,,survey-text,65,401019,0.0-13.0-3.8,18910,List1A,white,woman,,,,,"{""Q0"":""luke and ruth are touching each other""}","<img src=""stim_listA/touch4.gif""</stim_listA>",are touching each other,
null,"<div style=""font-size:60px;"">+</div>",,html-keyboard-response,66,401526,0.0-13.0-0.9,18910,List1A,white,woman,,,,null,,,,
null,"<img src=""stim_listA/talk7.gif""</stim_listA>",,html-keyboard-response,67,403529,0.0-13.0-1.9,18910,List1A,white,woman,,,,null,,,,
null,is talking to,,html-keyboard-response,68,405531,0.0-13.0-2.9,18910,List1A,white,woman,,,,null,,,,
13070,,,survey-text,69,418603,0.0-13.0-3.9,18910,List1A,white,woman,,,,,"{""Q0"":""jane is talking to beth""}","<img src=""stim_listA/talk7.gif""</stim_listA>",is talking to,
null,"<div style=""font-size:60px;"">+</div>",,html-keyboard-response,70,419105,0.0-13.0-0.10,18910,List1A,white,woman,,,,null,,,,
null,"<img src=""stim_listA/kiss7.gif""</stim_listA>",,html-keyboard-response,71,421108,0.0-13.0-1.10,18910,List1A,white,woman,,,,null,,,,
null,is kissing,,html-keyboard-response,72,423110,0.0-13.0-2.10,18910,List1A,white,woman,,,,null,,,,
11706,,,survey-text,73,434818,0.0-13.0-3.10,18910,List1A,white,woman,,,,,"{""Q0"":""kate is kissing ruth""}","<img src=""stim_listA/kiss7.gif""</stim_listA>",is kissing,
null,"<div style=""font-size:60px;"">+</div>",,html-keyboard-response,74,435321,0.0-13.0-0.11,18910,List1A,white,woman,,,,null,,,,
null,"<img src=""stim_listA/shout1.gif""</stim_listA>",,html-keyboard-response,75,437325,0.0-13.0-1.11,18910,List1A,white,woman,,,,null,,,,
null,is shouting at,,html-keyboard-response,76,439326,0.0-13.0-2.11,18910,List1A,white,woman,,,,null,,,,
8329,,,survey-text,77,447656,0.0-13.0-3.11,18910,List1A,white,woman,,,,,"{""Q0"":""fred is shouting at beth""}","<img src=""stim_listA/shout1.gif""</stim_listA>",is shouting at,
null,"<div style=""font-size:60px;"">+</div>",,html-keyboard-response,78,448158,0.0-13.0-0.12,18910,List1A,white,woman,,,,null,,,,
null,"<img src=""stim_listA/shout3.gif""</stim_listA>",,html-keyboard-response,79,450159,0.0-13.0-1.12,18910,List1A,white,woman,,,,null,,,,
null,is shouting at,,html-keyboard-response,80,452160,0.0-13.0-2.12,18910,List1A,white,woman,,,,null,,,,
10970,,,survey-text,81,463131,0.0-13.0-3.12,18910,List1A,white,woman,,,,,"{""Q0"":""luke is shouting at ruth""}","<img src=""stim_listA/shout3.gif""</stim_listA>",is shouting at,
null,"<div style=""font-size:60px;"">+</div>",,html-keyboard-response,82,463634,0.0-13.0-0.13,18910,List1A,white,woman,,,,null,,,,
null,"<img src=""stim_listA/argue1.gif""</stim_listA>",,html-keyboard-response,83,465637,0.0-13.0-1.13,18910,List1A,white,woman,,,,null,,,,
null,is arguing with,,html-keyboard-response,84,467639,0.0-13.0-2.13,18910,List1A,white,woman,,,,null,,,,
16983,,,survey-text,85,484624,0.0-13.0-3.13,18910,List1A,white,woman,,,,,"{""Q0"":""beth is arguing with mike""}","<img src=""stim_listA/argue1.gif""</stim_listA>",is arguing with,
null,"<div style=""font-size:60px;"">+</div>",,html-keyboard-response,86,485126,0.0-13.0-0.14,18910,List1A,white,woman,,,,null,,,,
null,"<img src=""stim_listA/touch7.gif""</stim_listA>",,html-keyboard-response,87,487129,0.0-13.0-1.14,18910,List1A,white,woman,,,,null,,,,
null,is touching,,html-keyboard-response,88,489131,0.0-13.0-2.14,18910,List1A,white,woman,,,,null,,,,
7988,,,survey-text,89,497121,0.0-13.0-3.14,18910,List1A,white,woman,,,,,"{""Q0"":""kate is touching jane""}","<img src=""stim_listA/touch7.gif""</stim_listA>",is touching,
null,"<div style=""font-size:60px;"">+</div>",,html-keyboard-response,90,497623,0.0-13.0-0.15,18910,List1A,white,woman,,,,null,,,,
null,"<img src=""stim_listA/talk8.gif""</stim_listA>",,html-keyboard-response,91,499628,0.0-13.0-1.15,18910,List1A,white,woman,,,,null,,,,
null,are talking to each other,,html-keyboard-response,92,501629,0.0-13.0-2.15,18910,List1A,white,woman,,,,null,,,,
12298,,,survey-text,93,513929,0.0-13.0-3.15,18910,List1A,white,woman,,,,,"{""Q0"":""ruth and kate are talking to each other""}","<img src=""stim_listA/talk8.gif""</stim_listA>",are talking to each other,
null,"<div style=""font-size:60px;"">+</div>",,html-keyboard-response,94,514431,0.0-13.0-0.16,18910,List1A,white,woman,,,,null,,,,
null,"<img src=""stim_listA/fight1.gif""</stim_listA>",,html-keyboard-response,95,516434,0.0-13.0-1.16,18910,List1A,white,woman,,,,null,,,,
null,is fighting,,html-keyboard-response,96,518435,0.0-13.0-2.16,18910,List1A,white,woman,,,,null,,,,
13162,,,survey-text,97,531599,0.0-13.0-3.16,18910,List1A,white,woman,,,,,"{""Q0"":""kate and mike is fighting""}","<img src=""stim_listA/fight1.gif""</stim_listA>",is fighting,
null,"<div style=""font-size:60px;"">+</div>",,html-keyboard-response,98,532100,0.0-13.0-0.17,18910,List1A,white,woman,,,,null,,,,
null,"<img src=""stim_listA/touch5.gif""</stim_listA>",,html-keyboard-response,99,534103,0.0-13.0-1.17,18910,List1A,white,woman,,,,null,,,,
null,is touching,,html-keyboard-response,100,536105,0.0-13.0-2.17,18910,List1A,white,woman,,,,null,,,,
6972,,,survey-text,101,543079,0.0-13.0-3.17,18910,List1A,white,woman,,,,,"{""Q0"":""mike and dave is touching""}","<img src=""stim_listA/touch5.gif""</stim_listA>",is touching,
null,"<div style=""font-size:60px;"">+</div>",,html-keyboard-response,102,543581,0.0-13.0-0.18,18910,List1A,white,woman,,,,null,,,,
null,"<img src=""stim_listA/dance3.gif""</stim_listA>",,html-keyboard-response,103,545584,0.0-13.0-1.18,18910,List1A,white,woman,,,,null,,,,
null,is dancing with,,html-keyboard-response,104,547585,0.0-13.0-2.18,18910,List1A,white,woman,,,,null,,,,
7737,,,survey-text,105,555325,0.0-13.0-3.18,18910,List1A,white,woman,,,,,"{""Q0"":""jane is dancing with luke""}","<img src=""stim_listA/dance3.gif""</stim_listA>",is dancing with,
null,"<div style=""font-size:60px;"">+</div>",,html-keyboard-response,106,555826,0.0-13.0-0.19,18910,List1A,white,woman,,,,null,,,,
null,"<img src=""stim_listA/marry2.gif""</stim_listA>",,html-keyboard-response,107,557830,0.0-13.0-1.19,18910,List1A,white,woman,,,,null,,,,
null,are marrying each other,,html-keyboard-response,108,559832,0.0-13.0-2.19,18910,List1A,white,woman,,,,null,,,,
11800,,,survey-text,109,571635,0.0-13.0-3.19,18910,List1A,white,woman,,,,,"{""Q0"":""fred and kate is marrying each other""}","<img src=""stim_listA/marry2.gif""</stim_listA>",are marrying each other,
12829,"<img src='img/portrait_matrix_list1.JPG' style='width:900px;height:500px;''></img><p>If you have memorised all the portraits and names and are ready to start, press Continue.</p><p><strong>Please note: Your memory of these faces will be tested 4 times during this experiment.</strong></p>",0,html-button-response,110,584467,0.0-14.0-0.0,18910,List1A,white,woman,,,,,,,,
6755,"<img src=""portrait/WW1.jpg""style=""width:400px;height:400px;""></img>",1,html-button-response,111,592225,0.0-14.0-1.0,18910,List1A,white,woman,,TRUE,1,,,,,
null,CORRECT,,html-keyboard-response,112,593727,0.0-14.0-2.0-0.0,18910,List1A,white,woman,,,,null,,,,
4657,"<img src=""portrait/BW1.jpg""style=""width:400px;height:400px;""></img>",0,html-button-response,113,598387,0.0-14.0-4.0,18910,List1A,white,woman,,TRUE,0,,,,,
null,CORRECT,,html-keyboard-response,114,599890,0.0-14.0-5.0-0.0,18910,List1A,white,woman,,,,null,,,,
3248,"<img src=""portrait/BM1.jpg""style=""width:400px;height:400px;""></img>",4,html-button-response,115,603140,0.0-14.0-7.0,18910,List1A,white,woman,,TRUE,4,,,,,
null,CORRECT,,html-keyboard-response,116,604643,0.0-14.0-8.0-0.0,18910,List1A,white,woman,,,,null,,,,
3893,"<img src=""portrait/BW2.jpg""style=""width:400px;height:400px;""></img>",2,html-button-response,117,608538,0.0-14.0-10.0,18910,List1A,white,woman,,TRUE,2,,,,,
null,CORRECT,,html-keyboard-response,118,610041,0.0-14.0-11.0-0.0,18910,List1A,white,woman,,,,null,,,,
2318,"<img src=""portrait/WM1.jpg""style=""width:400px;height:400px;""></img>",6,html-button-response,119,612363,0.0-14.0-13.0,18910,List1A,white,woman,,TRUE,6,,,,,
null,CORRECT,,html-keyboard-response,120,613866,0.0-14.0-14.0-0.0,18910,List1A,white,woman,,,,null,,,,
4579,"<img src=""portrait/WW2.jpg""style=""width:400px;height:400px;""></img>",3,html-button-response,121,618449,0.0-14.0-16.0,18910,List1A,white,woman,,TRUE,3,,,,,
null,CORRECT,,html-keyboard-response,122,619952,0.0-14.0-17.0-0.0,18910,List1A,white,woman,,,,null,,,,
3630,"<img src=""portrait/BM2.jpg""style=""width:400px;height:400px;""></img>",5,html-button-response,123,623585,0.0-14.0-19.0,18910,List1A,white,woman,,TRUE,5,,,,,
null,CORRECT,,html-keyboard-response,124,625088,0.0-14.0-20.0-0.0,18910,List1A,white,woman,,,,null,,,,
4926,"<img src=""portrait/WM2.jpg""style=""width:400px;height:400px;""></img>",7,html-button-response,125,630017,0.0-14.0-22.0,18910,List1A,white,woman,,TRUE,7,,,,,
null,CORRECT,,html-keyboard-response,126,631521,0.0-14.0-23.0-0.0,18910,List1A,white,woman,,,,null,,,,
1102,<p>You got 8 out of 8 right first time. Press Continue.</p>,0,html-button-response,127,632624,0.0-14.0-25.0,18910,List1A,white,woman,,,,,,,,
null,"<div style=""font-size:60px;"">+</div>",,html-keyboard-response,128,634128,0.0-15.0-0.0,18910,List1A,white,woman,,,,null,,,,
null,"<img src=""stim_listA/fight7.gif""</stim_listA>",,html-keyboard-response,129,636133,0.0-15.0-1.0,18910,List1A,white,woman,,,,null,,,,
null,is fighting,,html-keyboard-response,130,638136,0.0-15.0-2.0,18910,List1A,white,woman,,,,null,,,,
11383,,,survey-text,131,649520,0.0-15.0-3.0,18910,List1A,white,woman,,,,,"{""Q0"":""jane and kate is fighting""}","<img src=""stim_listA/fight7.gif""</stim_listA>",is fighting,
null,"<div style=""font-size:60px;"">+</div>",,html-keyboard-response,132,650023,0.0-15.0-0.1,18910,List1A,white,woman,,,,null,,,,
null,"<img src=""stim_listA/dance2.gif""</stim_listA>",,html-keyboard-response,133,652025,0.0-15.0-1.1,18910,List1A,white,woman,,,,null,,,,
null,are dancing with each other,,html-keyboard-response,134,654028,0.0-15.0-2.1,18910,List1A,white,woman,,,,null,,,,
13528,,,survey-text,135,667557,0.0-15.0-3.1,18910,List1A,white,woman,,,,,"{""Q0"":""beth and mike are dancing with each other""}","<img src=""stim_listA/dance2.gif""</stim_listA>",are dancing with each other,
null,"<div style=""font-size:60px;"">+</div>",,html-keyboard-response,136,668059,0.0-15.0-0.2,18910,List1A,white,woman,,,,null,,,,
null,"<img src=""stim_listA/talk3.gif""</stim_listA>",,html-keyboard-response,137,670063,0.0-15.0-1.2,18910,List1A,white,woman,,,,null,,,,
null,is talking to,,html-keyboard-response,138,672064,0.0-15.0-2.2,18910,List1A,white,woman,,,,null,,,,
10347,,,survey-text,139,682413,0.0-15.0-3.2,18910,List1A,white,woman,,,,,"{""Q0"":""luke and jane are talking to each other""}","<img src=""stim_listA/talk3.gif""</stim_listA>",is talking to,
null,"<div style=""font-size:60px;"">+</div>",,html-keyboard-response,140,682916,0.0-15.0-0.3,18910,List1A,white,woman,,,,null,,,,
null,"<img src=""stim_listA/shout2.gif""</stim_listA>",,html-keyboard-response,141,684919,0.0-15.0-1.3,18910,List1A,white,woman,,,,null,,,,
null,are shouting at each other,,html-keyboard-response,142,686921,0.0-15.0-2.3,18910,List1A,white,woman,,,,null,,,,
10736,,,survey-text,143,697659,0.0-15.0-3.3,18910,List1A,white,woman,,,,,"{""Q0"":""kate and mike is shouting at each other""}","<img src=""stim_listA/shout2.gif""</stim_listA>",are shouting at each other,
null,"<div style=""font-size:60px;"">+</div>",,html-keyboard-response,144,698160,0.0-15.0-0.4,18910,List1A,white,woman,,,,null,,,,
null,"<img src=""stim_listA/meet7.gif""</stim_listA>",,html-keyboard-response,145,700164,0.0-15.0-1.4,18910,List1A,white,woman,,,,null,,,,
null,is meeting,,html-keyboard-response,146,702165,0.0-15.0-2.4,18910,List1A,white,woman,,,,null,,,,
9902,,,survey-text,147,712070,0.0-15.0-3.4,18910,List1A,white,woman,,,,,"{""Q0"":""jane and kate is meeting each other""}","<img src=""stim_listA/meet7.gif""</stim_listA>",is meeting,
null,"<div style=""font-size:60px;"">+</div>",,html-keyboard-response,148,712572,0.0-15.0-0.5,18910,List1A,white,woman,,,,null,,,,
null,"<img src=""stim_listA/hug5.gif""</stim_listA>",,html-keyboard-response,149,714575,0.0-15.0-1.5,18910,List1A,white,woman,,,,null,,,,
null,is hugging,,html-keyboard-response,150,716577,0.0-15.0-2.5,18910,List1A,white,woman,,,,null,,,,
6960,,,survey-text,151,723538,0.0-15.0-3.5,18910,List1A,white,woman,,,,,"{""Q0"":""fred and luke is hugging""}","<img src=""stim_listA/hug5.gif""</stim_listA>",is hugging,
null,"<div style=""font-size:60px;"">+</div>",,html-keyboard-response,152,724041,0.0-15.0-0.6,18910,List1A,white,woman,,,,null,,,,
null,"<img src=""stim_listA/meet3.gif""</stim_listA>",,html-keyboard-response,153,726043,0.0-15.0-1.6,18910,List1A,white,woman,,,,null,,,,
null,is meeting,,html-keyboard-response,154,728045,0.0-15.0-2.6,18910,List1A,white,woman,,,,null,,,,
7921,,,survey-text,155,735968,0.0-15.0-3.6,18910,List1A,white,woman,,,,,"{""Q0"":""dave and jane is meeting""}","<img src=""stim_listA/meet3.gif""</stim_listA>",is meeting,
null,"<div style=""font-size:60px;"">+</div>",,html-keyboard-response,156,736470,0.0-15.0-0.7,18910,List1A,white,woman,,,,null,,,,
null,"<img src=""stim_listA/meet5.gif""</stim_listA>",,html-keyboard-response,157,738473,0.0-15.0-1.7,18910,List1A,white,woman,,,,null,,,,
null,is meeting,,html-keyboard-response,158,740474,0.0-15.0-2.7,18910,List1A,white,woman,,,,null,,,,
12780,,,survey-text,159,753257,0.0-15.0-3.7,18910,List1A,white,woman,,,,,"{""Q0"":""dave and mike is meeting""}","<img src=""stim_listA/meet5.gif""</stim_listA>",is meeting,
null,"<div style=""font-size:60px;"">+</div>",,html-keyboard-response,160,753759,0.0-15.0-0.8,18910,List1A,white,woman,,,,null,,,,
null,"<img src=""stim_listA/touch6.gif""</stim_listA>",,html-keyboard-response,161,755762,0.0-15.0-1.8,18910,List1A,white,woman,,,,null,,,,
null,are touching each other,,html-keyboard-response,162,757764,0.0-15.0-2.8,18910,List1A,white,woman,,,,null,,,,
10475,,,survey-text,163,768241,0.0-15.0-3.8,18910,List1A,white,woman,,,,,"{""Q0"":""fred and luke is touching each other""}","<img src=""stim_listA/touch6.gif""</stim_listA>",are touching each other,
null,"<div style=""font-size:60px;"">+</div>",,html-keyboard-response,164,768743,0.0-15.0-0.9,18910,List1A,white,woman,,,,null,,,,
null,"<img src=""stim_listA/marry6.gif""</stim_listA>",,html-keyboard-response,165,770746,0.0-15.0-1.9,18910,List1A,white,woman,,,,null,,,,
null,are marrying each other,,html-keyboard-response,166,772747,0.0-15.0-2.9,18910,List1A,white,woman,,,,null,,,,
11633,,,survey-text,167,784383,0.0-15.0-3.9,18910,List1A,white,woman,,,,,"{""Q0"":""dave and fred are marrying each other""}","<img src=""stim_listA/marry6.gif""</stim_listA>",are marrying each other,
null,"<div style=""font-size:60px;"">+</div>",,html-keyboard-response,168,784884,0.0-15.0-0.10,18910,List1A,white,woman,,,,null,,,,
null,"<img src=""stim_listA/argue2.gif""</stim_listA>",,html-keyboard-response,169,786887,0.0-15.0-1.10,18910,List1A,white,woman,,,,null,,,,
null,are arguing with each other,,html-keyboard-response,170,788889,0.0-15.0-2.10,18910,List1A,white,woman,,,,null,,,,
10444,,,survey-text,171,799335,0.0-15.0-3.10,18910,List1A,white,woman,,,,,"{""Q0"":""fred and kate are arguing with each other""}","<img src=""stim_listA/argue2.gif""</stim_listA>",are arguing with each other,
null,"<div style=""font-size:60px;"">+</div>",,html-keyboard-response,172,799839,0.0-15.0-0.11,18910,List1A,white,woman,,,,null,,,,
null,"<img src=""stim_listA/dance5.gif""</stim_listA>",,html-keyboard-response,173,801841,0.0-15.0-1.11,18910,List1A,white,woman,,,,null,,,,
null,is dancing with,,html-keyboard-response,174,803842,0.0-15.0-2.11,18910,List1A,white,woman,,,,null,,,,
10482,,,survey-text,175,814326,0.0-15.0-3.11,18910,List1A,white,woman,,,,,"{""Q0"":""dave is dancing with fred""}","<img src=""stim_listA/dance5.gif""</stim_listA>",is dancing with,
null,"<div style=""font-size:60px;"">+</div>",,html-keyboard-response,176,814829,0.0-15.0-0.12,18910,List1A,white,woman,,,,null,,,,
null,"<img src=""stim_listA/kiss6.gif""</stim_listA>",,html-keyboard-response,177,816833,0.0-15.0-1.12,18910,List1A,white,woman,,,,null,,,,
null,are kissing each other,,html-keyboard-response,178,818834,0.0-15.0-2.12,18910,List1A,white,woman,,,,null,,,,
12306,,,survey-text,179,831142,0.0-15.0-3.12,18910,List1A,white,woman,,,,,"{""Q0"":""dave and mike are kissing each other""}","<img src=""stim_listA/kiss6.gif""</stim_listA>",are kissing each other,
null,"<div style=""font-size:60px;"">+</div>",,html-keyboard-response,180,831644,0.0-15.0-0.13,18910,List1A,white,woman,,,,null,,,,
null,"<img src=""stim_listA/meet8.gif""</stim_listA>",,html-keyboard-response,181,833647,0.0-15.0-1.13,18910,List1A,white,woman,,,,null,,,,
null,are meeting each other,,html-keyboard-response,182,835650,0.0-15.0-2.13,18910,List1A,white,woman,,,,null,,,,
10873,,,survey-text,183,846524,0.0-15.0-3.13,18910,List1A,white,woman,,,,,"{""Q0"":""ruth and beth are meeting each other""}","<img src=""stim_listA/meet8.gif""</stim_listA>",are meeting each other,
null,"<div style=""font-size:60px;"">+</div>",,html-keyboard-response,184,847027,0.0-15.0-0.14,18910,List1A,white,woman,,,,null,,,,
null,"<img src=""stim_listA/touch2.gif""</stim_listA>",,html-keyboard-response,185,849029,0.0-15.0-1.14,18910,List1A,white,woman,,,,null,,,,
null,are touching each other,,html-keyboard-response,186,851032,0.0-15.0-2.14,18910,List1A,white,woman,,,,null,,,,
7386,,,survey-text,187,858419,0.0-15.0-3.14,18910,List1A,white,woman,,,,,"{""Q0"":""fred and beth are touching""}","<img src=""stim_listA/touch2.gif""</stim_listA>",are touching each other,
null,"<div style=""font-size:60px;"">+</div>",,html-keyboard-response,188,858923,0.0-15.0-0.15,18910,List1A,white,woman,,,,null,,,,
null,"<img src=""stim_listA/fight4.gif""</stim_listA>",,html-keyboard-response,189,860926,0.0-15.0-1.15,18910,List1A,white,woman,,,,null,,,,
null,are fighting each other,,html-keyboard-response,190,862928,0.0-15.0-2.15,18910,List1A,white,woman,,,,null,,,,
10615,,,survey-text,191,873545,0.0-15.0-3.15,18910,List1A,white,woman,,,,,"{""Q0"":""ruth and mike are fighting""}","<img src=""stim_listA/fight4.gif""</stim_listA>",are fighting each other,
null,"<div style=""font-size:60px;"">+</div>",,html-keyboard-response,192,874046,0.0-15.0-0.16,18910,List1A,white,woman,,,,null,,,,
null,"<img src=""stim_listA/shout7.gif""</stim_listA>",,html-keyboard-response,193,876047,0.0-15.0-1.16,18910,List1A,white,woman,,,,null,,,,
null,is shouting at,,html-keyboard-response,194,878048,0.0-15.0-2.16,18910,List1A,white,woman,,,,null,,,,
7177,,,survey-text,195,885226,0.0-15.0-3.16,18910,List1A,white,woman,,,,,"{""Q0"":""ruth is shouting at beth""}","<img src=""stim_listA/shout7.gif""</stim_listA>",is shouting at,
null,"<div style=""font-size:60px;"">+</div>",,html-keyboard-response,196,885727,0.0-15.0-0.17,18910,List1A,white,woman,,,,null,,,,
null,"<img src=""stim_listA/argue6.gif""</stim_listA>",,html-keyboard-response,197,887731,0.0-15.0-1.17,18910,List1A,white,woman,,,,null,,,,
null,are arguing with each other,,html-keyboard-response,198,889733,0.0-15.0-2.17,18910,List1A,white,woman,,,,null,,,,
8514,,,survey-text,199,898249,0.0-15.0-3.17,18910,List1A,white,woman,,,,,"{""Q0"":""fred and dave are arguing with each other""}","<img src=""stim_listA/argue6.gif""</stim_listA>",are arguing with each other,
null,"<div style=""font-size:60px;"">+</div>",,html-keyboard-response,200,898751,0.0-15.0-0.18,18910,List1A,white,woman,,,,null,,,,
null,"<img src=""stim_listA/meet6.gif""</stim_listA>",,html-keyboard-response,201,900754,0.0-15.0-1.18,18910,List1A,white,woman,,,,null,,,,
null,are meeting each other,,html-keyboard-response,202,902757,0.0-15.0-2.18,18910,List1A,white,woman,,,,null,,,,
9467,,,survey-text,203,912225,0.0-15.0-3.18,18910,List1A,white,woman,,,,,"{""Q0"":""fred and luke are meeting each other""}","<img src=""stim_listA/meet6.gif""</stim_listA>",are meeting each other,
null,"<div style=""font-size:60px;"">+</div>",,html-keyboard-response,204,912728,0.0-15.0-0.19,18910,List1A,white,woman,,,,null,,,,
null,"<img src=""stim_listA/talk5.gif""</stim_listA>",,html-keyboard-response,205,914730,0.0-15.0-1.19,18910,List1A,white,woman,,,,null,,,,
null,is talking to,,html-keyboard-response,206,916731,0.0-15.0-2.19,18910,List1A,white,woman,,,,null,,,,
4826,,,survey-text,207,921560,0.0-15.0-3.19,18910,List1A,white,woman,,,,,"{""Q0"":""fred is talking to dave""}","<img src=""stim_listA/talk5.gif""</stim_listA>",is talking to,
7548,"<img src='img/portrait_matrix_list1.JPG' style='width:900px;height:500px;''></img><p>If you have memorised all the portraits and names and are ready to start, press Continue.</p><p><strong>Please note: Your memory of these faces will be tested 4 times during this experiment.</strong></p>",0,html-button-response,208,929109,0.0-16.0-0.0,18910,List1A,white,woman,,,,,,,,
5821,"<img src=""portrait/WW2.jpg""style=""width:400px;height:400px;""></img>",3,html-button-response,209,935936,0.0-16.0-1.0,18910,List1A,white,woman,,TRUE,3,,,,,
null,CORRECT,,html-keyboard-response,210,937439,0.0-16.0-2.0-0.0,18910,List1A,white,woman,,,,null,,,,
37347,"<img src=""portrait/WW1.jpg""style=""width:400px;height:400px;""></img>",1,html-button-response,211,974788,0.0-16.0-4.0,18910,List1A,white,woman,,TRUE,1,,,,,
null,CORRECT,,html-keyboard-response,212,976291,0.0-16.0-5.0-0.0,18910,List1A,white,woman,,,,null,,,,
3518,"<img src=""portrait/BM2.jpg""style=""width:400px;height:400px;""></img>",5,html-button-response,213,979813,0.0-16.0-7.0,18910,List1A,white,woman,,TRUE,5,,,,,
null,CORRECT,,html-keyboard-response,214,981317,0.0-16.0-8.0-0.0,18910,List1A,white,woman,,,,null,,,,
3516,"<img src=""portrait/WM2.jpg""style=""width:400px;height:400px;""></img>",7,html-button-response,215,984836,0.0-16.0-10.0,18910,List1A,white,woman,,TRUE,7,,,,,
null,CORRECT,,html-keyboard-response,216,986339,0.0-16.0-11.0-0.0,18910,List1A,white,woman,,,,null,,,,
2382,"<img src=""portrait/BW2.jpg""style=""width:400px;height:400px;""></img>",2,html-button-response,217,988724,0.0-16.0-13.0,18910,List1A,white,woman,,TRUE,2,,,,,
null,CORRECT,,html-keyboard-response,218,990228,0.0-16.0-14.0-0.0,18910,List1A,white,woman,,,,null,,,,
3588,"<img src=""portrait/BW1.jpg""style=""width:400px;height:400px;""></img>",0,html-button-response,219,993820,0.0-16.0-16.0,18910,List1A,white,woman,,TRUE,0,,,,,
null,CORRECT,,html-keyboard-response,220,995324,0.0-16.0-17.0-0.0,18910,List1A,white,woman,,,,null,,,,
3412,"<img src=""portrait/BM1.jpg""style=""width:400px;height:400px;""></img>",4,html-button-response,221,998740,0.0-16.0-19.0,18910,List1A,white,woman,,TRUE,4,,,,,
null,CORRECT,,html-keyboard-response,222,1000243,0.0-16.0-20.0-0.0,18910,List1A,white,woman,,,,null,,,,
1044,"<img src=""portrait/WM1.jpg""style=""width:400px;height:400px;""></img>",6,html-button-response,223,1001292,0.0-16.0-22.0,18910,List1A,white,woman,,TRUE,6,,,,,
null,CORRECT,,html-keyboard-response,224,1002797,0.0-16.0-23.0-0.0,18910,List1A,white,woman,,,,null,,,,
1219,<p>You got 8 out of 8 right first time. Press Continue.</p>,0,html-button-response,225,1004019,0.0-16.0-25.0,18910,List1A,white,woman,,,,,,,,
null,"<div style=""font-size:60px;"">+</div>",,html-keyboard-response,226,1005522,0.0-17.0-0.0,18910,List1A,white,woman,,,,null,,,,
null,"<img src=""stim_listA/marry8.gif""</stim_listA>",,html-keyboard-response,227,1007526,0.0-17.0-1.0,18910,List1A,white,woman,,,,null,,,,
null,are marrying each other,,html-keyboard-response,228,1009528,0.0-17.0-2.0,18910,List1A,white,woman,,,,null,,,,
12384,,,survey-text,229,1021914,0.0-17.0-3.0,18910,List1A,white,woman,,,,,"{""Q0"":""jane and beth are marrying each other""}","<img src=""stim_listA/marry8.gif""</stim_listA>",are marrying each other,
null,"<div style=""font-size:60px;"">+</div>",,html-keyboard-response,230,1022415,0.0-17.0-0.1,18910,List1A,white,woman,,,,null,,,,
null,"<img src=""stim_listA/marry3.gif""</stim_listA>",,html-keyboard-response,231,1024416,0.0-17.0-1.1,18910,List1A,white,woman,,,,null,,,,
null,is marrying,,html-keyboard-response,232,1026418,0.0-17.0-2.1,18910,List1A,white,woman,,,,null,,,,
10710,,,survey-text,233,1037130,0.0-17.0-3.1,18910,List1A,white,woman,,,,,"{""Q0"":""dave is marrying ruth""}","<img src=""stim_listA/marry3.gif""</stim_listA>",is marrying,
null,"<div style=""font-size:60px;"">+</div>",,html-keyboard-response,234,1037632,0.0-17.0-0.2,18910,List1A,white,woman,,,,null,,,,
null,"<img src=""stim_listA/touch8.gif""</stim_listA>",,html-keyboard-response,235,1039635,0.0-17.0-1.2,18910,List1A,white,woman,,,,null,,,,
null,are touching each other,,html-keyboard-response,236,1041636,0.0-17.0-2.2,18910,List1A,white,woman,,,,null,,,,
8010,,,survey-text,237,1049647,0.0-17.0-3.2,18910,List1A,white,woman,,,,,"{""Q0"":""ruth and beth are touching each other""}","<img src=""stim_listA/touch8.gif""</stim_listA>",are touching each other,
null,"<div style=""font-size:60px;"">+</div>",,html-keyboard-response,238,1050149,0.0-17.0-0.3,18910,List1A,white,woman,,,,null,,,,
null,"<img src=""stim_listA/fight2.gif""</stim_listA>",,html-keyboard-response,239,1052152,0.0-17.0-1.3,18910,List1A,white,woman,,,,null,,,,
null,are fighting each other,,html-keyboard-response,240,1054154,0.0-17.0-2.3,18910,List1A,white,woman,,,,null,,,,
11340,,,survey-text,241,1065495,0.0-17.0-3.3,18910,List1A,white,woman,,,,,"{""Q0"":""fred and beth are fighting each other""}","<img src=""stim_listA/fight2.gif""</stim_listA>",are fighting each other,
null,"<div style=""font-size:60px;"">+</div>",,html-keyboard-response,242,1065998,0.0-17.0-0.4,18910,List1A,white,woman,,,,null,,,,
null,"<img src=""stim_listA/meet1.gif""</stim_listA>",,html-keyboard-response,243,1068001,0.0-17.0-1.4,18910,List1A,white,woman,,,,null,,,,
null,is meeting,,html-keyboard-response,244,1070002,0.0-17.0-2.4,18910,List1A,white,woman,,,,null,,,,
25835,,,survey-text,245,1095839,0.0-17.0-3.4,18910,List1A,white,woman,,,,,"{""Q0"":""luke and ruth are meeting each other""}","<img src=""stim_listA/meet1.gif""</stim_listA>",is meeting,
null,"<div style=""font-size:60px;"">+</div>",,html-keyboard-response,246,1096342,0.0-17.0-0.5,18910,List1A,white,woman,,,,null,,,,
null,"<img src=""stim_listA/talk1.gif""</stim_listA>",,html-keyboard-response,247,1098345,0.0-17.0-1.5,18910,List1A,white,woman,,,,null,,,,
null,is talking to,,html-keyboard-response,248,1100347,0.0-17.0-2.5,18910,List1A,white,woman,,,,null,,,,
11879,,,survey-text,249,1112228,0.0-17.0-3.5,18910,List1A,white,woman,,,,,"{""Q0"":""fred and kate are talking to each other""}","<img src=""stim_listA/talk1.gif""</stim_listA>",is talking to,
null,"<div style=""font-size:60px;"">+</div>",,html-keyboard-response,250,1112731,0.0-17.0-0.6,18910,List1A,white,woman,,,,null,,,,
null,"<img src=""stim_listA/argue3.gif""</stim_listA>",,html-keyboard-response,251,1114735,0.0-17.0-1.6,18910,List1A,white,woman,,,,null,,,,
null,is arguing with,,html-keyboard-response,252,1116737,0.0-17.0-2.6,18910,List1A,white,woman,,,,null,,,,
7010,,,survey-text,253,1123748,0.0-17.0-3.6,18910,List1A,white,woman,,,,,"{""Q0"":""dave is arguing with ruth""}","<img src=""stim_listA/argue3.gif""</stim_listA>",is arguing with,
null,"<div style=""font-size:60px;"">+</div>",,html-keyboard-response,254,1124250,0.0-17.0-0.7,18910,List1A,white,woman,,,,null,,,,
null,"<img src=""stim_listA/hug7.gif""</stim_listA>",,html-keyboard-response,255,1126253,0.0-17.0-1.7,18910,List1A,white,woman,,,,null,,,,
null,is hugging,,html-keyboard-response,256,1128255,0.0-17.0-2.7,18910,List1A,white,woman,,,,null,,,,
11538,,,survey-text,257,1139795,0.0-17.0-3.7,18910,List1A,white,woman,,,,,"{""Q0"":""ruth is hugging beth""}","<img src=""stim_listA/hug7.gif""</stim_listA>",is hugging,
null,"<div style=""font-size:60px;"">+</div>",,html-keyboard-response,258,1140297,0.0-17.0-0.8,18910,List1A,white,woman,,,,null,,,,
null,"<img src=""stim_listA/shout4.gif""</stim_listA>",,html-keyboard-response,259,1142300,0.0-17.0-1.8,18910,List1A,white,woman,,,,null,,,,
null,are shouting at each other,,html-keyboard-response,260,1144302,0.0-17.0-2.8,18910,List1A,white,woman,,,,null,,,,
9947,,,survey-text,261,1154251,0.0-17.0-3.8,18910,List1A,white,woman,,,,,"{""Q0"":""jane and dave are shouting at each other""}","<img src=""stim_listA/shout4.gif""</stim_listA>",are shouting at each other,
null,"<div style=""font-size:60px;"">+</div>",,html-keyboard-response,262,1154754,0.0-17.0-0.9,18910,List1A,white,woman,,,,null,,,,
null,"<img src=""stim_listA/shout5.gif""</stim_listA>",,html-keyboard-response,263,1156757,0.0-17.0-1.9,18910,List1A,white,woman,,,,null,,,,
null,is shouting at,,html-keyboard-response,264,1158758,0.0-17.0-2.9,18910,List1A,white,woman,,,,null,,,,
8519,,,survey-text,265,1167279,0.0-17.0-3.9,18910,List1A,white,woman,,,,,"{""Q0"":""fred is shouting at luke""}","<img src=""stim_listA/shout5.gif""</stim_listA>",is shouting at,
null,"<div style=""font-size:60px;"">+</div>",,html-keyboard-response,266,1167781,0.0-17.0-0.10,18910,List1A,white,woman,,,,null,,,,
null,"<img src=""stim_listA/marry7.gif""</stim_listA>",,html-keyboard-response,267,1169785,0.0-17.0-1.10,18910,List1A,white,woman,,,,null,,,,
null,is marrying,,html-keyboard-response,268,1171787,0.0-17.0-2.10,18910,List1A,white,woman,,,,null,,,,
16802,,,survey-text,269,1188591,0.0-17.0-3.10,18910,List1A,white,woman,,,,,"{""Q0"":""kate is marrying ruth""}","<img src=""stim_listA/marry7.gif""</stim_listA>",is marrying,
null,"<div style=""font-size:60px;"">+</div>",,html-keyboard-response,270,1189093,0.0-17.0-0.11,18910,List1A,white,woman,,,,null,,,,
null,"<img src=""stim_listA/argue7.gif""</stim_listA>",,html-keyboard-response,271,1191097,0.0-17.0-1.11,18910,List1A,white,woman,,,,null,,,,
null,is arguing with,,html-keyboard-response,272,1193099,0.0-17.0-2.11,18910,List1A,white,woman,,,,null,,,,
10273,,,survey-text,273,1203374,0.0-17.0-3.11,18910,List1A,white,woman,,,,,"{""Q0"":""ruth is arguing with kate""}","<img src=""stim_listA/argue7.gif""</stim_listA>",is arguing with,
null,"<div style=""font-size:60px;"">+</div>",,html-keyboard-response,274,1203877,0.0-17.0-0.12,18910,List1A,white,woman,,,,null,,,,
null,"<img src=""stim_listA/marry5.gif""</stim_listA>",,html-keyboard-response,275,1205880,0.0-17.0-1.12,18910,List1A,white,woman,,,,null,,,,
null,is marrying,,html-keyboard-response,276,1207881,0.0-17.0-2.12,18910,List1A,white,woman,,,,null,,,,
8281,,,survey-text,277,1216164,0.0-17.0-3.12,18910,List1A,white,woman,,,,,"{""Q0"":""mike is marrying luke""}","<img src=""stim_listA/marry5.gif""</stim_listA>",is marrying,
null,"<div style=""font-size:60px;"">+</div>",,html-keyboard-response,278,1216666,0.0-17.0-0.13,18910,List1A,white,woman,,,,null,,,,
null,"<img src=""stim_listA/shout6.gif""</stim_listA>",,html-keyboard-response,279,1218669,0.0-17.0-1.13,18910,List1A,white,woman,,,,null,,,,
null,are shouting at each other,,html-keyboard-response,280,1220671,0.0-17.0-2.13,18910,List1A,white,woman,,,,null,,,,
8834,,,survey-text,281,1229508,0.0-17.0-3.13,18910,List1A,white,woman,,,,,"{""Q0"":""luke and dave are shouting at each other""}","<img src=""stim_listA/shout6.gif""</stim_listA>",are shouting at each other,
null,"<div style=""font-size:60px;"">+</div>",,html-keyboard-response,282,1230009,0.0-17.0-0.14,18910,List1A,white,woman,,,,null,,,,
null,"<img src=""stim_listA/talk2.gif""</stim_listA>",,html-keyboard-response,283,1232011,0.0-17.0-1.14,18910,List1A,white,woman,,,,null,,,,
null,are talking to each other,,html-keyboard-response,284,1234012,0.0-17.0-2.14,18910,List1A,white,woman,,,,null,,,,
16027,,,survey-text,285,1250040,0.0-17.0-3.14,18910,List1A,white,woman,,,,,"{""Q0"":""beth and mike are talking to each other""}","<img src=""stim_listA/talk2.gif""</stim_listA>",are talking to each other,
null,"<div style=""font-size:60px;"">+</div>",,html-keyboard-response,286,1250542,0.0-17.0-0.15,18910,List1A,white,woman,,,,null,,,,
null,"<img src=""stim_listA/fight6.gif""</stim_listA>",,html-keyboard-response,287,1252543,0.0-17.0-1.15,18910,List1A,white,woman,,,,null,,,,
null,are fighting each other,,html-keyboard-response,288,1254545,0.0-17.0-2.15,18910,List1A,white,woman,,,,null,,,,
9965,,,survey-text,289,1264513,0.0-17.0-3.15,18910,List1A,white,woman,,,,,"{""Q0"":""fred and luke are fighting each other""}","<img src=""stim_listA/fight6.gif""</stim_listA>",are fighting each other,
null,"<div style=""font-size:60px;"">+</div>",,html-keyboard-response,290,1265016,0.0-17.0-0.16,18910,List1A,white,woman,,,,null,,,,
null,"<img src=""stim_listA/meet4.gif""</stim_listA>",,html-keyboard-response,291,1267019,0.0-17.0-1.16,18910,List1A,white,woman,,,,null,,,,
null,are meeting each other,,html-keyboard-response,292,1269021,0.0-17.0-2.16,18910,List1A,white,woman,,,,null,,,,
11290,,,survey-text,293,1280314,0.0-17.0-3.16,18910,List1A,white,woman,,,,,"{""Q0"":""beth and luke are meeting each other""}","<img src=""stim_listA/meet4.gif""</stim_listA>",are meeting each other,
null,"<div style=""font-size:60px;"">+</div>",,html-keyboard-response,294,1280815,0.0-17.0-0.17,18910,List1A,white,woman,,,,null,,,,
null,"<img src=""stim_listA/kiss3.gif""</stim_listA>",,html-keyboard-response,295,1282818,0.0-17.0-1.17,18910,List1A,white,woman,,,,null,,,,
null,is kissing,,html-keyboard-response,296,1284824,0.0-17.0-2.17,18910,List1A,white,woman,,,,null,,,,
5682,,,survey-text,297,1290508,0.0-17.0-3.17,18910,List1A,white,woman,,,,,"{""Q0"":""beth is kissing luke""}","<img src=""stim_listA/kiss3.gif""</stim_listA>",is kissing,
null,"<div style=""font-size:60px;"">+</div>",,html-keyboard-response,298,1291010,0.0-17.0-0.18,18910,List1A,white,woman,,,,null,,,,
null,"<img src=""stim_listA/hug1.gif""</stim_listA>",,html-keyboard-response,299,1293013,0.0-17.0-1.18,18910,List1A,white,woman,,,,null,,,,
null,is hugging,,html-keyboard-response,300,1295015,0.0-17.0-2.18,18910,List1A,white,woman,,,,null,,,,
4778,,,survey-text,301,1299795,0.0-17.0-3.18,18910,List1A,white,woman,,,,,"{""Q0"":""fred is hugging beth""}","<img src=""stim_listA/hug1.gif""</stim_listA>",is hugging,
null,"<div style=""font-size:60px;"">+</div>",,html-keyboard-response,302,1300298,0.0-17.0-0.19,18910,List1A,white,woman,,,,null,,,,
null,"<img src=""stim_listA/hug3.gif""</stim_listA>",,html-keyboard-response,303,1302300,0.0-17.0-1.19,18910,List1A,white,woman,,,,null,,,,
null,is hugging,,html-keyboard-response,304,1304302,0.0-17.0-2.19,18910,List1A,white,woman,,,,null,,,,
6364,,,survey-text,305,1310667,0.0-17.0-3.19,18910,List1A,white,woman,,,,,"{""Q0"":""luke is hugging ruth""}","<img src=""stim_listA/hug3.gif""</stim_listA>",is hugging,
7087,"<img src='img/portrait_matrix_list1.JPG' style='width:900px;height:500px;''></img><p>If you have memorised all the portraits and names and are ready to start, press Continue.</p><p><strong>Please note: Your memory of these faces will be tested 4 times during this experiment.</strong></p>",0,html-button-response,306,1317757,0.0-18.0-0.0,18910,List1A,white,woman,,,,,,,,
4379,"<img src=""portrait/WW2.jpg""style=""width:400px;height:400px;""></img>",3,html-button-response,307,1323139,0.0-18.0-1.0,18910,List1A,white,woman,,TRUE,3,,,,,
null,CORRECT,,html-keyboard-response,308,1324643,0.0-18.0-2.0-0.0,18910,List1A,white,woman,,,,null,,,,
3534,"<img src=""portrait/WW1.jpg""style=""width:400px;height:400px;""></img>",1,html-button-response,309,1328179,0.0-18.0-4.0,18910,List1A,white,woman,,TRUE,1,,,,,
null,CORRECT,,html-keyboard-response,310,1329683,0.0-18.0-5.0-0.0,18910,List1A,white,woman,,,,null,,,,
2958,"<img src=""portrait/BM1.jpg""style=""width:400px;height:400px;""></img>",4,html-button-response,311,1332643,0.0-18.0-7.0,18910,List1A,white,woman,,TRUE,4,,,,,
null,CORRECT,,html-keyboard-response,312,1334166,0.0-18.0-8.0-0.0,18910,List1A,white,woman,,,,null,,,,
5513,"<img src=""portrait/BW1.jpg""style=""width:400px;height:400px;""></img>",0,html-button-response,313,1339682,0.0-18.0-10.0,18910,List1A,white,woman,,TRUE,0,,,,,
null,CORRECT,,html-keyboard-response,314,1341185,0.0-18.0-11.0-0.0,18910,List1A,white,woman,,,,null,,,,
4260,"<img src=""portrait/WM2.jpg""style=""width:400px;height:400px;""></img>",7,html-button-response,315,1345447,0.0-18.0-13.0,18910,List1A,white,woman,,TRUE,7,,,,,
null,CORRECT,,html-keyboard-response,316,1346951,0.0-18.0-14.0-0.0,18910,List1A,white,woman,,,,null,,,,
990,"<img src=""portrait/WM1.jpg""style=""width:400px;height:400px;""></img>",6,html-button-response,317,1347944,0.0-18.0-16.0,18910,List1A,white,woman,,TRUE,6,,,,,
null,CORRECT,,html-keyboard-response,318,1349447,0.0-18.0-17.0-0.0,18910,List1A,white,woman,,,,null,,,,
2045,"<img src=""portrait/BM2.jpg""style=""width:400px;height:400px;""></img>",5,html-button-response,319,1351496,0.0-18.0-19.0,18910,List1A,white,woman,,TRUE,5,,,,,
null,CORRECT,,html-keyboard-response,320,1352999,0.0-18.0-20.0-0.0,18910,List1A,white,woman,,,,null,,,,
1342,"<img src=""portrait/BW2.jpg""style=""width:400px;height:400px;""></img>",2,html-button-response,321,1354343,0.0-18.0-22.0,18910,List1A,white,woman,,TRUE,2,,,,,
null,CORRECT,,html-keyboard-response,322,1355845,0.0-18.0-23.0-0.0,18910,List1A,white,woman,,,,null,,,,
1174,<p>You got 8 out of 8 right first time. Press Continue.</p>,0,html-button-response,323,1357023,0.0-18.0-25.0,18910,List1A,white,woman,,,,,,,,
null,"<div style=""font-size:60px;"">+</div>",,html-keyboard-response,324,1358527,0.0-19.0-0.0,18910,List1A,white,woman,,,,null,,,,
null,"<img src=""stim_listA/talk6.gif""</stim_listA>",,html-keyboard-response,325,1360529,0.0-19.0-1.0,18910,List1A,white,woman,,,,null,,,,
null,are talking to each other,,html-keyboard-response,326,1362531,0.0-19.0-2.0,18910,List1A,white,woman,,,,null,,,,
10407,,,survey-text,327,1372941,0.0-19.0-3.0,18910,List1A,white,woman,,,,,"{""Q0"":""luke and mike are talking to each other""}","<img src=""stim_listA/talk6.gif""</stim_listA>",are talking to each other,
null,"<div style=""font-size:60px;"">+</div>",,html-keyboard-response,328,1373442,0.0-19.0-0.1,18910,List1A,white,woman,,,,null,,,,
null,"<img src=""stim_listA/talk4.gif""</stim_listA>",,html-keyboard-response,329,1375443,0.0-19.0-1.1,18910,List1A,white,woman,,,,null,,,,
null,are talking to each other,,html-keyboard-response,330,1377444,0.0-19.0-2.1,18910,List1A,white,woman,,,,null,,,,
8088,,,survey-text,331,1385534,0.0-19.0-3.1,18910,List1A,white,woman,,,,,"{""Q0"":""dave and ruth are talking to each other""}","<img src=""stim_listA/talk4.gif""</stim_listA>",are talking to each other,
null,"<div style=""font-size:60px;"">+</div>",,html-keyboard-response,332,1386036,0.0-19.0-0.2,18910,List1A,white,woman,,,,null,,,,
null,"<img src=""stim_listA/kiss2.gif""</stim_listA>",,html-keyboard-response,333,1388040,0.0-19.0-1.2,18910,List1A,white,woman,,,,null,,,,
null,are kissing each other,,html-keyboard-response,334,1390042,0.0-19.0-2.2,18910,List1A,white,woman,,,,null,,,,
10146,,,survey-text,335,1400191,0.0-19.0-3.2,18910,List1A,white,woman,,,,,"{""Q0"":""mike and kate are kissing each other""}","<img src=""stim_listA/kiss2.gif""</stim_listA>",are kissing each other,
null,"<div style=""font-size:60px;"">+</div>",,html-keyboard-response,336,1400693,0.0-19.0-0.3,18910,List1A,white,woman,,,,null,,,,
null,"<img src=""stim_listA/dance8.gif""</stim_listA>",,html-keyboard-response,337,1402696,0.0-19.0-1.3,18910,List1A,white,woman,,,,null,,,,
null,are dancing with each other,,html-keyboard-response,338,1404698,0.0-19.0-2.3,18910,List1A,white,woman,,,,null,,,,
10110,,,survey-text,339,1414808,0.0-19.0-3.3,18910,List1A,white,woman,,,,,"{""Q0"":""kate and beth are dancing with each other""}","<img src=""stim_listA/dance8.gif""</stim_listA>",are dancing with each other,
null,"<div style=""font-size:60px;"">+</div>",,html-keyboard-response,340,1415310,0.0-19.0-0.4,18910,List1A,white,woman,,,,null,,,,
null,"<img src=""stim_listA/kiss5.gif""</stim_listA>",,html-keyboard-response,341,1417314,0.0-19.0-1.4,18910,List1A,white,woman,,,,null,,,,
null,is kissing,,html-keyboard-response,342,1419315,0.0-19.0-2.4,18910,List1A,white,woman,,,,null,,,,
9916,,,survey-text,343,1429234,0.0-19.0-3.4,18910,List1A,white,woman,,,,,"{""Q0"":""fred is kissing luke""}","<img src=""stim_listA/kiss5.gif""</stim_listA>",is kissing,
null,"<div style=""font-size:60px;"">+</div>",,html-keyboard-response,344,1429736,0.0-19.0-0.5,18910,List1A,white,woman,,,,null,,,,
null,"<img src=""stim_listA/dance1.gif""</stim_listA>",,html-keyboard-response,345,1431739,0.0-19.0-1.5,18910,List1A,white,woman,,,,null,,,,
null,is dancing with,,html-keyboard-response,346,1433741,0.0-19.0-2.5,18910,List1A,white,woman,,,,null,,,,
10344,,,survey-text,347,1444087,0.0-19.0-3.5,18910,List1A,white,woman,,,,,"{""Q0"":""fred is dancing with beth""}","<img src=""stim_listA/dance1.gif""</stim_listA>",is dancing with,
null,"<div style=""font-size:60px;"">+</div>",,html-keyboard-response,348,1444589,0.0-19.0-0.6,18910,List1A,white,woman,,,,null,,,,
null,"<img src=""stim_listA/hug8.gif""</stim_listA>",,html-keyboard-response,349,1446591,0.0-19.0-1.6,18910,List1A,white,woman,,,,null,,,,
null,are hugging each other,,html-keyboard-response,350,1448592,0.0-19.0-2.6,18910,List1A,white,woman,,,,null,,,,
18319,,,survey-text,351,1466912,0.0-19.0-3.6,18910,List1A,white,woman,,,,,"{""Q0"":""jane and beth are hugging each other""}","<img src=""stim_listA/hug8.gif""</stim_listA>",are hugging each other,
null,"<div style=""font-size:60px;"">+</div>",,html-keyboard-response,352,1467415,0.0-19.0-0.7,18910,List1A,white,woman,,,,null,,,,
null,"<img src=""stim_listA/kiss1.gif""</stim_listA>",,html-keyboard-response,353,1469423,0.0-19.0-1.7,18910,List1A,white,woman,,,,null,,,,
null,is kissing,,html-keyboard-response,354,1471425,0.0-19.0-2.7,18910,List1A,white,woman,,,,null,,,,
6889,,,survey-text,355,1478316,0.0-19.0-3.7,18910,List1A,white,woman,,,,,"{""Q0"":""fred is kissing beth""}","<img src=""stim_listA/kiss1.gif""</stim_listA>",is kissing,
null,"<div style=""font-size:60px;"">+</div>",,html-keyboard-response,356,1478819,0.0-19.0-0.8,18910,List1A,white,woman,,,,null,,,,
null,"<img src=""stim_listA/dance6.gif""</stim_listA>",,html-keyboard-response,357,1480822,0.0-19.0-1.8,18910,List1A,white,woman,,,,null,,,,
null,are dancing with each other,,html-keyboard-response,358,1482823,0.0-19.0-2.8,18910,List1A,white,woman,,,,null,,,,
7811,,,survey-text,359,1490636,0.0-19.0-3.8,18910,List1A,white,woman,,,,,"{""Q0"":""mike and luke are dancing with each other""}","<img src=""stim_listA/dance6.gif""</stim_listA>",are dancing with each other,
null,"<div style=""font-size:60px;"">+</div>",,html-keyboard-response,360,1491139,0.0-19.0-0.9,18910,List1A,white,woman,,,,null,,,,
null,"<img src=""stim_listA/dance7.gif""</stim_listA>",,html-keyboard-response,361,1493142,0.0-19.0-1.9,18910,List1A,white,woman,,,,null,,,,
null,is dancing with,,html-keyboard-response,362,1495144,0.0-19.0-2.9,18910,List1A,white,woman,,,,null,,,,
6810,,,survey-text,363,1501957,0.0-19.0-3.9,18910,List1A,white,woman,,,,,"{""Q0"":""jane is dancing with beth""}","<img src=""stim_listA/dance7.gif""</stim_listA>",is dancing with,
null,"<div style=""font-size:60px;"">+</div>",,html-keyboard-response,364,1502459,0.0-19.0-0.10,18910,List1A,white,woman,,,,null,,,,
null,"<img src=""stim_listA/touch3.gif""</stim_listA>",,html-keyboard-response,365,1504462,0.0-19.0-1.10,18910,List1A,white,woman,,,,null,,,,
null,is touching,,html-keyboard-response,366,1506464,0.0-19.0-2.10,18910,List1A,white,woman,,,,null,,,,
8193,,,survey-text,367,1514657,0.0-19.0-3.10,18910,List1A,white,woman,,,,,"{""Q0"":""jane is touching dave""}","<img src=""stim_listA/touch3.gif""</stim_listA>",is touching,
null,"<div style=""font-size:60px;"">+</div>",,html-keyboard-response,368,1515159,0.0-19.0-0.11,18910,List1A,white,woman,,,,null,,,,
null,"<img src=""stim_listA/argue8.gif""</stim_listA>",,html-keyboard-response,369,1517160,0.0-19.0-1.11,18910,List1A,white,woman,,,,null,,,,
null,are arguing with each other,,html-keyboard-response,370,1519161,0.0-19.0-2.11,18910,List1A,white,woman,,,,null,,,,
10869,,,survey-text,371,1530032,0.0-19.0-3.11,18910,List1A,white,woman,,,,,"{""Q0"":""jane and beth are arguing with each other""}","<img src=""stim_listA/argue8.gif""</stim_listA>",are arguing with each other,
null,"<div style=""font-size:60px;"">+</div>",,html-keyboard-response,372,1530535,0.0-19.0-0.12,18910,List1A,white,woman,,,,null,,,,
null,"<img src=""stim_listA/hug2.gif""</stim_listA>",,html-keyboard-response,373,1532538,0.0-19.0-1.12,18910,List1A,white,woman,,,,null,,,,
null,are hugging each other,,html-keyboard-response,374,1534540,0.0-19.0-2.12,18910,List1A,white,woman,,,,null,,,,
52496,,,survey-text,375,1587037,0.0-19.0-3.12,18910,List1A,white,woman,,,,,"{""Q0"":""mike and kate are hugging each other""}","<img src=""stim_listA/hug2.gif""</stim_listA>",are hugging each other,
null,"<div style=""font-size:60px;"">+</div>",,html-keyboard-response,376,1587539,0.0-19.0-0.13,18910,List1A,white,woman,,,,null,,,,
null,"<img src=""stim_listA/marry1.gif""</stim_listA>",,html-keyboard-response,377,1589540,0.0-19.0-1.13,18910,List1A,white,woman,,,,null,,,,
null,is marrying,,html-keyboard-response,378,1591545,0.0-19.0-2.13,18910,List1A,white,woman,,,,null,,,,
7406,,,survey-text,379,1598953,0.0-19.0-3.13,18910,List1A,white,woman,,,,,"{""Q0"":""mike is marrying beth""}","<img src=""stim_listA/marry1.gif""</stim_listA>",is marrying,
null,"<div style=""font-size:60px;"">+</div>",,html-keyboard-response,380,1599455,0.0-19.0-0.14,18910,List1A,white,woman,,,,null,,,,
null,"<img src=""stim_listA/argue4.gif""</stim_listA>",,html-keyboard-response,381,1601457,0.0-19.0-1.14,18910,List1A,white,woman,,,,null,,,,
null,are arguing with each other,,html-keyboard-response,382,1603458,0.0-19.0-2.14,18910,List1A,white,woman,,,,null,,,,
29364,,,survey-text,383,1632824,0.0-19.0-3.14,18910,List1A,white,woman,,,,,"{""Q0"":""luke is arguing with jane""}","<img src=""stim_listA/argue4.gif""</stim_listA>",are arguing with each other,
null,"<div style=""font-size:60px;"">+</div>",,html-keyboard-response,384,1633326,0.0-19.0-0.15,18910,List1A,white,woman,,,,null,,,,
null,"<img src=""stim_listA/argue5.gif""</stim_listA>",,html-keyboard-response,385,1635333,0.0-19.0-1.15,18910,List1A,white,woman,,,,null,,,,
null,is arguing with,,html-keyboard-response,386,1637348,0.0-19.0-2.15,18910,List1A,white,woman,,,,null,,,,
13065,,,survey-text,387,1650415,0.0-19.0-3.15,18910,List1A,white,woman,,,,,"{""Q0"":""luke is arguing with mike""}","<img src=""stim_listA/argue5.gif""</stim_listA>",is arguing with,
null,"<div style=""font-size:60px;"">+</div>",,html-keyboard-response,388,1650917,0.0-19.0-0.16,18910,List1A,white,woman,,,,null,,,,
null,"<img src=""stim_listA/hug6.gif""</stim_listA>",,html-keyboard-response,389,1652925,0.0-19.0-1.16,18910,List1A,white,woman,,,,null,,,,
null,are hugging each other,,html-keyboard-response,390,1654927,0.0-19.0-2.16,18910,List1A,white,woman,,,,null,,,,
10554,,,survey-text,391,1665483,0.0-19.0-3.16,18910,List1A,white,woman,,,,,"{""Q0"":""mike and dave are hugging each other""}","<img src=""stim_listA/hug6.gif""</stim_listA>",are hugging each other,
null,"<div style=""font-size:60px;"">+</div>",,html-keyboard-response,392,1665985,0.0-19.0-0.17,18910,List1A,white,woman,,,,null,,,,
null,"<img src=""stim_listA/shout8.gif""</stim_listA>",,html-keyboard-response,393,1667987,0.0-19.0-1.17,18910,List1A,white,woman,,,,null,,,,
null,are shouting at each other,,html-keyboard-response,394,1669988,0.0-19.0-2.17,18910,List1A,white,woman,,,,null,,,,
9869,,,survey-text,395,1679859,0.0-19.0-3.17,18910,List1A,white,woman,,,,,"{""Q0"":""jane and kate are shouting at each other""}","<img src=""stim_listA/shout8.gif""</stim_listA>",are shouting at each other,
null,"<div style=""font-size:60px;"">+</div>",,html-keyboard-response,396,1680362,0.0-19.0-0.18,18910,List1A,white,woman,,,,null,,,,
null,"<img src=""stim_listA/touch1.gif""</stim_listA>",,html-keyboard-response,397,1682366,0.0-19.0-1.18,18910,List1A,white,woman,,,,null,,,,
null,is touching,,html-keyboard-response,398,1684368,0.0-19.0-2.18,18910,List1A,white,woman,,,,null,,,,
7881,,,survey-text,399,1692251,0.0-19.0-3.18,18910,List1A,white,woman,,,,,"{""Q0"":""mike is touching kate""}","<img src=""stim_listA/touch1.gif""</stim_listA>",is touching,
null,"<div style=""font-size:60px;"">+</div>",,html-keyboard-response,400,1692753,0.0-19.0-0.19,18910,List1A,white,woman,,,,null,,,,
null,"<img src=""stim_listA/kiss4.gif""</stim_listA>",,html-keyboard-response,401,1694756,0.0-19.0-1.19,18910,List1A,white,woman,,,,null,,,,
null,are kissing each other,,html-keyboard-response,402,1696758,0.0-19.0-2.19,18910,List1A,white,woman,,,,null,,,,
10146,,,survey-text,403,1706906,0.0-19.0-3.19,18910,List1A,white,woman,,,,,"{""Q0"":""jane and dave are kissing each other""}","<img src=""stim_listA/kiss4.gif""</stim_listA>",are kissing each other,
1622,<p>Thank you for completing that task.</p><p>The final part of this session is a short questionnaire.</p><p>Press Continue.</p>,0,html-button-response,404,1708530,0.0-20.0,18910,List1A,white,woman,,,,,,,,
19208,,,survey-text,405,1728742,0.0-21.0,18910,List1A,white,woman,,,,,"{""Q0"":""31"",""Q1"":""English"",""Q2"":""English"",""Q3"":""England"",""Q4"":""British"",""Q5"":""Female""}",,,demographics
30951,,,survey-likert,406,1759704,0.0-22.0,18910,List1A,white,woman,,,,,"{""Q0"":3,""Q1"":3,""Q2"":"""",""Q3"":5,""Q4"":4,""Q5"":"""",""Q6"":4,""Q7"":1,""Q8"":3,""Q9"":2,""Q10"":5,""Q11"":5,""Q12"":5,""Q13"":4}",,,likert_race
22849,,,survey-likert,407,1782567,0.0-23.0,18910,List1A,white,woman,,,,,"{""Q0"":3,""Q1"":3,""Q2"":3,""Q3"":3,""Q4"":3,""Q5"":3,""Q6"":3,""Q7"":3,""Q8"":3,""Q9"":3,""Q10"":3,""Q11"":3,""Q12"":3,""Q13"":3}",,,likert_gender
3320,,,survey-text,408,1785891,0.0-24.0,18910,List1A,white,woman,,,,,"{""Q0"":""ccc""}",,,worker_id
14587,,,external-html,409,1800560,0.0-25.0,18910,List1A,white,woman,debrief.html,,,,,,,
