rt,stimulus,button_pressed,trial_type,trial_index,time_elapsed,internal_node_id,subject,list,ppt_race,ppt_gender,url,first_guess,correct,key_press,responses,image_type,phrase_type,test_part
3660,Welcome to the experiment. Press Continue to begin.,0,html-button-response,0,3661,0.0-0.0,19715,List2B,black,woman,,,,,,,,
7787,,,external-html,1,17573,0.0-1.0,19715,List2B,black,woman,consent.html,,,,,,,
11207,"<p>On the next page, you will see portraits of 8 people and their names.</p><p>Your first task is to take a few minutes to memorise the names of these people.</p><p>You will have to recall their names during the rest of the experiment, so it is</p><p>essential that you try to memorise these people and their names as best as you can.</p><br><p><strong>You will then be tested on your memory of these names and portraits.</strong></p><br><p>The experiment will start after you have completed this memory test.</p><br><p>Ready?</p>",0,html-button-response,2,28782,0.0-2.0,19715,List2B,black,woman,,,,,,,,
46599,"<img src='img/portrait_matrix_list2.JPG' style='width:900px;height:500px;''></img><p>If you have memorised all the portraits and names and are ready to start, press Continue.</p><p><strong>Please note: Your memory of these faces will be tested 4 times during this experiment.</strong></p>",0,html-button-response,3,76382,0.0-3.0-0.0,19715,List2B,black,woman,,,,,,,,
2215,"<img src=""portrait/WW2.jpg""style=""width:400px;height:400px;""></img>",3,html-button-response,4,79600,0.0-3.0-1.0,19715,List2B,black,woman,,TRUE,3,,,,,
null,CORRECT,,html-keyboard-response,5,81104,0.0-3.0-2.0-0.0,19715,List2B,black,woman,,,,null,,,,
3381,"<img src=""portrait/WW1.jpg""style=""width:400px;height:400px;""></img>",2,html-button-response,6,84486,0.0-3.0-4.0,19715,List2B,black,woman,,TRUE,1,,,,,
3525,"<img src=""portrait/WW1.jpg""style=""width:400px;height:400px;""></img>",1,html-button-response,7,89014,0.0-3.0-6.0-0.0,19715,List2B,black,woman,,FALSE,1,,,,,
null,CORRECT,,html-keyboard-response,8,90516,0.0-3.0-6.0-1.0-0.0,19715,List2B,black,woman,,,,null,,,,
2064,"<img src=""portrait/WM2.jpg""style=""width:400px;height:400px;""></img>",7,html-button-response,9,92581,0.0-3.0-7.0,19715,List2B,black,woman,,TRUE,7,,,,,
null,CORRECT,,html-keyboard-response,10,94084,0.0-3.0-8.0-0.0,19715,List2B,black,woman,,,,null,,,,
3089,"<img src=""portrait/BM2.jpg""style=""width:400px;height:400px;""></img>",5,html-button-response,11,97175,0.0-3.0-10.0,19715,List2B,black,woman,,TRUE,5,,,,,
null,CORRECT,,html-keyboard-response,12,98679,0.0-3.0-11.0-0.0,19715,List2B,black,woman,,,,null,,,,
4255,"<img src=""portrait/WM1.jpg""style=""width:400px;height:400px;""></img>",6,html-button-response,13,102935,0.0-3.0-13.0,19715,List2B,black,woman,,TRUE,6,,,,,
null,CORRECT,,html-keyboard-response,14,104437,0.0-3.0-14.0-0.0,19715,List2B,black,woman,,,,null,,,,
3167,"<img src=""portrait/BW1.jpg""style=""width:400px;height:400px;""></img>",0,html-button-response,15,107605,0.0-3.0-16.0,19715,List2B,black,woman,,TRUE,0,,,,,
null,CORRECT,,html-keyboard-response,16,109107,0.0-3.0-17.0-0.0,19715,List2B,black,woman,,,,null,,,,
3089,"<img src=""portrait/BM1.jpg""style=""width:400px;height:400px;""></img>",4,html-button-response,17,112198,0.0-3.0-19.0,19715,List2B,black,woman,,TRUE,4,,,,,
null,CORRECT,,html-keyboard-response,18,113700,0.0-3.0-20.0-0.0,19715,List2B,black,woman,,,,null,,,,
4450,"<img src=""portrait/BW2.jpg""style=""width:400px;height:400px;""></img>",2,html-button-response,19,118150,0.0-3.0-22.0,19715,List2B,black,woman,,TRUE,2,,,,,
null,CORRECT,,html-keyboard-response,20,119653,0.0-3.0-23.0-0.0,19715,List2B,black,woman,,,,null,,,,
2040,<p>You got 7 out of 8 right first time. Press Continue.</p>,0,html-button-response,21,121694,0.0-3.0-25.0,19715,List2B,black,woman,,,,,,,,
2726,"As you did not score 100%, the memory game will repeat. Press Continue.",0,html-button-response,22,125421,0.0-3.0-26.0-0.0,19715,List2B,black,woman,,,,,,,,
5622,"<img src='img/portrait_matrix_list2.JPG' style='width:900px;height:500px;''></img><p>If you have memorised all the portraits and names and are ready to start, press Continue.</p><p><strong>Please note: Your memory of these faces will be tested 4 times during this experiment.</strong></p>",0,html-button-response,23,132046,0.0-3.1-0.1,19715,List2B,black,woman,,,,,,,,
1424,"<img src=""portrait/WW2.jpg""style=""width:400px;height:400px;""></img>",3,html-button-response,24,134470,0.0-3.1-1.1,19715,List2B,black,woman,,TRUE,3,,,,,
null,CORRECT,,html-keyboard-response,25,135971,0.0-3.1-2.1-0.1,19715,List2B,black,woman,,,,null,,,,
1322,"<img src=""portrait/WW1.jpg""style=""width:400px;height:400px;""></img>",1,html-button-response,26,137295,0.0-3.1-4.1,19715,List2B,black,woman,,TRUE,1,,,,,
null,CORRECT,,html-keyboard-response,27,138796,0.0-3.1-5.1-0.1,19715,List2B,black,woman,,,,null,,,,
1617,"<img src=""portrait/WM2.jpg""style=""width:400px;height:400px;""></img>",7,html-button-response,28,140414,0.0-3.1-7.1,19715,List2B,black,woman,,TRUE,7,,,,,
null,CORRECT,,html-keyboard-response,29,141918,0.0-3.1-8.1-0.1,19715,List2B,black,woman,,,,null,,,,
1200,"<img src=""portrait/BM2.jpg""style=""width:400px;height:400px;""></img>",5,html-button-response,30,143119,0.0-3.1-10.1,19715,List2B,black,woman,,TRUE,5,,,,,
null,CORRECT,,html-keyboard-response,31,144621,0.0-3.1-11.1-0.1,19715,List2B,black,woman,,,,null,,,,
1873,"<img src=""portrait/WM1.jpg""style=""width:400px;height:400px;""></img>",6,html-button-response,32,146495,0.0-3.1-13.1,19715,List2B,black,woman,,TRUE,6,,,,,
null,CORRECT,,html-keyboard-response,33,148000,0.0-3.1-14.1-0.1,19715,List2B,black,woman,,,,null,,,,
1421,"<img src=""portrait/BW1.jpg""style=""width:400px;height:400px;""></img>",0,html-button-response,34,149422,0.0-3.1-16.1,19715,List2B,black,woman,,TRUE,0,,,,,
null,CORRECT,,html-keyboard-response,35,150927,0.0-3.1-17.1-0.1,19715,List2B,black,woman,,,,null,,,,
2212,"<img src=""portrait/BM1.jpg""style=""width:400px;height:400px;""></img>",5,html-button-response,36,153142,0.0-3.1-19.1,19715,List2B,black,woman,,TRUE,4,,,,,
1694,"<img src=""portrait/BM1.jpg""style=""width:400px;height:400px;""></img>",4,html-button-response,37,155837,0.0-3.1-21.1-0.1,19715,List2B,black,woman,,FALSE,4,,,,,
null,CORRECT,,html-keyboard-response,38,157340,0.0-3.1-21.1-1.1-0.1,19715,List2B,black,woman,,,,null,,,,
4666,"<img src=""portrait/BW2.jpg""style=""width:400px;height:400px;""></img>",2,html-button-response,39,162008,0.0-3.1-22.1,19715,List2B,black,woman,,TRUE,2,,,,,
null,CORRECT,,html-keyboard-response,40,163510,0.0-3.1-23.1-0.1,19715,List2B,black,woman,,,,null,,,,
1289,<p>You got 7 out of 8 right first time. Press Continue.</p>,0,html-button-response,41,164799,0.0-3.1-25.1,19715,List2B,black,woman,,,,,,,,
1328,"As you did not score 100%, the memory game will repeat. Press Continue.",0,html-button-response,42,167128,0.0-3.1-26.1-0.1,19715,List2B,black,woman,,,,,,,,
17749,"<img src='img/portrait_matrix_list2.JPG' style='width:900px;height:500px;''></img><p>If you have memorised all the portraits and names and are ready to start, press Continue.</p><p><strong>Please note: Your memory of these faces will be tested 4 times during this experiment.</strong></p>",0,html-button-response,43,185879,0.0-3.2-0.2,19715,List2B,black,woman,,,,,,,,
2294,"<img src=""portrait/WW2.jpg""style=""width:400px;height:400px;""></img>",3,html-button-response,44,189176,0.0-3.2-1.2,19715,List2B,black,woman,,TRUE,3,,,,,
null,CORRECT,,html-keyboard-response,45,190678,0.0-3.2-2.2-0.2,19715,List2B,black,woman,,,,null,,,,
1103,"<img src=""portrait/WW1.jpg""style=""width:400px;height:400px;""></img>",1,html-button-response,46,191783,0.0-3.2-4.2,19715,List2B,black,woman,,TRUE,1,,,,,
null,CORRECT,,html-keyboard-response,47,193285,0.0-3.2-5.2-0.2,19715,List2B,black,woman,,,,null,,,,
1465,"<img src=""portrait/WM2.jpg""style=""width:400px;height:400px;""></img>",7,html-button-response,48,194751,0.0-3.2-7.2,19715,List2B,black,woman,,TRUE,7,,,,,
null,CORRECT,,html-keyboard-response,49,196255,0.0-3.2-8.2-0.2,19715,List2B,black,woman,,,,null,,,,
1536,"<img src=""portrait/BM2.jpg""style=""width:400px;height:400px;""></img>",5,html-button-response,50,197792,0.0-3.2-10.2,19715,List2B,black,woman,,TRUE,5,,,,,
null,CORRECT,,html-keyboard-response,51,199296,0.0-3.2-11.2-0.2,19715,List2B,black,woman,,,,null,,,,
1384,"<img src=""portrait/WM1.jpg""style=""width:400px;height:400px;""></img>",6,html-button-response,52,200681,0.0-3.2-13.2,19715,List2B,black,woman,,TRUE,6,,,,,
null,CORRECT,,html-keyboard-response,53,202183,0.0-3.2-14.2-0.2,19715,List2B,black,woman,,,,null,,,,
1661,"<img src=""portrait/BW1.jpg""style=""width:400px;height:400px;""></img>",0,html-button-response,54,203848,0.0-3.2-16.2,19715,List2B,black,woman,,TRUE,0,,,,,
null,CORRECT,,html-keyboard-response,55,205351,0.0-3.2-17.2-0.2,19715,List2B,black,woman,,,,null,,,,
1711,"<img src=""portrait/BM1.jpg""style=""width:400px;height:400px;""></img>",4,html-button-response,56,207063,0.0-3.2-19.2,19715,List2B,black,woman,,TRUE,4,,,,,
null,CORRECT,,html-keyboard-response,57,208565,0.0-3.2-20.2-0.2,19715,List2B,black,woman,,,,null,,,,
1817,"<img src=""portrait/BW2.jpg""style=""width:400px;height:400px;""></img>",2,html-button-response,58,210384,0.0-3.2-22.2,19715,List2B,black,woman,,TRUE,2,,,,,
null,CORRECT,,html-keyboard-response,59,211887,0.0-3.2-23.2-0.2,19715,List2B,black,woman,,,,null,,,,
1143,<p>You got 8 out of 8 right first time. Press Continue.</p>,0,html-button-response,60,213032,0.0-3.2-25.2,19715,List2B,black,woman,,,,,,,,
21022,"<p>In this experiment, you will view photographs of the people from the memory game interacting.</p><p>By using the <strong>exact</strong> phrase given <i>after</i> the photograph appears and recalling the correct names of the people in the photographs, form a sentence describing the interaction. You do not need to capitalise names.</p><p>Type your answer in the space provided. Please complete every sentence before moving onto the next trial.</p><p>You will only have a few seconds to memorise each given photograph and phrase before you can respond, so try your best to focus.</p><p>An example is given below. Press 'Continue' when you are ready.</p><img src='img/speaking_example_v2.jpg' style='width:800px;height:460px;''></img>",0,html-button-response,61,235057,0.0-4.0,19715,List2B,black,woman,,,,,,,,
1252,"<p>Before the experiment starts, you will watch two example trials. Press 'Continue'.</p>",0,html-button-response,62,237311,0.0-5.0,19715,List2B,black,woman,,,,,,,,
null,<img src='img/speaking_WW.gif'></img>,,html-keyboard-response,63,240314,0.0-6.0,19715,List2B,black,woman,,,,null,,,,
null,<p>is speaking to</p>,,html-keyboard-response,64,242316,0.0-7.0,19715,List2B,black,woman,,,,null,,,,
2180,<p><b>Answer:</b> jane is speaking to ruth</p>,0,html-button-response,65,244497,0.0-8.0,19715,List2B,black,woman,,,,,,,,
null,<img src='img/pointing_BM.gif'></img>,,html-keyboard-response,66,247500,0.0-9.0,19715,List2B,black,woman,,,,null,,,,
null,<p>are pointing at each other</p>,,html-keyboard-response,67,249500,0.0-10.0,19715,List2B,black,woman,,,,null,,,,
1810,<p><b>Answer:</b> fred and mike are pointing at each other</p>,0,html-button-response,68,251311,0.0-11.0,19715,List2B,black,woman,,,,,,,,
1534,"<p>Ready to start the experiment?</p><br><p><strong>Remember to describe the picture using a full sentence,</strong></p><p><strong>that combines the names of the people with the given phrase.</strong></p><p><strong>If you do not do this correctly you will not be paid.</strong></p><p><strong> You do not need to capitalise names or use punctuation.</strong></p><br><p>Press 'Continue' to begin.</p>",0,html-button-response,69,253847,0.0-12.0,19715,List2B,black,woman,,,,,,,,
null,"<div style=""font-size:60px;"">+</div>",,html-keyboard-response,70,255350,0.0-13.0-0.0,19715,List2B,black,woman,,,,null,,,,
null,"<img src=""stim_listB/shout2.gif""</stim_listB>",,html-keyboard-response,71,257352,0.0-13.0-1.0,19715,List2B,black,woman,,,,null,,,,
null,are shouting at each other,,html-keyboard-response,72,259353,0.0-13.0-2.0,19715,List2B,black,woman,,,,null,,,,
10511,,,survey-text,73,269864,0.0-13.0-3.0,19715,List2B,black,woman,,,,,"{""Q0"":""dave and jane are shouting at each other""}","<img src=""stim_listB/shout2.gif""</stim_listB>",are shouting at each other,
null,"<div style=""font-size:60px;"">+</div>",,html-keyboard-response,74,270367,0.0-13.0-0.1,19715,List2B,black,woman,,,,null,,,,
null,"<img src=""stim_listB/kiss2.gif""</stim_listB>",,html-keyboard-response,75,272368,0.0-13.0-1.1,19715,List2B,black,woman,,,,null,,,,
null,are kissing each other,,html-keyboard-response,76,274369,0.0-13.0-2.1,19715,List2B,black,woman,,,,null,,,,
7389,,,survey-text,77,281760,0.0-13.0-3.1,19715,List2B,black,woman,,,,,"{""Q0"":""dave and jane are kissing each other""}","<img src=""stim_listB/kiss2.gif""</stim_listB>",are kissing each other,
null,"<div style=""font-size:60px;"">+</div>",,html-keyboard-response,78,282260,0.0-13.0-0.2,19715,List2B,black,woman,,,,null,,,,
null,"<img src=""stim_listB/dance5.gif""</stim_listB>",,html-keyboard-response,79,284263,0.0-13.0-1.2,19715,List2B,black,woman,,,,null,,,,
null,is dancing with,,html-keyboard-response,80,286265,0.0-13.0-2.2,19715,List2B,black,woman,,,,null,,,,
6376,,,survey-text,81,292641,0.0-13.0-3.2,19715,List2B,black,woman,,,,,"{""Q0"":""mike is dancing with luke""}","<img src=""stim_listB/dance5.gif""</stim_listB>",is dancing with,
null,"<div style=""font-size:60px;"">+</div>",,html-keyboard-response,82,293143,0.0-13.0-0.3,19715,List2B,black,woman,,,,null,,,,
null,"<img src=""stim_listB/talk6.gif""</stim_listB>",,html-keyboard-response,83,295145,0.0-13.0-1.3,19715,List2B,black,woman,,,,null,,,,
null,are talking to each other,,html-keyboard-response,84,297148,0.0-13.0-2.3,19715,List2B,black,woman,,,,null,,,,
7939,,,survey-text,85,305089,0.0-13.0-3.3,19715,List2B,black,woman,,,,,"{""Q0"":""dave and fred are talking to each other.""}","<img src=""stim_listB/talk6.gif""</stim_listB>",are talking to each other,
null,"<div style=""font-size:60px;"">+</div>",,html-keyboard-response,86,305590,0.0-13.0-0.4,19715,List2B,black,woman,,,,null,,,,
null,"<img src=""stim_listB/talk8.gif""</stim_listB>",,html-keyboard-response,87,307592,0.0-13.0-1.4,19715,List2B,black,woman,,,,null,,,,
null,are talking to each other,,html-keyboard-response,88,309593,0.0-13.0-2.4,19715,List2B,black,woman,,,,null,,,,
7918,,,survey-text,89,317512,0.0-13.0-3.4,19715,List2B,black,woman,,,,,"{""Q0"":""jane and beth are talking to each other.""}","<img src=""stim_listB/talk8.gif""</stim_listB>",are talking to each other,
null,"<div style=""font-size:60px;"">+</div>",,html-keyboard-response,90,318014,0.0-13.0-0.5,19715,List2B,black,woman,,,,null,,,,
null,"<img src=""stim_listB/argue5.gif""</stim_listB>",,html-keyboard-response,91,320016,0.0-13.0-1.5,19715,List2B,black,woman,,,,null,,,,
null,is arguing with,,html-keyboard-response,92,322019,0.0-13.0-2.5,19715,List2B,black,woman,,,,null,,,,
5821,,,survey-text,93,327840,0.0-13.0-3.5,19715,List2B,black,woman,,,,,"{""Q0"":""dave is arguing with fred""}","<img src=""stim_listB/argue5.gif""</stim_listB>",is arguing with,
null,"<div style=""font-size:60px;"">+</div>",,html-keyboard-response,94,328342,0.0-13.0-0.6,19715,List2B,black,woman,,,,null,,,,
null,"<img src=""stim_listB/talk7.gif""</stim_listB>",,html-keyboard-response,95,330344,0.0-13.0-1.6,19715,List2B,black,woman,,,,null,,,,
null,is talking to,,html-keyboard-response,96,332346,0.0-13.0-2.6,19715,List2B,black,woman,,,,null,,,,
6982,,,survey-text,97,339328,0.0-13.0-3.6,19715,List2B,black,woman,,,,,"{""Q0"":""ruth is talking to kate""}","<img src=""stim_listB/talk7.gif""</stim_listB>",is talking to,
null,"<div style=""font-size:60px;"">+</div>",,html-keyboard-response,98,339830,0.0-13.0-0.7,19715,List2B,black,woman,,,,null,,,,
null,"<img src=""stim_listB/marry7.gif""</stim_listB>",,html-keyboard-response,99,341833,0.0-13.0-1.7,19715,List2B,black,woman,,,,null,,,,
null,is marrying,,html-keyboard-response,100,343835,0.0-13.0-2.7,19715,List2B,black,woman,,,,null,,,,
16037,,,survey-text,101,359873,0.0-13.0-3.7,19715,List2B,black,woman,,,,,"{""Q0"":""jane is marrying beth""}","<img src=""stim_listB/marry7.gif""</stim_listB>",is marrying,
null,"<div style=""font-size:60px;"">+</div>",,html-keyboard-response,102,360376,0.0-13.0-0.8,19715,List2B,black,woman,,,,null,,,,
null,"<img src=""stim_listB/fight8.gif""</stim_listB>",,html-keyboard-response,103,362379,0.0-13.0-1.8,19715,List2B,black,woman,,,,null,,,,
null,are fighting each other,,html-keyboard-response,104,364380,0.0-13.0-2.8,19715,List2B,black,woman,,,,null,,,,
7908,,,survey-text,105,372288,0.0-13.0-3.8,19715,List2B,black,woman,,,,,"{""Q0"":""beth and ruth are fighting each other.""}","<img src=""stim_listB/fight8.gif""</stim_listB>",are fighting each other,
null,"<div style=""font-size:60px;"">+</div>",,html-keyboard-response,106,372790,0.0-13.0-0.9,19715,List2B,black,woman,,,,null,,,,
null,"<img src=""stim_listB/touch5.gif""</stim_listB>",,html-keyboard-response,107,374792,0.0-13.0-1.9,19715,List2B,black,woman,,,,null,,,,
null,is touching,,html-keyboard-response,108,376793,0.0-13.0-2.9,19715,List2B,black,woman,,,,null,,,,
8079,,,survey-text,109,384872,0.0-13.0-3.9,19715,List2B,black,woman,,,,,"{""Q0"":""mike is touching dave""}","<img src=""stim_listB/touch5.gif""</stim_listB>",is touching,
null,"<div style=""font-size:60px;"">+</div>",,html-keyboard-response,110,385373,0.0-13.0-0.10,19715,List2B,black,woman,,,,null,,,,
null,"<img src=""stim_listB/fight2.gif""</stim_listB>",,html-keyboard-response,111,387376,0.0-13.0-1.10,19715,List2B,black,woman,,,,null,,,,
null,are fighting each other,,html-keyboard-response,112,389377,0.0-13.0-2.10,19715,List2B,black,woman,,,,null,,,,
7670,,,survey-text,113,397049,0.0-13.0-3.10,19715,List2B,black,woman,,,,,"{""Q0"":""luke and ruth are fighting each other""}","<img src=""stim_listB/fight2.gif""</stim_listB>",are fighting each other,
null,"<div style=""font-size:60px;"">+</div>",,html-keyboard-response,114,397551,0.0-13.0-0.11,19715,List2B,black,woman,,,,null,,,,
null,"<img src=""stim_listB/marry2.gif""</stim_listB>",,html-keyboard-response,115,399553,0.0-13.0-1.11,19715,List2B,black,woman,,,,null,,,,
null,are marrying each other,,html-keyboard-response,116,401555,0.0-13.0-2.11,19715,List2B,black,woman,,,,null,,,,
7557,,,survey-text,117,409112,0.0-13.0-3.11,19715,List2B,black,woman,,,,,"{""Q0"":""luke and jane are marrying each other""}","<img src=""stim_listB/marry2.gif""</stim_listB>",are marrying each other,
null,"<div style=""font-size:60px;"">+</div>",,html-keyboard-response,118,409614,0.0-13.0-0.12,19715,List2B,black,woman,,,,null,,,,
null,"<img src=""stim_listB/dance4.gif""</stim_listB>",,html-keyboard-response,119,411615,0.0-13.0-1.12,19715,List2B,black,woman,,,,null,,,,
null,are dancing with each other,,html-keyboard-response,120,413616,0.0-13.0-2.12,19715,List2B,black,woman,,,,null,,,,
9582,,,survey-text,121,423200,0.0-13.0-3.12,19715,List2B,black,woman,,,,,"{""Q0"":""beth and mike are dancing with each other""}","<img src=""stim_listB/dance4.gif""</stim_listB>",are dancing with each other,
null,"<div style=""font-size:60px;"">+</div>",,html-keyboard-response,122,423702,0.0-13.0-0.13,19715,List2B,black,woman,,,,null,,,,
null,"<img src=""stim_listB/dance2.gif""</stim_listB>",,html-keyboard-response,123,425704,0.0-13.0-1.13,19715,List2B,black,woman,,,,null,,,,
null,are dancing with each other,,html-keyboard-response,124,427705,0.0-13.0-2.13,19715,List2B,black,woman,,,,null,,,,
7703,,,survey-text,125,435408,0.0-13.0-3.13,19715,List2B,black,woman,,,,,"{""Q0"":""dave and ruth are dancing with each other""}","<img src=""stim_listB/dance2.gif""</stim_listB>",are dancing with each other,
null,"<div style=""font-size:60px;"">+</div>",,html-keyboard-response,126,435910,0.0-13.0-0.14,19715,List2B,black,woman,,,,null,,,,
null,"<img src=""stim_listB/marry3.gif""</stim_listB>",,html-keyboard-response,127,437912,0.0-13.0-1.14,19715,List2B,black,woman,,,,null,,,,
null,is marrying,,html-keyboard-response,128,439914,0.0-13.0-2.14,19715,List2B,black,woman,,,,null,,,,
6277,,,survey-text,129,446192,0.0-13.0-3.14,19715,List2B,black,woman,,,,,"{""Q0"":""mike is marrying beth""}","<img src=""stim_listB/marry3.gif""</stim_listB>",is marrying,
null,"<div style=""font-size:60px;"">+</div>",,html-keyboard-response,130,446693,0.0-13.0-0.15,19715,List2B,black,woman,,,,null,,,,
null,"<img src=""stim_listB/argue7.gif""</stim_listB>",,html-keyboard-response,131,448694,0.0-13.0-1.15,19715,List2B,black,woman,,,,null,,,,
null,is arguing with,,html-keyboard-response,132,450695,0.0-13.0-2.15,19715,List2B,black,woman,,,,null,,,,
6905,,,survey-text,133,457601,0.0-13.0-3.15,19715,List2B,black,woman,,,,,"{""Q0"":""beth is arguing with jane""}","<img src=""stim_listB/argue7.gif""</stim_listB>",is arguing with,
null,"<div style=""font-size:60px;"">+</div>",,html-keyboard-response,134,458102,0.0-13.0-0.16,19715,List2B,black,woman,,,,null,,,,
null,"<img src=""stim_listB/marry1.gif""</stim_listB>",,html-keyboard-response,135,460103,0.0-13.0-1.16,19715,List2B,black,woman,,,,null,,,,
null,is marrying,,html-keyboard-response,136,462103,0.0-13.0-2.16,19715,List2B,black,woman,,,,null,,,,
5178,,,survey-text,137,467281,0.0-13.0-3.16,19715,List2B,black,woman,,,,,"{""Q0"":""ruth is marrying dave""}","<img src=""stim_listB/marry1.gif""</stim_listB>",is marrying,
null,"<div style=""font-size:60px;"">+</div>",,html-keyboard-response,138,467782,0.0-13.0-0.17,19715,List2B,black,woman,,,,null,,,,
null,"<img src=""stim_listB/argue3.gif""</stim_listB>",,html-keyboard-response,139,469783,0.0-13.0-1.17,19715,List2B,black,woman,,,,null,,,,
null,is arguing with,,html-keyboard-response,140,471784,0.0-13.0-2.17,19715,List2B,black,woman,,,,null,,,,
5600,,,survey-text,141,477386,0.0-13.0-3.17,19715,List2B,black,woman,,,,,"{""Q0"":""beth is arguing with mike""}","<img src=""stim_listB/argue3.gif""</stim_listB>",is arguing with,
null,"<div style=""font-size:60px;"">+</div>",,html-keyboard-response,142,477886,0.0-13.0-0.18,19715,List2B,black,woman,,,,null,,,,
null,"<img src=""stim_listB/meet8.gif""</stim_listB>",,html-keyboard-response,143,479890,0.0-13.0-1.18,19715,List2B,black,woman,,,,null,,,,
null,are meeting each other,,html-keyboard-response,144,481892,0.0-13.0-2.18,19715,List2B,black,woman,,,,null,,,,
8636,,,survey-text,145,490530,0.0-13.0-3.18,19715,List2B,black,woman,,,,,"{""Q0"":""beth and ruth are meeting each other""}","<img src=""stim_listB/meet8.gif""</stim_listB>",are meeting each other,
null,"<div style=""font-size:60px;"">+</div>",,html-keyboard-response,146,491031,0.0-13.0-0.19,19715,List2B,black,woman,,,,null,,,,
null,"<img src=""stim_listB/kiss5.gif""</stim_listB>",,html-keyboard-response,147,493033,0.0-13.0-1.19,19715,List2B,black,woman,,,,null,,,,
null,is kissing,,html-keyboard-response,148,495036,0.0-13.0-2.19,19715,List2B,black,woman,,,,null,,,,
6460,,,survey-text,149,501497,0.0-13.0-3.19,19715,List2B,black,woman,,,,,"{""Q0"":""fred is kissing luke""}","<img src=""stim_listB/kiss5.gif""</stim_listB>",is kissing,
9288,"<img src='img/portrait_matrix_list2.JPG' style='width:900px;height:500px;''></img><p>If you have memorised all the portraits and names and are ready to start, press Continue.</p><p><strong>Please note: Your memory of these faces will be tested 4 times during this experiment.</strong></p>",0,html-button-response,150,510785,0.0-14.0-0.0,19715,List2B,black,woman,,,,,,,,
1206,"<img src=""portrait/WM2.jpg""style=""width:400px;height:400px;""></img>",7,html-button-response,151,512993,0.0-14.0-1.0,19715,List2B,black,woman,,TRUE,7,,,,,
null,CORRECT,,html-keyboard-response,152,514496,0.0-14.0-2.0-0.0,19715,List2B,black,woman,,,,null,,,,
1608,"<img src=""portrait/WW1.jpg""style=""width:400px;height:400px;""></img>",1,html-button-response,153,516105,0.0-14.0-4.0,19715,List2B,black,woman,,TRUE,1,,,,,
null,CORRECT,,html-keyboard-response,154,517608,0.0-14.0-5.0-0.0,19715,List2B,black,woman,,,,null,,,,
1625,"<img src=""portrait/BM2.jpg""style=""width:400px;height:400px;""></img>",5,html-button-response,155,519234,0.0-14.0-7.0,19715,List2B,black,woman,,TRUE,5,,,,,
null,CORRECT,,html-keyboard-response,156,520737,0.0-14.0-8.0-0.0,19715,List2B,black,woman,,,,null,,,,
1191,"<img src=""portrait/BW2.jpg""style=""width:400px;height:400px;""></img>",2,html-button-response,157,521930,0.0-14.0-10.0,19715,List2B,black,woman,,TRUE,2,,,,,
null,CORRECT,,html-keyboard-response,158,523433,0.0-14.0-11.0-0.0,19715,List2B,black,woman,,,,null,,,,
1225,"<img src=""portrait/BM1.jpg""style=""width:400px;height:400px;""></img>",4,html-button-response,159,524658,0.0-14.0-13.0,19715,List2B,black,woman,,TRUE,4,,,,,
null,CORRECT,,html-keyboard-response,160,526160,0.0-14.0-14.0-0.0,19715,List2B,black,woman,,,,null,,,,
1642,"<img src=""portrait/WM1.jpg""style=""width:400px;height:400px;""></img>",6,html-button-response,161,527803,0.0-14.0-16.0,19715,List2B,black,woman,,TRUE,6,,,,,
null,CORRECT,,html-keyboard-response,162,529307,0.0-14.0-17.0-0.0,19715,List2B,black,woman,,,,null,,,,
1765,"<img src=""portrait/WW2.jpg""style=""width:400px;height:400px;""></img>",3,html-button-response,163,531074,0.0-14.0-19.0,19715,List2B,black,woman,,TRUE,3,,,,,
null,CORRECT,,html-keyboard-response,164,532575,0.0-14.0-20.0-0.0,19715,List2B,black,woman,,,,null,,,,
1762,"<img src=""portrait/BW1.jpg""style=""width:400px;height:400px;""></img>",0,html-button-response,165,534338,0.0-14.0-22.0,19715,List2B,black,woman,,TRUE,0,,,,,
null,CORRECT,,html-keyboard-response,166,535840,0.0-14.0-23.0-0.0,19715,List2B,black,woman,,,,null,,,,
1089,<p>You got 8 out of 8 right first time. Press Continue.</p>,0,html-button-response,167,536929,0.0-14.0-25.0,19715,List2B,black,woman,,,,,,,,
null,"<div style=""font-size:60px;"">+</div>",,html-keyboard-response,168,538432,0.0-15.0-0.0,19715,List2B,black,woman,,,,null,,,,
null,"<img src=""stim_listB/touch6.gif""</stim_listB>",,html-keyboard-response,169,540433,0.0-15.0-1.0,19715,List2B,black,woman,,,,null,,,,
null,are touching each other,,html-keyboard-response,170,542435,0.0-15.0-2.0,19715,List2B,black,woman,,,,null,,,,
10526,,,survey-text,171,552962,0.0-15.0-3.0,19715,List2B,black,woman,,,,,"{""Q0"":""luke and fred are touching each other""}","<img src=""stim_listB/touch6.gif""</stim_listB>",are touching each other,
null,"<div style=""font-size:60px;"">+</div>",,html-keyboard-response,172,553463,0.0-15.0-0.1,19715,List2B,black,woman,,,,null,,,,
null,"<img src=""stim_listB/shout1.gif""</stim_listB>",,html-keyboard-response,173,555467,0.0-15.0-1.1,19715,List2B,black,woman,,,,null,,,,
null,is shouting at,,html-keyboard-response,174,557468,0.0-15.0-2.1,19715,List2B,black,woman,,,,null,,,,
5830,,,survey-text,175,563298,0.0-15.0-3.1,19715,List2B,black,woman,,,,,"{""Q0"":""ruth is shouting at luke""}","<img src=""stim_listB/shout1.gif""</stim_listB>",is shouting at,
null,"<div style=""font-size:60px;"">+</div>",,html-keyboard-response,176,563801,0.0-15.0-0.2,19715,List2B,black,woman,,,,null,,,,
null,"<img src=""stim_listB/kiss8.gif""</stim_listB>",,html-keyboard-response,177,565803,0.0-15.0-1.2,19715,List2B,black,woman,,,,null,,,,
null,are kissing each other,,html-keyboard-response,178,567805,0.0-15.0-2.2,19715,List2B,black,woman,,,,null,,,,
8828,,,survey-text,179,576634,0.0-15.0-3.2,19715,List2B,black,woman,,,,,"{""Q0"":""jane and kate are kissing each other""}","<img src=""stim_listB/kiss8.gif""</stim_listB>",are kissing each other,
null,"<div style=""font-size:60px;"">+</div>",,html-keyboard-response,180,577136,0.0-15.0-0.3,19715,List2B,black,woman,,,,null,,,,
null,"<img src=""stim_listB/touch2.gif""</stim_listB>",,html-keyboard-response,181,579138,0.0-15.0-1.3,19715,List2B,black,woman,,,,null,,,,
null,are touching each other,,html-keyboard-response,182,581139,0.0-15.0-2.3,19715,List2B,black,woman,,,,null,,,,
9229,,,survey-text,183,590369,0.0-15.0-3.3,19715,List2B,black,woman,,,,,"{""Q0"":""luke and ruth are touching each other""}","<img src=""stim_listB/touch2.gif""</stim_listB>",are touching each other,
null,"<div style=""font-size:60px;"">+</div>",,html-keyboard-response,184,590871,0.0-15.0-0.4,19715,List2B,black,woman,,,,null,,,,
null,"<img src=""stim_listB/marry4.gif""</stim_listB>",,html-keyboard-response,185,592874,0.0-15.0-1.4,19715,List2B,black,woman,,,,null,,,,
null,are marrying each other,,html-keyboard-response,186,594876,0.0-15.0-2.4,19715,List2B,black,woman,,,,null,,,,
9644,,,survey-text,187,604521,0.0-15.0-3.4,19715,List2B,black,woman,,,,,"{""Q0"":""kate and fred are marrying each other""}","<img src=""stim_listB/marry4.gif""</stim_listB>",are marrying each other,
null,"<div style=""font-size:60px;"">+</div>",,html-keyboard-response,188,605022,0.0-15.0-0.5,19715,List2B,black,woman,,,,null,,,,
null,"<img src=""stim_listB/hug5.gif""</stim_listB>",,html-keyboard-response,189,607024,0.0-15.0-1.5,19715,List2B,black,woman,,,,null,,,,
null,is hugging,,html-keyboard-response,190,609025,0.0-15.0-2.5,19715,List2B,black,woman,,,,null,,,,
5863,,,survey-text,191,614890,0.0-15.0-3.5,19715,List2B,black,woman,,,,,"{""Q0"":""fred is hugging luke""}","<img src=""stim_listB/hug5.gif""</stim_listB>",is hugging,
null,"<div style=""font-size:60px;"">+</div>",,html-keyboard-response,192,615392,0.0-15.0-0.6,19715,List2B,black,woman,,,,null,,,,
null,"<img src=""stim_listB/hug2.gif""</stim_listB>",,html-keyboard-response,193,617394,0.0-15.0-1.6,19715,List2B,black,woman,,,,null,,,,
null,are hugging each other,,html-keyboard-response,194,619395,0.0-15.0-2.6,19715,List2B,black,woman,,,,null,,,,
8157,,,survey-text,195,627553,0.0-15.0-3.6,19715,List2B,black,woman,,,,,"{""Q0"":""dave and jane are hugging each other""}","<img src=""stim_listB/hug2.gif""</stim_listB>",are hugging each other,
null,"<div style=""font-size:60px;"">+</div>",,html-keyboard-response,196,628055,0.0-15.0-0.7,19715,List2B,black,woman,,,,null,,,,
null,"<img src=""stim_listB/kiss6.gif""</stim_listB>",,html-keyboard-response,197,630056,0.0-15.0-1.7,19715,List2B,black,woman,,,,null,,,,
null,are kissing each other,,html-keyboard-response,198,632057,0.0-15.0-2.7,19715,List2B,black,woman,,,,null,,,,
7543,,,survey-text,199,639601,0.0-15.0-3.7,19715,List2B,black,woman,,,,,"{""Q0"":""dave and mike are kissing each other""}","<img src=""stim_listB/kiss6.gif""</stim_listB>",are kissing each other,
null,"<div style=""font-size:60px;"">+</div>",,html-keyboard-response,200,640102,0.0-15.0-0.8,19715,List2B,black,woman,,,,null,,,,
null,"<img src=""stim_listB/kiss7.gif""</stim_listB>",,html-keyboard-response,201,642104,0.0-15.0-1.8,19715,List2B,black,woman,,,,null,,,,
null,is kissing,,html-keyboard-response,202,644106,0.0-15.0-2.8,19715,List2B,black,woman,,,,null,,,,
6943,,,survey-text,203,651049,0.0-15.0-3.8,19715,List2B,black,woman,,,,,"{""Q0"":""beth is kissing ruth""}","<img src=""stim_listB/kiss7.gif""</stim_listB>",is kissing,
null,"<div style=""font-size:60px;"">+</div>",,html-keyboard-response,204,651551,0.0-15.0-0.9,19715,List2B,black,woman,,,,null,,,,
null,"<img src=""stim_listB/talk4.gif""</stim_listB>",,html-keyboard-response,205,653554,0.0-15.0-1.9,19715,List2B,black,woman,,,,null,,,,
null,are talking to each other,,html-keyboard-response,206,655555,0.0-15.0-2.9,19715,List2B,black,woman,,,,null,,,,
8238,,,survey-text,207,663794,0.0-15.0-3.9,19715,List2B,black,woman,,,,,"{""Q0"":""beth and mike are talking to each other""}","<img src=""stim_listB/talk4.gif""</stim_listB>",are talking to each other,
null,"<div style=""font-size:60px;"">+</div>",,html-keyboard-response,208,664295,0.0-15.0-0.10,19715,List2B,black,woman,,,,null,,,,
null,"<img src=""stim_listB/touch4.gif""</stim_listB>",,html-keyboard-response,209,666297,0.0-15.0-1.10,19715,List2B,black,woman,,,,null,,,,
null,are touching each other,,html-keyboard-response,210,668298,0.0-15.0-2.10,19715,List2B,black,woman,,,,null,,,,
7823,,,survey-text,211,676122,0.0-15.0-3.10,19715,List2B,black,woman,,,,,"{""Q0"":""beth and fred are touching each other.""}","<img src=""stim_listB/touch4.gif""</stim_listB>",are touching each other,
null,"<div style=""font-size:60px;"">+</div>",,html-keyboard-response,212,676623,0.0-15.0-0.11,19715,List2B,black,woman,,,,null,,,,
null,"<img src=""stim_listB/dance1.gif""</stim_listB>",,html-keyboard-response,213,678625,0.0-15.0-1.11,19715,List2B,black,woman,,,,null,,,,
null,is dancing with,,html-keyboard-response,214,680627,0.0-15.0-2.11,19715,List2B,black,woman,,,,null,,,,
6701,,,survey-text,215,687330,0.0-15.0-3.11,19715,List2B,black,woman,,,,,"{""Q0"":""jane is dancing with luke""}","<img src=""stim_listB/dance1.gif""</stim_listB>",is dancing with,
null,"<div style=""font-size:60px;"">+</div>",,html-keyboard-response,216,687832,0.0-15.0-0.12,19715,List2B,black,woman,,,,null,,,,
null,"<img src=""stim_listB/hug3.gif""</stim_listB>",,html-keyboard-response,217,689834,0.0-15.0-1.12,19715,List2B,black,woman,,,,null,,,,
null,is hugging,,html-keyboard-response,218,691836,0.0-15.0-2.12,19715,List2B,black,woman,,,,null,,,,
7228,,,survey-text,219,699066,0.0-15.0-3.12,19715,List2B,black,woman,,,,,"{""Q0"":""beth is hugging fred""}","<img src=""stim_listB/hug3.gif""</stim_listB>",is hugging,
null,"<div style=""font-size:60px;"">+</div>",,html-keyboard-response,220,699567,0.0-15.0-0.13,19715,List2B,black,woman,,,,null,,,,
null,"<img src=""stim_listB/fight6.gif""</stim_listB>",,html-keyboard-response,221,701568,0.0-15.0-1.13,19715,List2B,black,woman,,,,null,,,,
null,are fighting each other,,html-keyboard-response,222,703570,0.0-15.0-2.13,19715,List2B,black,woman,,,,null,,,,
9032,,,survey-text,223,712602,0.0-15.0-3.13,19715,List2B,black,woman,,,,,"{""Q0"":""luke and fred are fighting each other""}","<img src=""stim_listB/fight6.gif""</stim_listB>",are fighting each other,
null,"<div style=""font-size:60px;"">+</div>",,html-keyboard-response,224,713103,0.0-15.0-0.14,19715,List2B,black,woman,,,,null,,,,
null,"<img src=""stim_listB/dance7.gif""</stim_listB>",,html-keyboard-response,225,715105,0.0-15.0-1.14,19715,List2B,black,woman,,,,null,,,,
null,is dancing with,,html-keyboard-response,226,717105,0.0-15.0-2.14,19715,List2B,black,woman,,,,null,,,,
8304,,,survey-text,227,725410,0.0-15.0-3.14,19715,List2B,black,woman,,,,,"{""Q0"":""kate is dancing with ruth""}","<img src=""stim_listB/dance7.gif""</stim_listB>",is dancing with,
null,"<div style=""font-size:60px;"">+</div>",,html-keyboard-response,228,725911,0.0-15.0-0.15,19715,List2B,black,woman,,,,null,,,,
null,"<img src=""stim_listB/talk1.gif""</stim_listB>",,html-keyboard-response,229,727913,0.0-15.0-1.15,19715,List2B,black,woman,,,,null,,,,
null,is talking to,,html-keyboard-response,230,729915,0.0-15.0-2.15,19715,List2B,black,woman,,,,null,,,,
9518,,,survey-text,231,739434,0.0-15.0-3.15,19715,List2B,black,woman,,,,,"{""Q0"":""jane is talking to luke""}","<img src=""stim_listB/talk1.gif""</stim_listB>",is talking to,
null,"<div style=""font-size:60px;"">+</div>",,html-keyboard-response,232,739936,0.0-15.0-0.16,19715,List2B,black,woman,,,,null,,,,
null,"<img src=""stim_listB/meet5.gif""</stim_listB>",,html-keyboard-response,233,741938,0.0-15.0-1.16,19715,List2B,black,woman,,,,null,,,,
null,is meeting,,html-keyboard-response,234,743940,0.0-15.0-2.16,19715,List2B,black,woman,,,,null,,,,
5525,,,survey-text,235,749466,0.0-15.0-3.16,19715,List2B,black,woman,,,,,"{""Q0"":""mike is meeting dave""}","<img src=""stim_listB/meet5.gif""</stim_listB>",is meeting,
null,"<div style=""font-size:60px;"">+</div>",,html-keyboard-response,236,749967,0.0-15.0-0.17,19715,List2B,black,woman,,,,null,,,,
null,"<img src=""stim_listB/kiss4.gif""</stim_listB>",,html-keyboard-response,237,751969,0.0-15.0-1.17,19715,List2B,black,woman,,,,null,,,,
null,are kissing each other,,html-keyboard-response,238,753970,0.0-15.0-2.17,19715,List2B,black,woman,,,,null,,,,
11440,,,survey-text,239,765411,0.0-15.0-3.17,19715,List2B,black,woman,,,,,"{""Q0"":""mike and kate are kissing each other""}","<img src=""stim_listB/kiss4.gif""</stim_listB>",are kissing each other,
null,"<div style=""font-size:60px;"">+</div>",,html-keyboard-response,240,765913,0.0-15.0-0.18,19715,List2B,black,woman,,,,null,,,,
null,"<img src=""stim_listB/touch3.gif""</stim_listB>",,html-keyboard-response,241,767914,0.0-15.0-1.18,19715,List2B,black,woman,,,,null,,,,
null,is touching,,html-keyboard-response,242,769916,0.0-15.0-2.18,19715,List2B,black,woman,,,,null,,,,
5973,,,survey-text,243,775891,0.0-15.0-3.18,19715,List2B,black,woman,,,,,"{""Q0"":""mike is touching kate""}","<img src=""stim_listB/touch3.gif""</stim_listB>",is touching,
null,"<div style=""font-size:60px;"">+</div>",,html-keyboard-response,244,776393,0.0-15.0-0.19,19715,List2B,black,woman,,,,null,,,,
null,"<img src=""stim_listB/marry6.gif""</stim_listB>",,html-keyboard-response,245,778395,0.0-15.0-1.19,19715,List2B,black,woman,,,,null,,,,
null,are marrying each other,,html-keyboard-response,246,780397,0.0-15.0-2.19,19715,List2B,black,woman,,,,null,,,,
8661,,,survey-text,247,789059,0.0-15.0-3.19,19715,List2B,black,woman,,,,,"{""Q0"":""luke and mike are marrying each other""}","<img src=""stim_listB/marry6.gif""</stim_listB>",are marrying each other,
99776,"<img src='img/portrait_matrix_list2.JPG' style='width:900px;height:500px;''></img><p>If you have memorised all the portraits and names and are ready to start, press Continue.</p><p><strong>Please note: Your memory of these faces will be tested 4 times during this experiment.</strong></p>",0,html-button-response,248,888835,0.0-16.0-0.0,19715,List2B,black,woman,,,,,,,,
1750,"<img src=""portrait/WW2.jpg""style=""width:400px;height:400px;""></img>",3,html-button-response,249,891588,0.0-16.0-1.0,19715,List2B,black,woman,,TRUE,3,,,,,
null,CORRECT,,html-keyboard-response,250,893091,0.0-16.0-2.0-0.0,19715,List2B,black,woman,,,,null,,,,
1440,"<img src=""portrait/WM2.jpg""style=""width:400px;height:400px;""></img>",7,html-button-response,251,894531,0.0-16.0-4.0,19715,List2B,black,woman,,TRUE,7,,,,,
null,CORRECT,,html-keyboard-response,252,896035,0.0-16.0-5.0-0.0,19715,List2B,black,woman,,,,null,,,,
1358,"<img src=""portrait/BW2.jpg""style=""width:400px;height:400px;""></img>",2,html-button-response,253,897396,0.0-16.0-7.0,19715,List2B,black,woman,,TRUE,2,,,,,
null,CORRECT,,html-keyboard-response,254,898898,0.0-16.0-8.0-0.0,19715,List2B,black,woman,,,,null,,,,
1696,"<img src=""portrait/BW1.jpg""style=""width:400px;height:400px;""></img>",0,html-button-response,255,900596,0.0-16.0-10.0,19715,List2B,black,woman,,TRUE,0,,,,,
null,CORRECT,,html-keyboard-response,256,902098,0.0-16.0-11.0-0.0,19715,List2B,black,woman,,,,null,,,,
7807,"<img src=""portrait/BM2.jpg""style=""width:400px;height:400px;""></img>",5,html-button-response,257,909908,0.0-16.0-13.0,19715,List2B,black,woman,,TRUE,5,,,,,
null,CORRECT,,html-keyboard-response,258,911410,0.0-16.0-14.0-0.0,19715,List2B,black,woman,,,,null,,,,
1207,"<img src=""portrait/WM1.jpg""style=""width:400px;height:400px;""></img>",6,html-button-response,259,912619,0.0-16.0-16.0,19715,List2B,black,woman,,TRUE,6,,,,,
null,CORRECT,,html-keyboard-response,260,914122,0.0-16.0-17.0-0.0,19715,List2B,black,woman,,,,null,,,,
1352,"<img src=""portrait/BM1.jpg""style=""width:400px;height:400px;""></img>",4,html-button-response,261,915475,0.0-16.0-19.0,19715,List2B,black,woman,,TRUE,4,,,,,
null,CORRECT,,html-keyboard-response,262,916977,0.0-16.0-20.0-0.0,19715,List2B,black,woman,,,,null,,,,
1897,"<img src=""portrait/WW1.jpg""style=""width:400px;height:400px;""></img>",1,html-button-response,263,918875,0.0-16.0-22.0,19715,List2B,black,woman,,TRUE,1,,,,,
null,CORRECT,,html-keyboard-response,264,920377,0.0-16.0-23.0-0.0,19715,List2B,black,woman,,,,null,,,,
13480,<p>You got 8 out of 8 right first time. Press Continue.</p>,0,html-button-response,265,933860,0.0-16.0-25.0,19715,List2B,black,woman,,,,,,,,
null,"<div style=""font-size:60px;"">+</div>",,html-keyboard-response,266,935363,0.0-17.0-0.0,19715,List2B,black,woman,,,,null,,,,
null,"<img src=""stim_listB/talk2.gif""</stim_listB>",,html-keyboard-response,267,937364,0.0-17.0-1.0,19715,List2B,black,woman,,,,null,,,,
null,are talking to each other,,html-keyboard-response,268,939366,0.0-17.0-2.0,19715,List2B,black,woman,,,,null,,,,
6565,,,survey-text,269,945931,0.0-17.0-3.0,19715,List2B,black,woman,,,,,"{""Q0"":""ruth and dave are talking to each other""}","<img src=""stim_listB/talk2.gif""</stim_listB>",are talking to each other,
null,"<div style=""font-size:60px;"">+</div>",,html-keyboard-response,270,946433,0.0-17.0-0.1,19715,List2B,black,woman,,,,null,,,,
null,"<img src=""stim_listB/argue8.gif""</stim_listB>",,html-keyboard-response,271,948435,0.0-17.0-1.1,19715,List2B,black,woman,,,,null,,,,
null,are arguing with each other,,html-keyboard-response,272,950436,0.0-17.0-2.1,19715,List2B,black,woman,,,,null,,,,
10525,,,survey-text,273,960963,0.0-17.0-3.1,19715,List2B,black,woman,,,,,"{""Q0"":""ruth and kate are arguing with each other""}","<img src=""stim_listB/argue8.gif""</stim_listB>",are arguing with each other,
null,"<div style=""font-size:60px;"">+</div>",,html-keyboard-response,274,961464,0.0-17.0-0.2,19715,List2B,black,woman,,,,null,,,,
null,"<img src=""stim_listB/argue2.gif""</stim_listB>",,html-keyboard-response,275,963468,0.0-17.0-1.2,19715,List2B,black,woman,,,,null,,,,
null,are arguing with each other,,html-keyboard-response,276,965469,0.0-17.0-2.2,19715,List2B,black,woman,,,,null,,,,
7902,,,survey-text,277,973371,0.0-17.0-3.2,19715,List2B,black,woman,,,,,"{""Q0"":""luke and jane are arguing with each other""}","<img src=""stim_listB/argue2.gif""</stim_listB>",are arguing with each other,
null,"<div style=""font-size:60px;"">+</div>",,html-keyboard-response,278,973873,0.0-17.0-0.3,19715,List2B,black,woman,,,,null,,,,
null,"<img src=""stim_listB/hug1.gif""</stim_listB>",,html-keyboard-response,279,975876,0.0-17.0-1.3,19715,List2B,black,woman,,,,null,,,,
null,is hugging,,html-keyboard-response,280,977878,0.0-17.0-2.3,19715,List2B,black,woman,,,,null,,,,
5637,,,survey-text,281,983515,0.0-17.0-3.3,19715,List2B,black,woman,,,,,"{""Q0"":""ruth is hugging luke""}","<img src=""stim_listB/hug1.gif""</stim_listB>",is hugging,
null,"<div style=""font-size:60px;"">+</div>",,html-keyboard-response,282,984016,0.0-17.0-0.4,19715,List2B,black,woman,,,,null,,,,
null,"<img src=""stim_listB/talk5.gif""</stim_listB>",,html-keyboard-response,283,986019,0.0-17.0-1.4,19715,List2B,black,woman,,,,null,,,,
null,is talking to,,html-keyboard-response,284,988021,0.0-17.0-2.4,19715,List2B,black,woman,,,,null,,,,
8205,,,survey-text,285,996227,0.0-17.0-3.4,19715,List2B,black,woman,,,,,"{""Q0"":""mike is talking to luke""}","<img src=""stim_listB/talk5.gif""</stim_listB>",is talking to,
null,"<div style=""font-size:60px;"">+</div>",,html-keyboard-response,286,996728,0.0-17.0-0.5,19715,List2B,black,woman,,,,null,,,,
null,"<img src=""stim_listB/fight4.gif""</stim_listB>",,html-keyboard-response,287,998731,0.0-17.0-1.5,19715,List2B,black,woman,,,,null,,,,
null,are fighting each other,,html-keyboard-response,288,1000733,0.0-17.0-2.5,19715,List2B,black,woman,,,,null,,,,
12438,,,survey-text,289,1013171,0.0-17.0-3.5,19715,List2B,black,woman,,,,,"{""Q0"":""fred and beth are fighting each other""}","<img src=""stim_listB/fight4.gif""</stim_listB>",are fighting each other,
null,"<div style=""font-size:60px;"">+</div>",,html-keyboard-response,290,1013675,0.0-17.0-0.6,19715,List2B,black,woman,,,,null,,,,
null,"<img src=""stim_listB/argue1.gif""</stim_listB>",,html-keyboard-response,291,1015677,0.0-17.0-1.6,19715,List2B,black,woman,,,,null,,,,
null,is arguing with,,html-keyboard-response,292,1017678,0.0-17.0-2.6,19715,List2B,black,woman,,,,null,,,,
5869,,,survey-text,293,1023547,0.0-17.0-3.6,19715,List2B,black,woman,,,,,"{""Q0"":""ruth is arguing with dave""}","<img src=""stim_listB/argue1.gif""</stim_listB>",is arguing with,
null,"<div style=""font-size:60px;"">+</div>",,html-keyboard-response,294,1024049,0.0-17.0-0.7,19715,List2B,black,woman,,,,null,,,,
null,"<img src=""stim_listB/meet6.gif""</stim_listB>",,html-keyboard-response,295,1026050,0.0-17.0-1.7,19715,List2B,black,woman,,,,null,,,,
null,are meeting each other,,html-keyboard-response,296,1028051,0.0-17.0-2.7,19715,List2B,black,woman,,,,null,,,,
9128,,,survey-text,297,1037180,0.0-17.0-3.7,19715,List2B,black,woman,,,,,"{""Q0"":""luke and fred are meeting each other""}","<img src=""stim_listB/meet6.gif""</stim_listB>",are meeting each other,
null,"<div style=""font-size:60px;"">+</div>",,html-keyboard-response,298,1037683,0.0-17.0-0.8,19715,List2B,black,woman,,,,null,,,,
null,"<img src=""stim_listB/marry5.gif""</stim_listB>",,html-keyboard-response,299,1039684,0.0-17.0-1.8,19715,List2B,black,woman,,,,null,,,,
null,is marrying,,html-keyboard-response,300,1041686,0.0-17.0-2.8,19715,List2B,black,woman,,,,null,,,,
6812,,,survey-text,301,1048500,0.0-17.0-3.8,19715,List2B,black,woman,,,,,"{""Q0"":""fred is marrying dave""}","<img src=""stim_listB/marry5.gif""</stim_listB>",is marrying,
null,"<div style=""font-size:60px;"">+</div>",,html-keyboard-response,302,1049001,0.0-17.0-0.9,19715,List2B,black,woman,,,,null,,,,
null,"<img src=""stim_listB/meet4.gif""</stim_listB>",,html-keyboard-response,303,1051003,0.0-17.0-1.9,19715,List2B,black,woman,,,,null,,,,
null,are meeting each other,,html-keyboard-response,304,1053006,0.0-17.0-2.9,19715,List2B,black,woman,,,,null,,,,
14781,,,survey-text,305,1067787,0.0-17.0-3.9,19715,List2B,black,woman,,,,,"{""Q0"":""fred and beth are meeting each other""}","<img src=""stim_listB/meet4.gif""</stim_listB>",are meeting each other,
null,"<div style=""font-size:60px;"">+</div>",,html-keyboard-response,306,1068288,0.0-17.0-0.10,19715,List2B,black,woman,,,,null,,,,
null,"<img src=""stim_listB/hug4.gif""</stim_listB>",,html-keyboard-response,307,1070290,0.0-17.0-1.10,19715,List2B,black,woman,,,,null,,,,
null,are hugging each other,,html-keyboard-response,308,1072292,0.0-17.0-2.10,19715,List2B,black,woman,,,,null,,,,
7607,,,survey-text,309,1079900,0.0-17.0-3.10,19715,List2B,black,woman,,,,,"{""Q0"":""mike and kate are hugging each other""}","<img src=""stim_listB/hug4.gif""</stim_listB>",are hugging each other,
null,"<div style=""font-size:60px;"">+</div>",,html-keyboard-response,310,1080403,0.0-17.0-0.11,19715,List2B,black,woman,,,,null,,,,
null,"<img src=""stim_listB/shout4.gif""</stim_listB>",,html-keyboard-response,311,1082407,0.0-17.0-1.11,19715,List2B,black,woman,,,,null,,,,
null,are shouting at each other,,html-keyboard-response,312,1084409,0.0-17.0-2.11,19715,List2B,black,woman,,,,null,,,,
11050,,,survey-text,313,1095459,0.0-17.0-3.11,19715,List2B,black,woman,,,,,"{""Q0"":""kate and mike are shouting at each other""}","<img src=""stim_listB/shout4.gif""</stim_listB>",are shouting at each other,
null,"<div style=""font-size:60px;"">+</div>",,html-keyboard-response,314,1095961,0.0-17.0-0.12,19715,List2B,black,woman,,,,null,,,,
null,"<img src=""stim_listB/fight7.gif""</stim_listB>",,html-keyboard-response,315,1097962,0.0-17.0-1.12,19715,List2B,black,woman,,,,null,,,,
null,is fighting,,html-keyboard-response,316,1099964,0.0-17.0-2.12,19715,List2B,black,woman,,,,null,,,,
5582,,,survey-text,317,1105547,0.0-17.0-3.12,19715,List2B,black,woman,,,,,"{""Q0"":""kate is fighting jane""}","<img src=""stim_listB/fight7.gif""</stim_listB>",is fighting,
null,"<div style=""font-size:60px;"">+</div>",,html-keyboard-response,318,1106048,0.0-17.0-0.13,19715,List2B,black,woman,,,,null,,,,
null,"<img src=""stim_listB/hug8.gif""</stim_listB>",,html-keyboard-response,319,1108052,0.0-17.0-1.13,19715,List2B,black,woman,,,,null,,,,
null,are hugging each other,,html-keyboard-response,320,1110053,0.0-17.0-2.13,19715,List2B,black,woman,,,,null,,,,
13397,,,survey-text,321,1123451,0.0-17.0-3.13,19715,List2B,black,woman,,,,,"{""Q0"":""kate and jane are fighting each other""}","<img src=""stim_listB/hug8.gif""</stim_listB>",are hugging each other,
null,"<div style=""font-size:60px;"">+</div>",,html-keyboard-response,322,1123953,0.0-17.0-0.14,19715,List2B,black,woman,,,,null,,,,
null,"<img src=""stim_listB/touch8.gif""</stim_listB>",,html-keyboard-response,323,1126262,0.0-17.0-1.14,19715,List2B,black,woman,,,,null,,,,
null,are touching each other,,html-keyboard-response,324,1128265,0.0-17.0-2.14,19715,List2B,black,woman,,,,null,,,,
8506,,,survey-text,325,1136772,0.0-17.0-3.14,19715,List2B,black,woman,,,,,"{""Q0"":""dave and kate are touching each other""}","<img src=""stim_listB/touch8.gif""</stim_listB>",are touching each other,
null,"<div style=""font-size:60px;"">+</div>",,html-keyboard-response,326,1137273,0.0-17.0-0.15,19715,List2B,black,woman,,,,null,,,,
null,"<img src=""stim_listB/fight1.gif""</stim_listB>",,html-keyboard-response,327,1139277,0.0-17.0-1.15,19715,List2B,black,woman,,,,null,,,,
null,is fighting,,html-keyboard-response,328,1141278,0.0-17.0-2.15,19715,List2B,black,woman,,,,null,,,,
4988,,,survey-text,329,1146268,0.0-17.0-3.15,19715,List2B,black,woman,,,,,"{""Q0"":""jane is fighting dave""}","<img src=""stim_listB/fight1.gif""</stim_listB>",is fighting,
null,"<div style=""font-size:60px;"">+</div>",,html-keyboard-response,330,1146769,0.0-17.0-0.16,19715,List2B,black,woman,,,,null,,,,
null,"<img src=""stim_listB/kiss1.gif""</stim_listB>",,html-keyboard-response,331,1148770,0.0-17.0-1.16,19715,List2B,black,woman,,,,null,,,,
null,is kissing,,html-keyboard-response,332,1150773,0.0-17.0-2.16,19715,List2B,black,woman,,,,null,,,,
7181,,,survey-text,333,1157956,0.0-17.0-3.16,19715,List2B,black,woman,,,,,"{""Q0"":""ruth is kissing luke""}","<img src=""stim_listB/kiss1.gif""</stim_listB>",is kissing,
null,"<div style=""font-size:60px;"">+</div>",,html-keyboard-response,334,1158457,0.0-17.0-0.17,19715,List2B,black,woman,,,,null,,,,
null,"<img src=""stim_listB/meet2.gif""</stim_listB>",,html-keyboard-response,335,1160458,0.0-17.0-1.17,19715,List2B,black,woman,,,,null,,,,
null,are meeting each other,,html-keyboard-response,336,1162459,0.0-17.0-2.17,19715,List2B,black,woman,,,,null,,,,
7560,,,survey-text,337,1170020,0.0-17.0-3.17,19715,List2B,black,woman,,,,,"{""Q0"":""luke and ruth are meeting each other""}","<img src=""stim_listB/meet2.gif""</stim_listB>",are meeting each other,
null,"<div style=""font-size:60px;"">+</div>",,html-keyboard-response,338,1170522,0.0-17.0-0.18,19715,List2B,black,woman,,,,null,,,,
null,"<img src=""stim_listB/dance8.gif""</stim_listB>",,html-keyboard-response,339,1172525,0.0-17.0-1.18,19715,List2B,black,woman,,,,null,,,,
null,are dancing with each other,,html-keyboard-response,340,1174527,0.0-17.0-2.18,19715,List2B,black,woman,,,,null,,,,
10589,,,survey-text,341,1185116,0.0-17.0-3.18,19715,List2B,black,woman,,,,,"{""Q0"":""jane and beth are dancing with each other""}","<img src=""stim_listB/dance8.gif""</stim_listB>",are dancing with each other,
null,"<div style=""font-size:60px;"">+</div>",,html-keyboard-response,342,1185618,0.0-17.0-0.19,19715,List2B,black,woman,,,,null,,,,
null,"<img src=""stim_listB/hug6.gif""</stim_listB>",,html-keyboard-response,343,1187619,0.0-17.0-1.19,19715,List2B,black,woman,,,,null,,,,
null,are hugging each other,,html-keyboard-response,344,1189621,0.0-17.0-2.19,19715,List2B,black,woman,,,,null,,,,
9549,,,survey-text,345,1199171,0.0-17.0-3.19,19715,List2B,black,woman,,,,,"{""Q0"":""mike and dave are hugging each other""}","<img src=""stim_listB/hug6.gif""</stim_listB>",are hugging each other,
72096,"<img src='img/portrait_matrix_list2.JPG' style='width:900px;height:500px;''></img><p>If you have memorised all the portraits and names and are ready to start, press Continue.</p><p><strong>Please note: Your memory of these faces will be tested 4 times during this experiment.</strong></p>",0,html-button-response,346,1271269,0.0-18.0-0.0,19715,List2B,black,woman,,,,,,,,
1221,"<img src=""portrait/WM2.jpg""style=""width:400px;height:400px;""></img>",7,html-button-response,347,1273492,0.0-18.0-1.0,19715,List2B,black,woman,,TRUE,7,,,,,
null,CORRECT,,html-keyboard-response,348,1274997,0.0-18.0-2.0-0.0,19715,List2B,black,woman,,,,null,,,,
1703,"<img src=""portrait/BW2.jpg""style=""width:400px;height:400px;""></img>",2,html-button-response,349,1276701,0.0-18.0-4.0,19715,List2B,black,woman,,TRUE,2,,,,,
null,CORRECT,,html-keyboard-response,350,1278201,0.0-18.0-5.0-0.0,19715,List2B,black,woman,,,,null,,,,
1370,"<img src=""portrait/WM1.jpg""style=""width:400px;height:400px;""></img>",6,html-button-response,351,1279572,0.0-18.0-7.0,19715,List2B,black,woman,,TRUE,6,,,,,
null,CORRECT,,html-keyboard-response,352,1281077,0.0-18.0-8.0-0.0,19715,List2B,black,woman,,,,null,,,,
2491,"<img src=""portrait/WW1.jpg""style=""width:400px;height:400px;""></img>",1,html-button-response,353,1283571,0.0-18.0-10.0,19715,List2B,black,woman,,TRUE,1,,,,,
null,CORRECT,,html-keyboard-response,354,1285075,0.0-18.0-11.0-0.0,19715,List2B,black,woman,,,,null,,,,
1137,"<img src=""portrait/WW2.jpg""style=""width:400px;height:400px;""></img>",3,html-button-response,355,1286214,0.0-18.0-13.0,19715,List2B,black,woman,,TRUE,3,,,,,
null,CORRECT,,html-keyboard-response,356,1287716,0.0-18.0-14.0-0.0,19715,List2B,black,woman,,,,null,,,,
1566,"<img src=""portrait/BW1.jpg""style=""width:400px;height:400px;""></img>",0,html-button-response,357,1289284,0.0-18.0-16.0,19715,List2B,black,woman,,TRUE,0,,,,,
null,CORRECT,,html-keyboard-response,358,1290787,0.0-18.0-17.0-0.0,19715,List2B,black,woman,,,,null,,,,
1176,"<img src=""portrait/BM1.jpg""style=""width:400px;height:400px;""></img>",4,html-button-response,359,1291965,0.0-18.0-19.0,19715,List2B,black,woman,,TRUE,4,,,,,
null,CORRECT,,html-keyboard-response,360,1293469,0.0-18.0-20.0-0.0,19715,List2B,black,woman,,,,null,,,,
1463,"<img src=""portrait/BM2.jpg""style=""width:400px;height:400px;""></img>",5,html-button-response,361,1294933,0.0-18.0-22.0,19715,List2B,black,woman,,TRUE,5,,,,,
null,CORRECT,,html-keyboard-response,362,1296435,0.0-18.0-23.0-0.0,19715,List2B,black,woman,,,,null,,,,
1489,<p>You got 8 out of 8 right first time. Press Continue.</p>,0,html-button-response,363,1297924,0.0-18.0-25.0,19715,List2B,black,woman,,,,,,,,
null,"<div style=""font-size:60px;"">+</div>",,html-keyboard-response,364,1299428,0.0-19.0-0.0,19715,List2B,black,woman,,,,null,,,,
null,"<img src=""stim_listB/shout6.gif""</stim_listB>",,html-keyboard-response,365,1301430,0.0-19.0-1.0,19715,List2B,black,woman,,,,null,,,,
null,are shouting at each other,,html-keyboard-response,366,1303432,0.0-19.0-2.0,19715,List2B,black,woman,,,,null,,,,
8066,,,survey-text,367,1311500,0.0-19.0-3.0,19715,List2B,black,woman,,,,,"{""Q0"":""dave and mike are shouting at each other""}","<img src=""stim_listB/shout6.gif""</stim_listB>",are shouting at each other,
null,"<div style=""font-size:60px;"">+</div>",,html-keyboard-response,368,1312001,0.0-19.0-0.1,19715,List2B,black,woman,,,,null,,,,
null,"<img src=""stim_listB/argue6.gif""</stim_listB>",,html-keyboard-response,369,1314004,0.0-19.0-1.1,19715,List2B,black,woman,,,,null,,,,
null,are arguing with each other,,html-keyboard-response,370,1316005,0.0-19.0-2.1,19715,List2B,black,woman,,,,null,,,,
8006,,,survey-text,371,1324012,0.0-19.0-3.1,19715,List2B,black,woman,,,,,"{""Q0"":""luke and mike are arguing with each other""}","<img src=""stim_listB/argue6.gif""</stim_listB>",are arguing with each other,
null,"<div style=""font-size:60px;"">+</div>",,html-keyboard-response,372,1324514,0.0-19.0-0.2,19715,List2B,black,woman,,,,null,,,,
null,"<img src=""stim_listB/meet3.gif""</stim_listB>",,html-keyboard-response,373,1326517,0.0-19.0-1.2,19715,List2B,black,woman,,,,null,,,,
null,is meeting,,html-keyboard-response,374,1328518,0.0-19.0-2.2,19715,List2B,black,woman,,,,null,,,,
4669,,,survey-text,375,1333188,0.0-19.0-3.2,19715,List2B,black,woman,,,,,"{""Q0"":""kate is meeting mike""}","<img src=""stim_listB/meet3.gif""</stim_listB>",is meeting,
null,"<div style=""font-size:60px;"">+</div>",,html-keyboard-response,376,1333689,0.0-19.0-0.3,19715,List2B,black,woman,,,,null,,,,
null,"<img src=""stim_listB/fight3.gif""</stim_listB>",,html-keyboard-response,377,1335691,0.0-19.0-1.3,19715,List2B,black,woman,,,,null,,,,
null,is fighting,,html-keyboard-response,378,1337694,0.0-19.0-2.3,19715,List2B,black,woman,,,,null,,,,
6061,,,survey-text,379,1343755,0.0-19.0-3.3,19715,List2B,black,woman,,,,,"{""Q0"":""kate is fighting mike""}","<img src=""stim_listB/fight3.gif""</stim_listB>",is fighting,
null,"<div style=""font-size:60px;"">+</div>",,html-keyboard-response,380,1344257,0.0-19.0-0.4,19715,List2B,black,woman,,,,null,,,,
null,"<img src=""stim_listB/meet7.gif""</stim_listB>",,html-keyboard-response,381,1346258,0.0-19.0-1.4,19715,List2B,black,woman,,,,null,,,,
null,is meeting,,html-keyboard-response,382,1348259,0.0-19.0-2.4,19715,List2B,black,woman,,,,null,,,,
5304,,,survey-text,383,1353564,0.0-19.0-3.4,19715,List2B,black,woman,,,,,"{""Q0"":""kate is meeting jane""}","<img src=""stim_listB/meet7.gif""</stim_listB>",is meeting,
null,"<div style=""font-size:60px;"">+</div>",,html-keyboard-response,384,1354065,0.0-19.0-0.5,19715,List2B,black,woman,,,,null,,,,
null,"<img src=""stim_listB/shout7.gif""</stim_listB>",,html-keyboard-response,385,1356067,0.0-19.0-1.5,19715,List2B,black,woman,,,,null,,,,
null,is shouting at,,html-keyboard-response,386,1358067,0.0-19.0-2.5,19715,List2B,black,woman,,,,null,,,,
6824,,,survey-text,387,1364892,0.0-19.0-3.5,19715,List2B,black,woman,,,,,"{""Q0"":""beth is shouting at ruth""}","<img src=""stim_listB/shout7.gif""</stim_listB>",is shouting at,
null,"<div style=""font-size:60px;"">+</div>",,html-keyboard-response,388,1365393,0.0-19.0-0.6,19715,List2B,black,woman,,,,null,,,,
null,"<img src=""stim_listB/shout8.gif""</stim_listB>",,html-keyboard-response,389,1367394,0.0-19.0-1.6,19715,List2B,black,woman,,,,null,,,,
null,are shouting at each other,,html-keyboard-response,390,1369395,0.0-19.0-2.6,19715,List2B,black,woman,,,,null,,,,
10864,,,survey-text,391,1380259,0.0-19.0-3.6,19715,List2B,black,woman,,,,,"{""Q0"":""jane and late are shouting at each other""}","<img src=""stim_listB/shout8.gif""</stim_listB>",are shouting at each other,
null,"<div style=""font-size:60px;"">+</div>",,html-keyboard-response,392,1380760,0.0-19.0-0.7,19715,List2B,black,woman,,,,null,,,,
null,"<img src=""stim_listB/talk3.gif""</stim_listB>",,html-keyboard-response,393,1382763,0.0-19.0-1.7,19715,List2B,black,woman,,,,null,,,,
null,is talking to,,html-keyboard-response,394,1384765,0.0-19.0-2.7,19715,List2B,black,woman,,,,null,,,,
5909,,,survey-text,395,1390676,0.0-19.0-3.7,19715,List2B,black,woman,,,,,"{""Q0"":""fred is talking to kate""}","<img src=""stim_listB/talk3.gif""</stim_listB>",is talking to,
null,"<div style=""font-size:60px;"">+</div>",,html-keyboard-response,396,1391176,0.0-19.0-0.8,19715,List2B,black,woman,,,,null,,,,
null,"<img src=""stim_listB/kiss3.gif""</stim_listB>",,html-keyboard-response,397,1393179,0.0-19.0-1.8,19715,List2B,black,woman,,,,null,,,,
null,is kissing,,html-keyboard-response,398,1395181,0.0-19.0-2.8,19715,List2B,black,woman,,,,null,,,,
7557,,,survey-text,399,1402740,0.0-19.0-3.8,19715,List2B,black,woman,,,,,"{""Q0"":""beth is kissing fred""}","<img src=""stim_listB/kiss3.gif""</stim_listB>",is kissing,
null,"<div style=""font-size:60px;"">+</div>",,html-keyboard-response,400,1403242,0.0-19.0-0.9,19715,List2B,black,woman,,,,null,,,,
null,"<img src=""stim_listB/shout5.gif""</stim_listB>",,html-keyboard-response,401,1405244,0.0-19.0-1.9,19715,List2B,black,woman,,,,null,,,,
null,is shouting at,,html-keyboard-response,402,1407246,0.0-19.0-2.9,19715,List2B,black,woman,,,,null,,,,
5861,,,survey-text,403,1413108,0.0-19.0-3.9,19715,List2B,black,woman,,,,,"{""Q0"":""fred is shouting at luke""}","<img src=""stim_listB/shout5.gif""</stim_listB>",is shouting at,
null,"<div style=""font-size:60px;"">+</div>",,html-keyboard-response,404,1413609,0.0-19.0-0.10,19715,List2B,black,woman,,,,null,,,,
null,"<img src=""stim_listB/dance3.gif""</stim_listB>",,html-keyboard-response,405,1415611,0.0-19.0-1.10,19715,List2B,black,woman,,,,null,,,,
null,is dancing with,,html-keyboard-response,406,1417613,0.0-19.0-2.10,19715,List2B,black,woman,,,,null,,,,
11445,,,survey-text,407,1429059,0.0-19.0-3.10,19715,List2B,black,woman,,,,,"{""Q0"":""kate is dancing with fred""}","<img src=""stim_listB/dance3.gif""</stim_listB>",is dancing with,
null,"<div style=""font-size:60px;"">+</div>",,html-keyboard-response,408,1429561,0.0-19.0-0.11,19715,List2B,black,woman,,,,null,,,,
null,"<img src=""stim_listB/dance6.gif""</stim_listB>",,html-keyboard-response,409,1431562,0.0-19.0-1.11,19715,List2B,black,woman,,,,null,,,,
null,are dancing with each other,,html-keyboard-response,410,1433563,0.0-19.0-2.11,19715,List2B,black,woman,,,,null,,,,
11033,,,survey-text,411,1444596,0.0-19.0-3.11,19715,List2B,black,woman,,,,,"{""Q0"":""dave and fred are dancing with each other""}","<img src=""stim_listB/dance6.gif""</stim_listB>",are dancing with each other,
null,"<div style=""font-size:60px;"">+</div>",,html-keyboard-response,412,1445097,0.0-19.0-0.12,19715,List2B,black,woman,,,,null,,,,
null,"<img src=""stim_listB/marry8.gif""</stim_listB>",,html-keyboard-response,413,1447101,0.0-19.0-1.12,19715,List2B,black,woman,,,,null,,,,
null,are marrying each other,,html-keyboard-response,414,1449103,0.0-19.0-2.12,19715,List2B,black,woman,,,,null,,,,
9613,,,survey-text,415,1458716,0.0-19.0-3.12,19715,List2B,black,woman,,,,,"{""Q0"":""ruth and kate are marrying each other""}","<img src=""stim_listB/marry8.gif""</stim_listB>",are marrying each other,
null,"<div style=""font-size:60px;"">+</div>",,html-keyboard-response,416,1459217,0.0-19.0-0.13,19715,List2B,black,woman,,,,null,,,,
null,"<img src=""stim_listB/fight5.gif""</stim_listB>",,html-keyboard-response,417,1461219,0.0-19.0-1.13,19715,List2B,black,woman,,,,null,,,,
null,is fighting,,html-keyboard-response,418,1463221,0.0-19.0-2.13,19715,List2B,black,woman,,,,null,,,,
4917,,,survey-text,419,1468139,0.0-19.0-3.13,19715,List2B,black,woman,,,,,"{""Q0"":""mike is fighting dave""}","<img src=""stim_listB/fight5.gif""</stim_listB>",is fighting,
null,"<div style=""font-size:60px;"">+</div>",,html-keyboard-response,420,1468640,0.0-19.0-0.14,19715,List2B,black,woman,,,,null,,,,
null,"<img src=""stim_listB/meet1.gif""</stim_listB>",,html-keyboard-response,421,1470641,0.0-19.0-1.14,19715,List2B,black,woman,,,,null,,,,
null,is meeting,,html-keyboard-response,422,1472643,0.0-19.0-2.14,19715,List2B,black,woman,,,,null,,,,
5464,,,survey-text,423,1478108,0.0-19.0-3.14,19715,List2B,black,woman,,,,,"{""Q0"":""jane is meeting dave""}","<img src=""stim_listB/meet1.gif""</stim_listB>",is meeting,
null,"<div style=""font-size:60px;"">+</div>",,html-keyboard-response,424,1478611,0.0-19.0-0.15,19715,List2B,black,woman,,,,null,,,,
null,"<img src=""stim_listB/hug7.gif""</stim_listB>",,html-keyboard-response,425,1480612,0.0-19.0-1.15,19715,List2B,black,woman,,,,null,,,,
null,is hugging,,html-keyboard-response,426,1482613,0.0-19.0-2.15,19715,List2B,black,woman,,,,null,,,,
5653,,,survey-text,427,1488267,0.0-19.0-3.15,19715,List2B,black,woman,,,,,"{""Q0"":""beth is hugging ruth""}","<img src=""stim_listB/hug7.gif""</stim_listB>",is hugging,
null,"<div style=""font-size:60px;"">+</div>",,html-keyboard-response,428,1488769,0.0-19.0-0.16,19715,List2B,black,woman,,,,null,,,,
null,"<img src=""stim_listB/touch1.gif""</stim_listB>",,html-keyboard-response,429,1490772,0.0-19.0-1.16,19715,List2B,black,woman,,,,null,,,,
null,is touching,,html-keyboard-response,430,1492773,0.0-19.0-2.16,19715,List2B,black,woman,,,,null,,,,
5487,,,survey-text,431,1498260,0.0-19.0-3.16,19715,List2B,black,woman,,,,,"{""Q0"":""jane is touching dave""}","<img src=""stim_listB/touch1.gif""</stim_listB>",is touching,
null,"<div style=""font-size:60px;"">+</div>",,html-keyboard-response,432,1498761,0.0-19.0-0.17,19715,List2B,black,woman,,,,null,,,,
null,"<img src=""stim_listB/touch7.gif""</stim_listB>",,html-keyboard-response,433,1500762,0.0-19.0-1.17,19715,List2B,black,woman,,,,null,,,,
null,is touching,,html-keyboard-response,434,1502764,0.0-19.0-2.17,19715,List2B,black,woman,,,,null,,,,
5632,,,survey-text,435,1508396,0.0-19.0-3.17,19715,List2B,black,woman,,,,,"{""Q0"":""kate is touching jane""}","<img src=""stim_listB/touch7.gif""</stim_listB>",is touching,
null,"<div style=""font-size:60px;"">+</div>",,html-keyboard-response,436,1508897,0.0-19.0-0.18,19715,List2B,black,woman,,,,null,,,,
null,"<img src=""stim_listB/argue4.gif""</stim_listB>",,html-keyboard-response,437,1510901,0.0-19.0-1.18,19715,List2B,black,woman,,,,null,,,,
null,are arguing with each other,,html-keyboard-response,438,1512903,0.0-19.0-2.18,19715,List2B,black,woman,,,,null,,,,
9292,,,survey-text,439,1522196,0.0-19.0-3.18,19715,List2B,black,woman,,,,,"{""Q0"":""fred and kate are arguing with each other""}","<img src=""stim_listB/argue4.gif""</stim_listB>",are arguing with each other,
null,"<div style=""font-size:60px;"">+</div>",,html-keyboard-response,440,1522698,0.0-19.0-0.19,19715,List2B,black,woman,,,,null,,,,
null,"<img src=""stim_listB/shout3.gif""</stim_listB>",,html-keyboard-response,441,1524699,0.0-19.0-1.19,19715,List2B,black,woman,,,,null,,,,
null,is shouting at,,html-keyboard-response,442,1526701,0.0-19.0-2.19,19715,List2B,black,woman,,,,null,,,,
6159,,,survey-text,443,1532861,0.0-19.0-3.19,19715,List2B,black,woman,,,,,"{""Q0"":""beth is shouting at fred""}","<img src=""stim_listB/shout3.gif""</stim_listB>",is shouting at,
2662,<p>Thank you for completing that task.</p><p>The final part of this session is a short questionnaire.</p><p>Press Continue.</p>,0,html-button-response,444,1535524,0.0-20.0,19715,List2B,black,woman,,,,,,,,
18111,,,survey-text,445,1554636,0.0-21.0,19715,List2B,black,woman,,,,,"{""Q0"":""31"",""Q1"":""English"",""Q2"":""English"",""Q3"":""United States"",""Q4"":""Black"",""Q5"":""Female""}",,,demographics
70221,,,survey-likert,446,1624863,0.0-22.0,19715,List2B,black,woman,,,,,"{""Q0"":5,""Q1"":5,""Q2"":4,""Q3"":6,""Q4"":6,""Q5"":2,""Q6"":5,""Q7"":4,""Q8"":5,""Q9"":6,""Q10"":5,""Q11"":3,""Q12"":3,""Q13"":3}",,,likert_race
55085,,,survey-likert,447,1679951,0.0-23.0,19715,List2B,black,woman,,,,,"{""Q0"":4,""Q1"":4,""Q2"":3,""Q3"":5,""Q4"":5,""Q5"":5,""Q6"":4,""Q7"":4,""Q8"":5,""Q9"":4,""Q10"":3,""Q11"":3,""Q12"":3,""Q13"":3}",,,likert_gender
4180,,,survey-text,448,1684133,0.0-24.0,19715,List2B,black,woman,,,,,"{""Q0"":""ccc""}",,,worker_id
2523,,,external-html,449,1691804,0.0-25.0,19715,List2B,black,woman,debrief.html,,,,,,,
