rt,stimulus,button_pressed,trial_type,trial_index,time_elapsed,internal_node_id,subject,list,ppt_race,ppt_gender,url,first_guess,correct,key_press,responses,image_type,phrase_type,test_part
1748,Welcome to the experiment. Press Continue to begin.,0,html-button-response,0,1754,0.0-0.0,20209,List1A,white,woman,,,,,,,,
18052,,,external-html,1,21008,0.0-1.0,20209,List1A,white,woman,consent.html,,,,,,,
17688,"<p>On the next page, you will see portraits of 8 people and their names.</p><p>Your first task is to take a few minutes to memorise the names of these people.</p><p>You will have to recall their names during the rest of the experiment, so it is</p><p>essential that you try to memorise these people and their names as best as you can.</p><br><p><strong>You will then be tested on your memory of these names and portraits.</strong></p><br><p>The experiment will start after you have completed this memory test.</p><br><p>Ready?</p>",0,html-button-response,2,38700,0.0-2.0,20209,List1A,white,woman,,,,,,,,
39716,"<img src='img/portrait_matrix_list1.JPG' style='width:900px;height:500px;''></img><p>If you have memorised all the portraits and names and are ready to start, press Continue.</p><p><strong>Please note: Your memory of these faces will be tested 4 times during this experiment.</strong></p>",0,html-button-response,3,79418,0.0-3.0-0.0,20209,List1A,white,woman,,,,,,,,
5262,"<img src=""portrait/WM2.jpg""style=""width:400px;height:400px;""></img>",7,html-button-response,4,85682,0.0-3.0-1.0,20209,List1A,white,woman,,TRUE,7,,,,,
null,CORRECT,,html-keyboard-response,5,87186,0.0-3.0-2.0-0.0,20209,List1A,white,woman,,,,null,,,,
3901,"<img src=""portrait/WW1.jpg""style=""width:400px;height:400px;""></img>",1,html-button-response,6,91089,0.0-3.0-4.0,20209,List1A,white,woman,,TRUE,1,,,,,
null,CORRECT,,html-keyboard-response,7,92590,0.0-3.0-5.0-0.0,20209,List1A,white,woman,,,,null,,,,
3337,"<img src=""portrait/BW1.jpg""style=""width:400px;height:400px;""></img>",0,html-button-response,8,95929,0.0-3.0-7.0,20209,List1A,white,woman,,TRUE,0,,,,,
null,CORRECT,,html-keyboard-response,9,97431,0.0-3.0-8.0-0.0,20209,List1A,white,woman,,,,null,,,,
3190,"<img src=""portrait/WW2.jpg""style=""width:400px;height:400px;""></img>",3,html-button-response,10,100622,0.0-3.0-10.0,20209,List1A,white,woman,,TRUE,3,,,,,
null,CORRECT,,html-keyboard-response,11,102123,0.0-3.0-11.0-0.0,20209,List1A,white,woman,,,,null,,,,
2720,"<img src=""portrait/WM1.jpg""style=""width:400px;height:400px;""></img>",6,html-button-response,12,104845,0.0-3.0-13.0,20209,List1A,white,woman,,TRUE,6,,,,,
null,CORRECT,,html-keyboard-response,13,106347,0.0-3.0-14.0-0.0,20209,List1A,white,woman,,,,null,,,,
3441,"<img src=""portrait/BM2.jpg""style=""width:400px;height:400px;""></img>",5,html-button-response,14,109789,0.0-3.0-16.0,20209,List1A,white,woman,,TRUE,5,,,,,
null,CORRECT,,html-keyboard-response,15,111291,0.0-3.0-17.0-0.0,20209,List1A,white,woman,,,,null,,,,
5232,"<img src=""portrait/BW2.jpg""style=""width:400px;height:400px;""></img>",2,html-button-response,16,116525,0.0-3.0-19.0,20209,List1A,white,woman,,TRUE,2,,,,,
null,CORRECT,,html-keyboard-response,17,118027,0.0-3.0-20.0-0.0,20209,List1A,white,woman,,,,null,,,,
2977,"<img src=""portrait/BM1.jpg""style=""width:400px;height:400px;""></img>",4,html-button-response,18,121005,0.0-3.0-22.0,20209,List1A,white,woman,,TRUE,4,,,,,
null,CORRECT,,html-keyboard-response,19,122507,0.0-3.0-23.0-0.0,20209,List1A,white,woman,,,,null,,,,
1056,<p>You got 8 out of 8 right first time. Press Continue.</p>,0,html-button-response,20,123565,0.0-3.0-25.0,20209,List1A,white,woman,,,,,,,,
21019,"<p>In this experiment, you will view photographs of the people from the memory game interacting.</p><p>By using the <strong>exact</strong> phrase given <i>after</i> the photograph appears and recalling the correct names of the people in the photographs, form a sentence describing the interaction. You do not need to capitalise names.</p><p>Type your answer in the space provided. Please complete every sentence before moving onto the next trial.</p><p>You will only have a few seconds to memorise each given photograph and phrase before you can respond, so try your best to focus.</p><p>An example is given below. Press 'Continue' when you are ready.</p><img src='img/speaking_example_v2.jpg' style='width:800px;height:460px;''></img>",0,html-button-response,21,145587,0.0-4.0,20209,List1A,white,woman,,,,,,,,
92213,"<p>Before the experiment starts, you will watch two example trials. Press 'Continue'.</p>",0,html-button-response,22,238803,0.0-5.0,20209,List1A,white,woman,,,,,,,,
null,<img src='img/speaking_WW.gif'></img>,,html-keyboard-response,23,241805,0.0-6.0,20209,List1A,white,woman,,,,null,,,,
null,<p>is speaking to</p>,,html-keyboard-response,24,243806,0.0-7.0,20209,List1A,white,woman,,,,null,,,,
2772,<p><b>Answer:</b> kate is speaking to beth</p>,0,html-button-response,25,246579,0.0-8.0,20209,List1A,white,woman,,,,,,,,
null,<img src='img/pointing_BM.gif'></img>,,html-keyboard-response,26,249581,0.0-9.0,20209,List1A,white,woman,,,,null,,,,
null,<p>are pointing at each other</p>,,html-keyboard-response,27,251582,0.0-10.0,20209,List1A,white,woman,,,,null,,,,
5298,<p><b>Answer:</b> luke and dave are pointing at each other</p>,0,html-button-response,28,256882,0.0-11.0,20209,List1A,white,woman,,,,,,,,
4149,"<p>Ready to start the experiment?</p><br><p><strong>Remember to describe the picture using a full sentence,</strong></p><p><strong> that combines the names of the people with the given phrase.</strong></p><p><strong> You do not need to capitalise names or use punctuation.</strong></p><br><p>Press 'Continue' to begin.</p>",0,html-button-response,29,262034,0.0-12.0,20209,List1A,white,woman,,,,,,,,
null,"<div style=""font-size:60px;"">+</div>",,html-keyboard-response,30,263536,0.0-13.0-0.0,20209,List1A,white,woman,,,,null,,,,
null,"<img src=""stim_listA/marry7.gif""</stim_listA>",,html-keyboard-response,31,265539,0.0-13.0-1.0,20209,List1A,white,woman,,,,null,,,,
null,is marrying,,html-keyboard-response,32,267540,0.0-13.0-2.0,20209,List1A,white,woman,,,,null,,,,
6491,,,survey-text,33,274034,0.0-13.0-3.0,20209,List1A,white,woman,,,,,"{""Q0"":""ruth and beth are talking""}","<img src=""stim_listA/marry7.gif""</stim_listA>",is marrying,
null,"<div style=""font-size:60px;"">+</div>",,html-keyboard-response,34,274536,0.0-13.0-0.1,20209,List1A,white,woman,,,,null,,,,
null,"<img src=""stim_listA/hug6.gif""</stim_listA>",,html-keyboard-response,35,276538,0.0-13.0-1.1,20209,List1A,white,woman,,,,null,,,,
null,are hugging each other,,html-keyboard-response,36,278538,0.0-13.0-2.1,20209,List1A,white,woman,,,,null,,,,
6037,,,survey-text,37,284577,0.0-13.0-3.1,20209,List1A,white,woman,,,,,"{""Q0"":""mike and dave are hugging""}","<img src=""stim_listA/hug6.gif""</stim_listA>",are hugging each other,
null,"<div style=""font-size:60px;"">+</div>",,html-keyboard-response,38,285079,0.0-13.0-0.2,20209,List1A,white,woman,,,,null,,,,
null,"<img src=""stim_listA/argue5.gif""</stim_listA>",,html-keyboard-response,39,287081,0.0-13.0-1.2,20209,List1A,white,woman,,,,null,,,,
null,is arguing with,,html-keyboard-response,40,289082,0.0-13.0-2.2,20209,List1A,white,woman,,,,null,,,,
6598,,,survey-text,41,295680,0.0-13.0-3.2,20209,List1A,white,woman,,,,,"{""Q0"":""mike is arguing with dave""}","<img src=""stim_listA/argue5.gif""</stim_listA>",is arguing with,
null,"<div style=""font-size:60px;"">+</div>",,html-keyboard-response,42,296182,0.0-13.0-0.3,20209,List1A,white,woman,,,,null,,,,
null,"<img src=""stim_listA/kiss6.gif""</stim_listA>",,html-keyboard-response,43,298189,0.0-13.0-1.3,20209,List1A,white,woman,,,,null,,,,
null,are kissing each other,,html-keyboard-response,44,300190,0.0-13.0-2.3,20209,List1A,white,woman,,,,null,,,,
12734,,,survey-text,45,312924,0.0-13.0-3.3,20209,List1A,white,woman,,,,,"{""Q0"":""mike and dave are kissing each other""}","<img src=""stim_listA/kiss6.gif""</stim_listA>",are kissing each other,
null,"<div style=""font-size:60px;"">+</div>",,html-keyboard-response,46,313426,0.0-13.0-0.4,20209,List1A,white,woman,,,,null,,,,
null,"<img src=""stim_listA/talk8.gif""</stim_listA>",,html-keyboard-response,47,315428,0.0-13.0-1.4,20209,List1A,white,woman,,,,null,,,,
null,are talking to each other,,html-keyboard-response,48,317429,0.0-13.0-2.4,20209,List1A,white,woman,,,,null,,,,
8117,,,survey-text,49,325548,0.0-13.0-3.4,20209,List1A,white,woman,,,,,"{""Q0"":""ruth and beth are talking to each other""}","<img src=""stim_listA/talk8.gif""</stim_listA>",are talking to each other,
null,"<div style=""font-size:60px;"">+</div>",,html-keyboard-response,50,326049,0.0-13.0-0.5,20209,List1A,white,woman,,,,null,,,,
null,"<img src=""stim_listA/meet4.gif""</stim_listA>",,html-keyboard-response,51,328051,0.0-13.0-1.5,20209,List1A,white,woman,,,,null,,,,
null,are meeting each other,,html-keyboard-response,52,330052,0.0-13.0-2.5,20209,List1A,white,woman,,,,null,,,,
6030,,,survey-text,53,336083,0.0-13.0-3.5,20209,List1A,white,woman,,,,,"{""Q0"":""luke and ruth are meeting each other""}","<img src=""stim_listA/meet4.gif""</stim_listA>",are meeting each other,
null,"<div style=""font-size:60px;"">+</div>",,html-keyboard-response,54,336585,0.0-13.0-0.6,20209,List1A,white,woman,,,,null,,,,
null,"<img src=""stim_listA/fight8.gif""</stim_listA>",,html-keyboard-response,55,338587,0.0-13.0-1.6,20209,List1A,white,woman,,,,null,,,,
null,are fighting each other,,html-keyboard-response,56,340587,0.0-13.0-2.6,20209,List1A,white,woman,,,,null,,,,
7190,,,survey-text,57,347779,0.0-13.0-3.6,20209,List1A,white,woman,,,,,"{""Q0"":""ruth and beth are fighting""}","<img src=""stim_listA/fight8.gif""</stim_listA>",are fighting each other,
null,"<div style=""font-size:60px;"">+</div>",,html-keyboard-response,58,348280,0.0-13.0-0.7,20209,List1A,white,woman,,,,null,,,,
null,"<img src=""stim_listA/touch1.gif""</stim_listA>",,html-keyboard-response,59,350283,0.0-13.0-1.7,20209,List1A,white,woman,,,,null,,,,
null,is touching,,html-keyboard-response,60,352284,0.0-13.0-2.7,20209,List1A,white,woman,,,,null,,,,
5706,,,survey-text,61,357991,0.0-13.0-3.7,20209,List1A,white,woman,,,,,"{""Q0"":""mike and beth are touching""}","<img src=""stim_listA/touch1.gif""</stim_listA>",is touching,
null,"<div style=""font-size:60px;"">+</div>",,html-keyboard-response,62,358493,0.0-13.0-0.8,20209,List1A,white,woman,,,,null,,,,
null,"<img src=""stim_listA/touch6.gif""</stim_listA>",,html-keyboard-response,63,360495,0.0-13.0-1.8,20209,List1A,white,woman,,,,null,,,,
null,are touching each other,,html-keyboard-response,64,362496,0.0-13.0-2.8,20209,List1A,white,woman,,,,null,,,,
6198,,,survey-text,65,368694,0.0-13.0-3.8,20209,List1A,white,woman,,,,,"{""Q0"":""fred and luke are touching each other""}","<img src=""stim_listA/touch6.gif""</stim_listA>",are touching each other,
null,"<div style=""font-size:60px;"">+</div>",,html-keyboard-response,66,369199,0.0-13.0-0.9,20209,List1A,white,woman,,,,null,,,,
null,"<img src=""stim_listA/marry6.gif""</stim_listA>",,html-keyboard-response,67,371201,0.0-13.0-1.9,20209,List1A,white,woman,,,,null,,,,
null,are marrying each other,,html-keyboard-response,68,373203,0.0-13.0-2.9,20209,List1A,white,woman,,,,null,,,,
9505,,,survey-text,69,382710,0.0-13.0-3.9,20209,List1A,white,woman,,,,,"{""Q0"":""dave and fred are marrying each other""}","<img src=""stim_listA/marry6.gif""</stim_listA>",are marrying each other,
null,"<div style=""font-size:60px;"">+</div>",,html-keyboard-response,70,383211,0.0-13.0-0.10,20209,List1A,white,woman,,,,null,,,,
null,"<img src=""stim_listA/dance3.gif""</stim_listA>",,html-keyboard-response,71,385213,0.0-13.0-1.10,20209,List1A,white,woman,,,,null,,,,
null,is dancing with,,html-keyboard-response,72,387214,0.0-13.0-2.10,20209,List1A,white,woman,,,,null,,,,
4854,,,survey-text,73,392069,0.0-13.0-3.10,20209,List1A,white,woman,,,,,"{""Q0"":""luke is dancing with jane""}","<img src=""stim_listA/dance3.gif""</stim_listA>",is dancing with,
null,"<div style=""font-size:60px;"">+</div>",,html-keyboard-response,74,392571,0.0-13.0-0.11,20209,List1A,white,woman,,,,null,,,,
null,"<img src=""stim_listA/kiss5.gif""</stim_listA>",,html-keyboard-response,75,394573,0.0-13.0-1.11,20209,List1A,white,woman,,,,null,,,,
null,is kissing,,html-keyboard-response,76,396574,0.0-13.0-2.11,20209,List1A,white,woman,,,,null,,,,
6373,,,survey-text,77,402949,0.0-13.0-3.11,20209,List1A,white,woman,,,,,"{""Q0"":""fred is kissing luke""}","<img src=""stim_listA/kiss5.gif""</stim_listA>",is kissing,
null,"<div style=""font-size:60px;"">+</div>",,html-keyboard-response,78,403450,0.0-13.0-0.12,20209,List1A,white,woman,,,,null,,,,
null,"<img src=""stim_listA/meet2.gif""</stim_listA>",,html-keyboard-response,79,405452,0.0-13.0-1.12,20209,List1A,white,woman,,,,null,,,,
null,are meeting each other,,html-keyboard-response,80,407453,0.0-13.0-2.12,20209,List1A,white,woman,,,,null,,,,
6214,,,survey-text,81,413668,0.0-13.0-3.12,20209,List1A,white,woman,,,,,"{""Q0"":""fred and beth are meeting each other""}","<img src=""stim_listA/meet2.gif""</stim_listA>",are meeting each other,
null,"<div style=""font-size:60px;"">+</div>",,html-keyboard-response,82,414170,0.0-13.0-0.13,20209,List1A,white,woman,,,,null,,,,
null,"<img src=""stim_listA/fight5.gif""</stim_listA>",,html-keyboard-response,83,416508,0.0-13.0-1.13,20209,List1A,white,woman,,,,null,,,,
null,is fighting,,html-keyboard-response,84,418514,0.0-13.0-2.13,20209,List1A,white,woman,,,,null,,,,
7517,,,survey-text,85,426032,0.0-13.0-3.13,20209,List1A,white,woman,,,,,"{""Q0"":""mike and beth are fighting""}","<img src=""stim_listA/fight5.gif""</stim_listA>",is fighting,
null,"<div style=""font-size:60px;"">+</div>",,html-keyboard-response,86,426534,0.0-13.0-0.14,20209,List1A,white,woman,,,,null,,,,
null,"<img src=""stim_listA/marry3.gif""</stim_listA>",,html-keyboard-response,87,428536,0.0-13.0-1.14,20209,List1A,white,woman,,,,null,,,,
null,is marrying,,html-keyboard-response,88,430537,0.0-13.0-2.14,20209,List1A,white,woman,,,,null,,,,
6485,,,survey-text,89,437023,0.0-13.0-3.14,20209,List1A,white,woman,,,,,"{""Q0"":""dave is marrying ruth""}","<img src=""stim_listA/marry3.gif""</stim_listA>",is marrying,
null,"<div style=""font-size:60px;"">+</div>",,html-keyboard-response,90,437524,0.0-13.0-0.15,20209,List1A,white,woman,,,,null,,,,
null,"<img src=""stim_listA/meet7.gif""</stim_listA>",,html-keyboard-response,91,439525,0.0-13.0-1.15,20209,List1A,white,woman,,,,null,,,,
null,is meeting,,html-keyboard-response,92,441526,0.0-13.0-2.15,20209,List1A,white,woman,,,,null,,,,
4527,,,survey-text,93,446055,0.0-13.0-3.15,20209,List1A,white,woman,,,,,"{""Q0"":""kate is meeting jane""}","<img src=""stim_listA/meet7.gif""</stim_listA>",is meeting,
null,"<div style=""font-size:60px;"">+</div>",,html-keyboard-response,94,446555,0.0-13.0-0.16,20209,List1A,white,woman,,,,null,,,,
null,"<img src=""stim_listA/kiss1.gif""</stim_listA>",,html-keyboard-response,95,448558,0.0-13.0-1.16,20209,List1A,white,woman,,,,null,,,,
null,is kissing,,html-keyboard-response,96,450559,0.0-13.0-2.16,20209,List1A,white,woman,,,,null,,,,
4327,,,survey-text,97,454887,0.0-13.0-3.16,20209,List1A,white,woman,,,,,"{""Q0"":""fred is kissing beth""}","<img src=""stim_listA/kiss1.gif""</stim_listA>",is kissing,
null,"<div style=""font-size:60px;"">+</div>",,html-keyboard-response,98,455389,0.0-13.0-0.17,20209,List1A,white,woman,,,,null,,,,
null,"<img src=""stim_listA/meet5.gif""</stim_listA>",,html-keyboard-response,99,457391,0.0-13.0-1.17,20209,List1A,white,woman,,,,null,,,,
null,is meeting,,html-keyboard-response,100,459392,0.0-13.0-2.17,20209,List1A,white,woman,,,,null,,,,
4566,,,survey-text,101,463959,0.0-13.0-3.17,20209,List1A,white,woman,,,,,"{""Q0"":""mike is meeting dave""}","<img src=""stim_listA/meet5.gif""</stim_listA>",is meeting,
null,"<div style=""font-size:60px;"">+</div>",,html-keyboard-response,102,464460,0.0-13.0-0.18,20209,List1A,white,woman,,,,null,,,,
null,"<img src=""stim_listA/touch8.gif""</stim_listA>",,html-keyboard-response,103,466462,0.0-13.0-1.18,20209,List1A,white,woman,,,,null,,,,
null,are touching each other,,html-keyboard-response,104,468463,0.0-13.0-2.18,20209,List1A,white,woman,,,,null,,,,
6670,,,survey-text,105,475134,0.0-13.0-3.18,20209,List1A,white,woman,,,,,"{""Q0"":""beth and ruth are touching""}","<img src=""stim_listA/touch8.gif""</stim_listA>",are touching each other,
null,"<div style=""font-size:60px;"">+</div>",,html-keyboard-response,106,475635,0.0-13.0-0.19,20209,List1A,white,woman,,,,null,,,,
null,"<img src=""stim_listA/shout4.gif""</stim_listA>",,html-keyboard-response,107,477637,0.0-13.0-1.19,20209,List1A,white,woman,,,,null,,,,
null,are shouting at each other,,html-keyboard-response,108,479644,0.0-13.0-2.19,20209,List1A,white,woman,,,,null,,,,
5903,,,survey-text,109,485547,0.0-13.0-3.19,20209,List1A,white,woman,,,,,"{""Q0"":""dave and jane are shouting at each other""}","<img src=""stim_listA/shout4.gif""</stim_listA>",are shouting at each other,
3806,"<img src='img/portrait_matrix_list1.JPG' style='width:900px;height:500px;''></img><p>If you have memorised all the portraits and names and are ready to start, press Continue.</p><p><strong>Please note: Your memory of these faces will be tested 4 times during this experiment.</strong></p>",0,html-button-response,110,489355,0.0-14.0-0.0,20209,List1A,white,woman,,,,,,,,
381539,"<img src=""portrait/BW1.jpg""style=""width:400px;height:400px;""></img>",0,html-button-response,111,871897,0.0-14.0-1.0,20209,List1A,white,woman,,TRUE,0,,,,,
null,CORRECT,,html-keyboard-response,112,873400,0.0-14.0-2.0-0.0,20209,List1A,white,woman,,,,null,,,,
1783,"<img src=""portrait/BM2.jpg""style=""width:400px;height:400px;""></img>",5,html-button-response,113,875185,0.0-14.0-4.0,20209,List1A,white,woman,,TRUE,5,,,,,
null,CORRECT,,html-keyboard-response,114,876688,0.0-14.0-5.0-0.0,20209,List1A,white,woman,,,,null,,,,
2048,"<img src=""portrait/BM1.jpg""style=""width:400px;height:400px;""></img>",4,html-button-response,115,878737,0.0-14.0-7.0,20209,List1A,white,woman,,TRUE,4,,,,,
null,CORRECT,,html-keyboard-response,116,880239,0.0-14.0-8.0-0.0,20209,List1A,white,woman,,,,null,,,,
1233,"<img src=""portrait/WM2.jpg""style=""width:400px;height:400px;""></img>",7,html-button-response,117,881473,0.0-14.0-10.0,20209,List1A,white,woman,,TRUE,7,,,,,
null,CORRECT,,html-keyboard-response,118,882975,0.0-14.0-11.0-0.0,20209,List1A,white,woman,,,,null,,,,
2201,"<img src=""portrait/BW2.jpg""style=""width:400px;height:400px;""></img>",2,html-button-response,119,885177,0.0-14.0-13.0,20209,List1A,white,woman,,TRUE,2,,,,,
null,CORRECT,,html-keyboard-response,120,886679,0.0-14.0-14.0-0.0,20209,List1A,white,woman,,,,null,,,,
3424,"<img src=""portrait/WW1.jpg""style=""width:400px;height:400px;""></img>",1,html-button-response,121,890104,0.0-14.0-16.0,20209,List1A,white,woman,,TRUE,1,,,,,
null,CORRECT,,html-keyboard-response,122,891606,0.0-14.0-17.0-0.0,20209,List1A,white,woman,,,,null,,,,
1407,"<img src=""portrait/WM1.jpg""style=""width:400px;height:400px;""></img>",6,html-button-response,123,893015,0.0-14.0-19.0,20209,List1A,white,woman,,TRUE,6,,,,,
null,CORRECT,,html-keyboard-response,124,894517,0.0-14.0-20.0-0.0,20209,List1A,white,woman,,,,null,,,,
1929,"<img src=""portrait/WW2.jpg""style=""width:400px;height:400px;""></img>",3,html-button-response,125,896448,0.0-14.0-22.0,20209,List1A,white,woman,,TRUE,3,,,,,
null,CORRECT,,html-keyboard-response,126,897950,0.0-14.0-23.0-0.0,20209,List1A,white,woman,,,,null,,,,
952,<p>You got 8 out of 8 right first time. Press Continue.</p>,0,html-button-response,127,898904,0.0-14.0-25.0,20209,List1A,white,woman,,,,,,,,
null,"<div style=""font-size:60px;"">+</div>",,html-keyboard-response,128,900406,0.0-15.0-0.0,20209,List1A,white,woman,,,,null,,,,
null,"<img src=""stim_listA/kiss2.gif""</stim_listA>",,html-keyboard-response,129,902408,0.0-15.0-1.0,20209,List1A,white,woman,,,,null,,,,
null,are kissing each other,,html-keyboard-response,130,904409,0.0-15.0-2.0,20209,List1A,white,woman,,,,null,,,,
6636,,,survey-text,131,911047,0.0-15.0-3.0,20209,List1A,white,woman,,,,,"{""Q0"":""mike and beth are kissing each other""}","<img src=""stim_listA/kiss2.gif""</stim_listA>",are kissing each other,
null,"<div style=""font-size:60px;"">+</div>",,html-keyboard-response,132,911548,0.0-15.0-0.1,20209,List1A,white,woman,,,,null,,,,
null,"<img src=""stim_listA/hug3.gif""</stim_listA>",,html-keyboard-response,133,913550,0.0-15.0-1.1,20209,List1A,white,woman,,,,null,,,,
null,is hugging,,html-keyboard-response,134,915551,0.0-15.0-2.1,20209,List1A,white,woman,,,,null,,,,
5182,,,survey-text,135,920735,0.0-15.0-3.1,20209,List1A,white,woman,,,,,"{""Q0"":""luke and ruth are hugging""}","<img src=""stim_listA/hug3.gif""</stim_listA>",is hugging,
null,"<div style=""font-size:60px;"">+</div>",,html-keyboard-response,136,921236,0.0-15.0-0.2,20209,List1A,white,woman,,,,null,,,,
null,"<img src=""stim_listA/fight6.gif""</stim_listA>",,html-keyboard-response,137,923238,0.0-15.0-1.2,20209,List1A,white,woman,,,,null,,,,
null,are fighting each other,,html-keyboard-response,138,925239,0.0-15.0-2.2,20209,List1A,white,woman,,,,null,,,,
8802,,,survey-text,139,934043,0.0-15.0-3.2,20209,List1A,white,woman,,,,,"{""Q0"":""luke and fred are fighting each othter""}","<img src=""stim_listA/fight6.gif""</stim_listA>",are fighting each other,
null,"<div style=""font-size:60px;"">+</div>",,html-keyboard-response,140,934544,0.0-15.0-0.3,20209,List1A,white,woman,,,,null,,,,
null,"<img src=""stim_listA/marry4.gif""</stim_listA>",,html-keyboard-response,141,936546,0.0-15.0-1.3,20209,List1A,white,woman,,,,null,,,,
null,are marrying each other,,html-keyboard-response,142,938547,0.0-15.0-2.3,20209,List1A,white,woman,,,,null,,,,
6742,,,survey-text,143,945290,0.0-15.0-3.3,20209,List1A,white,woman,,,,,"{""Q0"":""luke and jane are marrying each other""}","<img src=""stim_listA/marry4.gif""</stim_listA>",are marrying each other,
null,"<div style=""font-size:60px;"">+</div>",,html-keyboard-response,144,945792,0.0-15.0-0.4,20209,List1A,white,woman,,,,null,,,,
null,"<img src=""stim_listA/talk2.gif""</stim_listA>",,html-keyboard-response,145,947794,0.0-15.0-1.4,20209,List1A,white,woman,,,,null,,,,
null,are talking to each other,,html-keyboard-response,146,949795,0.0-15.0-2.4,20209,List1A,white,woman,,,,null,,,,
5102,,,survey-text,147,954898,0.0-15.0-3.4,20209,List1A,white,woman,,,,,"{""Q0"":""mike and beth are talking""}","<img src=""stim_listA/talk2.gif""</stim_listA>",are talking to each other,
null,"<div style=""font-size:60px;"">+</div>",,html-keyboard-response,148,955400,0.0-15.0-0.5,20209,List1A,white,woman,,,,null,,,,
null,"<img src=""stim_listA/fight2.gif""</stim_listA>",,html-keyboard-response,149,957402,0.0-15.0-1.5,20209,List1A,white,woman,,,,null,,,,
null,are fighting each other,,html-keyboard-response,150,959403,0.0-15.0-2.5,20209,List1A,white,woman,,,,null,,,,
8910,,,survey-text,151,968313,0.0-15.0-3.5,20209,List1A,white,woman,,,,,"{""Q0"":""fred and beth are fighting""}","<img src=""stim_listA/fight2.gif""</stim_listA>",are fighting each other,
null,"<div style=""font-size:60px;"">+</div>",,html-keyboard-response,152,968815,0.0-15.0-0.6,20209,List1A,white,woman,,,,null,,,,
null,"<img src=""stim_listA/shout1.gif""</stim_listA>",,html-keyboard-response,153,970817,0.0-15.0-1.6,20209,List1A,white,woman,,,,null,,,,
null,is shouting at,,html-keyboard-response,154,972818,0.0-15.0-2.6,20209,List1A,white,woman,,,,null,,,,
7990,,,survey-text,155,980808,0.0-15.0-3.6,20209,List1A,white,woman,,,,,"{""Q0"":""fred is shouting at beth""}","<img src=""stim_listA/shout1.gif""</stim_listA>",is shouting at,
null,"<div style=""font-size:60px;"">+</div>",,html-keyboard-response,156,981310,0.0-15.0-0.7,20209,List1A,white,woman,,,,null,,,,
null,"<img src=""stim_listA/argue3.gif""</stim_listA>",,html-keyboard-response,157,983311,0.0-15.0-1.7,20209,List1A,white,woman,,,,null,,,,
null,is arguing with,,html-keyboard-response,158,985312,0.0-15.0-2.7,20209,List1A,white,woman,,,,null,,,,
9851,,,survey-text,159,995165,0.0-15.0-3.7,20209,List1A,white,woman,,,,,"{""Q0"":""dave is arguing with ruth""}","<img src=""stim_listA/argue3.gif""</stim_listA>",is arguing with,
null,"<div style=""font-size:60px;"">+</div>",,html-keyboard-response,160,995666,0.0-15.0-0.8,20209,List1A,white,woman,,,,null,,,,
null,"<img src=""stim_listA/fight4.gif""</stim_listA>",,html-keyboard-response,161,997668,0.0-15.0-1.8,20209,List1A,white,woman,,,,null,,,,
null,are fighting each other,,html-keyboard-response,162,999670,0.0-15.0-2.8,20209,List1A,white,woman,,,,null,,,,
9054,,,survey-text,163,1008724,0.0-15.0-3.8,20209,List1A,white,woman,,,,,"{""Q0"":""luke and ruth are fighting""}","<img src=""stim_listA/fight4.gif""</stim_listA>",are fighting each other,
null,"<div style=""font-size:60px;"">+</div>",,html-keyboard-response,164,1009226,0.0-15.0-0.9,20209,List1A,white,woman,,,,null,,,,
null,"<img src=""stim_listA/kiss8.gif""</stim_listA>",,html-keyboard-response,165,1011228,0.0-15.0-1.9,20209,List1A,white,woman,,,,null,,,,
null,are kissing each other,,html-keyboard-response,166,1013229,0.0-15.0-2.9,20209,List1A,white,woman,,,,null,,,,
4846,,,survey-text,167,1018075,0.0-15.0-3.9,20209,List1A,white,woman,,,,,"{""Q0"":""jane and kate are kissing""}","<img src=""stim_listA/kiss8.gif""</stim_listA>",are kissing each other,
null,"<div style=""font-size:60px;"">+</div>",,html-keyboard-response,168,1018577,0.0-15.0-0.10,20209,List1A,white,woman,,,,null,,,,
null,"<img src=""stim_listA/dance2.gif""</stim_listA>",,html-keyboard-response,169,1020579,0.0-15.0-1.10,20209,List1A,white,woman,,,,null,,,,
null,are dancing with each other,,html-keyboard-response,170,1022580,0.0-15.0-2.10,20209,List1A,white,woman,,,,null,,,,
5031,,,survey-text,171,1027611,0.0-15.0-3.10,20209,List1A,white,woman,,,,,"{""Q0"":""mike and beth are dancing""}","<img src=""stim_listA/dance2.gif""</stim_listA>",are dancing with each other,
null,"<div style=""font-size:60px;"">+</div>",,html-keyboard-response,172,1028113,0.0-15.0-0.11,20209,List1A,white,woman,,,,null,,,,
null,"<img src=""stim_listA/hug5.gif""</stim_listA>",,html-keyboard-response,173,1030115,0.0-15.0-1.11,20209,List1A,white,woman,,,,null,,,,
null,is hugging,,html-keyboard-response,174,1032116,0.0-15.0-2.11,20209,List1A,white,woman,,,,null,,,,
4661,,,survey-text,175,1036779,0.0-15.0-3.11,20209,List1A,white,woman,,,,,"{""Q0"":""fred is hugging luke""}","<img src=""stim_listA/hug5.gif""</stim_listA>",is hugging,
null,"<div style=""font-size:60px;"">+</div>",,html-keyboard-response,176,1037280,0.0-15.0-0.12,20209,List1A,white,woman,,,,null,,,,
null,"<img src=""stim_listA/talk3.gif""</stim_listA>",,html-keyboard-response,177,1039282,0.0-15.0-1.12,20209,List1A,white,woman,,,,null,,,,
null,is talking to,,html-keyboard-response,178,1041283,0.0-15.0-2.12,20209,List1A,white,woman,,,,null,,,,
7254,,,survey-text,179,1048538,0.0-15.0-3.12,20209,List1A,white,woman,,,,,"{""Q0"":""luke is talking to jane""}","<img src=""stim_listA/talk3.gif""</stim_listA>",is talking to,
null,"<div style=""font-size:60px;"">+</div>",,html-keyboard-response,180,1049039,0.0-15.0-0.13,20209,List1A,white,woman,,,,null,,,,
null,"<img src=""stim_listA/talk6.gif""</stim_listA>",,html-keyboard-response,181,1051046,0.0-15.0-1.13,20209,List1A,white,woman,,,,null,,,,
null,are talking to each other,,html-keyboard-response,182,1053047,0.0-15.0-2.13,20209,List1A,white,woman,,,,null,,,,
4870,,,survey-text,183,1057919,0.0-15.0-3.13,20209,List1A,white,woman,,,,,"{""Q0"":""luke and mike are talking""}","<img src=""stim_listA/talk6.gif""</stim_listA>",are talking to each other,
null,"<div style=""font-size:60px;"">+</div>",,html-keyboard-response,184,1058420,0.0-15.0-0.14,20209,List1A,white,woman,,,,null,,,,
null,"<img src=""stim_listA/argue8.gif""</stim_listA>",,html-keyboard-response,185,1060422,0.0-15.0-1.14,20209,List1A,white,woman,,,,null,,,,
null,are arguing with each other,,html-keyboard-response,186,1062423,0.0-15.0-2.14,20209,List1A,white,woman,,,,null,,,,
8270,,,survey-text,187,1070695,0.0-15.0-3.14,20209,List1A,white,woman,,,,,"{""Q0"":""jane and beth are arguing with each other""}","<img src=""stim_listA/argue8.gif""</stim_listA>",are arguing with each other,
null,"<div style=""font-size:60px;"">+</div>",,html-keyboard-response,188,1071197,0.0-15.0-0.15,20209,List1A,white,woman,,,,null,,,,
null,"<img src=""stim_listA/touch3.gif""</stim_listA>",,html-keyboard-response,189,1073199,0.0-15.0-1.15,20209,List1A,white,woman,,,,null,,,,
null,is touching,,html-keyboard-response,190,1075200,0.0-15.0-2.15,20209,List1A,white,woman,,,,null,,,,
4085,,,survey-text,191,1079286,0.0-15.0-3.15,20209,List1A,white,woman,,,,,"{""Q0"":""dave is touching jane""}","<img src=""stim_listA/touch3.gif""</stim_listA>",is touching,
null,"<div style=""font-size:60px;"">+</div>",,html-keyboard-response,192,1079787,0.0-15.0-0.16,20209,List1A,white,woman,,,,null,,,,
null,"<img src=""stim_listA/marry8.gif""</stim_listA>",,html-keyboard-response,193,1081789,0.0-15.0-1.16,20209,List1A,white,woman,,,,null,,,,
null,are marrying each other,,html-keyboard-response,194,1083790,0.0-15.0-2.16,20209,List1A,white,woman,,,,null,,,,
5479,,,survey-text,195,1089269,0.0-15.0-3.16,20209,List1A,white,woman,,,,,"{""Q0"":""jane and beth are marrying""}","<img src=""stim_listA/marry8.gif""</stim_listA>",are marrying each other,
null,"<div style=""font-size:60px;"">+</div>",,html-keyboard-response,196,1089771,0.0-15.0-0.17,20209,List1A,white,woman,,,,null,,,,
null,"<img src=""stim_listA/talk7.gif""</stim_listA>",,html-keyboard-response,197,1091773,0.0-15.0-1.17,20209,List1A,white,woman,,,,null,,,,
null,is talking to,,html-keyboard-response,198,1093774,0.0-15.0-2.17,20209,List1A,white,woman,,,,null,,,,
6509,,,survey-text,199,1100285,0.0-15.0-3.17,20209,List1A,white,woman,,,,,"{""Q0"":""beth is talking ot jane""}","<img src=""stim_listA/talk7.gif""</stim_listA>",is talking to,
null,"<div style=""font-size:60px;"">+</div>",,html-keyboard-response,200,1100786,0.0-15.0-0.18,20209,List1A,white,woman,,,,null,,,,
null,"<img src=""stim_listA/shout2.gif""</stim_listA>",,html-keyboard-response,201,1102788,0.0-15.0-1.18,20209,List1A,white,woman,,,,null,,,,
null,are shouting at each other,,html-keyboard-response,202,1104789,0.0-15.0-2.18,20209,List1A,white,woman,,,,null,,,,
4955,,,survey-text,203,1109746,0.0-15.0-3.18,20209,List1A,white,woman,,,,,"{""Q0"":""kate and mike are shouting""}","<img src=""stim_listA/shout2.gif""</stim_listA>",are shouting at each other,
null,"<div style=""font-size:60px;"">+</div>",,html-keyboard-response,204,1110248,0.0-15.0-0.19,20209,List1A,white,woman,,,,null,,,,
null,"<img src=""stim_listA/talk1.gif""</stim_listA>",,html-keyboard-response,205,1112249,0.0-15.0-1.19,20209,List1A,white,woman,,,,null,,,,
null,is talking to,,html-keyboard-response,206,1114251,0.0-15.0-2.19,20209,List1A,white,woman,,,,null,,,,
4086,,,survey-text,207,1118338,0.0-15.0-3.19,20209,List1A,white,woman,,,,,"{""Q0"":""fred is talking to kate""}","<img src=""stim_listA/talk1.gif""</stim_listA>",is talking to,
579961,"<img src='img/portrait_matrix_list1.JPG' style='width:900px;height:500px;''></img><p>If you have memorised all the portraits and names and are ready to start, press Continue.</p><p><strong>Please note: Your memory of these faces will be tested 4 times during this experiment.</strong></p>",0,html-button-response,208,1698299,0.0-16.0-0.0,20209,List1A,white,woman,,,,,,,,
1821,"<img src=""portrait/WW2.jpg""style=""width:400px;height:400px;""></img>",3,html-button-response,209,1701123,0.0-16.0-1.0,20209,List1A,white,woman,,TRUE,3,,,,,
null,CORRECT,,html-keyboard-response,210,1702625,0.0-16.0-2.0-0.0,20209,List1A,white,woman,,,,null,,,,
2528,"<img src=""portrait/BW1.jpg""style=""width:400px;height:400px;""></img>",0,html-button-response,211,1705155,0.0-16.0-4.0,20209,List1A,white,woman,,TRUE,0,,,,,
null,CORRECT,,html-keyboard-response,212,1706657,0.0-16.0-5.0-0.0,20209,List1A,white,woman,,,,null,,,,
1192,"<img src=""portrait/BM1.jpg""style=""width:400px;height:400px;""></img>",4,html-button-response,213,1707851,0.0-16.0-7.0,20209,List1A,white,woman,,TRUE,4,,,,,
null,CORRECT,,html-keyboard-response,214,1709353,0.0-16.0-8.0-0.0,20209,List1A,white,woman,,,,null,,,,
1232,"<img src=""portrait/WM1.jpg""style=""width:400px;height:400px;""></img>",6,html-button-response,215,1710587,0.0-16.0-10.0,20209,List1A,white,woman,,TRUE,6,,,,,
null,CORRECT,,html-keyboard-response,216,1712094,0.0-16.0-11.0-0.0,20209,List1A,white,woman,,,,null,,,,
1792,"<img src=""portrait/WW1.jpg""style=""width:400px;height:400px;""></img>",1,html-button-response,217,1713888,0.0-16.0-13.0,20209,List1A,white,woman,,TRUE,1,,,,,
null,CORRECT,,html-keyboard-response,218,1715390,0.0-16.0-14.0-0.0,20209,List1A,white,woman,,,,null,,,,
1680,"<img src=""portrait/WM2.jpg""style=""width:400px;height:400px;""></img>",7,html-button-response,219,1717072,0.0-16.0-16.0,20209,List1A,white,woman,,TRUE,7,,,,,
null,CORRECT,,html-keyboard-response,220,1718573,0.0-16.0-17.0-0.0,20209,List1A,white,woman,,,,null,,,,
1480,"<img src=""portrait/BW2.jpg""style=""width:400px;height:400px;""></img>",2,html-button-response,221,1720055,0.0-16.0-19.0,20209,List1A,white,woman,,TRUE,2,,,,,
null,CORRECT,,html-keyboard-response,222,1721556,0.0-16.0-20.0-0.0,20209,List1A,white,woman,,,,null,,,,
1745,"<img src=""portrait/BM2.jpg""style=""width:400px;height:400px;""></img>",5,html-button-response,223,1723303,0.0-16.0-22.0,20209,List1A,white,woman,,TRUE,5,,,,,
null,CORRECT,,html-keyboard-response,224,1724806,0.0-16.0-23.0-0.0,20209,List1A,white,woman,,,,null,,,,
744851,<p>You got 8 out of 8 right first time. Press Continue.</p>,0,html-button-response,225,2469659,0.0-16.0-25.0,20209,List1A,white,woman,,,,,,,,
null,"<div style=""font-size:60px;"">+</div>",,html-keyboard-response,226,2471162,0.0-17.0-0.0,20209,List1A,white,woman,,,,null,,,,
null,"<img src=""stim_listA/talk5.gif""</stim_listA>",,html-keyboard-response,227,2473164,0.0-17.0-1.0,20209,List1A,white,woman,,,,null,,,,
null,is talking to,,html-keyboard-response,228,2475165,0.0-17.0-2.0,20209,List1A,white,woman,,,,null,,,,
4756,,,survey-text,229,2479922,0.0-17.0-3.0,20209,List1A,white,woman,,,,,"{""Q0"":""fred is talking to dave""}","<img src=""stim_listA/talk5.gif""</stim_listA>",is talking to,
null,"<div style=""font-size:60px;"">+</div>",,html-keyboard-response,230,2480423,0.0-17.0-0.1,20209,List1A,white,woman,,,,null,,,,
null,"<img src=""stim_listA/fight7.gif""</stim_listA>",,html-keyboard-response,231,2482425,0.0-17.0-1.1,20209,List1A,white,woman,,,,null,,,,
null,is fighting,,html-keyboard-response,232,2484426,0.0-17.0-2.1,20209,List1A,white,woman,,,,null,,,,
1064245,,,survey-text,233,3548673,0.0-17.0-3.1,20209,List1A,white,woman,,,,,"{""Q0"":""kate is fighting jane""}","<img src=""stim_listA/fight7.gif""</stim_listA>",is fighting,
null,"<div style=""font-size:60px;"">+</div>",,html-keyboard-response,234,3549175,0.0-17.0-0.2,20209,List1A,white,woman,,,,null,,,,
null,"<img src=""stim_listA/touch7.gif""</stim_listA>",,html-keyboard-response,235,3551774,0.0-17.0-1.2,20209,List1A,white,woman,,,,null,,,,
null,is touching,,html-keyboard-response,236,3554774,0.0-17.0-2.2,20209,List1A,white,woman,,,,null,,,,
9505,,,survey-text,237,3564280,0.0-17.0-3.2,20209,List1A,white,woman,,,,,"{""Q0"":""kate is touching jane""}","<img src=""stim_listA/touch7.gif""</stim_listA>",is touching,
null,"<div style=""font-size:60px;"">+</div>",,html-keyboard-response,238,3564781,0.0-17.0-0.3,20209,List1A,white,woman,,,,null,,,,
null,"<img src=""stim_listA/kiss3.gif""</stim_listA>",,html-keyboard-response,239,3566783,0.0-17.0-1.3,20209,List1A,white,woman,,,,null,,,,
null,is kissing,,html-keyboard-response,240,3568784,0.0-17.0-2.3,20209,List1A,white,woman,,,,null,,,,
8294,,,survey-text,241,3577080,0.0-17.0-3.3,20209,List1A,white,woman,,,,,"{""Q0"":""luke is kissing ruth""}","<img src=""stim_listA/kiss3.gif""</stim_listA>",is kissing,
null,"<div style=""font-size:60px;"">+</div>",,html-keyboard-response,242,3577581,0.0-17.0-0.4,20209,List1A,white,woman,,,,null,,,,
null,"<img src=""stim_listA/hug1.gif""</stim_listA>",,html-keyboard-response,243,3579583,0.0-17.0-1.4,20209,List1A,white,woman,,,,null,,,,
null,is hugging,,html-keyboard-response,244,3581584,0.0-17.0-2.4,20209,List1A,white,woman,,,,null,,,,
6414,,,survey-text,245,3587999,0.0-17.0-3.4,20209,List1A,white,woman,,,,,"{""Q0"":""fred is hugging beth""}","<img src=""stim_listA/hug1.gif""</stim_listA>",is hugging,
null,"<div style=""font-size:60px;"">+</div>",,html-keyboard-response,246,3588500,0.0-17.0-0.5,20209,List1A,white,woman,,,,null,,,,
null,"<img src=""stim_listA/hug8.gif""</stim_listA>",,html-keyboard-response,247,3590502,0.0-17.0-1.5,20209,List1A,white,woman,,,,null,,,,
null,are hugging each other,,html-keyboard-response,248,3592504,0.0-17.0-2.5,20209,List1A,white,woman,,,,null,,,,
5101,,,survey-text,249,3597607,0.0-17.0-3.5,20209,List1A,white,woman,,,,,"{""Q0"":""jane and kate are hugging""}","<img src=""stim_listA/hug8.gif""</stim_listA>",are hugging each other,
null,"<div style=""font-size:60px;"">+</div>",,html-keyboard-response,250,3598108,0.0-17.0-0.6,20209,List1A,white,woman,,,,null,,,,
null,"<img src=""stim_listA/dance7.gif""</stim_listA>",,html-keyboard-response,251,3600110,0.0-17.0-1.6,20209,List1A,white,woman,,,,null,,,,
null,is dancing with,,html-keyboard-response,252,3602111,0.0-17.0-2.6,20209,List1A,white,woman,,,,null,,,,
4702,,,survey-text,253,3606814,0.0-17.0-3.6,20209,List1A,white,woman,,,,,"{""Q0"":""ruth is dancing with beth""}","<img src=""stim_listA/dance7.gif""</stim_listA>",is dancing with,
null,"<div style=""font-size:60px;"">+</div>",,html-keyboard-response,254,3607316,0.0-17.0-0.7,20209,List1A,white,woman,,,,null,,,,
null,"<img src=""stim_listA/meet3.gif""</stim_listA>",,html-keyboard-response,255,3609322,0.0-17.0-1.7,20209,List1A,white,woman,,,,null,,,,
null,is meeting,,html-keyboard-response,256,3611323,0.0-17.0-2.7,20209,List1A,white,woman,,,,null,,,,
4054,,,survey-text,257,3615379,0.0-17.0-3.7,20209,List1A,white,woman,,,,,"{""Q0"":""dave is meeting ruth""}","<img src=""stim_listA/meet3.gif""</stim_listA>",is meeting,
null,"<div style=""font-size:60px;"">+</div>",,html-keyboard-response,258,3615880,0.0-17.0-0.8,20209,List1A,white,woman,,,,null,,,,
null,"<img src=""stim_listA/shout8.gif""</stim_listA>",,html-keyboard-response,259,3617883,0.0-17.0-1.8,20209,List1A,white,woman,,,,null,,,,
null,are shouting at each other,,html-keyboard-response,260,3619883,0.0-17.0-2.8,20209,List1A,white,woman,,,,null,,,,
4542,,,survey-text,261,3624426,0.0-17.0-3.8,20209,List1A,white,woman,,,,,"{""Q0"":""ruth and kate are shouting""}","<img src=""stim_listA/shout8.gif""</stim_listA>",are shouting at each other,
null,"<div style=""font-size:60px;"">+</div>",,html-keyboard-response,262,3624928,0.0-17.0-0.9,20209,List1A,white,woman,,,,null,,,,
null,"<img src=""stim_listA/meet1.gif""</stim_listA>",,html-keyboard-response,263,3626930,0.0-17.0-1.9,20209,List1A,white,woman,,,,null,,,,
null,is meeting,,html-keyboard-response,264,3628931,0.0-17.0-2.9,20209,List1A,white,woman,,,,null,,,,
4750,,,survey-text,265,3633682,0.0-17.0-3.9,20209,List1A,white,woman,,,,,"{""Q0"":""mike is meeting kate""}","<img src=""stim_listA/meet1.gif""</stim_listA>",is meeting,
null,"<div style=""font-size:60px;"">+</div>",,html-keyboard-response,266,3634183,0.0-17.0-0.10,20209,List1A,white,woman,,,,null,,,,
null,"<img src=""stim_listA/kiss4.gif""</stim_listA>",,html-keyboard-response,267,3636185,0.0-17.0-1.10,20209,List1A,white,woman,,,,null,,,,
null,are kissing each other,,html-keyboard-response,268,3638186,0.0-17.0-2.10,20209,List1A,white,woman,,,,null,,,,
4191,,,survey-text,269,3642377,0.0-17.0-3.10,20209,List1A,white,woman,,,,,"{""Q0"":""dave and ruth are kissing""}","<img src=""stim_listA/kiss4.gif""</stim_listA>",are kissing each other,
null,"<div style=""font-size:60px;"">+</div>",,html-keyboard-response,270,3642879,0.0-17.0-0.11,20209,List1A,white,woman,,,,null,,,,
null,"<img src=""stim_listA/marry2.gif""</stim_listA>",,html-keyboard-response,271,3644882,0.0-17.0-1.11,20209,List1A,white,woman,,,,null,,,,
null,are marrying each other,,html-keyboard-response,272,3646883,0.0-17.0-2.11,20209,List1A,white,woman,,,,null,,,,
5644,,,survey-text,273,3652529,0.0-17.0-3.11,20209,List1A,white,woman,,,,,"{""Q0"":""fred and kate are marrying ""}","<img src=""stim_listA/marry2.gif""</stim_listA>",are marrying each other,
null,"<div style=""font-size:60px;"">+</div>",,html-keyboard-response,274,3653030,0.0-17.0-0.12,20209,List1A,white,woman,,,,null,,,,
null,"<img src=""stim_listA/shout5.gif""</stim_listA>",,html-keyboard-response,275,3655032,0.0-17.0-1.12,20209,List1A,white,woman,,,,null,,,,
null,is shouting at,,html-keyboard-response,276,3657033,0.0-17.0-2.12,20209,List1A,white,woman,,,,null,,,,
6286,,,survey-text,277,3663320,0.0-17.0-3.12,20209,List1A,white,woman,,,,,"{""Q0"":""fred is shouting at luke""}","<img src=""stim_listA/shout5.gif""</stim_listA>",is shouting at,
null,"<div style=""font-size:60px;"">+</div>",,html-keyboard-response,278,3663822,0.0-17.0-0.13,20209,List1A,white,woman,,,,null,,,,
null,"<img src=""stim_listA/fight3.gif""</stim_listA>",,html-keyboard-response,279,3665824,0.0-17.0-1.13,20209,List1A,white,woman,,,,null,,,,
null,is fighting,,html-keyboard-response,280,3667831,0.0-17.0-2.13,20209,List1A,white,woman,,,,null,,,,
3806,,,survey-text,281,3671637,0.0-17.0-3.13,20209,List1A,white,woman,,,,,"{""Q0"":""dave is fighting jane""}","<img src=""stim_listA/fight3.gif""</stim_listA>",is fighting,
null,"<div style=""font-size:60px;"">+</div>",,html-keyboard-response,282,3672139,0.0-17.0-0.14,20209,List1A,white,woman,,,,null,,,,
null,"<img src=""stim_listA/touch4.gif""</stim_listA>",,html-keyboard-response,283,3674140,0.0-17.0-1.14,20209,List1A,white,woman,,,,null,,,,
null,are touching each other,,html-keyboard-response,284,3676142,0.0-17.0-2.14,20209,List1A,white,woman,,,,null,,,,
8654,,,survey-text,285,3684797,0.0-17.0-3.14,20209,List1A,white,woman,,,,,"{""Q0"":""luke and ruth are touching""}","<img src=""stim_listA/touch4.gif""</stim_listA>",are touching each other,
null,"<div style=""font-size:60px;"">+</div>",,html-keyboard-response,286,3685298,0.0-17.0-0.15,20209,List1A,white,woman,,,,null,,,,
null,"<img src=""stim_listA/hug7.gif""</stim_listA>",,html-keyboard-response,287,3687300,0.0-17.0-1.15,20209,List1A,white,woman,,,,null,,,,
null,is hugging,,html-keyboard-response,288,3689301,0.0-17.0-2.15,20209,List1A,white,woman,,,,null,,,,
6949,,,survey-text,289,3696252,0.0-17.0-3.15,20209,List1A,white,woman,,,,,"{""Q0"":""ruth is hugging beth""}","<img src=""stim_listA/hug7.gif""</stim_listA>",is hugging,
null,"<div style=""font-size:60px;"">+</div>",,html-keyboard-response,290,3696753,0.0-17.0-0.16,20209,List1A,white,woman,,,,null,,,,
null,"<img src=""stim_listA/argue7.gif""</stim_listA>",,html-keyboard-response,291,3698755,0.0-17.0-1.16,20209,List1A,white,woman,,,,null,,,,
null,is arguing with,,html-keyboard-response,292,3700756,0.0-17.0-2.16,20209,List1A,white,woman,,,,null,,,,
4478,,,survey-text,293,3705236,0.0-17.0-3.16,20209,List1A,white,woman,,,,,"{""Q0"":""kate is arguing with ruth""}","<img src=""stim_listA/argue7.gif""</stim_listA>",is arguing with,
null,"<div style=""font-size:60px;"">+</div>",,html-keyboard-response,294,3705737,0.0-17.0-0.17,20209,List1A,white,woman,,,,null,,,,
null,"<img src=""stim_listA/kiss7.gif""</stim_listA>",,html-keyboard-response,295,3707739,0.0-17.0-1.17,20209,List1A,white,woman,,,,null,,,,
null,is kissing,,html-keyboard-response,296,3709740,0.0-17.0-2.17,20209,List1A,white,woman,,,,null,,,,
5798,,,survey-text,297,3715539,0.0-17.0-3.17,20209,List1A,white,woman,,,,,"{""Q0"":""ruth is kissing beth""}","<img src=""stim_listA/kiss7.gif""</stim_listA>",is kissing,
null,"<div style=""font-size:60px;"">+</div>",,html-keyboard-response,298,3716040,0.0-17.0-0.18,20209,List1A,white,woman,,,,null,,,,
null,"<img src=""stim_listA/argue1.gif""</stim_listA>",,html-keyboard-response,299,3718042,0.0-17.0-1.18,20209,List1A,white,woman,,,,null,,,,
null,is arguing with,,html-keyboard-response,300,3720043,0.0-17.0-2.18,20209,List1A,white,woman,,,,null,,,,
5054,,,survey-text,301,3725099,0.0-17.0-3.18,20209,List1A,white,woman,,,,,"{""Q0"":""mike is arguing with beth""}","<img src=""stim_listA/argue1.gif""</stim_listA>",is arguing with,
null,"<div style=""font-size:60px;"">+</div>",,html-keyboard-response,302,3725601,0.0-17.0-0.19,20209,List1A,white,woman,,,,null,,,,
null,"<img src=""stim_listA/dance6.gif""</stim_listA>",,html-keyboard-response,303,3727603,0.0-17.0-1.19,20209,List1A,white,woman,,,,null,,,,
null,are dancing with each other,,html-keyboard-response,304,3729609,0.0-17.0-2.19,20209,List1A,white,woman,,,,null,,,,
4958,,,survey-text,305,3734567,0.0-17.0-3.19,20209,List1A,white,woman,,,,,"{""Q0"":""mike and luke are dancing""}","<img src=""stim_listA/dance6.gif""</stim_listA>",are dancing with each other,
1518,"<img src='img/portrait_matrix_list1.JPG' style='width:900px;height:500px;''></img><p>If you have memorised all the portraits and names and are ready to start, press Continue.</p><p><strong>Please note: Your memory of these faces will be tested 4 times during this experiment.</strong></p>",0,html-button-response,306,3736087,0.0-18.0-0.0,20209,List1A,white,woman,,,,,,,,
1478,"<img src=""portrait/BM1.jpg""style=""width:400px;height:400px;""></img>",4,html-button-response,307,3738568,0.0-18.0-1.0,20209,List1A,white,woman,,TRUE,4,,,,,
null,CORRECT,,html-keyboard-response,308,3740070,0.0-18.0-2.0-0.0,20209,List1A,white,woman,,,,null,,,,
1239,"<img src=""portrait/WM1.jpg""style=""width:400px;height:400px;""></img>",6,html-button-response,309,3741311,0.0-18.0-4.0,20209,List1A,white,woman,,TRUE,6,,,,,
null,CORRECT,,html-keyboard-response,310,3742813,0.0-18.0-5.0-0.0,20209,List1A,white,woman,,,,null,,,,
1904,"<img src=""portrait/WW1.jpg""style=""width:400px;height:400px;""></img>",1,html-button-response,311,3744719,0.0-18.0-7.0,20209,List1A,white,woman,,TRUE,1,,,,,
null,CORRECT,,html-keyboard-response,312,3746221,0.0-18.0-8.0-0.0,20209,List1A,white,woman,,,,null,,,,
1183,"<img src=""portrait/WW2.jpg""style=""width:400px;height:400px;""></img>",3,html-button-response,313,3747407,0.0-18.0-10.0,20209,List1A,white,woman,,TRUE,3,,,,,
null,CORRECT,,html-keyboard-response,314,3748909,0.0-18.0-11.0-0.0,20209,List1A,white,woman,,,,null,,,,
4472,"<img src=""portrait/BW2.jpg""style=""width:400px;height:400px;""></img>",2,html-button-response,315,3753383,0.0-18.0-13.0,20209,List1A,white,woman,,TRUE,2,,,,,
null,CORRECT,,html-keyboard-response,316,3754884,0.0-18.0-14.0-0.0,20209,List1A,white,woman,,,,null,,,,
1593,"<img src=""portrait/BM2.jpg""style=""width:400px;height:400px;""></img>",5,html-button-response,317,3756479,0.0-18.0-16.0,20209,List1A,white,woman,,TRUE,5,,,,,
null,CORRECT,,html-keyboard-response,318,3757981,0.0-18.0-17.0-0.0,20209,List1A,white,woman,,,,null,,,,
1600,"<img src=""portrait/BW1.jpg""style=""width:400px;height:400px;""></img>",0,html-button-response,319,3759582,0.0-18.0-19.0,20209,List1A,white,woman,,TRUE,0,,,,,
null,CORRECT,,html-keyboard-response,320,3761084,0.0-18.0-20.0-0.0,20209,List1A,white,woman,,,,null,,,,
1048,"<img src=""portrait/WM2.jpg""style=""width:400px;height:400px;""></img>",7,html-button-response,321,3762134,0.0-18.0-22.0,20209,List1A,white,woman,,TRUE,7,,,,,
null,CORRECT,,html-keyboard-response,322,3763636,0.0-18.0-23.0-0.0,20209,List1A,white,woman,,,,null,,,,
1008,<p>You got 8 out of 8 right first time. Press Continue.</p>,0,html-button-response,323,3764646,0.0-18.0-25.0,20209,List1A,white,woman,,,,,,,,
null,"<div style=""font-size:60px;"">+</div>",,html-keyboard-response,324,3766147,0.0-19.0-0.0,20209,List1A,white,woman,,,,null,,,,
null,"<img src=""stim_listA/fight1.gif""</stim_listA>",,html-keyboard-response,325,3768149,0.0-19.0-1.0,20209,List1A,white,woman,,,,null,,,,
null,is fighting,,html-keyboard-response,326,3770150,0.0-19.0-2.0,20209,List1A,white,woman,,,,null,,,,
4710,,,survey-text,327,3774862,0.0-19.0-3.0,20209,List1A,white,woman,,,,,"{""Q0"":""mike and kate are fighting""}","<img src=""stim_listA/fight1.gif""</stim_listA>",is fighting,
null,"<div style=""font-size:60px;"">+</div>",,html-keyboard-response,328,3775364,0.0-19.0-0.1,20209,List1A,white,woman,,,,null,,,,
null,"<img src=""stim_listA/touch5.gif""</stim_listA>",,html-keyboard-response,329,3777366,0.0-19.0-1.1,20209,List1A,white,woman,,,,null,,,,
null,is touching,,html-keyboard-response,330,3779367,0.0-19.0-2.1,20209,List1A,white,woman,,,,null,,,,
5445,,,survey-text,331,3784813,0.0-19.0-3.1,20209,List1A,white,woman,,,,,"{""Q0"":""mike is touching dave""}","<img src=""stim_listA/touch5.gif""</stim_listA>",is touching,
null,"<div style=""font-size:60px;"">+</div>",,html-keyboard-response,332,3785315,0.0-19.0-0.2,20209,List1A,white,woman,,,,null,,,,
null,"<img src=""stim_listA/dance4.gif""</stim_listA>",,html-keyboard-response,333,3787317,0.0-19.0-1.2,20209,List1A,white,woman,,,,null,,,,
null,are dancing with each other,,html-keyboard-response,334,3789318,0.0-19.0-2.2,20209,List1A,white,woman,,,,null,,,,
4754,,,survey-text,335,3794073,0.0-19.0-3.2,20209,List1A,white,woman,,,,,"{""Q0"":""dave and ruth are dancing""}","<img src=""stim_listA/dance4.gif""</stim_listA>",are dancing with each other,
null,"<div style=""font-size:60px;"">+</div>",,html-keyboard-response,336,3794574,0.0-19.0-0.3,20209,List1A,white,woman,,,,null,,,,
null,"<img src=""stim_listA/argue4.gif""</stim_listA>",,html-keyboard-response,337,3796793,0.0-19.0-1.3,20209,List1A,white,woman,,,,null,,,,
null,are arguing with each other,,html-keyboard-response,338,3799794,0.0-19.0-2.3,20209,List1A,white,woman,,,,null,,,,
12774,,,survey-text,339,3812570,0.0-19.0-3.3,20209,List1A,white,woman,,,,,"{""Q0"":""""}","<img src=""stim_listA/argue4.gif""</stim_listA>",are arguing with each other,
null,"<div style=""font-size:60px;"">+</div>",,html-keyboard-response,340,3813074,0.0-19.0-0.4,20209,List1A,white,woman,,,,null,,,,
null,"<img src=""stim_listA/argue2.gif""</stim_listA>",,html-keyboard-response,341,3815077,0.0-19.0-1.4,20209,List1A,white,woman,,,,null,,,,
null,are arguing with each other,,html-keyboard-response,342,3817078,0.0-19.0-2.4,20209,List1A,white,woman,,,,null,,,,
5664,,,survey-text,343,3822744,0.0-19.0-3.4,20209,List1A,white,woman,,,,,"{""Q0"":""kate and fred are arguing""}","<img src=""stim_listA/argue2.gif""</stim_listA>",are arguing with each other,
null,"<div style=""font-size:60px;"">+</div>",,html-keyboard-response,344,3823246,0.0-19.0-0.5,20209,List1A,white,woman,,,,null,,,,
null,"<img src=""stim_listA/dance1.gif""</stim_listA>",,html-keyboard-response,345,3825248,0.0-19.0-1.5,20209,List1A,white,woman,,,,null,,,,
null,is dancing with,,html-keyboard-response,346,3827249,0.0-19.0-2.5,20209,List1A,white,woman,,,,null,,,,
73799,,,survey-text,347,3901049,0.0-19.0-3.5,20209,List1A,white,woman,,,,,"{""Q0"":""kate is dancing with fred""}","<img src=""stim_listA/dance1.gif""</stim_listA>",is dancing with,
null,"<div style=""font-size:60px;"">+</div>",,html-keyboard-response,348,3901551,0.0-19.0-0.6,20209,List1A,white,woman,,,,null,,,,
null,"<img src=""stim_listA/meet6.gif""</stim_listA>",,html-keyboard-response,349,3903553,0.0-19.0-1.6,20209,List1A,white,woman,,,,null,,,,
null,are meeting each other,,html-keyboard-response,350,3905554,0.0-19.0-2.6,20209,List1A,white,woman,,,,null,,,,
6611,,,survey-text,351,3912166,0.0-19.0-3.6,20209,List1A,white,woman,,,,,"{""Q0"":""luke and fred are meeting each other""}","<img src=""stim_listA/meet6.gif""</stim_listA>",are meeting each other,
null,"<div style=""font-size:60px;"">+</div>",,html-keyboard-response,352,3912668,0.0-19.0-0.7,20209,List1A,white,woman,,,,null,,,,
null,"<img src=""stim_listA/talk4.gif""</stim_listA>",,html-keyboard-response,353,3914670,0.0-19.0-1.7,20209,List1A,white,woman,,,,null,,,,
null,are talking to each other,,html-keyboard-response,354,3916671,0.0-19.0-2.7,20209,List1A,white,woman,,,,null,,,,
4773,,,survey-text,355,3921445,0.0-19.0-3.7,20209,List1A,white,woman,,,,,"{""Q0"":""ruth and dave are talking""}","<img src=""stim_listA/talk4.gif""</stim_listA>",are talking to each other,
null,"<div style=""font-size:60px;"">+</div>",,html-keyboard-response,356,3921947,0.0-19.0-0.8,20209,List1A,white,woman,,,,null,,,,
null,"<img src=""stim_listA/argue6.gif""</stim_listA>",,html-keyboard-response,357,3923949,0.0-19.0-1.8,20209,List1A,white,woman,,,,null,,,,
null,are arguing with each other,,html-keyboard-response,358,3925950,0.0-19.0-2.8,20209,List1A,white,woman,,,,null,,,,
7422,,,survey-text,359,3933372,0.0-19.0-3.8,20209,List1A,white,woman,,,,,"{""Q0"":""dave and fred are arguing""}","<img src=""stim_listA/argue6.gif""</stim_listA>",are arguing with each other,
null,"<div style=""font-size:60px;"">+</div>",,html-keyboard-response,360,3933874,0.0-19.0-0.9,20209,List1A,white,woman,,,,null,,,,
null,"<img src=""stim_listA/shout3.gif""</stim_listA>",,html-keyboard-response,361,3935876,0.0-19.0-1.9,20209,List1A,white,woman,,,,null,,,,
null,is shouting at,,html-keyboard-response,362,3937877,0.0-19.0-2.9,20209,List1A,white,woman,,,,null,,,,
4678,,,survey-text,363,3942556,0.0-19.0-3.9,20209,List1A,white,woman,,,,,"{""Q0"":""mike is shouting at ruth""}","<img src=""stim_listA/shout3.gif""</stim_listA>",is shouting at,
null,"<div style=""font-size:60px;"">+</div>",,html-keyboard-response,364,3943058,0.0-19.0-0.10,20209,List1A,white,woman,,,,null,,,,
null,"<img src=""stim_listA/hug2.gif""</stim_listA>",,html-keyboard-response,365,3945060,0.0-19.0-1.10,20209,List1A,white,woman,,,,null,,,,
null,are hugging each other,,html-keyboard-response,366,3947061,0.0-19.0-2.10,20209,List1A,white,woman,,,,null,,,,
4717,,,survey-text,367,3951780,0.0-19.0-3.10,20209,List1A,white,woman,,,,,"{""Q0"":""mike and kate are hugging""}","<img src=""stim_listA/hug2.gif""</stim_listA>",are hugging each other,
null,"<div style=""font-size:60px;"">+</div>",,html-keyboard-response,368,3952281,0.0-19.0-0.11,20209,List1A,white,woman,,,,null,,,,
null,"<img src=""stim_listA/hug4.gif""</stim_listA>",,html-keyboard-response,369,3954283,0.0-19.0-1.11,20209,List1A,white,woman,,,,null,,,,
null,are hugging each other,,html-keyboard-response,370,3956284,0.0-19.0-2.11,20209,List1A,white,woman,,,,null,,,,
4142,,,survey-text,371,3960427,0.0-19.0-3.11,20209,List1A,white,woman,,,,,"{""Q0"":""dave and jane are hugging""}","<img src=""stim_listA/hug4.gif""</stim_listA>",are hugging each other,
null,"<div style=""font-size:60px;"">+</div>",,html-keyboard-response,372,3960928,0.0-19.0-0.12,20209,List1A,white,woman,,,,null,,,,
null,"<img src=""stim_listA/dance5.gif""</stim_listA>",,html-keyboard-response,373,3962930,0.0-19.0-1.12,20209,List1A,white,woman,,,,null,,,,
null,is dancing with,,html-keyboard-response,374,3964931,0.0-19.0-2.12,20209,List1A,white,woman,,,,null,,,,
4718,,,survey-text,375,3969651,0.0-19.0-3.12,20209,List1A,white,woman,,,,,"{""Q0"":""fred is dancing with dave""}","<img src=""stim_listA/dance5.gif""</stim_listA>",is dancing with,
null,"<div style=""font-size:60px;"">+</div>",,html-keyboard-response,376,3970153,0.0-19.0-0.13,20209,List1A,white,woman,,,,null,,,,
null,"<img src=""stim_listA/marry1.gif""</stim_listA>",,html-keyboard-response,377,3972160,0.0-19.0-1.13,20209,List1A,white,woman,,,,null,,,,
null,is marrying,,html-keyboard-response,378,3974161,0.0-19.0-2.13,20209,List1A,white,woman,,,,null,,,,
4317,,,survey-text,379,3978480,0.0-19.0-3.13,20209,List1A,white,woman,,,,,"{""Q0"":""mike is marrying beth""}","<img src=""stim_listA/marry1.gif""</stim_listA>",is marrying,
null,"<div style=""font-size:60px;"">+</div>",,html-keyboard-response,380,3978982,0.0-19.0-0.14,20209,List1A,white,woman,,,,null,,,,
null,"<img src=""stim_listA/marry5.gif""</stim_listA>",,html-keyboard-response,381,3980984,0.0-19.0-1.14,20209,List1A,white,woman,,,,null,,,,
null,is marrying,,html-keyboard-response,382,3982985,0.0-19.0-2.14,20209,List1A,white,woman,,,,null,,,,
4653,,,survey-text,383,3987639,0.0-19.0-3.14,20209,List1A,white,woman,,,,,"{""Q0"":""mike is marrying luke""}","<img src=""stim_listA/marry5.gif""</stim_listA>",is marrying,
null,"<div style=""font-size:60px;"">+</div>",,html-keyboard-response,384,3988141,0.0-19.0-0.15,20209,List1A,white,woman,,,,null,,,,
null,"<img src=""stim_listA/shout7.gif""</stim_listA>",,html-keyboard-response,385,3990143,0.0-19.0-1.15,20209,List1A,white,woman,,,,null,,,,
null,is shouting at,,html-keyboard-response,386,3992144,0.0-19.0-2.15,20209,List1A,white,woman,,,,null,,,,
8133,,,survey-text,387,4000279,0.0-19.0-3.15,20209,List1A,white,woman,,,,,"{""Q0"":""beth is shouting at ruth""}","<img src=""stim_listA/shout7.gif""</stim_listA>",is shouting at,
null,"<div style=""font-size:60px;"">+</div>",,html-keyboard-response,388,4000780,0.0-19.0-0.16,20209,List1A,white,woman,,,,null,,,,
null,"<img src=""stim_listA/dance8.gif""</stim_listA>",,html-keyboard-response,389,4002783,0.0-19.0-1.16,20209,List1A,white,woman,,,,null,,,,
null,are dancing with each other,,html-keyboard-response,390,4004783,0.0-19.0-2.16,20209,List1A,white,woman,,,,null,,,,
4534,,,survey-text,391,4009318,0.0-19.0-3.16,20209,List1A,white,woman,,,,,"{""Q0"":""ruth and kate are dancing""}","<img src=""stim_listA/dance8.gif""</stim_listA>",are dancing with each other,
null,"<div style=""font-size:60px;"">+</div>",,html-keyboard-response,392,4009820,0.0-19.0-0.17,20209,List1A,white,woman,,,,null,,,,
null,"<img src=""stim_listA/touch2.gif""</stim_listA>",,html-keyboard-response,393,4011822,0.0-19.0-1.17,20209,List1A,white,woman,,,,null,,,,
null,are touching each other,,html-keyboard-response,394,4013823,0.0-19.0-2.17,20209,List1A,white,woman,,,,null,,,,
4358,,,survey-text,395,4018182,0.0-19.0-3.17,20209,List1A,white,woman,,,,,"{""Q0"":""fred and beth are touching""}","<img src=""stim_listA/touch2.gif""</stim_listA>",are touching each other,
null,"<div style=""font-size:60px;"">+</div>",,html-keyboard-response,396,4018684,0.0-19.0-0.18,20209,List1A,white,woman,,,,null,,,,
null,"<img src=""stim_listA/meet8.gif""</stim_listA>",,html-keyboard-response,397,4020686,0.0-19.0-1.18,20209,List1A,white,woman,,,,null,,,,
null,are meeting each other,,html-keyboard-response,398,4022687,0.0-19.0-2.18,20209,List1A,white,woman,,,,null,,,,
4750,,,survey-text,399,4027437,0.0-19.0-3.18,20209,List1A,white,woman,,,,,"{""Q0"":""ruth and beth are meeting""}","<img src=""stim_listA/meet8.gif""</stim_listA>",are meeting each other,
null,"<div style=""font-size:60px;"">+</div>",,html-keyboard-response,400,4027939,0.0-19.0-0.19,20209,List1A,white,woman,,,,null,,,,
null,"<img src=""stim_listA/shout6.gif""</stim_listA>",,html-keyboard-response,401,4029941,0.0-19.0-1.19,20209,List1A,white,woman,,,,null,,,,
null,are shouting at each other,,html-keyboard-response,402,4031947,0.0-19.0-2.19,20209,List1A,white,woman,,,,null,,,,
7333,,,survey-text,403,4039282,0.0-19.0-3.19,20209,List1A,white,woman,,,,,"{""Q0"":""mike and dave are shouting at each other""}","<img src=""stim_listA/shout6.gif""</stim_listA>",are shouting at each other,
1318,<p>Thank you for completing that task.</p><p>The final part of this session is a short questionnaire.</p><p>Press Continue.</p>,0,html-button-response,404,4040602,0.0-20.0,20209,List1A,white,woman,,,,,,,,
12405,,,survey-text,405,4054010,0.0-21.0,20209,List1A,white,woman,,,,,"{""Q0"":""28"",""Q1"":""english"",""Q2"":""english"",""Q3"":""canada"",""Q4"":""caucasian"",""Q5"":""female""}",,,demographics
29939,,,survey-likert,406,4083958,0.0-22.0,20209,List1A,white,woman,,,,,"{""Q0"":6,""Q1"":6,""Q2"":6,""Q3"":6,""Q4"":6,""Q5"":6,""Q6"":6,""Q7"":1,""Q8"":4,""Q9"":5,""Q10"":5,""Q11"":5,""Q12"":4,""Q13"":4}",,,likert_race
38034,,,survey-likert,407,4122001,0.0-23.0,20209,List1A,white,woman,,,,,"{""Q0"":6,""Q1"":6,""Q2"":6,""Q3"":6,""Q4"":6,""Q5"":6,""Q6"":6,""Q7"":2,""Q8"":5,""Q9"":5,""Q10"":5,""Q11"":5,""Q12"":5,""Q13"":4}",,,likert_gender
136278,,,survey-text,408,4258282,0.0-24.0,20209,List1A,white,woman,,,,,"{""Q0"":""ccc""}",,,worker_id
134508,,,external-html,409,4393199,0.0-25.0,20209,List1A,white,woman,debrief.html,,,,,,,
