rt,stimulus,button_pressed,trial_type,trial_index,time_elapsed,internal_node_id,subject,list,ppt_race,ppt_gender,url,first_guess,correct,key_press,responses,image_type,phrase_type,test_part
4128,Welcome to the experiment. Press Continue to begin.,0,html-button-response,0,4135,0.0-0.0,2023,List2A,black,man,,,,,,,,
107937,,,external-html,1,113152,0.0-1.0,2023,List2A,black,man,consent.html,,,,,,,
24967,"<p>On the next page, you will see portraits of 8 people and their names.</p><p>Your first task is to take a few minutes to memorise the names of these people.</p><p>You will have to recall their names during the rest of the experiment, so it is</p><p>essential that you try to memorise these people and their names as best as you can.</p><br><p><strong>You will then be tested on your memory of these names and portraits.</strong></p><br><p>The experiment will start after you have completed this memory test.</p><br><p>Ready?</p>",0,html-button-response,2,138123,0.0-2.0,2023,List2A,black,man,,,,,,,,
106723,"<img src='img/portrait_matrix_list2.JPG' style='width:900px;height:500px;''></img><p>If you have memorised all the portraits and names and are ready to start, press Continue.</p><p><strong>Please note: Your memory of these faces will be tested 4 times during this experiment.</strong></p>",0,html-button-response,3,245850,0.0-3.0-0.0,2023,List2A,black,man,,,,,,,,
11902,"<img src=""portrait/WM2.jpg""style=""width:400px;height:400px;""></img>",7,html-button-response,4,258757,0.0-3.0-1.0,2023,List2A,black,man,,TRUE,7,,,,,
null,CORRECT,,html-keyboard-response,5,260266,0.0-3.0-2.0-0.0,2023,List2A,black,man,,,,null,,,,
16878,"<img src=""portrait/WW1.jpg""style=""width:400px;height:400px;""></img>",1,html-button-response,6,277150,0.0-3.0-4.0,2023,List2A,black,man,,TRUE,1,,,,,
null,CORRECT,,html-keyboard-response,7,278655,0.0-3.0-5.0-0.0,2023,List2A,black,man,,,,null,,,,
14005,"<img src=""portrait/BW2.jpg""style=""width:400px;height:400px;""></img>",3,html-button-response,8,292665,0.0-3.0-7.0,2023,List2A,black,man,,TRUE,2,,,,,
14080,"<img src=""portrait/BW2.jpg""style=""width:400px;height:400px;""></img>",2,html-button-response,9,307756,0.0-3.0-9.0-0.0,2023,List2A,black,man,,FALSE,2,,,,,
null,CORRECT,,html-keyboard-response,10,309263,0.0-3.0-9.0-1.0-0.0,2023,List2A,black,man,,,,null,,,,
8776,"<img src=""portrait/BM1.jpg""style=""width:400px;height:400px;""></img>",4,html-button-response,11,318044,0.0-3.0-10.0,2023,List2A,black,man,,TRUE,4,,,,,
null,CORRECT,,html-keyboard-response,12,319548,0.0-3.0-11.0-0.0,2023,List2A,black,man,,,,null,,,,
2135,"<img src=""portrait/BM2.jpg""style=""width:400px;height:400px;""></img>",5,html-button-response,13,321689,0.0-3.0-13.0,2023,List2A,black,man,,TRUE,5,,,,,
null,CORRECT,,html-keyboard-response,14,323194,0.0-3.0-14.0-0.0,2023,List2A,black,man,,,,null,,,,
5652,"<img src=""portrait/BW1.jpg""style=""width:400px;height:400px;""></img>",1,html-button-response,15,328851,0.0-3.0-16.0,2023,List2A,black,man,,TRUE,0,,,,,
2529,"<img src=""portrait/BW1.jpg""style=""width:400px;height:400px;""></img>",0,html-button-response,16,332385,0.0-3.0-18.0-0.0,2023,List2A,black,man,,FALSE,0,,,,,
null,CORRECT,,html-keyboard-response,17,333890,0.0-3.0-18.0-1.0-0.0,2023,List2A,black,man,,,,null,,,,
5530,"<img src=""portrait/WW2.jpg""style=""width:400px;height:400px;""></img>",0,html-button-response,18,339424,0.0-3.0-19.0,2023,List2A,black,man,,TRUE,3,,,,,
2453,"<img src=""portrait/WW2.jpg""style=""width:400px;height:400px;""></img>",3,html-button-response,19,342883,0.0-3.0-21.0-0.0,2023,List2A,black,man,,FALSE,3,,,,,
null,CORRECT,,html-keyboard-response,20,344387,0.0-3.0-21.0-1.0-0.0,2023,List2A,black,man,,,,null,,,,
3919,"<img src=""portrait/WM1.jpg""style=""width:400px;height:400px;""></img>",6,html-button-response,21,348310,0.0-3.0-22.0,2023,List2A,black,man,,TRUE,6,,,,,
null,CORRECT,,html-keyboard-response,22,349814,0.0-3.0-23.0-0.0,2023,List2A,black,man,,,,null,,,,
3543,<p>You got 5 out of 8 right first time. Press Continue.</p>,0,html-button-response,23,353361,0.0-3.0-25.0,2023,List2A,black,man,,,,,,,,
5884,"As you did not score 100%, the memory game will repeat. Press Continue.",0,html-button-response,24,360249,0.0-3.0-26.0-0.0,2023,List2A,black,man,,,,,,,,
14604,"<img src='img/portrait_matrix_list2.JPG' style='width:900px;height:500px;''></img><p>If you have memorised all the portraits and names and are ready to start, press Continue.</p><p><strong>Please note: Your memory of these faces will be tested 4 times during this experiment.</strong></p>",0,html-button-response,25,375863,0.0-3.1-0.1,2023,List2A,black,man,,,,,,,,
8052,"<img src=""portrait/WM2.jpg""style=""width:400px;height:400px;""></img>",4,html-button-response,26,384928,0.0-3.1-1.1,2023,List2A,black,man,,TRUE,7,,,,,
2597,"<img src=""portrait/WM2.jpg""style=""width:400px;height:400px;""></img>",7,html-button-response,27,388530,0.0-3.1-3.1-0.1,2023,List2A,black,man,,FALSE,7,,,,,
null,CORRECT,,html-keyboard-response,28,390036,0.0-3.1-3.1-1.1-0.1,2023,List2A,black,man,,,,null,,,,
13344,"<img src=""portrait/WW1.jpg""style=""width:400px;height:400px;""></img>",2,html-button-response,29,403387,0.0-3.1-4.1,2023,List2A,black,man,,TRUE,1,,,,,
2613,"<img src=""portrait/WW1.jpg""style=""width:400px;height:400px;""></img>",1,html-button-response,30,407006,0.0-3.1-6.1-0.1,2023,List2A,black,man,,FALSE,1,,,,,
null,CORRECT,,html-keyboard-response,31,408510,0.0-3.1-6.1-1.1-0.1,2023,List2A,black,man,,,,null,,,,
4443,"<img src=""portrait/BW2.jpg""style=""width:400px;height:400px;""></img>",2,html-button-response,32,412958,0.0-3.1-7.1,2023,List2A,black,man,,TRUE,2,,,,,
null,CORRECT,,html-keyboard-response,33,414462,0.0-3.1-8.1-0.1,2023,List2A,black,man,,,,null,,,,
4752,"<img src=""portrait/BM1.jpg""style=""width:400px;height:400px;""></img>",4,html-button-response,34,419220,0.0-3.1-10.1,2023,List2A,black,man,,TRUE,4,,,,,
null,CORRECT,,html-keyboard-response,35,420725,0.0-3.1-11.1-0.1,2023,List2A,black,man,,,,null,,,,
1938,"<img src=""portrait/BM2.jpg""style=""width:400px;height:400px;""></img>",5,html-button-response,36,422672,0.0-3.1-13.1,2023,List2A,black,man,,TRUE,5,,,,,
null,CORRECT,,html-keyboard-response,37,424178,0.0-3.1-14.1-0.1,2023,List2A,black,man,,,,null,,,,
5941,"<img src=""portrait/BW1.jpg""style=""width:400px;height:400px;""></img>",0,html-button-response,38,430125,0.0-3.1-16.1,2023,List2A,black,man,,TRUE,0,,,,,
null,CORRECT,,html-keyboard-response,39,431629,0.0-3.1-17.1-0.1,2023,List2A,black,man,,,,null,,,,
5226,"<img src=""portrait/WW2.jpg""style=""width:400px;height:400px;""></img>",3,html-button-response,40,436859,0.0-3.1-19.1,2023,List2A,black,man,,TRUE,3,,,,,
null,CORRECT,,html-keyboard-response,41,438363,0.0-3.1-20.1-0.1,2023,List2A,black,man,,,,null,,,,
4804,"<img src=""portrait/WM1.jpg""style=""width:400px;height:400px;""></img>",7,html-button-response,42,443173,0.0-3.1-22.1,2023,List2A,black,man,,TRUE,6,,,,,
2354,"<img src=""portrait/WM1.jpg""style=""width:400px;height:400px;""></img>",6,html-button-response,43,446533,0.0-3.1-24.1-0.1,2023,List2A,black,man,,FALSE,6,,,,,
null,CORRECT,,html-keyboard-response,44,448037,0.0-3.1-24.1-1.1-0.1,2023,List2A,black,man,,,,null,,,,
1686,<p>You got 5 out of 8 right first time. Press Continue.</p>,0,html-button-response,45,449727,0.0-3.1-25.1,2023,List2A,black,man,,,,,,,,
2139,"As you did not score 100%, the memory game will repeat. Press Continue.",0,html-button-response,46,452869,0.0-3.1-26.1-0.1,2023,List2A,black,man,,,,,,,,
11699,"<img src='img/portrait_matrix_list2.JPG' style='width:900px;height:500px;''></img><p>If you have memorised all the portraits and names and are ready to start, press Continue.</p><p><strong>Please note: Your memory of these faces will be tested 4 times during this experiment.</strong></p>",0,html-button-response,47,465575,0.0-3.2-0.2,2023,List2A,black,man,,,,,,,,
1479,"<img src=""portrait/WM2.jpg""style=""width:400px;height:400px;""></img>",7,html-button-response,48,468059,0.0-3.2-1.2,2023,List2A,black,man,,TRUE,7,,,,,
null,CORRECT,,html-keyboard-response,49,469564,0.0-3.2-2.2-0.2,2023,List2A,black,man,,,,null,,,,
8171,"<img src=""portrait/WW1.jpg""style=""width:400px;height:400px;""></img>",1,html-button-response,50,477740,0.0-3.2-4.2,2023,List2A,black,man,,TRUE,1,,,,,
null,CORRECT,,html-keyboard-response,51,479244,0.0-3.2-5.2-0.2,2023,List2A,black,man,,,,null,,,,
4805,"<img src=""portrait/BW2.jpg""style=""width:400px;height:400px;""></img>",2,html-button-response,52,484059,0.0-3.2-7.2,2023,List2A,black,man,,TRUE,2,,,,,
null,CORRECT,,html-keyboard-response,53,485565,0.0-3.2-8.2-0.2,2023,List2A,black,man,,,,null,,,,
3948,"<img src=""portrait/BM1.jpg""style=""width:400px;height:400px;""></img>",4,html-button-response,54,489521,0.0-3.2-10.2,2023,List2A,black,man,,TRUE,4,,,,,
null,CORRECT,,html-keyboard-response,55,491025,0.0-3.2-11.2-0.2,2023,List2A,black,man,,,,null,,,,
2046,"<img src=""portrait/BM2.jpg""style=""width:400px;height:400px;""></img>",5,html-button-response,56,493078,0.0-3.2-13.2,2023,List2A,black,man,,TRUE,5,,,,,
null,CORRECT,,html-keyboard-response,57,494582,0.0-3.2-14.2-0.2,2023,List2A,black,man,,,,null,,,,
4447,"<img src=""portrait/BW1.jpg""style=""width:400px;height:400px;""></img>",0,html-button-response,58,499033,0.0-3.2-16.2,2023,List2A,black,man,,TRUE,0,,,,,
null,CORRECT,,html-keyboard-response,59,500537,0.0-3.2-17.2-0.2,2023,List2A,black,man,,,,null,,,,
7878,"<img src=""portrait/WW2.jpg""style=""width:400px;height:400px;""></img>",3,html-button-response,60,508421,0.0-3.2-19.2,2023,List2A,black,man,,TRUE,3,,,,,
null,CORRECT,,html-keyboard-response,61,509925,0.0-3.2-20.2-0.2,2023,List2A,black,man,,,,null,,,,
2066,"<img src=""portrait/WM1.jpg""style=""width:400px;height:400px;""></img>",6,html-button-response,62,511995,0.0-3.2-22.2,2023,List2A,black,man,,TRUE,6,,,,,
null,CORRECT,,html-keyboard-response,63,513500,0.0-3.2-23.2-0.2,2023,List2A,black,man,,,,null,,,,
1803,<p>You got 8 out of 8 right first time. Press Continue.</p>,0,html-button-response,64,515306,0.0-3.2-25.2,2023,List2A,black,man,,,,,,,,
94578,"<p>In this experiment, you will view photographs of the people from the memory game interacting.</p><p>By using the <strong>exact</strong> phrase given <i>after</i> the photograph appears and recalling the correct names of the people in the photographs, form a sentence describing the interaction. You do not need to capitalise names.</p><p>Type your answer in the space provided. Please complete every sentence before moving onto the next trial.</p><p>You will only have a few seconds to memorise each given photograph and phrase before you can respond, so try your best to focus.</p><p>An example is given below. Press 'Continue' when you are ready.</p><img src='img/speaking_example_v2.jpg' style='width:800px;height:460px;''></img>",0,html-button-response,65,610889,0.0-4.0,2023,List2A,black,man,,,,,,,,
2210,"<p>Before the experiment starts, you will watch two example trials. Press 'Continue'.</p>",0,html-button-response,66,614107,0.0-5.0,2023,List2A,black,man,,,,,,,,
null,<img src='img/speaking_WW.gif'></img>,,html-keyboard-response,67,617113,0.0-6.0,2023,List2A,black,man,,,,null,,,,
null,<p>is speaking to</p>,,html-keyboard-response,68,619116,0.0-7.0,2023,List2A,black,man,,,,null,,,,
6802,<p><b>Answer:</b> jane is speaking to ruth</p>,0,html-button-response,69,625921,0.0-8.0,2023,List2A,black,man,,,,,,,,
null,<img src='img/pointing_BM.gif'></img>,,html-keyboard-response,70,628926,0.0-9.0,2023,List2A,black,man,,,,null,,,,
null,<p>are pointing at each other</p>,,html-keyboard-response,71,630929,0.0-10.0,2023,List2A,black,man,,,,null,,,,
4777,<p><b>Answer:</b> fred and mike are pointing at each other</p>,0,html-button-response,72,635709,0.0-11.0,2023,List2A,black,man,,,,,,,,
4774,"<p>Ready to start the experiment?</p><br><p><strong>Remember to describe the picture using a full sentence,</strong></p><p><strong>that combines the names of the people with the given phrase.</strong></p><p><strong>If you do not do this correctly you will not be paid.</strong></p><p><strong> You do not need to capitalise names or use punctuation.</strong></p><br><p>Press 'Continue' to begin.</p>",0,html-button-response,73,641486,0.0-12.0,2023,List2A,black,man,,,,,,,,
null,"<div style=""font-size:60px;"">+</div>",,html-keyboard-response,74,642990,0.0-13.0-0.0,2023,List2A,black,man,,,,null,,,,
null,"<img src=""stim_listA/meet7.gif""</stim_listA>",,html-keyboard-response,75,644995,0.0-13.0-1.0,2023,List2A,black,man,,,,null,,,,
null,is meeting,,html-keyboard-response,76,646999,0.0-13.0-2.0,2023,List2A,black,man,,,,null,,,,
38817,,,survey-text,77,685821,0.0-13.0-3.0,2023,List2A,black,man,,,,,"{""Q0"":""Jane is talking to Kate""}","<img src=""stim_listA/meet7.gif""</stim_listA>",is meeting,
null,"<div style=""font-size:60px;"">+</div>",,html-keyboard-response,78,686326,0.0-13.0-0.1,2023,List2A,black,man,,,,null,,,,
null,"<img src=""stim_listA/dance5.gif""</stim_listA>",,html-keyboard-response,79,688331,0.0-13.0-1.1,2023,List2A,black,man,,,,null,,,,
null,is dancing with,,html-keyboard-response,80,690334,0.0-13.0-2.1,2023,List2A,black,man,,,,null,,,,
20928,,,survey-text,81,711265,0.0-13.0-3.1,2023,List2A,black,man,,,,,"{""Q0"":""Mike is dancing with Luke ""}","<img src=""stim_listA/dance5.gif""</stim_listA>",is dancing with,
null,"<div style=""font-size:60px;"">+</div>",,html-keyboard-response,82,711769,0.0-13.0-0.2,2023,List2A,black,man,,,,null,,,,
null,"<img src=""stim_listA/meet3.gif""</stim_listA>",,html-keyboard-response,83,713774,0.0-13.0-1.2,2023,List2A,black,man,,,,null,,,,
null,is meeting,,html-keyboard-response,84,715778,0.0-13.0-2.2,2023,List2A,black,man,,,,null,,,,
21373,,,survey-text,85,737158,0.0-13.0-3.2,2023,List2A,black,man,,,,,"{""Q0"":""Mike is talking to Beth""}","<img src=""stim_listA/meet3.gif""</stim_listA>",is meeting,
null,"<div style=""font-size:60px;"">+</div>",,html-keyboard-response,86,737663,0.0-13.0-0.3,2023,List2A,black,man,,,,null,,,,
null,"<img src=""stim_listA/touch3.gif""</stim_listA>",,html-keyboard-response,87,739668,0.0-13.0-1.3,2023,List2A,black,man,,,,null,,,,
null,is touching,,html-keyboard-response,88,741671,0.0-13.0-2.3,2023,List2A,black,man,,,,null,,,,
17239,,,survey-text,89,758918,0.0-13.0-3.3,2023,List2A,black,man,,,,,"{""Q0"":""Mike is touching Beth ""}","<img src=""stim_listA/touch3.gif""</stim_listA>",is touching,
null,"<div style=""font-size:60px;"">+</div>",,html-keyboard-response,90,759423,0.0-13.0-0.4,2023,List2A,black,man,,,,null,,,,
null,"<img src=""stim_listA/talk1.gif""</stim_listA>",,html-keyboard-response,91,761428,0.0-13.0-1.4,2023,List2A,black,man,,,,null,,,,
null,is talking to,,html-keyboard-response,92,763432,0.0-13.0-2.4,2023,List2A,black,man,,,,null,,,,
16422,,,survey-text,93,779858,0.0-13.0-3.4,2023,List2A,black,man,,,,,"{""Q0"":""Luke is talking to Jane ""}","<img src=""stim_listA/talk1.gif""</stim_listA>",is talking to,
null,"<div style=""font-size:60px;"">+</div>",,html-keyboard-response,94,780361,0.0-13.0-0.5,2023,List2A,black,man,,,,null,,,,
null,"<img src=""stim_listA/marry4.gif""</stim_listA>",,html-keyboard-response,95,782366,0.0-13.0-1.5,2023,List2A,black,man,,,,null,,,,
null,are marrying each other,,html-keyboard-response,96,784370,0.0-13.0-2.5,2023,List2A,black,man,,,,null,,,,
23383,,,survey-text,97,807762,0.0-13.0-3.5,2023,List2A,black,man,,,,,"{""Q0"":""Beth is talking to Dave ""}","<img src=""stim_listA/marry4.gif""</stim_listA>",are marrying each other,
null,"<div style=""font-size:60px;"">+</div>",,html-keyboard-response,98,808265,0.0-13.0-0.6,2023,List2A,black,man,,,,null,,,,
null,"<img src=""stim_listA/kiss2.gif""</stim_listA>",,html-keyboard-response,99,810270,0.0-13.0-1.6,2023,List2A,black,man,,,,null,,,,
null,are kissing each other,,html-keyboard-response,100,812274,0.0-13.0-2.6,2023,List2A,black,man,,,,null,,,,
25873,,,survey-text,101,838151,0.0-13.0-3.6,2023,List2A,black,man,,,,,"{""Q0"":""Jane is talking to Luke ""}","<img src=""stim_listA/kiss2.gif""</stim_listA>",are kissing each other,
null,"<div style=""font-size:60px;"">+</div>",,html-keyboard-response,102,838656,0.0-13.0-0.7,2023,List2A,black,man,,,,null,,,,
null,"<img src=""stim_listA/argue6.gif""</stim_listA>",,html-keyboard-response,103,840660,0.0-13.0-1.7,2023,List2A,black,man,,,,null,,,,
null,are arguing with each other,,html-keyboard-response,104,842664,0.0-13.0-2.7,2023,List2A,black,man,,,,null,,,,
17911,,,survey-text,105,860578,0.0-13.0-3.7,2023,List2A,black,man,,,,,"{""Q0"":""Mike is talking to Luke""}","<img src=""stim_listA/argue6.gif""</stim_listA>",are arguing with each other,
null,"<div style=""font-size:60px;"">+</div>",,html-keyboard-response,106,861081,0.0-13.0-0.8,2023,List2A,black,man,,,,null,,,,
null,"<img src=""stim_listA/marry7.gif""</stim_listA>",,html-keyboard-response,107,863086,0.0-13.0-1.8,2023,List2A,black,man,,,,null,,,,
null,is marrying,,html-keyboard-response,108,865089,0.0-13.0-2.8,2023,List2A,black,man,,,,null,,,,
56141,,,survey-text,109,921234,0.0-13.0-3.8,2023,List2A,black,man,,,,,"{""Q0"":""Jane is marrying kate""}","<img src=""stim_listA/marry7.gif""</stim_listA>",is marrying,
null,"<div style=""font-size:60px;"">+</div>",,html-keyboard-response,110,921739,0.0-13.0-0.9,2023,List2A,black,man,,,,null,,,,
null,"<img src=""stim_listA/kiss6.gif""</stim_listA>",,html-keyboard-response,111,923744,0.0-13.0-1.9,2023,List2A,black,man,,,,null,,,,
null,are kissing each other,,html-keyboard-response,112,925748,0.0-13.0-2.9,2023,List2A,black,man,,,,null,,,,
17755,,,survey-text,113,943506,0.0-13.0-3.9,2023,List2A,black,man,,,,,"{""Q0"":""Mike and Dave are kissing each other ""}","<img src=""stim_listA/kiss6.gif""</stim_listA>",are kissing each other,
null,"<div style=""font-size:60px;"">+</div>",,html-keyboard-response,114,944009,0.0-13.0-0.10,2023,List2A,black,man,,,,null,,,,
null,"<img src=""stim_listA/fight1.gif""</stim_listA>",,html-keyboard-response,115,946014,0.0-13.0-1.10,2023,List2A,black,man,,,,null,,,,
null,is fighting,,html-keyboard-response,116,948018,0.0-13.0-2.10,2023,List2A,black,man,,,,null,,,,
21464,,,survey-text,117,969486,0.0-13.0-3.10,2023,List2A,black,man,,,,,"{""Q0"":""Jane and Dave are boxing""}","<img src=""stim_listA/fight1.gif""</stim_listA>",is fighting,
null,"<div style=""font-size:60px;"">+</div>",,html-keyboard-response,118,969990,0.0-13.0-0.11,2023,List2A,black,man,,,,null,,,,
null,"<img src=""stim_listA/argue7.gif""</stim_listA>",,html-keyboard-response,119,971995,0.0-13.0-1.11,2023,List2A,black,man,,,,null,,,,
null,is arguing with,,html-keyboard-response,120,973999,0.0-13.0-2.11,2023,List2A,black,man,,,,null,,,,
19846,,,survey-text,121,993848,0.0-13.0-3.11,2023,List2A,black,man,,,,,"{""Q0"":""Jane is arguing with Kate""}","<img src=""stim_listA/argue7.gif""</stim_listA>",is arguing with,
null,"<div style=""font-size:60px;"">+</div>",,html-keyboard-response,122,994352,0.0-13.0-0.12,2023,List2A,black,man,,,,null,,,,
null,"<img src=""stim_listA/shout1.gif""</stim_listA>",,html-keyboard-response,123,996356,0.0-13.0-1.12,2023,List2A,black,man,,,,null,,,,
null,is shouting at,,html-keyboard-response,124,998360,0.0-13.0-2.12,2023,List2A,black,man,,,,null,,,,
22345,,,survey-text,125,1020709,0.0-13.0-3.12,2023,List2A,black,man,,,,,"{""Q0"":""Beth is talking to luke""}","<img src=""stim_listA/shout1.gif""</stim_listA>",is shouting at,
null,"<div style=""font-size:60px;"">+</div>",,html-keyboard-response,126,1021214,0.0-13.0-0.13,2023,List2A,black,man,,,,null,,,,
null,"<img src=""stim_listA/talk4.gif""</stim_listA>",,html-keyboard-response,127,1023218,0.0-13.0-1.13,2023,List2A,black,man,,,,null,,,,
null,are talking to each other,,html-keyboard-response,128,1025222,0.0-13.0-2.13,2023,List2A,black,man,,,,null,,,,
13402,,,survey-text,129,1038628,0.0-13.0-3.13,2023,List2A,black,man,,,,,"{""Q0"":""Mike is talking to Dave""}","<img src=""stim_listA/talk4.gif""</stim_listA>",are talking to each other,
null,"<div style=""font-size:60px;"">+</div>",,html-keyboard-response,130,1039130,0.0-13.0-0.14,2023,List2A,black,man,,,,null,,,,
null,"<img src=""stim_listA/dance1.gif""</stim_listA>",,html-keyboard-response,131,1041135,0.0-13.0-1.14,2023,List2A,black,man,,,,null,,,,
null,is dancing with,,html-keyboard-response,132,1043139,0.0-13.0-2.14,2023,List2A,black,man,,,,null,,,,
14017,,,survey-text,133,1057158,0.0-13.0-3.14,2023,List2A,black,man,,,,,"{""Q0"":""Jane is dancing with Luke""}","<img src=""stim_listA/dance1.gif""</stim_listA>",is dancing with,
null,"<div style=""font-size:60px;"">+</div>",,html-keyboard-response,134,1057661,0.0-13.0-0.15,2023,List2A,black,man,,,,null,,,,
null,"<img src=""stim_listA/marry1.gif""</stim_listA>",,html-keyboard-response,135,1059664,0.0-13.0-1.15,2023,List2A,black,man,,,,null,,,,
null,is marrying,,html-keyboard-response,136,1061668,0.0-13.0-2.15,2023,List2A,black,man,,,,null,,,,
25068,,,survey-text,137,1086739,0.0-13.0-3.15,2023,List2A,black,man,,,,,"{""Q0"":""Luke is marrying Jane""}","<img src=""stim_listA/marry1.gif""</stim_listA>",is marrying,
null,"<div style=""font-size:60px;"">+</div>",,html-keyboard-response,138,1087243,0.0-13.0-0.16,2023,List2A,black,man,,,,null,,,,
null,"<img src=""stim_listA/hug6.gif""</stim_listA>",,html-keyboard-response,139,1089247,0.0-13.0-1.16,2023,List2A,black,man,,,,null,,,,
null,are hugging each other,,html-keyboard-response,140,1091251,0.0-13.0-2.16,2023,List2A,black,man,,,,null,,,,
15017,,,survey-text,141,1106271,0.0-13.0-3.16,2023,List2A,black,man,,,,,"{""Q0"":""Mike and Dave are hugging each other ""}","<img src=""stim_listA/hug6.gif""</stim_listA>",are hugging each other,
null,"<div style=""font-size:60px;"">+</div>",,html-keyboard-response,142,1106774,0.0-13.0-0.17,2023,List2A,black,man,,,,null,,,,
null,"<img src=""stim_listA/touch8.gif""</stim_listA>",,html-keyboard-response,143,1108779,0.0-13.0-1.17,2023,List2A,black,man,,,,null,,,,
null,are touching each other,,html-keyboard-response,144,1110783,0.0-13.0-2.17,2023,List2A,black,man,,,,null,,,,
22697,,,survey-text,145,1133485,0.0-13.0-3.17,2023,List2A,black,man,,,,,"{""Q0"":""Dave is hugging Jane""}","<img src=""stim_listA/touch8.gif""</stim_listA>",are touching each other,
null,"<div style=""font-size:60px;"">+</div>",,html-keyboard-response,146,1133989,0.0-13.0-0.18,2023,List2A,black,man,,,,null,,,,
null,"<img src=""stim_listA/touch6.gif""</stim_listA>",,html-keyboard-response,147,1135994,0.0-13.0-1.18,2023,List2A,black,man,,,,null,,,,
null,are touching each other,,html-keyboard-response,148,1137998,0.0-13.0-2.18,2023,List2A,black,man,,,,null,,,,
29033,,,survey-text,149,1167035,0.0-13.0-3.18,2023,List2A,black,man,,,,,"{""Q0"":""Luke is touching Luke""}","<img src=""stim_listA/touch6.gif""</stim_listA>",are touching each other,
null,"<div style=""font-size:60px;"">+</div>",,html-keyboard-response,150,1167540,0.0-13.0-0.19,2023,List2A,black,man,,,,null,,,,
null,"<img src=""stim_listA/fight5.gif""</stim_listA>",,html-keyboard-response,151,1169544,0.0-13.0-1.19,2023,List2A,black,man,,,,null,,,,
null,is fighting,,html-keyboard-response,152,1171548,0.0-13.0-2.19,2023,List2A,black,man,,,,null,,,,
11591,,,survey-text,153,1183142,0.0-13.0-3.19,2023,List2A,black,man,,,,,"{""Q0"":""Mike is fighting Dave""}","<img src=""stim_listA/fight5.gif""</stim_listA>",is fighting,
177225,"<img src='img/portrait_matrix_list2.JPG' style='width:900px;height:500px;''></img><p>If you have memorised all the portraits and names and are ready to start, press Continue.</p><p><strong>Please note: Your memory of these faces will be tested 4 times during this experiment.</strong></p>",0,html-button-response,154,1360376,0.0-14.0-0.0,2023,List2A,black,man,,,,,,,,
3938,"<img src=""portrait/WW2.jpg""style=""width:400px;height:400px;""></img>",3,html-button-response,155,1365322,0.0-14.0-1.0,2023,List2A,black,man,,TRUE,3,,,,,
null,CORRECT,,html-keyboard-response,156,1366827,0.0-14.0-2.0-0.0,2023,List2A,black,man,,,,null,,,,
5158,"<img src=""portrait/WM2.jpg""style=""width:400px;height:400px;""></img>",7,html-button-response,157,1371991,0.0-14.0-4.0,2023,List2A,black,man,,TRUE,7,,,,,
null,CORRECT,,html-keyboard-response,158,1373496,0.0-14.0-5.0-0.0,2023,List2A,black,man,,,,null,,,,
3675,"<img src=""portrait/BM2.jpg""style=""width:400px;height:400px;""></img>",5,html-button-response,159,1377177,0.0-14.0-7.0,2023,List2A,black,man,,TRUE,5,,,,,
null,CORRECT,,html-keyboard-response,160,1378682,0.0-14.0-8.0-0.0,2023,List2A,black,man,,,,null,,,,
9711,"<img src=""portrait/WW1.jpg""style=""width:400px;height:400px;""></img>",1,html-button-response,161,1388400,0.0-14.0-10.0,2023,List2A,black,man,,TRUE,1,,,,,
null,CORRECT,,html-keyboard-response,162,1389904,0.0-14.0-11.0-0.0,2023,List2A,black,man,,,,null,,,,
3180,"<img src=""portrait/BM1.jpg""style=""width:400px;height:400px;""></img>",4,html-button-response,163,1393091,0.0-14.0-13.0,2023,List2A,black,man,,TRUE,4,,,,,
null,CORRECT,,html-keyboard-response,164,1394596,0.0-14.0-14.0-0.0,2023,List2A,black,man,,,,null,,,,
2134,"<img src=""portrait/WM1.jpg""style=""width:400px;height:400px;""></img>",6,html-button-response,165,1396736,0.0-14.0-16.0,2023,List2A,black,man,,TRUE,6,,,,,
null,CORRECT,,html-keyboard-response,166,1398241,0.0-14.0-17.0-0.0,2023,List2A,black,man,,,,null,,,,
3624,"<img src=""portrait/BW1.jpg""style=""width:400px;height:400px;""></img>",0,html-button-response,167,1401875,0.0-14.0-19.0,2023,List2A,black,man,,TRUE,0,,,,,
null,CORRECT,,html-keyboard-response,168,1403381,0.0-14.0-20.0-0.0,2023,List2A,black,man,,,,null,,,,
1945,"<img src=""portrait/BW2.jpg""style=""width:400px;height:400px;""></img>",2,html-button-response,169,1405333,0.0-14.0-22.0,2023,List2A,black,man,,TRUE,2,,,,,
null,CORRECT,,html-keyboard-response,170,1406838,0.0-14.0-23.0-0.0,2023,List2A,black,man,,,,null,,,,
1493,<p>You got 8 out of 8 right first time. Press Continue.</p>,0,html-button-response,171,1408335,0.0-14.0-25.0,2023,List2A,black,man,,,,,,,,
null,"<div style=""font-size:60px;"">+</div>",,html-keyboard-response,172,1409841,0.0-15.0-0.0,2023,List2A,black,man,,,,null,,,,
null,"<img src=""stim_listA/kiss8.gif""</stim_listA>",,html-keyboard-response,173,1411847,0.0-15.0-1.0,2023,List2A,black,man,,,,null,,,,
null,are kissing each other,,html-keyboard-response,174,1413851,0.0-15.0-2.0,2023,List2A,black,man,,,,null,,,,
31653,,,survey-text,175,1445507,0.0-15.0-3.0,2023,List2A,black,man,,,,,"{""Q0"":""Kate and Jane are kissing each other ""}","<img src=""stim_listA/kiss8.gif""</stim_listA>",are kissing each other,
null,"<div style=""font-size:60px;"">+</div>",,html-keyboard-response,176,1446011,0.0-15.0-0.1,2023,List2A,black,man,,,,null,,,,
null,"<img src=""stim_listA/kiss3.gif""</stim_listA>",,html-keyboard-response,177,1448016,0.0-15.0-1.1,2023,List2A,black,man,,,,null,,,,
null,is kissing,,html-keyboard-response,178,1450020,0.0-15.0-2.1,2023,List2A,black,man,,,,null,,,,
18384,,,survey-text,179,1468408,0.0-15.0-3.1,2023,List2A,black,man,,,,,"{""Q0"":""Fred is kissing Kate""}","<img src=""stim_listA/kiss3.gif""</stim_listA>",is kissing,
null,"<div style=""font-size:60px;"">+</div>",,html-keyboard-response,180,1468913,0.0-15.0-0.2,2023,List2A,black,man,,,,null,,,,
null,"<img src=""stim_listA/talk8.gif""</stim_listA>",,html-keyboard-response,181,1470918,0.0-15.0-1.2,2023,List2A,black,man,,,,null,,,,
null,are talking to each other,,html-keyboard-response,182,1472922,0.0-15.0-2.2,2023,List2A,black,man,,,,null,,,,
18746,,,survey-text,183,1491677,0.0-15.0-3.2,2023,List2A,black,man,,,,,"{""Q0"":""Jane is touching Kate""}","<img src=""stim_listA/talk8.gif""</stim_listA>",are talking to each other,
null,"<div style=""font-size:60px;"">+</div>",,html-keyboard-response,184,1492181,0.0-15.0-0.3,2023,List2A,black,man,,,,null,,,,
null,"<img src=""stim_listA/marry3.gif""</stim_listA>",,html-keyboard-response,185,1494186,0.0-15.0-1.3,2023,List2A,black,man,,,,null,,,,
null,is marrying,,html-keyboard-response,186,1496190,0.0-15.0-2.3,2023,List2A,black,man,,,,null,,,,
16996,,,survey-text,187,1513189,0.0-15.0-3.3,2023,List2A,black,man,,,,,"{""Q0"":""Beth is marrying mike""}","<img src=""stim_listA/marry3.gif""</stim_listA>",is marrying,
null,"<div style=""font-size:60px;"">+</div>",,html-keyboard-response,188,1513692,0.0-15.0-0.4,2023,List2A,black,man,,,,null,,,,
null,"<img src=""stim_listA/hug2.gif""</stim_listA>",,html-keyboard-response,189,1515697,0.0-15.0-1.4,2023,List2A,black,man,,,,null,,,,
null,are hugging each other,,html-keyboard-response,190,1517701,0.0-15.0-2.4,2023,List2A,black,man,,,,null,,,,
11684,,,survey-text,191,1529389,0.0-15.0-3.4,2023,List2A,black,man,,,,,"{""Q0"":""Jane hugging Dave""}","<img src=""stim_listA/hug2.gif""</stim_listA>",are hugging each other,
null,"<div style=""font-size:60px;"">+</div>",,html-keyboard-response,192,1529892,0.0-15.0-0.5,2023,List2A,black,man,,,,null,,,,
null,"<img src=""stim_listA/dance4.gif""</stim_listA>",,html-keyboard-response,193,1531898,0.0-15.0-1.5,2023,List2A,black,man,,,,null,,,,
null,are dancing with each other,,html-keyboard-response,194,1533902,0.0-15.0-2.5,2023,List2A,black,man,,,,null,,,,
14686,,,survey-text,195,1548591,0.0-15.0-3.5,2023,List2A,black,man,,,,,"{""Q0"":""Mike is dancing with Beth ""}","<img src=""stim_listA/dance4.gif""</stim_listA>",are dancing with each other,
null,"<div style=""font-size:60px;"">+</div>",,html-keyboard-response,196,1549095,0.0-15.0-0.6,2023,List2A,black,man,,,,null,,,,
null,"<img src=""stim_listA/fight6.gif""</stim_listA>",,html-keyboard-response,197,1551100,0.0-15.0-1.6,2023,List2A,black,man,,,,null,,,,
null,are fighting each other,,html-keyboard-response,198,1553104,0.0-15.0-2.6,2023,List2A,black,man,,,,null,,,,
12250,,,survey-text,199,1565357,0.0-15.0-3.6,2023,List2A,black,man,,,,,"{""Q0"":""Fred is fighting Luke ""}","<img src=""stim_listA/fight6.gif""</stim_listA>",are fighting each other,
null,"<div style=""font-size:60px;"">+</div>",,html-keyboard-response,200,1565860,0.0-15.0-0.7,2023,List2A,black,man,,,,null,,,,
null,"<img src=""stim_listA/marry6.gif""</stim_listA>",,html-keyboard-response,201,1567865,0.0-15.0-1.7,2023,List2A,black,man,,,,null,,,,
null,are marrying each other,,html-keyboard-response,202,1569869,0.0-15.0-2.7,2023,List2A,black,man,,,,null,,,,
9141,,,survey-text,203,1579013,0.0-15.0-3.7,2023,List2A,black,man,,,,,"{""Q0"":""Mike is marrying luke ""}","<img src=""stim_listA/marry6.gif""</stim_listA>",are marrying each other,
null,"<div style=""font-size:60px;"">+</div>",,html-keyboard-response,204,1579517,0.0-15.0-0.8,2023,List2A,black,man,,,,null,,,,
null,"<img src=""stim_listA/fight2.gif""</stim_listA>",,html-keyboard-response,205,1581522,0.0-15.0-1.8,2023,List2A,black,man,,,,null,,,,
null,are fighting each other,,html-keyboard-response,206,1583526,0.0-15.0-2.8,2023,List2A,black,man,,,,null,,,,
15571,,,survey-text,207,1599101,0.0-15.0-3.8,2023,List2A,black,man,,,,,"{""Q0"":""Mike is fighting Ruth ""}","<img src=""stim_listA/fight2.gif""</stim_listA>",are fighting each other,
null,"<div style=""font-size:60px;"">+</div>",,html-keyboard-response,208,1599606,0.0-15.0-0.9,2023,List2A,black,man,,,,null,,,,
null,"<img src=""stim_listA/shout2.gif""</stim_listA>",,html-keyboard-response,209,1601610,0.0-15.0-1.9,2023,List2A,black,man,,,,null,,,,
null,are shouting at each other,,html-keyboard-response,210,1603614,0.0-15.0-2.9,2023,List2A,black,man,,,,null,,,,
16267,,,survey-text,211,1619885,0.0-15.0-3.9,2023,List2A,black,man,,,,,"{""Q0"":""Dave is shouting at Jane ""}","<img src=""stim_listA/shout2.gif""</stim_listA>",are shouting at each other,
null,"<div style=""font-size:60px;"">+</div>",,html-keyboard-response,212,1620389,0.0-15.0-0.10,2023,List2A,black,man,,,,null,,,,
null,"<img src=""stim_listA/talk5.gif""</stim_listA>",,html-keyboard-response,213,1622395,0.0-15.0-1.10,2023,List2A,black,man,,,,null,,,,
null,is talking to,,html-keyboard-response,214,1624399,0.0-15.0-2.10,2023,List2A,black,man,,,,null,,,,
8474,,,survey-text,215,1632876,0.0-15.0-3.10,2023,List2A,black,man,,,,,"{""Q0"":""Mike talking to Luke""}","<img src=""stim_listA/talk5.gif""</stim_listA>",is talking to,
null,"<div style=""font-size:60px;"">+</div>",,html-keyboard-response,216,1633379,0.0-15.0-0.11,2023,List2A,black,man,,,,null,,,,
null,"<img src=""stim_listA/argue4.gif""</stim_listA>",,html-keyboard-response,217,1635383,0.0-15.0-1.11,2023,List2A,black,man,,,,null,,,,
null,are arguing with each other,,html-keyboard-response,218,1637387,0.0-15.0-2.11,2023,List2A,black,man,,,,null,,,,
16368,,,survey-text,219,1653759,0.0-15.0-3.11,2023,List2A,black,man,,,,,"{""Q0"":""Kate is talking to fred ""}","<img src=""stim_listA/argue4.gif""</stim_listA>",are arguing with each other,
null,"<div style=""font-size:60px;"">+</div>",,html-keyboard-response,220,1654262,0.0-15.0-0.12,2023,List2A,black,man,,,,null,,,,
null,"<img src=""stim_listA/shout8.gif""</stim_listA>",,html-keyboard-response,221,1656267,0.0-15.0-1.12,2023,List2A,black,man,,,,null,,,,
null,are shouting at each other,,html-keyboard-response,222,1658271,0.0-15.0-2.12,2023,List2A,black,man,,,,null,,,,
14524,,,survey-text,223,1672798,0.0-15.0-3.12,2023,List2A,black,man,,,,,"{""Q0"":""Kate shouting at Jane ""}","<img src=""stim_listA/shout8.gif""</stim_listA>",are shouting at each other,
null,"<div style=""font-size:60px;"">+</div>",,html-keyboard-response,224,1673302,0.0-15.0-0.13,2023,List2A,black,man,,,,null,,,,
null,"<img src=""stim_listA/marry2.gif""</stim_listA>",,html-keyboard-response,225,1675307,0.0-15.0-1.13,2023,List2A,black,man,,,,null,,,,
null,are marrying each other,,html-keyboard-response,226,1677311,0.0-15.0-2.13,2023,List2A,black,man,,,,null,,,,
11530,,,survey-text,227,1688845,0.0-15.0-3.13,2023,List2A,black,man,,,,,"{""Q0"":""Jane is marrying luke ""}","<img src=""stim_listA/marry2.gif""</stim_listA>",are marrying each other,
null,"<div style=""font-size:60px;"">+</div>",,html-keyboard-response,228,1689349,0.0-15.0-0.14,2023,List2A,black,man,,,,null,,,,
null,"<img src=""stim_listA/talk2.gif""</stim_listA>",,html-keyboard-response,229,1691354,0.0-15.0-1.14,2023,List2A,black,man,,,,null,,,,
null,are talking to each other,,html-keyboard-response,230,1693358,0.0-15.0-2.14,2023,List2A,black,man,,,,null,,,,
22390,,,survey-text,231,1715751,0.0-15.0-3.14,2023,List2A,black,man,,,,,"{""Q0"":""Dave is talking to Ruth""}","<img src=""stim_listA/talk2.gif""</stim_listA>",are talking to each other,
null,"<div style=""font-size:60px;"">+</div>",,html-keyboard-response,232,1716255,0.0-15.0-0.15,2023,List2A,black,man,,,,null,,,,
null,"<img src=""stim_listA/shout7.gif""</stim_listA>",,html-keyboard-response,233,1718260,0.0-15.0-1.15,2023,List2A,black,man,,,,null,,,,
null,is shouting at,,html-keyboard-response,234,1720265,0.0-15.0-2.15,2023,List2A,black,man,,,,null,,,,
12534,,,survey-text,235,1732802,0.0-15.0-3.15,2023,List2A,black,man,,,,,"{""Q0"":""Ruth shouting at Beth ""}","<img src=""stim_listA/shout7.gif""</stim_listA>",is shouting at,
null,"<div style=""font-size:60px;"">+</div>",,html-keyboard-response,236,1733304,0.0-15.0-0.16,2023,List2A,black,man,,,,null,,,,
null,"<img src=""stim_listA/hug7.gif""</stim_listA>",,html-keyboard-response,237,1735307,0.0-15.0-1.16,2023,List2A,black,man,,,,null,,,,
null,is hugging,,html-keyboard-response,238,1737310,0.0-15.0-2.16,2023,List2A,black,man,,,,null,,,,
15141,,,survey-text,239,1752453,0.0-15.0-3.16,2023,List2A,black,man,,,,,"{""Q0"":""Beth is hugging Ruth ""}","<img src=""stim_listA/hug7.gif""</stim_listA>",is hugging,
null,"<div style=""font-size:60px;"">+</div>",,html-keyboard-response,240,1752957,0.0-15.0-0.17,2023,List2A,black,man,,,,null,,,,
null,"<img src=""stim_listA/hug8.gif""</stim_listA>",,html-keyboard-response,241,1754963,0.0-15.0-1.17,2023,List2A,black,man,,,,null,,,,
null,are hugging each other,,html-keyboard-response,242,1756967,0.0-15.0-2.17,2023,List2A,black,man,,,,null,,,,
14054,,,survey-text,243,1771025,0.0-15.0-3.17,2023,List2A,black,man,,,,,"{""Q0"":""Jane is hugging Beth""}","<img src=""stim_listA/hug8.gif""</stim_listA>",are hugging each other,
null,"<div style=""font-size:60px;"">+</div>",,html-keyboard-response,244,1771529,0.0-15.0-0.18,2023,List2A,black,man,,,,null,,,,
null,"<img src=""stim_listA/talk7.gif""</stim_listA>",,html-keyboard-response,245,1773536,0.0-15.0-1.18,2023,List2A,black,man,,,,null,,,,
null,is talking to,,html-keyboard-response,246,1775540,0.0-15.0-2.18,2023,List2A,black,man,,,,null,,,,
25239,,,survey-text,247,1800783,0.0-15.0-3.18,2023,List2A,black,man,,,,,"{""Q0"":""Kate is talking to Ruth ""}","<img src=""stim_listA/talk7.gif""</stim_listA>",is talking to,
null,"<div style=""font-size:60px;"">+</div>",,html-keyboard-response,248,1801287,0.0-15.0-0.19,2023,List2A,black,man,,,,null,,,,
null,"<img src=""stim_listA/meet1.gif""</stim_listA>",,html-keyboard-response,249,1803293,0.0-15.0-1.19,2023,List2A,black,man,,,,null,,,,
null,is meeting,,html-keyboard-response,250,1805297,0.0-15.0-2.19,2023,List2A,black,man,,,,null,,,,
10094,,,survey-text,251,1815395,0.0-15.0-3.19,2023,List2A,black,man,,,,,"{""Q0"":""Jane is meeting Dave""}","<img src=""stim_listA/meet1.gif""</stim_listA>",is meeting,
3510,"<img src='img/portrait_matrix_list2.JPG' style='width:900px;height:500px;''></img><p>If you have memorised all the portraits and names and are ready to start, press Continue.</p><p><strong>Please note: Your memory of these faces will be tested 4 times during this experiment.</strong></p>",0,html-button-response,252,1818907,0.0-16.0-0.0,2023,List2A,black,man,,,,,,,,
4961,"<img src=""portrait/BW2.jpg""style=""width:400px;height:400px;""></img>",2,html-button-response,253,1824875,0.0-16.0-1.0,2023,List2A,black,man,,TRUE,2,,,,,
null,CORRECT,,html-keyboard-response,254,1826388,0.0-16.0-2.0-0.0,2023,List2A,black,man,,,,null,,,,
1617,"<img src=""portrait/BW1.jpg""style=""width:400px;height:400px;""></img>",0,html-button-response,255,1828012,0.0-16.0-4.0,2023,List2A,black,man,,TRUE,0,,,,,
null,CORRECT,,html-keyboard-response,256,1829516,0.0-16.0-5.0-0.0,2023,List2A,black,man,,,,null,,,,
3157,"<img src=""portrait/WM2.jpg""style=""width:400px;height:400px;""></img>",7,html-button-response,257,1832680,0.0-16.0-7.0,2023,List2A,black,man,,TRUE,7,,,,,
null,CORRECT,,html-keyboard-response,258,1834185,0.0-16.0-8.0-0.0,2023,List2A,black,man,,,,null,,,,
4667,"<img src=""portrait/BM1.jpg""style=""width:400px;height:400px;""></img>",4,html-button-response,259,1838858,0.0-16.0-10.0,2023,List2A,black,man,,TRUE,4,,,,,
null,CORRECT,,html-keyboard-response,260,1840363,0.0-16.0-11.0-0.0,2023,List2A,black,man,,,,null,,,,
1520,"<img src=""portrait/BM2.jpg""style=""width:400px;height:400px;""></img>",5,html-button-response,261,1841890,0.0-16.0-13.0,2023,List2A,black,man,,TRUE,5,,,,,
null,CORRECT,,html-keyboard-response,262,1843394,0.0-16.0-14.0-0.0,2023,List2A,black,man,,,,null,,,,
1951,"<img src=""portrait/WW2.jpg""style=""width:400px;height:400px;""></img>",3,html-button-response,263,1845353,0.0-16.0-16.0,2023,List2A,black,man,,TRUE,3,,,,,
null,CORRECT,,html-keyboard-response,264,1846857,0.0-16.0-17.0-0.0,2023,List2A,black,man,,,,null,,,,
2024,"<img src=""portrait/WM1.jpg""style=""width:400px;height:400px;""></img>",6,html-button-response,265,1848888,0.0-16.0-19.0,2023,List2A,black,man,,TRUE,6,,,,,
null,CORRECT,,html-keyboard-response,266,1850392,0.0-16.0-20.0-0.0,2023,List2A,black,man,,,,null,,,,
3849,"<img src=""portrait/WW1.jpg""style=""width:400px;height:400px;""></img>",1,html-button-response,267,1854248,0.0-16.0-22.0,2023,List2A,black,man,,TRUE,1,,,,,
null,CORRECT,,html-keyboard-response,268,1855753,0.0-16.0-23.0-0.0,2023,List2A,black,man,,,,null,,,,
1452,<p>You got 8 out of 8 right first time. Press Continue.</p>,0,html-button-response,269,1857208,0.0-16.0-25.0,2023,List2A,black,man,,,,,,,,
null,"<div style=""font-size:60px;"">+</div>",,html-keyboard-response,270,1858715,0.0-17.0-0.0,2023,List2A,black,man,,,,null,,,,
null,"<img src=""stim_listA/fight4.gif""</stim_listA>",,html-keyboard-response,271,1860719,0.0-17.0-1.0,2023,List2A,black,man,,,,null,,,,
null,are fighting each other,,html-keyboard-response,272,1862724,0.0-17.0-2.0,2023,List2A,black,man,,,,null,,,,
16498,,,survey-text,273,1879226,0.0-17.0-3.0,2023,List2A,black,man,,,,,"{""Q0"":""Beth is fighting Fred""}","<img src=""stim_listA/fight4.gif""</stim_listA>",are fighting each other,
null,"<div style=""font-size:60px;"">+</div>",,html-keyboard-response,274,1879731,0.0-17.0-0.1,2023,List2A,black,man,,,,null,,,,
null,"<img src=""stim_listA/shout5.gif""</stim_listA>",,html-keyboard-response,275,1881736,0.0-17.0-1.1,2023,List2A,black,man,,,,null,,,,
null,is shouting at,,html-keyboard-response,276,1883739,0.0-17.0-2.1,2023,List2A,black,man,,,,null,,,,
11928,,,survey-text,277,1895672,0.0-17.0-3.1,2023,List2A,black,man,,,,,"{""Q0"":""Luke shouting at Fred""}","<img src=""stim_listA/shout5.gif""</stim_listA>",is shouting at,
null,"<div style=""font-size:60px;"">+</div>",,html-keyboard-response,278,1896175,0.0-17.0-0.2,2023,List2A,black,man,,,,null,,,,
null,"<img src=""stim_listA/shout6.gif""</stim_listA>",,html-keyboard-response,279,1898180,0.0-17.0-1.2,2023,List2A,black,man,,,,null,,,,
null,are shouting at each other,,html-keyboard-response,280,1900185,0.0-17.0-2.2,2023,List2A,black,man,,,,null,,,,
11518,,,survey-text,281,1911706,0.0-17.0-3.2,2023,List2A,black,man,,,,,"{""Q0"":""Mike shouting at Dave ""}","<img src=""stim_listA/shout6.gif""</stim_listA>",are shouting at each other,
null,"<div style=""font-size:60px;"">+</div>",,html-keyboard-response,282,1912211,0.0-17.0-0.3,2023,List2A,black,man,,,,null,,,,
null,"<img src=""stim_listA/hug1.gif""</stim_listA>",,html-keyboard-response,283,1914216,0.0-17.0-1.3,2023,List2A,black,man,,,,null,,,,
null,is hugging,,html-keyboard-response,284,1916220,0.0-17.0-2.3,2023,List2A,black,man,,,,null,,,,
12848,,,survey-text,285,1929072,0.0-17.0-3.3,2023,List2A,black,man,,,,,"{""Q0"":""Luke is hugging Ruth ""}","<img src=""stim_listA/hug1.gif""</stim_listA>",is hugging,
null,"<div style=""font-size:60px;"">+</div>",,html-keyboard-response,286,1929575,0.0-17.0-0.4,2023,List2A,black,man,,,,null,,,,
null,"<img src=""stim_listA/argue2.gif""</stim_listA>",,html-keyboard-response,287,1931579,0.0-17.0-1.4,2023,List2A,black,man,,,,null,,,,
null,are arguing with each other,,html-keyboard-response,288,1933583,0.0-17.0-2.4,2023,List2A,black,man,,,,null,,,,
17972,,,survey-text,289,1951558,0.0-17.0-3.4,2023,List2A,black,man,,,,,"{""Q0"":""Luke arguing with Jane""}","<img src=""stim_listA/argue2.gif""</stim_listA>",are arguing with each other,
null,"<div style=""font-size:60px;"">+</div>",,html-keyboard-response,290,1952062,0.0-17.0-0.5,2023,List2A,black,man,,,,null,,,,
null,"<img src=""stim_listA/meet6.gif""</stim_listA>",,html-keyboard-response,291,1954068,0.0-17.0-1.5,2023,List2A,black,man,,,,null,,,,
null,are meeting each other,,html-keyboard-response,292,1956072,0.0-17.0-2.5,2023,List2A,black,man,,,,null,,,,
18878,,,survey-text,293,1974953,0.0-17.0-3.5,2023,List2A,black,man,,,,,"{""Q0"":""Luke meeting Fred ""}","<img src=""stim_listA/meet6.gif""</stim_listA>",are meeting each other,
null,"<div style=""font-size:60px;"">+</div>",,html-keyboard-response,294,1975460,0.0-17.0-0.6,2023,List2A,black,man,,,,null,,,,
null,"<img src=""stim_listA/argue5.gif""</stim_listA>",,html-keyboard-response,295,1977466,0.0-17.0-1.6,2023,List2A,black,man,,,,null,,,,
null,is arguing with,,html-keyboard-response,296,1979470,0.0-17.0-2.6,2023,List2A,black,man,,,,null,,,,
30002,,,survey-text,297,2009476,0.0-17.0-3.6,2023,List2A,black,man,,,,,"{""Q0"":""Fred arguing with Dave ""}","<img src=""stim_listA/argue5.gif""</stim_listA>",is arguing with,
null,"<div style=""font-size:60px;"">+</div>",,html-keyboard-response,298,2009980,0.0-17.0-0.7,2023,List2A,black,man,,,,null,,,,
null,"<img src=""stim_listA/meet8.gif""</stim_listA>",,html-keyboard-response,299,2011985,0.0-17.0-1.7,2023,List2A,black,man,,,,null,,,,
null,are meeting each other,,html-keyboard-response,300,2013989,0.0-17.0-2.7,2023,List2A,black,man,,,,null,,,,
11318,,,survey-text,301,2025312,0.0-17.0-3.7,2023,List2A,black,man,,,,,"{""Q0"":""Ruth meeting Beth ""}","<img src=""stim_listA/meet8.gif""</stim_listA>",are meeting each other,
null,"<div style=""font-size:60px;"">+</div>",,html-keyboard-response,302,2025816,0.0-17.0-0.8,2023,List2A,black,man,,,,null,,,,
null,"<img src=""stim_listA/touch4.gif""</stim_listA>",,html-keyboard-response,303,2027821,0.0-17.0-1.8,2023,List2A,black,man,,,,null,,,,
null,are touching each other,,html-keyboard-response,304,2029825,0.0-17.0-2.8,2023,List2A,black,man,,,,null,,,,
15394,,,survey-text,305,2045223,0.0-17.0-3.8,2023,List2A,black,man,,,,,"{""Q0"":""Beth touching Fred ""}","<img src=""stim_listA/touch4.gif""</stim_listA>",are touching each other,
null,"<div style=""font-size:60px;"">+</div>",,html-keyboard-response,306,2045726,0.0-17.0-0.9,2023,List2A,black,man,,,,null,,,,
null,"<img src=""stim_listA/dance2.gif""</stim_listA>",,html-keyboard-response,307,2047731,0.0-17.0-1.9,2023,List2A,black,man,,,,null,,,,
null,are dancing with each other,,html-keyboard-response,308,2049735,0.0-17.0-2.9,2023,List2A,black,man,,,,null,,,,
16827,,,survey-text,309,2066566,0.0-17.0-3.9,2023,List2A,black,man,,,,,"{""Q0"":""Ruth dancing with Dave""}","<img src=""stim_listA/dance2.gif""</stim_listA>",are dancing with each other,
null,"<div style=""font-size:60px;"">+</div>",,html-keyboard-response,310,2067070,0.0-17.0-0.10,2023,List2A,black,man,,,,null,,,,
null,"<img src=""stim_listA/dance7.gif""</stim_listA>",,html-keyboard-response,311,2069075,0.0-17.0-1.10,2023,List2A,black,man,,,,null,,,,
null,is dancing with,,html-keyboard-response,312,2071080,0.0-17.0-2.10,2023,List2A,black,man,,,,null,,,,
14960,,,survey-text,313,2086047,0.0-17.0-3.10,2023,List2A,black,man,,,,,"{""Q0"":""Kate dancing with Ruth ""}","<img src=""stim_listA/dance7.gif""</stim_listA>",is dancing with,
null,"<div style=""font-size:60px;"">+</div>",,html-keyboard-response,314,2086552,0.0-17.0-0.11,2023,List2A,black,man,,,,null,,,,
null,"<img src=""stim_listA/kiss5.gif""</stim_listA>",,html-keyboard-response,315,2088558,0.0-17.0-1.11,2023,List2A,black,man,,,,null,,,,
null,is kissing,,html-keyboard-response,316,2090562,0.0-17.0-2.11,2023,List2A,black,man,,,,null,,,,
14220,,,survey-text,317,2104785,0.0-17.0-3.11,2023,List2A,black,man,,,,,"{""Q0"":""Fred kissing Luke ""}","<img src=""stim_listA/kiss5.gif""</stim_listA>",is kissing,
null,"<div style=""font-size:60px;"">+</div>",,html-keyboard-response,318,2105288,0.0-17.0-0.12,2023,List2A,black,man,,,,null,,,,
null,"<img src=""stim_listA/kiss4.gif""</stim_listA>",,html-keyboard-response,319,2107293,0.0-17.0-1.12,2023,List2A,black,man,,,,null,,,,
null,are kissing each other,,html-keyboard-response,320,2109297,0.0-17.0-2.12,2023,List2A,black,man,,,,null,,,,
12892,,,survey-text,321,2122192,0.0-17.0-3.12,2023,List2A,black,man,,,,,"{""Q0"":""Mike kissing Kate ""}","<img src=""stim_listA/kiss4.gif""</stim_listA>",are kissing each other,
null,"<div style=""font-size:60px;"">+</div>",,html-keyboard-response,322,2122696,0.0-17.0-0.13,2023,List2A,black,man,,,,null,,,,
null,"<img src=""stim_listA/kiss7.gif""</stim_listA>",,html-keyboard-response,323,2124701,0.0-17.0-1.13,2023,List2A,black,man,,,,null,,,,
null,is kissing,,html-keyboard-response,324,2126705,0.0-17.0-2.13,2023,List2A,black,man,,,,null,,,,
9712,,,survey-text,325,2136428,0.0-17.0-3.13,2023,List2A,black,man,,,,,"{""Q0"":""Beth kissing Ruth ""}","<img src=""stim_listA/kiss7.gif""</stim_listA>",is kissing,
null,"<div style=""font-size:60px;"">+</div>",,html-keyboard-response,326,2136931,0.0-17.0-0.14,2023,List2A,black,man,,,,null,,,,
null,"<img src=""stim_listA/meet4.gif""</stim_listA>",,html-keyboard-response,327,2138936,0.0-17.0-1.14,2023,List2A,black,man,,,,null,,,,
null,are meeting each other,,html-keyboard-response,328,2140940,0.0-17.0-2.14,2023,List2A,black,man,,,,null,,,,
10691,,,survey-text,329,2151635,0.0-17.0-3.14,2023,List2A,black,man,,,,,"{""Q0"":""Fred meeting Beth ""}","<img src=""stim_listA/meet4.gif""</stim_listA>",are meeting each other,
null,"<div style=""font-size:60px;"">+</div>",,html-keyboard-response,330,2152139,0.0-17.0-0.15,2023,List2A,black,man,,,,null,,,,
null,"<img src=""stim_listA/shout3.gif""</stim_listA>",,html-keyboard-response,331,2154144,0.0-17.0-1.15,2023,List2A,black,man,,,,null,,,,
null,is shouting at,,html-keyboard-response,332,2156148,0.0-17.0-2.15,2023,List2A,black,man,,,,null,,,,
12040,,,survey-text,333,2168191,0.0-17.0-3.15,2023,List2A,black,man,,,,,"{""Q0"":""Beth shouting at Fred ""}","<img src=""stim_listA/shout3.gif""</stim_listA>",is shouting at,
null,"<div style=""font-size:60px;"">+</div>",,html-keyboard-response,334,2168695,0.0-17.0-0.16,2023,List2A,black,man,,,,null,,,,
null,"<img src=""stim_listA/fight7.gif""</stim_listA>",,html-keyboard-response,335,2170701,0.0-17.0-1.16,2023,List2A,black,man,,,,null,,,,
null,is fighting,,html-keyboard-response,336,2172705,0.0-17.0-2.16,2023,List2A,black,man,,,,null,,,,
11165,,,survey-text,337,2183874,0.0-17.0-3.16,2023,List2A,black,man,,,,,"{""Q0"":""Kate fighting with Jane ""}","<img src=""stim_listA/fight7.gif""</stim_listA>",is fighting,
null,"<div style=""font-size:60px;"">+</div>",,html-keyboard-response,338,2184377,0.0-17.0-0.17,2023,List2A,black,man,,,,null,,,,
null,"<img src=""stim_listA/touch5.gif""</stim_listA>",,html-keyboard-response,339,2186381,0.0-17.0-1.17,2023,List2A,black,man,,,,null,,,,
null,is touching,,html-keyboard-response,340,2188386,0.0-17.0-2.17,2023,List2A,black,man,,,,null,,,,
10133,,,survey-text,341,2198522,0.0-17.0-3.17,2023,List2A,black,man,,,,,"{""Q0"":""Mike is touching Dave ""}","<img src=""stim_listA/touch5.gif""</stim_listA>",is touching,
null,"<div style=""font-size:60px;"">+</div>",,html-keyboard-response,342,2199026,0.0-17.0-0.18,2023,List2A,black,man,,,,null,,,,
null,"<img src=""stim_listA/meet2.gif""</stim_listA>",,html-keyboard-response,343,2201032,0.0-17.0-1.18,2023,List2A,black,man,,,,null,,,,
null,are meeting each other,,html-keyboard-response,344,2203036,0.0-17.0-2.18,2023,List2A,black,man,,,,null,,,,
21022,,,survey-text,345,2224062,0.0-17.0-3.18,2023,List2A,black,man,,,,,"{""Q0"":""Luke meeting with Ruth ""}","<img src=""stim_listA/meet2.gif""</stim_listA>",are meeting each other,
null,"<div style=""font-size:60px;"">+</div>",,html-keyboard-response,346,2224565,0.0-17.0-0.19,2023,List2A,black,man,,,,null,,,,
null,"<img src=""stim_listA/touch7.gif""</stim_listA>",,html-keyboard-response,347,2226570,0.0-17.0-1.19,2023,List2A,black,man,,,,null,,,,
null,is touching,,html-keyboard-response,348,2228574,0.0-17.0-2.19,2023,List2A,black,man,,,,null,,,,
10477,,,survey-text,349,2239055,0.0-17.0-3.19,2023,List2A,black,man,,,,,"{""Q0"":""Kate touching Jane ""}","<img src=""stim_listA/touch7.gif""</stim_listA>",is touching,
24412,"<img src='img/portrait_matrix_list2.JPG' style='width:900px;height:500px;''></img><p>If you have memorised all the portraits and names and are ready to start, press Continue.</p><p><strong>Please note: Your memory of these faces will be tested 4 times during this experiment.</strong></p>",0,html-button-response,350,2263478,0.0-18.0-0.0,2023,List2A,black,man,,,,,,,,
2870,"<img src=""portrait/WM1.jpg""style=""width:400px;height:400px;""></img>",6,html-button-response,351,2267357,0.0-18.0-1.0,2023,List2A,black,man,,TRUE,6,,,,,
null,CORRECT,,html-keyboard-response,352,2268863,0.0-18.0-2.0-0.0,2023,List2A,black,man,,,,null,,,,
5138,"<img src=""portrait/WW1.jpg""style=""width:400px;height:400px;""></img>",1,html-button-response,353,2274010,0.0-18.0-4.0,2023,List2A,black,man,,TRUE,1,,,,,
null,CORRECT,,html-keyboard-response,354,2275515,0.0-18.0-5.0-0.0,2023,List2A,black,man,,,,null,,,,
2031,"<img src=""portrait/BW1.jpg""style=""width:400px;height:400px;""></img>",0,html-button-response,355,2277553,0.0-18.0-7.0,2023,List2A,black,man,,TRUE,0,,,,,
null,CORRECT,,html-keyboard-response,356,2279058,0.0-18.0-8.0-0.0,2023,List2A,black,man,,,,null,,,,
2278,"<img src=""portrait/WM2.jpg""style=""width:400px;height:400px;""></img>",7,html-button-response,357,2281344,0.0-18.0-10.0,2023,List2A,black,man,,TRUE,7,,,,,
null,CORRECT,,html-keyboard-response,358,2282848,0.0-18.0-11.0-0.0,2023,List2A,black,man,,,,null,,,,
1809,"<img src=""portrait/BM2.jpg""style=""width:400px;height:400px;""></img>",5,html-button-response,359,2284665,0.0-18.0-13.0,2023,List2A,black,man,,TRUE,5,,,,,
null,CORRECT,,html-keyboard-response,360,2286169,0.0-18.0-14.0-0.0,2023,List2A,black,man,,,,null,,,,
2165,"<img src=""portrait/BW2.jpg""style=""width:400px;height:400px;""></img>",2,html-button-response,361,2288342,0.0-18.0-16.0,2023,List2A,black,man,,TRUE,2,,,,,
null,CORRECT,,html-keyboard-response,362,2289847,0.0-18.0-17.0-0.0,2023,List2A,black,man,,,,null,,,,
1614,"<img src=""portrait/WW2.jpg""style=""width:400px;height:400px;""></img>",3,html-button-response,363,2291467,0.0-18.0-19.0,2023,List2A,black,man,,TRUE,3,,,,,
null,CORRECT,,html-keyboard-response,364,2292972,0.0-18.0-20.0-0.0,2023,List2A,black,man,,,,null,,,,
2159,"<img src=""portrait/BM1.jpg""style=""width:400px;height:400px;""></img>",4,html-button-response,365,2295138,0.0-18.0-22.0,2023,List2A,black,man,,TRUE,4,,,,,
null,CORRECT,,html-keyboard-response,366,2296642,0.0-18.0-23.0-0.0,2023,List2A,black,man,,,,null,,,,
1543,<p>You got 8 out of 8 right first time. Press Continue.</p>,0,html-button-response,367,2298189,0.0-18.0-25.0,2023,List2A,black,man,,,,,,,,
null,"<div style=""font-size:60px;"">+</div>",,html-keyboard-response,368,2299701,0.0-19.0-0.0,2023,List2A,black,man,,,,null,,,,
null,"<img src=""stim_listA/argue3.gif""</stim_listA>",,html-keyboard-response,369,2301707,0.0-19.0-1.0,2023,List2A,black,man,,,,null,,,,
null,is arguing with,,html-keyboard-response,370,2303711,0.0-19.0-2.0,2023,List2A,black,man,,,,null,,,,
17995,,,survey-text,371,2321709,0.0-19.0-3.0,2023,List2A,black,man,,,,,"{""Q0"":""Mike is arguing with Beth ""}","<img src=""stim_listA/argue3.gif""</stim_listA>",is arguing with,
null,"<div style=""font-size:60px;"">+</div>",,html-keyboard-response,372,2322213,0.0-19.0-0.1,2023,List2A,black,man,,,,null,,,,
null,"<img src=""stim_listA/kiss1.gif""</stim_listA>",,html-keyboard-response,373,2324218,0.0-19.0-1.1,2023,List2A,black,man,,,,null,,,,
null,is kissing,,html-keyboard-response,374,2326222,0.0-19.0-2.1,2023,List2A,black,man,,,,null,,,,
24563,,,survey-text,375,2350788,0.0-19.0-3.1,2023,List2A,black,man,,,,,"{""Q0"":""Luke is kissing Ruth ""}","<img src=""stim_listA/kiss1.gif""</stim_listA>",is kissing,
null,"<div style=""font-size:60px;"">+</div>",,html-keyboard-response,376,2351292,0.0-19.0-0.2,2023,List2A,black,man,,,,null,,,,
null,"<img src=""stim_listA/fight3.gif""</stim_listA>",,html-keyboard-response,377,2353297,0.0-19.0-1.2,2023,List2A,black,man,,,,null,,,,
null,is fighting,,html-keyboard-response,378,2355301,0.0-19.0-2.2,2023,List2A,black,man,,,,null,,,,
20883,,,survey-text,379,2376192,0.0-19.0-3.2,2023,List2A,black,man,,,,,"{""Q0"":""Mike is fighting with Kate ""}","<img src=""stim_listA/fight3.gif""</stim_listA>",is fighting,
null,"<div style=""font-size:60px;"">+</div>",,html-keyboard-response,380,2376696,0.0-19.0-0.3,2023,List2A,black,man,,,,null,,,,
null,"<img src=""stim_listA/meet5.gif""</stim_listA>",,html-keyboard-response,381,2378701,0.0-19.0-1.3,2023,List2A,black,man,,,,null,,,,
null,is meeting,,html-keyboard-response,382,2380705,0.0-19.0-2.3,2023,List2A,black,man,,,,null,,,,
13146,,,survey-text,383,2393855,0.0-19.0-3.3,2023,List2A,black,man,,,,,"{""Q0"":""Dave is meeting Mike ""}","<img src=""stim_listA/meet5.gif""</stim_listA>",is meeting,
null,"<div style=""font-size:60px;"">+</div>",,html-keyboard-response,384,2394359,0.0-19.0-0.4,2023,List2A,black,man,,,,null,,,,
null,"<img src=""stim_listA/argue8.gif""</stim_listA>",,html-keyboard-response,385,2396364,0.0-19.0-1.4,2023,List2A,black,man,,,,null,,,,
null,are arguing with each other,,html-keyboard-response,386,2398367,0.0-19.0-2.4,2023,List2A,black,man,,,,null,,,,
14883,,,survey-text,387,2413254,0.0-19.0-3.4,2023,List2A,black,man,,,,,"{""Q0"":""Ruth arguing with Kate ""}","<img src=""stim_listA/argue8.gif""</stim_listA>",are arguing with each other,
null,"<div style=""font-size:60px;"">+</div>",,html-keyboard-response,388,2413757,0.0-19.0-0.5,2023,List2A,black,man,,,,null,,,,
null,"<img src=""stim_listA/fight8.gif""</stim_listA>",,html-keyboard-response,389,2415762,0.0-19.0-1.5,2023,List2A,black,man,,,,null,,,,
null,are fighting each other,,html-keyboard-response,390,2417766,0.0-19.0-2.5,2023,List2A,black,man,,,,null,,,,
19006,,,survey-text,391,2436776,0.0-19.0-3.5,2023,List2A,black,man,,,,,"{""Q0"":""Beth is fighting Ruth""}","<img src=""stim_listA/fight8.gif""</stim_listA>",are fighting each other,
null,"<div style=""font-size:60px;"">+</div>",,html-keyboard-response,392,2437281,0.0-19.0-0.6,2023,List2A,black,man,,,,null,,,,
null,"<img src=""stim_listA/dance3.gif""</stim_listA>",,html-keyboard-response,393,2439286,0.0-19.0-1.6,2023,List2A,black,man,,,,null,,,,
null,is dancing with,,html-keyboard-response,394,2441290,0.0-19.0-2.6,2023,List2A,black,man,,,,null,,,,
12140,,,survey-text,395,2453434,0.0-19.0-3.6,2023,List2A,black,man,,,,,"{""Q0"":""Fred is dancing with Kate""}","<img src=""stim_listA/dance3.gif""</stim_listA>",is dancing with,
null,"<div style=""font-size:60px;"">+</div>",,html-keyboard-response,396,2453938,0.0-19.0-0.7,2023,List2A,black,man,,,,null,,,,
null,"<img src=""stim_listA/touch2.gif""</stim_listA>",,html-keyboard-response,397,2455943,0.0-19.0-1.7,2023,List2A,black,man,,,,null,,,,
null,are touching each other,,html-keyboard-response,398,2457947,0.0-19.0-2.7,2023,List2A,black,man,,,,null,,,,
16677,,,survey-text,399,2474628,0.0-19.0-3.7,2023,List2A,black,man,,,,,"{""Q0"":""Luke is touching Ruth ""}","<img src=""stim_listA/touch2.gif""</stim_listA>",are touching each other,
null,"<div style=""font-size:60px;"">+</div>",,html-keyboard-response,400,2475133,0.0-19.0-0.8,2023,List2A,black,man,,,,null,,,,
null,"<img src=""stim_listA/marry5.gif""</stim_listA>",,html-keyboard-response,401,2477138,0.0-19.0-1.8,2023,List2A,black,man,,,,null,,,,
null,is marrying,,html-keyboard-response,402,2479142,0.0-19.0-2.8,2023,List2A,black,man,,,,null,,,,
9339,,,survey-text,403,2488485,0.0-19.0-3.8,2023,List2A,black,man,,,,,"{""Q0"":""Dave is marrying Fred ""}","<img src=""stim_listA/marry5.gif""</stim_listA>",is marrying,
null,"<div style=""font-size:60px;"">+</div>",,html-keyboard-response,404,2488989,0.0-19.0-0.9,2023,List2A,black,man,,,,null,,,,
null,"<img src=""stim_listA/dance8.gif""</stim_listA>",,html-keyboard-response,405,2490993,0.0-19.0-1.9,2023,List2A,black,man,,,,null,,,,
null,are dancing with each other,,html-keyboard-response,406,2492997,0.0-19.0-2.9,2023,List2A,black,man,,,,null,,,,
14927,,,survey-text,407,2507927,0.0-19.0-3.9,2023,List2A,black,man,,,,,"{""Q0"":""Beth and Jane are dancing ""}","<img src=""stim_listA/dance8.gif""</stim_listA>",are dancing with each other,
null,"<div style=""font-size:60px;"">+</div>",,html-keyboard-response,408,2508432,0.0-19.0-0.10,2023,List2A,black,man,,,,null,,,,
null,"<img src=""stim_listA/hug5.gif""</stim_listA>",,html-keyboard-response,409,2510436,0.0-19.0-1.10,2023,List2A,black,man,,,,null,,,,
null,is hugging,,html-keyboard-response,410,2512441,0.0-19.0-2.10,2023,List2A,black,man,,,,null,,,,
13918,,,survey-text,411,2526362,0.0-19.0-3.10,2023,List2A,black,man,,,,,"{""Q0"":""Luke is hugging Fred""}","<img src=""stim_listA/hug5.gif""</stim_listA>",is hugging,
null,"<div style=""font-size:60px;"">+</div>",,html-keyboard-response,412,2526865,0.0-19.0-0.11,2023,List2A,black,man,,,,null,,,,
null,"<img src=""stim_listA/talk3.gif""</stim_listA>",,html-keyboard-response,413,2528870,0.0-19.0-1.11,2023,List2A,black,man,,,,null,,,,
null,is talking to,,html-keyboard-response,414,2530874,0.0-19.0-2.11,2023,List2A,black,man,,,,null,,,,
9516,,,survey-text,415,2540394,0.0-19.0-3.11,2023,List2A,black,man,,,,,"{""Q0"":""Kate is talking to Fred ""}","<img src=""stim_listA/talk3.gif""</stim_listA>",is talking to,
null,"<div style=""font-size:60px;"">+</div>",,html-keyboard-response,416,2540900,0.0-19.0-0.12,2023,List2A,black,man,,,,null,,,,
null,"<img src=""stim_listA/talk6.gif""</stim_listA>",,html-keyboard-response,417,2542905,0.0-19.0-1.12,2023,List2A,black,man,,,,null,,,,
null,are talking to each other,,html-keyboard-response,418,2544909,0.0-19.0-2.12,2023,List2A,black,man,,,,null,,,,
19293,,,survey-text,419,2564213,0.0-19.0-3.12,2023,List2A,black,man,,,,,"{""Q0"":""Dave is talking to Fred ""}","<img src=""stim_listA/talk6.gif""</stim_listA>",are talking to each other,
null,"<div style=""font-size:60px;"">+</div>",,html-keyboard-response,420,2564718,0.0-19.0-0.13,2023,List2A,black,man,,,,null,,,,
null,"<img src=""stim_listA/hug4.gif""</stim_listA>",,html-keyboard-response,421,2566723,0.0-19.0-1.13,2023,List2A,black,man,,,,null,,,,
null,are hugging each other,,html-keyboard-response,422,2568728,0.0-19.0-2.13,2023,List2A,black,man,,,,null,,,,
21079,,,survey-text,423,2589810,0.0-19.0-3.13,2023,List2A,black,man,,,,,"{""Q0"":""Mike and Kate are hugging each other""}","<img src=""stim_listA/hug4.gif""</stim_listA>",are hugging each other,
null,"<div style=""font-size:60px;"">+</div>",,html-keyboard-response,424,2590313,0.0-19.0-0.14,2023,List2A,black,man,,,,null,,,,
null,"<img src=""stim_listA/argue1.gif""</stim_listA>",,html-keyboard-response,425,2592318,0.0-19.0-1.14,2023,List2A,black,man,,,,null,,,,
null,is arguing with,,html-keyboard-response,426,2594322,0.0-19.0-2.14,2023,List2A,black,man,,,,null,,,,
14251,,,survey-text,427,2608577,0.0-19.0-3.14,2023,List2A,black,man,,,,,"{""Q0"":""Dave is arguing with Ruth ""}","<img src=""stim_listA/argue1.gif""</stim_listA>",is arguing with,
null,"<div style=""font-size:60px;"">+</div>",,html-keyboard-response,428,2609087,0.0-19.0-0.15,2023,List2A,black,man,,,,null,,,,
null,"<img src=""stim_listA/dance6.gif""</stim_listA>",,html-keyboard-response,429,2611092,0.0-19.0-1.15,2023,List2A,black,man,,,,null,,,,
null,are dancing with each other,,html-keyboard-response,430,2613095,0.0-19.0-2.15,2023,List2A,black,man,,,,null,,,,
17164,,,survey-text,431,2630263,0.0-19.0-3.15,2023,List2A,black,man,,,,,"{""Q0"":""Fred and Dave are dancing with each other ""}","<img src=""stim_listA/dance6.gif""</stim_listA>",are dancing with each other,
null,"<div style=""font-size:60px;"">+</div>",,html-keyboard-response,432,2630766,0.0-19.0-0.16,2023,List2A,black,man,,,,null,,,,
null,"<img src=""stim_listA/touch1.gif""</stim_listA>",,html-keyboard-response,433,2632771,0.0-19.0-1.16,2023,List2A,black,man,,,,null,,,,
null,is touching,,html-keyboard-response,434,2634775,0.0-19.0-2.16,2023,List2A,black,man,,,,null,,,,
19481,,,survey-text,435,2654260,0.0-19.0-3.16,2023,List2A,black,man,,,,,"{""Q0"":""Jane is touching Dave""}","<img src=""stim_listA/touch1.gif""</stim_listA>",is touching,
null,"<div style=""font-size:60px;"">+</div>",,html-keyboard-response,436,2654764,0.0-19.0-0.17,2023,List2A,black,man,,,,null,,,,
null,"<img src=""stim_listA/shout4.gif""</stim_listA>",,html-keyboard-response,437,2656768,0.0-19.0-1.17,2023,List2A,black,man,,,,null,,,,
null,are shouting at each other,,html-keyboard-response,438,2658772,0.0-19.0-2.17,2023,List2A,black,man,,,,null,,,,
22010,,,survey-text,439,2680792,0.0-19.0-3.17,2023,List2A,black,man,,,,,"{""Q0"":""Mike is shouting at Kate ""}","<img src=""stim_listA/shout4.gif""</stim_listA>",are shouting at each other,
null,"<div style=""font-size:60px;"">+</div>",,html-keyboard-response,440,2681296,0.0-19.0-0.18,2023,List2A,black,man,,,,null,,,,
null,"<img src=""stim_listA/marry8.gif""</stim_listA>",,html-keyboard-response,441,2683302,0.0-19.0-1.18,2023,List2A,black,man,,,,null,,,,
null,are marrying each other,,html-keyboard-response,442,2685307,0.0-19.0-2.18,2023,List2A,black,man,,,,null,,,,
13205,,,survey-text,443,2698515,0.0-19.0-3.18,2023,List2A,black,man,,,,,"{""Q0"":""Kate is marrying Ruth ""}","<img src=""stim_listA/marry8.gif""</stim_listA>",are marrying each other,
null,"<div style=""font-size:60px;"">+</div>",,html-keyboard-response,444,2699018,0.0-19.0-0.19,2023,List2A,black,man,,,,null,,,,
null,"<img src=""stim_listA/hug3.gif""</stim_listA>",,html-keyboard-response,445,2701023,0.0-19.0-1.19,2023,List2A,black,man,,,,null,,,,
null,is hugging,,html-keyboard-response,446,2703026,0.0-19.0-2.19,2023,List2A,black,man,,,,null,,,,
9608,,,survey-text,447,2712638,0.0-19.0-3.19,2023,List2A,black,man,,,,,"{""Q0"":""Beth is hugging Beth ""}","<img src=""stim_listA/hug3.gif""</stim_listA>",is hugging,
4519,<p>Thank you for completing that task.</p><p>The final part of this session is a short questionnaire.</p><p>Press Continue.</p>,0,html-button-response,448,2717169,0.0-20.0,2023,List2A,black,man,,,,,,,,
46325,,,survey-text,449,2764500,0.0-21.0,2023,List2A,black,man,,,,,"{""Q0"":""28"",""Q1"":""English "",""Q2"":""English "",""Q3"":""Scotland "",""Q4"":""Black Africa "",""Q5"":""Male ""}",,,demographics
46069,,,survey-likert,450,2810582,0.0-22.0,2023,List2A,black,man,,,,,"{""Q0"":5,""Q1"":5,""Q2"":3,""Q3"":4,""Q4"":4,""Q5"":4,""Q6"":3,""Q7"":4,""Q8"":4,""Q9"":5,""Q10"":2,""Q11"":5,""Q12"":2,""Q13"":4}",,,likert_race
33336,,,survey-likert,451,2843925,0.0-23.0,2023,List2A,black,man,,,,,"{""Q0"":5,""Q1"":5,""Q2"":6,""Q3"":2,""Q4"":3,""Q5"":3,""Q6"":4,""Q7"":3,""Q8"":4,""Q9"":4,""Q10"":4,""Q11"":4,""Q12"":5,""Q13"":4}",,,likert_gender
14757,,,survey-text,452,2858687,0.0-24.0,2023,List2A,black,man,,,,,"{""Q0"":""ccc""}",,,worker_id
10005,,,external-html,453,2868780,0.0-25.0,2023,List2A,black,man,debrief.html,,,,,,,
