rt,stimulus,button_pressed,trial_type,trial_index,time_elapsed,internal_node_id,subject,list,ppt_race,ppt_gender,url,first_guess,correct,key_press,responses,image_type,phrase_type,test_part
3132,Welcome to the experiment. Press Continue to begin.,0,html-button-response,0,3164,0.0-0.0,20237,List2A,white,man,,,,,,,,
39397,,,external-html,1,43768,0.0-1.0,20237,List2A,white,man,consent.html,,,,,,,
4819,"<p>On the next page, you will see portraits of 8 people and their names.</p><p>Your first task is to take a few minutes to memorise the names of these people.</p><p>You will have to recall their names during the rest of the experiment, so it is</p><p>essential that you try to memorise these people and their names as best as you can.</p><br><p><strong>You will then be tested on your memory of these names and portraits.</strong></p><br><p>The experiment will start after you have completed this memory test.</p><br><p>Ready?</p>",0,html-button-response,2,48589,0.0-2.0,20237,List2A,white,man,,,,,,,,
45037,"<img src='img/portrait_matrix_list2.JPG' style='width:900px;height:500px;''></img><p>If you have memorised all the portraits and names and are ready to start, press Continue.</p><p><strong>Please note: Your memory of these faces will be tested 4 times during this experiment.</strong></p>",0,html-button-response,3,94629,0.0-3.0-0.0,20237,List2A,white,man,,,,,,,,
6955,"<img src=""portrait/BM1.jpg""style=""width:400px;height:400px;""></img>",4,html-button-response,4,102587,0.0-3.0-1.0,20237,List2A,white,man,,TRUE,4,,,,,
null,CORRECT,,html-keyboard-response,5,104093,0.0-3.0-2.0-0.0,20237,List2A,white,man,,,,null,,,,
7237,"<img src=""portrait/BW1.jpg""style=""width:400px;height:400px;""></img>",1,html-button-response,6,111331,0.0-3.0-4.0,20237,List2A,white,man,,TRUE,0,,,,,
2795,"<img src=""portrait/BW1.jpg""style=""width:400px;height:400px;""></img>",0,html-button-response,7,115142,0.0-3.0-6.0-0.0,20237,List2A,white,man,,FALSE,0,,,,,
null,CORRECT,,html-keyboard-response,8,116647,0.0-3.0-6.0-1.0-0.0,20237,List2A,white,man,,,,null,,,,
2300,"<img src=""portrait/BM2.jpg""style=""width:400px;height:400px;""></img>",5,html-button-response,9,118950,0.0-3.0-7.0,20237,List2A,white,man,,TRUE,5,,,,,
null,CORRECT,,html-keyboard-response,10,120453,0.0-3.0-8.0-0.0,20237,List2A,white,man,,,,null,,,,
2523,"<img src=""portrait/WM1.jpg""style=""width:400px;height:400px;""></img>",6,html-button-response,11,122978,0.0-3.0-10.0,20237,List2A,white,man,,TRUE,6,,,,,
null,CORRECT,,html-keyboard-response,12,124481,0.0-3.0-11.0-0.0,20237,List2A,white,man,,,,null,,,,
1789,"<img src=""portrait/WM2.jpg""style=""width:400px;height:400px;""></img>",7,html-button-response,13,126273,0.0-3.0-13.0,20237,List2A,white,man,,TRUE,7,,,,,
null,CORRECT,,html-keyboard-response,14,127776,0.0-3.0-14.0-0.0,20237,List2A,white,man,,,,null,,,,
3666,"<img src=""portrait/WW2.jpg""style=""width:400px;height:400px;""></img>",1,html-button-response,15,131443,0.0-3.0-16.0,20237,List2A,white,man,,TRUE,3,,,,,
2507,"<img src=""portrait/WW2.jpg""style=""width:400px;height:400px;""></img>",3,html-button-response,16,134953,0.0-3.0-18.0-0.0,20237,List2A,white,man,,FALSE,3,,,,,
null,CORRECT,,html-keyboard-response,17,136456,0.0-3.0-18.0-1.0-0.0,20237,List2A,white,man,,,,null,,,,
2405,"<img src=""portrait/WW1.jpg""style=""width:400px;height:400px;""></img>",2,html-button-response,18,138863,0.0-3.0-19.0,20237,List2A,white,man,,TRUE,1,,,,,
2121,"<img src=""portrait/WW1.jpg""style=""width:400px;height:400px;""></img>",1,html-button-response,19,141987,0.0-3.0-21.0-0.0,20237,List2A,white,man,,FALSE,1,,,,,
null,CORRECT,,html-keyboard-response,20,143490,0.0-3.0-21.0-1.0-0.0,20237,List2A,white,man,,,,null,,,,
3492,"<img src=""portrait/BW2.jpg""style=""width:400px;height:400px;""></img>",3,html-button-response,21,146985,0.0-3.0-22.0,20237,List2A,white,man,,TRUE,2,,,,,
2105,"<img src=""portrait/BW2.jpg""style=""width:400px;height:400px;""></img>",2,html-button-response,22,150092,0.0-3.0-24.0-0.0,20237,List2A,white,man,,FALSE,2,,,,,
null,CORRECT,,html-keyboard-response,23,151597,0.0-3.0-24.0-1.0-0.0,20237,List2A,white,man,,,,null,,,,
1786,<p>You got 4 out of 8 right first time. Press Continue.</p>,0,html-button-response,24,153386,0.0-3.0-25.0,20237,List2A,white,man,,,,,,,,
2414,"As you did not score 100%, the memory game will repeat. Press Continue.",0,html-button-response,25,156804,0.0-3.0-26.0-0.0,20237,List2A,white,man,,,,,,,,
15071,"<img src='img/portrait_matrix_list2.JPG' style='width:900px;height:500px;''></img><p>If you have memorised all the portraits and names and are ready to start, press Continue.</p><p><strong>Please note: Your memory of these faces will be tested 4 times during this experiment.</strong></p>",0,html-button-response,26,172878,0.0-3.1-0.1,20237,List2A,white,man,,,,,,,,
4719,"<img src=""portrait/BM1.jpg""style=""width:400px;height:400px;""></img>",4,html-button-response,27,178599,0.0-3.1-1.1,20237,List2A,white,man,,TRUE,4,,,,,
null,CORRECT,,html-keyboard-response,28,180102,0.0-3.1-2.1-0.1,20237,List2A,white,man,,,,null,,,,
2453,"<img src=""portrait/BW1.jpg""style=""width:400px;height:400px;""></img>",0,html-button-response,29,182558,0.0-3.1-4.1,20237,List2A,white,man,,TRUE,0,,,,,
null,CORRECT,,html-keyboard-response,30,184061,0.0-3.1-5.1-0.1,20237,List2A,white,man,,,,null,,,,
2406,"<img src=""portrait/BM2.jpg""style=""width:400px;height:400px;""></img>",5,html-button-response,31,186469,0.0-3.1-7.1,20237,List2A,white,man,,TRUE,5,,,,,
null,CORRECT,,html-keyboard-response,32,187972,0.0-3.1-8.1-0.1,20237,List2A,white,man,,,,null,,,,
1808,"<img src=""portrait/WM1.jpg""style=""width:400px;height:400px;""></img>",6,html-button-response,33,189782,0.0-3.1-10.1,20237,List2A,white,man,,TRUE,6,,,,,
null,CORRECT,,html-keyboard-response,34,191286,0.0-3.1-11.1-0.1,20237,List2A,white,man,,,,null,,,,
1417,"<img src=""portrait/WM2.jpg""style=""width:400px;height:400px;""></img>",7,html-button-response,35,192706,0.0-3.1-13.1,20237,List2A,white,man,,TRUE,7,,,,,
null,CORRECT,,html-keyboard-response,36,194209,0.0-3.1-14.1-0.1,20237,List2A,white,man,,,,null,,,,
7728,"<img src=""portrait/WW2.jpg""style=""width:400px;height:400px;""></img>",2,html-button-response,37,201939,0.0-3.1-16.1,20237,List2A,white,man,,TRUE,3,,,,,
1931,"<img src=""portrait/WW2.jpg""style=""width:400px;height:400px;""></img>",3,html-button-response,38,204874,0.0-3.1-18.1-0.1,20237,List2A,white,man,,FALSE,3,,,,,
null,CORRECT,,html-keyboard-response,39,206377,0.0-3.1-18.1-1.1-0.1,20237,List2A,white,man,,,,null,,,,
2066,"<img src=""portrait/WW1.jpg""style=""width:400px;height:400px;""></img>",1,html-button-response,40,208443,0.0-3.1-19.1,20237,List2A,white,man,,TRUE,1,,,,,
null,CORRECT,,html-keyboard-response,41,209946,0.0-3.1-20.1-0.1,20237,List2A,white,man,,,,null,,,,
2300,"<img src=""portrait/BW2.jpg""style=""width:400px;height:400px;""></img>",2,html-button-response,42,212248,0.0-3.1-22.1,20237,List2A,white,man,,TRUE,2,,,,,
null,CORRECT,,html-keyboard-response,43,213752,0.0-3.1-23.1-0.1,20237,List2A,white,man,,,,null,,,,
1808,<p>You got 7 out of 8 right first time. Press Continue.</p>,0,html-button-response,44,215562,0.0-3.1-25.1,20237,List2A,white,man,,,,,,,,
1336,"As you did not score 100%, the memory game will repeat. Press Continue.",0,html-button-response,45,217900,0.0-3.1-26.1-0.1,20237,List2A,white,man,,,,,,,,
2683,"<img src='img/portrait_matrix_list2.JPG' style='width:900px;height:500px;''></img><p>If you have memorised all the portraits and names and are ready to start, press Continue.</p><p><strong>Please note: Your memory of these faces will be tested 4 times during this experiment.</strong></p>",0,html-button-response,46,221586,0.0-3.2-0.2,20237,List2A,white,man,,,,,,,,
8181,"<img src=""portrait/BM1.jpg""style=""width:400px;height:400px;""></img>",4,html-button-response,47,230769,0.0-3.2-1.2,20237,List2A,white,man,,TRUE,4,,,,,
null,CORRECT,,html-keyboard-response,48,232272,0.0-3.2-2.2-0.2,20237,List2A,white,man,,,,null,,,,
4957,"<img src=""portrait/BW1.jpg""style=""width:400px;height:400px;""></img>",0,html-button-response,49,237230,0.0-3.2-4.2,20237,List2A,white,man,,TRUE,0,,,,,
null,CORRECT,,html-keyboard-response,50,238733,0.0-3.2-5.2-0.2,20237,List2A,white,man,,,,null,,,,
1803,"<img src=""portrait/BM2.jpg""style=""width:400px;height:400px;""></img>",5,html-button-response,51,240538,0.0-3.2-7.2,20237,List2A,white,man,,TRUE,5,,,,,
null,CORRECT,,html-keyboard-response,52,242041,0.0-3.2-8.2-0.2,20237,List2A,white,man,,,,null,,,,
1388,"<img src=""portrait/WM1.jpg""style=""width:400px;height:400px;""></img>",6,html-button-response,53,243434,0.0-3.2-10.2,20237,List2A,white,man,,TRUE,6,,,,,
null,CORRECT,,html-keyboard-response,54,244938,0.0-3.2-11.2-0.2,20237,List2A,white,man,,,,null,,,,
1353,"<img src=""portrait/WM2.jpg""style=""width:400px;height:400px;""></img>",7,html-button-response,55,246294,0.0-3.2-13.2,20237,List2A,white,man,,TRUE,7,,,,,
null,CORRECT,,html-keyboard-response,56,247797,0.0-3.2-14.2-0.2,20237,List2A,white,man,,,,null,,,,
2912,"<img src=""portrait/WW2.jpg""style=""width:400px;height:400px;""></img>",3,html-button-response,57,250711,0.0-3.2-16.2,20237,List2A,white,man,,TRUE,3,,,,,
null,CORRECT,,html-keyboard-response,58,252214,0.0-3.2-17.2-0.2,20237,List2A,white,man,,,,null,,,,
2058,"<img src=""portrait/WW1.jpg""style=""width:400px;height:400px;""></img>",1,html-button-response,59,254274,0.0-3.2-19.2,20237,List2A,white,man,,TRUE,1,,,,,
null,CORRECT,,html-keyboard-response,60,255776,0.0-3.2-20.2-0.2,20237,List2A,white,man,,,,null,,,,
1822,"<img src=""portrait/BW2.jpg""style=""width:400px;height:400px;""></img>",2,html-button-response,61,257601,0.0-3.2-22.2,20237,List2A,white,man,,TRUE,2,,,,,
null,CORRECT,,html-keyboard-response,62,259104,0.0-3.2-23.2-0.2,20237,List2A,white,man,,,,null,,,,
1641,<p>You got 8 out of 8 right first time. Press Continue.</p>,0,html-button-response,63,260746,0.0-3.2-25.2,20237,List2A,white,man,,,,,,,,
30524,"<p>In this experiment, you will view photographs of the people from the memory game interacting.</p><p>By using the <strong>exact</strong> phrase given <i>after</i> the photograph appears and recalling the correct names of the people in the photographs, form a sentence describing the interaction. You do not need to capitalise names.</p><p>Type your answer in the space provided. Please complete every sentence before moving onto the next trial.</p><p>You will only have a few seconds to memorise each given photograph and phrase before you can respond, so try your best to focus.</p><p>An example is given below. Press 'Continue' when you are ready.</p><img src='img/speaking_example_v2.jpg' style='width:800px;height:460px;''></img>",0,html-button-response,64,292273,0.0-4.0,20237,List2A,white,man,,,,,,,,
2223,"<p>Before the experiment starts, you will watch two example trials. Press 'Continue'.</p>",0,html-button-response,65,295500,0.0-5.0,20237,List2A,white,man,,,,,,,,
null,<img src='img/speaking_WW.gif'></img>,,html-keyboard-response,66,298502,0.0-6.0,20237,List2A,white,man,,,,null,,,,
null,<p>is speaking to</p>,,html-keyboard-response,67,300503,0.0-7.0,20237,List2A,white,man,,,,null,,,,
2906,<p><b>Answer:</b> jane is speaking to ruth</p>,0,html-button-response,68,303411,0.0-8.0,20237,List2A,white,man,,,,,,,,
null,<img src='img/pointing_BM.gif'></img>,,html-keyboard-response,69,306413,0.0-9.0,20237,List2A,white,man,,,,null,,,,
null,<p>are pointing at each other</p>,,html-keyboard-response,70,308415,0.0-10.0,20237,List2A,white,man,,,,null,,,,
3184,<p><b>Answer:</b> fred and mike are pointing at each other</p>,0,html-button-response,71,311601,0.0-11.0,20237,List2A,white,man,,,,,,,,
7301,"<p>Ready to start the experiment?</p><br><p><strong>Remember to describe the picture using a full sentence,</strong></p><p><strong>that combines the names of the people with the given phrase.</strong></p><p><strong>If you do not do this correctly you will not be paid.</strong></p><p><strong> You do not need to capitalise names or use punctuation.</strong></p><br><p>Press 'Continue' to begin.</p>",0,html-button-response,72,319904,0.0-12.0,20237,List2A,white,man,,,,,,,,
null,"<div style=""font-size:60px;"">+</div>",,html-keyboard-response,73,321406,0.0-13.0-0.0,20237,List2A,white,man,,,,null,,,,
null,"<img src=""stim_listA/argue6.gif""</stim_listA>",,html-keyboard-response,74,323409,0.0-13.0-1.0,20237,List2A,white,man,,,,null,,,,
null,are arguing with each other,,html-keyboard-response,75,325411,0.0-13.0-2.0,20237,List2A,white,man,,,,null,,,,
22790,,,survey-text,76,348202,0.0-13.0-3.0,20237,List2A,white,man,,,,,"{""Q0"":""Mike and Luke are arguing with each other.""}","<img src=""stim_listA/argue6.gif""</stim_listA>",are arguing with each other,
null,"<div style=""font-size:60px;"">+</div>",,html-keyboard-response,77,348704,0.0-13.0-0.1,20237,List2A,white,man,,,,null,,,,
null,"<img src=""stim_listA/touch1.gif""</stim_listA>",,html-keyboard-response,78,350706,0.0-13.0-1.1,20237,List2A,white,man,,,,null,,,,
null,is touching,,html-keyboard-response,79,352710,0.0-13.0-2.1,20237,List2A,white,man,,,,null,,,,
14820,,,survey-text,80,367532,0.0-13.0-3.1,20237,List2A,white,man,,,,,"{""Q0"":""Dave is touching Jane.""}","<img src=""stim_listA/touch1.gif""</stim_listA>",is touching,
null,"<div style=""font-size:60px;"">+</div>",,html-keyboard-response,81,368033,0.0-13.0-0.2,20237,List2A,white,man,,,,null,,,,
null,"<img src=""stim_listA/marry3.gif""</stim_listA>",,html-keyboard-response,82,370037,0.0-13.0-1.2,20237,List2A,white,man,,,,null,,,,
null,is marrying,,html-keyboard-response,83,372039,0.0-13.0-2.2,20237,List2A,white,man,,,,null,,,,
8689,,,survey-text,84,380730,0.0-13.0-3.2,20237,List2A,white,man,,,,,"{""Q0"":""is marrying""}","<img src=""stim_listA/marry3.gif""</stim_listA>",is marrying,
null,"<div style=""font-size:60px;"">+</div>",,html-keyboard-response,85,381232,0.0-13.0-0.3,20237,List2A,white,man,,,,null,,,,
null,"<img src=""stim_listA/kiss4.gif""</stim_listA>",,html-keyboard-response,86,383236,0.0-13.0-1.3,20237,List2A,white,man,,,,null,,,,
null,are kissing each other,,html-keyboard-response,87,385237,0.0-13.0-2.3,20237,List2A,white,man,,,,null,,,,
27850,,,survey-text,88,413088,0.0-13.0-3.3,20237,List2A,white,man,,,,,"{""Q0"":""are kissing each other""}","<img src=""stim_listA/kiss4.gif""</stim_listA>",are kissing each other,
null,"<div style=""font-size:60px;"">+</div>",,html-keyboard-response,89,413591,0.0-13.0-0.4,20237,List2A,white,man,,,,null,,,,
null,"<img src=""stim_listA/touch5.gif""</stim_listA>",,html-keyboard-response,90,415594,0.0-13.0-1.4,20237,List2A,white,man,,,,null,,,,
null,is touching,,html-keyboard-response,91,417597,0.0-13.0-2.4,20237,List2A,white,man,,,,null,,,,
17522,,,survey-text,92,435121,0.0-13.0-3.4,20237,List2A,white,man,,,,,"{""Q0"":""Dave is touching Mike.""}","<img src=""stim_listA/touch5.gif""</stim_listA>",is touching,
null,"<div style=""font-size:60px;"">+</div>",,html-keyboard-response,93,435622,0.0-13.0-0.5,20237,List2A,white,man,,,,null,,,,
null,"<img src=""stim_listA/hug8.gif""</stim_listA>",,html-keyboard-response,94,437625,0.0-13.0-1.5,20237,List2A,white,man,,,,null,,,,
null,are hugging each other,,html-keyboard-response,95,439628,0.0-13.0-2.5,20237,List2A,white,man,,,,null,,,,
24008,,,survey-text,96,463637,0.0-13.0-3.5,20237,List2A,white,man,,,,,"{""Q0"":""Kate and Jane are hugging each other.""}","<img src=""stim_listA/hug8.gif""</stim_listA>",are hugging each other,
null,"<div style=""font-size:60px;"">+</div>",,html-keyboard-response,97,464139,0.0-13.0-0.6,20237,List2A,white,man,,,,null,,,,
null,"<img src=""stim_listA/meet5.gif""</stim_listA>",,html-keyboard-response,98,466143,0.0-13.0-1.6,20237,List2A,white,man,,,,null,,,,
null,is meeting,,html-keyboard-response,99,468145,0.0-13.0-2.6,20237,List2A,white,man,,,,null,,,,
13754,,,survey-text,100,481900,0.0-13.0-3.6,20237,List2A,white,man,,,,,"{""Q0"":""Dave is meeting Mike.""}","<img src=""stim_listA/meet5.gif""</stim_listA>",is meeting,
null,"<div style=""font-size:60px;"">+</div>",,html-keyboard-response,101,482402,0.0-13.0-0.7,20237,List2A,white,man,,,,null,,,,
null,"<img src=""stim_listA/argue4.gif""</stim_listA>",,html-keyboard-response,102,484406,0.0-13.0-1.7,20237,List2A,white,man,,,,null,,,,
null,are arguing with each other,,html-keyboard-response,103,486408,0.0-13.0-2.7,20237,List2A,white,man,,,,null,,,,
23550,,,survey-text,104,509958,0.0-13.0-3.7,20237,List2A,white,man,,,,,"{""Q0"":""Fred and Kate are arguing with each other.""}","<img src=""stim_listA/argue4.gif""</stim_listA>",are arguing with each other,
null,"<div style=""font-size:60px;"">+</div>",,html-keyboard-response,105,510461,0.0-13.0-0.8,20237,List2A,white,man,,,,null,,,,
null,"<img src=""stim_listA/meet7.gif""</stim_listA>",,html-keyboard-response,106,512464,0.0-13.0-1.8,20237,List2A,white,man,,,,null,,,,
null,is meeting,,html-keyboard-response,107,514467,0.0-13.0-2.8,20237,List2A,white,man,,,,null,,,,
8987,,,survey-text,108,523458,0.0-13.0-3.8,20237,List2A,white,man,,,,,"{""Q0"":""is meeting""}","<img src=""stim_listA/meet7.gif""</stim_listA>",is meeting,
null,"<div style=""font-size:60px;"">+</div>",,html-keyboard-response,109,523960,0.0-13.0-0.9,20237,List2A,white,man,,,,null,,,,
null,"<img src=""stim_listA/hug6.gif""</stim_listA>",,html-keyboard-response,110,525963,0.0-13.0-1.9,20237,List2A,white,man,,,,null,,,,
null,are hugging each other,,html-keyboard-response,111,527965,0.0-13.0-2.9,20237,List2A,white,man,,,,null,,,,
12122,,,survey-text,112,540088,0.0-13.0-3.9,20237,List2A,white,man,,,,,"{""Q0"":""are hugging each other""}","<img src=""stim_listA/hug6.gif""</stim_listA>",are hugging each other,
null,"<div style=""font-size:60px;"">+</div>",,html-keyboard-response,113,540591,0.0-13.0-0.10,20237,List2A,white,man,,,,null,,,,
null,"<img src=""stim_listA/argue7.gif""</stim_listA>",,html-keyboard-response,114,542595,0.0-13.0-1.10,20237,List2A,white,man,,,,null,,,,
null,is arguing with,,html-keyboard-response,115,544598,0.0-13.0-2.10,20237,List2A,white,man,,,,null,,,,
9890,,,survey-text,116,554491,0.0-13.0-3.10,20237,List2A,white,man,,,,,"{""Q0"":""is arguing with""}","<img src=""stim_listA/argue7.gif""</stim_listA>",is arguing with,
null,"<div style=""font-size:60px;"">+</div>",,html-keyboard-response,117,554993,0.0-13.0-0.11,20237,List2A,white,man,,,,null,,,,
null,"<img src=""stim_listA/dance7.gif""</stim_listA>",,html-keyboard-response,118,556996,0.0-13.0-1.11,20237,List2A,white,man,,,,null,,,,
null,is dancing with,,html-keyboard-response,119,558997,0.0-13.0-2.11,20237,List2A,white,man,,,,null,,,,
10447,,,survey-text,120,569446,0.0-13.0-3.11,20237,List2A,white,man,,,,,"{""Q0"":""is dancing with""}","<img src=""stim_listA/dance7.gif""</stim_listA>",is dancing with,
null,"<div style=""font-size:60px;"">+</div>",,html-keyboard-response,121,569946,0.0-13.0-0.12,20237,List2A,white,man,,,,null,,,,
null,"<img src=""stim_listA/marry5.gif""</stim_listA>",,html-keyboard-response,122,571949,0.0-13.0-1.12,20237,List2A,white,man,,,,null,,,,
null,is marrying,,html-keyboard-response,123,573952,0.0-13.0-2.12,20237,List2A,white,man,,,,null,,,,
7906,,,survey-text,124,581859,0.0-13.0-3.12,20237,List2A,white,man,,,,,"{""Q0"":""is marrying""}","<img src=""stim_listA/marry5.gif""</stim_listA>",is marrying,
null,"<div style=""font-size:60px;"">+</div>",,html-keyboard-response,125,582361,0.0-13.0-0.13,20237,List2A,white,man,,,,null,,,,
null,"<img src=""stim_listA/fight5.gif""</stim_listA>",,html-keyboard-response,126,584364,0.0-13.0-1.13,20237,List2A,white,man,,,,null,,,,
null,is fighting,,html-keyboard-response,127,586367,0.0-13.0-2.13,20237,List2A,white,man,,,,null,,,,
14023,,,survey-text,128,600392,0.0-13.0-3.13,20237,List2A,white,man,,,,,"{""Q0"":""Dave is fighting with Mike.""}","<img src=""stim_listA/fight5.gif""</stim_listA>",is fighting,
null,"<div style=""font-size:60px;"">+</div>",,html-keyboard-response,129,600894,0.0-13.0-0.14,20237,List2A,white,man,,,,null,,,,
null,"<img src=""stim_listA/marry6.gif""</stim_listA>",,html-keyboard-response,130,602896,0.0-13.0-1.14,20237,List2A,white,man,,,,null,,,,
null,are marrying each other,,html-keyboard-response,131,604899,0.0-13.0-2.14,20237,List2A,white,man,,,,null,,,,
17846,,,survey-text,132,622747,0.0-13.0-3.14,20237,List2A,white,man,,,,,"{""Q0"":""Mike and Luke are marrying each other.""}","<img src=""stim_listA/marry6.gif""</stim_listA>",are marrying each other,
null,"<div style=""font-size:60px;"">+</div>",,html-keyboard-response,133,623248,0.0-13.0-0.15,20237,List2A,white,man,,,,null,,,,
null,"<img src=""stim_listA/dance3.gif""</stim_listA>",,html-keyboard-response,134,625252,0.0-13.0-1.15,20237,List2A,white,man,,,,null,,,,
null,is dancing with,,html-keyboard-response,135,627255,0.0-13.0-2.15,20237,List2A,white,man,,,,null,,,,
14119,,,survey-text,136,641376,0.0-13.0-3.15,20237,List2A,white,man,,,,,"{""Q0"":""Fred is dancing with Kate.""}","<img src=""stim_listA/dance3.gif""</stim_listA>",is dancing with,
null,"<div style=""font-size:60px;"">+</div>",,html-keyboard-response,137,641878,0.0-13.0-0.16,20237,List2A,white,man,,,,null,,,,
null,"<img src=""stim_listA/talk6.gif""</stim_listA>",,html-keyboard-response,138,643881,0.0-13.0-1.16,20237,List2A,white,man,,,,null,,,,
null,are talking to each other,,html-keyboard-response,139,645883,0.0-13.0-2.16,20237,List2A,white,man,,,,null,,,,
23520,,,survey-text,140,669404,0.0-13.0-3.16,20237,List2A,white,man,,,,,"{""Q0"":""Fred and Dave are talking to each other.""}","<img src=""stim_listA/talk6.gif""</stim_listA>",are talking to each other,
null,"<div style=""font-size:60px;"">+</div>",,html-keyboard-response,141,669905,0.0-13.0-0.17,20237,List2A,white,man,,,,null,,,,
null,"<img src=""stim_listA/marry2.gif""</stim_listA>",,html-keyboard-response,142,671907,0.0-13.0-1.17,20237,List2A,white,man,,,,null,,,,
null,are marrying each other,,html-keyboard-response,143,673908,0.0-13.0-2.17,20237,List2A,white,man,,,,null,,,,
22793,,,survey-text,144,696703,0.0-13.0-3.17,20237,List2A,white,man,,,,,"{""Q0"":""Jane and Luke are marrying each other.""}","<img src=""stim_listA/marry2.gif""</stim_listA>",are marrying each other,
null,"<div style=""font-size:60px;"">+</div>",,html-keyboard-response,145,697204,0.0-13.0-0.18,20237,List2A,white,man,,,,null,,,,
null,"<img src=""stim_listA/touch2.gif""</stim_listA>",,html-keyboard-response,146,699208,0.0-13.0-1.18,20237,List2A,white,man,,,,null,,,,
null,are touching each other,,html-keyboard-response,147,701210,0.0-13.0-2.18,20237,List2A,white,man,,,,null,,,,
19140,,,survey-text,148,720351,0.0-13.0-3.18,20237,List2A,white,man,,,,,"{""Q0"":""Ruth and Luke are touching each other.""}","<img src=""stim_listA/touch2.gif""</stim_listA>",are touching each other,
null,"<div style=""font-size:60px;"">+</div>",,html-keyboard-response,149,720853,0.0-13.0-0.19,20237,List2A,white,man,,,,null,,,,
null,"<img src=""stim_listA/talk1.gif""</stim_listA>",,html-keyboard-response,150,722857,0.0-13.0-1.19,20237,List2A,white,man,,,,null,,,,
null,is talking to,,html-keyboard-response,151,724860,0.0-13.0-2.19,20237,List2A,white,man,,,,null,,,,
14953,,,survey-text,152,739813,0.0-13.0-3.19,20237,List2A,white,man,,,,,"{""Q0"":""Luke is talking to Jane.""}","<img src=""stim_listA/talk1.gif""</stim_listA>",is talking to,
11641,"<img src='img/portrait_matrix_list2.JPG' style='width:900px;height:500px;''></img><p>If you have memorised all the portraits and names and are ready to start, press Continue.</p><p><strong>Please note: Your memory of these faces will be tested 4 times during this experiment.</strong></p>",0,html-button-response,153,751455,0.0-14.0-0.0,20237,List2A,white,man,,,,,,,,
3109,"<img src=""portrait/BM2.jpg""style=""width:400px;height:400px;""></img>",5,html-button-response,154,755568,0.0-14.0-1.0,20237,List2A,white,man,,TRUE,5,,,,,
null,CORRECT,,html-keyboard-response,155,757071,0.0-14.0-2.0-0.0,20237,List2A,white,man,,,,null,,,,
1774,"<img src=""portrait/WM1.jpg""style=""width:400px;height:400px;""></img>",6,html-button-response,156,758848,0.0-14.0-4.0,20237,List2A,white,man,,TRUE,6,,,,,
null,CORRECT,,html-keyboard-response,157,760351,0.0-14.0-5.0-0.0,20237,List2A,white,man,,,,null,,,,
2572,"<img src=""portrait/BM1.jpg""style=""width:400px;height:400px;""></img>",4,html-button-response,158,762926,0.0-14.0-7.0,20237,List2A,white,man,,TRUE,4,,,,,
null,CORRECT,,html-keyboard-response,159,764429,0.0-14.0-8.0-0.0,20237,List2A,white,man,,,,null,,,,
4395,"<img src=""portrait/BW1.jpg""style=""width:400px;height:400px;""></img>",0,html-button-response,160,768827,0.0-14.0-10.0,20237,List2A,white,man,,TRUE,0,,,,,
null,CORRECT,,html-keyboard-response,161,770330,0.0-14.0-11.0-0.0,20237,List2A,white,man,,,,null,,,,
2927,"<img src=""portrait/BW2.jpg""style=""width:400px;height:400px;""></img>",2,html-button-response,162,773260,0.0-14.0-13.0,20237,List2A,white,man,,TRUE,2,,,,,
null,CORRECT,,html-keyboard-response,163,774762,0.0-14.0-14.0-0.0,20237,List2A,white,man,,,,null,,,,
1728,"<img src=""portrait/WW2.jpg""style=""width:400px;height:400px;""></img>",3,html-button-response,164,776494,0.0-14.0-16.0,20237,List2A,white,man,,TRUE,3,,,,,
null,CORRECT,,html-keyboard-response,165,777998,0.0-14.0-17.0-0.0,20237,List2A,white,man,,,,null,,,,
2562,"<img src=""portrait/WM2.jpg""style=""width:400px;height:400px;""></img>",7,html-button-response,166,780562,0.0-14.0-19.0,20237,List2A,white,man,,TRUE,7,,,,,
null,CORRECT,,html-keyboard-response,167,782066,0.0-14.0-20.0-0.0,20237,List2A,white,man,,,,null,,,,
3207,"<img src=""portrait/WW1.jpg""style=""width:400px;height:400px;""></img>",1,html-button-response,168,785274,0.0-14.0-22.0,20237,List2A,white,man,,TRUE,1,,,,,
null,CORRECT,,html-keyboard-response,169,786777,0.0-14.0-23.0-0.0,20237,List2A,white,man,,,,null,,,,
2043,<p>You got 8 out of 8 right first time. Press Continue.</p>,0,html-button-response,170,788821,0.0-14.0-25.0,20237,List2A,white,man,,,,,,,,
null,"<div style=""font-size:60px;"">+</div>",,html-keyboard-response,171,790326,0.0-15.0-0.0,20237,List2A,white,man,,,,null,,,,
null,"<img src=""stim_listA/fight6.gif""</stim_listA>",,html-keyboard-response,172,792329,0.0-15.0-1.0,20237,List2A,white,man,,,,null,,,,
null,are fighting each other,,html-keyboard-response,173,794332,0.0-15.0-2.0,20237,List2A,white,man,,,,null,,,,
17484,,,survey-text,174,811818,0.0-15.0-3.0,20237,List2A,white,man,,,,,"{""Q0"":""Fred and Luke are fighting each other.""}","<img src=""stim_listA/fight6.gif""</stim_listA>",are fighting each other,
null,"<div style=""font-size:60px;"">+</div>",,html-keyboard-response,175,812320,0.0-15.0-0.1,20237,List2A,white,man,,,,null,,,,
null,"<img src=""stim_listA/hug1.gif""</stim_listA>",,html-keyboard-response,176,814324,0.0-15.0-1.1,20237,List2A,white,man,,,,null,,,,
null,is hugging,,html-keyboard-response,177,816326,0.0-15.0-2.1,20237,List2A,white,man,,,,null,,,,
12884,,,survey-text,178,829211,0.0-15.0-3.1,20237,List2A,white,man,,,,,"{""Q0"":""Luke is hugging Ruth.""}","<img src=""stim_listA/hug1.gif""</stim_listA>",is hugging,
null,"<div style=""font-size:60px;"">+</div>",,html-keyboard-response,179,829713,0.0-15.0-0.2,20237,List2A,white,man,,,,null,,,,
null,"<img src=""stim_listA/meet3.gif""</stim_listA>",,html-keyboard-response,180,831716,0.0-15.0-1.2,20237,List2A,white,man,,,,null,,,,
null,is meeting,,html-keyboard-response,181,833718,0.0-15.0-2.2,20237,List2A,white,man,,,,null,,,,
11249,,,survey-text,182,844969,0.0-15.0-3.2,20237,List2A,white,man,,,,,"{""Q0"":""Kate is meeting Mike.""}","<img src=""stim_listA/meet3.gif""</stim_listA>",is meeting,
null,"<div style=""font-size:60px;"">+</div>",,html-keyboard-response,183,845471,0.0-15.0-0.3,20237,List2A,white,man,,,,null,,,,
null,"<img src=""stim_listA/hug3.gif""</stim_listA>",,html-keyboard-response,184,847473,0.0-15.0-1.3,20237,List2A,white,man,,,,null,,,,
null,is hugging,,html-keyboard-response,185,849476,0.0-15.0-2.3,20237,List2A,white,man,,,,null,,,,
11032,,,survey-text,186,860509,0.0-15.0-3.3,20237,List2A,white,man,,,,,"{""Q0"":""Fred is hugging Beth.""}","<img src=""stim_listA/hug3.gif""</stim_listA>",is hugging,
null,"<div style=""font-size:60px;"">+</div>",,html-keyboard-response,187,861011,0.0-15.0-0.4,20237,List2A,white,man,,,,null,,,,
null,"<img src=""stim_listA/dance6.gif""</stim_listA>",,html-keyboard-response,188,863014,0.0-15.0-1.4,20237,List2A,white,man,,,,null,,,,
null,are dancing with each other,,html-keyboard-response,189,865016,0.0-15.0-2.4,20237,List2A,white,man,,,,null,,,,
17168,,,survey-text,190,882185,0.0-15.0-3.4,20237,List2A,white,man,,,,,"{""Q0"":""Fred and Dave are dancing with each other.""}","<img src=""stim_listA/dance6.gif""</stim_listA>",are dancing with each other,
null,"<div style=""font-size:60px;"">+</div>",,html-keyboard-response,191,882687,0.0-15.0-0.5,20237,List2A,white,man,,,,null,,,,
null,"<img src=""stim_listA/marry4.gif""</stim_listA>",,html-keyboard-response,192,884690,0.0-15.0-1.5,20237,List2A,white,man,,,,null,,,,
null,are marrying each other,,html-keyboard-response,193,886692,0.0-15.0-2.5,20237,List2A,white,man,,,,null,,,,
16485,,,survey-text,194,903178,0.0-15.0-3.5,20237,List2A,white,man,,,,,"{""Q0"":""Fred and Kate are marrying each other.""}","<img src=""stim_listA/marry4.gif""</stim_listA>",are marrying each other,
null,"<div style=""font-size:60px;"">+</div>",,html-keyboard-response,195,903680,0.0-15.0-0.6,20237,List2A,white,man,,,,null,,,,
null,"<img src=""stim_listA/touch4.gif""</stim_listA>",,html-keyboard-response,196,905684,0.0-15.0-1.6,20237,List2A,white,man,,,,null,,,,
null,are touching each other,,html-keyboard-response,197,907686,0.0-15.0-2.6,20237,List2A,white,man,,,,null,,,,
15959,,,survey-text,198,923646,0.0-15.0-3.6,20237,List2A,white,man,,,,,"{""Q0"":""Beth and Fred are touching each other.""}","<img src=""stim_listA/touch4.gif""</stim_listA>",are touching each other,
null,"<div style=""font-size:60px;"">+</div>",,html-keyboard-response,199,924149,0.0-15.0-0.7,20237,List2A,white,man,,,,null,,,,
null,"<img src=""stim_listA/fight2.gif""</stim_listA>",,html-keyboard-response,200,926151,0.0-15.0-1.7,20237,List2A,white,man,,,,null,,,,
null,are fighting each other,,html-keyboard-response,201,928153,0.0-15.0-2.7,20237,List2A,white,man,,,,null,,,,
16812,,,survey-text,202,944967,0.0-15.0-3.7,20237,List2A,white,man,,,,,"{""Q0"":""Ruth and Luke are fighting each other.""}","<img src=""stim_listA/fight2.gif""</stim_listA>",are fighting each other,
null,"<div style=""font-size:60px;"">+</div>",,html-keyboard-response,203,945469,0.0-15.0-0.8,20237,List2A,white,man,,,,null,,,,
null,"<img src=""stim_listA/argue2.gif""</stim_listA>",,html-keyboard-response,204,947472,0.0-15.0-1.8,20237,List2A,white,man,,,,null,,,,
null,are arguing with each other,,html-keyboard-response,205,949474,0.0-15.0-2.8,20237,List2A,white,man,,,,null,,,,
25145,,,survey-text,206,974620,0.0-15.0-3.8,20237,List2A,white,man,,,,,"{""Q0"":""Luke and Jane are arguing with each other.""}","<img src=""stim_listA/argue2.gif""</stim_listA>",are arguing with each other,
null,"<div style=""font-size:60px;"">+</div>",,html-keyboard-response,207,975121,0.0-15.0-0.9,20237,List2A,white,man,,,,null,,,,
null,"<img src=""stim_listA/argue8.gif""</stim_listA>",,html-keyboard-response,208,977125,0.0-15.0-1.9,20237,List2A,white,man,,,,null,,,,
null,are arguing with each other,,html-keyboard-response,209,979128,0.0-15.0-2.9,20237,List2A,white,man,,,,null,,,,
21525,,,survey-text,210,1000655,0.0-15.0-3.9,20237,List2A,white,man,,,,,"{""Q0"":""Ruth and Kate are arguing with each other.""}","<img src=""stim_listA/argue8.gif""</stim_listA>",are arguing with each other,
null,"<div style=""font-size:60px;"">+</div>",,html-keyboard-response,211,1001157,0.0-15.0-0.10,20237,List2A,white,man,,,,null,,,,
null,"<img src=""stim_listA/meet2.gif""</stim_listA>",,html-keyboard-response,212,1003161,0.0-15.0-1.10,20237,List2A,white,man,,,,null,,,,
null,are meeting each other,,html-keyboard-response,213,1005163,0.0-15.0-2.10,20237,List2A,white,man,,,,null,,,,
15812,,,survey-text,214,1020976,0.0-15.0-3.10,20237,List2A,white,man,,,,,"{""Q0"":""Ruth and Luke are meeting each other.""}","<img src=""stim_listA/meet2.gif""</stim_listA>",are meeting each other,
null,"<div style=""font-size:60px;"">+</div>",,html-keyboard-response,215,1021477,0.0-15.0-0.11,20237,List2A,white,man,,,,null,,,,
null,"<img src=""stim_listA/kiss7.gif""</stim_listA>",,html-keyboard-response,216,1023480,0.0-15.0-1.11,20237,List2A,white,man,,,,null,,,,
null,is kissing,,html-keyboard-response,217,1025482,0.0-15.0-2.11,20237,List2A,white,man,,,,null,,,,
10779,,,survey-text,218,1036261,0.0-15.0-3.11,20237,List2A,white,man,,,,,"{""Q0"":""Ruth is kissing Beth.""}","<img src=""stim_listA/kiss7.gif""</stim_listA>",is kissing,
null,"<div style=""font-size:60px;"">+</div>",,html-keyboard-response,219,1036762,0.0-15.0-0.12,20237,List2A,white,man,,,,null,,,,
null,"<img src=""stim_listA/marry8.gif""</stim_listA>",,html-keyboard-response,220,1038765,0.0-15.0-1.12,20237,List2A,white,man,,,,null,,,,
null,are marrying each other,,html-keyboard-response,221,1040766,0.0-15.0-2.12,20237,List2A,white,man,,,,null,,,,
19398,,,survey-text,222,1060166,0.0-15.0-3.12,20237,List2A,white,man,,,,,"{""Q0"":""Ruth and Kate are marrying each other.""}","<img src=""stim_listA/marry8.gif""</stim_listA>",are marrying each other,
null,"<div style=""font-size:60px;"">+</div>",,html-keyboard-response,223,1060667,0.0-15.0-0.13,20237,List2A,white,man,,,,null,,,,
null,"<img src=""stim_listA/fight3.gif""</stim_listA>",,html-keyboard-response,224,1062671,0.0-15.0-1.13,20237,List2A,white,man,,,,null,,,,
null,is fighting,,html-keyboard-response,225,1064673,0.0-15.0-2.13,20237,List2A,white,man,,,,null,,,,
12767,,,survey-text,226,1077441,0.0-15.0-3.13,20237,List2A,white,man,,,,,"{""Q0"":""Mike is fighting Kate.""}","<img src=""stim_listA/fight3.gif""</stim_listA>",is fighting,
null,"<div style=""font-size:60px;"">+</div>",,html-keyboard-response,227,1077943,0.0-15.0-0.14,20237,List2A,white,man,,,,null,,,,
null,"<img src=""stim_listA/kiss6.gif""</stim_listA>",,html-keyboard-response,228,1079949,0.0-15.0-1.14,20237,List2A,white,man,,,,null,,,,
null,are kissing each other,,html-keyboard-response,229,1081951,0.0-15.0-2.14,20237,List2A,white,man,,,,null,,,,
19893,,,survey-text,230,1101846,0.0-15.0-3.14,20237,List2A,white,man,,,,,"{""Q0"":""Mike and Dave are kissing each other.""}","<img src=""stim_listA/kiss6.gif""</stim_listA>",are kissing each other,
null,"<div style=""font-size:60px;"">+</div>",,html-keyboard-response,231,1102348,0.0-15.0-0.15,20237,List2A,white,man,,,,null,,,,
null,"<img src=""stim_listA/talk7.gif""</stim_listA>",,html-keyboard-response,232,1104351,0.0-15.0-1.15,20237,List2A,white,man,,,,null,,,,
null,is talking to,,html-keyboard-response,233,1106354,0.0-15.0-2.15,20237,List2A,white,man,,,,null,,,,
12457,,,survey-text,234,1118812,0.0-15.0-3.15,20237,List2A,white,man,,,,,"{""Q0"":""Ruth is talking to Kate.""}","<img src=""stim_listA/talk7.gif""</stim_listA>",is talking to,
null,"<div style=""font-size:60px;"">+</div>",,html-keyboard-response,235,1119314,0.0-15.0-0.16,20237,List2A,white,man,,,,null,,,,
null,"<img src=""stim_listA/fight8.gif""</stim_listA>",,html-keyboard-response,236,1121317,0.0-15.0-1.16,20237,List2A,white,man,,,,null,,,,
null,are fighting each other,,html-keyboard-response,237,1123319,0.0-15.0-2.16,20237,List2A,white,man,,,,null,,,,
21378,,,survey-text,238,1144698,0.0-15.0-3.16,20237,List2A,white,man,,,,,"{""Q0"":""Beth and Ruth are fighting each other.""}","<img src=""stim_listA/fight8.gif""</stim_listA>",are fighting each other,
null,"<div style=""font-size:60px;"">+</div>",,html-keyboard-response,239,1145200,0.0-15.0-0.17,20237,List2A,white,man,,,,null,,,,
null,"<img src=""stim_listA/kiss3.gif""</stim_listA>",,html-keyboard-response,240,1147203,0.0-15.0-1.17,20237,List2A,white,man,,,,null,,,,
null,is kissing,,html-keyboard-response,241,1149204,0.0-15.0-2.17,20237,List2A,white,man,,,,null,,,,
10726,,,survey-text,242,1159931,0.0-15.0-3.17,20237,List2A,white,man,,,,,"{""Q0"":""Fred is kissing Beth.""}","<img src=""stim_listA/kiss3.gif""</stim_listA>",is kissing,
null,"<div style=""font-size:60px;"">+</div>",,html-keyboard-response,243,1160433,0.0-15.0-0.18,20237,List2A,white,man,,,,null,,,,
null,"<img src=""stim_listA/argue5.gif""</stim_listA>",,html-keyboard-response,244,1162437,0.0-15.0-1.18,20237,List2A,white,man,,,,null,,,,
null,is arguing with,,html-keyboard-response,245,1164439,0.0-15.0-2.18,20237,List2A,white,man,,,,null,,,,
18501,,,survey-text,246,1182941,0.0-15.0-3.18,20237,List2A,white,man,,,,,"{""Q0"":""Dave is arguing with Fred.""}","<img src=""stim_listA/argue5.gif""</stim_listA>",is arguing with,
null,"<div style=""font-size:60px;"">+</div>",,html-keyboard-response,247,1183442,0.0-15.0-0.19,20237,List2A,white,man,,,,null,,,,
null,"<img src=""stim_listA/touch7.gif""</stim_listA>",,html-keyboard-response,248,1185446,0.0-15.0-1.19,20237,List2A,white,man,,,,null,,,,
null,is touching,,html-keyboard-response,249,1187448,0.0-15.0-2.19,20237,List2A,white,man,,,,null,,,,
11033,,,survey-text,250,1198482,0.0-15.0-3.19,20237,List2A,white,man,,,,,"{""Q0"":""Jane is touching Kate.""}","<img src=""stim_listA/touch7.gif""</stim_listA>",is touching,
4287,"<img src='img/portrait_matrix_list2.JPG' style='width:900px;height:500px;''></img><p>If you have memorised all the portraits and names and are ready to start, press Continue.</p><p><strong>Please note: Your memory of these faces will be tested 4 times during this experiment.</strong></p>",0,html-button-response,251,1202770,0.0-16.0-0.0,20237,List2A,white,man,,,,,,,,
2138,"<img src=""portrait/BW1.jpg""style=""width:400px;height:400px;""></img>",0,html-button-response,252,1205911,0.0-16.0-1.0,20237,List2A,white,man,,TRUE,0,,,,,
null,CORRECT,,html-keyboard-response,253,1207415,0.0-16.0-2.0-0.0,20237,List2A,white,man,,,,null,,,,
2024,"<img src=""portrait/WW1.jpg""style=""width:400px;height:400px;""></img>",1,html-button-response,254,1209441,0.0-16.0-4.0,20237,List2A,white,man,,TRUE,1,,,,,
null,CORRECT,,html-keyboard-response,255,1210943,0.0-16.0-5.0-0.0,20237,List2A,white,man,,,,null,,,,
2059,"<img src=""portrait/WW2.jpg""style=""width:400px;height:400px;""></img>",3,html-button-response,256,1213006,0.0-16.0-7.0,20237,List2A,white,man,,TRUE,3,,,,,
null,CORRECT,,html-keyboard-response,257,1214510,0.0-16.0-8.0-0.0,20237,List2A,white,man,,,,null,,,,
1866,"<img src=""portrait/BM2.jpg""style=""width:400px;height:400px;""></img>",5,html-button-response,258,1216379,0.0-16.0-10.0,20237,List2A,white,man,,TRUE,5,,,,,
null,CORRECT,,html-keyboard-response,259,1217882,0.0-16.0-11.0-0.0,20237,List2A,white,man,,,,null,,,,
1874,"<img src=""portrait/WM1.jpg""style=""width:400px;height:400px;""></img>",6,html-button-response,260,1219758,0.0-16.0-13.0,20237,List2A,white,man,,TRUE,6,,,,,
null,CORRECT,,html-keyboard-response,261,1221261,0.0-16.0-14.0-0.0,20237,List2A,white,man,,,,null,,,,
2555,"<img src=""portrait/BW2.jpg""style=""width:400px;height:400px;""></img>",2,html-button-response,262,1223818,0.0-16.0-16.0,20237,List2A,white,man,,TRUE,2,,,,,
null,CORRECT,,html-keyboard-response,263,1225320,0.0-16.0-17.0-0.0,20237,List2A,white,man,,,,null,,,,
3076,"<img src=""portrait/BM1.jpg""style=""width:400px;height:400px;""></img>",4,html-button-response,264,1228398,0.0-16.0-19.0,20237,List2A,white,man,,TRUE,4,,,,,
null,CORRECT,,html-keyboard-response,265,1229901,0.0-16.0-20.0-0.0,20237,List2A,white,man,,,,null,,,,
1698,"<img src=""portrait/WM2.jpg""style=""width:400px;height:400px;""></img>",7,html-button-response,266,1231602,0.0-16.0-22.0,20237,List2A,white,man,,TRUE,7,,,,,
null,CORRECT,,html-keyboard-response,267,1233106,0.0-16.0-23.0-0.0,20237,List2A,white,man,,,,null,,,,
2115,<p>You got 8 out of 8 right first time. Press Continue.</p>,0,html-button-response,268,1235224,0.0-16.0-25.0,20237,List2A,white,man,,,,,,,,
null,"<div style=""font-size:60px;"">+</div>",,html-keyboard-response,269,1236727,0.0-17.0-0.0,20237,List2A,white,man,,,,null,,,,
null,"<img src=""stim_listA/touch6.gif""</stim_listA>",,html-keyboard-response,270,1238730,0.0-17.0-1.0,20237,List2A,white,man,,,,null,,,,
null,are touching each other,,html-keyboard-response,271,1240732,0.0-17.0-2.0,20237,List2A,white,man,,,,null,,,,
16291,,,survey-text,272,1257025,0.0-17.0-3.0,20237,List2A,white,man,,,,,"{""Q0"":""Fred and Luke are touching each other.""}","<img src=""stim_listA/touch6.gif""</stim_listA>",are touching each other,
null,"<div style=""font-size:60px;"">+</div>",,html-keyboard-response,273,1257527,0.0-17.0-0.1,20237,List2A,white,man,,,,null,,,,
null,"<img src=""stim_listA/talk4.gif""</stim_listA>",,html-keyboard-response,274,1259529,0.0-17.0-1.1,20237,List2A,white,man,,,,null,,,,
null,are talking to each other,,html-keyboard-response,275,1261531,0.0-17.0-2.1,20237,List2A,white,man,,,,null,,,,
16512,,,survey-text,276,1278045,0.0-17.0-3.1,20237,List2A,white,man,,,,,"{""Q0"":""Beth and Mike are talking to each other.""}","<img src=""stim_listA/talk4.gif""</stim_listA>",are talking to each other,
null,"<div style=""font-size:60px;"">+</div>",,html-keyboard-response,277,1278546,0.0-17.0-0.2,20237,List2A,white,man,,,,null,,,,
null,"<img src=""stim_listA/dance5.gif""</stim_listA>",,html-keyboard-response,278,1280549,0.0-17.0-1.2,20237,List2A,white,man,,,,null,,,,
null,is dancing with,,html-keyboard-response,279,1282551,0.0-17.0-2.2,20237,List2A,white,man,,,,null,,,,
11445,,,survey-text,280,1293997,0.0-17.0-3.2,20237,List2A,white,man,,,,,"{""Q0"":""Luke is dancing with Mike.""}","<img src=""stim_listA/dance5.gif""</stim_listA>",is dancing with,
null,"<div style=""font-size:60px;"">+</div>",,html-keyboard-response,281,1294499,0.0-17.0-0.3,20237,List2A,white,man,,,,null,,,,
null,"<img src=""stim_listA/argue3.gif""</stim_listA>",,html-keyboard-response,282,1296503,0.0-17.0-1.3,20237,List2A,white,man,,,,null,,,,
null,is arguing with,,html-keyboard-response,283,1298505,0.0-17.0-2.3,20237,List2A,white,man,,,,null,,,,
14196,,,survey-text,284,1312703,0.0-17.0-3.3,20237,List2A,white,man,,,,,"{""Q0"":""Beth is arguing with Mike.""}","<img src=""stim_listA/argue3.gif""</stim_listA>",is arguing with,
null,"<div style=""font-size:60px;"">+</div>",,html-keyboard-response,285,1313206,0.0-17.0-0.4,20237,List2A,white,man,,,,null,,,,
null,"<img src=""stim_listA/fight4.gif""</stim_listA>",,html-keyboard-response,286,1315209,0.0-17.0-1.4,20237,List2A,white,man,,,,null,,,,
null,are fighting each other,,html-keyboard-response,287,1317211,0.0-17.0-2.4,20237,List2A,white,man,,,,null,,,,
15436,,,survey-text,288,1332648,0.0-17.0-3.4,20237,List2A,white,man,,,,,"{""Q0"":""Beth and Fred are fighting each other.""}","<img src=""stim_listA/fight4.gif""</stim_listA>",are fighting each other,
null,"<div style=""font-size:60px;"">+</div>",,html-keyboard-response,289,1333149,0.0-17.0-0.5,20237,List2A,white,man,,,,null,,,,
null,"<img src=""stim_listA/talk5.gif""</stim_listA>",,html-keyboard-response,290,1335153,0.0-17.0-1.5,20237,List2A,white,man,,,,null,,,,
null,is talking to,,html-keyboard-response,291,1337155,0.0-17.0-2.5,20237,List2A,white,man,,,,null,,,,
10431,,,survey-text,292,1347588,0.0-17.0-3.5,20237,List2A,white,man,,,,,"{""Q0"":""Luke is talking to Mike.""}","<img src=""stim_listA/talk5.gif""</stim_listA>",is talking to,
null,"<div style=""font-size:60px;"">+</div>",,html-keyboard-response,293,1348089,0.0-17.0-0.6,20237,List2A,white,man,,,,null,,,,
null,"<img src=""stim_listA/kiss2.gif""</stim_listA>",,html-keyboard-response,294,1350094,0.0-17.0-1.6,20237,List2A,white,man,,,,null,,,,
null,are kissing each other,,html-keyboard-response,295,1352096,0.0-17.0-2.6,20237,List2A,white,man,,,,null,,,,
17610,,,survey-text,296,1369707,0.0-17.0-3.6,20237,List2A,white,man,,,,,"{""Q0"":""Jane and Dave are kissing each other.""}","<img src=""stim_listA/kiss2.gif""</stim_listA>",are kissing each other,
null,"<div style=""font-size:60px;"">+</div>",,html-keyboard-response,297,1370210,0.0-17.0-0.7,20237,List2A,white,man,,,,null,,,,
null,"<img src=""stim_listA/shout3.gif""</stim_listA>",,html-keyboard-response,298,1372215,0.0-17.0-1.7,20237,List2A,white,man,,,,null,,,,
null,is shouting at,,html-keyboard-response,299,1374217,0.0-17.0-2.7,20237,List2A,white,man,,,,null,,,,
12786,,,survey-text,300,1387005,0.0-17.0-3.7,20237,List2A,white,man,,,,,"{""Q0"":""Fred is shouting at Beth.""}","<img src=""stim_listA/shout3.gif""</stim_listA>",is shouting at,
null,"<div style=""font-size:60px;"">+</div>",,html-keyboard-response,301,1387507,0.0-17.0-0.8,20237,List2A,white,man,,,,null,,,,
null,"<img src=""stim_listA/shout7.gif""</stim_listA>",,html-keyboard-response,302,1389510,0.0-17.0-1.8,20237,List2A,white,man,,,,null,,,,
null,is shouting at,,html-keyboard-response,303,1391512,0.0-17.0-2.8,20237,List2A,white,man,,,,null,,,,
15007,,,survey-text,304,1406520,0.0-17.0-3.8,20237,List2A,white,man,,,,,"{""Q0"":""Beth is shouting at Ruth.""}","<img src=""stim_listA/shout7.gif""</stim_listA>",is shouting at,
null,"<div style=""font-size:60px;"">+</div>",,html-keyboard-response,305,1407021,0.0-17.0-0.9,20237,List2A,white,man,,,,null,,,,
null,"<img src=""stim_listA/talk3.gif""</stim_listA>",,html-keyboard-response,306,1409024,0.0-17.0-1.9,20237,List2A,white,man,,,,null,,,,
null,is talking to,,html-keyboard-response,307,1411027,0.0-17.0-2.9,20237,List2A,white,man,,,,null,,,,
12435,,,survey-text,308,1423463,0.0-17.0-3.9,20237,List2A,white,man,,,,,"{""Q0"":""Fred is talking to Kate.""}","<img src=""stim_listA/talk3.gif""</stim_listA>",is talking to,
null,"<div style=""font-size:60px;"">+</div>",,html-keyboard-response,309,1423966,0.0-17.0-0.10,20237,List2A,white,man,,,,null,,,,
null,"<img src=""stim_listA/talk2.gif""</stim_listA>",,html-keyboard-response,310,1425971,0.0-17.0-1.10,20237,List2A,white,man,,,,null,,,,
null,are talking to each other,,html-keyboard-response,311,1427973,0.0-17.0-2.10,20237,List2A,white,man,,,,null,,,,
12033,,,survey-text,312,1440007,0.0-17.0-3.10,20237,List2A,white,man,,,,,"{""Q0"":""are talking to each other""}","<img src=""stim_listA/talk2.gif""</stim_listA>",are talking to each other,
null,"<div style=""font-size:60px;"">+</div>",,html-keyboard-response,313,1440509,0.0-17.0-0.11,20237,List2A,white,man,,,,null,,,,
null,"<img src=""stim_listA/hug5.gif""</stim_listA>",,html-keyboard-response,314,1442512,0.0-17.0-1.11,20237,List2A,white,man,,,,null,,,,
null,is hugging,,html-keyboard-response,315,1444514,0.0-17.0-2.11,20237,List2A,white,man,,,,null,,,,
7085,,,survey-text,316,1451601,0.0-17.0-3.11,20237,List2A,white,man,,,,,"{""Q0"":""is hugging""}","<img src=""stim_listA/hug5.gif""</stim_listA>",is hugging,
null,"<div style=""font-size:60px;"">+</div>",,html-keyboard-response,317,1452102,0.0-17.0-0.12,20237,List2A,white,man,,,,null,,,,
null,"<img src=""stim_listA/shout6.gif""</stim_listA>",,html-keyboard-response,318,1454105,0.0-17.0-1.12,20237,List2A,white,man,,,,null,,,,
null,are shouting at each other,,html-keyboard-response,319,1456108,0.0-17.0-2.12,20237,List2A,white,man,,,,null,,,,
13921,,,survey-text,320,1470030,0.0-17.0-3.12,20237,List2A,white,man,,,,,"{""Q0"":""are shouting at each other""}","<img src=""stim_listA/shout6.gif""</stim_listA>",are shouting at each other,
null,"<div style=""font-size:60px;"">+</div>",,html-keyboard-response,321,1470532,0.0-17.0-0.13,20237,List2A,white,man,,,,null,,,,
null,"<img src=""stim_listA/touch8.gif""</stim_listA>",,html-keyboard-response,322,1472536,0.0-17.0-1.13,20237,List2A,white,man,,,,null,,,,
null,are touching each other,,html-keyboard-response,323,1474537,0.0-17.0-2.13,20237,List2A,white,man,,,,null,,,,
11962,,,survey-text,324,1486500,0.0-17.0-3.13,20237,List2A,white,man,,,,,"{""Q0"":""are touching each other""}","<img src=""stim_listA/touch8.gif""</stim_listA>",are touching each other,
null,"<div style=""font-size:60px;"">+</div>",,html-keyboard-response,325,1487001,0.0-17.0-0.14,20237,List2A,white,man,,,,null,,,,
null,"<img src=""stim_listA/dance4.gif""</stim_listA>",,html-keyboard-response,326,1489005,0.0-17.0-1.14,20237,List2A,white,man,,,,null,,,,
null,are dancing with each other,,html-keyboard-response,327,1491007,0.0-17.0-2.14,20237,List2A,white,man,,,,null,,,,
16591,,,survey-text,328,1507600,0.0-17.0-3.14,20237,List2A,white,man,,,,,"{""Q0"":""Beth and Mike are dancing with each other.""}","<img src=""stim_listA/dance4.gif""</stim_listA>",are dancing with each other,
null,"<div style=""font-size:60px;"">+</div>",,html-keyboard-response,329,1508102,0.0-17.0-0.15,20237,List2A,white,man,,,,null,,,,
null,"<img src=""stim_listA/talk8.gif""</stim_listA>",,html-keyboard-response,330,1510105,0.0-17.0-1.15,20237,List2A,white,man,,,,null,,,,
null,are talking to each other,,html-keyboard-response,331,1512107,0.0-17.0-2.15,20237,List2A,white,man,,,,null,,,,
15177,,,survey-text,332,1527285,0.0-17.0-3.15,20237,List2A,white,man,,,,,"{""Q0"":""Beth and Jane are talking to each other.""}","<img src=""stim_listA/talk8.gif""</stim_listA>",are talking to each other,
null,"<div style=""font-size:60px;"">+</div>",,html-keyboard-response,333,1527786,0.0-17.0-0.16,20237,List2A,white,man,,,,null,,,,
null,"<img src=""stim_listA/marry7.gif""</stim_listA>",,html-keyboard-response,334,1529789,0.0-17.0-1.16,20237,List2A,white,man,,,,null,,,,
null,is marrying,,html-keyboard-response,335,1531791,0.0-17.0-2.16,20237,List2A,white,man,,,,null,,,,
11633,,,survey-text,336,1543425,0.0-17.0-3.16,20237,List2A,white,man,,,,,"{""Q0"":""Jane is marrying Beth.""}","<img src=""stim_listA/marry7.gif""</stim_listA>",is marrying,
null,"<div style=""font-size:60px;"">+</div>",,html-keyboard-response,337,1543927,0.0-17.0-0.17,20237,List2A,white,man,,,,null,,,,
null,"<img src=""stim_listA/marry1.gif""</stim_listA>",,html-keyboard-response,338,1545930,0.0-17.0-1.17,20237,List2A,white,man,,,,null,,,,
null,is marrying,,html-keyboard-response,339,1547932,0.0-17.0-2.17,20237,List2A,white,man,,,,null,,,,
12048,,,survey-text,340,1559981,0.0-17.0-3.17,20237,List2A,white,man,,,,,"{""Q0"":""Dave is marrying Ruth.""}","<img src=""stim_listA/marry1.gif""</stim_listA>",is marrying,
null,"<div style=""font-size:60px;"">+</div>",,html-keyboard-response,341,1560482,0.0-17.0-0.18,20237,List2A,white,man,,,,null,,,,
null,"<img src=""stim_listA/meet6.gif""</stim_listA>",,html-keyboard-response,342,1562485,0.0-17.0-1.18,20237,List2A,white,man,,,,null,,,,
null,are meeting each other,,html-keyboard-response,343,1564487,0.0-17.0-2.18,20237,List2A,white,man,,,,null,,,,
14738,,,survey-text,344,1579227,0.0-17.0-3.18,20237,List2A,white,man,,,,,"{""Q0"":""Fred and Luke are meeting each other.""}","<img src=""stim_listA/meet6.gif""</stim_listA>",are meeting each other,
null,"<div style=""font-size:60px;"">+</div>",,html-keyboard-response,345,1579729,0.0-17.0-0.19,20237,List2A,white,man,,,,null,,,,
null,"<img src=""stim_listA/hug2.gif""</stim_listA>",,html-keyboard-response,346,1581732,0.0-17.0-1.19,20237,List2A,white,man,,,,null,,,,
null,are hugging each other,,html-keyboard-response,347,1583734,0.0-17.0-2.19,20237,List2A,white,man,,,,null,,,,
20899,,,survey-text,348,1604635,0.0-17.0-3.19,20237,List2A,white,man,,,,,"{""Q0"":""Jane and Dave are hugging each other.""}","<img src=""stim_listA/hug2.gif""</stim_listA>",are hugging each other,
26400,"<img src='img/portrait_matrix_list2.JPG' style='width:900px;height:500px;''></img><p>If you have memorised all the portraits and names and are ready to start, press Continue.</p><p><strong>Please note: Your memory of these faces will be tested 4 times during this experiment.</strong></p>",0,html-button-response,349,1631036,0.0-18.0-0.0,20237,List2A,white,man,,,,,,,,
2459,"<img src=""portrait/WM2.jpg""style=""width:400px;height:400px;""></img>",7,html-button-response,350,1634497,0.0-18.0-1.0,20237,List2A,white,man,,TRUE,7,,,,,
null,CORRECT,,html-keyboard-response,351,1636001,0.0-18.0-2.0-0.0,20237,List2A,white,man,,,,null,,,,
1645,"<img src=""portrait/WM1.jpg""style=""width:400px;height:400px;""></img>",6,html-button-response,352,1637648,0.0-18.0-4.0,20237,List2A,white,man,,TRUE,6,,,,,
null,CORRECT,,html-keyboard-response,353,1639152,0.0-18.0-5.0-0.0,20237,List2A,white,man,,,,null,,,,
1986,"<img src=""portrait/BM1.jpg""style=""width:400px;height:400px;""></img>",4,html-button-response,354,1641141,0.0-18.0-7.0,20237,List2A,white,man,,TRUE,4,,,,,
null,CORRECT,,html-keyboard-response,355,1642644,0.0-18.0-8.0-0.0,20237,List2A,white,man,,,,null,,,,
5687,"<img src=""portrait/WW2.jpg""style=""width:400px;height:400px;""></img>",3,html-button-response,356,1648333,0.0-18.0-10.0,20237,List2A,white,man,,TRUE,3,,,,,
null,CORRECT,,html-keyboard-response,357,1649837,0.0-18.0-11.0-0.0,20237,List2A,white,man,,,,null,,,,
2588,"<img src=""portrait/BW1.jpg""style=""width:400px;height:400px;""></img>",0,html-button-response,358,1652428,0.0-18.0-13.0,20237,List2A,white,man,,TRUE,0,,,,,
null,CORRECT,,html-keyboard-response,359,1653931,0.0-18.0-14.0-0.0,20237,List2A,white,man,,,,null,,,,
2037,"<img src=""portrait/WW1.jpg""style=""width:400px;height:400px;""></img>",1,html-button-response,360,1655970,0.0-18.0-16.0,20237,List2A,white,man,,TRUE,1,,,,,
null,CORRECT,,html-keyboard-response,361,1657475,0.0-18.0-17.0-0.0,20237,List2A,white,man,,,,null,,,,
3132,"<img src=""portrait/BM2.jpg""style=""width:400px;height:400px;""></img>",5,html-button-response,362,1660609,0.0-18.0-19.0,20237,List2A,white,man,,TRUE,5,,,,,
null,CORRECT,,html-keyboard-response,363,1662112,0.0-18.0-20.0-0.0,20237,List2A,white,man,,,,null,,,,
3135,"<img src=""portrait/BW2.jpg""style=""width:400px;height:400px;""></img>",2,html-button-response,364,1665248,0.0-18.0-22.0,20237,List2A,white,man,,TRUE,2,,,,,
null,CORRECT,,html-keyboard-response,365,1666751,0.0-18.0-23.0-0.0,20237,List2A,white,man,,,,null,,,,
1958,<p>You got 8 out of 8 right first time. Press Continue.</p>,0,html-button-response,366,1668711,0.0-18.0-25.0,20237,List2A,white,man,,,,,,,,
null,"<div style=""font-size:60px;"">+</div>",,html-keyboard-response,367,1670216,0.0-19.0-0.0,20237,List2A,white,man,,,,null,,,,
null,"<img src=""stim_listA/touch3.gif""</stim_listA>",,html-keyboard-response,368,1672219,0.0-19.0-1.0,20237,List2A,white,man,,,,null,,,,
null,is touching,,html-keyboard-response,369,1674221,0.0-19.0-2.0,20237,List2A,white,man,,,,null,,,,
13431,,,survey-text,370,1687653,0.0-19.0-3.0,20237,List2A,white,man,,,,,"{""Q0"":""Mike is touching Kate.""}","<img src=""stim_listA/touch3.gif""</stim_listA>",is touching,
null,"<div style=""font-size:60px;"">+</div>",,html-keyboard-response,371,1688156,0.0-19.0-0.1,20237,List2A,white,man,,,,null,,,,
null,"<img src=""stim_listA/hug7.gif""</stim_listA>",,html-keyboard-response,372,1690160,0.0-19.0-1.1,20237,List2A,white,man,,,,null,,,,
null,is hugging,,html-keyboard-response,373,1692162,0.0-19.0-2.1,20237,List2A,white,man,,,,null,,,,
13029,,,survey-text,374,1705192,0.0-19.0-3.1,20237,List2A,white,man,,,,,"{""Q0"":""Ruth is hugging Beth.""}","<img src=""stim_listA/hug7.gif""</stim_listA>",is hugging,
null,"<div style=""font-size:60px;"">+</div>",,html-keyboard-response,375,1705694,0.0-19.0-0.2,20237,List2A,white,man,,,,null,,,,
null,"<img src=""stim_listA/hug4.gif""</stim_listA>",,html-keyboard-response,376,1707698,0.0-19.0-1.2,20237,List2A,white,man,,,,null,,,,
null,are hugging each other,,html-keyboard-response,377,1709700,0.0-19.0-2.2,20237,List2A,white,man,,,,null,,,,
27388,,,survey-text,378,1737089,0.0-19.0-3.2,20237,List2A,white,man,,,,,"{""Q0"":""Kate and Mike are hugging each other.""}","<img src=""stim_listA/hug4.gif""</stim_listA>",are hugging each other,
null,"<div style=""font-size:60px;"">+</div>",,html-keyboard-response,379,1737590,0.0-19.0-0.3,20237,List2A,white,man,,,,null,,,,
null,"<img src=""stim_listA/kiss1.gif""</stim_listA>",,html-keyboard-response,380,1739594,0.0-19.0-1.3,20237,List2A,white,man,,,,null,,,,
null,is kissing,,html-keyboard-response,381,1741595,0.0-19.0-2.3,20237,List2A,white,man,,,,null,,,,
13352,,,survey-text,382,1754948,0.0-19.0-3.3,20237,List2A,white,man,,,,,"{""Q0"":""Luke is kissing Ruth.""}","<img src=""stim_listA/kiss1.gif""</stim_listA>",is kissing,
null,"<div style=""font-size:60px;"">+</div>",,html-keyboard-response,383,1755449,0.0-19.0-0.4,20237,List2A,white,man,,,,null,,,,
null,"<img src=""stim_listA/shout4.gif""</stim_listA>",,html-keyboard-response,384,1757452,0.0-19.0-1.4,20237,List2A,white,man,,,,null,,,,
null,are shouting at each other,,html-keyboard-response,385,1759454,0.0-19.0-2.4,20237,List2A,white,man,,,,null,,,,
17480,,,survey-text,386,1776935,0.0-19.0-3.4,20237,List2A,white,man,,,,,"{""Q0"":""Kate and Mike are shouting at each other.""}","<img src=""stim_listA/shout4.gif""</stim_listA>",are shouting at each other,
null,"<div style=""font-size:60px;"">+</div>",,html-keyboard-response,387,1777439,0.0-19.0-0.5,20237,List2A,white,man,,,,null,,,,
null,"<img src=""stim_listA/meet8.gif""</stim_listA>",,html-keyboard-response,388,1779442,0.0-19.0-1.5,20237,List2A,white,man,,,,null,,,,
null,are meeting each other,,html-keyboard-response,389,1781444,0.0-19.0-2.5,20237,List2A,white,man,,,,null,,,,
15652,,,survey-text,390,1797097,0.0-19.0-3.5,20237,List2A,white,man,,,,,"{""Q0"":""Beth and Ruth are meeting each other.""}","<img src=""stim_listA/meet8.gif""</stim_listA>",are meeting each other,
null,"<div style=""font-size:60px;"">+</div>",,html-keyboard-response,391,1797599,0.0-19.0-0.6,20237,List2A,white,man,,,,null,,,,
null,"<img src=""stim_listA/shout2.gif""</stim_listA>",,html-keyboard-response,392,1799601,0.0-19.0-1.6,20237,List2A,white,man,,,,null,,,,
null,are shouting at each other,,html-keyboard-response,393,1801604,0.0-19.0-2.6,20237,List2A,white,man,,,,null,,,,
18158,,,survey-text,394,1819763,0.0-19.0-3.6,20237,List2A,white,man,,,,,"{""Q0"":""Jane and Dave are shouting at each other.""}","<img src=""stim_listA/shout2.gif""</stim_listA>",are shouting at each other,
null,"<div style=""font-size:60px;"">+</div>",,html-keyboard-response,395,1820265,0.0-19.0-0.7,20237,List2A,white,man,,,,null,,,,
null,"<img src=""stim_listA/shout8.gif""</stim_listA>",,html-keyboard-response,396,1822269,0.0-19.0-1.7,20237,List2A,white,man,,,,null,,,,
null,are shouting at each other,,html-keyboard-response,397,1824271,0.0-19.0-2.7,20237,List2A,white,man,,,,null,,,,
18980,,,survey-text,398,1843252,0.0-19.0-3.7,20237,List2A,white,man,,,,,"{""Q0"":""Kate and Jane are shouting at each other.""}","<img src=""stim_listA/shout8.gif""</stim_listA>",are shouting at each other,
null,"<div style=""font-size:60px;"">+</div>",,html-keyboard-response,399,1843754,0.0-19.0-0.8,20237,List2A,white,man,,,,null,,,,
null,"<img src=""stim_listA/meet4.gif""</stim_listA>",,html-keyboard-response,400,1845759,0.0-19.0-1.8,20237,List2A,white,man,,,,null,,,,
null,are meeting each other,,html-keyboard-response,401,1847761,0.0-19.0-2.8,20237,List2A,white,man,,,,null,,,,
17127,,,survey-text,402,1864890,0.0-19.0-3.8,20237,List2A,white,man,,,,,"{""Q0"":""Beth and Fred are meeting each other.""}","<img src=""stim_listA/meet4.gif""</stim_listA>",are meeting each other,
null,"<div style=""font-size:60px;"">+</div>",,html-keyboard-response,403,1865391,0.0-19.0-0.9,20237,List2A,white,man,,,,null,,,,
null,"<img src=""stim_listA/dance8.gif""</stim_listA>",,html-keyboard-response,404,1867394,0.0-19.0-1.9,20237,List2A,white,man,,,,null,,,,
null,are dancing with each other,,html-keyboard-response,405,1869396,0.0-19.0-2.9,20237,List2A,white,man,,,,null,,,,
19886,,,survey-text,406,1889286,0.0-19.0-3.9,20237,List2A,white,man,,,,,"{""Q0"":""Beth and Jane are dancing with each other.""}","<img src=""stim_listA/dance8.gif""</stim_listA>",are dancing with each other,
null,"<div style=""font-size:60px;"">+</div>",,html-keyboard-response,407,1889788,0.0-19.0-0.10,20237,List2A,white,man,,,,null,,,,
null,"<img src=""stim_listA/meet1.gif""</stim_listA>",,html-keyboard-response,408,1891791,0.0-19.0-1.10,20237,List2A,white,man,,,,null,,,,
null,is meeting,,html-keyboard-response,409,1893792,0.0-19.0-2.10,20237,List2A,white,man,,,,null,,,,
16702,,,survey-text,410,1910496,0.0-19.0-3.10,20237,List2A,white,man,,,,,"{""Q0"":""Dave is meeting Jane.""}","<img src=""stim_listA/meet1.gif""</stim_listA>",is meeting,
null,"<div style=""font-size:60px;"">+</div>",,html-keyboard-response,411,1910998,0.0-19.0-0.11,20237,List2A,white,man,,,,null,,,,
null,"<img src=""stim_listA/shout5.gif""</stim_listA>",,html-keyboard-response,412,1913001,0.0-19.0-1.11,20237,List2A,white,man,,,,null,,,,
null,is shouting at,,html-keyboard-response,413,1915003,0.0-19.0-2.11,20237,List2A,white,man,,,,null,,,,
16450,,,survey-text,414,1931454,0.0-19.0-3.11,20237,List2A,white,man,,,,,"{""Q0"":""Luke is shouting at Fred.""}","<img src=""stim_listA/shout5.gif""</stim_listA>",is shouting at,
null,"<div style=""font-size:60px;"">+</div>",,html-keyboard-response,415,1931955,0.0-19.0-0.12,20237,List2A,white,man,,,,null,,,,
null,"<img src=""stim_listA/fight7.gif""</stim_listA>",,html-keyboard-response,416,1933959,0.0-19.0-1.12,20237,List2A,white,man,,,,null,,,,
null,is fighting,,html-keyboard-response,417,1935962,0.0-19.0-2.12,20237,List2A,white,man,,,,null,,,,
13157,,,survey-text,418,1949120,0.0-19.0-3.12,20237,List2A,white,man,,,,,"{""Q0"":""Jane is fighting Kate.""}","<img src=""stim_listA/fight7.gif""</stim_listA>",is fighting,
null,"<div style=""font-size:60px;"">+</div>",,html-keyboard-response,419,1949623,0.0-19.0-0.13,20237,List2A,white,man,,,,null,,,,
null,"<img src=""stim_listA/kiss8.gif""</stim_listA>",,html-keyboard-response,420,1951628,0.0-19.0-1.13,20237,List2A,white,man,,,,null,,,,
null,are kissing each other,,html-keyboard-response,421,1953630,0.0-19.0-2.13,20237,List2A,white,man,,,,null,,,,
17905,,,survey-text,422,1971536,0.0-19.0-3.13,20237,List2A,white,man,,,,,"{""Q0"":""Kate and Jane are kissing each other.""}","<img src=""stim_listA/kiss8.gif""</stim_listA>",are kissing each other,
null,"<div style=""font-size:60px;"">+</div>",,html-keyboard-response,423,1972038,0.0-19.0-0.14,20237,List2A,white,man,,,,null,,,,
null,"<img src=""stim_listA/kiss5.gif""</stim_listA>",,html-keyboard-response,424,1974042,0.0-19.0-1.14,20237,List2A,white,man,,,,null,,,,
null,is kissing,,html-keyboard-response,425,1976045,0.0-19.0-2.14,20237,List2A,white,man,,,,null,,,,
11072,,,survey-text,426,1987118,0.0-19.0-3.14,20237,List2A,white,man,,,,,"{""Q0"":""Luke is kissing Fred.""}","<img src=""stim_listA/kiss5.gif""</stim_listA>",is kissing,
null,"<div style=""font-size:60px;"">+</div>",,html-keyboard-response,427,1987620,0.0-19.0-0.15,20237,List2A,white,man,,,,null,,,,
null,"<img src=""stim_listA/shout1.gif""</stim_listA>",,html-keyboard-response,428,1989622,0.0-19.0-1.15,20237,List2A,white,man,,,,null,,,,
null,is shouting at,,html-keyboard-response,429,1991624,0.0-19.0-2.15,20237,List2A,white,man,,,,null,,,,
21030,,,survey-text,430,2012655,0.0-19.0-3.15,20237,List2A,white,man,,,,,"{""Q0"":""Luke is shouting at Ruth.""}","<img src=""stim_listA/shout1.gif""</stim_listA>",is shouting at,
null,"<div style=""font-size:60px;"">+</div>",,html-keyboard-response,431,2013157,0.0-19.0-0.16,20237,List2A,white,man,,,,null,,,,
null,"<img src=""stim_listA/dance1.gif""</stim_listA>",,html-keyboard-response,432,2015160,0.0-19.0-1.16,20237,List2A,white,man,,,,null,,,,
null,is dancing with,,html-keyboard-response,433,2017161,0.0-19.0-2.16,20237,List2A,white,man,,,,null,,,,
13120,,,survey-text,434,2030283,0.0-19.0-3.16,20237,List2A,white,man,,,,,"{""Q0"":""Luke is dancing with Jane.""}","<img src=""stim_listA/dance1.gif""</stim_listA>",is dancing with,
null,"<div style=""font-size:60px;"">+</div>",,html-keyboard-response,435,2030784,0.0-19.0-0.17,20237,List2A,white,man,,,,null,,,,
null,"<img src=""stim_listA/argue1.gif""</stim_listA>",,html-keyboard-response,436,2032788,0.0-19.0-1.17,20237,List2A,white,man,,,,null,,,,
null,is arguing with,,html-keyboard-response,437,2034791,0.0-19.0-2.17,20237,List2A,white,man,,,,null,,,,
14140,,,survey-text,438,2048932,0.0-19.0-3.17,20237,List2A,white,man,,,,,"{""Q0"":""Ruth is arguing with Dave.""}","<img src=""stim_listA/argue1.gif""</stim_listA>",is arguing with,
null,"<div style=""font-size:60px;"">+</div>",,html-keyboard-response,439,2049435,0.0-19.0-0.18,20237,List2A,white,man,,,,null,,,,
null,"<img src=""stim_listA/dance2.gif""</stim_listA>",,html-keyboard-response,440,2051438,0.0-19.0-1.18,20237,List2A,white,man,,,,null,,,,
null,are dancing with each other,,html-keyboard-response,441,2053439,0.0-19.0-2.18,20237,List2A,white,man,,,,null,,,,
16987,,,survey-text,442,2070427,0.0-19.0-3.18,20237,List2A,white,man,,,,,"{""Q0"":""Ruth and Dave are dancing with each other.""}","<img src=""stim_listA/dance2.gif""</stim_listA>",are dancing with each other,
null,"<div style=""font-size:60px;"">+</div>",,html-keyboard-response,443,2070929,0.0-19.0-0.19,20237,List2A,white,man,,,,null,,,,
null,"<img src=""stim_listA/fight1.gif""</stim_listA>",,html-keyboard-response,444,2072933,0.0-19.0-1.19,20237,List2A,white,man,,,,null,,,,
null,is fighting,,html-keyboard-response,445,2074937,0.0-19.0-2.19,20237,List2A,white,man,,,,null,,,,
11454,,,survey-text,446,2086391,0.0-19.0-3.19,20237,List2A,white,man,,,,,"{""Q0"":""Dave is fighting Jane.""}","<img src=""stim_listA/fight1.gif""</stim_listA>",is fighting,
4016,<p>Thank you for completing that task.</p><p>The final part of this session is a short questionnaire.</p><p>Press Continue.</p>,0,html-button-response,447,2090407,0.0-20.0,20237,List2A,white,man,,,,,,,,
61301,,,survey-text,448,2152713,0.0-21.0,20237,List2A,white,man,,,,,"{""Q0"":""31"",""Q1"":""English"",""Q2"":""Scots"",""Q3"":""Scotland"",""Q4"":""White"",""Q5"":""Male""}",,,demographics
66856,,,survey-likert,449,2219573,0.0-22.0,20237,List2A,white,man,,,,,"{""Q0"":6,""Q1"":6,""Q2"":6,""Q3"":6,""Q4"":6,""Q5"":6,""Q6"":6,""Q7"":2,""Q8"":6,""Q9"":6,""Q10"":4,""Q11"":4,""Q12"":5,""Q13"":4}",,,likert_race
44648,,,survey-likert,450,2264228,0.0-23.0,20237,List2A,white,man,,,,,"{""Q0"":6,""Q1"":6,""Q2"":6,""Q3"":6,""Q4"":6,""Q5"":6,""Q6"":6,""Q7"":2,""Q8"":6,""Q9"":6,""Q10"":3,""Q11"":4,""Q12"":3,""Q13"":4}",,,likert_gender
6821,,,survey-text,451,2271053,0.0-24.0,20237,List2A,white,man,,,,,"{""Q0"":""ccc""}",,,worker_id
25880,,,external-html,452,2297030,0.0-25.0,20237,List2A,white,man,debrief.html,,,,,,,
