rt,stimulus,button_pressed,trial_type,trial_index,time_elapsed,internal_node_id,subject,list,ppt_race,ppt_gender,url,first_guess,correct,key_press,responses,image_type,phrase_type,test_part
3787,Welcome to the experiment. Press Continue to begin.,0,html-button-response,0,3802,0.0-0.0,20545,List2A,black,woman,,,,,,,,
70256,,,external-html,1,76886,0.0-1.0,20545,List2A,black,woman,consent.html,,,,,,,
16758,"<p>On the next page, you will see portraits of 8 people and their names.</p><p>Your first task is to take a few minutes to memorise the names of these people.</p><p>You will have to recall their names during the rest of the experiment, so it is</p><p>essential that you try to memorise these people and their names as best as you can.</p><br><p><strong>You will then be tested on your memory of these names and portraits.</strong></p><br><p>The experiment will start after you have completed this memory test.</p><br><p>Ready?</p>",0,html-button-response,2,93649,0.0-2.0,20545,List2A,black,woman,,,,,,,,
152175,"<img src='img/portrait_matrix_list2.JPG' style='width:900px;height:500px;''></img><p>If you have memorised all the portraits and names and are ready to start, press Continue.</p><p><strong>Please note: Your memory of these faces will be tested 4 times during this experiment.</strong></p>",0,html-button-response,3,246848,0.0-3.0-0.0,20545,List2A,black,woman,,,,,,,,
15037,"<img src=""portrait/BW2.jpg""style=""width:400px;height:400px;""></img>",2,html-button-response,4,262908,0.0-3.0-1.0,20545,List2A,black,woman,,TRUE,2,,,,,
null,CORRECT,,html-keyboard-response,5,264448,0.0-3.0-2.0-0.0,20545,List2A,black,woman,,,,null,,,,
3307,"<img src=""portrait/WM1.jpg""style=""width:400px;height:400px;""></img>",6,html-button-response,6,267760,0.0-3.0-4.0,20545,List2A,black,woman,,TRUE,6,,,,,
null,CORRECT,,html-keyboard-response,7,269286,0.0-3.0-5.0-0.0,20545,List2A,black,woman,,,,null,,,,
7864,"<img src=""portrait/WW2.jpg""style=""width:400px;height:400px;""></img>",3,html-button-response,8,277157,0.0-3.0-7.0,20545,List2A,black,woman,,TRUE,3,,,,,
null,CORRECT,,html-keyboard-response,9,278695,0.0-3.0-8.0-0.0,20545,List2A,black,woman,,,,null,,,,
4852,"<img src=""portrait/WM2.jpg""style=""width:400px;height:400px;""></img>",7,html-button-response,10,283552,0.0-3.0-10.0,20545,List2A,black,woman,,TRUE,7,,,,,
null,CORRECT,,html-keyboard-response,11,285086,0.0-3.0-11.0-0.0,20545,List2A,black,woman,,,,null,,,,
7948,"<img src=""portrait/BM1.jpg""style=""width:400px;height:400px;""></img>",4,html-button-response,12,293037,0.0-3.0-13.0,20545,List2A,black,woman,,TRUE,4,,,,,
null,CORRECT,,html-keyboard-response,13,294554,0.0-3.0-14.0-0.0,20545,List2A,black,woman,,,,null,,,,
16122,"<img src=""portrait/BW1.jpg""style=""width:400px;height:400px;""></img>",0,html-button-response,14,310680,0.0-3.0-16.0,20545,List2A,black,woman,,TRUE,0,,,,,
null,CORRECT,,html-keyboard-response,15,312214,0.0-3.0-17.0-0.0,20545,List2A,black,woman,,,,null,,,,
12160,"<img src=""portrait/WW1.jpg""style=""width:400px;height:400px;""></img>",1,html-button-response,16,324378,0.0-3.0-19.0,20545,List2A,black,woman,,TRUE,1,,,,,
null,CORRECT,,html-keyboard-response,17,325905,0.0-3.0-20.0-0.0,20545,List2A,black,woman,,,,null,,,,
2950,"<img src=""portrait/BM2.jpg""style=""width:400px;height:400px;""></img>",5,html-button-response,18,328858,0.0-3.0-22.0,20545,List2A,black,woman,,TRUE,5,,,,,
null,CORRECT,,html-keyboard-response,19,330381,0.0-3.0-23.0-0.0,20545,List2A,black,woman,,,,null,,,,
9538,<p>You got 8 out of 8 right first time. Press Continue.</p>,0,html-button-response,20,339922,0.0-3.0-25.0,20545,List2A,black,woman,,,,,,,,
66225,"<p>In this experiment, you will view photographs of the people from the memory game interacting.</p><p>By using the <strong>exact</strong> phrase given <i>after</i> the photograph appears and recalling the correct names of the people in the photographs, form a sentence describing the interaction. You do not need to capitalise names.</p><p>Type your answer in the space provided. Please complete every sentence before moving onto the next trial.</p><p>You will only have a few seconds to memorise each given photograph and phrase before you can respond, so try your best to focus.</p><p>An example is given below. Press 'Continue' when you are ready.</p><img src='img/speaking_example_v2.jpg' style='width:800px;height:460px;''></img>",0,html-button-response,21,407174,0.0-4.0,20545,List2A,black,woman,,,,,,,,
6617,"<p>Before the experiment starts, you will watch two example trials. Press 'Continue'.</p>",0,html-button-response,22,414813,0.0-5.0,20545,List2A,black,woman,,,,,,,,
null,<img src='img/speaking_WW.gif'></img>,,html-keyboard-response,23,417836,0.0-6.0,20545,List2A,black,woman,,,,null,,,,
null,<p>is speaking to</p>,,html-keyboard-response,24,419854,0.0-7.0,20545,List2A,black,woman,,,,null,,,,
12102,<p><b>Answer:</b> jane is speaking to ruth</p>,0,html-button-response,25,431960,0.0-8.0,20545,List2A,black,woman,,,,,,,,
null,<img src='img/pointing_BM.gif'></img>,,html-keyboard-response,26,434985,0.0-9.0,20545,List2A,black,woman,,,,null,,,,
null,<p>are pointing at each other</p>,,html-keyboard-response,27,437287,0.0-10.0,20545,List2A,black,woman,,,,null,,,,
12276,<p><b>Answer:</b> fred and mike are pointing at each other</p>,0,html-button-response,28,449565,0.0-11.0,20545,List2A,black,woman,,,,,,,,
5755,"<p>Ready to start the experiment?</p><br><p><strong>Remember to describe the picture using a full sentence,</strong></p><p><strong> that combines the names of the people with the given phrase.</strong></p><p><strong> You do not need to capitalise names or use punctuation.</strong></p><br><p>Press 'Continue' to begin.</p>",0,html-button-response,29,456336,0.0-12.0,20545,List2A,black,woman,,,,,,,,
null,"<div style=""font-size:60px;"">+</div>",,html-keyboard-response,30,457863,0.0-13.0-0.0,20545,List2A,black,woman,,,,null,,,,
null,"<img src=""stim_listA/meet8.gif""</stim_listA>",,html-keyboard-response,31,459874,0.0-13.0-1.0,20545,List2A,black,woman,,,,null,,,,
null,are meeting each other,,html-keyboard-response,32,461894,0.0-13.0-2.0,20545,List2A,black,woman,,,,null,,,,
21394,,,survey-text,33,483292,0.0-13.0-3.0,20545,List2A,black,woman,,,,,"{""Q0"":""Kate and Ruth are meeting each other. ""}","<img src=""stim_listA/meet8.gif""</stim_listA>",are meeting each other,
null,"<div style=""font-size:60px;"">+</div>",,html-keyboard-response,34,483807,0.0-13.0-0.1,20545,List2A,black,woman,,,,null,,,,
null,"<img src=""stim_listA/kiss4.gif""</stim_listA>",,html-keyboard-response,35,485815,0.0-13.0-1.1,20545,List2A,black,woman,,,,null,,,,
null,are kissing each other,,html-keyboard-response,36,487825,0.0-13.0-2.1,20545,List2A,black,woman,,,,null,,,,
18266,,,survey-text,37,506098,0.0-13.0-3.1,20545,List2A,black,woman,,,,,"{""Q0"":""Mike and Beth are kissing each other. ""}","<img src=""stim_listA/kiss4.gif""</stim_listA>",are kissing each other,
null,"<div style=""font-size:60px;"">+</div>",,html-keyboard-response,38,506606,0.0-13.0-0.2,20545,List2A,black,woman,,,,null,,,,
null,"<img src=""stim_listA/argue2.gif""</stim_listA>",,html-keyboard-response,39,508624,0.0-13.0-1.2,20545,List2A,black,woman,,,,null,,,,
null,are arguing with each other,,html-keyboard-response,40,510644,0.0-13.0-2.2,20545,List2A,black,woman,,,,null,,,,
29110,,,survey-text,41,539757,0.0-13.0-3.2,20545,List2A,black,woman,,,,,"{""Q0"":""Jane and Luke are arguing with each other. ""}","<img src=""stim_listA/argue2.gif""</stim_listA>",are arguing with each other,
null,"<div style=""font-size:60px;"">+</div>",,html-keyboard-response,42,540267,0.0-13.0-0.3,20545,List2A,black,woman,,,,null,,,,
null,"<img src=""stim_listA/fight6.gif""</stim_listA>",,html-keyboard-response,43,542284,0.0-13.0-1.3,20545,List2A,black,woman,,,,null,,,,
null,are fighting each other,,html-keyboard-response,44,544305,0.0-13.0-2.3,20545,List2A,black,woman,,,,null,,,,
15525,,,survey-text,45,559833,0.0-13.0-3.3,20545,List2A,black,woman,,,,,"{""Q0"":""Fred and Luke are fighting each other. ""}","<img src=""stim_listA/fight6.gif""</stim_listA>",are fighting each other,
null,"<div style=""font-size:60px;"">+</div>",,html-keyboard-response,46,560344,0.0-13.0-0.4,20545,List2A,black,woman,,,,null,,,,
null,"<img src=""stim_listA/shout3.gif""</stim_listA>",,html-keyboard-response,47,562365,0.0-13.0-1.4,20545,List2A,black,woman,,,,null,,,,
null,is shouting at,,html-keyboard-response,48,564370,0.0-13.0-2.4,20545,List2A,black,woman,,,,null,,,,
23474,,,survey-text,49,587847,0.0-13.0-3.4,20545,List2A,black,woman,,,,,"{""Q0"":""Fred and Beth are shouting at each other. ""}","<img src=""stim_listA/shout3.gif""</stim_listA>",is shouting at,
null,"<div style=""font-size:60px;"">+</div>",,html-keyboard-response,50,588354,0.0-13.0-0.5,20545,List2A,black,woman,,,,null,,,,
null,"<img src=""stim_listA/hug1.gif""</stim_listA>",,html-keyboard-response,51,590375,0.0-13.0-1.5,20545,List2A,black,woman,,,,null,,,,
null,is hugging,,html-keyboard-response,52,592385,0.0-13.0-2.5,20545,List2A,black,woman,,,,null,,,,
11379,,,survey-text,53,603768,0.0-13.0-3.5,20545,List2A,black,woman,,,,,"{""Q0"":""Luke is hugging Ruth""}","<img src=""stim_listA/hug1.gif""</stim_listA>",is hugging,
null,"<div style=""font-size:60px;"">+</div>",,html-keyboard-response,54,604284,0.0-13.0-0.6,20545,List2A,black,woman,,,,null,,,,
null,"<img src=""stim_listA/talk8.gif""</stim_listA>",,html-keyboard-response,55,606294,0.0-13.0-1.6,20545,List2A,black,woman,,,,null,,,,
null,are talking to each other,,html-keyboard-response,56,608314,0.0-13.0-2.6,20545,List2A,black,woman,,,,null,,,,
38997,,,survey-text,57,647316,0.0-13.0-3.6,20545,List2A,black,woman,,,,,"{""Q0"":""Jane and Kate are talking to each other. ""}","<img src=""stim_listA/talk8.gif""</stim_listA>",are talking to each other,
null,"<div style=""font-size:60px;"">+</div>",,html-keyboard-response,58,647824,0.0-13.0-0.7,20545,List2A,black,woman,,,,null,,,,
null,"<img src=""stim_listA/argue4.gif""</stim_listA>",,html-keyboard-response,59,649844,0.0-13.0-1.7,20545,List2A,black,woman,,,,null,,,,
null,are arguing with each other,,html-keyboard-response,60,651855,0.0-13.0-2.7,20545,List2A,black,woman,,,,null,,,,
19528,,,survey-text,61,671392,0.0-13.0-3.7,20545,List2A,black,woman,,,,,"{""Q0"":""Beth and Fred are arguing with each other.""}","<img src=""stim_listA/argue4.gif""</stim_listA>",are arguing with each other,
null,"<div style=""font-size:60px;"">+</div>",,html-keyboard-response,62,671905,0.0-13.0-0.8,20545,List2A,black,woman,,,,null,,,,
null,"<img src=""stim_listA/kiss3.gif""</stim_listA>",,html-keyboard-response,63,673924,0.0-13.0-1.8,20545,List2A,black,woman,,,,null,,,,
null,is kissing,,html-keyboard-response,64,675934,0.0-13.0-2.8,20545,List2A,black,woman,,,,null,,,,
21251,,,survey-text,65,697190,0.0-13.0-3.8,20545,List2A,black,woman,,,,,"{""Q0"":""No one is kissing. ""}","<img src=""stim_listA/kiss3.gif""</stim_listA>",is kissing,
null,"<div style=""font-size:60px;"">+</div>",,html-keyboard-response,66,697705,0.0-13.0-0.9,20545,List2A,black,woman,,,,null,,,,
null,"<img src=""stim_listA/touch2.gif""</stim_listA>",,html-keyboard-response,67,699724,0.0-13.0-1.9,20545,List2A,black,woman,,,,null,,,,
null,are touching each other,,html-keyboard-response,68,701743,0.0-13.0-2.9,20545,List2A,black,woman,,,,null,,,,
15865,,,survey-text,69,717613,0.0-13.0-3.9,20545,List2A,black,woman,,,,,"{""Q0"":""Luke and Ruth are touching. ""}","<img src=""stim_listA/touch2.gif""</stim_listA>",are touching each other,
null,"<div style=""font-size:60px;"">+</div>",,html-keyboard-response,70,718134,0.0-13.0-0.10,20545,List2A,black,woman,,,,null,,,,
null,"<img src=""stim_listA/talk5.gif""</stim_listA>",,html-keyboard-response,71,720154,0.0-13.0-1.10,20545,List2A,black,woman,,,,null,,,,
null,is talking to,,html-keyboard-response,72,722178,0.0-13.0-2.10,20545,List2A,black,woman,,,,null,,,,
10715,,,survey-text,73,732895,0.0-13.0-3.10,20545,List2A,black,woman,,,,,"{""Q0"":""Mike is talking to Luke. ""}","<img src=""stim_listA/talk5.gif""</stim_listA>",is talking to,
null,"<div style=""font-size:60px;"">+</div>",,html-keyboard-response,74,733414,0.0-13.0-0.11,20545,List2A,black,woman,,,,null,,,,
null,"<img src=""stim_listA/fight4.gif""</stim_listA>",,html-keyboard-response,75,735426,0.0-13.0-1.11,20545,List2A,black,woman,,,,null,,,,
null,are fighting each other,,html-keyboard-response,76,737435,0.0-13.0-2.11,20545,List2A,black,woman,,,,null,,,,
26788,,,survey-text,77,764229,0.0-13.0-3.11,20545,List2A,black,woman,,,,,"{""Q0"":""Fred and Jane are fighting each other. ""}","<img src=""stim_listA/fight4.gif""</stim_listA>",are fighting each other,
null,"<div style=""font-size:60px;"">+</div>",,html-keyboard-response,78,764734,0.0-13.0-0.12,20545,List2A,black,woman,,,,null,,,,
null,"<img src=""stim_listA/fight5.gif""</stim_listA>",,html-keyboard-response,79,766754,0.0-13.0-1.12,20545,List2A,black,woman,,,,null,,,,
null,is fighting,,html-keyboard-response,80,768775,0.0-13.0-2.12,20545,List2A,black,woman,,,,null,,,,
10356,,,survey-text,81,779133,0.0-13.0-3.12,20545,List2A,black,woman,,,,,"{""Q0"":""Dave is fighting Mike. ""}","<img src=""stim_listA/fight5.gif""</stim_listA>",is fighting,
null,"<div style=""font-size:60px;"">+</div>",,html-keyboard-response,82,779641,0.0-13.0-0.13,20545,List2A,black,woman,,,,null,,,,
null,"<img src=""stim_listA/kiss5.gif""</stim_listA>",,html-keyboard-response,83,781652,0.0-13.0-1.13,20545,List2A,black,woman,,,,null,,,,
null,is kissing,,html-keyboard-response,84,783657,0.0-13.0-2.13,20545,List2A,black,woman,,,,null,,,,
15870,,,survey-text,85,799528,0.0-13.0-3.13,20545,List2A,black,woman,,,,,"{""Q0"":""Luke is kissing Fred. ""}","<img src=""stim_listA/kiss5.gif""</stim_listA>",is kissing,
null,"<div style=""font-size:60px;"">+</div>",,html-keyboard-response,86,800039,0.0-13.0-0.14,20545,List2A,black,woman,,,,null,,,,
null,"<img src=""stim_listA/touch5.gif""</stim_listA>",,html-keyboard-response,87,802046,0.0-13.0-1.14,20545,List2A,black,woman,,,,null,,,,
null,is touching,,html-keyboard-response,88,804056,0.0-13.0-2.14,20545,List2A,black,woman,,,,null,,,,
13049,,,survey-text,89,817107,0.0-13.0-3.14,20545,List2A,black,woman,,,,,"{""Q0"":""Mike is touching Dave. ""}","<img src=""stim_listA/touch5.gif""</stim_listA>",is touching,
null,"<div style=""font-size:60px;"">+</div>",,html-keyboard-response,90,817616,0.0-13.0-0.15,20545,List2A,black,woman,,,,null,,,,
null,"<img src=""stim_listA/argue5.gif""</stim_listA>",,html-keyboard-response,91,819622,0.0-13.0-1.15,20545,List2A,black,woman,,,,null,,,,
null,is arguing with,,html-keyboard-response,92,821632,0.0-13.0-2.15,20545,List2A,black,woman,,,,null,,,,
22604,,,survey-text,93,844239,0.0-13.0-3.15,20545,List2A,black,woman,,,,,"{""Q0"":""Dave is arguing with Mike. ""}","<img src=""stim_listA/argue5.gif""</stim_listA>",is arguing with,
null,"<div style=""font-size:60px;"">+</div>",,html-keyboard-response,94,844755,0.0-13.0-0.16,20545,List2A,black,woman,,,,null,,,,
null,"<img src=""stim_listA/meet5.gif""</stim_listA>",,html-keyboard-response,95,846764,0.0-13.0-1.16,20545,List2A,black,woman,,,,null,,,,
null,is meeting,,html-keyboard-response,96,848771,0.0-13.0-2.16,20545,List2A,black,woman,,,,null,,,,
9340,,,survey-text,97,858113,0.0-13.0-3.16,20545,List2A,black,woman,,,,,"{""Q0"":""Mike is meeting Dave. ""}","<img src=""stim_listA/meet5.gif""</stim_listA>",is meeting,
null,"<div style=""font-size:60px;"">+</div>",,html-keyboard-response,98,858619,0.0-13.0-0.17,20545,List2A,black,woman,,,,null,,,,
null,"<img src=""stim_listA/marry4.gif""</stim_listA>",,html-keyboard-response,99,860636,0.0-13.0-1.17,20545,List2A,black,woman,,,,null,,,,
null,are marrying each other,,html-keyboard-response,100,862657,0.0-13.0-2.17,20545,List2A,black,woman,,,,null,,,,
27330,,,survey-text,101,889991,0.0-13.0-3.17,20545,List2A,black,woman,,,,,"{""Q0"":""Fred is marrying Beth. ""}","<img src=""stim_listA/marry4.gif""</stim_listA>",are marrying each other,
null,"<div style=""font-size:60px;"">+</div>",,html-keyboard-response,102,890501,0.0-13.0-0.18,20545,List2A,black,woman,,,,null,,,,
null,"<img src=""stim_listA/dance6.gif""</stim_listA>",,html-keyboard-response,103,892513,0.0-13.0-1.18,20545,List2A,black,woman,,,,null,,,,
null,are dancing with each other,,html-keyboard-response,104,894537,0.0-13.0-2.18,20545,List2A,black,woman,,,,null,,,,
11944,,,survey-text,105,906485,0.0-13.0-3.18,20545,List2A,black,woman,,,,,"{""Q0"":""Dave and Fred are dancing with each other. ""}","<img src=""stim_listA/dance6.gif""</stim_listA>",are dancing with each other,
null,"<div style=""font-size:60px;"">+</div>",,html-keyboard-response,106,906991,0.0-13.0-0.19,20545,List2A,black,woman,,,,null,,,,
null,"<img src=""stim_listA/shout8.gif""</stim_listA>",,html-keyboard-response,107,908994,0.0-13.0-1.19,20545,List2A,black,woman,,,,null,,,,
null,are shouting at each other,,html-keyboard-response,108,911004,0.0-13.0-2.19,20545,List2A,black,woman,,,,null,,,,
16594,,,survey-text,109,927601,0.0-13.0-3.19,20545,List2A,black,woman,,,,,"{""Q0"":""No one is shouting at each other. ""}","<img src=""stim_listA/shout8.gif""</stim_listA>",are shouting at each other,
39524,"<img src='img/portrait_matrix_list2.JPG' style='width:900px;height:500px;''></img><p>If you have memorised all the portraits and names and are ready to start, press Continue.</p><p><strong>Please note: Your memory of these faces will be tested 4 times during this experiment.</strong></p>",0,html-button-response,110,967132,0.0-14.0-0.0,20545,List2A,black,woman,,,,,,,,
2342,"<img src=""portrait/BM2.jpg""style=""width:400px;height:400px;""></img>",5,html-button-response,111,970494,0.0-14.0-1.0,20545,List2A,black,woman,,TRUE,5,,,,,
null,CORRECT,,html-keyboard-response,112,972033,0.0-14.0-2.0-0.0,20545,List2A,black,woman,,,,null,,,,
3106,"<img src=""portrait/WM2.jpg""style=""width:400px;height:400px;""></img>",7,html-button-response,113,975146,0.0-14.0-4.0,20545,List2A,black,woman,,TRUE,7,,,,,
null,CORRECT,,html-keyboard-response,114,976684,0.0-14.0-5.0-0.0,20545,List2A,black,woman,,,,null,,,,
10958,"<img src=""portrait/WW2.jpg""style=""width:400px;height:400px;""></img>",3,html-button-response,115,987650,0.0-14.0-7.0,20545,List2A,black,woman,,TRUE,3,,,,,
null,CORRECT,,html-keyboard-response,116,989188,0.0-14.0-8.0-0.0,20545,List2A,black,woman,,,,null,,,,
2399,"<img src=""portrait/BM1.jpg""style=""width:400px;height:400px;""></img>",4,html-button-response,117,991595,0.0-14.0-10.0,20545,List2A,black,woman,,TRUE,4,,,,,
null,CORRECT,,html-keyboard-response,118,993123,0.0-14.0-11.0-0.0,20545,List2A,black,woman,,,,null,,,,
3130,"<img src=""portrait/WM1.jpg""style=""width:400px;height:400px;""></img>",6,html-button-response,119,996258,0.0-14.0-13.0,20545,List2A,black,woman,,TRUE,6,,,,,
null,CORRECT,,html-keyboard-response,120,997785,0.0-14.0-14.0-0.0,20545,List2A,black,woman,,,,null,,,,
7117,"<img src=""portrait/BW2.jpg""style=""width:400px;height:400px;""></img>",2,html-button-response,121,1004907,0.0-14.0-16.0,20545,List2A,black,woman,,TRUE,2,,,,,
null,CORRECT,,html-keyboard-response,122,1006435,0.0-14.0-17.0-0.0,20545,List2A,black,woman,,,,null,,,,
3081,"<img src=""portrait/BW1.jpg""style=""width:400px;height:400px;""></img>",0,html-button-response,123,1009520,0.0-14.0-19.0,20545,List2A,black,woman,,TRUE,0,,,,,
null,CORRECT,,html-keyboard-response,124,1011056,0.0-14.0-20.0-0.0,20545,List2A,black,woman,,,,null,,,,
2578,"<img src=""portrait/WW1.jpg""style=""width:400px;height:400px;""></img>",1,html-button-response,125,1013638,0.0-14.0-22.0,20545,List2A,black,woman,,TRUE,1,,,,,
null,CORRECT,,html-keyboard-response,126,1015178,0.0-14.0-23.0-0.0,20545,List2A,black,woman,,,,null,,,,
6750,<p>You got 8 out of 8 right first time. Press Continue.</p>,0,html-button-response,127,1021939,0.0-14.0-25.0,20545,List2A,black,woman,,,,,,,,
null,"<div style=""font-size:60px;"">+</div>",,html-keyboard-response,128,1023466,0.0-15.0-0.0,20545,List2A,black,woman,,,,null,,,,
null,"<img src=""stim_listA/marry7.gif""</stim_listA>",,html-keyboard-response,129,1025473,0.0-15.0-1.0,20545,List2A,black,woman,,,,null,,,,
null,is marrying,,html-keyboard-response,130,1027494,0.0-15.0-2.0,20545,List2A,black,woman,,,,null,,,,
14387,,,survey-text,131,1041887,0.0-15.0-3.0,20545,List2A,black,woman,,,,,"{""Q0"":""Beth is marrying Jane. ""}","<img src=""stim_listA/marry7.gif""</stim_listA>",is marrying,
null,"<div style=""font-size:60px;"">+</div>",,html-keyboard-response,132,1042392,0.0-15.0-0.1,20545,List2A,black,woman,,,,null,,,,
null,"<img src=""stim_listA/meet6.gif""</stim_listA>",,html-keyboard-response,133,1044406,0.0-15.0-1.1,20545,List2A,black,woman,,,,null,,,,
null,are meeting each other,,html-keyboard-response,134,1046425,0.0-15.0-2.1,20545,List2A,black,woman,,,,null,,,,
15259,,,survey-text,135,1061688,0.0-15.0-3.1,20545,List2A,black,woman,,,,,"{""Q0"":""Luke and Fred are meeting each other. ""}","<img src=""stim_listA/meet6.gif""</stim_listA>",are meeting each other,
null,"<div style=""font-size:60px;"">+</div>",,html-keyboard-response,136,1062204,0.0-15.0-0.2,20545,List2A,black,woman,,,,null,,,,
null,"<img src=""stim_listA/dance5.gif""</stim_listA>",,html-keyboard-response,137,1064215,0.0-15.0-1.2,20545,List2A,black,woman,,,,null,,,,
null,is dancing with,,html-keyboard-response,138,1066234,0.0-15.0-2.2,20545,List2A,black,woman,,,,null,,,,
8868,,,survey-text,139,1075106,0.0-15.0-3.2,20545,List2A,black,woman,,,,,"{""Q0"":""Mike is dancing with Luke. ""}","<img src=""stim_listA/dance5.gif""</stim_listA>",is dancing with,
null,"<div style=""font-size:60px;"">+</div>",,html-keyboard-response,140,1075614,0.0-15.0-0.3,20545,List2A,black,woman,,,,null,,,,
null,"<img src=""stim_listA/talk6.gif""</stim_listA>",,html-keyboard-response,141,1077623,0.0-15.0-1.3,20545,List2A,black,woman,,,,null,,,,
null,are talking to each other,,html-keyboard-response,142,1079644,0.0-15.0-2.3,20545,List2A,black,woman,,,,null,,,,
12057,,,survey-text,143,1091704,0.0-15.0-3.3,20545,List2A,black,woman,,,,,"{""Q0"":""Fred and Dave are talking to each other. ""}","<img src=""stim_listA/talk6.gif""</stim_listA>",are talking to each other,
null,"<div style=""font-size:60px;"">+</div>",,html-keyboard-response,144,1092216,0.0-15.0-0.4,20545,List2A,black,woman,,,,null,,,,
null,"<img src=""stim_listA/dance2.gif""</stim_listA>",,html-keyboard-response,145,1094236,0.0-15.0-1.4,20545,List2A,black,woman,,,,null,,,,
null,are dancing with each other,,html-keyboard-response,146,1096256,0.0-15.0-2.4,20545,List2A,black,woman,,,,null,,,,
13542,,,survey-text,147,1109800,0.0-15.0-3.4,20545,List2A,black,woman,,,,,"{""Q0"":""Dave and Ruth are dancing with each other. ""}","<img src=""stim_listA/dance2.gif""</stim_listA>",are dancing with each other,
null,"<div style=""font-size:60px;"">+</div>",,html-keyboard-response,148,1110306,0.0-15.0-0.5,20545,List2A,black,woman,,,,null,,,,
null,"<img src=""stim_listA/argue3.gif""</stim_listA>",,html-keyboard-response,149,1112322,0.0-15.0-1.5,20545,List2A,black,woman,,,,null,,,,
null,is arguing with,,html-keyboard-response,150,1114346,0.0-15.0-2.5,20545,List2A,black,woman,,,,null,,,,
15487,,,survey-text,151,1129837,0.0-15.0-3.5,20545,List2A,black,woman,,,,,"{""Q0"":""Mike is arguing with Beth. ""}","<img src=""stim_listA/argue3.gif""</stim_listA>",is arguing with,
null,"<div style=""font-size:60px;"">+</div>",,html-keyboard-response,152,1130347,0.0-15.0-0.6,20545,List2A,black,woman,,,,null,,,,
null,"<img src=""stim_listA/kiss1.gif""</stim_listA>",,html-keyboard-response,153,1132364,0.0-15.0-1.6,20545,List2A,black,woman,,,,null,,,,
null,is kissing,,html-keyboard-response,154,1134371,0.0-15.0-2.6,20545,List2A,black,woman,,,,null,,,,
9103,,,survey-text,155,1143476,0.0-15.0-3.6,20545,List2A,black,woman,,,,,"{""Q0"":""Ruth is kissing Luke. ""}","<img src=""stim_listA/kiss1.gif""</stim_listA>",is kissing,
null,"<div style=""font-size:60px;"">+</div>",,html-keyboard-response,156,1143994,0.0-15.0-0.7,20545,List2A,black,woman,,,,null,,,,
null,"<img src=""stim_listA/marry1.gif""</stim_listA>",,html-keyboard-response,157,1146004,0.0-15.0-1.7,20545,List2A,black,woman,,,,null,,,,
null,is marrying,,html-keyboard-response,158,1148013,0.0-15.0-2.7,20545,List2A,black,woman,,,,null,,,,
15160,,,survey-text,159,1163178,0.0-15.0-3.7,20545,List2A,black,woman,,,,,"{""Q0"":""Dave is marrying Ruth. ""}","<img src=""stim_listA/marry1.gif""</stim_listA>",is marrying,
null,"<div style=""font-size:60px;"">+</div>",,html-keyboard-response,160,1163684,0.0-15.0-0.8,20545,List2A,black,woman,,,,null,,,,
null,"<img src=""stim_listA/talk1.gif""</stim_listA>",,html-keyboard-response,161,1165704,0.0-15.0-1.8,20545,List2A,black,woman,,,,null,,,,
null,is talking to,,html-keyboard-response,162,1167714,0.0-15.0-2.8,20545,List2A,black,woman,,,,null,,,,
11662,,,survey-text,163,1179377,0.0-15.0-3.8,20545,List2A,black,woman,,,,,"{""Q0"":""Jane is talking to Luke. ""}","<img src=""stim_listA/talk1.gif""</stim_listA>",is talking to,
null,"<div style=""font-size:60px;"">+</div>",,html-keyboard-response,164,1179885,0.0-15.0-0.9,20545,List2A,black,woman,,,,null,,,,
null,"<img src=""stim_listA/kiss7.gif""</stim_listA>",,html-keyboard-response,165,1181893,0.0-15.0-1.9,20545,List2A,black,woman,,,,null,,,,
null,is kissing,,html-keyboard-response,166,1183902,0.0-15.0-2.9,20545,List2A,black,woman,,,,null,,,,
10943,,,survey-text,167,1194846,0.0-15.0-3.9,20545,List2A,black,woman,,,,,"{""Q0"":""Ruth is kissing Beth. ""}","<img src=""stim_listA/kiss7.gif""</stim_listA>",is kissing,
null,"<div style=""font-size:60px;"">+</div>",,html-keyboard-response,168,1195364,0.0-15.0-0.10,20545,List2A,black,woman,,,,null,,,,
null,"<img src=""stim_listA/touch4.gif""</stim_listA>",,html-keyboard-response,169,1197384,0.0-15.0-1.10,20545,List2A,black,woman,,,,null,,,,
null,are touching each other,,html-keyboard-response,170,1199404,0.0-15.0-2.10,20545,List2A,black,woman,,,,null,,,,
15318,,,survey-text,171,1214725,0.0-15.0-3.10,20545,List2A,black,woman,,,,,"{""Q0"":""Beth and Fred are toughing each other. ""}","<img src=""stim_listA/touch4.gif""</stim_listA>",are touching each other,
null,"<div style=""font-size:60px;"">+</div>",,html-keyboard-response,172,1215234,0.0-15.0-0.11,20545,List2A,black,woman,,,,null,,,,
null,"<img src=""stim_listA/fight8.gif""</stim_listA>",,html-keyboard-response,173,1217245,0.0-15.0-1.11,20545,List2A,black,woman,,,,null,,,,
null,are fighting each other,,html-keyboard-response,174,1219255,0.0-15.0-2.11,20545,List2A,black,woman,,,,null,,,,
12804,,,survey-text,175,1232062,0.0-15.0-3.11,20545,List2A,black,woman,,,,,"{""Q0"":""Beth and Ruth are fighting each other. ""}","<img src=""stim_listA/fight8.gif""</stim_listA>",are fighting each other,
null,"<div style=""font-size:60px;"">+</div>",,html-keyboard-response,176,1232585,0.0-15.0-0.12,20545,List2A,black,woman,,,,null,,,,
null,"<img src=""stim_listA/touch7.gif""</stim_listA>",,html-keyboard-response,177,1234594,0.0-15.0-1.12,20545,List2A,black,woman,,,,null,,,,
null,is touching,,html-keyboard-response,178,1236598,0.0-15.0-2.12,20545,List2A,black,woman,,,,null,,,,
11647,,,survey-text,179,1248248,0.0-15.0-3.12,20545,List2A,black,woman,,,,,"{""Q0"":""Kate is toughing Jane. ""}","<img src=""stim_listA/touch7.gif""</stim_listA>",is touching,
null,"<div style=""font-size:60px;"">+</div>",,html-keyboard-response,180,1248754,0.0-15.0-0.13,20545,List2A,black,woman,,,,null,,,,
null,"<img src=""stim_listA/shout6.gif""</stim_listA>",,html-keyboard-response,181,1250777,0.0-15.0-1.13,20545,List2A,black,woman,,,,null,,,,
null,are shouting at each other,,html-keyboard-response,182,1252781,0.0-15.0-2.13,20545,List2A,black,woman,,,,null,,,,
10534,,,survey-text,183,1263317,0.0-15.0-3.13,20545,List2A,black,woman,,,,,"{""Q0"":""Mike and Dave are shouting at each other. ""}","<img src=""stim_listA/shout6.gif""</stim_listA>",are shouting at each other,
null,"<div style=""font-size:60px;"">+</div>",,html-keyboard-response,184,1263824,0.0-15.0-0.14,20545,List2A,black,woman,,,,null,,,,
null,"<img src=""stim_listA/fight1.gif""</stim_listA>",,html-keyboard-response,185,1265847,0.0-15.0-1.14,20545,List2A,black,woman,,,,null,,,,
null,is fighting,,html-keyboard-response,186,1267862,0.0-15.0-2.14,20545,List2A,black,woman,,,,null,,,,
10388,,,survey-text,187,1278257,0.0-15.0-3.14,20545,List2A,black,woman,,,,,"{""Q0"":""Jane is fighting Dave. ""}","<img src=""stim_listA/fight1.gif""</stim_listA>",is fighting,
null,"<div style=""font-size:60px;"">+</div>",,html-keyboard-response,188,1278764,0.0-15.0-0.15,20545,List2A,black,woman,,,,null,,,,
null,"<img src=""stim_listA/argue7.gif""</stim_listA>",,html-keyboard-response,189,1280784,0.0-15.0-1.15,20545,List2A,black,woman,,,,null,,,,
null,is arguing with,,html-keyboard-response,190,1282806,0.0-15.0-2.15,20545,List2A,black,woman,,,,null,,,,
23705,,,survey-text,191,1306515,0.0-15.0-3.15,20545,List2A,black,woman,,,,,"{""Q0"":""Jane is arguing with Beth""}","<img src=""stim_listA/argue7.gif""</stim_listA>",is arguing with,
null,"<div style=""font-size:60px;"">+</div>",,html-keyboard-response,192,1307029,0.0-15.0-0.16,20545,List2A,black,woman,,,,null,,,,
null,"<img src=""stim_listA/hug6.gif""</stim_listA>",,html-keyboard-response,193,1309047,0.0-15.0-1.16,20545,List2A,black,woman,,,,null,,,,
null,are hugging each other,,html-keyboard-response,194,1311061,0.0-15.0-2.16,20545,List2A,black,woman,,,,null,,,,
12121,,,survey-text,195,1323186,0.0-15.0-3.16,20545,List2A,black,woman,,,,,"{""Q0"":""Mike and Dave are hugging each other. ""}","<img src=""stim_listA/hug6.gif""</stim_listA>",are hugging each other,
null,"<div style=""font-size:60px;"">+</div>",,html-keyboard-response,196,1323694,0.0-15.0-0.17,20545,List2A,black,woman,,,,null,,,,
null,"<img src=""stim_listA/dance3.gif""</stim_listA>",,html-keyboard-response,197,1325704,0.0-15.0-1.17,20545,List2A,black,woman,,,,null,,,,
null,is dancing with,,html-keyboard-response,198,1327711,0.0-15.0-2.17,20545,List2A,black,woman,,,,null,,,,
12230,,,survey-text,199,1339945,0.0-15.0-3.17,20545,List2A,black,woman,,,,,"{""Q0"":""Kate is dancing with Fred. ""}","<img src=""stim_listA/dance3.gif""</stim_listA>",is dancing with,
null,"<div style=""font-size:60px;"">+</div>",,html-keyboard-response,200,1340450,0.0-15.0-0.18,20545,List2A,black,woman,,,,null,,,,
null,"<img src=""stim_listA/shout1.gif""</stim_listA>",,html-keyboard-response,201,1342483,0.0-15.0-1.18,20545,List2A,black,woman,,,,null,,,,
null,is shouting at,,html-keyboard-response,202,1344494,0.0-15.0-2.18,20545,List2A,black,woman,,,,null,,,,
20973,,,survey-text,203,1365470,0.0-15.0-3.18,20545,List2A,black,woman,,,,,"{""Q0"":""Luke is shouting at Ruth""}","<img src=""stim_listA/shout1.gif""</stim_listA>",is shouting at,
null,"<div style=""font-size:60px;"">+</div>",,html-keyboard-response,204,1365994,0.0-15.0-0.19,20545,List2A,black,woman,,,,null,,,,
null,"<img src=""stim_listA/shout5.gif""</stim_listA>",,html-keyboard-response,205,1368014,0.0-15.0-1.19,20545,List2A,black,woman,,,,null,,,,
null,is shouting at,,html-keyboard-response,206,1370035,0.0-15.0-2.19,20545,List2A,black,woman,,,,null,,,,
14023,,,survey-text,207,1384061,0.0-15.0-3.19,20545,List2A,black,woman,,,,,"{""Q0"":""Luke is shouting at Fred. ""}","<img src=""stim_listA/shout5.gif""</stim_listA>",is shouting at,
29944,"<img src='img/portrait_matrix_list2.JPG' style='width:900px;height:500px;''></img><p>If you have memorised all the portraits and names and are ready to start, press Continue.</p><p><strong>Please note: Your memory of these faces will be tested 4 times during this experiment.</strong></p>",0,html-button-response,208,1414011,0.0-16.0-0.0,20545,List2A,black,woman,,,,,,,,
1703,"<img src=""portrait/WM1.jpg""style=""width:400px;height:400px;""></img>",6,html-button-response,209,1416736,0.0-16.0-1.0,20545,List2A,black,woman,,TRUE,6,,,,,
null,CORRECT,,html-keyboard-response,210,1418255,0.0-16.0-2.0-0.0,20545,List2A,black,woman,,,,null,,,,
3567,"<img src=""portrait/BW2.jpg""style=""width:400px;height:400px;""></img>",2,html-button-response,211,1421829,0.0-16.0-4.0,20545,List2A,black,woman,,TRUE,2,,,,,
null,CORRECT,,html-keyboard-response,212,1423364,0.0-16.0-5.0-0.0,20545,List2A,black,woman,,,,null,,,,
1932,"<img src=""portrait/WW2.jpg""style=""width:400px;height:400px;""></img>",3,html-button-response,213,1425302,0.0-16.0-7.0,20545,List2A,black,woman,,TRUE,3,,,,,
null,CORRECT,,html-keyboard-response,214,1426836,0.0-16.0-8.0-0.0,20545,List2A,black,woman,,,,null,,,,
1624,"<img src=""portrait/WM2.jpg""style=""width:400px;height:400px;""></img>",7,html-button-response,215,1428468,0.0-16.0-10.0,20545,List2A,black,woman,,TRUE,7,,,,,
null,CORRECT,,html-keyboard-response,216,1429988,0.0-16.0-11.0-0.0,20545,List2A,black,woman,,,,null,,,,
4928,"<img src=""portrait/BW1.jpg""style=""width:400px;height:400px;""></img>",0,html-button-response,217,1434921,0.0-16.0-13.0,20545,List2A,black,woman,,TRUE,0,,,,,
null,CORRECT,,html-keyboard-response,218,1436454,0.0-16.0-14.0-0.0,20545,List2A,black,woman,,,,null,,,,
1900,"<img src=""portrait/WW1.jpg""style=""width:400px;height:400px;""></img>",1,html-button-response,219,1438357,0.0-16.0-16.0,20545,List2A,black,woman,,TRUE,1,,,,,
null,CORRECT,,html-keyboard-response,220,1439895,0.0-16.0-17.0-0.0,20545,List2A,black,woman,,,,null,,,,
2241,"<img src=""portrait/BM2.jpg""style=""width:400px;height:400px;""></img>",5,html-button-response,221,1442139,0.0-16.0-19.0,20545,List2A,black,woman,,TRUE,5,,,,,
null,CORRECT,,html-keyboard-response,222,1443665,0.0-16.0-20.0-0.0,20545,List2A,black,woman,,,,null,,,,
1074,"<img src=""portrait/BM1.jpg""style=""width:400px;height:400px;""></img>",4,html-button-response,223,1444744,0.0-16.0-22.0,20545,List2A,black,woman,,TRUE,4,,,,,
null,CORRECT,,html-keyboard-response,224,1446275,0.0-16.0-23.0-0.0,20545,List2A,black,woman,,,,null,,,,
41471,<p>You got 8 out of 8 right first time. Press Continue.</p>,0,html-button-response,225,1487753,0.0-16.0-25.0,20545,List2A,black,woman,,,,,,,,
null,"<div style=""font-size:60px;"">+</div>",,html-keyboard-response,226,1489287,0.0-17.0-0.0,20545,List2A,black,woman,,,,null,,,,
null,"<img src=""stim_listA/hug3.gif""</stim_listA>",,html-keyboard-response,227,1491303,0.0-17.0-1.0,20545,List2A,black,woman,,,,null,,,,
null,is hugging,,html-keyboard-response,228,1493326,0.0-17.0-2.0,20545,List2A,black,woman,,,,null,,,,
15521,,,survey-text,229,1508851,0.0-17.0-3.0,20545,List2A,black,woman,,,,,"{""Q0"":""Fred is hugging Beth. ""}","<img src=""stim_listA/hug3.gif""</stim_listA>",is hugging,
null,"<div style=""font-size:60px;"">+</div>",,html-keyboard-response,230,1509368,0.0-17.0-0.1,20545,List2A,black,woman,,,,null,,,,
null,"<img src=""stim_listA/shout7.gif""</stim_listA>",,html-keyboard-response,231,1511373,0.0-17.0-1.1,20545,List2A,black,woman,,,,null,,,,
null,is shouting at,,html-keyboard-response,232,1513394,0.0-17.0-2.1,20545,List2A,black,woman,,,,null,,,,
8602,,,survey-text,233,1522000,0.0-17.0-3.1,20545,List2A,black,woman,,,,,"{""Q0"":""Ruth is shouting at Beth. ""}","<img src=""stim_listA/shout7.gif""</stim_listA>",is shouting at,
null,"<div style=""font-size:60px;"">+</div>",,html-keyboard-response,234,1522517,0.0-17.0-0.2,20545,List2A,black,woman,,,,null,,,,
null,"<img src=""stim_listA/kiss8.gif""</stim_listA>",,html-keyboard-response,235,1524534,0.0-17.0-1.2,20545,List2A,black,woman,,,,null,,,,
null,are kissing each other,,html-keyboard-response,236,1526550,0.0-17.0-2.2,20545,List2A,black,woman,,,,null,,,,
13370,,,survey-text,237,1539923,0.0-17.0-3.2,20545,List2A,black,woman,,,,,"{""Q0"":""Jane and Kate are kissing each other. ""}","<img src=""stim_listA/kiss8.gif""</stim_listA>",are kissing each other,
null,"<div style=""font-size:60px;"">+</div>",,html-keyboard-response,238,1540433,0.0-17.0-0.3,20545,List2A,black,woman,,,,null,,,,
null,"<img src=""stim_listA/kiss6.gif""</stim_listA>",,html-keyboard-response,239,1542454,0.0-17.0-1.3,20545,List2A,black,woman,,,,null,,,,
null,are kissing each other,,html-keyboard-response,240,1544474,0.0-17.0-2.3,20545,List2A,black,woman,,,,null,,,,
20281,,,survey-text,241,1564758,0.0-17.0-3.3,20545,List2A,black,woman,,,,,"{""Q0"":""Mike and Dave are kissing each other. ""}","<img src=""stim_listA/kiss6.gif""</stim_listA>",are kissing each other,
null,"<div style=""font-size:60px;"">+</div>",,html-keyboard-response,242,1565275,0.0-17.0-0.4,20545,List2A,black,woman,,,,null,,,,
null,"<img src=""stim_listA/hug8.gif""</stim_listA>",,html-keyboard-response,243,1567294,0.0-17.0-1.4,20545,List2A,black,woman,,,,null,,,,
null,are hugging each other,,html-keyboard-response,244,1569298,0.0-17.0-2.4,20545,List2A,black,woman,,,,null,,,,
13452,,,survey-text,245,1582751,0.0-17.0-3.4,20545,List2A,black,woman,,,,,"{""Q0"":""Jane and Kate are hugging each other. ""}","<img src=""stim_listA/hug8.gif""</stim_listA>",are hugging each other,
null,"<div style=""font-size:60px;"">+</div>",,html-keyboard-response,246,1583274,0.0-17.0-0.5,20545,List2A,black,woman,,,,null,,,,
null,"<img src=""stim_listA/hug2.gif""</stim_listA>",,html-keyboard-response,247,1585306,0.0-17.0-1.5,20545,List2A,black,woman,,,,null,,,,
null,are hugging each other,,html-keyboard-response,248,1587315,0.0-17.0-2.5,20545,List2A,black,woman,,,,null,,,,
17789,,,survey-text,249,1605105,0.0-17.0-3.5,20545,List2A,black,woman,,,,,"{""Q0"":""Dave and Jane are hugging each other. ""}","<img src=""stim_listA/hug2.gif""</stim_listA>",are hugging each other,
null,"<div style=""font-size:60px;"">+</div>",,html-keyboard-response,250,1605624,0.0-17.0-0.6,20545,List2A,black,woman,,,,null,,,,
null,"<img src=""stim_listA/marry2.gif""</stim_listA>",,html-keyboard-response,251,1607635,0.0-17.0-1.6,20545,List2A,black,woman,,,,null,,,,
null,are marrying each other,,html-keyboard-response,252,1609656,0.0-17.0-2.6,20545,List2A,black,woman,,,,null,,,,
14344,,,survey-text,253,1624003,0.0-17.0-3.6,20545,List2A,black,woman,,,,,"{""Q0"":""Jane and Luke are marrying each other. ""}","<img src=""stim_listA/marry2.gif""</stim_listA>",are marrying each other,
null,"<div style=""font-size:60px;"">+</div>",,html-keyboard-response,254,1624514,0.0-17.0-0.7,20545,List2A,black,woman,,,,null,,,,
null,"<img src=""stim_listA/fight7.gif""</stim_listA>",,html-keyboard-response,255,1626534,0.0-17.0-1.7,20545,List2A,black,woman,,,,null,,,,
null,is fighting,,html-keyboard-response,256,1628545,0.0-17.0-2.7,20545,List2A,black,woman,,,,null,,,,
11759,,,survey-text,257,1640306,0.0-17.0-3.7,20545,List2A,black,woman,,,,,"{""Q0"":""Jane is fighting Kate. ""}","<img src=""stim_listA/fight7.gif""</stim_listA>",is fighting,
null,"<div style=""font-size:60px;"">+</div>",,html-keyboard-response,258,1640825,0.0-17.0-0.8,20545,List2A,black,woman,,,,null,,,,
null,"<img src=""stim_listA/dance1.gif""</stim_listA>",,html-keyboard-response,259,1642846,0.0-17.0-1.8,20545,List2A,black,woman,,,,null,,,,
null,is dancing with,,html-keyboard-response,260,1644853,0.0-17.0-2.8,20545,List2A,black,woman,,,,null,,,,
11758,,,survey-text,261,1656615,0.0-17.0-3.8,20545,List2A,black,woman,,,,,"{""Q0"":""Jane is dancing with Luke. ""}","<img src=""stim_listA/dance1.gif""</stim_listA>",is dancing with,
null,"<div style=""font-size:60px;"">+</div>",,html-keyboard-response,262,1657126,0.0-17.0-0.9,20545,List2A,black,woman,,,,null,,,,
null,"<img src=""stim_listA/dance8.gif""</stim_listA>",,html-keyboard-response,263,1659144,0.0-17.0-1.9,20545,List2A,black,woman,,,,null,,,,
null,are dancing with each other,,html-keyboard-response,264,1661154,0.0-17.0-2.9,20545,List2A,black,woman,,,,null,,,,
11599,,,survey-text,265,1672758,0.0-17.0-3.9,20545,List2A,black,woman,,,,,"{""Q0"":""Jane and Beth are dancing with each other. ""}","<img src=""stim_listA/dance8.gif""</stim_listA>",are dancing with each other,
null,"<div style=""font-size:60px;"">+</div>",,html-keyboard-response,266,1673274,0.0-17.0-0.10,20545,List2A,black,woman,,,,null,,,,
null,"<img src=""stim_listA/shout4.gif""</stim_listA>",,html-keyboard-response,267,1675284,0.0-17.0-1.10,20545,List2A,black,woman,,,,null,,,,
null,are shouting at each other,,html-keyboard-response,268,1677296,0.0-17.0-2.10,20545,List2A,black,woman,,,,null,,,,
15011,,,survey-text,269,1692310,0.0-17.0-3.10,20545,List2A,black,woman,,,,,"{""Q0"":""Mike and Kate are shouting at each other. ""}","<img src=""stim_listA/shout4.gif""</stim_listA>",are shouting at each other,
null,"<div style=""font-size:60px;"">+</div>",,html-keyboard-response,270,1692824,0.0-17.0-0.11,20545,List2A,black,woman,,,,null,,,,
null,"<img src=""stim_listA/talk7.gif""</stim_listA>",,html-keyboard-response,271,1694844,0.0-17.0-1.11,20545,List2A,black,woman,,,,null,,,,
null,is talking to,,html-keyboard-response,272,1696868,0.0-17.0-2.11,20545,List2A,black,woman,,,,null,,,,
13497,,,survey-text,273,1710367,0.0-17.0-3.11,20545,List2A,black,woman,,,,,"{""Q0"":""Kate is talking to Ruth. ""}","<img src=""stim_listA/talk7.gif""</stim_listA>",is talking to,
null,"<div style=""font-size:60px;"">+</div>",,html-keyboard-response,274,1710873,0.0-17.0-0.12,20545,List2A,black,woman,,,,null,,,,
null,"<img src=""stim_listA/talk4.gif""</stim_listA>",,html-keyboard-response,275,1712883,0.0-17.0-1.12,20545,List2A,black,woman,,,,null,,,,
null,are talking to each other,,html-keyboard-response,276,1714889,0.0-17.0-2.12,20545,List2A,black,woman,,,,null,,,,
10310,,,survey-text,277,1725202,0.0-17.0-3.12,20545,List2A,black,woman,,,,,"{""Q0"":""Mike and Beth are talking to each other. ""}","<img src=""stim_listA/talk4.gif""</stim_listA>",are talking to each other,
null,"<div style=""font-size:60px;"">+</div>",,html-keyboard-response,278,1725718,0.0-17.0-0.13,20545,List2A,black,woman,,,,null,,,,
null,"<img src=""stim_listA/meet3.gif""</stim_listA>",,html-keyboard-response,279,1727745,0.0-17.0-1.13,20545,List2A,black,woman,,,,null,,,,
null,is meeting,,html-keyboard-response,280,1729763,0.0-17.0-2.13,20545,List2A,black,woman,,,,null,,,,
12162,,,survey-text,281,1741929,0.0-17.0-3.13,20545,List2A,black,woman,,,,,"{""Q0"":""Mike is meeting Kate. ""}","<img src=""stim_listA/meet3.gif""</stim_listA>",is meeting,
null,"<div style=""font-size:60px;"">+</div>",,html-keyboard-response,282,1742444,0.0-17.0-0.14,20545,List2A,black,woman,,,,null,,,,
null,"<img src=""stim_listA/touch8.gif""</stim_listA>",,html-keyboard-response,283,1744453,0.0-17.0-1.14,20545,List2A,black,woman,,,,null,,,,
null,are touching each other,,html-keyboard-response,284,1746475,0.0-17.0-2.14,20545,List2A,black,woman,,,,null,,,,
23504,,,survey-text,285,1769981,0.0-17.0-3.14,20545,List2A,black,woman,,,,,"{""Q0"":""Beth and Ruth are touching each other. ""}","<img src=""stim_listA/touch8.gif""</stim_listA>",are touching each other,
null,"<div style=""font-size:60px;"">+</div>",,html-keyboard-response,286,1770493,0.0-17.0-0.15,20545,List2A,black,woman,,,,null,,,,
null,"<img src=""stim_listA/fight2.gif""</stim_listA>",,html-keyboard-response,287,1772514,0.0-17.0-1.15,20545,List2A,black,woman,,,,null,,,,
null,are fighting each other,,html-keyboard-response,288,1774520,0.0-17.0-2.15,20545,List2A,black,woman,,,,null,,,,
15581,,,survey-text,289,1790104,0.0-17.0-3.15,20545,List2A,black,woman,,,,,"{""Q0"":""Ruth and Luke are fighting each other. ""}","<img src=""stim_listA/fight2.gif""</stim_listA>",are fighting each other,
null,"<div style=""font-size:60px;"">+</div>",,html-keyboard-response,290,1790613,0.0-17.0-0.16,20545,List2A,black,woman,,,,null,,,,
null,"<img src=""stim_listA/marry5.gif""</stim_listA>",,html-keyboard-response,291,1792633,0.0-17.0-1.16,20545,List2A,black,woman,,,,null,,,,
null,is marrying,,html-keyboard-response,292,1794655,0.0-17.0-2.16,20545,List2A,black,woman,,,,null,,,,
10008,,,survey-text,293,1804667,0.0-17.0-3.16,20545,List2A,black,woman,,,,,"{""Q0"":""Dave is marrying Fred. ""}","<img src=""stim_listA/marry5.gif""</stim_listA>",is marrying,
null,"<div style=""font-size:60px;"">+</div>",,html-keyboard-response,294,1805184,0.0-17.0-0.17,20545,List2A,black,woman,,,,null,,,,
null,"<img src=""stim_listA/hug4.gif""</stim_listA>",,html-keyboard-response,295,1807204,0.0-17.0-1.17,20545,List2A,black,woman,,,,null,,,,
null,are hugging each other,,html-keyboard-response,296,1809218,0.0-17.0-2.17,20545,List2A,black,woman,,,,null,,,,
17791,,,survey-text,297,1827011,0.0-17.0-3.17,20545,List2A,black,woman,,,,,"{""Q0"":""Mike and Kate are hugging each other. ""}","<img src=""stim_listA/hug4.gif""</stim_listA>",are hugging each other,
null,"<div style=""font-size:60px;"">+</div>",,html-keyboard-response,298,1827524,0.0-17.0-0.18,20545,List2A,black,woman,,,,null,,,,
null,"<img src=""stim_listA/meet4.gif""</stim_listA>",,html-keyboard-response,299,1829534,0.0-17.0-1.18,20545,List2A,black,woman,,,,null,,,,
null,are meeting each other,,html-keyboard-response,300,1831553,0.0-17.0-2.18,20545,List2A,black,woman,,,,null,,,,
21346,,,survey-text,301,1852901,0.0-17.0-3.18,20545,List2A,black,woman,,,,,"{""Q0"":""No one are meeting each other. ""}","<img src=""stim_listA/meet4.gif""</stim_listA>",are meeting each other,
null,"<div style=""font-size:60px;"">+</div>",,html-keyboard-response,302,1853414,0.0-17.0-0.19,20545,List2A,black,woman,,,,null,,,,
null,"<img src=""stim_listA/meet1.gif""</stim_listA>",,html-keyboard-response,303,1855434,0.0-17.0-1.19,20545,List2A,black,woman,,,,null,,,,
null,is meeting,,html-keyboard-response,304,1857443,0.0-17.0-2.19,20545,List2A,black,woman,,,,null,,,,
8770,,,survey-text,305,1866216,0.0-17.0-3.19,20545,List2A,black,woman,,,,,"{""Q0"":""Dave is meeting Jane. ""}","<img src=""stim_listA/meet1.gif""</stim_listA>",is meeting,
47085,"<img src='img/portrait_matrix_list2.JPG' style='width:900px;height:500px;''></img><p>If you have memorised all the portraits and names and are ready to start, press Continue.</p><p><strong>Please note: Your memory of these faces will be tested 4 times during this experiment.</strong></p>",0,html-button-response,306,1913306,0.0-18.0-0.0,20545,List2A,black,woman,,,,,,,,
2395,"<img src=""portrait/WM1.jpg""style=""width:400px;height:400px;""></img>",6,html-button-response,307,1916714,0.0-18.0-1.0,20545,List2A,black,woman,,TRUE,6,,,,,
null,CORRECT,,html-keyboard-response,308,1918255,0.0-18.0-2.0-0.0,20545,List2A,black,woman,,,,null,,,,
1717,"<img src=""portrait/BM2.jpg""style=""width:400px;height:400px;""></img>",5,html-button-response,309,1919981,0.0-18.0-4.0,20545,List2A,black,woman,,TRUE,5,,,,,
null,CORRECT,,html-keyboard-response,310,1921497,0.0-18.0-5.0-0.0,20545,List2A,black,woman,,,,null,,,,
3116,"<img src=""portrait/WW2.jpg""style=""width:400px;height:400px;""></img>",3,html-button-response,311,1924616,0.0-18.0-7.0,20545,List2A,black,woman,,TRUE,3,,,,,
null,CORRECT,,html-keyboard-response,312,1926144,0.0-18.0-8.0-0.0,20545,List2A,black,woman,,,,null,,,,
1945,"<img src=""portrait/BM1.jpg""style=""width:400px;height:400px;""></img>",4,html-button-response,313,1928091,0.0-18.0-10.0,20545,List2A,black,woman,,TRUE,4,,,,,
null,CORRECT,,html-keyboard-response,314,1929611,0.0-18.0-11.0-0.0,20545,List2A,black,woman,,,,null,,,,
3011,"<img src=""portrait/WM2.jpg""style=""width:400px;height:400px;""></img>",7,html-button-response,315,1932628,0.0-18.0-13.0,20545,List2A,black,woman,,TRUE,7,,,,,
null,CORRECT,,html-keyboard-response,316,1934153,0.0-18.0-14.0-0.0,20545,List2A,black,woman,,,,null,,,,
3798,"<img src=""portrait/BW1.jpg""style=""width:400px;height:400px;""></img>",0,html-button-response,317,1937956,0.0-18.0-16.0,20545,List2A,black,woman,,TRUE,0,,,,,
null,CORRECT,,html-keyboard-response,318,1939485,0.0-18.0-17.0-0.0,20545,List2A,black,woman,,,,null,,,,
4657,"<img src=""portrait/WW1.jpg""style=""width:400px;height:400px;""></img>",1,html-button-response,319,1944149,0.0-18.0-19.0,20545,List2A,black,woman,,TRUE,1,,,,,
null,CORRECT,,html-keyboard-response,320,1945684,0.0-18.0-20.0-0.0,20545,List2A,black,woman,,,,null,,,,
8480,"<img src=""portrait/BW2.jpg""style=""width:400px;height:400px;""></img>",2,html-button-response,321,1954169,0.0-18.0-22.0,20545,List2A,black,woman,,TRUE,2,,,,,
null,CORRECT,,html-keyboard-response,322,1955706,0.0-18.0-23.0-0.0,20545,List2A,black,woman,,,,null,,,,
1728,<p>You got 8 out of 8 right first time. Press Continue.</p>,0,html-button-response,323,1957440,0.0-18.0-25.0,20545,List2A,black,woman,,,,,,,,
null,"<div style=""font-size:60px;"">+</div>",,html-keyboard-response,324,1958964,0.0-19.0-0.0,20545,List2A,black,woman,,,,null,,,,
null,"<img src=""stim_listA/hug5.gif""</stim_listA>",,html-keyboard-response,325,1960983,0.0-19.0-1.0,20545,List2A,black,woman,,,,null,,,,
null,is hugging,,html-keyboard-response,326,1962993,0.0-19.0-2.0,20545,List2A,black,woman,,,,null,,,,
13800,,,survey-text,327,1976795,0.0-19.0-3.0,20545,List2A,black,woman,,,,,"{""Q0"":""Fred is hugging Luke. ""}","<img src=""stim_listA/hug5.gif""</stim_listA>",is hugging,
null,"<div style=""font-size:60px;"">+</div>",,html-keyboard-response,328,1977304,0.0-19.0-0.1,20545,List2A,black,woman,,,,null,,,,
null,"<img src=""stim_listA/shout2.gif""</stim_listA>",,html-keyboard-response,329,1979315,0.0-19.0-1.1,20545,List2A,black,woman,,,,null,,,,
null,are shouting at each other,,html-keyboard-response,330,1981334,0.0-19.0-2.1,20545,List2A,black,woman,,,,null,,,,
14772,,,survey-text,331,1996108,0.0-19.0-3.1,20545,List2A,black,woman,,,,,"{""Q0"":""Jane and Dave are shouting at each other. ""}","<img src=""stim_listA/shout2.gif""</stim_listA>",are shouting at each other,
null,"<div style=""font-size:60px;"">+</div>",,html-keyboard-response,332,1996624,0.0-19.0-0.2,20545,List2A,black,woman,,,,null,,,,
null,"<img src=""stim_listA/argue8.gif""</stim_listA>",,html-keyboard-response,333,1998644,0.0-19.0-1.2,20545,List2A,black,woman,,,,null,,,,
null,are arguing with each other,,html-keyboard-response,334,2000655,0.0-19.0-2.2,20545,List2A,black,woman,,,,null,,,,
20537,,,survey-text,335,2021197,0.0-19.0-3.2,20545,List2A,black,woman,,,,,"{""Q0"":""Ruth and Beth are arguing with each other. ""}","<img src=""stim_listA/argue8.gif""</stim_listA>",are arguing with each other,
null,"<div style=""font-size:60px;"">+</div>",,html-keyboard-response,336,2021705,0.0-19.0-0.3,20545,List2A,black,woman,,,,null,,,,
null,"<img src=""stim_listA/meet2.gif""</stim_listA>",,html-keyboard-response,337,2023724,0.0-19.0-1.3,20545,List2A,black,woman,,,,null,,,,
null,are meeting each other,,html-keyboard-response,338,2025733,0.0-19.0-2.3,20545,List2A,black,woman,,,,null,,,,
11551,,,survey-text,339,2037290,0.0-19.0-3.3,20545,List2A,black,woman,,,,,"{""Q0"":""Luke and Ruth are meeting each other. ""}","<img src=""stim_listA/meet2.gif""</stim_listA>",are meeting each other,
null,"<div style=""font-size:60px;"">+</div>",,html-keyboard-response,340,2037804,0.0-19.0-0.4,20545,List2A,black,woman,,,,null,,,,
null,"<img src=""stim_listA/argue1.gif""</stim_listA>",,html-keyboard-response,341,2039824,0.0-19.0-1.4,20545,List2A,black,woman,,,,null,,,,
null,is arguing with,,html-keyboard-response,342,2041836,0.0-19.0-2.4,20545,List2A,black,woman,,,,null,,,,
19530,,,survey-text,343,2061369,0.0-19.0-3.4,20545,List2A,black,woman,,,,,"{""Q0"":""No one is arguing with anyone. ""}","<img src=""stim_listA/argue1.gif""</stim_listA>",is arguing with,
null,"<div style=""font-size:60px;"">+</div>",,html-keyboard-response,344,2061885,0.0-19.0-0.5,20545,List2A,black,woman,,,,null,,,,
null,"<img src=""stim_listA/dance7.gif""</stim_listA>",,html-keyboard-response,345,2063896,0.0-19.0-1.5,20545,List2A,black,woman,,,,null,,,,
null,is dancing with,,html-keyboard-response,346,2065904,0.0-19.0-2.5,20545,List2A,black,woman,,,,null,,,,
16164,,,survey-text,347,2082071,0.0-19.0-3.5,20545,List2A,black,woman,,,,,"{""Q0"":""No one is dancing with anyone. ""}","<img src=""stim_listA/dance7.gif""</stim_listA>",is dancing with,
null,"<div style=""font-size:60px;"">+</div>",,html-keyboard-response,348,2082595,0.0-19.0-0.6,20545,List2A,black,woman,,,,null,,,,
null,"<img src=""stim_listA/talk2.gif""</stim_listA>",,html-keyboard-response,349,2084605,0.0-19.0-1.6,20545,List2A,black,woman,,,,null,,,,
null,are talking to each other,,html-keyboard-response,350,2086616,0.0-19.0-2.6,20545,List2A,black,woman,,,,null,,,,
15108,,,survey-text,351,2101726,0.0-19.0-3.6,20545,List2A,black,woman,,,,,"{""Q0"":""No one is talking to each other. ""}","<img src=""stim_listA/talk2.gif""</stim_listA>",are talking to each other,
null,"<div style=""font-size:60px;"">+</div>",,html-keyboard-response,352,2102233,0.0-19.0-0.7,20545,List2A,black,woman,,,,null,,,,
null,"<img src=""stim_listA/marry6.gif""</stim_listA>",,html-keyboard-response,353,2104243,0.0-19.0-1.7,20545,List2A,black,woman,,,,null,,,,
null,are marrying each other,,html-keyboard-response,354,2106260,0.0-19.0-2.7,20545,List2A,black,woman,,,,null,,,,
17102,,,survey-text,355,2123362,0.0-19.0-3.7,20545,List2A,black,woman,,,,,"{""Q0"":""No one are marrying each other. ""}","<img src=""stim_listA/marry6.gif""</stim_listA>",are marrying each other,
null,"<div style=""font-size:60px;"">+</div>",,html-keyboard-response,356,2123872,0.0-19.0-0.8,20545,List2A,black,woman,,,,null,,,,
null,"<img src=""stim_listA/touch3.gif""</stim_listA>",,html-keyboard-response,357,2125893,0.0-19.0-1.8,20545,List2A,black,woman,,,,null,,,,
null,is touching,,html-keyboard-response,358,2127900,0.0-19.0-2.8,20545,List2A,black,woman,,,,null,,,,
13400,,,survey-text,359,2141300,0.0-19.0-3.8,20545,List2A,black,woman,,,,,"{""Q0"":""Mike is touching Kate. ""}","<img src=""stim_listA/touch3.gif""</stim_listA>",is touching,
null,"<div style=""font-size:60px;"">+</div>",,html-keyboard-response,360,2141813,0.0-19.0-0.9,20545,List2A,black,woman,,,,null,,,,
null,"<img src=""stim_listA/touch1.gif""</stim_listA>",,html-keyboard-response,361,2143832,0.0-19.0-1.9,20545,List2A,black,woman,,,,null,,,,
null,is touching,,html-keyboard-response,362,2145843,0.0-19.0-2.9,20545,List2A,black,woman,,,,null,,,,
15351,,,survey-text,363,2161199,0.0-19.0-3.9,20545,List2A,black,woman,,,,,"{""Q0"":""Dave is touching Jane. ""}","<img src=""stim_listA/touch1.gif""</stim_listA>",is touching,
null,"<div style=""font-size:60px;"">+</div>",,html-keyboard-response,364,2161714,0.0-19.0-0.10,20545,List2A,black,woman,,,,null,,,,
null,"<img src=""stim_listA/kiss2.gif""</stim_listA>",,html-keyboard-response,365,2163733,0.0-19.0-1.10,20545,List2A,black,woman,,,,null,,,,
null,are kissing each other,,html-keyboard-response,366,2165754,0.0-19.0-2.10,20545,List2A,black,woman,,,,null,,,,
23783,,,survey-text,367,2189540,0.0-19.0-3.10,20545,List2A,black,woman,,,,,"{""Q0"":""Dave is kissing Jane. ""}","<img src=""stim_listA/kiss2.gif""</stim_listA>",are kissing each other,
null,"<div style=""font-size:60px;"">+</div>",,html-keyboard-response,368,2190046,0.0-19.0-0.11,20545,List2A,black,woman,,,,null,,,,
null,"<img src=""stim_listA/marry3.gif""</stim_listA>",,html-keyboard-response,369,2192063,0.0-19.0-1.11,20545,List2A,black,woman,,,,null,,,,
null,is marrying,,html-keyboard-response,370,2194083,0.0-19.0-2.11,20545,List2A,black,woman,,,,null,,,,
10053,,,survey-text,371,2204140,0.0-19.0-3.11,20545,List2A,black,woman,,,,,"{""Q0"":""Mike is marrying Beth. ""}","<img src=""stim_listA/marry3.gif""</stim_listA>",is marrying,
null,"<div style=""font-size:60px;"">+</div>",,html-keyboard-response,372,2204666,0.0-19.0-0.12,20545,List2A,black,woman,,,,null,,,,
null,"<img src=""stim_listA/talk3.gif""</stim_listA>",,html-keyboard-response,373,2206686,0.0-19.0-1.12,20545,List2A,black,woman,,,,null,,,,
null,is talking to,,html-keyboard-response,374,2208693,0.0-19.0-2.12,20545,List2A,black,woman,,,,null,,,,
11451,,,survey-text,375,2220148,0.0-19.0-3.12,20545,List2A,black,woman,,,,,"{""Q0"":""Fred is talking to Kate. ""}","<img src=""stim_listA/talk3.gif""</stim_listA>",is talking to,
null,"<div style=""font-size:60px;"">+</div>",,html-keyboard-response,376,2220664,0.0-19.0-0.13,20545,List2A,black,woman,,,,null,,,,
null,"<img src=""stim_listA/fight3.gif""</stim_listA>",,html-keyboard-response,377,2222684,0.0-19.0-1.13,20545,List2A,black,woman,,,,null,,,,
null,is fighting,,html-keyboard-response,378,2224694,0.0-19.0-2.13,20545,List2A,black,woman,,,,null,,,,
10782,,,survey-text,379,2235479,0.0-19.0-3.13,20545,List2A,black,woman,,,,,"{""Q0"":""Mike is fighting Kate. ""}","<img src=""stim_listA/fight3.gif""</stim_listA>",is fighting,
null,"<div style=""font-size:60px;"">+</div>",,html-keyboard-response,380,2235984,0.0-19.0-0.14,20545,List2A,black,woman,,,,null,,,,
null,"<img src=""stim_listA/argue6.gif""</stim_listA>",,html-keyboard-response,381,2238006,0.0-19.0-1.14,20545,List2A,black,woman,,,,null,,,,
null,are arguing with each other,,html-keyboard-response,382,2240023,0.0-19.0-2.14,20545,List2A,black,woman,,,,null,,,,
13085,,,survey-text,383,2253111,0.0-19.0-3.14,20545,List2A,black,woman,,,,,"{""Q0"":""Mike and Luke are fighting with each other. ""}","<img src=""stim_listA/argue6.gif""</stim_listA>",are arguing with each other,
null,"<div style=""font-size:60px;"">+</div>",,html-keyboard-response,384,2253624,0.0-19.0-0.15,20545,List2A,black,woman,,,,null,,,,
null,"<img src=""stim_listA/meet7.gif""</stim_listA>",,html-keyboard-response,385,2255644,0.0-19.0-1.15,20545,List2A,black,woman,,,,null,,,,
null,is meeting,,html-keyboard-response,386,2257658,0.0-19.0-2.15,20545,List2A,black,woman,,,,null,,,,
7942,,,survey-text,387,2265603,0.0-19.0-3.15,20545,List2A,black,woman,,,,,"{""Q0"":""Jane is meeting Kate. ""}","<img src=""stim_listA/meet7.gif""</stim_listA>",is meeting,
null,"<div style=""font-size:60px;"">+</div>",,html-keyboard-response,388,2266114,0.0-19.0-0.16,20545,List2A,black,woman,,,,null,,,,
null,"<img src=""stim_listA/marry8.gif""</stim_listA>",,html-keyboard-response,389,2268133,0.0-19.0-1.16,20545,List2A,black,woman,,,,null,,,,
null,are marrying each other,,html-keyboard-response,390,2270142,0.0-19.0-2.16,20545,List2A,black,woman,,,,null,,,,
15173,,,survey-text,391,2285316,0.0-19.0-3.16,20545,List2A,black,woman,,,,,"{""Q0"":""Ruth and Kate are marrying each other. ""}","<img src=""stim_listA/marry8.gif""</stim_listA>",are marrying each other,
null,"<div style=""font-size:60px;"">+</div>",,html-keyboard-response,392,2285825,0.0-19.0-0.17,20545,List2A,black,woman,,,,null,,,,
null,"<img src=""stim_listA/dance4.gif""</stim_listA>",,html-keyboard-response,393,2287834,0.0-19.0-1.17,20545,List2A,black,woman,,,,null,,,,
null,are dancing with each other,,html-keyboard-response,394,2289841,0.0-19.0-2.17,20545,List2A,black,woman,,,,null,,,,
11007,,,survey-text,395,2300848,0.0-19.0-3.17,20545,List2A,black,woman,,,,,"{""Q0"":""Mike and Beth are dancing with each other. ""}","<img src=""stim_listA/dance4.gif""</stim_listA>",are dancing with each other,
null,"<div style=""font-size:60px;"">+</div>",,html-keyboard-response,396,2301363,0.0-19.0-0.18,20545,List2A,black,woman,,,,null,,,,
null,"<img src=""stim_listA/hug7.gif""</stim_listA>",,html-keyboard-response,397,2303384,0.0-19.0-1.18,20545,List2A,black,woman,,,,null,,,,
null,is hugging,,html-keyboard-response,398,2305395,0.0-19.0-2.18,20545,List2A,black,woman,,,,null,,,,
9081,,,survey-text,399,2314479,0.0-19.0-3.18,20545,List2A,black,woman,,,,,"{""Q0"":""Beth is hugging Ruth. ""}","<img src=""stim_listA/hug7.gif""</stim_listA>",is hugging,
null,"<div style=""font-size:60px;"">+</div>",,html-keyboard-response,400,2315003,0.0-19.0-0.19,20545,List2A,black,woman,,,,null,,,,
null,"<img src=""stim_listA/touch6.gif""</stim_listA>",,html-keyboard-response,401,2317015,0.0-19.0-1.19,20545,List2A,black,woman,,,,null,,,,
null,are touching each other,,html-keyboard-response,402,2319034,0.0-19.0-2.19,20545,List2A,black,woman,,,,null,,,,
11236,,,survey-text,403,2330275,0.0-19.0-3.19,20545,List2A,black,woman,,,,,"{""Q0"":""Fred and Luke are touching each other. ""}","<img src=""stim_listA/touch6.gif""</stim_listA>",are touching each other,
3579,<p>Thank you for completing that task.</p><p>The final part of this session is a short questionnaire.</p><p>Press Continue.</p>,0,html-button-response,404,2333857,0.0-20.0,20545,List2A,black,woman,,,,,,,,
21702,,,survey-text,405,2356573,0.0-21.0,20545,List2A,black,woman,,,,,"{""Q0"":""33"",""Q1"":""english"",""Q2"":""english"",""Q3"":""usa"",""Q4"":""black"",""Q5"":""female""}",,,demographics
46656,,,survey-likert,406,2403241,0.0-22.0,20545,List2A,black,woman,,,,,"{""Q0"":4,""Q1"":4,""Q2"":4,""Q3"":6,""Q4"":6,""Q5"":6,""Q6"":6,""Q7"":4,""Q8"":4,""Q9"":4,""Q10"":3,""Q11"":4,""Q12"":3,""Q13"":3}",,,likert_race
36984,,,survey-likert,407,2440239,0.0-23.0,20545,List2A,black,woman,,,,,"{""Q0"":4,""Q1"":4,""Q2"":6,""Q3"":6,""Q4"":6,""Q5"":5,""Q6"":5,""Q7"":4,""Q8"":5,""Q9"":5,""Q10"":3,""Q11"":3,""Q12"":3,""Q13"":2}",,,likert_gender
10548,,,survey-text,408,2450795,0.0-24.0,20545,List2A,black,woman,,,,,"{""Q0"":""ccc""}",,,worker_id
33380,,,external-html,409,2484498,0.0-25.0,20545,List2A,black,woman,debrief.html,,,,,,,
