rt,stimulus,button_pressed,trial_type,trial_index,time_elapsed,internal_node_id,subject,list,ppt_race,ppt_gender,url,first_guess,correct,key_press,responses,image_type,phrase_type,test_part
221120,Welcome to the experiment. Press Continue to begin.,0,html-button-response,0,221150,0.0-0.0,20985,List1B,black,woman,,,,,,,,
31876,,,external-html,1,254734,0.0-1.0,20985,List1B,black,woman,consent.html,,,,,,,
447224,"<p>On the next page, you will see portraits of 8 people and their names.</p><p>Your first task is to take a few minutes to memorise the names of these people.</p><p>You will have to recall their names during the rest of the experiment, so it is</p><p>essential that you try to memorise these people and their names as best as you can.</p><br><p><strong>You will then be tested on your memory of these names and portraits.</strong></p><br><p>The experiment will start after you have completed this memory test.</p><br><p>Ready?</p>",0,html-button-response,2,702010,0.0-2.0,20985,List1B,black,woman,,,,,,,,
37123,"<img src='img/portrait_matrix_list1.JPG' style='width:900px;height:500px;''></img><p>If you have memorised all the portraits and names and are ready to start, press Continue.</p><p><strong>Please note: Your memory of these faces will be tested 4 times during this experiment.</strong></p>",0,html-button-response,3,740193,0.0-3.0-0.0,20985,List1B,black,woman,,,,,,,,
7898,"<img src=""portrait/WM1.jpg""style=""width:400px;height:400px;""></img>",4,html-button-response,4,749136,0.0-3.0-1.0,20985,List1B,black,woman,,TRUE,6,,,,,
5533,"<img src=""portrait/WM1.jpg""style=""width:400px;height:400px;""></img>",6,html-button-response,5,755711,0.0-3.0-3.0-0.0,20985,List1B,black,woman,,FALSE,6,,,,,
null,CORRECT,,html-keyboard-response,6,757262,0.0-3.0-3.0-1.0-0.0,20985,List1B,black,woman,,,,null,,,,
5303,"<img src=""portrait/BM1.jpg""style=""width:400px;height:400px;""></img>",5,html-button-response,7,762586,0.0-3.0-4.0,20985,List1B,black,woman,,TRUE,4,,,,,
2781,"<img src=""portrait/BM1.jpg""style=""width:400px;height:400px;""></img>",4,html-button-response,8,766400,0.0-3.0-6.0-0.0,20985,List1B,black,woman,,FALSE,4,,,,,
null,CORRECT,,html-keyboard-response,9,767927,0.0-3.0-6.0-1.0-0.0,20985,List1B,black,woman,,,,null,,,,
1809,"<img src=""portrait/WM2.jpg""style=""width:400px;height:400px;""></img>",7,html-button-response,10,769754,0.0-3.0-7.0,20985,List1B,black,woman,,TRUE,7,,,,,
null,CORRECT,,html-keyboard-response,11,771270,0.0-3.0-8.0-0.0,20985,List1B,black,woman,,,,null,,,,
3916,"<img src=""portrait/BM2.jpg""style=""width:400px;height:400px;""></img>",5,html-button-response,12,775205,0.0-3.0-10.0,20985,List1B,black,woman,,TRUE,5,,,,,
null,CORRECT,,html-keyboard-response,13,776724,0.0-3.0-11.0-0.0,20985,List1B,black,woman,,,,null,,,,
2167,"<img src=""portrait/WW1.jpg""style=""width:400px;height:400px;""></img>",3,html-button-response,14,778913,0.0-3.0-13.0,20985,List1B,black,woman,,TRUE,1,,,,,
1998,"<img src=""portrait/WW1.jpg""style=""width:400px;height:400px;""></img>",1,html-button-response,15,781944,0.0-3.0-15.0-0.0,20985,List1B,black,woman,,FALSE,1,,,,,
null,CORRECT,,html-keyboard-response,16,783461,0.0-3.0-15.0-1.0-0.0,20985,List1B,black,woman,,,,null,,,,
6499,"<img src=""portrait/BW1.jpg""style=""width:400px;height:400px;""></img>",0,html-button-response,17,789981,0.0-3.0-16.0,20985,List1B,black,woman,,TRUE,0,,,,,
null,CORRECT,,html-keyboard-response,18,791499,0.0-3.0-17.0-0.0,20985,List1B,black,woman,,,,null,,,,
5485,"<img src=""portrait/BW2.jpg""style=""width:400px;height:400px;""></img>",2,html-button-response,19,797025,0.0-3.0-19.0,20985,List1B,black,woman,,TRUE,2,,,,,
null,CORRECT,,html-keyboard-response,20,798544,0.0-3.0-20.0-0.0,20985,List1B,black,woman,,,,null,,,,
5206,"<img src=""portrait/WW2.jpg""style=""width:400px;height:400px;""></img>",3,html-button-response,21,803771,0.0-3.0-22.0,20985,List1B,black,woman,,TRUE,3,,,,,
null,CORRECT,,html-keyboard-response,22,805287,0.0-3.0-23.0-0.0,20985,List1B,black,woman,,,,null,,,,
3237,<p>You got 5 out of 8 right first time. Press Continue.</p>,0,html-button-response,23,808560,0.0-3.0-25.0,20985,List1B,black,woman,,,,,,,,
3637,"As you did not score 100%, the memory game will repeat. Press Continue.",0,html-button-response,24,813209,0.0-3.0-26.0-0.0,20985,List1B,black,woman,,,,,,,,
15311,"<img src='img/portrait_matrix_list1.JPG' style='width:900px;height:500px;''></img><p>If you have memorised all the portraits and names and are ready to start, press Continue.</p><p><strong>Please note: Your memory of these faces will be tested 4 times during this experiment.</strong></p>",0,html-button-response,25,829562,0.0-3.1-0.1,20985,List1B,black,woman,,,,,,,,
1940,"<img src=""portrait/WM1.jpg""style=""width:400px;height:400px;""></img>",6,html-button-response,26,832531,0.0-3.1-1.1,20985,List1B,black,woman,,TRUE,6,,,,,
null,CORRECT,,html-keyboard-response,27,834047,0.0-3.1-2.1-0.1,20985,List1B,black,woman,,,,null,,,,
12050,"<img src=""portrait/BM1.jpg""style=""width:400px;height:400px;""></img>",4,html-button-response,28,846112,0.0-3.1-4.1,20985,List1B,black,woman,,TRUE,4,,,,,
null,CORRECT,,html-keyboard-response,29,847628,0.0-3.1-5.1-0.1,20985,List1B,black,woman,,,,null,,,,
1677,"<img src=""portrait/WM2.jpg""style=""width:400px;height:400px;""></img>",7,html-button-response,30,849325,0.0-3.1-7.1,20985,List1B,black,woman,,TRUE,7,,,,,
null,CORRECT,,html-keyboard-response,31,850835,0.0-3.1-8.1-0.1,20985,List1B,black,woman,,,,null,,,,
3849,"<img src=""portrait/BM2.jpg""style=""width:400px;height:400px;""></img>",5,html-button-response,32,854702,0.0-3.1-10.1,20985,List1B,black,woman,,TRUE,5,,,,,
null,CORRECT,,html-keyboard-response,33,856221,0.0-3.1-11.1-0.1,20985,List1B,black,woman,,,,null,,,,
7908,"<img src=""portrait/WW1.jpg""style=""width:400px;height:400px;""></img>",1,html-button-response,34,864148,0.0-3.1-13.1,20985,List1B,black,woman,,TRUE,1,,,,,
null,CORRECT,,html-keyboard-response,35,865668,0.0-3.1-14.1-0.1,20985,List1B,black,woman,,,,null,,,,
7140,"<img src=""portrait/BW1.jpg""style=""width:400px;height:400px;""></img>",0,html-button-response,36,872833,0.0-3.1-16.1,20985,List1B,black,woman,,TRUE,0,,,,,
null,CORRECT,,html-keyboard-response,37,874353,0.0-3.1-17.1-0.1,20985,List1B,black,woman,,,,null,,,,
3901,"<img src=""portrait/BW2.jpg""style=""width:400px;height:400px;""></img>",2,html-button-response,38,878277,0.0-3.1-19.1,20985,List1B,black,woman,,TRUE,2,,,,,
null,CORRECT,,html-keyboard-response,39,879795,0.0-3.1-20.1-0.1,20985,List1B,black,woman,,,,null,,,,
8007,"<img src=""portrait/WW2.jpg""style=""width:400px;height:400px;""></img>",1,html-button-response,40,887822,0.0-3.1-22.1,20985,List1B,black,woman,,TRUE,3,,,,,
3617,"<img src=""portrait/WW2.jpg""style=""width:400px;height:400px;""></img>",3,html-button-response,41,892472,0.0-3.1-24.1-0.1,20985,List1B,black,woman,,FALSE,3,,,,,
null,CORRECT,,html-keyboard-response,42,893987,0.0-3.1-24.1-1.1-0.1,20985,List1B,black,woman,,,,null,,,,
1882,<p>You got 7 out of 8 right first time. Press Continue.</p>,0,html-button-response,43,895888,0.0-3.1-25.1,20985,List1B,black,woman,,,,,,,,
2579,"As you did not score 100%, the memory game will repeat. Press Continue.",0,html-button-response,44,899481,0.0-3.1-26.1-0.1,20985,List1B,black,woman,,,,,,,,
5037,"<img src='img/portrait_matrix_list1.JPG' style='width:900px;height:500px;''></img><p>If you have memorised all the portraits and names and are ready to start, press Continue.</p><p><strong>Please note: Your memory of these faces will be tested 4 times during this experiment.</strong></p>",0,html-button-response,45,905536,0.0-3.2-0.2,20985,List1B,black,woman,,,,,,,,
1805,"<img src=""portrait/WM1.jpg""style=""width:400px;height:400px;""></img>",6,html-button-response,46,908368,0.0-3.2-1.2,20985,List1B,black,woman,,TRUE,6,,,,,
null,CORRECT,,html-keyboard-response,47,909884,0.0-3.2-2.2-0.2,20985,List1B,black,woman,,,,null,,,,
7092,"<img src=""portrait/BM1.jpg""style=""width:400px;height:400px;""></img>",4,html-button-response,48,916994,0.0-3.2-4.2,20985,List1B,black,woman,,TRUE,4,,,,,
null,CORRECT,,html-keyboard-response,49,918515,0.0-3.2-5.2-0.2,20985,List1B,black,woman,,,,null,,,,
1596,"<img src=""portrait/WM2.jpg""style=""width:400px;height:400px;""></img>",7,html-button-response,50,920140,0.0-3.2-7.2,20985,List1B,black,woman,,TRUE,7,,,,,
null,CORRECT,,html-keyboard-response,51,921656,0.0-3.2-8.2-0.2,20985,List1B,black,woman,,,,null,,,,
1237,"<img src=""portrait/BM2.jpg""style=""width:400px;height:400px;""></img>",5,html-button-response,52,922916,0.0-3.2-10.2,20985,List1B,black,woman,,TRUE,5,,,,,
null,CORRECT,,html-keyboard-response,53,924433,0.0-3.2-11.2-0.2,20985,List1B,black,woman,,,,null,,,,
3953,"<img src=""portrait/WW1.jpg""style=""width:400px;height:400px;""></img>",1,html-button-response,54,928410,0.0-3.2-13.2,20985,List1B,black,woman,,TRUE,1,,,,,
null,CORRECT,,html-keyboard-response,55,929927,0.0-3.2-14.2-0.2,20985,List1B,black,woman,,,,null,,,,
2517,"<img src=""portrait/BW1.jpg""style=""width:400px;height:400px;""></img>",0,html-button-response,56,932472,0.0-3.2-16.2,20985,List1B,black,woman,,TRUE,0,,,,,
null,CORRECT,,html-keyboard-response,57,933989,0.0-3.2-17.2-0.2,20985,List1B,black,woman,,,,null,,,,
1498,"<img src=""portrait/BW2.jpg""style=""width:400px;height:400px;""></img>",2,html-button-response,58,935514,0.0-3.2-19.2,20985,List1B,black,woman,,TRUE,2,,,,,
null,CORRECT,,html-keyboard-response,59,937029,0.0-3.2-20.2-0.2,20985,List1B,black,woman,,,,null,,,,
1516,"<img src=""portrait/WW2.jpg""style=""width:400px;height:400px;""></img>",3,html-button-response,60,938569,0.0-3.2-22.2,20985,List1B,black,woman,,TRUE,3,,,,,
null,CORRECT,,html-keyboard-response,61,940087,0.0-3.2-23.2-0.2,20985,List1B,black,woman,,,,null,,,,
1279,<p>You got 8 out of 8 right first time. Press Continue.</p>,0,html-button-response,62,941386,0.0-3.2-25.2,20985,List1B,black,woman,,,,,,,,
37508,"<p>In this experiment, you will view photographs of the people from the memory game interacting.</p><p>By using the <strong>exact</strong> phrase given <i>after</i> the photograph appears and recalling the correct names of the people in the photographs, form a sentence describing the interaction. You do not need to capitalise names.</p><p>Type your answer in the space provided. Please complete every sentence before moving onto the next trial.</p><p>You will only have a few seconds to memorise each given photograph and phrase before you can respond, so try your best to focus.</p><p>An example is given below. Press 'Continue' when you are ready.</p><img src='img/speaking_example_v2.jpg' style='width:800px;height:460px;''></img>",0,html-button-response,63,979925,0.0-4.0,20985,List1B,black,woman,,,,,,,,
2703,"<p>Before the experiment starts, you will watch two example trials. Press 'Continue'.</p>",0,html-button-response,64,983643,0.0-5.0,20985,List1B,black,woman,,,,,,,,
null,<img src='img/speaking_WW.gif'></img>,,html-keyboard-response,65,986656,0.0-6.0,20985,List1B,black,woman,,,,null,,,,
null,<p>is speaking to</p>,,html-keyboard-response,66,988668,0.0-7.0,20985,List1B,black,woman,,,,null,,,,
2767,<p><b>Answer:</b> kate is speaking to beth</p>,0,html-button-response,67,991449,0.0-8.0,20985,List1B,black,woman,,,,,,,,
null,<img src='img/pointing_BM.gif'></img>,,html-keyboard-response,68,994471,0.0-9.0,20985,List1B,black,woman,,,,null,,,,
null,<p>are pointing at each other</p>,,html-keyboard-response,69,996483,0.0-10.0,20985,List1B,black,woman,,,,null,,,,
2223,<p><b>Answer:</b> luke and dave are pointing at each other</p>,0,html-button-response,70,998718,0.0-11.0,20985,List1B,black,woman,,,,,,,,
12390,"<p>Ready to start the experiment?</p><br><p><strong>Remember to describe the picture using a full sentence,</strong></p><p><strong>that combines the names of the people with the given phrase.</strong></p><p><strong>If you do not do this correctly you will not be paid.</strong></p><p><strong> You do not need to capitalise names or use punctuation.</strong></p><br><p>Press 'Continue' to begin.</p>",0,html-button-response,71,1012130,0.0-12.0,20985,List1B,black,woman,,,,,,,,
null,"<div style=""font-size:60px;"">+</div>",,html-keyboard-response,72,1013648,0.0-13.0-0.0,20985,List1B,black,woman,,,,null,,,,
null,"<img src=""stim_listB/talk1.gif""</stim_listB>",,html-keyboard-response,73,1015685,0.0-13.0-1.0,20985,List1B,black,woman,,,,null,,,,
null,is talking to,,html-keyboard-response,74,1017698,0.0-13.0-2.0,20985,List1B,black,woman,,,,null,,,,
19801,,,survey-text,75,1037581,0.0-13.0-3.0,20985,List1B,black,woman,,,,,"{""Q0"":""kate is talking to fred""}","<img src=""stim_listB/talk1.gif""</stim_listB>",is talking to,
null,"<div style=""font-size:60px;"">+</div>",,html-keyboard-response,76,1038112,0.0-13.0-0.1,20985,List1B,black,woman,,,,null,,,,
null,"<img src=""stim_listB/talk2.gif""</stim_listB>",,html-keyboard-response,77,1040122,0.0-13.0-1.1,20985,List1B,black,woman,,,,null,,,,
null,are talking to each other,,html-keyboard-response,78,1042130,0.0-13.0-2.1,20985,List1B,black,woman,,,,null,,,,
28283,,,survey-text,79,1070432,0.0-13.0-3.1,20985,List1B,black,woman,,,,,"{""Q0"":""mike and beth are taking to each other""}","<img src=""stim_listB/talk2.gif""</stim_listB>",are talking to each other,
null,"<div style=""font-size:60px;"">+</div>",,html-keyboard-response,80,1070944,0.0-13.0-0.2,20985,List1B,black,woman,,,,null,,,,
null,"<img src=""stim_listB/touch7.gif""</stim_listB>",,html-keyboard-response,81,1072955,0.0-13.0-1.2,20985,List1B,black,woman,,,,null,,,,
null,is touching,,html-keyboard-response,82,1074971,0.0-13.0-2.2,20985,List1B,black,woman,,,,null,,,,
20241,,,survey-text,83,1095227,0.0-13.0-3.2,20985,List1B,black,woman,,,,,"{""Q0"":""ruth and kate are touching""}","<img src=""stim_listB/touch7.gif""</stim_listB>",is touching,
null,"<div style=""font-size:60px;"">+</div>",,html-keyboard-response,84,1095737,0.0-13.0-0.3,20985,List1B,black,woman,,,,null,,,,
null,"<img src=""stim_listB/marry7.gif""</stim_listB>",,html-keyboard-response,85,1097745,0.0-13.0-1.3,20985,List1B,black,woman,,,,null,,,,
null,is marrying,,html-keyboard-response,86,1099759,0.0-13.0-2.3,20985,List1B,black,woman,,,,null,,,,
26099,,,survey-text,87,1125873,0.0-13.0-3.3,20985,List1B,black,woman,,,,,"{""Q0"":""ruth and beth are marrying""}","<img src=""stim_listB/marry7.gif""</stim_listB>",is marrying,
null,"<div style=""font-size:60px;"">+</div>",,html-keyboard-response,88,1126383,0.0-13.0-0.4,20985,List1B,black,woman,,,,null,,,,
null,"<img src=""stim_listB/marry1.gif""</stim_listB>",,html-keyboard-response,89,1128395,0.0-13.0-1.4,20985,List1B,black,woman,,,,null,,,,
null,is marrying,,html-keyboard-response,90,1130405,0.0-13.0-2.4,20985,List1B,black,woman,,,,null,,,,
18054,,,survey-text,91,1148469,0.0-13.0-3.4,20985,List1B,black,woman,,,,,"{""Q0"":""mike and ruth are marrying""}","<img src=""stim_listB/marry1.gif""</stim_listB>",is marrying,
null,"<div style=""font-size:60px;"">+</div>",,html-keyboard-response,92,1148980,0.0-13.0-0.5,20985,List1B,black,woman,,,,null,,,,
null,"<img src=""stim_listB/argue1.gif""</stim_listB>",,html-keyboard-response,93,1150990,0.0-13.0-1.5,20985,List1B,black,woman,,,,null,,,,
null,is arguing with,,html-keyboard-response,94,1152998,0.0-13.0-2.5,20985,List1B,black,woman,,,,null,,,,
26277,,,survey-text,95,1179286,0.0-13.0-3.5,20985,List1B,black,woman,,,,,"{""Q0"":""beth and mike are arguing""}","<img src=""stim_listB/argue1.gif""</stim_listB>",is arguing with,
null,"<div style=""font-size:60px;"">+</div>",,html-keyboard-response,96,1179795,0.0-13.0-0.6,20985,List1B,black,woman,,,,null,,,,
null,"<img src=""stim_listB/touch5.gif""</stim_listB>",,html-keyboard-response,97,1181805,0.0-13.0-1.6,20985,List1B,black,woman,,,,null,,,,
null,is touching,,html-keyboard-response,98,1183815,0.0-13.0-2.6,20985,List1B,black,woman,,,,null,,,,
17531,,,survey-text,99,1201358,0.0-13.0-3.6,20985,List1B,black,woman,,,,,"{""Q0"":""dave is touching mike""}","<img src=""stim_listB/touch5.gif""</stim_listB>",is touching,
null,"<div style=""font-size:60px;"">+</div>",,html-keyboard-response,100,1201869,0.0-13.0-0.7,20985,List1B,black,woman,,,,null,,,,
null,"<img src=""stim_listB/marry8.gif""</stim_listB>",,html-keyboard-response,101,1203878,0.0-13.0-1.7,20985,List1B,black,woman,,,,null,,,,
null,are marrying each other,,html-keyboard-response,102,1205893,0.0-13.0-2.7,20985,List1B,black,woman,,,,null,,,,
23448,,,survey-text,103,1229352,0.0-13.0-3.7,20985,List1B,black,woman,,,,,"{""Q0"":""jane and ruth are marrying each other""}","<img src=""stim_listB/marry8.gif""</stim_listB>",are marrying each other,
null,"<div style=""font-size:60px;"">+</div>",,html-keyboard-response,104,1229866,0.0-13.0-0.8,20985,List1B,black,woman,,,,null,,,,
null,"<img src=""stim_listB/meet4.gif""</stim_listB>",,html-keyboard-response,105,1231875,0.0-13.0-1.8,20985,List1B,black,woman,,,,null,,,,
null,are meeting each other,,html-keyboard-response,106,1233887,0.0-13.0-2.8,20985,List1B,black,woman,,,,null,,,,
34706,,,survey-text,107,1268608,0.0-13.0-3.8,20985,List1B,black,woman,,,,,"{""Q0"":""luke and ruth are marrying each other""}","<img src=""stim_listB/meet4.gif""</stim_listB>",are meeting each other,
null,"<div style=""font-size:60px;"">+</div>",,html-keyboard-response,108,1269120,0.0-13.0-0.9,20985,List1B,black,woman,,,,null,,,,
null,"<img src=""stim_listB/fight1.gif""</stim_listB>",,html-keyboard-response,109,1271130,0.0-13.0-1.9,20985,List1B,black,woman,,,,null,,,,
null,is fighting,,html-keyboard-response,110,1273140,0.0-13.0-2.9,20985,List1B,black,woman,,,,null,,,,
25019,,,survey-text,111,1298170,0.0-13.0-3.9,20985,List1B,black,woman,,,,,"{""Q0"":""kate and mike are fighting each other""}","<img src=""stim_listB/fight1.gif""</stim_listB>",is fighting,
null,"<div style=""font-size:60px;"">+</div>",,html-keyboard-response,112,1298682,0.0-13.0-0.10,20985,List1B,black,woman,,,,null,,,,
null,"<img src=""stim_listB/hug2.gif""</stim_listB>",,html-keyboard-response,113,1300691,0.0-13.0-1.10,20985,List1B,black,woman,,,,null,,,,
null,are hugging each other,,html-keyboard-response,114,1302702,0.0-13.0-2.10,20985,List1B,black,woman,,,,null,,,,
16540,,,survey-text,115,1319254,0.0-13.0-3.10,20985,List1B,black,woman,,,,,"{""Q0"":""mike and kate are hugging each other""}","<img src=""stim_listB/hug2.gif""</stim_listB>",are hugging each other,
null,"<div style=""font-size:60px;"">+</div>",,html-keyboard-response,116,1319765,0.0-13.0-0.11,20985,List1B,black,woman,,,,null,,,,
null,"<img src=""stim_listB/meet1.gif""</stim_listB>",,html-keyboard-response,117,1321777,0.0-13.0-1.11,20985,List1B,black,woman,,,,null,,,,
null,is meeting,,html-keyboard-response,118,1323788,0.0-13.0-2.11,20985,List1B,black,woman,,,,null,,,,
9186,,,survey-text,119,1332984,0.0-13.0-3.11,20985,List1B,black,woman,,,,,"{""Q0"":""kate is meeting mike""}","<img src=""stim_listB/meet1.gif""</stim_listB>",is meeting,
null,"<div style=""font-size:60px;"">+</div>",,html-keyboard-response,120,1333495,0.0-13.0-0.12,20985,List1B,black,woman,,,,null,,,,
null,"<img src=""stim_listB/touch3.gif""</stim_listB>",,html-keyboard-response,121,1335502,0.0-13.0-1.12,20985,List1B,black,woman,,,,null,,,,
null,is touching,,html-keyboard-response,122,1337513,0.0-13.0-2.12,20985,List1B,black,woman,,,,null,,,,
11105,,,survey-text,123,1348630,0.0-13.0-3.12,20985,List1B,black,woman,,,,,"{""Q0"":""ruth is touching luke""}","<img src=""stim_listB/touch3.gif""</stim_listB>",is touching,
null,"<div style=""font-size:60px;"">+</div>",,html-keyboard-response,124,1349162,0.0-13.0-0.13,20985,List1B,black,woman,,,,null,,,,
null,"<img src=""stim_listB/dance3.gif""</stim_listB>",,html-keyboard-response,125,1351175,0.0-13.0-1.13,20985,List1B,black,woman,,,,null,,,,
null,is dancing with,,html-keyboard-response,126,1353187,0.0-13.0-2.13,20985,List1B,black,woman,,,,null,,,,
15900,,,survey-text,127,1369101,0.0-13.0-3.13,20985,List1B,black,woman,,,,,"{""Q0"":""ruth is dancing with dave""}","<img src=""stim_listB/dance3.gif""</stim_listB>",is dancing with,
null,"<div style=""font-size:60px;"">+</div>",,html-keyboard-response,128,1369615,0.0-13.0-0.14,20985,List1B,black,woman,,,,null,,,,
null,"<img src=""stim_listB/talk8.gif""</stim_listB>",,html-keyboard-response,129,1371624,0.0-13.0-1.14,20985,List1B,black,woman,,,,null,,,,
null,are talking to each other,,html-keyboard-response,130,1373635,0.0-13.0-2.14,20985,List1B,black,woman,,,,null,,,,
23671,,,survey-text,131,1397320,0.0-13.0-3.14,20985,List1B,black,woman,,,,,"{""Q0"":""kate and jane are talking to each other""}","<img src=""stim_listB/talk8.gif""</stim_listB>",are talking to each other,
null,"<div style=""font-size:60px;"">+</div>",,html-keyboard-response,132,1397840,0.0-13.0-0.15,20985,List1B,black,woman,,,,null,,,,
null,"<img src=""stim_listB/shout7.gif""</stim_listB>",,html-keyboard-response,133,1399849,0.0-13.0-1.15,20985,List1B,black,woman,,,,null,,,,
null,is shouting at,,html-keyboard-response,134,1401863,0.0-13.0-2.15,20985,List1B,black,woman,,,,null,,,,
13710,,,survey-text,135,1415592,0.0-13.0-3.15,20985,List1B,black,woman,,,,,"{""Q0"":""jane is shouting at beth""}","<img src=""stim_listB/shout7.gif""</stim_listB>",is shouting at,
null,"<div style=""font-size:60px;"">+</div>",,html-keyboard-response,136,1416104,0.0-13.0-0.16,20985,List1B,black,woman,,,,null,,,,
null,"<img src=""stim_listB/touch8.gif""</stim_listB>",,html-keyboard-response,137,1418122,0.0-13.0-1.16,20985,List1B,black,woman,,,,null,,,,
null,are touching each other,,html-keyboard-response,138,1420138,0.0-13.0-2.16,20985,List1B,black,woman,,,,null,,,,
17004,,,survey-text,139,1437161,0.0-13.0-3.16,20985,List1B,black,woman,,,,,"{""Q0"":""beth and jane are touching each other""}","<img src=""stim_listB/touch8.gif""</stim_listB>",are touching each other,
null,"<div style=""font-size:60px;"">+</div>",,html-keyboard-response,140,1437671,0.0-13.0-0.17,20985,List1B,black,woman,,,,null,,,,
null,"<img src=""stim_listB/dance4.gif""</stim_listB>",,html-keyboard-response,141,1439685,0.0-13.0-1.17,20985,List1B,black,woman,,,,null,,,,
null,are dancing with each other,,html-keyboard-response,142,1441694,0.0-13.0-2.17,20985,List1B,black,woman,,,,null,,,,
26449,,,survey-text,143,1468151,0.0-13.0-3.17,20985,List1B,black,woman,,,,,"{""Q0"":""luke and jane are dancing with eachotherh other""}","<img src=""stim_listB/dance4.gif""</stim_listB>",are dancing with each other,
null,"<div style=""font-size:60px;"">+</div>",,html-keyboard-response,144,1468659,0.0-13.0-0.18,20985,List1B,black,woman,,,,null,,,,
null,"<img src=""stim_listB/argue2.gif""</stim_listB>",,html-keyboard-response,145,1470666,0.0-13.0-1.18,20985,List1B,black,woman,,,,null,,,,
null,are arguing with each other,,html-keyboard-response,146,1472675,0.0-13.0-2.18,20985,List1B,black,woman,,,,null,,,,
30851,,,survey-text,147,1503537,0.0-13.0-3.18,20985,List1B,black,woman,,,,,"{""Q0"":""fred and kate are arguing with each other""}","<img src=""stim_listB/argue2.gif""</stim_listB>",are arguing with each other,
null,"<div style=""font-size:60px;"">+</div>",,html-keyboard-response,148,1504049,0.0-13.0-0.19,20985,List1B,black,woman,,,,null,,,,
null,"<img src=""stim_listB/meet8.gif""</stim_listB>",,html-keyboard-response,149,1506060,0.0-13.0-1.19,20985,List1B,black,woman,,,,null,,,,
null,are meeting each other,,html-keyboard-response,150,1508073,0.0-13.0-2.19,20985,List1B,black,woman,,,,null,,,,
15982,,,survey-text,151,1524069,0.0-13.0-3.19,20985,List1B,black,woman,,,,,"{""Q0"":""beth and jane meet each other""}","<img src=""stim_listB/meet8.gif""</stim_listB>",are meeting each other,
36828,"<img src='img/portrait_matrix_list1.JPG' style='width:900px;height:500px;''></img><p>If you have memorised all the portraits and names and are ready to start, press Continue.</p><p><strong>Please note: Your memory of these faces will be tested 4 times during this experiment.</strong></p>",0,html-button-response,152,1560925,0.0-14.0-0.0,20985,List1B,black,woman,,,,,,,,
5783,"<img src=""portrait/BW2.jpg""style=""width:400px;height:400px;""></img>",0,html-button-response,153,1567755,0.0-14.0-1.0,20985,List1B,black,woman,,TRUE,2,,,,,
5508,"<img src=""portrait/BW2.jpg""style=""width:400px;height:400px;""></img>",2,html-button-response,154,1574305,0.0-14.0-3.0-0.0,20985,List1B,black,woman,,FALSE,2,,,,,
null,CORRECT,,html-keyboard-response,155,1575849,0.0-14.0-3.0-1.0-0.0,20985,List1B,black,woman,,,,null,,,,
1612,"<img src=""portrait/BW1.jpg""style=""width:400px;height:400px;""></img>",0,html-button-response,156,1577484,0.0-14.0-4.0,20985,List1B,black,woman,,TRUE,0,,,,,
null,CORRECT,,html-keyboard-response,157,1579005,0.0-14.0-5.0-0.0,20985,List1B,black,woman,,,,null,,,,
3397,"<img src=""portrait/WW2.jpg""style=""width:400px;height:400px;""></img>",3,html-button-response,158,1582425,0.0-14.0-7.0,20985,List1B,black,woman,,TRUE,3,,,,,
null,CORRECT,,html-keyboard-response,159,1583934,0.0-14.0-8.0-0.0,20985,List1B,black,woman,,,,null,,,,
1595,"<img src=""portrait/WM2.jpg""style=""width:400px;height:400px;""></img>",7,html-button-response,160,1585552,0.0-14.0-10.0,20985,List1B,black,woman,,TRUE,7,,,,,
null,CORRECT,,html-keyboard-response,161,1587065,0.0-14.0-11.0-0.0,20985,List1B,black,woman,,,,null,,,,
2024,"<img src=""portrait/BM1.jpg""style=""width:400px;height:400px;""></img>",4,html-button-response,162,1589111,0.0-14.0-13.0,20985,List1B,black,woman,,TRUE,4,,,,,
null,CORRECT,,html-keyboard-response,163,1590630,0.0-14.0-14.0-0.0,20985,List1B,black,woman,,,,null,,,,
2059,"<img src=""portrait/BM2.jpg""style=""width:400px;height:400px;""></img>",5,html-button-response,164,1592715,0.0-14.0-16.0,20985,List1B,black,woman,,TRUE,5,,,,,
null,CORRECT,,html-keyboard-response,165,1594233,0.0-14.0-17.0-0.0,20985,List1B,black,woman,,,,null,,,,
4024,"<img src=""portrait/WW1.jpg""style=""width:400px;height:400px;""></img>",1,html-button-response,166,1598285,0.0-14.0-19.0,20985,List1B,black,woman,,TRUE,1,,,,,
null,CORRECT,,html-keyboard-response,167,1599805,0.0-14.0-20.0-0.0,20985,List1B,black,woman,,,,null,,,,
2255,"<img src=""portrait/WM1.jpg""style=""width:400px;height:400px;""></img>",6,html-button-response,168,1602081,0.0-14.0-22.0,20985,List1B,black,woman,,TRUE,6,,,,,
null,CORRECT,,html-keyboard-response,169,1603599,0.0-14.0-23.0-0.0,20985,List1B,black,woman,,,,null,,,,
2062,<p>You got 7 out of 8 right first time. Press Continue.</p>,0,html-button-response,170,1605685,0.0-14.0-25.0,20985,List1B,black,woman,,,,,,,,
1625,"As you did not score 100%, the memory game will repeat. Press Continue.",0,html-button-response,171,1608333,0.0-14.0-26.0-0.0,20985,List1B,black,woman,,,,,,,,
1966,"<img src='img/portrait_matrix_list1.JPG' style='width:900px;height:500px;''></img><p>If you have memorised all the portraits and names and are ready to start, press Continue.</p><p><strong>Please note: Your memory of these faces will be tested 4 times during this experiment.</strong></p>",0,html-button-response,172,1611334,0.0-14.1-0.1,20985,List1B,black,woman,,,,,,,,
4558,"<img src=""portrait/BW2.jpg""style=""width:400px;height:400px;""></img>",2,html-button-response,173,1616915,0.0-14.1-1.1,20985,List1B,black,woman,,TRUE,2,,,,,
null,CORRECT,,html-keyboard-response,174,1618429,0.0-14.1-2.1-0.1,20985,List1B,black,woman,,,,null,,,,
1245,"<img src=""portrait/BW1.jpg""style=""width:400px;height:400px;""></img>",0,html-button-response,175,1619702,0.0-14.1-4.1,20985,List1B,black,woman,,TRUE,0,,,,,
null,CORRECT,,html-keyboard-response,176,1621223,0.0-14.1-5.1-0.1,20985,List1B,black,woman,,,,null,,,,
1418,"<img src=""portrait/WW2.jpg""style=""width:400px;height:400px;""></img>",3,html-button-response,177,1622665,0.0-14.1-7.1,20985,List1B,black,woman,,TRUE,3,,,,,
null,CORRECT,,html-keyboard-response,178,1624185,0.0-14.1-8.1-0.1,20985,List1B,black,woman,,,,null,,,,
1274,"<img src=""portrait/WM2.jpg""style=""width:400px;height:400px;""></img>",7,html-button-response,179,1625483,0.0-14.1-10.1,20985,List1B,black,woman,,TRUE,7,,,,,
null,CORRECT,,html-keyboard-response,180,1626997,0.0-14.1-11.1-0.1,20985,List1B,black,woman,,,,null,,,,
2143,"<img src=""portrait/BM1.jpg""style=""width:400px;height:400px;""></img>",4,html-button-response,181,1629168,0.0-14.1-13.1,20985,List1B,black,woman,,TRUE,4,,,,,
null,CORRECT,,html-keyboard-response,182,1630687,0.0-14.1-14.1-0.1,20985,List1B,black,woman,,,,null,,,,
1087,"<img src=""portrait/BM2.jpg""style=""width:400px;height:400px;""></img>",5,html-button-response,183,1631799,0.0-14.1-16.1,20985,List1B,black,woman,,TRUE,5,,,,,
null,CORRECT,,html-keyboard-response,184,1633315,0.0-14.1-17.1-0.1,20985,List1B,black,woman,,,,null,,,,
6781,"<img src=""portrait/WW1.jpg""style=""width:400px;height:400px;""></img>",1,html-button-response,185,1640109,0.0-14.1-19.1,20985,List1B,black,woman,,TRUE,1,,,,,
null,CORRECT,,html-keyboard-response,186,1641625,0.0-14.1-20.1-0.1,20985,List1B,black,woman,,,,null,,,,
1486,"<img src=""portrait/WM1.jpg""style=""width:400px;height:400px;""></img>",6,html-button-response,187,1643133,0.0-14.1-22.1,20985,List1B,black,woman,,TRUE,6,,,,,
null,CORRECT,,html-keyboard-response,188,1644650,0.0-14.1-23.1-0.1,20985,List1B,black,woman,,,,null,,,,
1152,<p>You got 8 out of 8 right first time. Press Continue.</p>,0,html-button-response,189,1645825,0.0-14.1-25.1,20985,List1B,black,woman,,,,,,,,
null,"<div style=""font-size:60px;"">+</div>",,html-keyboard-response,190,1647356,0.0-15.0-0.0,20985,List1B,black,woman,,,,null,,,,
null,"<img src=""stim_listB/hug4.gif""</stim_listB>",,html-keyboard-response,191,1649373,0.0-15.0-1.0,20985,List1B,black,woman,,,,null,,,,
null,are hugging each other,,html-keyboard-response,192,1651386,0.0-15.0-2.0,20985,List1B,black,woman,,,,null,,,,
24769,,,survey-text,193,1676255,0.0-15.0-3.0,20985,List1B,black,woman,,,,,"{""Q0"":""dave and jane are hugging each other""}","<img src=""stim_listB/hug4.gif""</stim_listB>",are hugging each other,
null,"<div style=""font-size:60px;"">+</div>",,html-keyboard-response,194,1676770,0.0-15.0-0.1,20985,List1B,black,woman,,,,null,,,,
null,"<img src=""stim_listB/dance5.gif""</stim_listB>",,html-keyboard-response,195,1678783,0.0-15.0-1.1,20985,List1B,black,woman,,,,null,,,,
null,is dancing with,,html-keyboard-response,196,1680795,0.0-15.0-2.1,20985,List1B,black,woman,,,,null,,,,
17383,,,survey-text,197,1698193,0.0-15.0-3.1,20985,List1B,black,woman,,,,,"{""Q0"":""dave is dancing with fred""}","<img src=""stim_listB/dance5.gif""</stim_listB>",is dancing with,
null,"<div style=""font-size:60px;"">+</div>",,html-keyboard-response,198,1698706,0.0-15.0-0.2,20985,List1B,black,woman,,,,null,,,,
null,"<img src=""stim_listB/dance8.gif""</stim_listB>",,html-keyboard-response,199,1700715,0.0-15.0-1.2,20985,List1B,black,woman,,,,null,,,,
null,are dancing with each other,,html-keyboard-response,200,1702726,0.0-15.0-2.2,20985,List1B,black,woman,,,,null,,,,
22314,,,survey-text,201,1725053,0.0-15.0-3.2,20985,List1B,black,woman,,,,,"{""Q0"":""kate and ruth are dancing""}","<img src=""stim_listB/dance8.gif""</stim_listB>",are dancing with each other,
null,"<div style=""font-size:60px;"">+</div>",,html-keyboard-response,202,1725567,0.0-15.0-0.3,20985,List1B,black,woman,,,,null,,,,
null,"<img src=""stim_listB/talk6.gif""</stim_listB>",,html-keyboard-response,203,1727577,0.0-15.0-1.3,20985,List1B,black,woman,,,,null,,,,
null,are talking to each other,,html-keyboard-response,204,1729589,0.0-15.0-2.3,20985,List1B,black,woman,,,,null,,,,
21758,,,survey-text,205,1751360,0.0-15.0-3.3,20985,List1B,black,woman,,,,,"{""Q0"":""mike and luke are talking to each other""}","<img src=""stim_listB/talk6.gif""</stim_listB>",are talking to each other,
null,"<div style=""font-size:60px;"">+</div>",,html-keyboard-response,206,1751870,0.0-15.0-0.4,20985,List1B,black,woman,,,,null,,,,
null,"<img src=""stim_listB/talk4.gif""</stim_listB>",,html-keyboard-response,207,1753882,0.0-15.0-1.4,20985,List1B,black,woman,,,,null,,,,
null,are talking to each other,,html-keyboard-response,208,1755895,0.0-15.0-2.4,20985,List1B,black,woman,,,,null,,,,
23277,,,survey-text,209,1779186,0.0-15.0-3.4,20985,List1B,black,woman,,,,,"{""Q0"":""dave and ruth are talking to each other""}","<img src=""stim_listB/talk4.gif""</stim_listB>",are talking to each other,
null,"<div style=""font-size:60px;"">+</div>",,html-keyboard-response,210,1779694,0.0-15.0-0.5,20985,List1B,black,woman,,,,null,,,,
null,"<img src=""stim_listB/shout2.gif""</stim_listB>",,html-keyboard-response,211,1781709,0.0-15.0-1.5,20985,List1B,black,woman,,,,null,,,,
null,are shouting at each other,,html-keyboard-response,212,1783722,0.0-15.0-2.5,20985,List1B,black,woman,,,,null,,,,
19893,,,survey-text,213,1803630,0.0-15.0-3.5,20985,List1B,black,woman,,,,,"{""Q0"":""mike and Kate are shouting at each other""}","<img src=""stim_listB/shout2.gif""</stim_listB>",are shouting at each other,
null,"<div style=""font-size:60px;"">+</div>",,html-keyboard-response,214,1804141,0.0-15.0-0.6,20985,List1B,black,woman,,,,null,,,,
null,"<img src=""stim_listB/argue3.gif""</stim_listB>",,html-keyboard-response,215,1806153,0.0-15.0-1.6,20985,List1B,black,woman,,,,null,,,,
null,is arguing with,,html-keyboard-response,216,1808169,0.0-15.0-2.6,20985,List1B,black,woman,,,,null,,,,
13753,,,survey-text,217,1821933,0.0-15.0-3.6,20985,List1B,black,woman,,,,,"{""Q0"":""ruth is arguing with dave""}","<img src=""stim_listB/argue3.gif""</stim_listB>",is arguing with,
null,"<div style=""font-size:60px;"">+</div>",,html-keyboard-response,218,1822445,0.0-15.0-0.7,20985,List1B,black,woman,,,,null,,,,
null,"<img src=""stim_listB/touch1.gif""</stim_listB>",,html-keyboard-response,219,1824455,0.0-15.0-1.7,20985,List1B,black,woman,,,,null,,,,
null,is touching,,html-keyboard-response,220,1826467,0.0-15.0-2.7,20985,List1B,black,woman,,,,null,,,,
16695,,,survey-text,221,1843174,0.0-15.0-3.7,20985,List1B,black,woman,,,,,"{""Q0"":""kate is touching mike""}","<img src=""stim_listB/touch1.gif""</stim_listB>",is touching,
null,"<div style=""font-size:60px;"">+</div>",,html-keyboard-response,222,1843692,0.0-15.0-0.8,20985,List1B,black,woman,,,,null,,,,
null,"<img src=""stim_listB/shout6.gif""</stim_listB>",,html-keyboard-response,223,1845703,0.0-15.0-1.8,20985,List1B,black,woman,,,,null,,,,
null,are shouting at each other,,html-keyboard-response,224,1847714,0.0-15.0-2.8,20985,List1B,black,woman,,,,null,,,,
17308,,,survey-text,225,1865038,0.0-15.0-3.8,20985,List1B,black,woman,,,,,"{""Q0"":""mike and dave are shouting at each other""}","<img src=""stim_listB/shout6.gif""</stim_listB>",are shouting at each other,
null,"<div style=""font-size:60px;"">+</div>",,html-keyboard-response,226,1865552,0.0-15.0-0.9,20985,List1B,black,woman,,,,null,,,,
null,"<img src=""stim_listB/hug8.gif""</stim_listB>",,html-keyboard-response,227,1867565,0.0-15.0-1.9,20985,List1B,black,woman,,,,null,,,,
null,are hugging each other,,html-keyboard-response,228,1869574,0.0-15.0-2.9,20985,List1B,black,woman,,,,null,,,,
15754,,,survey-text,229,1885343,0.0-15.0-3.9,20985,List1B,black,woman,,,,,"{""Q0"":""jane and kate are hugging each other""}","<img src=""stim_listB/hug8.gif""</stim_listB>",are hugging each other,
null,"<div style=""font-size:60px;"">+</div>",,html-keyboard-response,230,1885856,0.0-15.0-0.10,20985,List1B,black,woman,,,,null,,,,
null,"<img src=""stim_listB/kiss3.gif""</stim_listB>",,html-keyboard-response,231,1887866,0.0-15.0-1.10,20985,List1B,black,woman,,,,null,,,,
null,is kissing,,html-keyboard-response,232,1889883,0.0-15.0-2.10,20985,List1B,black,woman,,,,null,,,,
11033,,,survey-text,233,1900931,0.0-15.0-3.10,20985,List1B,black,woman,,,,,"{""Q0"":""ruth is kissing dave""}","<img src=""stim_listB/kiss3.gif""</stim_listB>",is kissing,
null,"<div style=""font-size:60px;"">+</div>",,html-keyboard-response,234,1901461,0.0-15.0-0.11,20985,List1B,black,woman,,,,null,,,,
null,"<img src=""stim_listB/talk7.gif""</stim_listB>",,html-keyboard-response,235,1903477,0.0-15.0-1.11,20985,List1B,black,woman,,,,null,,,,
null,is talking to,,html-keyboard-response,236,1905490,0.0-15.0-2.11,20985,List1B,black,woman,,,,null,,,,
13400,,,survey-text,237,1918913,0.0-15.0-3.11,20985,List1B,black,woman,,,,,"{""Q0"":""jane is taking to beth""}","<img src=""stim_listB/talk7.gif""</stim_listB>",is talking to,
null,"<div style=""font-size:60px;"">+</div>",,html-keyboard-response,238,1919426,0.0-15.0-0.12,20985,List1B,black,woman,,,,null,,,,
null,"<img src=""stim_listB/fight2.gif""</stim_listB>",,html-keyboard-response,239,1921440,0.0-15.0-1.12,20985,List1B,black,woman,,,,null,,,,
null,are fighting each other,,html-keyboard-response,240,1923453,0.0-15.0-2.12,20985,List1B,black,woman,,,,null,,,,
24203,,,survey-text,241,1947674,0.0-15.0-3.12,20985,List1B,black,woman,,,,,"{""Q0"":""fred and beth are fighting each other""}","<img src=""stim_listB/fight2.gif""</stim_listB>",are fighting each other,
null,"<div style=""font-size:60px;"">+</div>",,html-keyboard-response,242,1948186,0.0-15.0-0.13,20985,List1B,black,woman,,,,null,,,,
null,"<img src=""stim_listB/kiss6.gif""</stim_listB>",,html-keyboard-response,243,1950197,0.0-15.0-1.13,20985,List1B,black,woman,,,,null,,,,
null,are kissing each other,,html-keyboard-response,244,1952208,0.0-15.0-2.13,20985,List1B,black,woman,,,,null,,,,
24678,,,survey-text,245,1976903,0.0-15.0-3.13,20985,List1B,black,woman,,,,,"{""Q0"":""mike and dave are kissing each other""}","<img src=""stim_listB/kiss6.gif""</stim_listB>",are kissing each other,
null,"<div style=""font-size:60px;"">+</div>",,html-keyboard-response,246,1977417,0.0-15.0-0.14,20985,List1B,black,woman,,,,null,,,,
null,"<img src=""stim_listB/shout4.gif""</stim_listB>",,html-keyboard-response,247,1979427,0.0-15.0-1.14,20985,List1B,black,woman,,,,null,,,,
null,are shouting at each other,,html-keyboard-response,248,1981440,0.0-15.0-2.14,20985,List1B,black,woman,,,,null,,,,
17873,,,survey-text,249,1999332,0.0-15.0-3.14,20985,List1B,black,woman,,,,,"{""Q0"":""dave and ruth are fighting each other""}","<img src=""stim_listB/shout4.gif""</stim_listB>",are shouting at each other,
null,"<div style=""font-size:60px;"">+</div>",,html-keyboard-response,250,1999841,0.0-15.0-0.15,20985,List1B,black,woman,,,,null,,,,
null,"<img src=""stim_listB/hug5.gif""</stim_listB>",,html-keyboard-response,251,2001854,0.0-15.0-1.15,20985,List1B,black,woman,,,,null,,,,
null,is hugging,,html-keyboard-response,252,2003866,0.0-15.0-2.15,20985,List1B,black,woman,,,,null,,,,
28956,,,survey-text,253,2032835,0.0-15.0-3.15,20985,List1B,black,woman,,,,,"{""Q0"":""luke and fred are hugging each other""}","<img src=""stim_listB/hug5.gif""</stim_listB>",is hugging,
null,"<div style=""font-size:60px;"">+</div>",,html-keyboard-response,254,2033354,0.0-15.0-0.16,20985,List1B,black,woman,,,,null,,,,
null,"<img src=""stim_listB/argue8.gif""</stim_listB>",,html-keyboard-response,255,2035367,0.0-15.0-1.16,20985,List1B,black,woman,,,,null,,,,
null,are arguing with each other,,html-keyboard-response,256,2037381,0.0-15.0-2.16,20985,List1B,black,woman,,,,null,,,,
26899,,,survey-text,257,2064298,0.0-15.0-3.16,20985,List1B,black,woman,,,,,"{""Q0"":""beth and ruth are arguing with each other""}","<img src=""stim_listB/argue8.gif""</stim_listB>",are arguing with each other,
null,"<div style=""font-size:60px;"">+</div>",,html-keyboard-response,258,2064834,0.0-15.0-0.17,20985,List1B,black,woman,,,,null,,,,
null,"<img src=""stim_listB/marry2.gif""</stim_listB>",,html-keyboard-response,259,2066846,0.0-15.0-1.17,20985,List1B,black,woman,,,,null,,,,
null,are marrying each other,,html-keyboard-response,260,2068860,0.0-15.0-2.17,20985,List1B,black,woman,,,,null,,,,
18903,,,survey-text,261,2087782,0.0-15.0-3.17,20985,List1B,black,woman,,,,,"{""Q0"":""fred and kate are marrying each other""}","<img src=""stim_listB/marry2.gif""</stim_listB>",are marrying each other,
null,"<div style=""font-size:60px;"">+</div>",,html-keyboard-response,262,2088296,0.0-15.0-0.18,20985,List1B,black,woman,,,,null,,,,
null,"<img src=""stim_listB/marry3.gif""</stim_listB>",,html-keyboard-response,263,2090321,0.0-15.0-1.18,20985,List1B,black,woman,,,,null,,,,
null,is marrying,,html-keyboard-response,264,2092334,0.0-15.0-2.18,20985,List1B,black,woman,,,,null,,,,
18910,,,survey-text,265,2111274,0.0-15.0-3.18,20985,List1B,black,woman,,,,,"{""Q0"":""ruth is marrying dave""}","<img src=""stim_listB/marry3.gif""</stim_listB>",is marrying,
null,"<div style=""font-size:60px;"">+</div>",,html-keyboard-response,266,2111788,0.0-15.0-0.19,20985,List1B,black,woman,,,,null,,,,
null,"<img src=""stim_listB/shout8.gif""</stim_listB>",,html-keyboard-response,267,2113802,0.0-15.0-1.19,20985,List1B,black,woman,,,,null,,,,
null,are shouting at each other,,html-keyboard-response,268,2115817,0.0-15.0-2.19,20985,List1B,black,woman,,,,null,,,,
20100,,,survey-text,269,2135934,0.0-15.0-3.19,20985,List1B,black,woman,,,,,"{""Q0"":""kate and ruth are shouting at each other""}","<img src=""stim_listB/shout8.gif""</stim_listB>",are shouting at each other,
28126,"<img src='img/portrait_matrix_list1.JPG' style='width:900px;height:500px;''></img><p>If you have memorised all the portraits and names and are ready to start, press Continue.</p><p><strong>Please note: Your memory of these faces will be tested 4 times during this experiment.</strong></p>",0,html-button-response,270,2164089,0.0-16.0-0.0,20985,List1B,black,woman,,,,,,,,
2165,"<img src=""portrait/WM1.jpg""style=""width:400px;height:400px;""></img>",6,html-button-response,271,2167313,0.0-16.0-1.0,20985,List1B,black,woman,,TRUE,6,,,,,
null,CORRECT,,html-keyboard-response,272,2168867,0.0-16.0-2.0-0.0,20985,List1B,black,woman,,,,null,,,,
2547,"<img src=""portrait/BW1.jpg""style=""width:400px;height:400px;""></img>",0,html-button-response,273,2171439,0.0-16.0-4.0,20985,List1B,black,woman,,TRUE,0,,,,,
null,CORRECT,,html-keyboard-response,274,2172950,0.0-16.0-5.0-0.0,20985,List1B,black,woman,,,,null,,,,
1886,"<img src=""portrait/WW1.jpg""style=""width:400px;height:400px;""></img>",1,html-button-response,275,2174851,0.0-16.0-7.0,20985,List1B,black,woman,,TRUE,1,,,,,
null,CORRECT,,html-keyboard-response,276,2180265,0.0-16.0-8.0-0.0,20985,List1B,black,woman,,,,null,,,,
1848,"<img src=""portrait/BW2.jpg""style=""width:400px;height:400px;""></img>",2,html-button-response,277,2182145,0.0-16.0-10.0,20985,List1B,black,woman,,TRUE,2,,,,,
null,CORRECT,,html-keyboard-response,278,2183688,0.0-16.0-11.0-0.0,20985,List1B,black,woman,,,,null,,,,
1670,"<img src=""portrait/WM2.jpg""style=""width:400px;height:400px;""></img>",7,html-button-response,279,2185396,0.0-16.0-13.0,20985,List1B,black,woman,,TRUE,7,,,,,
null,CORRECT,,html-keyboard-response,280,2186923,0.0-16.0-14.0-0.0,20985,List1B,black,woman,,,,null,,,,
1486,"<img src=""portrait/BM2.jpg""style=""width:400px;height:400px;""></img>",5,html-button-response,281,2188436,0.0-16.0-16.0,20985,List1B,black,woman,,TRUE,5,,,,,
null,CORRECT,,html-keyboard-response,282,2189953,0.0-16.0-17.0-0.0,20985,List1B,black,woman,,,,null,,,,
1578,"<img src=""portrait/WW2.jpg""style=""width:400px;height:400px;""></img>",3,html-button-response,283,2191564,0.0-16.0-19.0,20985,List1B,black,woman,,TRUE,3,,,,,
null,CORRECT,,html-keyboard-response,284,2193086,0.0-16.0-20.0-0.0,20985,List1B,black,woman,,,,null,,,,
2413,"<img src=""portrait/BM1.jpg""style=""width:400px;height:400px;""></img>",4,html-button-response,285,2195528,0.0-16.0-22.0,20985,List1B,black,woman,,TRUE,4,,,,,
null,CORRECT,,html-keyboard-response,286,2197041,0.0-16.0-23.0-0.0,20985,List1B,black,woman,,,,null,,,,
1109,<p>You got 8 out of 8 right first time. Press Continue.</p>,0,html-button-response,287,2198185,0.0-16.0-25.0,20985,List1B,black,woman,,,,,,,,
null,"<div style=""font-size:60px;"">+</div>",,html-keyboard-response,288,2199729,0.0-17.0-0.0,20985,List1B,black,woman,,,,null,,,,
null,"<img src=""stim_listB/argue4.gif""</stim_listB>",,html-keyboard-response,289,2201744,0.0-17.0-1.0,20985,List1B,black,woman,,,,null,,,,
null,are arguing with each other,,html-keyboard-response,290,2203760,0.0-17.0-2.0,20985,List1B,black,woman,,,,null,,,,
18601,,,survey-text,291,2222388,0.0-17.0-3.0,20985,List1B,black,woman,,,,,"{""Q0"":""luke and jane are arguing with each other""}","<img src=""stim_listB/argue4.gif""</stim_listB>",are arguing with each other,
null,"<div style=""font-size:60px;"">+</div>",,html-keyboard-response,292,2222900,0.0-17.0-0.1,20985,List1B,black,woman,,,,null,,,,
null,"<img src=""stim_listB/shout3.gif""</stim_listB>",,html-keyboard-response,293,2224914,0.0-17.0-1.1,20985,List1B,black,woman,,,,null,,,,
null,is shouting at,,html-keyboard-response,294,2226927,0.0-17.0-2.1,20985,List1B,black,woman,,,,null,,,,
3844,,,survey-text,295,2230793,0.0-17.0-3.1,20985,List1B,black,woman,,,,,"{""Q0"":""""}","<img src=""stim_listB/shout3.gif""</stim_listB>",is shouting at,
null,"<div style=""font-size:60px;"">+</div>",,html-keyboard-response,296,2231301,0.0-17.0-0.2,20985,List1B,black,woman,,,,null,,,,
null,"<img src=""stim_listB/fight4.gif""</stim_listB>",,html-keyboard-response,297,2233317,0.0-17.0-1.2,20985,List1B,black,woman,,,,null,,,,
null,are fighting each other,,html-keyboard-response,298,2235329,0.0-17.0-2.2,20985,List1B,black,woman,,,,null,,,,
27530,,,survey-text,299,2262896,0.0-17.0-3.2,20985,List1B,black,woman,,,,,"{""Q0"":""luke and ruth are fighting each other""}","<img src=""stim_listB/fight4.gif""</stim_listB>",are fighting each other,
null,"<div style=""font-size:60px;"">+</div>",,html-keyboard-response,300,2263417,0.0-17.0-0.3,20985,List1B,black,woman,,,,null,,,,
null,"<img src=""stim_listB/hug6.gif""</stim_listB>",,html-keyboard-response,301,2265432,0.0-17.0-1.3,20985,List1B,black,woman,,,,null,,,,
null,are hugging each other,,html-keyboard-response,302,2267453,0.0-17.0-2.3,20985,List1B,black,woman,,,,null,,,,
13747,,,survey-text,303,2281220,0.0-17.0-3.3,20985,List1B,black,woman,,,,,"{""Q0"":""mike and dave are hugging each other""}","<img src=""stim_listB/hug6.gif""</stim_listB>",are hugging each other,
null,"<div style=""font-size:60px;"">+</div>",,html-keyboard-response,304,2281736,0.0-17.0-0.4,20985,List1B,black,woman,,,,null,,,,
null,"<img src=""stim_listB/hug1.gif""</stim_listB>",,html-keyboard-response,305,2283747,0.0-17.0-1.4,20985,List1B,black,woman,,,,null,,,,
null,is hugging,,html-keyboard-response,306,2285762,0.0-17.0-2.4,20985,List1B,black,woman,,,,null,,,,
10534,,,survey-text,307,2296310,0.0-17.0-3.4,20985,List1B,black,woman,,,,,"{""Q0"":""beth is hugging fred""}","<img src=""stim_listB/hug1.gif""</stim_listB>",is hugging,
null,"<div style=""font-size:60px;"">+</div>",,html-keyboard-response,308,2296821,0.0-17.0-0.5,20985,List1B,black,woman,,,,null,,,,
null,"<img src=""stim_listB/meet3.gif""</stim_listB>",,html-keyboard-response,309,2298834,0.0-17.0-1.5,20985,List1B,black,woman,,,,null,,,,
null,is meeting,,html-keyboard-response,310,2300848,0.0-17.0-2.5,20985,List1B,black,woman,,,,null,,,,
14843,,,survey-text,311,2315708,0.0-17.0-3.5,20985,List1B,black,woman,,,,,"{""Q0"":""jane is meeting dave""}","<img src=""stim_listB/meet3.gif""</stim_listB>",is meeting,
null,"<div style=""font-size:60px;"">+</div>",,html-keyboard-response,312,2316251,0.0-17.0-0.6,20985,List1B,black,woman,,,,null,,,,
null,"<img src=""stim_listB/fight8.gif""</stim_listB>",,html-keyboard-response,313,2318272,0.0-17.0-1.6,20985,List1B,black,woman,,,,null,,,,
null,are fighting each other,,html-keyboard-response,314,2320278,0.0-17.0-2.6,20985,List1B,black,woman,,,,null,,,,
15562,,,survey-text,315,2335848,0.0-17.0-3.6,20985,List1B,black,woman,,,,,"{""Q0"":""ruth and beth are fighting each other""}","<img src=""stim_listB/fight8.gif""</stim_listB>",are fighting each other,
null,"<div style=""font-size:60px;"">+</div>",,html-keyboard-response,316,2336361,0.0-17.0-0.7,20985,List1B,black,woman,,,,null,,,,
null,"<img src=""stim_listB/argue5.gif""</stim_listB>",,html-keyboard-response,317,2338397,0.0-17.0-1.7,20985,List1B,black,woman,,,,null,,,,
null,is arguing with,,html-keyboard-response,318,2340410,0.0-17.0-2.7,20985,List1B,black,woman,,,,null,,,,
11923,,,survey-text,319,2352349,0.0-17.0-3.7,20985,List1B,black,woman,,,,,"{""Q0"":""mike is arguing with luke""}","<img src=""stim_listB/argue5.gif""</stim_listB>",is arguing with,
null,"<div style=""font-size:60px;"">+</div>",,html-keyboard-response,320,2352861,0.0-17.0-0.8,20985,List1B,black,woman,,,,null,,,,
null,"<img src=""stim_listB/marry6.gif""</stim_listB>",,html-keyboard-response,321,2354874,0.0-17.0-1.8,20985,List1B,black,woman,,,,null,,,,
null,are marrying each other,,html-keyboard-response,322,2356888,0.0-17.0-2.8,20985,List1B,black,woman,,,,null,,,,
18750,,,survey-text,323,2375659,0.0-17.0-3.8,20985,List1B,black,woman,,,,,"{""Q0"":""dave and fred are marrying each other""}","<img src=""stim_listB/marry6.gif""</stim_listB>",are marrying each other,
null,"<div style=""font-size:60px;"">+</div>",,html-keyboard-response,324,2376221,0.0-17.0-0.9,20985,List1B,black,woman,,,,null,,,,
null,"<img src=""stim_listB/talk5.gif""</stim_listB>",,html-keyboard-response,325,2378244,0.0-17.0-1.9,20985,List1B,black,woman,,,,null,,,,
null,is talking to,,html-keyboard-response,326,2380268,0.0-17.0-2.9,20985,List1B,black,woman,,,,null,,,,
12507,,,survey-text,327,2392790,0.0-17.0-3.9,20985,List1B,black,woman,,,,,"{""Q0"":""dave is talking to fred""}","<img src=""stim_listB/talk5.gif""</stim_listB>",is talking to,
null,"<div style=""font-size:60px;"">+</div>",,html-keyboard-response,328,2393302,0.0-17.0-0.10,20985,List1B,black,woman,,,,null,,,,
null,"<img src=""stim_listB/meet5.gif""</stim_listB>",,html-keyboard-response,329,2395317,0.0-17.0-1.10,20985,List1B,black,woman,,,,null,,,,
null,is meeting,,html-keyboard-response,330,2397341,0.0-17.0-2.10,20985,List1B,black,woman,,,,null,,,,
10383,,,survey-text,331,2407746,0.0-17.0-3.10,20985,List1B,black,woman,,,,,"{""Q0"":""dave is meeting mike""}","<img src=""stim_listB/meet5.gif""</stim_listB>",is meeting,
null,"<div style=""font-size:60px;"">+</div>",,html-keyboard-response,332,2408261,0.0-17.0-0.11,20985,List1B,black,woman,,,,null,,,,
null,"<img src=""stim_listB/kiss8.gif""</stim_listB>",,html-keyboard-response,333,2410280,0.0-17.0-1.11,20985,List1B,black,woman,,,,null,,,,
null,are kissing each other,,html-keyboard-response,334,2412294,0.0-17.0-2.11,20985,List1B,black,woman,,,,null,,,,
17676,,,survey-text,335,2429993,0.0-17.0-3.11,20985,List1B,black,woman,,,,,"{""Q0"":""kate and ruth are kissing each other""}","<img src=""stim_listB/kiss8.gif""</stim_listB>",are kissing each other,
null,"<div style=""font-size:60px;"">+</div>",,html-keyboard-response,336,2430513,0.0-17.0-0.12,20985,List1B,black,woman,,,,null,,,,
null,"<img src=""stim_listB/touch4.gif""</stim_listB>",,html-keyboard-response,337,2432531,0.0-17.0-1.12,20985,List1B,black,woman,,,,null,,,,
null,are touching each other,,html-keyboard-response,338,2434551,0.0-17.0-2.12,20985,List1B,black,woman,,,,null,,,,
24016,,,survey-text,339,2458591,0.0-17.0-3.12,20985,List1B,black,woman,,,,,"{""Q0"":""luke and ruth are touching each other""}","<img src=""stim_listB/touch4.gif""</stim_listB>",are touching each other,
null,"<div style=""font-size:60px;"">+</div>",,html-keyboard-response,340,2459123,0.0-17.0-0.13,20985,List1B,black,woman,,,,null,,,,
null,"<img src=""stim_listB/talk3.gif""</stim_listB>",,html-keyboard-response,341,2461135,0.0-17.0-1.13,20985,List1B,black,woman,,,,null,,,,
null,is talking to,,html-keyboard-response,342,2463159,0.0-17.0-2.13,20985,List1B,black,woman,,,,null,,,,
13129,,,survey-text,343,2476307,0.0-17.0-3.13,20985,List1B,black,woman,,,,,"{""Q0"":""jane is talking to dave""}","<img src=""stim_listB/talk3.gif""</stim_listB>",is talking to,
null,"<div style=""font-size:60px;"">+</div>",,html-keyboard-response,344,2476822,0.0-17.0-0.14,20985,List1B,black,woman,,,,null,,,,
null,"<img src=""stim_listB/dance6.gif""</stim_listB>",,html-keyboard-response,345,2478837,0.0-17.0-1.14,20985,List1B,black,woman,,,,null,,,,
null,are dancing with each other,,html-keyboard-response,346,2480850,0.0-17.0-2.14,20985,List1B,black,woman,,,,null,,,,
19959,,,survey-text,347,2500821,0.0-17.0-3.14,20985,List1B,black,woman,,,,,"{""Q0"":""mike and dave are dancing with each other""}","<img src=""stim_listB/dance6.gif""</stim_listB>",are dancing with each other,
null,"<div style=""font-size:60px;"">+</div>",,html-keyboard-response,348,2501334,0.0-17.0-0.15,20985,List1B,black,woman,,,,null,,,,
null,"<img src=""stim_listB/marry5.gif""</stim_listB>",,html-keyboard-response,349,2503353,0.0-17.0-1.15,20985,List1B,black,woman,,,,null,,,,
null,is marrying,,html-keyboard-response,350,2505384,0.0-17.0-2.15,20985,List1B,black,woman,,,,null,,,,
22767,,,survey-text,351,2528168,0.0-17.0-3.15,20985,List1B,black,woman,,,,,"{""Q0"":""luke and mike are marrying each other""}","<img src=""stim_listB/marry5.gif""</stim_listB>",is marrying,
null,"<div style=""font-size:60px;"">+</div>",,html-keyboard-response,352,2528682,0.0-17.0-0.16,20985,List1B,black,woman,,,,null,,,,
null,"<img src=""stim_listB/shout1.gif""</stim_listB>",,html-keyboard-response,353,2530696,0.0-17.0-1.16,20985,List1B,black,woman,,,,null,,,,
null,is shouting at,,html-keyboard-response,354,2532710,0.0-17.0-2.16,20985,List1B,black,woman,,,,null,,,,
9778,,,survey-text,355,2542504,0.0-17.0-3.16,20985,List1B,black,woman,,,,,"{""Q0"":""beth is shouting at fred""}","<img src=""stim_listB/shout1.gif""</stim_listB>",is shouting at,
null,"<div style=""font-size:60px;"">+</div>",,html-keyboard-response,356,2543015,0.0-17.0-0.17,20985,List1B,black,woman,,,,null,,,,
null,"<img src=""stim_listB/kiss5.gif""</stim_listB>",,html-keyboard-response,357,2545028,0.0-17.0-1.17,20985,List1B,black,woman,,,,null,,,,
null,is kissing,,html-keyboard-response,358,2547041,0.0-17.0-2.17,20985,List1B,black,woman,,,,null,,,,
12588,,,survey-text,359,2559645,0.0-17.0-3.17,20985,List1B,black,woman,,,,,"{""Q0"":""luke is kissing fred""}","<img src=""stim_listB/kiss5.gif""</stim_listB>",is kissing,
null,"<div style=""font-size:60px;"">+</div>",,html-keyboard-response,360,2560168,0.0-17.0-0.18,20985,List1B,black,woman,,,,null,,,,
null,"<img src=""stim_listB/hug7.gif""</stim_listB>",,html-keyboard-response,361,2562184,0.0-17.0-1.18,20985,List1B,black,woman,,,,null,,,,
null,is hugging,,html-keyboard-response,362,2564198,0.0-17.0-2.18,20985,List1B,black,woman,,,,null,,,,
19140,,,survey-text,363,2583346,0.0-17.0-3.18,20985,List1B,black,woman,,,,,"{""Q0"":""ruth is hugging beth""}","<img src=""stim_listB/hug7.gif""</stim_listB>",is hugging,
null,"<div style=""font-size:60px;"">+</div>",,html-keyboard-response,364,2583862,0.0-17.0-0.19,20985,List1B,black,woman,,,,null,,,,
null,"<img src=""stim_listB/dance2.gif""</stim_listB>",,html-keyboard-response,365,2585875,0.0-17.0-1.19,20985,List1B,black,woman,,,,null,,,,
null,are dancing with each other,,html-keyboard-response,366,2587888,0.0-17.0-2.19,20985,List1B,black,woman,,,,null,,,,
23831,,,survey-text,367,2611750,0.0-17.0-3.19,20985,List1B,black,woman,,,,,"{""Q0"":""beth and mike are hugging each other""}","<img src=""stim_listB/dance2.gif""</stim_listB>",are dancing with each other,
4074,"<img src='img/portrait_matrix_list1.JPG' style='width:900px;height:500px;''></img><p>If you have memorised all the portraits and names and are ready to start, press Continue.</p><p><strong>Please note: Your memory of these faces will be tested 4 times during this experiment.</strong></p>",0,html-button-response,368,2615862,0.0-18.0-0.0,20985,List1B,black,woman,,,,,,,,
2367,"<img src=""portrait/BW1.jpg""style=""width:400px;height:400px;""></img>",0,html-button-response,369,2619268,0.0-18.0-1.0,20985,List1B,black,woman,,TRUE,0,,,,,
null,CORRECT,,html-keyboard-response,370,2620785,0.0-18.0-2.0-0.0,20985,List1B,black,woman,,,,null,,,,
1720,"<img src=""portrait/WW2.jpg""style=""width:400px;height:400px;""></img>",3,html-button-response,371,2622532,0.0-18.0-4.0,20985,List1B,black,woman,,TRUE,3,,,,,
null,CORRECT,,html-keyboard-response,372,2624095,0.0-18.0-5.0-0.0,20985,List1B,black,woman,,,,null,,,,
2367,"<img src=""portrait/WM2.jpg""style=""width:400px;height:400px;""></img>",7,html-button-response,373,2626494,0.0-18.0-7.0,20985,List1B,black,woman,,TRUE,7,,,,,
null,CORRECT,,html-keyboard-response,374,2628010,0.0-18.0-8.0-0.0,20985,List1B,black,woman,,,,null,,,,
2901,"<img src=""portrait/WW1.jpg""style=""width:400px;height:400px;""></img>",1,html-button-response,375,2630950,0.0-18.0-10.0,20985,List1B,black,woman,,TRUE,1,,,,,
null,CORRECT,,html-keyboard-response,376,2632468,0.0-18.0-11.0-0.0,20985,List1B,black,woman,,,,null,,,,
1303,"<img src=""portrait/BW2.jpg""style=""width:400px;height:400px;""></img>",2,html-button-response,377,2633800,0.0-18.0-13.0,20985,List1B,black,woman,,TRUE,2,,,,,
null,CORRECT,,html-keyboard-response,378,2635322,0.0-18.0-14.0-0.0,20985,List1B,black,woman,,,,null,,,,
1401,"<img src=""portrait/BM2.jpg""style=""width:400px;height:400px;""></img>",5,html-button-response,379,2636763,0.0-18.0-16.0,20985,List1B,black,woman,,TRUE,5,,,,,
null,CORRECT,,html-keyboard-response,380,2638284,0.0-18.0-17.0-0.0,20985,List1B,black,woman,,,,null,,,,
1501,"<img src=""portrait/WM1.jpg""style=""width:400px;height:400px;""></img>",6,html-button-response,381,2639813,0.0-18.0-19.0,20985,List1B,black,woman,,TRUE,6,,,,,
null,CORRECT,,html-keyboard-response,382,2641332,0.0-18.0-20.0-0.0,20985,List1B,black,woman,,,,null,,,,
2361,"<img src=""portrait/BM1.jpg""style=""width:400px;height:400px;""></img>",4,html-button-response,383,2643727,0.0-18.0-22.0,20985,List1B,black,woman,,TRUE,4,,,,,
null,CORRECT,,html-keyboard-response,384,2645247,0.0-18.0-23.0-0.0,20985,List1B,black,woman,,,,null,,,,
1232,<p>You got 8 out of 8 right first time. Press Continue.</p>,0,html-button-response,385,2646531,0.0-18.0-25.0,20985,List1B,black,woman,,,,,,,,
null,"<div style=""font-size:60px;"">+</div>",,html-keyboard-response,386,2648067,0.0-19.0-0.0,20985,List1B,black,woman,,,,null,,,,
null,"<img src=""stim_listB/fight5.gif""</stim_listB>",,html-keyboard-response,387,2650094,0.0-19.0-1.0,20985,List1B,black,woman,,,,null,,,,
null,is fighting,,html-keyboard-response,388,2652107,0.0-19.0-2.0,20985,List1B,black,woman,,,,null,,,,
11493,,,survey-text,389,2663614,0.0-19.0-3.0,20985,List1B,black,woman,,,,,"{""Q0"":""dave is fighting mike""}","<img src=""stim_listB/fight5.gif""</stim_listB>",is fighting,
null,"<div style=""font-size:60px;"">+</div>",,html-keyboard-response,390,2664129,0.0-19.0-0.1,20985,List1B,black,woman,,,,null,,,,
null,"<img src=""stim_listB/fight6.gif""</stim_listB>",,html-keyboard-response,391,2666144,0.0-19.0-1.1,20985,List1B,black,woman,,,,null,,,,
null,are fighting each other,,html-keyboard-response,392,2668169,0.0-19.0-2.1,20985,List1B,black,woman,,,,null,,,,
14057,,,survey-text,393,2682241,0.0-19.0-3.1,20985,List1B,black,woman,,,,,"{""Q0"":""fred and dave are fighting each other""}","<img src=""stim_listB/fight6.gif""</stim_listB>",are fighting each other,
null,"<div style=""font-size:60px;"">+</div>",,html-keyboard-response,394,2682755,0.0-19.0-0.2,20985,List1B,black,woman,,,,null,,,,
null,"<img src=""stim_listB/meet2.gif""</stim_listB>",,html-keyboard-response,395,2684768,0.0-19.0-1.2,20985,List1B,black,woman,,,,null,,,,
null,are meeting each other,,html-keyboard-response,396,2686782,0.0-19.0-2.2,20985,List1B,black,woman,,,,null,,,,
16552,,,survey-text,397,2703349,0.0-19.0-3.2,20985,List1B,black,woman,,,,,"{""Q0"":""fred and beth are meeting each other""}","<img src=""stim_listB/meet2.gif""</stim_listB>",are meeting each other,
null,"<div style=""font-size:60px;"">+</div>",,html-keyboard-response,398,2703872,0.0-19.0-0.3,20985,List1B,black,woman,,,,null,,,,
null,"<img src=""stim_listB/shout5.gif""</stim_listB>",,html-keyboard-response,399,2705887,0.0-19.0-1.3,20985,List1B,black,woman,,,,null,,,,
null,is shouting at,,html-keyboard-response,400,2707902,0.0-19.0-2.3,20985,List1B,black,woman,,,,null,,,,
14016,,,survey-text,401,2721941,0.0-19.0-3.3,20985,List1B,black,woman,,,,,"{""Q0"":""dave is shouting at fred""}","<img src=""stim_listB/shout5.gif""</stim_listB>",is shouting at,
null,"<div style=""font-size:60px;"">+</div>",,html-keyboard-response,402,2722457,0.0-19.0-0.4,20985,List1B,black,woman,,,,null,,,,
null,"<img src=""stim_listB/touch6.gif""</stim_listB>",,html-keyboard-response,403,2724467,0.0-19.0-1.4,20985,List1B,black,woman,,,,null,,,,
null,are touching each other,,html-keyboard-response,404,2726482,0.0-19.0-2.4,20985,List1B,black,woman,,,,null,,,,
15200,,,survey-text,405,2741702,0.0-19.0-3.4,20985,List1B,black,woman,,,,,"{""Q0"":""fred and dave are touching each other""}","<img src=""stim_listB/touch6.gif""</stim_listB>",are touching each other,
null,"<div style=""font-size:60px;"">+</div>",,html-keyboard-response,406,2742216,0.0-19.0-0.5,20985,List1B,black,woman,,,,null,,,,
null,"<img src=""stim_listB/argue6.gif""</stim_listB>",,html-keyboard-response,407,2744228,0.0-19.0-1.5,20985,List1B,black,woman,,,,null,,,,
null,are arguing with each other,,html-keyboard-response,408,2746243,0.0-19.0-2.5,20985,List1B,black,woman,,,,null,,,,
17498,,,survey-text,409,2763755,0.0-19.0-3.5,20985,List1B,black,woman,,,,,"{""Q0"":""fred and dave are arguing with each other""}","<img src=""stim_listB/argue6.gif""</stim_listB>",are arguing with each other,
null,"<div style=""font-size:60px;"">+</div>",,html-keyboard-response,410,2764267,0.0-19.0-0.6,20985,List1B,black,woman,,,,null,,,,
null,"<img src=""stim_listB/kiss4.gif""</stim_listB>",,html-keyboard-response,411,2766279,0.0-19.0-1.6,20985,List1B,black,woman,,,,null,,,,
null,are kissing each other,,html-keyboard-response,412,2768293,0.0-19.0-2.6,20985,List1B,black,woman,,,,null,,,,
22916,,,survey-text,413,2791229,0.0-19.0-3.6,20985,List1B,black,woman,,,,,"{""Q0"":""dave and jane are kissing each other""}","<img src=""stim_listB/kiss4.gif""</stim_listB>",are kissing each other,
null,"<div style=""font-size:60px;"">+</div>",,html-keyboard-response,414,2791742,0.0-19.0-0.7,20985,List1B,black,woman,,,,null,,,,
null,"<img src=""stim_listB/kiss1.gif""</stim_listB>",,html-keyboard-response,415,2793754,0.0-19.0-1.7,20985,List1B,black,woman,,,,null,,,,
null,is kissing,,html-keyboard-response,416,2795768,0.0-19.0-2.7,20985,List1B,black,woman,,,,null,,,,
12124,,,survey-text,417,2807905,0.0-19.0-3.7,20985,List1B,black,woman,,,,,"{""Q0"":""beth is kissing fred""}","<img src=""stim_listB/kiss1.gif""</stim_listB>",is kissing,
null,"<div style=""font-size:60px;"">+</div>",,html-keyboard-response,418,2808417,0.0-19.0-0.8,20985,List1B,black,woman,,,,null,,,,
null,"<img src=""stim_listB/fight7.gif""</stim_listB>",,html-keyboard-response,419,2810436,0.0-19.0-1.8,20985,List1B,black,woman,,,,null,,,,
null,is fighting,,html-keyboard-response,420,2812450,0.0-19.0-2.8,20985,List1B,black,woman,,,,null,,,,
19126,,,survey-text,421,2831593,0.0-19.0-3.8,20985,List1B,black,woman,,,,,"{""Q0"":""kate is fighting jane""}","<img src=""stim_listB/fight7.gif""</stim_listB>",is fighting,
null,"<div style=""font-size:60px;"">+</div>",,html-keyboard-response,422,2832105,0.0-19.0-0.9,20985,List1B,black,woman,,,,null,,,,
null,"<img src=""stim_listB/kiss7.gif""</stim_listB>",,html-keyboard-response,423,2834119,0.0-19.0-1.9,20985,List1B,black,woman,,,,null,,,,
null,is kissing,,html-keyboard-response,424,2836132,0.0-19.0-2.9,20985,List1B,black,woman,,,,null,,,,
17813,,,survey-text,425,2853958,0.0-19.0-3.9,20985,List1B,black,woman,,,,,"{""Q0"":""beth is kissing ruth""}","<img src=""stim_listB/kiss7.gif""</stim_listB>",is kissing,
null,"<div style=""font-size:60px;"">+</div>",,html-keyboard-response,426,2854474,0.0-19.0-0.10,20985,List1B,black,woman,,,,null,,,,
null,"<img src=""stim_listB/fight3.gif""</stim_listB>",,html-keyboard-response,427,2856484,0.0-19.0-1.10,20985,List1B,black,woman,,,,null,,,,
null,is fighting,,html-keyboard-response,428,2858495,0.0-19.0-2.10,20985,List1B,black,woman,,,,null,,,,
11879,,,survey-text,429,2870387,0.0-19.0-3.10,20985,List1B,black,woman,,,,,"{""Q0"":""jane is fighting dave""}","<img src=""stim_listB/fight3.gif""</stim_listB>",is fighting,
null,"<div style=""font-size:60px;"">+</div>",,html-keyboard-response,430,2870902,0.0-19.0-0.11,20985,List1B,black,woman,,,,null,,,,
null,"<img src=""stim_listB/hug3.gif""</stim_listB>",,html-keyboard-response,431,2872914,0.0-19.0-1.11,20985,List1B,black,woman,,,,null,,,,
null,is hugging,,html-keyboard-response,432,2874930,0.0-19.0-2.11,20985,List1B,black,woman,,,,null,,,,
11413,,,survey-text,433,2886361,0.0-19.0-3.11,20985,List1B,black,woman,,,,,"{""Q0"":""ruth is hugging luke""}","<img src=""stim_listB/hug3.gif""</stim_listB>",is hugging,
null,"<div style=""font-size:60px;"">+</div>",,html-keyboard-response,434,2886873,0.0-19.0-0.12,20985,List1B,black,woman,,,,null,,,,
null,"<img src=""stim_listB/touch2.gif""</stim_listB>",,html-keyboard-response,435,2888888,0.0-19.0-1.12,20985,List1B,black,woman,,,,null,,,,
null,are touching each other,,html-keyboard-response,436,2890907,0.0-19.0-2.12,20985,List1B,black,woman,,,,null,,,,
16118,,,survey-text,437,2907043,0.0-19.0-3.12,20985,List1B,black,woman,,,,,"{""Q0"":""fred and beth are touching each other""}","<img src=""stim_listB/touch2.gif""</stim_listB>",are touching each other,
null,"<div style=""font-size:60px;"">+</div>",,html-keyboard-response,438,2907557,0.0-19.0-0.13,20985,List1B,black,woman,,,,null,,,,
null,"<img src=""stim_listB/meet6.gif""</stim_listB>",,html-keyboard-response,439,2909565,0.0-19.0-1.13,20985,List1B,black,woman,,,,null,,,,
null,are meeting each other,,html-keyboard-response,440,2911587,0.0-19.0-2.13,20985,List1B,black,woman,,,,null,,,,
13903,,,survey-text,441,2925498,0.0-19.0-3.13,20985,List1B,black,woman,,,,,"{""Q0"":""fred and luke are meeting each other""}","<img src=""stim_listB/meet6.gif""</stim_listB>",are meeting each other,
null,"<div style=""font-size:60px;"">+</div>",,html-keyboard-response,442,2926011,0.0-19.0-0.14,20985,List1B,black,woman,,,,null,,,,
null,"<img src=""stim_listB/marry4.gif""</stim_listB>",,html-keyboard-response,443,2928028,0.0-19.0-1.14,20985,List1B,black,woman,,,,null,,,,
null,are marrying each other,,html-keyboard-response,444,2930045,0.0-19.0-2.14,20985,List1B,black,woman,,,,null,,,,
19667,,,survey-text,445,2949729,0.0-19.0-3.14,20985,List1B,black,woman,,,,,"{""Q0"":""luke and jane are marrying each other""}","<img src=""stim_listB/marry4.gif""</stim_listB>",are marrying each other,
null,"<div style=""font-size:60px;"">+</div>",,html-keyboard-response,446,2950245,0.0-19.0-0.15,20985,List1B,black,woman,,,,null,,,,
null,"<img src=""stim_listB/meet7.gif""</stim_listB>",,html-keyboard-response,447,2952261,0.0-19.0-1.15,20985,List1B,black,woman,,,,null,,,,
null,is meeting,,html-keyboard-response,448,2954282,0.0-19.0-2.15,20985,List1B,black,woman,,,,null,,,,
10858,,,survey-text,449,2965157,0.0-19.0-3.15,20985,List1B,black,woman,,,,,"{""Q0"":""jane is meeting kate""}","<img src=""stim_listB/meet7.gif""</stim_listB>",is meeting,
null,"<div style=""font-size:60px;"">+</div>",,html-keyboard-response,450,2965675,0.0-19.0-0.16,20985,List1B,black,woman,,,,null,,,,
null,"<img src=""stim_listB/dance1.gif""</stim_listB>",,html-keyboard-response,451,2967686,0.0-19.0-1.16,20985,List1B,black,woman,,,,null,,,,
null,is dancing with,,html-keyboard-response,452,2969706,0.0-19.0-2.16,20985,List1B,black,woman,,,,null,,,,
11266,,,survey-text,453,2980995,0.0-19.0-3.16,20985,List1B,black,woman,,,,,"{""Q0"":""kate is dancing with fred""}","<img src=""stim_listB/dance1.gif""</stim_listB>",is dancing with,
null,"<div style=""font-size:60px;"">+</div>",,html-keyboard-response,454,2981509,0.0-19.0-0.17,20985,List1B,black,woman,,,,null,,,,
null,"<img src=""stim_listB/kiss2.gif""</stim_listB>",,html-keyboard-response,455,2983521,0.0-19.0-1.17,20985,List1B,black,woman,,,,null,,,,
null,are kissing each other,,html-keyboard-response,456,2985540,0.0-19.0-2.17,20985,List1B,black,woman,,,,null,,,,
23153,,,survey-text,457,3008708,0.0-19.0-3.17,20985,List1B,black,woman,,,,,"{""Q0"":""mike and kate are kissing each other""}","<img src=""stim_listB/kiss2.gif""</stim_listB>",are kissing each other,
null,"<div style=""font-size:60px;"">+</div>",,html-keyboard-response,458,3009224,0.0-19.0-0.18,20985,List1B,black,woman,,,,null,,,,
null,"<img src=""stim_listB/argue7.gif""</stim_listB>",,html-keyboard-response,459,3011234,0.0-19.0-1.18,20985,List1B,black,woman,,,,null,,,,
null,is arguing with,,html-keyboard-response,460,3013249,0.0-19.0-2.18,20985,List1B,black,woman,,,,null,,,,
13049,,,survey-text,461,3026315,0.0-19.0-3.18,20985,List1B,black,woman,,,,,"{""Q0"":""ruth is arguing with kate""}","<img src=""stim_listB/argue7.gif""</stim_listB>",is arguing with,
null,"<div style=""font-size:60px;"">+</div>",,html-keyboard-response,462,3026833,0.0-19.0-0.19,20985,List1B,black,woman,,,,null,,,,
null,"<img src=""stim_listB/dance7.gif""</stim_listB>",,html-keyboard-response,463,3028848,0.0-19.0-1.19,20985,List1B,black,woman,,,,null,,,,
null,is dancing with,,html-keyboard-response,464,3030867,0.0-19.0-2.19,20985,List1B,black,woman,,,,null,,,,
11175,,,survey-text,465,3042072,0.0-19.0-3.19,20985,List1B,black,woman,,,,,"{""Q0"":""jane is dancing with kate""}","<img src=""stim_listB/dance7.gif""</stim_listB>",is dancing with,
3481,<p>Thank you for completing that task.</p><p>The final part of this session is a short questionnaire.</p><p>Press Continue.</p>,0,html-button-response,466,3045588,0.0-20.0,20985,List1B,black,woman,,,,,,,,
60716,,,survey-text,467,3107355,0.0-21.0,20985,List1B,black,woman,,,,,"{""Q0"":""32"",""Q1"":""English"",""Q2"":""English"",""Q3"":""United States"",""Q4"":""mixed race"",""Q5"":""female""}",,,demographics
40945,,,survey-likert,468,3148443,0.0-22.0,20985,List1B,black,woman,,,,,"{""Q0"":4,""Q1"":0,""Q2"":5,""Q3"":5,""Q4"":6,""Q5"":5,""Q6"":5,""Q7"":5,""Q8"":6,""Q9"":6,""Q10"":4,""Q11"":3,""Q12"":3,""Q13"":3}",,,likert_race
26901,,,survey-likert,469,3175402,0.0-23.0,20985,List1B,black,woman,,,,,"{""Q0"":5,""Q1"":0,""Q2"":6,""Q3"":6,""Q4"":6,""Q5"":5,""Q6"":6,""Q7"":6,""Q8"":5,""Q9"":5,""Q10"":6,""Q11"":4,""Q12"":4,""Q13"":4}",,,likert_gender
20148,,,survey-text,470,3195570,0.0-24.0,20985,List1B,black,woman,,,,,"{""Q0"":""ccc""}",,,worker_id
3341,,,external-html,471,3199277,0.0-25.0,20985,List1B,black,woman,debrief.html,,,,,,,
