rt,stimulus,button_pressed,trial_type,trial_index,time_elapsed,internal_node_id,subject,list,ppt_race,ppt_gender,url,first_guess,correct,key_press,responses,image_type,phrase_type,test_part
7075,Welcome to the experiment. Press Continue to begin.,0,html-button-response,0,7083,0.0-0.0,20994,List1B,white,man,,,,,,,,
25301,,,external-html,1,35430,0.0-1.0,20994,List1B,white,man,consent.html,,,,,,,
26599,"<p>On the next page, you will see portraits of 8 people and their names.</p><p>Your first task is to take a few minutes to memorise the names of these people.</p><p>You will have to recall their names during the rest of the experiment, so it is</p><p>essential that you try to memorise these people and their names as best as you can.</p><br><p><strong>You will then be tested on your memory of these names and portraits.</strong></p><br><p>The experiment will start after you have completed this memory test.</p><br><p>Ready?</p>",0,html-button-response,2,62034,0.0-2.0,20994,List1B,white,man,,,,,,,,
78360,"<img src='img/portrait_matrix_list1.JPG' style='width:900px;height:500px;''></img><p>If you have memorised all the portraits and names and are ready to start, press Continue.</p><p><strong>Please note: Your memory of these faces will be tested 4 times during this experiment.</strong></p>",0,html-button-response,3,141406,0.0-3.0-0.0,20994,List1B,white,man,,,,,,,,
3299,"<img src=""portrait/WM1.jpg""style=""width:400px;height:400px;""></img>",6,html-button-response,4,145720,0.0-3.0-1.0,20994,List1B,white,man,,TRUE,6,,,,,
null,CORRECT,,html-keyboard-response,5,147231,0.0-3.0-2.0-0.0,20994,List1B,white,man,,,,null,,,,
3768,"<img src=""portrait/BW1.jpg""style=""width:400px;height:400px;""></img>",2,html-button-response,6,151008,0.0-3.0-4.0,20994,List1B,white,man,,TRUE,0,,,,,
2994,"<img src=""portrait/BW1.jpg""style=""width:400px;height:400px;""></img>",0,html-button-response,7,155010,0.0-3.0-6.0-0.0,20994,List1B,white,man,,FALSE,0,,,,,
null,CORRECT,,html-keyboard-response,8,156520,0.0-3.0-6.0-1.0-0.0,20994,List1B,white,man,,,,null,,,,
3386,"<img src=""portrait/BM2.jpg""style=""width:400px;height:400px;""></img>",5,html-button-response,9,159918,0.0-3.0-7.0,20994,List1B,white,man,,TRUE,5,,,,,
null,CORRECT,,html-keyboard-response,10,161423,0.0-3.0-8.0-0.0,20994,List1B,white,man,,,,null,,,,
3429,"<img src=""portrait/BW2.jpg""style=""width:400px;height:400px;""></img>",2,html-button-response,11,164860,0.0-3.0-10.0,20994,List1B,white,man,,TRUE,2,,,,,
null,CORRECT,,html-keyboard-response,12,166365,0.0-3.0-11.0-0.0,20994,List1B,white,man,,,,null,,,,
2199,"<img src=""portrait/WW1.jpg""style=""width:400px;height:400px;""></img>",1,html-button-response,13,168570,0.0-3.0-13.0,20994,List1B,white,man,,TRUE,1,,,,,
null,CORRECT,,html-keyboard-response,14,170074,0.0-3.0-14.0-0.0,20994,List1B,white,man,,,,null,,,,
9201,"<img src=""portrait/BM1.jpg""style=""width:400px;height:400px;""></img>",4,html-button-response,15,179280,0.0-3.0-16.0,20994,List1B,white,man,,TRUE,4,,,,,
null,CORRECT,,html-keyboard-response,16,180784,0.0-3.0-17.0-0.0,20994,List1B,white,man,,,,null,,,,
3284,"<img src=""portrait/WW2.jpg""style=""width:400px;height:400px;""></img>",3,html-button-response,17,184072,0.0-3.0-19.0,20994,List1B,white,man,,TRUE,3,,,,,
null,CORRECT,,html-keyboard-response,18,185580,0.0-3.0-20.0-0.0,20994,List1B,white,man,,,,null,,,,
2457,"<img src=""portrait/WM2.jpg""style=""width:400px;height:400px;""></img>",7,html-button-response,19,188044,0.0-3.0-22.0,20994,List1B,white,man,,TRUE,7,,,,,
null,CORRECT,,html-keyboard-response,20,189550,0.0-3.0-23.0-0.0,20994,List1B,white,man,,,,null,,,,
2081,<p>You got 7 out of 8 right first time. Press Continue.</p>,0,html-button-response,21,191635,0.0-3.0-25.0,20994,List1B,white,man,,,,,,,,
2921,"As you did not score 100%, the memory game will repeat. Press Continue.",0,html-button-response,22,195559,0.0-3.0-26.0-0.0,20994,List1B,white,man,,,,,,,,
5873,"<img src='img/portrait_matrix_list1.JPG' style='width:900px;height:500px;''></img><p>If you have memorised all the portraits and names and are ready to start, press Continue.</p><p><strong>Please note: Your memory of these faces will be tested 4 times during this experiment.</strong></p>",0,html-button-response,23,202442,0.0-3.1-0.1,20994,List1B,white,man,,,,,,,,
2162,"<img src=""portrait/WM1.jpg""style=""width:400px;height:400px;""></img>",6,html-button-response,24,205609,0.0-3.1-1.1,20994,List1B,white,man,,TRUE,6,,,,,
null,CORRECT,,html-keyboard-response,25,207112,0.0-3.1-2.1-0.1,20994,List1B,white,man,,,,null,,,,
3036,"<img src=""portrait/BW1.jpg""style=""width:400px;height:400px;""></img>",0,html-button-response,26,210152,0.0-3.1-4.1,20994,List1B,white,man,,TRUE,0,,,,,
null,CORRECT,,html-keyboard-response,27,211659,0.0-3.1-5.1-0.1,20994,List1B,white,man,,,,null,,,,
2264,"<img src=""portrait/BM2.jpg""style=""width:400px;height:400px;""></img>",5,html-button-response,28,213926,0.0-3.1-7.1,20994,List1B,white,man,,TRUE,5,,,,,
null,CORRECT,,html-keyboard-response,29,215432,0.0-3.1-8.1-0.1,20994,List1B,white,man,,,,null,,,,
2070,"<img src=""portrait/BW2.jpg""style=""width:400px;height:400px;""></img>",2,html-button-response,30,217506,0.0-3.1-10.1,20994,List1B,white,man,,TRUE,2,,,,,
null,CORRECT,,html-keyboard-response,31,219013,0.0-3.1-11.1-0.1,20994,List1B,white,man,,,,null,,,,
1490,"<img src=""portrait/WW1.jpg""style=""width:400px;height:400px;""></img>",1,html-button-response,32,220512,0.0-3.1-13.1,20994,List1B,white,man,,TRUE,1,,,,,
null,CORRECT,,html-keyboard-response,33,222017,0.0-3.1-14.1-0.1,20994,List1B,white,man,,,,null,,,,
3079,"<img src=""portrait/BM1.jpg""style=""width:400px;height:400px;""></img>",4,html-button-response,34,225102,0.0-3.1-16.1,20994,List1B,white,man,,TRUE,4,,,,,
null,CORRECT,,html-keyboard-response,35,226612,0.0-3.1-17.1-0.1,20994,List1B,white,man,,,,null,,,,
1737,"<img src=""portrait/WW2.jpg""style=""width:400px;height:400px;""></img>",1,html-button-response,36,228359,0.0-3.1-19.1,20994,List1B,white,man,,TRUE,3,,,,,
1370,"<img src=""portrait/WW2.jpg""style=""width:400px;height:400px;""></img>",3,html-button-response,37,230737,0.0-3.1-21.1-0.1,20994,List1B,white,man,,FALSE,3,,,,,
null,CORRECT,,html-keyboard-response,38,232244,0.0-3.1-21.1-1.1-0.1,20994,List1B,white,man,,,,null,,,,
2327,"<img src=""portrait/WM2.jpg""style=""width:400px;height:400px;""></img>",7,html-button-response,39,234575,0.0-3.1-22.1,20994,List1B,white,man,,TRUE,7,,,,,
null,CORRECT,,html-keyboard-response,40,236081,0.0-3.1-23.1-0.1,20994,List1B,white,man,,,,null,,,,
1781,<p>You got 7 out of 8 right first time. Press Continue.</p>,0,html-button-response,41,237865,0.0-3.1-25.1,20994,List1B,white,man,,,,,,,,
14676,"As you did not score 100%, the memory game will repeat. Press Continue.",0,html-button-response,42,253545,0.0-3.1-26.1-0.1,20994,List1B,white,man,,,,,,,,
5975,"<img src='img/portrait_matrix_list1.JPG' style='width:900px;height:500px;''></img><p>If you have memorised all the portraits and names and are ready to start, press Continue.</p><p><strong>Please note: Your memory of these faces will be tested 4 times during this experiment.</strong></p>",0,html-button-response,43,260528,0.0-3.2-0.2,20994,List1B,white,man,,,,,,,,
4675,"<img src=""portrait/WM1.jpg""style=""width:400px;height:400px;""></img>",6,html-button-response,44,266211,0.0-3.2-1.2,20994,List1B,white,man,,TRUE,6,,,,,
null,CORRECT,,html-keyboard-response,45,267719,0.0-3.2-2.2-0.2,20994,List1B,white,man,,,,null,,,,
3731,"<img src=""portrait/BW1.jpg""style=""width:400px;height:400px;""></img>",0,html-button-response,46,271457,0.0-3.2-4.2,20994,List1B,white,man,,TRUE,0,,,,,
null,CORRECT,,html-keyboard-response,47,272961,0.0-3.2-5.2-0.2,20994,List1B,white,man,,,,null,,,,
7253,"<img src=""portrait/BM2.jpg""style=""width:400px;height:400px;""></img>",5,html-button-response,48,280219,0.0-3.2-7.2,20994,List1B,white,man,,TRUE,5,,,,,
null,CORRECT,,html-keyboard-response,49,281720,0.0-3.2-8.2-0.2,20994,List1B,white,man,,,,null,,,,
2283,"<img src=""portrait/BW2.jpg""style=""width:400px;height:400px;""></img>",2,html-button-response,50,284006,0.0-3.2-10.2,20994,List1B,white,man,,TRUE,2,,,,,
null,CORRECT,,html-keyboard-response,51,285509,0.0-3.2-11.2-0.2,20994,List1B,white,man,,,,null,,,,
3157,"<img src=""portrait/WW1.jpg""style=""width:400px;height:400px;""></img>",1,html-button-response,52,288672,0.0-3.2-13.2,20994,List1B,white,man,,TRUE,1,,,,,
null,CORRECT,,html-keyboard-response,53,290180,0.0-3.2-14.2-0.2,20994,List1B,white,man,,,,null,,,,
5297,"<img src=""portrait/BM1.jpg""style=""width:400px;height:400px;""></img>",4,html-button-response,54,295487,0.0-3.2-16.2,20994,List1B,white,man,,TRUE,4,,,,,
null,CORRECT,,html-keyboard-response,55,296992,0.0-3.2-17.2-0.2,20994,List1B,white,man,,,,null,,,,
2201,"<img src=""portrait/WW2.jpg""style=""width:400px;height:400px;""></img>",3,html-button-response,56,299199,0.0-3.2-19.2,20994,List1B,white,man,,TRUE,3,,,,,
null,CORRECT,,html-keyboard-response,57,300706,0.0-3.2-20.2-0.2,20994,List1B,white,man,,,,null,,,,
1572,"<img src=""portrait/WM2.jpg""style=""width:400px;height:400px;""></img>",7,html-button-response,58,302281,0.0-3.2-22.2,20994,List1B,white,man,,TRUE,7,,,,,
null,CORRECT,,html-keyboard-response,59,303786,0.0-3.2-23.2-0.2,20994,List1B,white,man,,,,null,,,,
1173,<p>You got 8 out of 8 right first time. Press Continue.</p>,0,html-button-response,60,304963,0.0-3.2-25.2,20994,List1B,white,man,,,,,,,,
23040,"<p>In this experiment, you will view photographs of the people from the memory game interacting.</p><p>By using the <strong>exact</strong> phrase given <i>after</i> the photograph appears and recalling the correct names of the people in the photographs, form a sentence describing the interaction. You do not need to capitalise names.</p><p>Type your answer in the space provided. Please complete every sentence before moving onto the next trial.</p><p>You will only have a few seconds to memorise each given photograph and phrase before you can respond, so try your best to focus.</p><p>An example is given below. Press 'Continue' when you are ready.</p><img src='img/speaking_example_v2.jpg' style='width:800px;height:460px;''></img>",0,html-button-response,61,329012,0.0-4.0,20994,List1B,white,man,,,,,,,,
2189,"<p>Before the experiment starts, you will watch two example trials. Press 'Continue'.</p>",0,html-button-response,62,332207,0.0-5.0,20994,List1B,white,man,,,,,,,,
null,<img src='img/speaking_WW.gif'></img>,,html-keyboard-response,63,335215,0.0-6.0,20994,List1B,white,man,,,,null,,,,
null,<p>is speaking to</p>,,html-keyboard-response,64,337217,0.0-7.0,20994,List1B,white,man,,,,null,,,,
1953,<p><b>Answer:</b> kate is speaking to beth</p>,0,html-button-response,65,339172,0.0-8.0,20994,List1B,white,man,,,,,,,,
null,<img src='img/pointing_BM.gif'></img>,,html-keyboard-response,66,342177,0.0-9.0,20994,List1B,white,man,,,,null,,,,
null,<p>are pointing at each other</p>,,html-keyboard-response,67,344179,0.0-10.0,20994,List1B,white,man,,,,null,,,,
3741,<p><b>Answer:</b> luke and dave are pointing at each other</p>,0,html-button-response,68,347921,0.0-11.0,20994,List1B,white,man,,,,,,,,
9369,"<p>Ready to start the experiment?</p><br><p><strong>Remember to describe the picture using a full sentence,</strong></p><p><strong>that combines the names of the people with the given phrase.</strong></p><p><strong>If you do not do this correctly you will not be paid.</strong></p><p><strong> You do not need to capitalise names or use punctuation.</strong></p><br><p>Press 'Continue' to begin.</p>",0,html-button-response,69,358296,0.0-12.0,20994,List1B,white,man,,,,,,,,
null,"<div style=""font-size:60px;"">+</div>",,html-keyboard-response,70,359800,0.0-13.0-0.0,20994,List1B,white,man,,,,null,,,,
null,"<img src=""stim_listB/shout5.gif""</stim_listB>",,html-keyboard-response,71,361808,0.0-13.0-1.0,20994,List1B,white,man,,,,null,,,,
null,is shouting at,,html-keyboard-response,72,363812,0.0-13.0-2.0,20994,List1B,white,man,,,,null,,,,
7848,,,survey-text,73,371669,0.0-13.0-3.0,20994,List1B,white,man,,,,,"{""Q0"":""fred is shouting at dave""}","<img src=""stim_listB/shout5.gif""</stim_listB>",is shouting at,
null,"<div style=""font-size:60px;"">+</div>",,html-keyboard-response,74,372177,0.0-13.0-0.1,20994,List1B,white,man,,,,null,,,,
null,"<img src=""stim_listB/kiss1.gif""</stim_listB>",,html-keyboard-response,75,374183,0.0-13.0-1.1,20994,List1B,white,man,,,,null,,,,
null,is kissing,,html-keyboard-response,76,376189,0.0-13.0-2.1,20994,List1B,white,man,,,,null,,,,
5771,,,survey-text,77,381964,0.0-13.0-3.1,20994,List1B,white,man,,,,,"{""Q0"":""fred is kissing beth""}","<img src=""stim_listB/kiss1.gif""</stim_listB>",is kissing,
null,"<div style=""font-size:60px;"">+</div>",,html-keyboard-response,78,382469,0.0-13.0-0.2,20994,List1B,white,man,,,,null,,,,
null,"<img src=""stim_listB/argue6.gif""</stim_listB>",,html-keyboard-response,79,384472,0.0-13.0-1.2,20994,List1B,white,man,,,,null,,,,
null,are arguing with each other,,html-keyboard-response,80,386475,0.0-13.0-2.2,20994,List1B,white,man,,,,null,,,,
10347,,,survey-text,81,396825,0.0-13.0-3.2,20994,List1B,white,man,,,,,"{""Q0"":""fred and dave are arguing with each other ""}","<img src=""stim_listB/argue6.gif""</stim_listB>",are arguing with each other,
null,"<div style=""font-size:60px;"">+</div>",,html-keyboard-response,82,397329,0.0-13.0-0.3,20994,List1B,white,man,,,,null,,,,
null,"<img src=""stim_listB/meet3.gif""</stim_listB>",,html-keyboard-response,83,399334,0.0-13.0-1.3,20994,List1B,white,man,,,,null,,,,
null,is meeting,,html-keyboard-response,84,401338,0.0-13.0-2.3,20994,List1B,white,man,,,,null,,,,
4607,,,survey-text,85,405949,0.0-13.0-3.3,20994,List1B,white,man,,,,,"{""Q0"":""ruth is meeting dave""}","<img src=""stim_listB/meet3.gif""</stim_listB>",is meeting,
null,"<div style=""font-size:60px;"">+</div>",,html-keyboard-response,86,406451,0.0-13.0-0.4,20994,List1B,white,man,,,,null,,,,
null,"<img src=""stim_listB/talk1.gif""</stim_listB>",,html-keyboard-response,87,408453,0.0-13.0-1.4,20994,List1B,white,man,,,,null,,,,
null,is talking to,,html-keyboard-response,88,410453,0.0-13.0-2.4,20994,List1B,white,man,,,,null,,,,
4220,,,survey-text,89,414673,0.0-13.0-3.4,20994,List1B,white,man,,,,,"{""Q0"":""fred is talking to kate""}","<img src=""stim_listB/talk1.gif""</stim_listB>",is talking to,
null,"<div style=""font-size:60px;"">+</div>",,html-keyboard-response,90,415175,0.0-13.0-0.5,20994,List1B,white,man,,,,null,,,,
null,"<img src=""stim_listB/hug3.gif""</stim_listB>",,html-keyboard-response,91,417177,0.0-13.0-1.5,20994,List1B,white,man,,,,null,,,,
null,is hugging,,html-keyboard-response,92,419180,0.0-13.0-2.5,20994,List1B,white,man,,,,null,,,,
5659,,,survey-text,93,424843,0.0-13.0-3.5,20994,List1B,white,man,,,,,"{""Q0"":""luke is hugging ruth""}","<img src=""stim_listB/hug3.gif""</stim_listB>",is hugging,
null,"<div style=""font-size:60px;"">+</div>",,html-keyboard-response,94,425349,0.0-13.0-0.6,20994,List1B,white,man,,,,null,,,,
null,"<img src=""stim_listB/marry2.gif""</stim_listB>",,html-keyboard-response,95,427355,0.0-13.0-1.6,20994,List1B,white,man,,,,null,,,,
null,are marrying each other,,html-keyboard-response,96,429360,0.0-13.0-2.6,20994,List1B,white,man,,,,null,,,,
8328,,,survey-text,97,437692,0.0-13.0-3.6,20994,List1B,white,man,,,,,"{""Q0"":""fred and kate are marrying each other""}","<img src=""stim_listB/marry2.gif""</stim_listB>",are marrying each other,
null,"<div style=""font-size:60px;"">+</div>",,html-keyboard-response,98,438195,0.0-13.0-0.7,20994,List1B,white,man,,,,null,,,,
null,"<img src=""stim_listB/touch6.gif""</stim_listB>",,html-keyboard-response,99,440198,0.0-13.0-1.7,20994,List1B,white,man,,,,null,,,,
null,are touching each other,,html-keyboard-response,100,442203,0.0-13.0-2.7,20994,List1B,white,man,,,,null,,,,
8087,,,survey-text,101,450298,0.0-13.0-3.7,20994,List1B,white,man,,,,,"{""Q0"":""fred and luke are touching each other""}","<img src=""stim_listB/touch6.gif""</stim_listB>",are touching each other,
null,"<div style=""font-size:60px;"">+</div>",,html-keyboard-response,102,450805,0.0-13.0-0.8,20994,List1B,white,man,,,,null,,,,
null,"<img src=""stim_listB/dance7.gif""</stim_listB>",,html-keyboard-response,103,452810,0.0-13.0-1.8,20994,List1B,white,man,,,,null,,,,
null,is dancing with,,html-keyboard-response,104,454816,0.0-13.0-2.8,20994,List1B,white,man,,,,null,,,,
4598,,,survey-text,105,459420,0.0-13.0-3.8,20994,List1B,white,man,,,,,"{""Q0"":""beth is dancing with ruth""}","<img src=""stim_listB/dance7.gif""</stim_listB>",is dancing with,
null,"<div style=""font-size:60px;"">+</div>",,html-keyboard-response,106,459924,0.0-13.0-0.9,20994,List1B,white,man,,,,null,,,,
null,"<img src=""stim_listB/fight4.gif""</stim_listB>",,html-keyboard-response,107,461928,0.0-13.0-1.9,20994,List1B,white,man,,,,null,,,,
null,are fighting each other,,html-keyboard-response,108,463931,0.0-13.0-2.9,20994,List1B,white,man,,,,null,,,,
7629,,,survey-text,109,471562,0.0-13.0-3.9,20994,List1B,white,man,,,,,"{""Q0"":""jane is fighting with luke""}","<img src=""stim_listB/fight4.gif""</stim_listB>",are fighting each other,
null,"<div style=""font-size:60px;"">+</div>",,html-keyboard-response,110,472064,0.0-13.0-0.10,20994,List1B,white,man,,,,null,,,,
null,"<img src=""stim_listB/kiss5.gif""</stim_listB>",,html-keyboard-response,111,474067,0.0-13.0-1.10,20994,List1B,white,man,,,,null,,,,
null,is kissing,,html-keyboard-response,112,476068,0.0-13.0-2.10,20994,List1B,white,man,,,,null,,,,
6219,,,survey-text,113,482291,0.0-13.0-3.10,20994,List1B,white,man,,,,,"{""Q0"":""fred is kissing dave""}","<img src=""stim_listB/kiss5.gif""</stim_listB>",is kissing,
null,"<div style=""font-size:60px;"">+</div>",,html-keyboard-response,114,482796,0.0-13.0-0.11,20994,List1B,white,man,,,,null,,,,
null,"<img src=""stim_listB/dance3.gif""</stim_listB>",,html-keyboard-response,115,484800,0.0-13.0-1.11,20994,List1B,white,man,,,,null,,,,
null,is dancing with,,html-keyboard-response,116,486801,0.0-13.0-2.11,20994,List1B,white,man,,,,null,,,,
4488,,,survey-text,117,491291,0.0-13.0-3.11,20994,List1B,white,man,,,,,"{""Q0"":""jane is dancing with luke""}","<img src=""stim_listB/dance3.gif""</stim_listB>",is dancing with,
null,"<div style=""font-size:60px;"">+</div>",,html-keyboard-response,118,491792,0.0-13.0-0.12,20994,List1B,white,man,,,,null,,,,
null,"<img src=""stim_listB/fight2.gif""</stim_listB>",,html-keyboard-response,119,493794,0.0-13.0-1.12,20994,List1B,white,man,,,,null,,,,
null,are fighting each other,,html-keyboard-response,120,495795,0.0-13.0-2.12,20994,List1B,white,man,,,,null,,,,
6416,,,survey-text,121,502213,0.0-13.0-3.12,20994,List1B,white,man,,,,,"{""Q0"":""fred and beth are fighting each other""}","<img src=""stim_listB/fight2.gif""</stim_listB>",are fighting each other,
null,"<div style=""font-size:60px;"">+</div>",,html-keyboard-response,122,502715,0.0-13.0-0.13,20994,List1B,white,man,,,,null,,,,
null,"<img src=""stim_listB/marry3.gif""</stim_listB>",,html-keyboard-response,123,504719,0.0-13.0-1.13,20994,List1B,white,man,,,,null,,,,
null,is marrying,,html-keyboard-response,124,506721,0.0-13.0-2.13,20994,List1B,white,man,,,,null,,,,
5481,,,survey-text,125,512207,0.0-13.0-3.13,20994,List1B,white,man,,,,,"{""Q0"":""ruth is marrying dave""}","<img src=""stim_listB/marry3.gif""</stim_listB>",is marrying,
null,"<div style=""font-size:60px;"">+</div>",,html-keyboard-response,126,512712,0.0-13.0-0.14,20994,List1B,white,man,,,,null,,,,
null,"<img src=""stim_listB/dance6.gif""</stim_listB>",,html-keyboard-response,127,514716,0.0-13.0-1.14,20994,List1B,white,man,,,,null,,,,
null,are dancing with each other,,html-keyboard-response,128,516717,0.0-13.0-2.14,20994,List1B,white,man,,,,null,,,,
10765,,,survey-text,129,527487,0.0-13.0-3.14,20994,List1B,white,man,,,,,"{""Q0"":""dave and mike are dancing with each other""}","<img src=""stim_listB/dance6.gif""</stim_listB>",are dancing with each other,
null,"<div style=""font-size:60px;"">+</div>",,html-keyboard-response,130,527994,0.0-13.0-0.15,20994,List1B,white,man,,,,null,,,,
null,"<img src=""stim_listB/hug8.gif""</stim_listB>",,html-keyboard-response,131,530003,0.0-13.0-1.15,20994,List1B,white,man,,,,null,,,,
null,are hugging each other,,html-keyboard-response,132,532008,0.0-13.0-2.15,20994,List1B,white,man,,,,null,,,,
5599,,,survey-text,133,537610,0.0-13.0-3.15,20994,List1B,white,man,,,,,"{""Q0"":""jane and kate are hugging each other""}","<img src=""stim_listB/hug8.gif""</stim_listB>",are hugging each other,
null,"<div style=""font-size:60px;"">+</div>",,html-keyboard-response,134,538111,0.0-13.0-0.16,20994,List1B,white,man,,,,null,,,,
null,"<img src=""stim_listB/dance4.gif""</stim_listB>",,html-keyboard-response,135,540113,0.0-13.0-1.16,20994,List1B,white,man,,,,null,,,,
null,are dancing with each other,,html-keyboard-response,136,542114,0.0-13.0-2.16,20994,List1B,white,man,,,,null,,,,
6617,,,survey-text,137,548735,0.0-13.0-3.16,20994,List1B,white,man,,,,,"{""Q0"":""ruth and dave are dancing with each other""}","<img src=""stim_listB/dance4.gif""</stim_listB>",are dancing with each other,
null,"<div style=""font-size:60px;"">+</div>",,html-keyboard-response,138,549240,0.0-13.0-0.17,20994,List1B,white,man,,,,null,,,,
null,"<img src=""stim_listB/hug6.gif""</stim_listB>",,html-keyboard-response,139,551245,0.0-13.0-1.17,20994,List1B,white,man,,,,null,,,,
null,are hugging each other,,html-keyboard-response,140,553249,0.0-13.0-2.17,20994,List1B,white,man,,,,null,,,,
5528,,,survey-text,141,558781,0.0-13.0-3.17,20994,List1B,white,man,,,,,"{""Q0"":""dave and mike are hugging each other""}","<img src=""stim_listB/hug6.gif""</stim_listB>",are hugging each other,
null,"<div style=""font-size:60px;"">+</div>",,html-keyboard-response,142,559283,0.0-13.0-0.18,20994,List1B,white,man,,,,null,,,,
null,"<img src=""stim_listB/kiss6.gif""</stim_listB>",,html-keyboard-response,143,561287,0.0-13.0-1.18,20994,List1B,white,man,,,,null,,,,
null,are kissing each other,,html-keyboard-response,144,563288,0.0-13.0-2.18,20994,List1B,white,man,,,,null,,,,
5794,,,survey-text,145,569084,0.0-13.0-3.18,20994,List1B,white,man,,,,,"{""Q0"":""dave and mike are kissing each other""}","<img src=""stim_listB/kiss6.gif""</stim_listB>",are kissing each other,
null,"<div style=""font-size:60px;"">+</div>",,html-keyboard-response,146,569586,0.0-13.0-0.19,20994,List1B,white,man,,,,null,,,,
null,"<img src=""stim_listB/dance5.gif""</stim_listB>",,html-keyboard-response,147,571587,0.0-13.0-1.19,20994,List1B,white,man,,,,null,,,,
null,is dancing with,,html-keyboard-response,148,573588,0.0-13.0-2.19,20994,List1B,white,man,,,,null,,,,
7170,,,survey-text,149,580760,0.0-13.0-3.19,20994,List1B,white,man,,,,,"{""Q0"":""fred is dancing with dave""}","<img src=""stim_listB/dance5.gif""</stim_listB>",is dancing with,
4513,"<img src='img/portrait_matrix_list1.JPG' style='width:900px;height:500px;''></img><p>If you have memorised all the portraits and names and are ready to start, press Continue.</p><p><strong>Please note: Your memory of these faces will be tested 4 times during this experiment.</strong></p>",0,html-button-response,150,585278,0.0-14.0-0.0,20994,List1B,white,man,,,,,,,,
1337,"<img src=""portrait/WW2.jpg""style=""width:400px;height:400px;""></img>",3,html-button-response,151,587629,0.0-14.0-1.0,20994,List1B,white,man,,TRUE,3,,,,,
null,CORRECT,,html-keyboard-response,152,589137,0.0-14.0-2.0-0.0,20994,List1B,white,man,,,,null,,,,
2074,"<img src=""portrait/BM2.jpg""style=""width:400px;height:400px;""></img>",5,html-button-response,153,591219,0.0-14.0-4.0,20994,List1B,white,man,,TRUE,5,,,,,
null,CORRECT,,html-keyboard-response,154,592756,0.0-14.0-5.0-0.0,20994,List1B,white,man,,,,null,,,,
4763,"<img src=""portrait/BW2.jpg""style=""width:400px;height:400px;""></img>",2,html-button-response,155,597526,0.0-14.0-7.0,20994,List1B,white,man,,TRUE,2,,,,,
null,CORRECT,,html-keyboard-response,156,599028,0.0-14.0-8.0-0.0,20994,List1B,white,man,,,,null,,,,
1354,"<img src=""portrait/BW1.jpg""style=""width:400px;height:400px;""></img>",0,html-button-response,157,600386,0.0-14.0-10.0,20994,List1B,white,man,,TRUE,0,,,,,
null,CORRECT,,html-keyboard-response,158,601890,0.0-14.0-11.0-0.0,20994,List1B,white,man,,,,null,,,,
1777,"<img src=""portrait/WM2.jpg""style=""width:400px;height:400px;""></img>",7,html-button-response,159,603673,0.0-14.0-13.0,20994,List1B,white,man,,TRUE,7,,,,,
null,CORRECT,,html-keyboard-response,160,605179,0.0-14.0-14.0-0.0,20994,List1B,white,man,,,,null,,,,
1472,"<img src=""portrait/BM1.jpg""style=""width:400px;height:400px;""></img>",4,html-button-response,161,606654,0.0-14.0-16.0,20994,List1B,white,man,,TRUE,4,,,,,
null,CORRECT,,html-keyboard-response,162,608160,0.0-14.0-17.0-0.0,20994,List1B,white,man,,,,null,,,,
2058,"<img src=""portrait/WW1.jpg""style=""width:400px;height:400px;""></img>",1,html-button-response,163,610221,0.0-14.0-19.0,20994,List1B,white,man,,TRUE,1,,,,,
null,CORRECT,,html-keyboard-response,164,611726,0.0-14.0-20.0-0.0,20994,List1B,white,man,,,,null,,,,
2223,"<img src=""portrait/WM1.jpg""style=""width:400px;height:400px;""></img>",6,html-button-response,165,613956,0.0-14.0-22.0,20994,List1B,white,man,,TRUE,6,,,,,
null,CORRECT,,html-keyboard-response,166,615462,0.0-14.0-23.0-0.0,20994,List1B,white,man,,,,null,,,,
1279,<p>You got 8 out of 8 right first time. Press Continue.</p>,0,html-button-response,167,616754,0.0-14.0-25.0,20994,List1B,white,man,,,,,,,,
null,"<div style=""font-size:60px;"">+</div>",,html-keyboard-response,168,618267,0.0-15.0-0.0,20994,List1B,white,man,,,,null,,,,
null,"<img src=""stim_listB/kiss8.gif""</stim_listB>",,html-keyboard-response,169,620272,0.0-15.0-1.0,20994,List1B,white,man,,,,null,,,,
null,are kissing each other,,html-keyboard-response,170,622280,0.0-15.0-2.0,20994,List1B,white,man,,,,null,,,,
7295,,,survey-text,171,629581,0.0-15.0-3.0,20994,List1B,white,man,,,,,"{""Q0"":""kate and jane are kissing each other""}","<img src=""stim_listB/kiss8.gif""</stim_listB>",are kissing each other,
null,"<div style=""font-size:60px;"">+</div>",,html-keyboard-response,172,630084,0.0-15.0-0.1,20994,List1B,white,man,,,,null,,,,
null,"<img src=""stim_listB/marry8.gif""</stim_listB>",,html-keyboard-response,173,632085,0.0-15.0-1.1,20994,List1B,white,man,,,,null,,,,
null,are marrying each other,,html-keyboard-response,174,634087,0.0-15.0-2.1,20994,List1B,white,man,,,,null,,,,
5680,,,survey-text,175,639771,0.0-15.0-3.1,20994,List1B,white,man,,,,,"{""Q0"":""beth and ruth are marrying each other""}","<img src=""stim_listB/marry8.gif""</stim_listB>",are marrying each other,
null,"<div style=""font-size:60px;"">+</div>",,html-keyboard-response,176,640272,0.0-15.0-0.2,20994,List1B,white,man,,,,null,,,,
null,"<img src=""stim_listB/marry6.gif""</stim_listB>",,html-keyboard-response,177,642276,0.0-15.0-1.2,20994,List1B,white,man,,,,null,,,,
null,are marrying each other,,html-keyboard-response,178,644279,0.0-15.0-2.2,20994,List1B,white,man,,,,null,,,,
5896,,,survey-text,179,650179,0.0-15.0-3.2,20994,List1B,white,man,,,,,"{""Q0"":""fred and dave are marrying each other""}","<img src=""stim_listB/marry6.gif""</stim_listB>",are marrying each other,
null,"<div style=""font-size:60px;"">+</div>",,html-keyboard-response,180,650684,0.0-15.0-0.3,20994,List1B,white,man,,,,null,,,,
null,"<img src=""stim_listB/talk5.gif""</stim_listB>",,html-keyboard-response,181,652688,0.0-15.0-1.3,20994,List1B,white,man,,,,null,,,,
null,is talking to,,html-keyboard-response,182,654690,0.0-15.0-2.3,20994,List1B,white,man,,,,null,,,,
4508,,,survey-text,183,659200,0.0-15.0-3.3,20994,List1B,white,man,,,,,"{""Q0"":""dave is talking to fred""}","<img src=""stim_listB/talk5.gif""</stim_listB>",is talking to,
null,"<div style=""font-size:60px;"">+</div>",,html-keyboard-response,184,659703,0.0-15.0-0.4,20994,List1B,white,man,,,,null,,,,
null,"<img src=""stim_listB/hug5.gif""</stim_listB>",,html-keyboard-response,185,661707,0.0-15.0-1.4,20994,List1B,white,man,,,,null,,,,
null,is hugging,,html-keyboard-response,186,663707,0.0-15.0-2.4,20994,List1B,white,man,,,,null,,,,
5348,,,survey-text,187,669057,0.0-15.0-3.4,20994,List1B,white,man,,,,,"{""Q0"":""luke is hugging fred""}","<img src=""stim_listB/hug5.gif""</stim_listB>",is hugging,
null,"<div style=""font-size:60px;"">+</div>",,html-keyboard-response,188,669558,0.0-15.0-0.5,20994,List1B,white,man,,,,null,,,,
null,"<img src=""stim_listB/fight7.gif""</stim_listB>",,html-keyboard-response,189,671559,0.0-15.0-1.5,20994,List1B,white,man,,,,null,,,,
null,is fighting,,html-keyboard-response,190,673564,0.0-15.0-2.5,20994,List1B,white,man,,,,null,,,,
5575,,,survey-text,191,679147,0.0-15.0-3.5,20994,List1B,white,man,,,,,"{""Q0"":""jane is fighting kate""}","<img src=""stim_listB/fight7.gif""</stim_listB>",is fighting,
null,"<div style=""font-size:60px;"">+</div>",,html-keyboard-response,192,679655,0.0-15.0-0.6,20994,List1B,white,man,,,,null,,,,
null,"<img src=""stim_listB/shout1.gif""</stim_listB>",,html-keyboard-response,193,681661,0.0-15.0-1.6,20994,List1B,white,man,,,,null,,,,
null,is shouting at,,html-keyboard-response,194,683664,0.0-15.0-2.6,20994,List1B,white,man,,,,null,,,,
5246,,,survey-text,195,688915,0.0-15.0-3.6,20994,List1B,white,man,,,,,"{""Q0"":""beth is shouting at fred""}","<img src=""stim_listB/shout1.gif""</stim_listB>",is shouting at,
null,"<div style=""font-size:60px;"">+</div>",,html-keyboard-response,196,689419,0.0-15.0-0.7,20994,List1B,white,man,,,,null,,,,
null,"<img src=""stim_listB/meet4.gif""</stim_listB>",,html-keyboard-response,197,691422,0.0-15.0-1.7,20994,List1B,white,man,,,,null,,,,
null,are meeting each other,,html-keyboard-response,198,693424,0.0-15.0-2.7,20994,List1B,white,man,,,,null,,,,
9377,,,survey-text,199,702801,0.0-15.0-3.7,20994,List1B,white,man,,,,,"{""Q0"":""luke and ruth are meeting each other""}","<img src=""stim_listB/meet4.gif""</stim_listB>",are meeting each other,
null,"<div style=""font-size:60px;"">+</div>",,html-keyboard-response,200,703306,0.0-15.0-0.8,20994,List1B,white,man,,,,null,,,,
null,"<img src=""stim_listB/fight5.gif""</stim_listB>",,html-keyboard-response,201,705314,0.0-15.0-1.8,20994,List1B,white,man,,,,null,,,,
null,is fighting,,html-keyboard-response,202,707315,0.0-15.0-2.8,20994,List1B,white,man,,,,null,,,,
6407,,,survey-text,203,713726,0.0-15.0-3.8,20994,List1B,white,man,,,,,"{""Q0"":""dave is fighting mike""}","<img src=""stim_listB/fight5.gif""</stim_listB>",is fighting,
null,"<div style=""font-size:60px;"">+</div>",,html-keyboard-response,204,714230,0.0-15.0-0.9,20994,List1B,white,man,,,,null,,,,
null,"<img src=""stim_listB/shout7.gif""</stim_listB>",,html-keyboard-response,205,716233,0.0-15.0-1.9,20994,List1B,white,man,,,,null,,,,
null,is shouting at,,html-keyboard-response,206,718233,0.0-15.0-2.9,20994,List1B,white,man,,,,null,,,,
5328,,,survey-text,207,723563,0.0-15.0-3.9,20994,List1B,white,man,,,,,"{""Q0"":""jane is shouting at beth""}","<img src=""stim_listB/shout7.gif""</stim_listB>",is shouting at,
null,"<div style=""font-size:60px;"">+</div>",,html-keyboard-response,208,724066,0.0-15.0-0.10,20994,List1B,white,man,,,,null,,,,
null,"<img src=""stim_listB/kiss2.gif""</stim_listB>",,html-keyboard-response,209,726069,0.0-15.0-1.10,20994,List1B,white,man,,,,null,,,,
null,are kissing each other,,html-keyboard-response,210,728071,0.0-15.0-2.10,20994,List1B,white,man,,,,null,,,,
8018,,,survey-text,211,736090,0.0-15.0-3.10,20994,List1B,white,man,,,,,"{""Q0"":""mike and kate are kissing each other""}","<img src=""stim_listB/kiss2.gif""</stim_listB>",are kissing each other,
null,"<div style=""font-size:60px;"">+</div>",,html-keyboard-response,212,736593,0.0-15.0-0.11,20994,List1B,white,man,,,,null,,,,
null,"<img src=""stim_listB/talk2.gif""</stim_listB>",,html-keyboard-response,213,738597,0.0-15.0-1.11,20994,List1B,white,man,,,,null,,,,
null,are talking to each other,,html-keyboard-response,214,740603,0.0-15.0-2.11,20994,List1B,white,man,,,,null,,,,
5693,,,survey-text,215,746304,0.0-15.0-3.11,20994,List1B,white,man,,,,,"{""Q0"":""mike and beth are talking to each other""}","<img src=""stim_listB/talk2.gif""</stim_listB>",are talking to each other,
null,"<div style=""font-size:60px;"">+</div>",,html-keyboard-response,216,746810,0.0-15.0-0.12,20994,List1B,white,man,,,,null,,,,
null,"<img src=""stim_listB/marry5.gif""</stim_listB>",,html-keyboard-response,217,748814,0.0-15.0-1.12,20994,List1B,white,man,,,,null,,,,
null,is marrying,,html-keyboard-response,218,750816,0.0-15.0-2.12,20994,List1B,white,man,,,,null,,,,
4249,,,survey-text,219,755068,0.0-15.0-3.12,20994,List1B,white,man,,,,,"{""Q0"":""luke is marrying mike""}","<img src=""stim_listB/marry5.gif""</stim_listB>",is marrying,
null,"<div style=""font-size:60px;"">+</div>",,html-keyboard-response,220,755575,0.0-15.0-0.13,20994,List1B,white,man,,,,null,,,,
null,"<img src=""stim_listB/kiss7.gif""</stim_listB>",,html-keyboard-response,221,757578,0.0-15.0-1.13,20994,List1B,white,man,,,,null,,,,
null,is kissing,,html-keyboard-response,222,759580,0.0-15.0-2.13,20994,List1B,white,man,,,,null,,,,
8917,,,survey-text,223,768502,0.0-15.0-3.13,20994,List1B,white,man,,,,,"{""Q0"":""jane and kate are kissing each other""}","<img src=""stim_listB/kiss7.gif""</stim_listB>",is kissing,
null,"<div style=""font-size:60px;"">+</div>",,html-keyboard-response,224,769009,0.0-15.0-0.14,20994,List1B,white,man,,,,null,,,,
null,"<img src=""stim_listB/touch1.gif""</stim_listB>",,html-keyboard-response,225,771012,0.0-15.0-1.14,20994,List1B,white,man,,,,null,,,,
null,is touching,,html-keyboard-response,226,773014,0.0-15.0-2.14,20994,List1B,white,man,,,,null,,,,
3887,,,survey-text,227,776902,0.0-15.0-3.14,20994,List1B,white,man,,,,,"{""Q0"":""mike is touching kate""}","<img src=""stim_listB/touch1.gif""</stim_listB>",is touching,
null,"<div style=""font-size:60px;"">+</div>",,html-keyboard-response,228,777405,0.0-15.0-0.15,20994,List1B,white,man,,,,null,,,,
null,"<img src=""stim_listB/marry1.gif""</stim_listB>",,html-keyboard-response,229,779408,0.0-15.0-1.15,20994,List1B,white,man,,,,null,,,,
null,is marrying,,html-keyboard-response,230,781410,0.0-15.0-2.15,20994,List1B,white,man,,,,null,,,,
3787,,,survey-text,231,785198,0.0-15.0-3.15,20994,List1B,white,man,,,,,"{""Q0"":""beth is marrying mike""}","<img src=""stim_listB/marry1.gif""</stim_listB>",is marrying,
null,"<div style=""font-size:60px;"">+</div>",,html-keyboard-response,232,785703,0.0-15.0-0.16,20994,List1B,white,man,,,,null,,,,
null,"<img src=""stim_listB/touch3.gif""</stim_listB>",,html-keyboard-response,233,787706,0.0-15.0-1.16,20994,List1B,white,man,,,,null,,,,
null,is touching,,html-keyboard-response,234,789708,0.0-15.0-2.16,20994,List1B,white,man,,,,null,,,,
4572,,,survey-text,235,794281,0.0-15.0-3.16,20994,List1B,white,man,,,,,"{""Q0"":""ruth is touching dave""}","<img src=""stim_listB/touch3.gif""</stim_listB>",is touching,
null,"<div style=""font-size:60px;"">+</div>",,html-keyboard-response,236,794785,0.0-15.0-0.17,20994,List1B,white,man,,,,null,,,,
null,"<img src=""stim_listB/dance8.gif""</stim_listB>",,html-keyboard-response,237,796788,0.0-15.0-1.17,20994,List1B,white,man,,,,null,,,,
null,are dancing with each other,,html-keyboard-response,238,798791,0.0-15.0-2.17,20994,List1B,white,man,,,,null,,,,
11621,,,survey-text,239,810416,0.0-15.0-3.17,20994,List1B,white,man,,,,,"{""Q0"":""jane and kate are dancing with each other""}","<img src=""stim_listB/dance8.gif""</stim_listB>",are dancing with each other,
null,"<div style=""font-size:60px;"">+</div>",,html-keyboard-response,240,810923,0.0-15.0-0.18,20994,List1B,white,man,,,,null,,,,
null,"<img src=""stim_listB/argue5.gif""</stim_listB>",,html-keyboard-response,241,812925,0.0-15.0-1.18,20994,List1B,white,man,,,,null,,,,
null,is arguing with,,html-keyboard-response,242,814928,0.0-15.0-2.18,20994,List1B,white,man,,,,null,,,,
11669,,,survey-text,243,826601,0.0-15.0-3.18,20994,List1B,white,man,,,,,"{""Q0"":""mike is arguing with luke""}","<img src=""stim_listB/argue5.gif""</stim_listB>",is arguing with,
null,"<div style=""font-size:60px;"">+</div>",,html-keyboard-response,244,827105,0.0-15.0-0.19,20994,List1B,white,man,,,,null,,,,
null,"<img src=""stim_listB/fight1.gif""</stim_listB>",,html-keyboard-response,245,829110,0.0-15.0-1.19,20994,List1B,white,man,,,,null,,,,
null,is fighting,,html-keyboard-response,246,831111,0.0-15.0-2.19,20994,List1B,white,man,,,,null,,,,
5967,,,survey-text,247,837079,0.0-15.0-3.19,20994,List1B,white,man,,,,,"{""Q0"":""kate is fighting mike""}","<img src=""stim_listB/fight1.gif""</stim_listB>",is fighting,
6566,"<img src='img/portrait_matrix_list1.JPG' style='width:900px;height:500px;''></img><p>If you have memorised all the portraits and names and are ready to start, press Continue.</p><p><strong>Please note: Your memory of these faces will be tested 4 times during this experiment.</strong></p>",0,html-button-response,248,843653,0.0-16.0-0.0,20994,List1B,white,man,,,,,,,,
1385,"<img src=""portrait/BW1.jpg""style=""width:400px;height:400px;""></img>",0,html-button-response,249,846042,0.0-16.0-1.0,20994,List1B,white,man,,TRUE,0,,,,,
null,CORRECT,,html-keyboard-response,250,847546,0.0-16.0-2.0-0.0,20994,List1B,white,man,,,,null,,,,
1985,"<img src=""portrait/BM2.jpg""style=""width:400px;height:400px;""></img>",5,html-button-response,251,849535,0.0-16.0-4.0,20994,List1B,white,man,,TRUE,5,,,,,
null,CORRECT,,html-keyboard-response,252,851042,0.0-16.0-5.0-0.0,20994,List1B,white,man,,,,null,,,,
3979,"<img src=""portrait/BW2.jpg""style=""width:400px;height:400px;""></img>",2,html-button-response,253,855027,0.0-16.0-7.0,20994,List1B,white,man,,TRUE,2,,,,,
null,CORRECT,,html-keyboard-response,254,856531,0.0-16.0-8.0-0.0,20994,List1B,white,man,,,,null,,,,
1400,"<img src=""portrait/WW1.jpg""style=""width:400px;height:400px;""></img>",1,html-button-response,255,857935,0.0-16.0-10.0,20994,List1B,white,man,,TRUE,1,,,,,
null,CORRECT,,html-keyboard-response,256,859440,0.0-16.0-11.0-0.0,20994,List1B,white,man,,,,null,,,,
1596,"<img src=""portrait/WW2.jpg""style=""width:400px;height:400px;""></img>",3,html-button-response,257,861043,0.0-16.0-13.0,20994,List1B,white,man,,TRUE,3,,,,,
null,CORRECT,,html-keyboard-response,258,862550,0.0-16.0-14.0-0.0,20994,List1B,white,man,,,,null,,,,
1739,"<img src=""portrait/BM1.jpg""style=""width:400px;height:400px;""></img>",4,html-button-response,259,864296,0.0-16.0-16.0,20994,List1B,white,man,,TRUE,4,,,,,
null,CORRECT,,html-keyboard-response,260,865798,0.0-16.0-17.0-0.0,20994,List1B,white,man,,,,null,,,,
1218,"<img src=""portrait/WM2.jpg""style=""width:400px;height:400px;""></img>",7,html-button-response,261,867022,0.0-16.0-19.0,20994,List1B,white,man,,TRUE,7,,,,,
null,CORRECT,,html-keyboard-response,262,868524,0.0-16.0-20.0-0.0,20994,List1B,white,man,,,,null,,,,
1241,"<img src=""portrait/WM1.jpg""style=""width:400px;height:400px;""></img>",6,html-button-response,263,869766,0.0-16.0-22.0,20994,List1B,white,man,,TRUE,6,,,,,
null,CORRECT,,html-keyboard-response,264,871269,0.0-16.0-23.0-0.0,20994,List1B,white,man,,,,null,,,,
3999,<p>You got 8 out of 8 right first time. Press Continue.</p>,0,html-button-response,265,875277,0.0-16.0-25.0,20994,List1B,white,man,,,,,,,,
null,"<div style=""font-size:60px;"">+</div>",,html-keyboard-response,266,876786,0.0-17.0-0.0,20994,List1B,white,man,,,,null,,,,
null,"<img src=""stim_listB/marry7.gif""</stim_listB>",,html-keyboard-response,267,878792,0.0-17.0-1.0,20994,List1B,white,man,,,,null,,,,
null,is marrying,,html-keyboard-response,268,880796,0.0-17.0-2.0,20994,List1B,white,man,,,,null,,,,
4808,,,survey-text,269,885605,0.0-17.0-3.0,20994,List1B,white,man,,,,,"{""Q0"":""ruth is marrying kate""}","<img src=""stim_listB/marry7.gif""</stim_listB>",is marrying,
null,"<div style=""font-size:60px;"">+</div>",,html-keyboard-response,270,886107,0.0-17.0-0.1,20994,List1B,white,man,,,,null,,,,
null,"<img src=""stim_listB/hug1.gif""</stim_listB>",,html-keyboard-response,271,888110,0.0-17.0-1.1,20994,List1B,white,man,,,,null,,,,
null,is hugging,,html-keyboard-response,272,890111,0.0-17.0-2.1,20994,List1B,white,man,,,,null,,,,
5374,,,survey-text,273,895486,0.0-17.0-3.1,20994,List1B,white,man,,,,,"{""Q0"":""fred is hugging beth""}","<img src=""stim_listB/hug1.gif""</stim_listB>",is hugging,
null,"<div style=""font-size:60px;"">+</div>",,html-keyboard-response,274,895992,0.0-17.0-0.2,20994,List1B,white,man,,,,null,,,,
null,"<img src=""stim_listB/hug4.gif""</stim_listB>",,html-keyboard-response,275,897995,0.0-17.0-1.2,20994,List1B,white,man,,,,null,,,,
null,are hugging each other,,html-keyboard-response,276,899996,0.0-17.0-2.2,20994,List1B,white,man,,,,null,,,,
5542,,,survey-text,277,905542,0.0-17.0-3.2,20994,List1B,white,man,,,,,"{""Q0"":""jane and dave are hugging each other""}","<img src=""stim_listB/hug4.gif""</stim_listB>",are hugging each other,
null,"<div style=""font-size:60px;"">+</div>",,html-keyboard-response,278,906046,0.0-17.0-0.3,20994,List1B,white,man,,,,null,,,,
null,"<img src=""stim_listB/fight8.gif""</stim_listB>",,html-keyboard-response,279,908050,0.0-17.0-1.3,20994,List1B,white,man,,,,null,,,,
null,are fighting each other,,html-keyboard-response,280,910052,0.0-17.0-2.3,20994,List1B,white,man,,,,null,,,,
7011,,,survey-text,281,917066,0.0-17.0-3.3,20994,List1B,white,man,,,,,"{""Q0"":""ruth and beth are fighting with each other""}","<img src=""stim_listB/fight8.gif""</stim_listB>",are fighting each other,
null,"<div style=""font-size:60px;"">+</div>",,html-keyboard-response,282,917570,0.0-17.0-0.4,20994,List1B,white,man,,,,null,,,,
null,"<img src=""stim_listB/shout6.gif""</stim_listB>",,html-keyboard-response,283,919573,0.0-17.0-1.4,20994,List1B,white,man,,,,null,,,,
null,are shouting at each other,,html-keyboard-response,284,921580,0.0-17.0-2.4,20994,List1B,white,man,,,,null,,,,
6151,,,survey-text,285,927739,0.0-17.0-3.4,20994,List1B,white,man,,,,,"{""Q0"":""dave and mike are shouting at each other""}","<img src=""stim_listB/shout6.gif""</stim_listB>",are shouting at each other,
null,"<div style=""font-size:60px;"">+</div>",,html-keyboard-response,286,928248,0.0-17.0-0.5,20994,List1B,white,man,,,,null,,,,
null,"<img src=""stim_listB/talk7.gif""</stim_listB>",,html-keyboard-response,287,930254,0.0-17.0-1.5,20994,List1B,white,man,,,,null,,,,
null,is talking to,,html-keyboard-response,288,932258,0.0-17.0-2.5,20994,List1B,white,man,,,,null,,,,
3932,,,survey-text,289,936194,0.0-17.0-3.5,20994,List1B,white,man,,,,,"{""Q0"":""jane is talking to beth""}","<img src=""stim_listB/talk7.gif""</stim_listB>",is talking to,
null,"<div style=""font-size:60px;"">+</div>",,html-keyboard-response,290,936697,0.0-17.0-0.6,20994,List1B,white,man,,,,null,,,,
null,"<img src=""stim_listB/argue7.gif""</stim_listB>",,html-keyboard-response,291,938702,0.0-17.0-1.6,20994,List1B,white,man,,,,null,,,,
null,is arguing with,,html-keyboard-response,292,940704,0.0-17.0-2.6,20994,List1B,white,man,,,,null,,,,
4877,,,survey-text,293,945583,0.0-17.0-3.6,20994,List1B,white,man,,,,,"{""Q0"":""kate is arguing with ruth""}","<img src=""stim_listB/argue7.gif""</stim_listB>",is arguing with,
null,"<div style=""font-size:60px;"">+</div>",,html-keyboard-response,294,946089,0.0-17.0-0.7,20994,List1B,white,man,,,,null,,,,
null,"<img src=""stim_listB/shout8.gif""</stim_listB>",,html-keyboard-response,295,948096,0.0-17.0-1.7,20994,List1B,white,man,,,,null,,,,
null,are shouting at each other,,html-keyboard-response,296,950099,0.0-17.0-2.7,20994,List1B,white,man,,,,null,,,,
8117,,,survey-text,297,958217,0.0-17.0-3.7,20994,List1B,white,man,,,,,"{""Q0"":""kate and jane are shouting at each other""}","<img src=""stim_listB/shout8.gif""</stim_listB>",are shouting at each other,
null,"<div style=""font-size:60px;"">+</div>",,html-keyboard-response,298,958718,0.0-17.0-0.8,20994,List1B,white,man,,,,null,,,,
null,"<img src=""stim_listB/kiss3.gif""</stim_listB>",,html-keyboard-response,299,960719,0.0-17.0-1.8,20994,List1B,white,man,,,,null,,,,
null,is kissing,,html-keyboard-response,300,962721,0.0-17.0-2.8,20994,List1B,white,man,,,,null,,,,
6064,,,survey-text,301,968787,0.0-17.0-3.8,20994,List1B,white,man,,,,,"{""Q0"":""luke is kissing ruth""}","<img src=""stim_listB/kiss3.gif""</stim_listB>",is kissing,
null,"<div style=""font-size:60px;"">+</div>",,html-keyboard-response,302,969293,0.0-17.0-0.9,20994,List1B,white,man,,,,null,,,,
null,"<img src=""stim_listB/meet2.gif""</stim_listB>",,html-keyboard-response,303,971299,0.0-17.0-1.9,20994,List1B,white,man,,,,null,,,,
null,are meeting each other,,html-keyboard-response,304,973305,0.0-17.0-2.9,20994,List1B,white,man,,,,null,,,,
9704,,,survey-text,305,983015,0.0-17.0-3.9,20994,List1B,white,man,,,,,"{""Q0"":""fred and beth are meeting each other""}","<img src=""stim_listB/meet2.gif""</stim_listB>",are meeting each other,
null,"<div style=""font-size:60px;"">+</div>",,html-keyboard-response,306,983521,0.0-17.0-0.10,20994,List1B,white,man,,,,null,,,,
null,"<img src=""stim_listB/hug7.gif""</stim_listB>",,html-keyboard-response,307,985524,0.0-17.0-1.10,20994,List1B,white,man,,,,null,,,,
null,is hugging,,html-keyboard-response,308,987527,0.0-17.0-2.10,20994,List1B,white,man,,,,null,,,,
5017,,,survey-text,309,992548,0.0-17.0-3.10,20994,List1B,white,man,,,,,"{""Q0"":""ruth is hugging beth""}","<img src=""stim_listB/hug7.gif""</stim_listB>",is hugging,
null,"<div style=""font-size:60px;"">+</div>",,html-keyboard-response,310,993052,0.0-17.0-0.11,20994,List1B,white,man,,,,null,,,,
null,"<img src=""stim_listB/touch4.gif""</stim_listB>",,html-keyboard-response,311,995057,0.0-17.0-1.11,20994,List1B,white,man,,,,null,,,,
null,are touching each other,,html-keyboard-response,312,997059,0.0-17.0-2.11,20994,List1B,white,man,,,,null,,,,
6198,,,survey-text,313,1003262,0.0-17.0-3.11,20994,List1B,white,man,,,,,"{""Q0"":""ruth and luke are touching each other""}","<img src=""stim_listB/touch4.gif""</stim_listB>",are touching each other,
null,"<div style=""font-size:60px;"">+</div>",,html-keyboard-response,314,1003767,0.0-17.0-0.12,20994,List1B,white,man,,,,null,,,,
null,"<img src=""stim_listB/dance1.gif""</stim_listB>",,html-keyboard-response,315,1005771,0.0-17.0-1.12,20994,List1B,white,man,,,,null,,,,
null,is dancing with,,html-keyboard-response,316,1007773,0.0-17.0-2.12,20994,List1B,white,man,,,,null,,,,
4768,,,survey-text,317,1012545,0.0-17.0-3.12,20994,List1B,white,man,,,,,"{""Q0"":""kate is dancing with fred""}","<img src=""stim_listB/dance1.gif""</stim_listB>",is dancing with,
null,"<div style=""font-size:60px;"">+</div>",,html-keyboard-response,318,1013049,0.0-17.0-0.13,20994,List1B,white,man,,,,null,,,,
null,"<img src=""stim_listB/hug2.gif""</stim_listB>",,html-keyboard-response,319,1015052,0.0-17.0-1.13,20994,List1B,white,man,,,,null,,,,
null,are hugging each other,,html-keyboard-response,320,1017053,0.0-17.0-2.13,20994,List1B,white,man,,,,null,,,,
5721,,,survey-text,321,1022777,0.0-17.0-3.13,20994,List1B,white,man,,,,,"{""Q0"":""mike and kate are hugging each other""}","<img src=""stim_listB/hug2.gif""</stim_listB>",are hugging each other,
null,"<div style=""font-size:60px;"">+</div>",,html-keyboard-response,322,1023280,0.0-17.0-0.14,20994,List1B,white,man,,,,null,,,,
null,"<img src=""stim_listB/shout4.gif""</stim_listB>",,html-keyboard-response,323,1025283,0.0-17.0-1.14,20994,List1B,white,man,,,,null,,,,
null,are shouting at each other,,html-keyboard-response,324,1027285,0.0-17.0-2.14,20994,List1B,white,man,,,,null,,,,
6958,,,survey-text,325,1034248,0.0-17.0-3.14,20994,List1B,white,man,,,,,"{""Q0"":""dave and jane are shouting at each other ""}","<img src=""stim_listB/shout4.gif""</stim_listB>",are shouting at each other,
null,"<div style=""font-size:60px;"">+</div>",,html-keyboard-response,326,1034757,0.0-17.0-0.15,20994,List1B,white,man,,,,null,,,,
null,"<img src=""stim_listB/touch7.gif""</stim_listB>",,html-keyboard-response,327,1036766,0.0-17.0-1.15,20994,List1B,white,man,,,,null,,,,
null,is touching,,html-keyboard-response,328,1038772,0.0-17.0-2.15,20994,List1B,white,man,,,,null,,,,
3826,,,survey-text,329,1042603,0.0-17.0-3.15,20994,List1B,white,man,,,,,"{""Q0"":""jane is touching kate""}","<img src=""stim_listB/touch7.gif""</stim_listB>",is touching,
null,"<div style=""font-size:60px;"">+</div>",,html-keyboard-response,330,1043108,0.0-17.0-0.16,20994,List1B,white,man,,,,null,,,,
null,"<img src=""stim_listB/talk3.gif""</stim_listB>",,html-keyboard-response,331,1045111,0.0-17.0-1.16,20994,List1B,white,man,,,,null,,,,
null,is talking to,,html-keyboard-response,332,1047114,0.0-17.0-2.16,20994,List1B,white,man,,,,null,,,,
6811,,,survey-text,333,1053927,0.0-17.0-3.16,20994,List1B,white,man,,,,,"{""Q0"":""jane is talking to luke""}","<img src=""stim_listB/talk3.gif""</stim_listB>",is talking to,
null,"<div style=""font-size:60px;"">+</div>",,html-keyboard-response,334,1054432,0.0-17.0-0.17,20994,List1B,white,man,,,,null,,,,
null,"<img src=""stim_listB/argue2.gif""</stim_listB>",,html-keyboard-response,335,1056437,0.0-17.0-1.17,20994,List1B,white,man,,,,null,,,,
null,are arguing with each other,,html-keyboard-response,336,1058441,0.0-17.0-2.17,20994,List1B,white,man,,,,null,,,,
11699,,,survey-text,337,1070145,0.0-17.0-3.17,20994,List1B,white,man,,,,,"{""Q0"":""fred and kate are arguing with each other""}","<img src=""stim_listB/argue2.gif""</stim_listB>",are arguing with each other,
null,"<div style=""font-size:60px;"">+</div>",,html-keyboard-response,338,1070648,0.0-17.0-0.18,20994,List1B,white,man,,,,null,,,,
null,"<img src=""stim_listB/argue1.gif""</stim_listB>",,html-keyboard-response,339,1072653,0.0-17.0-1.18,20994,List1B,white,man,,,,null,,,,
null,is arguing with,,html-keyboard-response,340,1074654,0.0-17.0-2.18,20994,List1B,white,man,,,,null,,,,
4912,,,survey-text,341,1079568,0.0-17.0-3.18,20994,List1B,white,man,,,,,"{""Q0"":""beth is arguing with mike""}","<img src=""stim_listB/argue1.gif""</stim_listB>",is arguing with,
null,"<div style=""font-size:60px;"">+</div>",,html-keyboard-response,342,1080073,0.0-17.0-0.19,20994,List1B,white,man,,,,null,,,,
null,"<img src=""stim_listB/touch8.gif""</stim_listB>",,html-keyboard-response,343,1082076,0.0-17.0-1.19,20994,List1B,white,man,,,,null,,,,
null,are touching each other,,html-keyboard-response,344,1084077,0.0-17.0-2.19,20994,List1B,white,man,,,,null,,,,
7565,,,survey-text,345,1091644,0.0-17.0-3.19,20994,List1B,white,man,,,,,"{""Q0"":""ruth and beth are touching each other""}","<img src=""stim_listB/touch8.gif""</stim_listB>",are touching each other,
1801,"<img src='img/portrait_matrix_list1.JPG' style='width:900px;height:500px;''></img><p>If you have memorised all the portraits and names and are ready to start, press Continue.</p><p><strong>Please note: Your memory of these faces will be tested 4 times during this experiment.</strong></p>",0,html-button-response,346,1093452,0.0-18.0-0.0,20994,List1B,white,man,,,,,,,,
1640,"<img src=""portrait/BW2.jpg""style=""width:400px;height:400px;""></img>",2,html-button-response,347,1096102,0.0-18.0-1.0,20994,List1B,white,man,,TRUE,2,,,,,
null,CORRECT,,html-keyboard-response,348,1097606,0.0-18.0-2.0-0.0,20994,List1B,white,man,,,,null,,,,
1868,"<img src=""portrait/BM1.jpg""style=""width:400px;height:400px;""></img>",4,html-button-response,349,1099482,0.0-18.0-4.0,20994,List1B,white,man,,TRUE,4,,,,,
null,CORRECT,,html-keyboard-response,350,1100988,0.0-18.0-5.0-0.0,20994,List1B,white,man,,,,null,,,,
1632,"<img src=""portrait/WW2.jpg""style=""width:400px;height:400px;""></img>",3,html-button-response,351,1102624,0.0-18.0-7.0,20994,List1B,white,man,,TRUE,3,,,,,
null,CORRECT,,html-keyboard-response,352,1104128,0.0-18.0-8.0-0.0,20994,List1B,white,man,,,,null,,,,
1744,"<img src=""portrait/BM2.jpg""style=""width:400px;height:400px;""></img>",5,html-button-response,353,1105877,0.0-18.0-10.0,20994,List1B,white,man,,TRUE,5,,,,,
null,CORRECT,,html-keyboard-response,354,1107381,0.0-18.0-11.0-0.0,20994,List1B,white,man,,,,null,,,,
1611,"<img src=""portrait/WM2.jpg""style=""width:400px;height:400px;""></img>",7,html-button-response,355,1108998,0.0-18.0-13.0,20994,List1B,white,man,,TRUE,7,,,,,
null,CORRECT,,html-keyboard-response,356,1110503,0.0-18.0-14.0-0.0,20994,List1B,white,man,,,,null,,,,
1323,"<img src=""portrait/BW1.jpg""style=""width:400px;height:400px;""></img>",0,html-button-response,357,1111830,0.0-18.0-16.0,20994,List1B,white,man,,TRUE,0,,,,,
null,CORRECT,,html-keyboard-response,358,1113336,0.0-18.0-17.0-0.0,20994,List1B,white,man,,,,null,,,,
1531,"<img src=""portrait/WW1.jpg""style=""width:400px;height:400px;""></img>",3,html-button-response,359,1114873,0.0-18.0-19.0,20994,List1B,white,man,,TRUE,1,,,,,
1184,"<img src=""portrait/WW1.jpg""style=""width:400px;height:400px;""></img>",1,html-button-response,360,1117063,0.0-18.0-21.0-0.0,20994,List1B,white,man,,FALSE,1,,,,,
null,CORRECT,,html-keyboard-response,361,1118569,0.0-18.0-21.0-1.0-0.0,20994,List1B,white,man,,,,null,,,,
1482,"<img src=""portrait/WM1.jpg""style=""width:400px;height:400px;""></img>",6,html-button-response,362,1120062,0.0-18.0-22.0,20994,List1B,white,man,,TRUE,6,,,,,
null,CORRECT,,html-keyboard-response,363,1121571,0.0-18.0-23.0-0.0,20994,List1B,white,man,,,,null,,,,
1210,<p>You got 7 out of 8 right first time. Press Continue.</p>,0,html-button-response,364,1122797,0.0-18.0-25.0,20994,List1B,white,man,,,,,,,,
1156,"As you did not score 100%, the memory game will repeat. Press Continue.",0,html-button-response,365,1124963,0.0-18.0-26.0-0.0,20994,List1B,white,man,,,,,,,,
1281,"<img src='img/portrait_matrix_list1.JPG' style='width:900px;height:500px;''></img><p>If you have memorised all the portraits and names and are ready to start, press Continue.</p><p><strong>Please note: Your memory of these faces will be tested 4 times during this experiment.</strong></p>",0,html-button-response,366,1127253,0.0-18.1-0.1,20994,List1B,white,man,,,,,,,,
1505,"<img src=""portrait/BW2.jpg""style=""width:400px;height:400px;""></img>",2,html-button-response,367,1129766,0.0-18.1-1.1,20994,List1B,white,man,,TRUE,2,,,,,
null,CORRECT,,html-keyboard-response,368,1131271,0.0-18.1-2.1-0.1,20994,List1B,white,man,,,,null,,,,
1363,"<img src=""portrait/BM1.jpg""style=""width:400px;height:400px;""></img>",4,html-button-response,369,1132638,0.0-18.1-4.1,20994,List1B,white,man,,TRUE,4,,,,,
null,CORRECT,,html-keyboard-response,370,1134143,0.0-18.1-5.1-0.1,20994,List1B,white,man,,,,null,,,,
1227,"<img src=""portrait/WW2.jpg""style=""width:400px;height:400px;""></img>",3,html-button-response,371,1135374,0.0-18.1-7.1,20994,List1B,white,man,,TRUE,3,,,,,
null,CORRECT,,html-keyboard-response,372,1136879,0.0-18.1-8.1-0.1,20994,List1B,white,man,,,,null,,,,
4742,"<img src=""portrait/BM2.jpg""style=""width:400px;height:400px;""></img>",5,html-button-response,373,1141627,0.0-18.1-10.1,20994,List1B,white,man,,TRUE,5,,,,,
null,CORRECT,,html-keyboard-response,374,1143132,0.0-18.1-11.1-0.1,20994,List1B,white,man,,,,null,,,,
1425,"<img src=""portrait/WM2.jpg""style=""width:400px;height:400px;""></img>",7,html-button-response,375,1144560,0.0-18.1-13.1,20994,List1B,white,man,,TRUE,7,,,,,
null,CORRECT,,html-keyboard-response,376,1146065,0.0-18.1-14.1-0.1,20994,List1B,white,man,,,,null,,,,
1771,"<img src=""portrait/BW1.jpg""style=""width:400px;height:400px;""></img>",0,html-button-response,377,1147841,0.0-18.1-16.1,20994,List1B,white,man,,TRUE,0,,,,,
null,CORRECT,,html-keyboard-response,378,1149346,0.0-18.1-17.1-0.1,20994,List1B,white,man,,,,null,,,,
1302,"<img src=""portrait/WW1.jpg""style=""width:400px;height:400px;""></img>",3,html-button-response,379,1150652,0.0-18.1-19.1,20994,List1B,white,man,,TRUE,1,,,,,
1506,"<img src=""portrait/WW1.jpg""style=""width:400px;height:400px;""></img>",1,html-button-response,380,1153164,0.0-18.1-21.1-0.1,20994,List1B,white,man,,FALSE,1,,,,,
null,CORRECT,,html-keyboard-response,381,1154671,0.0-18.1-21.1-1.1-0.1,20994,List1B,white,man,,,,null,,,,
1606,"<img src=""portrait/WM1.jpg""style=""width:400px;height:400px;""></img>",6,html-button-response,382,1156284,0.0-18.1-22.1,20994,List1B,white,man,,TRUE,6,,,,,
null,CORRECT,,html-keyboard-response,383,1157788,0.0-18.1-23.1-0.1,20994,List1B,white,man,,,,null,,,,
1275,<p>You got 7 out of 8 right first time. Press Continue.</p>,0,html-button-response,384,1159069,0.0-18.1-25.1,20994,List1B,white,man,,,,,,,,
1335,"As you did not score 100%, the memory game will repeat. Press Continue.",0,html-button-response,385,1161409,0.0-18.1-26.1-0.1,20994,List1B,white,man,,,,,,,,
1347,"<img src='img/portrait_matrix_list1.JPG' style='width:900px;height:500px;''></img><p>If you have memorised all the portraits and names and are ready to start, press Continue.</p><p><strong>Please note: Your memory of these faces will be tested 4 times during this experiment.</strong></p>",0,html-button-response,386,1163761,0.0-18.2-0.2,20994,List1B,white,man,,,,,,,,
1596,"<img src=""portrait/BW2.jpg""style=""width:400px;height:400px;""></img>",2,html-button-response,387,1166361,0.0-18.2-1.2,20994,List1B,white,man,,TRUE,2,,,,,
null,CORRECT,,html-keyboard-response,388,1167864,0.0-18.2-2.2-0.2,20994,List1B,white,man,,,,null,,,,
2925,"<img src=""portrait/BM1.jpg""style=""width:400px;height:400px;""></img>",4,html-button-response,389,1170792,0.0-18.2-4.2,20994,List1B,white,man,,TRUE,4,,,,,
null,CORRECT,,html-keyboard-response,390,1172299,0.0-18.2-5.2-0.2,20994,List1B,white,man,,,,null,,,,
1584,"<img src=""portrait/WW2.jpg""style=""width:400px;height:400px;""></img>",3,html-button-response,391,1173886,0.0-18.2-7.2,20994,List1B,white,man,,TRUE,3,,,,,
null,CORRECT,,html-keyboard-response,392,1175390,0.0-18.2-8.2-0.2,20994,List1B,white,man,,,,null,,,,
1898,"<img src=""portrait/BM2.jpg""style=""width:400px;height:400px;""></img>",5,html-button-response,393,1177291,0.0-18.2-10.2,20994,List1B,white,man,,TRUE,5,,,,,
null,CORRECT,,html-keyboard-response,394,1178796,0.0-18.2-11.2-0.2,20994,List1B,white,man,,,,null,,,,
1263,"<img src=""portrait/WM2.jpg""style=""width:400px;height:400px;""></img>",7,html-button-response,395,1180065,0.0-18.2-13.2,20994,List1B,white,man,,TRUE,7,,,,,
null,CORRECT,,html-keyboard-response,396,1181573,0.0-18.2-14.2-0.2,20994,List1B,white,man,,,,null,,,,
1749,"<img src=""portrait/BW1.jpg""style=""width:400px;height:400px;""></img>",0,html-button-response,397,1183332,0.0-18.2-16.2,20994,List1B,white,man,,TRUE,0,,,,,
null,CORRECT,,html-keyboard-response,398,1184843,0.0-18.2-17.2-0.2,20994,List1B,white,man,,,,null,,,,
1845,"<img src=""portrait/WW1.jpg""style=""width:400px;height:400px;""></img>",1,html-button-response,399,1186698,0.0-18.2-19.2,20994,List1B,white,man,,TRUE,1,,,,,
null,CORRECT,,html-keyboard-response,400,1188207,0.0-18.2-20.2-0.2,20994,List1B,white,man,,,,null,,,,
2419,"<img src=""portrait/WM1.jpg""style=""width:400px;height:400px;""></img>",6,html-button-response,401,1190635,0.0-18.2-22.2,20994,List1B,white,man,,TRUE,6,,,,,
null,CORRECT,,html-keyboard-response,402,1192140,0.0-18.2-23.2-0.2,20994,List1B,white,man,,,,null,,,,
6986,<p>You got 8 out of 8 right first time. Press Continue.</p>,0,html-button-response,403,1199139,0.0-18.2-25.2,20994,List1B,white,man,,,,,,,,
null,"<div style=""font-size:60px;"">+</div>",,html-keyboard-response,404,1200649,0.0-19.0-0.0,20994,List1B,white,man,,,,null,,,,
null,"<img src=""stim_listB/meet1.gif""</stim_listB>",,html-keyboard-response,405,1202654,0.0-19.0-1.0,20994,List1B,white,man,,,,null,,,,
null,is meeting,,html-keyboard-response,406,1204656,0.0-19.0-2.0,20994,List1B,white,man,,,,null,,,,
4577,,,survey-text,407,1209237,0.0-19.0-3.0,20994,List1B,white,man,,,,,"{""Q0"":""mike is meeting kate""}","<img src=""stim_listB/meet1.gif""</stim_listB>",is meeting,
null,"<div style=""font-size:60px;"">+</div>",,html-keyboard-response,408,1209741,0.0-19.0-0.1,20994,List1B,white,man,,,,null,,,,
null,"<img src=""stim_listB/fight6.gif""</stim_listB>",,html-keyboard-response,409,1211746,0.0-19.0-1.1,20994,List1B,white,man,,,,null,,,,
null,are fighting each other,,html-keyboard-response,410,1213749,0.0-19.0-2.1,20994,List1B,white,man,,,,null,,,,
8447,,,survey-text,411,1222202,0.0-19.0-3.1,20994,List1B,white,man,,,,,"{""Q0"":""fred and luke are fighting each other""}","<img src=""stim_listB/fight6.gif""</stim_listB>",are fighting each other,
null,"<div style=""font-size:60px;"">+</div>",,html-keyboard-response,412,1222710,0.0-19.0-0.2,20994,List1B,white,man,,,,null,,,,
null,"<img src=""stim_listB/kiss4.gif""</stim_listB>",,html-keyboard-response,413,1224718,0.0-19.0-1.2,20994,List1B,white,man,,,,null,,,,
null,are kissing each other,,html-keyboard-response,414,1226723,0.0-19.0-2.2,20994,List1B,white,man,,,,null,,,,
7904,,,survey-text,415,1234631,0.0-19.0-3.2,20994,List1B,white,man,,,,,"{""Q0"":""dave and jane are kissing each other""}","<img src=""stim_listB/kiss4.gif""</stim_listB>",are kissing each other,
null,"<div style=""font-size:60px;"">+</div>",,html-keyboard-response,416,1235136,0.0-19.0-0.3,20994,List1B,white,man,,,,null,,,,
null,"<img src=""stim_listB/dance2.gif""</stim_listB>",,html-keyboard-response,417,1237140,0.0-19.0-1.3,20994,List1B,white,man,,,,null,,,,
null,are dancing with each other,,html-keyboard-response,418,1239143,0.0-19.0-2.3,20994,List1B,white,man,,,,null,,,,
6812,,,survey-text,419,1245961,0.0-19.0-3.3,20994,List1B,white,man,,,,,"{""Q0"":""mike and beth are dancing with each other""}","<img src=""stim_listB/dance2.gif""</stim_listB>",are dancing with each other,
null,"<div style=""font-size:60px;"">+</div>",,html-keyboard-response,420,1246470,0.0-19.0-0.4,20994,List1B,white,man,,,,null,,,,
null,"<img src=""stim_listB/touch5.gif""</stim_listB>",,html-keyboard-response,421,1248479,0.0-19.0-1.4,20994,List1B,white,man,,,,null,,,,
null,is touching,,html-keyboard-response,422,1250484,0.0-19.0-2.4,20994,List1B,white,man,,,,null,,,,
6137,,,survey-text,423,1256627,0.0-19.0-3.4,20994,List1B,white,man,,,,,"{""Q0"":""mike is touching dave""}","<img src=""stim_listB/touch5.gif""</stim_listB>",is touching,
null,"<div style=""font-size:60px;"">+</div>",,html-keyboard-response,424,1257133,0.0-19.0-0.5,20994,List1B,white,man,,,,null,,,,
null,"<img src=""stim_listB/talk4.gif""</stim_listB>",,html-keyboard-response,425,1259136,0.0-19.0-1.5,20994,List1B,white,man,,,,null,,,,
null,are talking to each other,,html-keyboard-response,426,1261140,0.0-19.0-2.5,20994,List1B,white,man,,,,null,,,,
6301,,,survey-text,427,1267444,0.0-19.0-3.5,20994,List1B,white,man,,,,,"{""Q0"":""dave and ruth are talking with each other""}","<img src=""stim_listB/talk4.gif""</stim_listB>",are talking to each other,
null,"<div style=""font-size:60px;"">+</div>",,html-keyboard-response,428,1267949,0.0-19.0-0.6,20994,List1B,white,man,,,,null,,,,
null,"<img src=""stim_listB/meet8.gif""</stim_listB>",,html-keyboard-response,429,1269954,0.0-19.0-1.6,20994,List1B,white,man,,,,null,,,,
null,are meeting each other,,html-keyboard-response,430,1271959,0.0-19.0-2.6,20994,List1B,white,man,,,,null,,,,
5528,,,survey-text,431,1277491,0.0-19.0-3.6,20994,List1B,white,man,,,,,"{""Q0"":""beth and ruth are meeting each other""}","<img src=""stim_listB/meet8.gif""</stim_listB>",are meeting each other,
null,"<div style=""font-size:60px;"">+</div>",,html-keyboard-response,432,1277995,0.0-19.0-0.7,20994,List1B,white,man,,,,null,,,,
null,"<img src=""stim_listB/argue4.gif""</stim_listB>",,html-keyboard-response,433,1279999,0.0-19.0-1.7,20994,List1B,white,man,,,,null,,,,
null,are arguing with each other,,html-keyboard-response,434,1282001,0.0-19.0-2.7,20994,List1B,white,man,,,,null,,,,
6361,,,survey-text,435,1288364,0.0-19.0-3.7,20994,List1B,white,man,,,,,"{""Q0"":""luke and jane are arguing with each other""}","<img src=""stim_listB/argue4.gif""</stim_listB>",are arguing with each other,
null,"<div style=""font-size:60px;"">+</div>",,html-keyboard-response,436,1288867,0.0-19.0-0.8,20994,List1B,white,man,,,,null,,,,
null,"<img src=""stim_listB/marry4.gif""</stim_listB>",,html-keyboard-response,437,1290870,0.0-19.0-1.8,20994,List1B,white,man,,,,null,,,,
null,are marrying each other,,html-keyboard-response,438,1292871,0.0-19.0-2.8,20994,List1B,white,man,,,,null,,,,
5548,,,survey-text,439,1298422,0.0-19.0-3.8,20994,List1B,white,man,,,,,"{""Q0"":""luke and jane are marrying each other""}","<img src=""stim_listB/marry4.gif""</stim_listB>",are marrying each other,
null,"<div style=""font-size:60px;"">+</div>",,html-keyboard-response,440,1298926,0.0-19.0-0.9,20994,List1B,white,man,,,,null,,,,
null,"<img src=""stim_listB/meet6.gif""</stim_listB>",,html-keyboard-response,441,1300931,0.0-19.0-1.9,20994,List1B,white,man,,,,null,,,,
null,are meeting each other,,html-keyboard-response,442,1302933,0.0-19.0-2.9,20994,List1B,white,man,,,,null,,,,
7493,,,survey-text,443,1310428,0.0-19.0-3.9,20994,List1B,white,man,,,,,"{""Q0"":""fred and luke are meeting each other""}","<img src=""stim_listB/meet6.gif""</stim_listB>",are meeting each other,
null,"<div style=""font-size:60px;"">+</div>",,html-keyboard-response,444,1310931,0.0-19.0-0.10,20994,List1B,white,man,,,,null,,,,
null,"<img src=""stim_listB/shout3.gif""</stim_listB>",,html-keyboard-response,445,1312935,0.0-19.0-1.10,20994,List1B,white,man,,,,null,,,,
null,is shouting at,,html-keyboard-response,446,1314937,0.0-19.0-2.10,20994,List1B,white,man,,,,null,,,,
8448,,,survey-text,447,1323387,0.0-19.0-3.10,20994,List1B,white,man,,,,,"{""Q0"":""ruth is shouting at luke ""}","<img src=""stim_listB/shout3.gif""</stim_listB>",is shouting at,
null,"<div style=""font-size:60px;"">+</div>",,html-keyboard-response,448,1323892,0.0-19.0-0.11,20994,List1B,white,man,,,,null,,,,
null,"<img src=""stim_listB/meet5.gif""</stim_listB>",,html-keyboard-response,449,1325893,0.0-19.0-1.11,20994,List1B,white,man,,,,null,,,,
null,is meeting,,html-keyboard-response,450,1327895,0.0-19.0-2.11,20994,List1B,white,man,,,,null,,,,
3936,,,survey-text,451,1331832,0.0-19.0-3.11,20994,List1B,white,man,,,,,"{""Q0"":""mike is meeting dave""}","<img src=""stim_listB/meet5.gif""</stim_listB>",is meeting,
null,"<div style=""font-size:60px;"">+</div>",,html-keyboard-response,452,1332335,0.0-19.0-0.12,20994,List1B,white,man,,,,null,,,,
null,"<img src=""stim_listB/shout2.gif""</stim_listB>",,html-keyboard-response,453,1334341,0.0-19.0-1.12,20994,List1B,white,man,,,,null,,,,
null,are shouting at each other,,html-keyboard-response,454,1336348,0.0-19.0-2.12,20994,List1B,white,man,,,,null,,,,
6553,,,survey-text,455,1342911,0.0-19.0-3.12,20994,List1B,white,man,,,,,"{""Q0"":""mike and kate are shouting at each other""}","<img src=""stim_listB/shout2.gif""</stim_listB>",are shouting at each other,
null,"<div style=""font-size:60px;"">+</div>",,html-keyboard-response,456,1343420,0.0-19.0-0.13,20994,List1B,white,man,,,,null,,,,
null,"<img src=""stim_listB/touch2.gif""</stim_listB>",,html-keyboard-response,457,1345429,0.0-19.0-1.13,20994,List1B,white,man,,,,null,,,,
null,are touching each other,,html-keyboard-response,458,1347434,0.0-19.0-2.13,20994,List1B,white,man,,,,null,,,,
5921,,,survey-text,459,1353360,0.0-19.0-3.13,20994,List1B,white,man,,,,,"{""Q0"":""fred and beth are touching each other""}","<img src=""stim_listB/touch2.gif""</stim_listB>",are touching each other,
null,"<div style=""font-size:60px;"">+</div>",,html-keyboard-response,460,1353865,0.0-19.0-0.14,20994,List1B,white,man,,,,null,,,,
null,"<img src=""stim_listB/meet7.gif""</stim_listB>",,html-keyboard-response,461,1355868,0.0-19.0-1.14,20994,List1B,white,man,,,,null,,,,
null,is meeting,,html-keyboard-response,462,1357871,0.0-19.0-2.14,20994,List1B,white,man,,,,null,,,,
5735,,,survey-text,463,1363609,0.0-19.0-3.14,20994,List1B,white,man,,,,,"{""Q0"":""kate is meeting jane""}","<img src=""stim_listB/meet7.gif""</stim_listB>",is meeting,
null,"<div style=""font-size:60px;"">+</div>",,html-keyboard-response,464,1364115,0.0-19.0-0.15,20994,List1B,white,man,,,,null,,,,
null,"<img src=""stim_listB/talk6.gif""</stim_listB>",,html-keyboard-response,465,1366120,0.0-19.0-1.15,20994,List1B,white,man,,,,null,,,,
null,are talking to each other,,html-keyboard-response,466,1368124,0.0-19.0-2.15,20994,List1B,white,man,,,,null,,,,
5765,,,survey-text,467,1373893,0.0-19.0-3.15,20994,List1B,white,man,,,,,"{""Q0"":""mike and luke are talking to each other""}","<img src=""stim_listB/talk6.gif""</stim_listB>",are talking to each other,
null,"<div style=""font-size:60px;"">+</div>",,html-keyboard-response,468,1374398,0.0-19.0-0.16,20994,List1B,white,man,,,,null,,,,
null,"<img src=""stim_listB/argue3.gif""</stim_listB>",,html-keyboard-response,469,1376402,0.0-19.0-1.16,20994,List1B,white,man,,,,null,,,,
null,is arguing with,,html-keyboard-response,470,1378403,0.0-19.0-2.16,20994,List1B,white,man,,,,null,,,,
5556,,,survey-text,471,1383962,0.0-19.0-3.16,20994,List1B,white,man,,,,,"{""Q0"":""ruth is arguing with dave""}","<img src=""stim_listB/argue3.gif""</stim_listB>",is arguing with,
null,"<div style=""font-size:60px;"">+</div>",,html-keyboard-response,472,1384466,0.0-19.0-0.17,20994,List1B,white,man,,,,null,,,,
null,"<img src=""stim_listB/argue8.gif""</stim_listB>",,html-keyboard-response,473,1386468,0.0-19.0-1.17,20994,List1B,white,man,,,,null,,,,
null,are arguing with each other,,html-keyboard-response,474,1388470,0.0-19.0-2.17,20994,List1B,white,man,,,,null,,,,
7117,,,survey-text,475,1395591,0.0-19.0-3.17,20994,List1B,white,man,,,,,"{""Q0"":""jane and beth are arguing with each other""}","<img src=""stim_listB/argue8.gif""</stim_listB>",are arguing with each other,
null,"<div style=""font-size:60px;"">+</div>",,html-keyboard-response,476,1396097,0.0-19.0-0.18,20994,List1B,white,man,,,,null,,,,
null,"<img src=""stim_listB/talk8.gif""</stim_listB>",,html-keyboard-response,477,1398105,0.0-19.0-1.18,20994,List1B,white,man,,,,null,,,,
null,are talking to each other,,html-keyboard-response,478,1400110,0.0-19.0-2.18,20994,List1B,white,man,,,,null,,,,
6554,,,survey-text,479,1406670,0.0-19.0-3.18,20994,List1B,white,man,,,,,"{""Q0"":""ruth and kate are talking to each other""}","<img src=""stim_listB/talk8.gif""</stim_listB>",are talking to each other,
null,"<div style=""font-size:60px;"">+</div>",,html-keyboard-response,480,1407174,0.0-19.0-0.19,20994,List1B,white,man,,,,null,,,,
null,"<img src=""stim_listB/fight3.gif""</stim_listB>",,html-keyboard-response,481,1409178,0.0-19.0-1.19,20994,List1B,white,man,,,,null,,,,
null,is fighting,,html-keyboard-response,482,1411181,0.0-19.0-2.19,20994,List1B,white,man,,,,null,,,,
4600,,,survey-text,483,1415785,0.0-19.0-3.19,20994,List1B,white,man,,,,,"{""Q0"":""jane is fighting dave""}","<img src=""stim_listB/fight3.gif""</stim_listB>",is fighting,
1679,<p>Thank you for completing that task.</p><p>The final part of this session is a short questionnaire.</p><p>Press Continue.</p>,0,html-button-response,484,1417469,0.0-20.0,20994,List1B,white,man,,,,,,,,
31257,,,survey-text,485,1449733,0.0-21.0,20994,List1B,white,man,,,,,"{""Q0"":""29"",""Q1"":""English"",""Q2"":""English"",""Q3"":""England"",""Q4"":""White caucasian"",""Q5"":""Male""}",,,demographics
39984,,,survey-likert,486,1489740,0.0-22.0,20994,List1B,white,man,,,,,"{""Q0"":4,""Q1"":4,""Q2"":3,""Q3"":5,""Q4"":4,""Q5"":5,""Q6"":4,""Q7"":1,""Q8"":3,""Q9"":2,""Q10"":4,""Q11"":5,""Q12"":4,""Q13"":4}",,,likert_race
34588,,,survey-likert,487,1524341,0.0-23.0,20994,List1B,white,man,,,,,"{""Q0"":5,""Q1"":5,""Q2"":4,""Q3"":5,""Q4"":5,""Q5"":4,""Q6"":5,""Q7"":2,""Q8"":4,""Q9"":4,""Q10"":5,""Q11"":5,""Q12"":5,""Q13"":4}",,,likert_gender
11936,,,survey-text,488,1536289,0.0-24.0,20994,List1B,white,man,,,,,"{""Q0"":""ccc""}",,,worker_id
17537,,,external-html,489,1553931,0.0-25.0,20994,List1B,white,man,debrief.html,,,,,,,
