rt,stimulus,button_pressed,trial_type,trial_index,time_elapsed,internal_node_id,subject,list,ppt_race,ppt_gender,url,first_guess,correct,key_press,responses,image_type,phrase_type,test_part
1340,Welcome to the experiment. Press Continue to begin.,0,html-button-response,0,1345,0.0-0.0,21505,List2B,white,man,,,,,,,,
13725,,,external-html,1,16111,0.0-1.0,21505,List2B,white,man,consent.html,,,,,,,
1423,"<p>On the next page, you will see portraits of 8 people and their names.</p><p>Your first task is to take a few minutes to memorise the names of these people.</p><p>You will have to recall their names during the rest of the experiment, so it is</p><p>essential that you try to memorise these people and their names as best as you can.</p><br><p><strong>You will then be tested on your memory of these names and portraits.</strong></p><br><p>The experiment will start after you have completed this memory test.</p><br><p>Ready?</p>",0,html-button-response,2,17535,0.0-2.0,21505,List2B,white,man,,,,,,,,
31850,"<img src='img/portrait_matrix_list2.JPG' style='width:900px;height:500px;''></img><p>If you have memorised all the portraits and names and are ready to start, press Continue.</p><p><strong>Please note: Your memory of these faces will be tested 4 times during this experiment.</strong></p>",0,html-button-response,3,50388,0.0-3.0-0.0,21505,List2B,white,man,,,,,,,,
2967,"<img src=""portrait/WM1.jpg""style=""width:400px;height:400px;""></img>",6,html-button-response,4,54358,0.0-3.0-1.0,21505,List2B,white,man,,TRUE,6,,,,,
null,CORRECT,,html-keyboard-response,5,55864,0.0-3.0-2.0-0.0,21505,List2B,white,man,,,,null,,,,
1603,"<img src=""portrait/WM2.jpg""style=""width:400px;height:400px;""></img>",7,html-button-response,6,57470,0.0-3.0-4.0,21505,List2B,white,man,,TRUE,7,,,,,
null,CORRECT,,html-keyboard-response,7,58978,0.0-3.0-5.0-0.0,21505,List2B,white,man,,,,null,,,,
3489,"<img src=""portrait/BM1.jpg""style=""width:400px;height:400px;""></img>",4,html-button-response,8,62470,0.0-3.0-7.0,21505,List2B,white,man,,TRUE,4,,,,,
null,CORRECT,,html-keyboard-response,9,63973,0.0-3.0-8.0-0.0,21505,List2B,white,man,,,,null,,,,
2090,"<img src=""portrait/BW2.jpg""style=""width:400px;height:400px;""></img>",2,html-button-response,10,66066,0.0-3.0-10.0,21505,List2B,white,man,,TRUE,2,,,,,
null,CORRECT,,html-keyboard-response,11,67571,0.0-3.0-11.0-0.0,21505,List2B,white,man,,,,null,,,,
1835,"<img src=""portrait/BW1.jpg""style=""width:400px;height:400px;""></img>",0,html-button-response,12,69408,0.0-3.0-13.0,21505,List2B,white,man,,TRUE,0,,,,,
null,CORRECT,,html-keyboard-response,13,70912,0.0-3.0-14.0-0.0,21505,List2B,white,man,,,,null,,,,
3763,"<img src=""portrait/BM2.jpg""style=""width:400px;height:400px;""></img>",5,html-button-response,14,74677,0.0-3.0-16.0,21505,List2B,white,man,,TRUE,5,,,,,
null,CORRECT,,html-keyboard-response,15,76180,0.0-3.0-17.0-0.0,21505,List2B,white,man,,,,null,,,,
1831,"<img src=""portrait/WW1.jpg""style=""width:400px;height:400px;""></img>",1,html-button-response,16,78012,0.0-3.0-19.0,21505,List2B,white,man,,TRUE,1,,,,,
null,CORRECT,,html-keyboard-response,17,79517,0.0-3.0-20.0-0.0,21505,List2B,white,man,,,,null,,,,
3149,"<img src=""portrait/WW2.jpg""style=""width:400px;height:400px;""></img>",3,html-button-response,18,82669,0.0-3.0-22.0,21505,List2B,white,man,,TRUE,3,,,,,
null,CORRECT,,html-keyboard-response,19,84173,0.0-3.0-23.0-0.0,21505,List2B,white,man,,,,null,,,,
1320,<p>You got 8 out of 8 right first time. Press Continue.</p>,0,html-button-response,20,85497,0.0-3.0-25.0,21505,List2B,white,man,,,,,,,,
15836,"<p>In this experiment, you will view photographs of the people from the memory game interacting.</p><p>By using the <strong>exact</strong> phrase given <i>after</i> the photograph appears and recalling the correct names of the people in the photographs, form a sentence describing the interaction. You do not need to capitalise names.</p><p>Type your answer in the space provided. Please complete every sentence before moving onto the next trial.</p><p>You will only have a few seconds to memorise each given photograph and phrase before you can respond, so try your best to focus.</p><p>An example is given below. Press 'Continue' when you are ready.</p><img src='img/speaking_example_v2.jpg' style='width:800px;height:460px;''></img>",0,html-button-response,21,102335,0.0-4.0,21505,List2B,white,man,,,,,,,,
1975,"<p>Before the experiment starts, you will watch two example trials. Press 'Continue'.</p>",0,html-button-response,22,105312,0.0-5.0,21505,List2B,white,man,,,,,,,,
null,<img src='img/speaking_WW.gif'></img>,,html-keyboard-response,23,108317,0.0-6.0,21505,List2B,white,man,,,,null,,,,
null,<p>is speaking to</p>,,html-keyboard-response,24,110320,0.0-7.0,21505,List2B,white,man,,,,null,,,,
3132,<p><b>Answer:</b> jane is speaking to ruth</p>,0,html-button-response,25,113453,0.0-8.0,21505,List2B,white,man,,,,,,,,
null,<img src='img/pointing_BM.gif'></img>,,html-keyboard-response,26,116457,0.0-9.0,21505,List2B,white,man,,,,null,,,,
null,<p>are pointing at each other</p>,,html-keyboard-response,27,118459,0.0-10.0,21505,List2B,white,man,,,,null,,,,
2872,<p><b>Answer:</b> fred and mike are pointing at each other</p>,0,html-button-response,28,121332,0.0-11.0,21505,List2B,white,man,,,,,,,,
1916,"<p>Ready to start the experiment?</p><br><p><strong>Remember to describe the picture using a full sentence,</strong></p><p><strong> that combines the names of the people with the given phrase.</strong></p><p><strong> You do not need to capitalise names or use punctuation.</strong></p><br><p>Press 'Continue' to begin.</p>",0,html-button-response,29,124251,0.0-12.0,21505,List2B,white,man,,,,,,,,
null,"<div style=""font-size:60px;"">+</div>",,html-keyboard-response,30,125755,0.0-13.0-0.0,21505,List2B,white,man,,,,null,,,,
null,"<img src=""stim_listB/touch6.gif""</stim_listB>",,html-keyboard-response,31,127758,0.0-13.0-1.0,21505,List2B,white,man,,,,null,,,,
null,are touching each other,,html-keyboard-response,32,129760,0.0-13.0-2.0,21505,List2B,white,man,,,,null,,,,
11310,,,survey-text,33,141072,0.0-13.0-3.0,21505,List2B,white,man,,,,,"{""Q0"":""luke and fred are touching each other""}","<img src=""stim_listB/touch6.gif""</stim_listB>",are touching each other,
null,"<div style=""font-size:60px;"">+</div>",,html-keyboard-response,34,141575,0.0-13.0-0.1,21505,List2B,white,man,,,,null,,,,
null,"<img src=""stim_listB/meet4.gif""</stim_listB>",,html-keyboard-response,35,143578,0.0-13.0-1.1,21505,List2B,white,man,,,,null,,,,
null,are meeting each other,,html-keyboard-response,36,145582,0.0-13.0-2.1,21505,List2B,white,man,,,,null,,,,
8655,,,survey-text,37,154238,0.0-13.0-3.1,21505,List2B,white,man,,,,,"{""Q0"":""fred and beth are meeting each other""}","<img src=""stim_listB/meet4.gif""</stim_listB>",are meeting each other,
null,"<div style=""font-size:60px;"">+</div>",,html-keyboard-response,38,154741,0.0-13.0-0.2,21505,List2B,white,man,,,,null,,,,
null,"<img src=""stim_listB/kiss4.gif""</stim_listB>",,html-keyboard-response,39,156745,0.0-13.0-1.2,21505,List2B,white,man,,,,null,,,,
null,are kissing each other,,html-keyboard-response,40,158748,0.0-13.0-2.2,21505,List2B,white,man,,,,null,,,,
10090,,,survey-text,41,168841,0.0-13.0-3.2,21505,List2B,white,man,,,,,"{""Q0"":""mike and kate are kissing each other""}","<img src=""stim_listB/kiss4.gif""</stim_listB>",are kissing each other,
null,"<div style=""font-size:60px;"">+</div>",,html-keyboard-response,42,169343,0.0-13.0-0.3,21505,List2B,white,man,,,,null,,,,
null,"<img src=""stim_listB/hug1.gif""</stim_listB>",,html-keyboard-response,43,171347,0.0-13.0-1.3,21505,List2B,white,man,,,,null,,,,
null,is hugging,,html-keyboard-response,44,173349,0.0-13.0-2.3,21505,List2B,white,man,,,,null,,,,
6833,,,survey-text,45,180183,0.0-13.0-3.3,21505,List2B,white,man,,,,,"{""Q0"":""luke is hugging ruth""}","<img src=""stim_listB/hug1.gif""</stim_listB>",is hugging,
null,"<div style=""font-size:60px;"">+</div>",,html-keyboard-response,46,180685,0.0-13.0-0.4,21505,List2B,white,man,,,,null,,,,
null,"<img src=""stim_listB/touch1.gif""</stim_listB>",,html-keyboard-response,47,182687,0.0-13.0-1.4,21505,List2B,white,man,,,,null,,,,
null,is touching,,html-keyboard-response,48,184689,0.0-13.0-2.4,21505,List2B,white,man,,,,null,,,,
7395,,,survey-text,49,192086,0.0-13.0-3.4,21505,List2B,white,man,,,,,"{""Q0"":""dave is touching kate""}","<img src=""stim_listB/touch1.gif""</stim_listB>",is touching,
null,"<div style=""font-size:60px;"">+</div>",,html-keyboard-response,50,192588,0.0-13.0-0.5,21505,List2B,white,man,,,,null,,,,
null,"<img src=""stim_listB/dance4.gif""</stim_listB>",,html-keyboard-response,51,194593,0.0-13.0-1.5,21505,List2B,white,man,,,,null,,,,
null,are dancing with each other,,html-keyboard-response,52,196595,0.0-13.0-2.5,21505,List2B,white,man,,,,null,,,,
9213,,,survey-text,53,205809,0.0-13.0-3.5,21505,List2B,white,man,,,,,"{""Q0"":""beth and mike are dancing with each other""}","<img src=""stim_listB/dance4.gif""</stim_listB>",are dancing with each other,
null,"<div style=""font-size:60px;"">+</div>",,html-keyboard-response,54,206311,0.0-13.0-0.6,21505,List2B,white,man,,,,null,,,,
null,"<img src=""stim_listB/kiss8.gif""</stim_listB>",,html-keyboard-response,55,208315,0.0-13.0-1.6,21505,List2B,white,man,,,,null,,,,
null,are kissing each other,,html-keyboard-response,56,210318,0.0-13.0-2.6,21505,List2B,white,man,,,,null,,,,
15162,,,survey-text,57,225481,0.0-13.0-3.6,21505,List2B,white,man,,,,,"{""Q0"":""lucy and kate are kissing each other""}","<img src=""stim_listB/kiss8.gif""</stim_listB>",are kissing each other,
null,"<div style=""font-size:60px;"">+</div>",,html-keyboard-response,58,225983,0.0-13.0-0.7,21505,List2B,white,man,,,,null,,,,
null,"<img src=""stim_listB/dance8.gif""</stim_listB>",,html-keyboard-response,59,227987,0.0-13.0-1.7,21505,List2B,white,man,,,,null,,,,
null,are dancing with each other,,html-keyboard-response,60,229990,0.0-13.0-2.7,21505,List2B,white,man,,,,null,,,,
10555,,,survey-text,61,240547,0.0-13.0-3.7,21505,List2B,white,man,,,,,"{""Q0"":""beth and kate are dancing with each other""}","<img src=""stim_listB/dance8.gif""</stim_listB>",are dancing with each other,
null,"<div style=""font-size:60px;"">+</div>",,html-keyboard-response,62,241049,0.0-13.0-0.8,21505,List2B,white,man,,,,null,,,,
null,"<img src=""stim_listB/marry7.gif""</stim_listB>",,html-keyboard-response,63,243053,0.0-13.0-1.8,21505,List2B,white,man,,,,null,,,,
null,is marrying,,html-keyboard-response,64,245054,0.0-13.0-2.8,21505,List2B,white,man,,,,null,,,,
5550,,,survey-text,65,250605,0.0-13.0-3.8,21505,List2B,white,man,,,,,"{""Q0"":""beth is marrying kate""}","<img src=""stim_listB/marry7.gif""</stim_listB>",is marrying,
null,"<div style=""font-size:60px;"">+</div>",,html-keyboard-response,66,251109,0.0-13.0-0.9,21505,List2B,white,man,,,,null,,,,
null,"<img src=""stim_listB/kiss1.gif""</stim_listB>",,html-keyboard-response,67,253113,0.0-13.0-1.9,21505,List2B,white,man,,,,null,,,,
null,is kissing,,html-keyboard-response,68,255114,0.0-13.0-2.9,21505,List2B,white,man,,,,null,,,,
5236,,,survey-text,69,260351,0.0-13.0-3.9,21505,List2B,white,man,,,,,"{""Q0"":""luke is kissing ruth""}","<img src=""stim_listB/kiss1.gif""</stim_listB>",is kissing,
null,"<div style=""font-size:60px;"">+</div>",,html-keyboard-response,70,260853,0.0-13.0-0.10,21505,List2B,white,man,,,,null,,,,
null,"<img src=""stim_listB/fight1.gif""</stim_listB>",,html-keyboard-response,71,262856,0.0-13.0-1.10,21505,List2B,white,man,,,,null,,,,
null,is fighting,,html-keyboard-response,72,264857,0.0-13.0-2.10,21505,List2B,white,man,,,,null,,,,
4986,,,survey-text,73,269843,0.0-13.0-3.10,21505,List2B,white,man,,,,,"{""Q0"":""dave is fighting kate""}","<img src=""stim_listB/fight1.gif""</stim_listB>",is fighting,
null,"<div style=""font-size:60px;"">+</div>",,html-keyboard-response,74,270345,0.0-13.0-0.11,21505,List2B,white,man,,,,null,,,,
null,"<img src=""stim_listB/marry5.gif""</stim_listB>",,html-keyboard-response,75,272348,0.0-13.0-1.11,21505,List2B,white,man,,,,null,,,,
null,is marrying,,html-keyboard-response,76,274351,0.0-13.0-2.11,21505,List2B,white,man,,,,null,,,,
7090,,,survey-text,77,281442,0.0-13.0-3.11,21505,List2B,white,man,,,,,"{""Q0"":""dave is marrying fred""}","<img src=""stim_listB/marry5.gif""</stim_listB>",is marrying,
null,"<div style=""font-size:60px;"">+</div>",,html-keyboard-response,78,281944,0.0-13.0-0.12,21505,List2B,white,man,,,,null,,,,
null,"<img src=""stim_listB/talk4.gif""</stim_listB>",,html-keyboard-response,79,283947,0.0-13.0-1.12,21505,List2B,white,man,,,,null,,,,
null,are talking to each other,,html-keyboard-response,80,285949,0.0-13.0-2.12,21505,List2B,white,man,,,,null,,,,
9682,,,survey-text,81,295633,0.0-13.0-3.12,21505,List2B,white,man,,,,,"{""Q0"":""beth and mike are talking to each other""}","<img src=""stim_listB/talk4.gif""</stim_listB>",are talking to each other,
null,"<div style=""font-size:60px;"">+</div>",,html-keyboard-response,82,296135,0.0-13.0-0.13,21505,List2B,white,man,,,,null,,,,
null,"<img src=""stim_listB/shout7.gif""</stim_listB>",,html-keyboard-response,83,298139,0.0-13.0-1.13,21505,List2B,white,man,,,,null,,,,
null,is shouting at,,html-keyboard-response,84,300141,0.0-13.0-2.13,21505,List2B,white,man,,,,null,,,,
7585,,,survey-text,85,307728,0.0-13.0-3.13,21505,List2B,white,man,,,,,"{""Q0"":""beth is shouting at ruth""}","<img src=""stim_listB/shout7.gif""</stim_listB>",is shouting at,
null,"<div style=""font-size:60px;"">+</div>",,html-keyboard-response,86,308229,0.0-13.0-0.14,21505,List2B,white,man,,,,null,,,,
null,"<img src=""stim_listB/fight3.gif""</stim_listB>",,html-keyboard-response,87,310233,0.0-13.0-1.14,21505,List2B,white,man,,,,null,,,,
null,is fighting,,html-keyboard-response,88,312236,0.0-13.0-2.14,21505,List2B,white,man,,,,null,,,,
8782,,,survey-text,89,321020,0.0-13.0-3.14,21505,List2B,white,man,,,,,"{""Q0"":""mike is fighting kate""}","<img src=""stim_listB/fight3.gif""</stim_listB>",is fighting,
null,"<div style=""font-size:60px;"">+</div>",,html-keyboard-response,90,321522,0.0-13.0-0.15,21505,List2B,white,man,,,,null,,,,
null,"<img src=""stim_listB/fight4.gif""</stim_listB>",,html-keyboard-response,91,323525,0.0-13.0-1.15,21505,List2B,white,man,,,,null,,,,
null,are fighting each other,,html-keyboard-response,92,325527,0.0-13.0-2.15,21505,List2B,white,man,,,,null,,,,
11781,,,survey-text,93,337309,0.0-13.0-3.15,21505,List2B,white,man,,,,,"{""Q0"":""fred and beth are fighting each other""}","<img src=""stim_listB/fight4.gif""</stim_listB>",are fighting each other,
null,"<div style=""font-size:60px;"">+</div>",,html-keyboard-response,94,337811,0.0-13.0-0.16,21505,List2B,white,man,,,,null,,,,
null,"<img src=""stim_listB/argue8.gif""</stim_listB>",,html-keyboard-response,95,339814,0.0-13.0-1.16,21505,List2B,white,man,,,,null,,,,
null,are arguing with each other,,html-keyboard-response,96,341816,0.0-13.0-2.16,21505,List2B,white,man,,,,null,,,,
13957,,,survey-text,97,355773,0.0-13.0-3.16,21505,List2B,white,man,,,,,"{""Q0"":""ruth and kate are arguing with each other""}","<img src=""stim_listB/argue8.gif""</stim_listB>",are arguing with each other,
null,"<div style=""font-size:60px;"">+</div>",,html-keyboard-response,98,356275,0.0-13.0-0.17,21505,List2B,white,man,,,,null,,,,
null,"<img src=""stim_listB/talk2.gif""</stim_listB>",,html-keyboard-response,99,358278,0.0-13.0-1.17,21505,List2B,white,man,,,,null,,,,
null,are talking to each other,,html-keyboard-response,100,360280,0.0-13.0-2.17,21505,List2B,white,man,,,,null,,,,
8690,,,survey-text,101,368972,0.0-13.0-3.17,21505,List2B,white,man,,,,,"{""Q0"":""dave and ruth are talking to each other""}","<img src=""stim_listB/talk2.gif""</stim_listB>",are talking to each other,
null,"<div style=""font-size:60px;"">+</div>",,html-keyboard-response,102,369473,0.0-13.0-0.18,21505,List2B,white,man,,,,null,,,,
null,"<img src=""stim_listB/talk1.gif""</stim_listB>",,html-keyboard-response,103,371477,0.0-13.0-1.18,21505,List2B,white,man,,,,null,,,,
null,is talking to,,html-keyboard-response,104,373481,0.0-13.0-2.18,21505,List2B,white,man,,,,null,,,,
6175,,,survey-text,105,379658,0.0-13.0-3.18,21505,List2B,white,man,,,,,"{""Q0"":""luke is talking to kate""}","<img src=""stim_listB/talk1.gif""</stim_listB>",is talking to,
null,"<div style=""font-size:60px;"">+</div>",,html-keyboard-response,106,380159,0.0-13.0-0.19,21505,List2B,white,man,,,,null,,,,
null,"<img src=""stim_listB/kiss7.gif""</stim_listB>",,html-keyboard-response,107,382164,0.0-13.0-1.19,21505,List2B,white,man,,,,null,,,,
null,is kissing,,html-keyboard-response,108,384166,0.0-13.0-2.19,21505,List2B,white,man,,,,null,,,,
5961,,,survey-text,109,390127,0.0-13.0-3.19,21505,List2B,white,man,,,,,"{""Q0"":""beth is kissing ruth""}","<img src=""stim_listB/kiss7.gif""</stim_listB>",is kissing,
10233,"<img src='img/portrait_matrix_list2.JPG' style='width:900px;height:500px;''></img><p>If you have memorised all the portraits and names and are ready to start, press Continue.</p><p><strong>Please note: Your memory of these faces will be tested 4 times during this experiment.</strong></p>",0,html-button-response,110,400361,0.0-14.0-0.0,21505,List2B,white,man,,,,,,,,
1862,"<img src=""portrait/BM1.jpg""style=""width:400px;height:400px;""></img>",4,html-button-response,111,403227,0.0-14.0-1.0,21505,List2B,white,man,,TRUE,4,,,,,
null,CORRECT,,html-keyboard-response,112,404731,0.0-14.0-2.0-0.0,21505,List2B,white,man,,,,null,,,,
1564,"<img src=""portrait/BW1.jpg""style=""width:400px;height:400px;""></img>",0,html-button-response,113,406301,0.0-14.0-4.0,21505,List2B,white,man,,TRUE,0,,,,,
null,CORRECT,,html-keyboard-response,114,407806,0.0-14.0-5.0-0.0,21505,List2B,white,man,,,,null,,,,
1372,"<img src=""portrait/WW2.jpg""style=""width:400px;height:400px;""></img>",3,html-button-response,115,409181,0.0-14.0-7.0,21505,List2B,white,man,,TRUE,3,,,,,
null,CORRECT,,html-keyboard-response,116,410686,0.0-14.0-8.0-0.0,21505,List2B,white,man,,,,null,,,,
1245,"<img src=""portrait/WM2.jpg""style=""width:400px;height:400px;""></img>",7,html-button-response,117,411934,0.0-14.0-10.0,21505,List2B,white,man,,TRUE,7,,,,,
null,CORRECT,,html-keyboard-response,118,413437,0.0-14.0-11.0-0.0,21505,List2B,white,man,,,,null,,,,
1799,"<img src=""portrait/WW1.jpg""style=""width:400px;height:400px;""></img>",1,html-button-response,119,415239,0.0-14.0-13.0,21505,List2B,white,man,,TRUE,1,,,,,
null,CORRECT,,html-keyboard-response,120,416744,0.0-14.0-14.0-0.0,21505,List2B,white,man,,,,null,,,,
1329,"<img src=""portrait/BW2.jpg""style=""width:400px;height:400px;""></img>",2,html-button-response,121,418074,0.0-14.0-16.0,21505,List2B,white,man,,TRUE,2,,,,,
null,CORRECT,,html-keyboard-response,122,419579,0.0-14.0-17.0-0.0,21505,List2B,white,man,,,,null,,,,
1529,"<img src=""portrait/BM2.jpg""style=""width:400px;height:400px;""></img>",5,html-button-response,123,421111,0.0-14.0-19.0,21505,List2B,white,man,,TRUE,5,,,,,
null,CORRECT,,html-keyboard-response,124,422615,0.0-14.0-20.0-0.0,21505,List2B,white,man,,,,null,,,,
1456,"<img src=""portrait/WM1.jpg""style=""width:400px;height:400px;""></img>",6,html-button-response,125,424074,0.0-14.0-22.0,21505,List2B,white,man,,TRUE,6,,,,,
null,CORRECT,,html-keyboard-response,126,425577,0.0-14.0-23.0-0.0,21505,List2B,white,man,,,,null,,,,
1105,<p>You got 8 out of 8 right first time. Press Continue.</p>,0,html-button-response,127,426684,0.0-14.0-25.0,21505,List2B,white,man,,,,,,,,
null,"<div style=""font-size:60px;"">+</div>",,html-keyboard-response,128,428189,0.0-15.0-0.0,21505,List2B,white,man,,,,null,,,,
null,"<img src=""stim_listB/hug8.gif""</stim_listB>",,html-keyboard-response,129,430193,0.0-15.0-1.0,21505,List2B,white,man,,,,null,,,,
null,are hugging each other,,html-keyboard-response,130,432195,0.0-15.0-2.0,21505,List2B,white,man,,,,null,,,,
10513,,,survey-text,131,442710,0.0-15.0-3.0,21505,List2B,white,man,,,,,"{""Q0"":""jane and kate are hugging each other""}","<img src=""stim_listB/hug8.gif""</stim_listB>",are hugging each other,
null,"<div style=""font-size:60px;"">+</div>",,html-keyboard-response,132,443213,0.0-15.0-0.1,21505,List2B,white,man,,,,null,,,,
null,"<img src=""stim_listB/argue5.gif""</stim_listB>",,html-keyboard-response,133,445216,0.0-15.0-1.1,21505,List2B,white,man,,,,null,,,,
null,is arguing with,,html-keyboard-response,134,447218,0.0-15.0-2.1,21505,List2B,white,man,,,,null,,,,
7512,,,survey-text,135,454730,0.0-15.0-3.1,21505,List2B,white,man,,,,,"{""Q0"":""fred is arguing with dave""}","<img src=""stim_listB/argue5.gif""</stim_listB>",is arguing with,
null,"<div style=""font-size:60px;"">+</div>",,html-keyboard-response,136,455233,0.0-15.0-0.2,21505,List2B,white,man,,,,null,,,,
null,"<img src=""stim_listB/argue3.gif""</stim_listB>",,html-keyboard-response,137,457236,0.0-15.0-1.2,21505,List2B,white,man,,,,null,,,,
null,is arguing with,,html-keyboard-response,138,459238,0.0-15.0-2.2,21505,List2B,white,man,,,,null,,,,
5786,,,survey-text,139,465026,0.0-15.0-3.2,21505,List2B,white,man,,,,,"{""Q0"":""mike is arguing with beth""}","<img src=""stim_listB/argue3.gif""</stim_listB>",is arguing with,
null,"<div style=""font-size:60px;"">+</div>",,html-keyboard-response,140,465527,0.0-15.0-0.3,21505,List2B,white,man,,,,null,,,,
null,"<img src=""stim_listB/touch8.gif""</stim_listB>",,html-keyboard-response,141,467531,0.0-15.0-1.3,21505,List2B,white,man,,,,null,,,,
null,are touching each other,,html-keyboard-response,142,469533,0.0-15.0-2.3,21505,List2B,white,man,,,,null,,,,
8163,,,survey-text,143,477698,0.0-15.0-3.3,21505,List2B,white,man,,,,,"{""Q0"":""ruth and beth are touching each other""}","<img src=""stim_listB/touch8.gif""</stim_listB>",are touching each other,
null,"<div style=""font-size:60px;"">+</div>",,html-keyboard-response,144,478199,0.0-15.0-0.4,21505,List2B,white,man,,,,null,,,,
null,"<img src=""stim_listB/fight7.gif""</stim_listB>",,html-keyboard-response,145,480202,0.0-15.0-1.4,21505,List2B,white,man,,,,null,,,,
null,is fighting,,html-keyboard-response,146,482204,0.0-15.0-2.4,21505,List2B,white,man,,,,null,,,,
7671,,,survey-text,147,489875,0.0-15.0-3.4,21505,List2B,white,man,,,,,"{""Q0"":""kate is fighting jane""}","<img src=""stim_listB/fight7.gif""</stim_listB>",is fighting,
null,"<div style=""font-size:60px;"">+</div>",,html-keyboard-response,148,490378,0.0-15.0-0.5,21505,List2B,white,man,,,,null,,,,
null,"<img src=""stim_listB/shout5.gif""</stim_listB>",,html-keyboard-response,149,492379,0.0-15.0-1.5,21505,List2B,white,man,,,,null,,,,
null,is shouting at,,html-keyboard-response,150,494381,0.0-15.0-2.5,21505,List2B,white,man,,,,null,,,,
5572,,,survey-text,151,499955,0.0-15.0-3.5,21505,List2B,white,man,,,,,"{""Q0"":""luke is shouting at fred""}","<img src=""stim_listB/shout5.gif""</stim_listB>",is shouting at,
null,"<div style=""font-size:60px;"">+</div>",,html-keyboard-response,152,500456,0.0-15.0-0.6,21505,List2B,white,man,,,,null,,,,
null,"<img src=""stim_listB/talk8.gif""</stim_listB>",,html-keyboard-response,153,502459,0.0-15.0-1.6,21505,List2B,white,man,,,,null,,,,
null,are talking to each other,,html-keyboard-response,154,504461,0.0-15.0-2.6,21505,List2B,white,man,,,,null,,,,
7528,,,survey-text,155,511990,0.0-15.0-3.6,21505,List2B,white,man,,,,,"{""Q0"":""jane and beth are talknig to each other""}","<img src=""stim_listB/talk8.gif""</stim_listB>",are talking to each other,
null,"<div style=""font-size:60px;"">+</div>",,html-keyboard-response,156,512491,0.0-15.0-0.7,21505,List2B,white,man,,,,null,,,,
null,"<img src=""stim_listB/touch5.gif""</stim_listB>",,html-keyboard-response,157,514496,0.0-15.0-1.7,21505,List2B,white,man,,,,null,,,,
null,is touching,,html-keyboard-response,158,516498,0.0-15.0-2.7,21505,List2B,white,man,,,,null,,,,
5825,,,survey-text,159,522324,0.0-15.0-3.7,21505,List2B,white,man,,,,,"{""Q0"":""mike is touching dave""}","<img src=""stim_listB/touch5.gif""</stim_listB>",is touching,
null,"<div style=""font-size:60px;"">+</div>",,html-keyboard-response,160,522825,0.0-15.0-0.8,21505,List2B,white,man,,,,null,,,,
null,"<img src=""stim_listB/hug3.gif""</stim_listB>",,html-keyboard-response,161,524830,0.0-15.0-1.8,21505,List2B,white,man,,,,null,,,,
null,is hugging,,html-keyboard-response,162,526832,0.0-15.0-2.8,21505,List2B,white,man,,,,null,,,,
6679,,,survey-text,163,533515,0.0-15.0-3.8,21505,List2B,white,man,,,,,"{""Q0"":""fred is hugging beth""}","<img src=""stim_listB/hug3.gif""</stim_listB>",is hugging,
null,"<div style=""font-size:60px;"">+</div>",,html-keyboard-response,164,534018,0.0-15.0-0.9,21505,List2B,white,man,,,,null,,,,
null,"<img src=""stim_listB/argue4.gif""</stim_listB>",,html-keyboard-response,165,536021,0.0-15.0-1.9,21505,List2B,white,man,,,,null,,,,
null,are arguing with each other,,html-keyboard-response,166,538024,0.0-15.0-2.9,21505,List2B,white,man,,,,null,,,,
13610,,,survey-text,167,551636,0.0-15.0-3.9,21505,List2B,white,man,,,,,"{""Q0"":""fred and kate are arguing with each other""}","<img src=""stim_listB/argue4.gif""</stim_listB>",are arguing with each other,
null,"<div style=""font-size:60px;"">+</div>",,html-keyboard-response,168,552137,0.0-15.0-0.10,21505,List2B,white,man,,,,null,,,,
null,"<img src=""stim_listB/meet8.gif""</stim_listB>",,html-keyboard-response,169,554140,0.0-15.0-1.10,21505,List2B,white,man,,,,null,,,,
null,are meeting each other,,html-keyboard-response,170,556143,0.0-15.0-2.10,21505,List2B,white,man,,,,null,,,,
8220,,,survey-text,171,564364,0.0-15.0-3.10,21505,List2B,white,man,,,,,"{""Q0"":""ruth and beth are meeting each other""}","<img src=""stim_listB/meet8.gif""</stim_listB>",are meeting each other,
null,"<div style=""font-size:60px;"">+</div>",,html-keyboard-response,172,564867,0.0-15.0-0.11,21505,List2B,white,man,,,,null,,,,
null,"<img src=""stim_listB/fight2.gif""</stim_listB>",,html-keyboard-response,173,566871,0.0-15.0-1.11,21505,List2B,white,man,,,,null,,,,
null,are fighting each other,,html-keyboard-response,174,568873,0.0-15.0-2.11,21505,List2B,white,man,,,,null,,,,
12148,,,survey-text,175,581022,0.0-15.0-3.11,21505,List2B,white,man,,,,,"{""Q0"":""luke and ruth are fighting each other""}","<img src=""stim_listB/fight2.gif""</stim_listB>",are fighting each other,
null,"<div style=""font-size:60px;"">+</div>",,html-keyboard-response,176,581525,0.0-15.0-0.12,21505,List2B,white,man,,,,null,,,,
null,"<img src=""stim_listB/dance5.gif""</stim_listB>",,html-keyboard-response,177,583530,0.0-15.0-1.12,21505,List2B,white,man,,,,null,,,,
null,is dancing with,,html-keyboard-response,178,585532,0.0-15.0-2.12,21505,List2B,white,man,,,,null,,,,
7153,,,survey-text,179,592686,0.0-15.0-3.12,21505,List2B,white,man,,,,,"{""Q0"":""mike is dancing with luke""}","<img src=""stim_listB/dance5.gif""</stim_listB>",is dancing with,
null,"<div style=""font-size:60px;"">+</div>",,html-keyboard-response,180,593189,0.0-15.0-0.13,21505,List2B,white,man,,,,null,,,,
null,"<img src=""stim_listB/fight5.gif""</stim_listB>",,html-keyboard-response,181,595193,0.0-15.0-1.13,21505,List2B,white,man,,,,null,,,,
null,is fighting,,html-keyboard-response,182,597196,0.0-15.0-2.13,21505,List2B,white,man,,,,null,,,,
5390,,,survey-text,183,602586,0.0-15.0-3.13,21505,List2B,white,man,,,,,"{""Q0"":""dave is fighting luke""}","<img src=""stim_listB/fight5.gif""</stim_listB>",is fighting,
null,"<div style=""font-size:60px;"">+</div>",,html-keyboard-response,184,603087,0.0-15.0-0.14,21505,List2B,white,man,,,,null,,,,
null,"<img src=""stim_listB/touch3.gif""</stim_listB>",,html-keyboard-response,185,605091,0.0-15.0-1.14,21505,List2B,white,man,,,,null,,,,
null,is touching,,html-keyboard-response,186,607093,0.0-15.0-2.14,21505,List2B,white,man,,,,null,,,,
5323,,,survey-text,187,612417,0.0-15.0-3.14,21505,List2B,white,man,,,,,"{""Q0"":""mike is touching kate""}","<img src=""stim_listB/touch3.gif""</stim_listB>",is touching,
null,"<div style=""font-size:60px;"">+</div>",,html-keyboard-response,188,612919,0.0-15.0-0.15,21505,List2B,white,man,,,,null,,,,
null,"<img src=""stim_listB/touch7.gif""</stim_listB>",,html-keyboard-response,189,614923,0.0-15.0-1.15,21505,List2B,white,man,,,,null,,,,
null,is touching,,html-keyboard-response,190,616925,0.0-15.0-2.15,21505,List2B,white,man,,,,null,,,,
5891,,,survey-text,191,622817,0.0-15.0-3.15,21505,List2B,white,man,,,,,"{""Q0"":""kate is touching jane""}","<img src=""stim_listB/touch7.gif""</stim_listB>",is touching,
null,"<div style=""font-size:60px;"">+</div>",,html-keyboard-response,192,623319,0.0-15.0-0.16,21505,List2B,white,man,,,,null,,,,
null,"<img src=""stim_listB/dance3.gif""</stim_listB>",,html-keyboard-response,193,625323,0.0-15.0-1.16,21505,List2B,white,man,,,,null,,,,
null,is dancing with,,html-keyboard-response,194,627326,0.0-15.0-2.16,21505,List2B,white,man,,,,null,,,,
9325,,,survey-text,195,636652,0.0-15.0-3.16,21505,List2B,white,man,,,,,"{""Q0"":""fred is dancing with kate""}","<img src=""stim_listB/dance3.gif""</stim_listB>",is dancing with,
null,"<div style=""font-size:60px;"">+</div>",,html-keyboard-response,196,637155,0.0-15.0-0.17,21505,List2B,white,man,,,,null,,,,
null,"<img src=""stim_listB/marry8.gif""</stim_listB>",,html-keyboard-response,197,639159,0.0-15.0-1.17,21505,List2B,white,man,,,,null,,,,
null,are marrying each other,,html-keyboard-response,198,641162,0.0-15.0-2.17,21505,List2B,white,man,,,,null,,,,
8695,,,survey-text,199,649859,0.0-15.0-3.17,21505,List2B,white,man,,,,,"{""Q0"":""ruth and kate are marrying each other""}","<img src=""stim_listB/marry8.gif""</stim_listB>",are marrying each other,
null,"<div style=""font-size:60px;"">+</div>",,html-keyboard-response,200,650361,0.0-15.0-0.18,21505,List2B,white,man,,,,null,,,,
null,"<img src=""stim_listB/hug7.gif""</stim_listB>",,html-keyboard-response,201,652363,0.0-15.0-1.18,21505,List2B,white,man,,,,null,,,,
null,is hugging,,html-keyboard-response,202,654365,0.0-15.0-2.18,21505,List2B,white,man,,,,null,,,,
7855,,,survey-text,203,662222,0.0-15.0-3.18,21505,List2B,white,man,,,,,"{""Q0"":""beth is hugging ruth""}","<img src=""stim_listB/hug7.gif""</stim_listB>",is hugging,
null,"<div style=""font-size:60px;"">+</div>",,html-keyboard-response,204,662723,0.0-15.0-0.19,21505,List2B,white,man,,,,null,,,,
null,"<img src=""stim_listB/talk3.gif""</stim_listB>",,html-keyboard-response,205,664726,0.0-15.0-1.19,21505,List2B,white,man,,,,null,,,,
null,is talking to,,html-keyboard-response,206,666729,0.0-15.0-2.19,21505,List2B,white,man,,,,null,,,,
5892,,,survey-text,207,672621,0.0-15.0-3.19,21505,List2B,white,man,,,,,"{""Q0"":""fred is talking to kate""}","<img src=""stim_listB/talk3.gif""</stim_listB>",is talking to,
1871,"<img src='img/portrait_matrix_list2.JPG' style='width:900px;height:500px;''></img><p>If you have memorised all the portraits and names and are ready to start, press Continue.</p><p><strong>Please note: Your memory of these faces will be tested 4 times during this experiment.</strong></p>",0,html-button-response,208,674494,0.0-16.0-0.0,21505,List2B,white,man,,,,,,,,
1921,"<img src=""portrait/BW1.jpg""style=""width:400px;height:400px;""></img>",0,html-button-response,209,677418,0.0-16.0-1.0,21505,List2B,white,man,,TRUE,0,,,,,
null,CORRECT,,html-keyboard-response,210,678921,0.0-16.0-2.0-0.0,21505,List2B,white,man,,,,null,,,,
1150,"<img src=""portrait/BM1.jpg""style=""width:400px;height:400px;""></img>",4,html-button-response,211,680074,0.0-16.0-4.0,21505,List2B,white,man,,TRUE,4,,,,,
null,CORRECT,,html-keyboard-response,212,681577,0.0-16.0-5.0-0.0,21505,List2B,white,man,,,,null,,,,
1134,"<img src=""portrait/BM2.jpg""style=""width:400px;height:400px;""></img>",5,html-button-response,213,682714,0.0-16.0-7.0,21505,List2B,white,man,,TRUE,5,,,,,
null,CORRECT,,html-keyboard-response,214,684217,0.0-16.0-8.0-0.0,21505,List2B,white,man,,,,null,,,,
1001,"<img src=""portrait/WM2.jpg""style=""width:400px;height:400px;""></img>",7,html-button-response,215,685220,0.0-16.0-10.0,21505,List2B,white,man,,TRUE,7,,,,,
null,CORRECT,,html-keyboard-response,216,686725,0.0-16.0-11.0-0.0,21505,List2B,white,man,,,,null,,,,
813,"<img src=""portrait/WM1.jpg""style=""width:400px;height:400px;""></img>",6,html-button-response,217,687541,0.0-16.0-13.0,21505,List2B,white,man,,TRUE,6,,,,,
null,CORRECT,,html-keyboard-response,218,689045,0.0-16.0-14.0-0.0,21505,List2B,white,man,,,,null,,,,
1045,"<img src=""portrait/WW2.jpg""style=""width:400px;height:400px;""></img>",2,html-button-response,219,690091,0.0-16.0-16.0,21505,List2B,white,man,,TRUE,3,,,,,
1787,"<img src=""portrait/WW2.jpg""style=""width:400px;height:400px;""></img>",3,html-button-response,220,692881,0.0-16.0-18.0-0.0,21505,List2B,white,man,,FALSE,3,,,,,
null,CORRECT,,html-keyboard-response,221,694387,0.0-16.0-18.0-1.0-0.0,21505,List2B,white,man,,,,null,,,,
1231,"<img src=""portrait/WW1.jpg""style=""width:400px;height:400px;""></img>",1,html-button-response,222,695619,0.0-16.0-19.0,21505,List2B,white,man,,TRUE,1,,,,,
null,CORRECT,,html-keyboard-response,223,697123,0.0-16.0-20.0-0.0,21505,List2B,white,man,,,,null,,,,
1037,"<img src=""portrait/BW2.jpg""style=""width:400px;height:400px;""></img>",2,html-button-response,224,698163,0.0-16.0-22.0,21505,List2B,white,man,,TRUE,2,,,,,
null,CORRECT,,html-keyboard-response,225,699668,0.0-16.0-23.0-0.0,21505,List2B,white,man,,,,null,,,,
1082,<p>You got 7 out of 8 right first time. Press Continue.</p>,0,html-button-response,226,700751,0.0-16.0-25.0,21505,List2B,white,man,,,,,,,,
2972,"As you did not score 100%, the memory game will repeat. Press Continue.",0,html-button-response,227,704726,0.0-16.0-26.0-0.0,21505,List2B,white,man,,,,,,,,
981,"<img src='img/portrait_matrix_list2.JPG' style='width:900px;height:500px;''></img><p>If you have memorised all the portraits and names and are ready to start, press Continue.</p><p><strong>Please note: Your memory of these faces will be tested 4 times during this experiment.</strong></p>",0,html-button-response,228,706710,0.0-16.1-0.1,21505,List2B,white,man,,,,,,,,
1010,"<img src=""portrait/BW1.jpg""style=""width:400px;height:400px;""></img>",0,html-button-response,229,708724,0.0-16.1-1.1,21505,List2B,white,man,,TRUE,0,,,,,
null,CORRECT,,html-keyboard-response,230,710227,0.0-16.1-2.1-0.1,21505,List2B,white,man,,,,null,,,,
1105,"<img src=""portrait/BM1.jpg""style=""width:400px;height:400px;""></img>",4,html-button-response,231,711334,0.0-16.1-4.1,21505,List2B,white,man,,TRUE,4,,,,,
null,CORRECT,,html-keyboard-response,232,712839,0.0-16.1-5.1-0.1,21505,List2B,white,man,,,,null,,,,
984,"<img src=""portrait/BM2.jpg""style=""width:400px;height:400px;""></img>",5,html-button-response,233,713825,0.0-16.1-7.1,21505,List2B,white,man,,TRUE,5,,,,,
null,CORRECT,,html-keyboard-response,234,715328,0.0-16.1-8.1-0.1,21505,List2B,white,man,,,,null,,,,
1365,"<img src=""portrait/WM2.jpg""style=""width:400px;height:400px;""></img>",7,html-button-response,235,716696,0.0-16.1-10.1,21505,List2B,white,man,,TRUE,7,,,,,
null,CORRECT,,html-keyboard-response,236,718200,0.0-16.1-11.1-0.1,21505,List2B,white,man,,,,null,,,,
1075,"<img src=""portrait/WM1.jpg""style=""width:400px;height:400px;""></img>",6,html-button-response,237,719277,0.0-16.1-13.1,21505,List2B,white,man,,TRUE,6,,,,,
null,CORRECT,,html-keyboard-response,238,720781,0.0-16.1-14.1-0.1,21505,List2B,white,man,,,,null,,,,
1260,"<img src=""portrait/WW2.jpg""style=""width:400px;height:400px;""></img>",3,html-button-response,239,722044,0.0-16.1-16.1,21505,List2B,white,man,,TRUE,3,,,,,
null,CORRECT,,html-keyboard-response,240,723547,0.0-16.1-17.1-0.1,21505,List2B,white,man,,,,null,,,,
963,"<img src=""portrait/WW1.jpg""style=""width:400px;height:400px;""></img>",1,html-button-response,241,724513,0.0-16.1-19.1,21505,List2B,white,man,,TRUE,1,,,,,
null,CORRECT,,html-keyboard-response,242,726016,0.0-16.1-20.1-0.1,21505,List2B,white,man,,,,null,,,,
656,"<img src=""portrait/BW2.jpg""style=""width:400px;height:400px;""></img>",2,html-button-response,243,726675,0.0-16.1-22.1,21505,List2B,white,man,,TRUE,2,,,,,
null,CORRECT,,html-keyboard-response,244,728179,0.0-16.1-23.1-0.1,21505,List2B,white,man,,,,null,,,,
1171,<p>You got 8 out of 8 right first time. Press Continue.</p>,0,html-button-response,245,729352,0.0-16.1-25.1,21505,List2B,white,man,,,,,,,,
null,"<div style=""font-size:60px;"">+</div>",,html-keyboard-response,246,730861,0.0-17.0-0.0,21505,List2B,white,man,,,,null,,,,
null,"<img src=""stim_listB/meet5.gif""</stim_listB>",,html-keyboard-response,247,732865,0.0-17.0-1.0,21505,List2B,white,man,,,,null,,,,
null,is meeting,,html-keyboard-response,248,734869,0.0-17.0-2.0,21505,List2B,white,man,,,,null,,,,
5722,,,survey-text,249,740593,0.0-17.0-3.0,21505,List2B,white,man,,,,,"{""Q0"":""dave is meeting with mike""}","<img src=""stim_listB/meet5.gif""</stim_listB>",is meeting,
null,"<div style=""font-size:60px;"">+</div>",,html-keyboard-response,250,741095,0.0-17.0-0.1,21505,List2B,white,man,,,,null,,,,
null,"<img src=""stim_listB/dance1.gif""</stim_listB>",,html-keyboard-response,251,743099,0.0-17.0-1.1,21505,List2B,white,man,,,,null,,,,
null,is dancing with,,html-keyboard-response,252,745102,0.0-17.0-2.1,21505,List2B,white,man,,,,null,,,,
8563,,,survey-text,253,753666,0.0-17.0-3.1,21505,List2B,white,man,,,,,"{""Q0"":""jane is dancing with luke""}","<img src=""stim_listB/dance1.gif""</stim_listB>",is dancing with,
null,"<div style=""font-size:60px;"">+</div>",,html-keyboard-response,254,754168,0.0-17.0-0.2,21505,List2B,white,man,,,,null,,,,
null,"<img src=""stim_listB/dance6.gif""</stim_listB>",,html-keyboard-response,255,756173,0.0-17.0-1.2,21505,List2B,white,man,,,,null,,,,
null,are dancing with each other,,html-keyboard-response,256,758175,0.0-17.0-2.2,21505,List2B,white,man,,,,null,,,,
11869,,,survey-text,257,770045,0.0-17.0-3.2,21505,List2B,white,man,,,,,"{""Q0"":""fred and dave are dancing with each other""}","<img src=""stim_listB/dance6.gif""</stim_listB>",are dancing with each other,
null,"<div style=""font-size:60px;"">+</div>",,html-keyboard-response,258,770547,0.0-17.0-0.3,21505,List2B,white,man,,,,null,,,,
null,"<img src=""stim_listB/meet1.gif""</stim_listB>",,html-keyboard-response,259,772551,0.0-17.0-1.3,21505,List2B,white,man,,,,null,,,,
null,is meeting,,html-keyboard-response,260,774554,0.0-17.0-2.3,21505,List2B,white,man,,,,null,,,,
5448,,,survey-text,261,780003,0.0-17.0-3.3,21505,List2B,white,man,,,,,"{""Q0"":""jane is meeting dave""}","<img src=""stim_listB/meet1.gif""</stim_listB>",is meeting,
null,"<div style=""font-size:60px;"">+</div>",,html-keyboard-response,262,780505,0.0-17.0-0.4,21505,List2B,white,man,,,,null,,,,
null,"<img src=""stim_listB/kiss3.gif""</stim_listB>",,html-keyboard-response,263,782508,0.0-17.0-1.4,21505,List2B,white,man,,,,null,,,,
null,is kissing,,html-keyboard-response,264,784510,0.0-17.0-2.4,21505,List2B,white,man,,,,null,,,,
4750,,,survey-text,265,789261,0.0-17.0-3.4,21505,List2B,white,man,,,,,"{""Q0"":""fred is kissing beth""}","<img src=""stim_listB/kiss3.gif""</stim_listB>",is kissing,
null,"<div style=""font-size:60px;"">+</div>",,html-keyboard-response,266,789764,0.0-17.0-0.5,21505,List2B,white,man,,,,null,,,,
null,"<img src=""stim_listB/dance2.gif""</stim_listB>",,html-keyboard-response,267,791768,0.0-17.0-1.5,21505,List2B,white,man,,,,null,,,,
null,are dancing with each other,,html-keyboard-response,268,793770,0.0-17.0-2.5,21505,List2B,white,man,,,,null,,,,
10022,,,survey-text,269,803793,0.0-17.0-3.5,21505,List2B,white,man,,,,,"{""Q0"":""dave and ruth are dancing with each other""}","<img src=""stim_listB/dance2.gif""</stim_listB>",are dancing with each other,
null,"<div style=""font-size:60px;"">+</div>",,html-keyboard-response,270,804295,0.0-17.0-0.6,21505,List2B,white,man,,,,null,,,,
null,"<img src=""stim_listB/shout8.gif""</stim_listB>",,html-keyboard-response,271,806297,0.0-17.0-1.6,21505,List2B,white,man,,,,null,,,,
null,are shouting at each other,,html-keyboard-response,272,808298,0.0-17.0-2.6,21505,List2B,white,man,,,,null,,,,
8648,,,survey-text,273,816948,0.0-17.0-3.6,21505,List2B,white,man,,,,,"{""Q0"":""jane and kate are shouting at each other""}","<img src=""stim_listB/shout8.gif""</stim_listB>",are shouting at each other,
null,"<div style=""font-size:60px;"">+</div>",,html-keyboard-response,274,817449,0.0-17.0-0.7,21505,List2B,white,man,,,,null,,,,
null,"<img src=""stim_listB/meet7.gif""</stim_listB>",,html-keyboard-response,275,819451,0.0-17.0-1.7,21505,List2B,white,man,,,,null,,,,
null,is meeting,,html-keyboard-response,276,821453,0.0-17.0-2.7,21505,List2B,white,man,,,,null,,,,
7839,,,survey-text,277,829292,0.0-17.0-3.7,21505,List2B,white,man,,,,,"{""Q0"":""kate is meeting jane""}","<img src=""stim_listB/meet7.gif""</stim_listB>",is meeting,
null,"<div style=""font-size:60px;"">+</div>",,html-keyboard-response,278,829793,0.0-17.0-0.8,21505,List2B,white,man,,,,null,,,,
null,"<img src=""stim_listB/argue7.gif""</stim_listB>",,html-keyboard-response,279,831796,0.0-17.0-1.8,21505,List2B,white,man,,,,null,,,,
null,is arguing with,,html-keyboard-response,280,833799,0.0-17.0-2.8,21505,List2B,white,man,,,,null,,,,
8299,,,survey-text,281,842098,0.0-17.0-3.8,21505,List2B,white,man,,,,,"{""Q0"":""beth is arguing with jane""}","<img src=""stim_listB/argue7.gif""</stim_listB>",is arguing with,
null,"<div style=""font-size:60px;"">+</div>",,html-keyboard-response,282,842601,0.0-17.0-0.9,21505,List2B,white,man,,,,null,,,,
null,"<img src=""stim_listB/argue2.gif""</stim_listB>",,html-keyboard-response,283,844606,0.0-17.0-1.9,21505,List2B,white,man,,,,null,,,,
null,are arguing with each other,,html-keyboard-response,284,846608,0.0-17.0-2.9,21505,List2B,white,man,,,,null,,,,
12370,,,survey-text,285,858979,0.0-17.0-3.9,21505,List2B,white,man,,,,,"{""Q0"":""jane and luke are arguing with each other""}","<img src=""stim_listB/argue2.gif""</stim_listB>",are arguing with each other,
null,"<div style=""font-size:60px;"">+</div>",,html-keyboard-response,286,859481,0.0-17.0-0.10,21505,List2B,white,man,,,,null,,,,
null,"<img src=""stim_listB/argue6.gif""</stim_listB>",,html-keyboard-response,287,861485,0.0-17.0-1.10,21505,List2B,white,man,,,,null,,,,
null,are arguing with each other,,html-keyboard-response,288,863488,0.0-17.0-2.10,21505,List2B,white,man,,,,null,,,,
9418,,,survey-text,289,872907,0.0-17.0-3.10,21505,List2B,white,man,,,,,"{""Q0"":""mike and luke are arguing with each other""}","<img src=""stim_listB/argue6.gif""</stim_listB>",are arguing with each other,
null,"<div style=""font-size:60px;"">+</div>",,html-keyboard-response,290,873409,0.0-17.0-0.11,21505,List2B,white,man,,,,null,,,,
null,"<img src=""stim_listB/hug6.gif""</stim_listB>",,html-keyboard-response,291,875412,0.0-17.0-1.11,21505,List2B,white,man,,,,null,,,,
null,are hugging each other,,html-keyboard-response,292,877415,0.0-17.0-2.11,21505,List2B,white,man,,,,null,,,,
10932,,,survey-text,293,888351,0.0-17.0-3.11,21505,List2B,white,man,,,,,"{""Q0"":""mike and dave are hugging each other""}","<img src=""stim_listB/hug6.gif""</stim_listB>",are hugging each other,
null,"<div style=""font-size:60px;"">+</div>",,html-keyboard-response,294,888853,0.0-17.0-0.12,21505,List2B,white,man,,,,null,,,,
null,"<img src=""stim_listB/marry3.gif""</stim_listB>",,html-keyboard-response,295,890857,0.0-17.0-1.12,21505,List2B,white,man,,,,null,,,,
null,is marrying,,html-keyboard-response,296,892860,0.0-17.0-2.12,21505,List2B,white,man,,,,null,,,,
7675,,,survey-text,297,900537,0.0-17.0-3.12,21505,List2B,white,man,,,,,"{""Q0"":""mike is marrying beth""}","<img src=""stim_listB/marry3.gif""</stim_listB>",is marrying,
null,"<div style=""font-size:60px;"">+</div>",,html-keyboard-response,298,901039,0.0-17.0-0.13,21505,List2B,white,man,,,,null,,,,
null,"<img src=""stim_listB/fight8.gif""</stim_listB>",,html-keyboard-response,299,903043,0.0-17.0-1.13,21505,List2B,white,man,,,,null,,,,
null,are fighting each other,,html-keyboard-response,300,905046,0.0-17.0-2.13,21505,List2B,white,man,,,,null,,,,
8363,,,survey-text,301,913410,0.0-17.0-3.13,21505,List2B,white,man,,,,,"{""Q0"":""ruth and beth are fighting each other""}","<img src=""stim_listB/fight8.gif""</stim_listB>",are fighting each other,
null,"<div style=""font-size:60px;"">+</div>",,html-keyboard-response,302,913911,0.0-17.0-0.14,21505,List2B,white,man,,,,null,,,,
null,"<img src=""stim_listB/kiss5.gif""</stim_listB>",,html-keyboard-response,303,915915,0.0-17.0-1.14,21505,List2B,white,man,,,,null,,,,
null,is kissing,,html-keyboard-response,304,917917,0.0-17.0-2.14,21505,List2B,white,man,,,,null,,,,
6172,,,survey-text,305,924090,0.0-17.0-3.14,21505,List2B,white,man,,,,,"{""Q0"":""fred is kissing luke""}","<img src=""stim_listB/kiss5.gif""</stim_listB>",is kissing,
null,"<div style=""font-size:60px;"">+</div>",,html-keyboard-response,306,924593,0.0-17.0-0.15,21505,List2B,white,man,,,,null,,,,
null,"<img src=""stim_listB/talk5.gif""</stim_listB>",,html-keyboard-response,307,926598,0.0-17.0-1.15,21505,List2B,white,man,,,,null,,,,
null,is talking to,,html-keyboard-response,308,928600,0.0-17.0-2.15,21505,List2B,white,man,,,,null,,,,
5348,,,survey-text,309,933950,0.0-17.0-3.15,21505,List2B,white,man,,,,,"{""Q0"":""luke is talking to mike""}","<img src=""stim_listB/talk5.gif""</stim_listB>",is talking to,
null,"<div style=""font-size:60px;"">+</div>",,html-keyboard-response,310,934451,0.0-17.0-0.16,21505,List2B,white,man,,,,null,,,,
null,"<img src=""stim_listB/shout6.gif""</stim_listB>",,html-keyboard-response,311,936455,0.0-17.0-1.16,21505,List2B,white,man,,,,null,,,,
null,are shouting at each other,,html-keyboard-response,312,938458,0.0-17.0-2.16,21505,List2B,white,man,,,,null,,,,
11438,,,survey-text,313,949898,0.0-17.0-3.16,21505,List2B,white,man,,,,,"{""Q0"":""dave and mike are shouting at each other""}","<img src=""stim_listB/shout6.gif""</stim_listB>",are shouting at each other,
null,"<div style=""font-size:60px;"">+</div>",,html-keyboard-response,314,950399,0.0-17.0-0.17,21505,List2B,white,man,,,,null,,,,
null,"<img src=""stim_listB/talk7.gif""</stim_listB>",,html-keyboard-response,315,952401,0.0-17.0-1.17,21505,List2B,white,man,,,,null,,,,
null,is talking to,,html-keyboard-response,316,954404,0.0-17.0-2.17,21505,List2B,white,man,,,,null,,,,
5681,,,survey-text,317,960086,0.0-17.0-3.17,21505,List2B,white,man,,,,,"{""Q0"":""kate is talking to ruth""}","<img src=""stim_listB/talk7.gif""</stim_listB>",is talking to,
null,"<div style=""font-size:60px;"">+</div>",,html-keyboard-response,318,960589,0.0-17.0-0.18,21505,List2B,white,man,,,,null,,,,
null,"<img src=""stim_listB/shout3.gif""</stim_listB>",,html-keyboard-response,319,962593,0.0-17.0-1.18,21505,List2B,white,man,,,,null,,,,
null,is shouting at,,html-keyboard-response,320,964595,0.0-17.0-2.18,21505,List2B,white,man,,,,null,,,,
7815,,,survey-text,321,972411,0.0-17.0-3.18,21505,List2B,white,man,,,,,"{""Q0"":""fred is shouting at beth""}","<img src=""stim_listB/shout3.gif""</stim_listB>",is shouting at,
null,"<div style=""font-size:60px;"">+</div>",,html-keyboard-response,322,972913,0.0-17.0-0.19,21505,List2B,white,man,,,,null,,,,
null,"<img src=""stim_listB/marry2.gif""</stim_listB>",,html-keyboard-response,323,974917,0.0-17.0-1.19,21505,List2B,white,man,,,,null,,,,
null,are marrying each other,,html-keyboard-response,324,976920,0.0-17.0-2.19,21505,List2B,white,man,,,,null,,,,
7551,,,survey-text,325,984473,0.0-17.0-3.19,21505,List2B,white,man,,,,,"{""Q0"":""jane and luke are marrying each other""}","<img src=""stim_listB/marry2.gif""</stim_listB>",are marrying each other,
2386,"<img src='img/portrait_matrix_list2.JPG' style='width:900px;height:500px;''></img><p>If you have memorised all the portraits and names and are ready to start, press Continue.</p><p><strong>Please note: Your memory of these faces will be tested 4 times during this experiment.</strong></p>",0,html-button-response,326,986859,0.0-18.0-0.0,21505,List2B,white,man,,,,,,,,
1531,"<img src=""portrait/BM2.jpg""style=""width:400px;height:400px;""></img>",5,html-button-response,327,989395,0.0-18.0-1.0,21505,List2B,white,man,,TRUE,5,,,,,
null,CORRECT,,html-keyboard-response,328,990900,0.0-18.0-2.0-0.0,21505,List2B,white,man,,,,null,,,,
1237,"<img src=""portrait/BM1.jpg""style=""width:400px;height:400px;""></img>",4,html-button-response,329,992140,0.0-18.0-4.0,21505,List2B,white,man,,TRUE,4,,,,,
null,CORRECT,,html-keyboard-response,330,993644,0.0-18.0-5.0-0.0,21505,List2B,white,man,,,,null,,,,
1006,"<img src=""portrait/WM2.jpg""style=""width:400px;height:400px;""></img>",7,html-button-response,331,994652,0.0-18.0-7.0,21505,List2B,white,man,,TRUE,7,,,,,
null,CORRECT,,html-keyboard-response,332,996155,0.0-18.0-8.0-0.0,21505,List2B,white,man,,,,null,,,,
1185,"<img src=""portrait/BW1.jpg""style=""width:400px;height:400px;""></img>",0,html-button-response,333,997344,0.0-18.0-10.0,21505,List2B,white,man,,TRUE,0,,,,,
null,CORRECT,,html-keyboard-response,334,998850,0.0-18.0-11.0-0.0,21505,List2B,white,man,,,,null,,,,
1288,"<img src=""portrait/WW1.jpg""style=""width:400px;height:400px;""></img>",1,html-button-response,335,1000140,0.0-18.0-13.0,21505,List2B,white,man,,TRUE,1,,,,,
null,CORRECT,,html-keyboard-response,336,1001644,0.0-18.0-14.0-0.0,21505,List2B,white,man,,,,null,,,,
1731,"<img src=""portrait/BW2.jpg""style=""width:400px;height:400px;""></img>",2,html-button-response,337,1003378,0.0-18.0-16.0,21505,List2B,white,man,,TRUE,2,,,,,
null,CORRECT,,html-keyboard-response,338,1004882,0.0-18.0-17.0-0.0,21505,List2B,white,man,,,,null,,,,
969,"<img src=""portrait/WW2.jpg""style=""width:400px;height:400px;""></img>",3,html-button-response,339,1005853,0.0-18.0-19.0,21505,List2B,white,man,,TRUE,3,,,,,
null,CORRECT,,html-keyboard-response,340,1007357,0.0-18.0-20.0-0.0,21505,List2B,white,man,,,,null,,,,
821,"<img src=""portrait/WM1.jpg""style=""width:400px;height:400px;""></img>",6,html-button-response,341,1008180,0.0-18.0-22.0,21505,List2B,white,man,,TRUE,6,,,,,
null,CORRECT,,html-keyboard-response,342,1009684,0.0-18.0-23.0-0.0,21505,List2B,white,man,,,,null,,,,
1059,<p>You got 8 out of 8 right first time. Press Continue.</p>,0,html-button-response,343,1010745,0.0-18.0-25.0,21505,List2B,white,man,,,,,,,,
null,"<div style=""font-size:60px;"">+</div>",,html-keyboard-response,344,1012251,0.0-19.0-0.0,21505,List2B,white,man,,,,null,,,,
null,"<img src=""stim_listB/meet6.gif""</stim_listB>",,html-keyboard-response,345,1014255,0.0-19.0-1.0,21505,List2B,white,man,,,,null,,,,
null,are meeting each other,,html-keyboard-response,346,1016256,0.0-19.0-2.0,21505,List2B,white,man,,,,null,,,,
7515,,,survey-text,347,1023773,0.0-19.0-3.0,21505,List2B,white,man,,,,,"{""Q0"":""luke and fred are meeting each other""}","<img src=""stim_listB/meet6.gif""</stim_listB>",are meeting each other,
null,"<div style=""font-size:60px;"">+</div>",,html-keyboard-response,348,1024275,0.0-19.0-0.1,21505,List2B,white,man,,,,null,,,,
null,"<img src=""stim_listB/hug4.gif""</stim_listB>",,html-keyboard-response,349,1026278,0.0-19.0-1.1,21505,List2B,white,man,,,,null,,,,
null,are hugging each other,,html-keyboard-response,350,1028280,0.0-19.0-2.1,21505,List2B,white,man,,,,null,,,,
10922,,,survey-text,351,1039204,0.0-19.0-3.1,21505,List2B,white,man,,,,,"{""Q0"":""mike and kate are hugging each other""}","<img src=""stim_listB/hug4.gif""</stim_listB>",are hugging each other,
null,"<div style=""font-size:60px;"">+</div>",,html-keyboard-response,352,1039707,0.0-19.0-0.2,21505,List2B,white,man,,,,null,,,,
null,"<img src=""stim_listB/meet2.gif""</stim_listB>",,html-keyboard-response,353,1041712,0.0-19.0-1.2,21505,List2B,white,man,,,,null,,,,
null,are meeting each other,,html-keyboard-response,354,1043714,0.0-19.0-2.2,21505,List2B,white,man,,,,null,,,,
10398,,,survey-text,355,1054114,0.0-19.0-3.2,21505,List2B,white,man,,,,,"{""Q0"":""ruth and luke are meeting each other""}","<img src=""stim_listB/meet2.gif""</stim_listB>",are meeting each other,
null,"<div style=""font-size:60px;"">+</div>",,html-keyboard-response,356,1054618,0.0-19.0-0.3,21505,List2B,white,man,,,,null,,,,
null,"<img src=""stim_listB/meet3.gif""</stim_listB>",,html-keyboard-response,357,1056622,0.0-19.0-1.3,21505,List2B,white,man,,,,null,,,,
null,is meeting,,html-keyboard-response,358,1058624,0.0-19.0-2.3,21505,List2B,white,man,,,,null,,,,
5804,,,survey-text,359,1064430,0.0-19.0-3.3,21505,List2B,white,man,,,,,"{""Q0"":""kate is meeting mike""}","<img src=""stim_listB/meet3.gif""</stim_listB>",is meeting,
null,"<div style=""font-size:60px;"">+</div>",,html-keyboard-response,360,1064931,0.0-19.0-0.4,21505,List2B,white,man,,,,null,,,,
null,"<img src=""stim_listB/hug2.gif""</stim_listB>",,html-keyboard-response,361,1066936,0.0-19.0-1.4,21505,List2B,white,man,,,,null,,,,
null,are hugging each other,,html-keyboard-response,362,1068938,0.0-19.0-2.4,21505,List2B,white,man,,,,null,,,,
7385,,,survey-text,363,1076325,0.0-19.0-3.4,21505,List2B,white,man,,,,,"{""Q0"":""dave and jane are hugging each other""}","<img src=""stim_listB/hug2.gif""</stim_listB>",are hugging each other,
null,"<div style=""font-size:60px;"">+</div>",,html-keyboard-response,364,1076827,0.0-19.0-0.5,21505,List2B,white,man,,,,null,,,,
null,"<img src=""stim_listB/marry6.gif""</stim_listB>",,html-keyboard-response,365,1078832,0.0-19.0-1.5,21505,List2B,white,man,,,,null,,,,
null,are marrying each other,,html-keyboard-response,366,1080836,0.0-19.0-2.5,21505,List2B,white,man,,,,null,,,,
9979,,,survey-text,367,1090817,0.0-19.0-3.5,21505,List2B,white,man,,,,,"{""Q0"":""luke and mike are marrying each other""}","<img src=""stim_listB/marry6.gif""</stim_listB>",are marrying each other,
null,"<div style=""font-size:60px;"">+</div>",,html-keyboard-response,368,1091319,0.0-19.0-0.6,21505,List2B,white,man,,,,null,,,,
null,"<img src=""stim_listB/touch2.gif""</stim_listB>",,html-keyboard-response,369,1093323,0.0-19.0-1.6,21505,List2B,white,man,,,,null,,,,
null,are touching each other,,html-keyboard-response,370,1095325,0.0-19.0-2.6,21505,List2B,white,man,,,,null,,,,
8242,,,survey-text,371,1103568,0.0-19.0-3.6,21505,List2B,white,man,,,,,"{""Q0"":""luke and ruth are touching each other""}","<img src=""stim_listB/touch2.gif""</stim_listB>",are touching each other,
null,"<div style=""font-size:60px;"">+</div>",,html-keyboard-response,372,1104069,0.0-19.0-0.7,21505,List2B,white,man,,,,null,,,,
null,"<img src=""stim_listB/shout2.gif""</stim_listB>",,html-keyboard-response,373,1106074,0.0-19.0-1.7,21505,List2B,white,man,,,,null,,,,
null,are shouting at each other,,html-keyboard-response,374,1108077,0.0-19.0-2.7,21505,List2B,white,man,,,,null,,,,
7947,,,survey-text,375,1116026,0.0-19.0-3.7,21505,List2B,white,man,,,,,"{""Q0"":""dave and jane are shouting at each other""}","<img src=""stim_listB/shout2.gif""</stim_listB>",are shouting at each other,
null,"<div style=""font-size:60px;"">+</div>",,html-keyboard-response,376,1116528,0.0-19.0-0.8,21505,List2B,white,man,,,,null,,,,
null,"<img src=""stim_listB/dance7.gif""</stim_listB>",,html-keyboard-response,377,1118532,0.0-19.0-1.8,21505,List2B,white,man,,,,null,,,,
null,is dancing with,,html-keyboard-response,378,1120535,0.0-19.0-2.8,21505,List2B,white,man,,,,null,,,,
6362,,,survey-text,379,1126899,0.0-19.0-3.8,21505,List2B,white,man,,,,,"{""Q0"":""kate is dancing with ruth""}","<img src=""stim_listB/dance7.gif""</stim_listB>",is dancing with,
null,"<div style=""font-size:60px;"">+</div>",,html-keyboard-response,380,1127402,0.0-19.0-0.9,21505,List2B,white,man,,,,null,,,,
null,"<img src=""stim_listB/kiss2.gif""</stim_listB>",,html-keyboard-response,381,1129406,0.0-19.0-1.9,21505,List2B,white,man,,,,null,,,,
null,are kissing each other,,html-keyboard-response,382,1131410,0.0-19.0-2.9,21505,List2B,white,man,,,,null,,,,
8001,,,survey-text,383,1139412,0.0-19.0-3.9,21505,List2B,white,man,,,,,"{""Q0"":""dave and jane are kissing each other""}","<img src=""stim_listB/kiss2.gif""</stim_listB>",are kissing each other,
null,"<div style=""font-size:60px;"">+</div>",,html-keyboard-response,384,1139914,0.0-19.0-0.10,21505,List2B,white,man,,,,null,,,,
null,"<img src=""stim_listB/shout4.gif""</stim_listB>",,html-keyboard-response,385,1141917,0.0-19.0-1.10,21505,List2B,white,man,,,,null,,,,
null,are shouting at each other,,html-keyboard-response,386,1143920,0.0-19.0-2.10,21505,List2B,white,man,,,,null,,,,
11256,,,survey-text,387,1155177,0.0-19.0-3.10,21505,List2B,white,man,,,,,"{""Q0"":""mike and kate are shouting at each other""}","<img src=""stim_listB/shout4.gif""</stim_listB>",are shouting at each other,
null,"<div style=""font-size:60px;"">+</div>",,html-keyboard-response,388,1155679,0.0-19.0-0.11,21505,List2B,white,man,,,,null,,,,
null,"<img src=""stim_listB/marry1.gif""</stim_listB>",,html-keyboard-response,389,1157683,0.0-19.0-1.11,21505,List2B,white,man,,,,null,,,,
null,is marrying,,html-keyboard-response,390,1159684,0.0-19.0-2.11,21505,List2B,white,man,,,,null,,,,
5827,,,survey-text,391,1165514,0.0-19.0-3.11,21505,List2B,white,man,,,,,"{""Q0"":""dave is marrying ruth""}","<img src=""stim_listB/marry1.gif""</stim_listB>",is marrying,
null,"<div style=""font-size:60px;"">+</div>",,html-keyboard-response,392,1166016,0.0-19.0-0.12,21505,List2B,white,man,,,,null,,,,
null,"<img src=""stim_listB/fight6.gif""</stim_listB>",,html-keyboard-response,393,1168019,0.0-19.0-1.12,21505,List2B,white,man,,,,null,,,,
null,are fighting each other,,html-keyboard-response,394,1170022,0.0-19.0-2.12,21505,List2B,white,man,,,,null,,,,
8910,,,survey-text,395,1178934,0.0-19.0-3.12,21505,List2B,white,man,,,,,"{""Q0"":""luke and fred are fighting each other""}","<img src=""stim_listB/fight6.gif""</stim_listB>",are fighting each other,
null,"<div style=""font-size:60px;"">+</div>",,html-keyboard-response,396,1179436,0.0-19.0-0.13,21505,List2B,white,man,,,,null,,,,
null,"<img src=""stim_listB/marry4.gif""</stim_listB>",,html-keyboard-response,397,1181441,0.0-19.0-1.13,21505,List2B,white,man,,,,null,,,,
null,are marrying each other,,html-keyboard-response,398,1183444,0.0-19.0-2.13,21505,List2B,white,man,,,,null,,,,
10376,,,survey-text,399,1193821,0.0-19.0-3.13,21505,List2B,white,man,,,,,"{""Q0"":""fred and kate are marrying each other""}","<img src=""stim_listB/marry4.gif""</stim_listB>",are marrying each other,
null,"<div style=""font-size:60px;"">+</div>",,html-keyboard-response,400,1194323,0.0-19.0-0.14,21505,List2B,white,man,,,,null,,,,
null,"<img src=""stim_listB/kiss6.gif""</stim_listB>",,html-keyboard-response,401,1196327,0.0-19.0-1.14,21505,List2B,white,man,,,,null,,,,
null,are kissing each other,,html-keyboard-response,402,1198331,0.0-19.0-2.14,21505,List2B,white,man,,,,null,,,,
11621,,,survey-text,403,1209953,0.0-19.0-3.14,21505,List2B,white,man,,,,,"{""Q0"":""dave and mike are kissing each other""}","<img src=""stim_listB/kiss6.gif""</stim_listB>",are kissing each other,
null,"<div style=""font-size:60px;"">+</div>",,html-keyboard-response,404,1210455,0.0-19.0-0.15,21505,List2B,white,man,,,,null,,,,
null,"<img src=""stim_listB/talk6.gif""</stim_listB>",,html-keyboard-response,405,1212460,0.0-19.0-1.15,21505,List2B,white,man,,,,null,,,,
null,are talking to each other,,html-keyboard-response,406,1214464,0.0-19.0-2.15,21505,List2B,white,man,,,,null,,,,
9077,,,survey-text,407,1223542,0.0-19.0-3.15,21505,List2B,white,man,,,,,"{""Q0"":""fred and dave are talking to each other""}","<img src=""stim_listB/talk6.gif""</stim_listB>",are talking to each other,
null,"<div style=""font-size:60px;"">+</div>",,html-keyboard-response,408,1224045,0.0-19.0-0.16,21505,List2B,white,man,,,,null,,,,
null,"<img src=""stim_listB/touch4.gif""</stim_listB>",,html-keyboard-response,409,1226049,0.0-19.0-1.16,21505,List2B,white,man,,,,null,,,,
null,are touching each other,,html-keyboard-response,410,1228051,0.0-19.0-2.16,21505,List2B,white,man,,,,null,,,,
8982,,,survey-text,411,1237034,0.0-19.0-3.16,21505,List2B,white,man,,,,,"{""Q0"":""fred and beth are touching each other""}","<img src=""stim_listB/touch4.gif""</stim_listB>",are touching each other,
null,"<div style=""font-size:60px;"">+</div>",,html-keyboard-response,412,1237536,0.0-19.0-0.17,21505,List2B,white,man,,,,null,,,,
null,"<img src=""stim_listB/argue1.gif""</stim_listB>",,html-keyboard-response,413,1239541,0.0-19.0-1.17,21505,List2B,white,man,,,,null,,,,
null,is arguing with,,html-keyboard-response,414,1241544,0.0-19.0-2.17,21505,List2B,white,man,,,,null,,,,
8385,,,survey-text,415,1249931,0.0-19.0-3.17,21505,List2B,white,man,,,,,"{""Q0"":""ruth is arguing with dave""}","<img src=""stim_listB/argue1.gif""</stim_listB>",is arguing with,
null,"<div style=""font-size:60px;"">+</div>",,html-keyboard-response,416,1250432,0.0-19.0-0.18,21505,List2B,white,man,,,,null,,,,
null,"<img src=""stim_listB/shout1.gif""</stim_listB>",,html-keyboard-response,417,1252437,0.0-19.0-1.18,21505,List2B,white,man,,,,null,,,,
null,is shouting at,,html-keyboard-response,418,1254440,0.0-19.0-2.18,21505,List2B,white,man,,,,null,,,,
5286,,,survey-text,419,1259730,0.0-19.0-3.18,21505,List2B,white,man,,,,,"{""Q0"":""ruth is shouting at luke""}","<img src=""stim_listB/shout1.gif""</stim_listB>",is shouting at,
null,"<div style=""font-size:60px;"">+</div>",,html-keyboard-response,420,1260233,0.0-19.0-0.19,21505,List2B,white,man,,,,null,,,,
null,"<img src=""stim_listB/hug5.gif""</stim_listB>",,html-keyboard-response,421,1262239,0.0-19.0-1.19,21505,List2B,white,man,,,,null,,,,
null,is hugging,,html-keyboard-response,422,1264242,0.0-19.0-2.19,21505,List2B,white,man,,,,null,,,,
4635,,,survey-text,423,1268879,0.0-19.0-3.19,21505,List2B,white,man,,,,,"{""Q0"":""fred is hugging luke""}","<img src=""stim_listB/hug5.gif""</stim_listB>",is hugging,
1461,<p>Thank you for completing that task.</p><p>The final part of this session is a short questionnaire.</p><p>Press Continue.</p>,0,html-button-response,424,1270342,0.0-20.0,21505,List2B,white,man,,,,,,,,
20234,,,survey-text,425,1291580,0.0-21.0,21505,List2B,white,man,,,,,"{""Q0"":""19"",""Q1"":""english"",""Q2"":""english"",""Q3"":""uk"",""Q4"":""white British"",""Q5"":""male""}",,,demographics
78705,,,survey-likert,426,1370289,0.0-22.0,21505,List2B,white,man,,,,,"{""Q0"":3,""Q1"":3,""Q2"":3,""Q3"":3,""Q4"":3,""Q5"":4,""Q6"":3,""Q7"":1,""Q8"":1,""Q9"":1,""Q10"":5,""Q11"":4,""Q12"":4,""Q13"":4}",,,likert_race
59797,,,survey-likert,427,1430090,0.0-23.0,21505,List2B,white,man,,,,,"{""Q0"":4,""Q1"":4,""Q2"":4,""Q3"":5,""Q4"":3,""Q5"":3,""Q6"":3,""Q7"":4,""Q8"":4,""Q9"":4,""Q10"":4,""Q11"":4,""Q12"":5,""Q13"":4}",,,likert_gender
8357,,,survey-text,428,1438448,0.0-24.0,21505,List2B,white,man,,,,,"{""Q0"":""ccc""}",,,worker_id
8863,,,external-html,429,1447346,0.0-25.0,21505,List2B,white,man,debrief.html,,,,,,,
