rt,stimulus,button_pressed,trial_type,trial_index,time_elapsed,internal_node_id,subject,list,ppt_race,ppt_gender,url,first_guess,correct,key_press,responses,image_type,phrase_type,test_part
2244,Welcome to the experiment. Press Continue to begin.,0,html-button-response,0,2249,0.0-0.0,22611,List2A,white,woman,,,,,,,,
11947,,,external-html,1,15528,0.0-1.0,22611,List2A,white,woman,consent.html,,,,,,,
11235,"<p>On the next page, you will see portraits of 8 people and their names.</p><p>Your first task is to take a few minutes to memorise the names of these people.</p><p>You will have to recall their names during the rest of the experiment, so it is</p><p>essential that you try to memorise these people and their names as best as you can.</p><br><p><strong>You will then be tested on your memory of these names and portraits.</strong></p><br><p>The experiment will start after you have completed this memory test.</p><br><p>Ready?</p>",0,html-button-response,2,26765,0.0-2.0,22611,List2A,white,woman,,,,,,,,
182484,"<img src='img/portrait_matrix_list2.JPG' style='width:900px;height:500px;''></img><p>If you have memorised all the portraits and names and are ready to start, press Continue.</p><p><strong>Please note: Your memory of these faces will be tested 4 times during this experiment.</strong></p>",0,html-button-response,3,210255,0.0-3.0-0.0,22611,List2A,white,woman,,,,,,,,
3690,"<img src=""portrait/WM2.jpg""style=""width:400px;height:400px;""></img>",7,html-button-response,4,214952,0.0-3.0-1.0,22611,List2A,white,woman,,TRUE,7,,,,,
null,CORRECT,,html-keyboard-response,5,216463,0.0-3.0-2.0-0.0,22611,List2A,white,woman,,,,null,,,,
5260,"<img src=""portrait/BW1.jpg""style=""width:400px;height:400px;""></img>",3,html-button-response,6,221723,0.0-3.0-4.0,22611,List2A,white,woman,,TRUE,0,,,,,
7986,"<img src=""portrait/BW1.jpg""style=""width:400px;height:400px;""></img>",0,html-button-response,7,230717,0.0-3.0-6.0-0.0,22611,List2A,white,woman,,FALSE,0,,,,,
null,CORRECT,,html-keyboard-response,8,232222,0.0-3.0-6.0-1.0-0.0,22611,List2A,white,woman,,,,null,,,,
2566,"<img src=""portrait/BW2.jpg""style=""width:400px;height:400px;""></img>",2,html-button-response,9,234789,0.0-3.0-7.0,22611,List2A,white,woman,,TRUE,2,,,,,
null,CORRECT,,html-keyboard-response,10,236316,0.0-3.0-8.0-0.0,22611,List2A,white,woman,,,,null,,,,
2618,"<img src=""portrait/WW2.jpg""style=""width:400px;height:400px;""></img>",1,html-button-response,11,238935,0.0-3.0-10.0,22611,List2A,white,woman,,TRUE,3,,,,,
2581,"<img src=""portrait/WW2.jpg""style=""width:400px;height:400px;""></img>",3,html-button-response,12,242518,0.0-3.0-12.0-0.0,22611,List2A,white,woman,,FALSE,3,,,,,
null,CORRECT,,html-keyboard-response,13,244022,0.0-3.0-12.0-1.0-0.0,22611,List2A,white,woman,,,,null,,,,
5472,"<img src=""portrait/BM2.jpg""style=""width:400px;height:400px;""></img>",5,html-button-response,14,249496,0.0-3.0-13.0,22611,List2A,white,woman,,TRUE,5,,,,,
null,CORRECT,,html-keyboard-response,15,251003,0.0-3.0-14.0-0.0,22611,List2A,white,woman,,,,null,,,,
2931,"<img src=""portrait/WW1.jpg""style=""width:400px;height:400px;""></img>",3,html-button-response,16,253935,0.0-3.0-16.0,22611,List2A,white,woman,,TRUE,1,,,,,
1584,"<img src=""portrait/WW1.jpg""style=""width:400px;height:400px;""></img>",1,html-button-response,17,256524,0.0-3.0-18.0-0.0,22611,List2A,white,woman,,FALSE,1,,,,,
null,CORRECT,,html-keyboard-response,18,258035,0.0-3.0-18.0-1.0-0.0,22611,List2A,white,woman,,,,null,,,,
4377,"<img src=""portrait/WM1.jpg""style=""width:400px;height:400px;""></img>",6,html-button-response,19,262414,0.0-3.0-19.0,22611,List2A,white,woman,,TRUE,6,,,,,
null,CORRECT,,html-keyboard-response,20,263918,0.0-3.0-20.0-0.0,22611,List2A,white,woman,,,,null,,,,
1558,"<img src=""portrait/BM1.jpg""style=""width:400px;height:400px;""></img>",4,html-button-response,21,265476,0.0-3.0-22.0,22611,List2A,white,woman,,TRUE,4,,,,,
null,CORRECT,,html-keyboard-response,22,266980,0.0-3.0-23.0-0.0,22611,List2A,white,woman,,,,null,,,,
1318,<p>You got 5 out of 8 right first time. Press Continue.</p>,0,html-button-response,23,268299,0.0-3.0-25.0,22611,List2A,white,woman,,,,,,,,
2214,"As you did not score 100%, the memory game will repeat. Press Continue.",0,html-button-response,24,271514,0.0-3.0-26.0-0.0,22611,List2A,white,woman,,,,,,,,
11479,"<img src='img/portrait_matrix_list2.JPG' style='width:900px;height:500px;''></img><p>If you have memorised all the portraits and names and are ready to start, press Continue.</p><p><strong>Please note: Your memory of these faces will be tested 4 times during this experiment.</strong></p>",0,html-button-response,25,284001,0.0-3.1-0.1,22611,List2A,white,woman,,,,,,,,
2742,"<img src=""portrait/WM2.jpg""style=""width:400px;height:400px;""></img>",7,html-button-response,26,287748,0.0-3.1-1.1,22611,List2A,white,woman,,TRUE,7,,,,,
null,CORRECT,,html-keyboard-response,27,289259,0.0-3.1-2.1-0.1,22611,List2A,white,woman,,,,null,,,,
2829,"<img src=""portrait/BW1.jpg""style=""width:400px;height:400px;""></img>",0,html-button-response,28,292089,0.0-3.1-4.1,22611,List2A,white,woman,,TRUE,0,,,,,
null,CORRECT,,html-keyboard-response,29,293601,0.0-3.1-5.1-0.1,22611,List2A,white,woman,,,,null,,,,
2199,"<img src=""portrait/BW2.jpg""style=""width:400px;height:400px;""></img>",2,html-button-response,30,295802,0.0-3.1-7.1,22611,List2A,white,woman,,TRUE,2,,,,,
null,CORRECT,,html-keyboard-response,31,297314,0.0-3.1-8.1-0.1,22611,List2A,white,woman,,,,null,,,,
3367,"<img src=""portrait/WW2.jpg""style=""width:400px;height:400px;""></img>",3,html-button-response,32,300682,0.0-3.1-10.1,22611,List2A,white,woman,,TRUE,3,,,,,
null,CORRECT,,html-keyboard-response,33,302194,0.0-3.1-11.1-0.1,22611,List2A,white,woman,,,,null,,,,
2675,"<img src=""portrait/BM2.jpg""style=""width:400px;height:400px;""></img>",5,html-button-response,34,304871,0.0-3.1-13.1,22611,List2A,white,woman,,TRUE,5,,,,,
null,CORRECT,,html-keyboard-response,35,306379,0.0-3.1-14.1-0.1,22611,List2A,white,woman,,,,null,,,,
3482,"<img src=""portrait/WW1.jpg""style=""width:400px;height:400px;""></img>",1,html-button-response,36,309863,0.0-3.1-16.1,22611,List2A,white,woman,,TRUE,1,,,,,
null,CORRECT,,html-keyboard-response,37,311374,0.0-3.1-17.1-0.1,22611,List2A,white,woman,,,,null,,,,
5554,"<img src=""portrait/WM1.jpg""style=""width:400px;height:400px;""></img>",6,html-button-response,38,316931,0.0-3.1-19.1,22611,List2A,white,woman,,TRUE,6,,,,,
null,CORRECT,,html-keyboard-response,39,318438,0.0-3.1-20.1-0.1,22611,List2A,white,woman,,,,null,,,,
3723,"<img src=""portrait/BM1.jpg""style=""width:400px;height:400px;""></img>",4,html-button-response,40,322163,0.0-3.1-22.1,22611,List2A,white,woman,,TRUE,4,,,,,
null,CORRECT,,html-keyboard-response,41,323668,0.0-3.1-23.1-0.1,22611,List2A,white,woman,,,,null,,,,
1261,<p>You got 8 out of 8 right first time. Press Continue.</p>,0,html-button-response,42,324931,0.0-3.1-25.1,22611,List2A,white,woman,,,,,,,,
22911,"<p>In this experiment, you will view photographs of the people from the memory game interacting.</p><p>By using the <strong>exact</strong> phrase given <i>after</i> the photograph appears and recalling the correct names of the people in the photographs, form a sentence describing the interaction. You do not need to capitalise names.</p><p>Type your answer in the space provided. Please complete every sentence before moving onto the next trial.</p><p>You will only have a few seconds to memorise each given photograph and phrase before you can respond, so try your best to focus.</p><p>An example is given below. Press 'Continue' when you are ready.</p><img src='img/speaking_example_v2.jpg' style='width:800px;height:460px;''></img>",0,html-button-response,43,348844,0.0-4.0,22611,List2A,white,woman,,,,,,,,
1823,"<p>Before the experiment starts, you will watch two example trials. Press 'Continue'.</p>",0,html-button-response,44,351673,0.0-5.0,22611,List2A,white,woman,,,,,,,,
null,<img src='img/speaking_WW.gif'></img>,,html-keyboard-response,45,354681,0.0-6.0,22611,List2A,white,woman,,,,null,,,,
null,<p>is speaking to</p>,,html-keyboard-response,46,356687,0.0-7.0,22611,List2A,white,woman,,,,null,,,,
2353,<p><b>Answer:</b> jane is speaking to ruth</p>,0,html-button-response,47,359041,0.0-8.0,22611,List2A,white,woman,,,,,,,,
null,<img src='img/pointing_BM.gif'></img>,,html-keyboard-response,48,362044,0.0-9.0,22611,List2A,white,woman,,,,null,,,,
null,<p>are pointing at each other</p>,,html-keyboard-response,49,364045,0.0-10.0,22611,List2A,white,woman,,,,null,,,,
2727,<p><b>Answer:</b> fred and mike are pointing at each other</p>,0,html-button-response,50,366774,0.0-11.0,22611,List2A,white,woman,,,,,,,,
22107,"<p>Ready to start the experiment?</p><br><p><strong>Remember to describe the picture using a full sentence,</strong></p><p><strong>that combines the names of the people with the given phrase.</strong></p><p><strong>If you do not do this correctly you will not be paid.</strong></p><p><strong> You do not need to capitalise names or use punctuation.</strong></p><br><p>Press 'Continue' to begin.</p>",0,html-button-response,51,389887,0.0-12.0,22611,List2A,white,woman,,,,,,,,
null,"<div style=""font-size:60px;"">+</div>",,html-keyboard-response,52,391393,0.0-13.0-0.0,22611,List2A,white,woman,,,,null,,,,
null,"<img src=""stim_listA/meet1.gif""</stim_listA>",,html-keyboard-response,53,393398,0.0-13.0-1.0,22611,List2A,white,woman,,,,null,,,,
null,is meeting,,html-keyboard-response,54,395405,0.0-13.0-2.0,22611,List2A,white,woman,,,,null,,,,
15573,,,survey-text,55,410979,0.0-13.0-3.0,22611,List2A,white,woman,,,,,"{""Q0"":""dave is meeting jane""}","<img src=""stim_listA/meet1.gif""</stim_listA>",is meeting,
null,"<div style=""font-size:60px;"">+</div>",,html-keyboard-response,56,411481,0.0-13.0-0.1,22611,List2A,white,woman,,,,null,,,,
null,"<img src=""stim_listA/meet7.gif""</stim_listA>",,html-keyboard-response,57,413485,0.0-13.0-1.1,22611,List2A,white,woman,,,,null,,,,
null,is meeting,,html-keyboard-response,58,415492,0.0-13.0-2.1,22611,List2A,white,woman,,,,null,,,,
8627,,,survey-text,59,424120,0.0-13.0-3.1,22611,List2A,white,woman,,,,,"{""Q0"":""jane is meeting kate""}","<img src=""stim_listA/meet7.gif""</stim_listA>",is meeting,
null,"<div style=""font-size:60px;"">+</div>",,html-keyboard-response,60,424626,0.0-13.0-0.2,22611,List2A,white,woman,,,,null,,,,
null,"<img src=""stim_listA/kiss1.gif""</stim_listA>",,html-keyboard-response,61,426632,0.0-13.0-1.2,22611,List2A,white,woman,,,,null,,,,
null,is kissing,,html-keyboard-response,62,428638,0.0-13.0-2.2,22611,List2A,white,woman,,,,null,,,,
29795,,,survey-text,63,458433,0.0-13.0-3.2,22611,List2A,white,woman,,,,,"{""Q0"":""ruth is kissing luke""}","<img src=""stim_listA/kiss1.gif""</stim_listA>",is kissing,
null,"<div style=""font-size:60px;"">+</div>",,html-keyboard-response,64,458939,0.0-13.0-0.3,22611,List2A,white,woman,,,,null,,,,
null,"<img src=""stim_listA/kiss3.gif""</stim_listA>",,html-keyboard-response,65,460946,0.0-13.0-1.3,22611,List2A,white,woman,,,,null,,,,
null,is kissing,,html-keyboard-response,66,462952,0.0-13.0-2.3,22611,List2A,white,woman,,,,null,,,,
10650,,,survey-text,67,473603,0.0-13.0-3.3,22611,List2A,white,woman,,,,,"{""Q0"":""fred is kissing beth""}","<img src=""stim_listA/kiss3.gif""</stim_listA>",is kissing,
null,"<div style=""font-size:60px;"">+</div>",,html-keyboard-response,68,474109,0.0-13.0-0.4,22611,List2A,white,woman,,,,null,,,,
null,"<img src=""stim_listA/marry5.gif""</stim_listA>",,html-keyboard-response,69,476115,0.0-13.0-1.4,22611,List2A,white,woman,,,,null,,,,
null,is marrying,,html-keyboard-response,70,478120,0.0-13.0-2.4,22611,List2A,white,woman,,,,null,,,,
31461,,,survey-text,71,509582,0.0-13.0-3.4,22611,List2A,white,woman,,,,,"{""Q0"":""fred is marrying dave""}","<img src=""stim_listA/marry5.gif""</stim_listA>",is marrying,
null,"<div style=""font-size:60px;"">+</div>",,html-keyboard-response,72,510088,0.0-13.0-0.5,22611,List2A,white,woman,,,,null,,,,
null,"<img src=""stim_listA/dance1.gif""</stim_listA>",,html-keyboard-response,73,512094,0.0-13.0-1.5,22611,List2A,white,woman,,,,null,,,,
null,is dancing with,,html-keyboard-response,74,514101,0.0-13.0-2.5,22611,List2A,white,woman,,,,null,,,,
11617,,,survey-text,75,525719,0.0-13.0-3.5,22611,List2A,white,woman,,,,,"{""Q0"":""ruth is dancing with luke""}","<img src=""stim_listA/dance1.gif""</stim_listA>",is dancing with,
null,"<div style=""font-size:60px;"">+</div>",,html-keyboard-response,76,526225,0.0-13.0-0.6,22611,List2A,white,woman,,,,null,,,,
null,"<img src=""stim_listA/marry6.gif""</stim_listA>",,html-keyboard-response,77,528231,0.0-13.0-1.6,22611,List2A,white,woman,,,,null,,,,
null,are marrying each other,,html-keyboard-response,78,530237,0.0-13.0-2.6,22611,List2A,white,woman,,,,null,,,,
9244,,,survey-text,79,539482,0.0-13.0-3.6,22611,List2A,white,woman,,,,,"{""Q0"":""luke is holding hands with mike""}","<img src=""stim_listA/marry6.gif""</stim_listA>",are marrying each other,
null,"<div style=""font-size:60px;"">+</div>",,html-keyboard-response,80,539988,0.0-13.0-0.7,22611,List2A,white,woman,,,,null,,,,
null,"<img src=""stim_listA/kiss7.gif""</stim_listA>",,html-keyboard-response,81,541994,0.0-13.0-1.7,22611,List2A,white,woman,,,,null,,,,
null,is kissing,,html-keyboard-response,82,544000,0.0-13.0-2.7,22611,List2A,white,woman,,,,null,,,,
9118,,,survey-text,83,553118,0.0-13.0-3.7,22611,List2A,white,woman,,,,,"{""Q0"":""beth is kissing ruth""}","<img src=""stim_listA/kiss7.gif""</stim_listA>",is kissing,
null,"<div style=""font-size:60px;"">+</div>",,html-keyboard-response,84,553620,0.0-13.0-0.8,22611,List2A,white,woman,,,,null,,,,
null,"<img src=""stim_listA/fight4.gif""</stim_listA>",,html-keyboard-response,85,555626,0.0-13.0-1.8,22611,List2A,white,woman,,,,null,,,,
null,are fighting each other,,html-keyboard-response,86,557632,0.0-13.0-2.8,22611,List2A,white,woman,,,,null,,,,
22079,,,survey-text,87,579713,0.0-13.0-3.8,22611,List2A,white,woman,,,,,"{""Q0"":""fred and beth are fighting eachother""}","<img src=""stim_listA/fight4.gif""</stim_listA>",are fighting each other,
null,"<div style=""font-size:60px;"">+</div>",,html-keyboard-response,88,580219,0.0-13.0-0.9,22611,List2A,white,woman,,,,null,,,,
null,"<img src=""stim_listA/shout2.gif""</stim_listA>",,html-keyboard-response,89,582221,0.0-13.0-1.9,22611,List2A,white,woman,,,,null,,,,
null,are shouting at each other,,html-keyboard-response,90,584227,0.0-13.0-2.9,22611,List2A,white,woman,,,,null,,,,
19297,,,survey-text,91,603525,0.0-13.0-3.9,22611,List2A,white,woman,,,,,"{""Q0"":""jane and dave are shouting at eachother""}","<img src=""stim_listA/shout2.gif""</stim_listA>",are shouting at each other,
null,"<div style=""font-size:60px;"">+</div>",,html-keyboard-response,92,604031,0.0-13.0-0.10,22611,List2A,white,woman,,,,null,,,,
null,"<img src=""stim_listA/meet6.gif""</stim_listA>",,html-keyboard-response,93,606036,0.0-13.0-1.10,22611,List2A,white,woman,,,,null,,,,
null,are meeting each other,,html-keyboard-response,94,608042,0.0-13.0-2.10,22611,List2A,white,woman,,,,null,,,,
70306,,,survey-text,95,678349,0.0-13.0-3.10,22611,List2A,white,woman,,,,,"{""Q0"":""luke and fred are meeting eachother""}","<img src=""stim_listA/meet6.gif""</stim_listA>",are meeting each other,
null,"<div style=""font-size:60px;"">+</div>",,html-keyboard-response,96,678856,0.0-13.0-0.11,22611,List2A,white,woman,,,,null,,,,
null,"<img src=""stim_listA/fight2.gif""</stim_listA>",,html-keyboard-response,97,680862,0.0-13.0-1.11,22611,List2A,white,woman,,,,null,,,,
null,are fighting each other,,html-keyboard-response,98,682863,0.0-13.0-2.11,22611,List2A,white,woman,,,,null,,,,
114086,,,survey-text,99,796951,0.0-13.0-3.11,22611,List2A,white,woman,,,,,"{""Q0"":""luke and ruth are fighting eachother""}","<img src=""stim_listA/fight2.gif""</stim_listA>",are fighting each other,
null,"<div style=""font-size:60px;"">+</div>",,html-keyboard-response,100,797454,0.0-13.0-0.12,22611,List2A,white,woman,,,,null,,,,
null,"<img src=""stim_listA/dance3.gif""</stim_listA>",,html-keyboard-response,101,799460,0.0-13.0-1.12,22611,List2A,white,woman,,,,null,,,,
null,is dancing with,,html-keyboard-response,102,801466,0.0-13.0-2.12,22611,List2A,white,woman,,,,null,,,,
15516,,,survey-text,103,816983,0.0-13.0-3.12,22611,List2A,white,woman,,,,,"{""Q0"":""kate is dancing with fred""}","<img src=""stim_listA/dance3.gif""</stim_listA>",is dancing with,
null,"<div style=""font-size:60px;"">+</div>",,html-keyboard-response,104,817489,0.0-13.0-0.13,22611,List2A,white,woman,,,,null,,,,
null,"<img src=""stim_listA/shout4.gif""</stim_listA>",,html-keyboard-response,105,819496,0.0-13.0-1.13,22611,List2A,white,woman,,,,null,,,,
null,are shouting at each other,,html-keyboard-response,106,821502,0.0-13.0-2.13,22611,List2A,white,woman,,,,null,,,,
12299,,,survey-text,107,833803,0.0-13.0-3.13,22611,List2A,white,woman,,,,,"{""Q0"":""kate and mike are shouting at eachother""}","<img src=""stim_listA/shout4.gif""</stim_listA>",are shouting at each other,
null,"<div style=""font-size:60px;"">+</div>",,html-keyboard-response,108,834307,0.0-13.0-0.14,22611,List2A,white,woman,,,,null,,,,
null,"<img src=""stim_listA/argue6.gif""</stim_listA>",,html-keyboard-response,109,836311,0.0-13.0-1.14,22611,List2A,white,woman,,,,null,,,,
null,are arguing with each other,,html-keyboard-response,110,838313,0.0-13.0-2.14,22611,List2A,white,woman,,,,null,,,,
10469,,,survey-text,111,848784,0.0-13.0-3.14,22611,List2A,white,woman,,,,,"{""Q0"":""mike and luke are arguing with eahother""}","<img src=""stim_listA/argue6.gif""</stim_listA>",are arguing with each other,
null,"<div style=""font-size:60px;"">+</div>",,html-keyboard-response,112,849290,0.0-13.0-0.15,22611,List2A,white,woman,,,,null,,,,
null,"<img src=""stim_listA/fight6.gif""</stim_listA>",,html-keyboard-response,113,851297,0.0-13.0-1.15,22611,List2A,white,woman,,,,null,,,,
null,are fighting each other,,html-keyboard-response,114,853298,0.0-13.0-2.15,22611,List2A,white,woman,,,,null,,,,
7622,,,survey-text,115,860921,0.0-13.0-3.15,22611,List2A,white,woman,,,,,"{""Q0"":""luke and fred are fighting with eachother""}","<img src=""stim_listA/fight6.gif""</stim_listA>",are fighting each other,
null,"<div style=""font-size:60px;"">+</div>",,html-keyboard-response,116,861427,0.0-13.0-0.16,22611,List2A,white,woman,,,,null,,,,
null,"<img src=""stim_listA/touch1.gif""</stim_listA>",,html-keyboard-response,117,863434,0.0-13.0-1.16,22611,List2A,white,woman,,,,null,,,,
null,is touching,,html-keyboard-response,118,865440,0.0-13.0-2.16,22611,List2A,white,woman,,,,null,,,,
10126,,,survey-text,119,875566,0.0-13.0-3.16,22611,List2A,white,woman,,,,,"{""Q0"":""jane is touching dave""}","<img src=""stim_listA/touch1.gif""</stim_listA>",is touching,
null,"<div style=""font-size:60px;"">+</div>",,html-keyboard-response,120,876072,0.0-13.0-0.17,22611,List2A,white,woman,,,,null,,,,
null,"<img src=""stim_listA/hug3.gif""</stim_listA>",,html-keyboard-response,121,878079,0.0-13.0-1.17,22611,List2A,white,woman,,,,null,,,,
null,is hugging,,html-keyboard-response,122,880085,0.0-13.0-2.17,22611,List2A,white,woman,,,,null,,,,
9952,,,survey-text,123,890038,0.0-13.0-3.17,22611,List2A,white,woman,,,,,"{""Q0"":""beth is hugging fred""}","<img src=""stim_listA/hug3.gif""</stim_listA>",is hugging,
null,"<div style=""font-size:60px;"">+</div>",,html-keyboard-response,124,890544,0.0-13.0-0.18,22611,List2A,white,woman,,,,null,,,,
null,"<img src=""stim_listA/argue4.gif""</stim_listA>",,html-keyboard-response,125,892550,0.0-13.0-1.18,22611,List2A,white,woman,,,,null,,,,
null,are arguing with each other,,html-keyboard-response,126,894553,0.0-13.0-2.18,22611,List2A,white,woman,,,,null,,,,
13486,,,survey-text,127,908039,0.0-13.0-3.18,22611,List2A,white,woman,,,,,"{""Q0"":""fred and kate are arguing with eachother""}","<img src=""stim_listA/argue4.gif""</stim_listA>",are arguing with each other,
null,"<div style=""font-size:60px;"">+</div>",,html-keyboard-response,128,908545,0.0-13.0-0.19,22611,List2A,white,woman,,,,null,,,,
null,"<img src=""stim_listA/dance6.gif""</stim_listA>",,html-keyboard-response,129,910552,0.0-13.0-1.19,22611,List2A,white,woman,,,,null,,,,
null,are dancing with each other,,html-keyboard-response,130,912558,0.0-13.0-2.19,22611,List2A,white,woman,,,,null,,,,
18901,,,survey-text,131,931459,0.0-13.0-3.19,22611,List2A,white,woman,,,,,"{""Q0"":""dave and fred are dancing with each other""}","<img src=""stim_listA/dance6.gif""</stim_listA>",are dancing with each other,
5264,"<img src='img/portrait_matrix_list2.JPG' style='width:900px;height:500px;''></img><p>If you have memorised all the portraits and names and are ready to start, press Continue.</p><p><strong>Please note: Your memory of these faces will be tested 4 times during this experiment.</strong></p>",0,html-button-response,132,936724,0.0-14.0-0.0,22611,List2A,white,woman,,,,,,,,
3598,"<img src=""portrait/BM2.jpg""style=""width:400px;height:400px;""></img>",5,html-button-response,133,941330,0.0-14.0-1.0,22611,List2A,white,woman,,TRUE,5,,,,,
null,CORRECT,,html-keyboard-response,134,942842,0.0-14.0-2.0-0.0,22611,List2A,white,woman,,,,null,,,,
2819,"<img src=""portrait/BW1.jpg""style=""width:400px;height:400px;""></img>",0,html-button-response,135,945663,0.0-14.0-4.0,22611,List2A,white,woman,,TRUE,0,,,,,
null,CORRECT,,html-keyboard-response,136,947174,0.0-14.0-5.0-0.0,22611,List2A,white,woman,,,,null,,,,
1602,"<img src=""portrait/WM2.jpg""style=""width:400px;height:400px;""></img>",7,html-button-response,137,948777,0.0-14.0-7.0,22611,List2A,white,woman,,TRUE,7,,,,,
null,CORRECT,,html-keyboard-response,138,950289,0.0-14.0-8.0-0.0,22611,List2A,white,woman,,,,null,,,,
1606,"<img src=""portrait/BM1.jpg""style=""width:400px;height:400px;""></img>",4,html-button-response,139,951897,0.0-14.0-10.0,22611,List2A,white,woman,,TRUE,4,,,,,
null,CORRECT,,html-keyboard-response,140,953406,0.0-14.0-11.0-0.0,22611,List2A,white,woman,,,,null,,,,
3227,"<img src=""portrait/WW1.jpg""style=""width:400px;height:400px;""></img>",1,html-button-response,141,956635,0.0-14.0-13.0,22611,List2A,white,woman,,TRUE,1,,,,,
null,CORRECT,,html-keyboard-response,142,958146,0.0-14.0-14.0-0.0,22611,List2A,white,woman,,,,null,,,,
3437,"<img src=""portrait/WM1.jpg""style=""width:400px;height:400px;""></img>",6,html-button-response,143,961585,0.0-14.0-16.0,22611,List2A,white,woman,,TRUE,6,,,,,
null,CORRECT,,html-keyboard-response,144,963096,0.0-14.0-17.0-0.0,22611,List2A,white,woman,,,,null,,,,
3371,"<img src=""portrait/WW2.jpg""style=""width:400px;height:400px;""></img>",3,html-button-response,145,966468,0.0-14.0-19.0,22611,List2A,white,woman,,TRUE,3,,,,,
null,CORRECT,,html-keyboard-response,146,967980,0.0-14.0-20.0-0.0,22611,List2A,white,woman,,,,null,,,,
3329,"<img src=""portrait/BW2.jpg""style=""width:400px;height:400px;""></img>",2,html-button-response,147,971311,0.0-14.0-22.0,22611,List2A,white,woman,,TRUE,2,,,,,
null,CORRECT,,html-keyboard-response,148,972823,0.0-14.0-23.0-0.0,22611,List2A,white,woman,,,,null,,,,
1397,<p>You got 8 out of 8 right first time. Press Continue.</p>,0,html-button-response,149,974221,0.0-14.0-25.0,22611,List2A,white,woman,,,,,,,,
null,"<div style=""font-size:60px;"">+</div>",,html-keyboard-response,150,975734,0.0-15.0-0.0,22611,List2A,white,woman,,,,null,,,,
null,"<img src=""stim_listA/hug4.gif""</stim_listA>",,html-keyboard-response,151,977740,0.0-15.0-1.0,22611,List2A,white,woman,,,,null,,,,
null,are hugging each other,,html-keyboard-response,152,979747,0.0-15.0-2.0,22611,List2A,white,woman,,,,null,,,,
14587,,,survey-text,153,994335,0.0-15.0-3.0,22611,List2A,white,woman,,,,,"{""Q0"":""kate and mike are hugging each other""}","<img src=""stim_listA/hug4.gif""</stim_listA>",are hugging each other,
null,"<div style=""font-size:60px;"">+</div>",,html-keyboard-response,154,994841,0.0-15.0-0.1,22611,List2A,white,woman,,,,null,,,,
null,"<img src=""stim_listA/shout3.gif""</stim_listA>",,html-keyboard-response,155,996847,0.0-15.0-1.1,22611,List2A,white,woman,,,,null,,,,
null,is shouting at,,html-keyboard-response,156,998849,0.0-15.0-2.1,22611,List2A,white,woman,,,,null,,,,
14503,,,survey-text,157,1013353,0.0-15.0-3.1,22611,List2A,white,woman,,,,,"{""Q0"":""beth is shouting at fred""}","<img src=""stim_listA/shout3.gif""</stim_listA>",is shouting at,
null,"<div style=""font-size:60px;"">+</div>",,html-keyboard-response,158,1013859,0.0-15.0-0.2,22611,List2A,white,woman,,,,null,,,,
null,"<img src=""stim_listA/talk2.gif""</stim_listA>",,html-keyboard-response,159,1015862,0.0-15.0-1.2,22611,List2A,white,woman,,,,null,,,,
null,are talking to each other,,html-keyboard-response,160,1017868,0.0-15.0-2.2,22611,List2A,white,woman,,,,null,,,,
13306,,,survey-text,161,1031176,0.0-15.0-3.2,22611,List2A,white,woman,,,,,"{""Q0"":""dave and ruth are talking to each other""}","<img src=""stim_listA/talk2.gif""</stim_listA>",are talking to each other,
null,"<div style=""font-size:60px;"">+</div>",,html-keyboard-response,162,1031682,0.0-15.0-0.3,22611,List2A,white,woman,,,,null,,,,
null,"<img src=""stim_listA/talk6.gif""</stim_listA>",,html-keyboard-response,163,1033688,0.0-15.0-1.3,22611,List2A,white,woman,,,,null,,,,
null,are talking to each other,,html-keyboard-response,164,1035694,0.0-15.0-2.3,22611,List2A,white,woman,,,,null,,,,
12710,,,survey-text,165,1048405,0.0-15.0-3.3,22611,List2A,white,woman,,,,,"{""Q0"":""dave an fred are talking to each other""}","<img src=""stim_listA/talk6.gif""</stim_listA>",are talking to each other,
null,"<div style=""font-size:60px;"">+</div>",,html-keyboard-response,166,1048911,0.0-15.0-0.4,22611,List2A,white,woman,,,,null,,,,
null,"<img src=""stim_listA/touch2.gif""</stim_listA>",,html-keyboard-response,167,1050918,0.0-15.0-1.4,22611,List2A,white,woman,,,,null,,,,
null,are touching each other,,html-keyboard-response,168,1052921,0.0-15.0-2.4,22611,List2A,white,woman,,,,null,,,,
9312,,,survey-text,169,1062235,0.0-15.0-3.4,22611,List2A,white,woman,,,,,"{""Q0"":""luke and ruth are touching each other""}","<img src=""stim_listA/touch2.gif""</stim_listA>",are touching each other,
null,"<div style=""font-size:60px;"">+</div>",,html-keyboard-response,170,1062742,0.0-15.0-0.5,22611,List2A,white,woman,,,,null,,,,
null,"<img src=""stim_listA/meet3.gif""</stim_listA>",,html-keyboard-response,171,1064746,0.0-15.0-1.5,22611,List2A,white,woman,,,,null,,,,
null,is meeting,,html-keyboard-response,172,1066750,0.0-15.0-2.5,22611,List2A,white,woman,,,,null,,,,
6638,,,survey-text,173,1073390,0.0-15.0-3.5,22611,List2A,white,woman,,,,,"{""Q0"":""kate is meeting mike""}","<img src=""stim_listA/meet3.gif""</stim_listA>",is meeting,
null,"<div style=""font-size:60px;"">+</div>",,html-keyboard-response,174,1073892,0.0-15.0-0.6,22611,List2A,white,woman,,,,null,,,,
null,"<img src=""stim_listA/talk7.gif""</stim_listA>",,html-keyboard-response,175,1075898,0.0-15.0-1.6,22611,List2A,white,woman,,,,null,,,,
null,is talking to,,html-keyboard-response,176,1077902,0.0-15.0-2.6,22611,List2A,white,woman,,,,null,,,,
5855,,,survey-text,177,1083759,0.0-15.0-3.6,22611,List2A,white,woman,,,,,"{""Q0"":""kate is talking to ruth""}","<img src=""stim_listA/talk7.gif""</stim_listA>",is talking to,
null,"<div style=""font-size:60px;"">+</div>",,html-keyboard-response,178,1084265,0.0-15.0-0.7,22611,List2A,white,woman,,,,null,,,,
null,"<img src=""stim_listA/touch5.gif""</stim_listA>",,html-keyboard-response,179,1086271,0.0-15.0-1.7,22611,List2A,white,woman,,,,null,,,,
null,is touching,,html-keyboard-response,180,1088274,0.0-15.0-2.7,22611,List2A,white,woman,,,,null,,,,
8871,,,survey-text,181,1097146,0.0-15.0-3.7,22611,List2A,white,woman,,,,,"{""Q0"":""mike is touching dave""}","<img src=""stim_listA/touch5.gif""</stim_listA>",is touching,
null,"<div style=""font-size:60px;"">+</div>",,html-keyboard-response,182,1097652,0.0-15.0-0.8,22611,List2A,white,woman,,,,null,,,,
null,"<img src=""stim_listA/talk4.gif""</stim_listA>",,html-keyboard-response,183,1099658,0.0-15.0-1.8,22611,List2A,white,woman,,,,null,,,,
null,are talking to each other,,html-keyboard-response,184,1101664,0.0-15.0-2.8,22611,List2A,white,woman,,,,null,,,,
11858,,,survey-text,185,1113524,0.0-15.0-3.8,22611,List2A,white,woman,,,,,"{""Q0"":""mike and beth are talking to each other""}","<img src=""stim_listA/talk4.gif""</stim_listA>",are talking to each other,
null,"<div style=""font-size:60px;"">+</div>",,html-keyboard-response,186,1114030,0.0-15.0-0.9,22611,List2A,white,woman,,,,null,,,,
null,"<img src=""stim_listA/shout1.gif""</stim_listA>",,html-keyboard-response,187,1116036,0.0-15.0-1.9,22611,List2A,white,woman,,,,null,,,,
null,is shouting at,,html-keyboard-response,188,1118042,0.0-15.0-2.9,22611,List2A,white,woman,,,,null,,,,
11106,,,survey-text,189,1129150,0.0-15.0-3.9,22611,List2A,white,woman,,,,,"{""Q0"":""ruth is shouting at luke""}","<img src=""stim_listA/shout1.gif""</stim_listA>",is shouting at,
null,"<div style=""font-size:60px;"">+</div>",,html-keyboard-response,190,1129656,0.0-15.0-0.10,22611,List2A,white,woman,,,,null,,,,
null,"<img src=""stim_listA/touch6.gif""</stim_listA>",,html-keyboard-response,191,1131662,0.0-15.0-1.10,22611,List2A,white,woman,,,,null,,,,
null,are touching each other,,html-keyboard-response,192,1133669,0.0-15.0-2.10,22611,List2A,white,woman,,,,null,,,,
11020,,,survey-text,193,1144689,0.0-15.0-3.10,22611,List2A,white,woman,,,,,"{""Q0"":""luke and fred are touching each other""}","<img src=""stim_listA/touch6.gif""</stim_listA>",are touching each other,
null,"<div style=""font-size:60px;"">+</div>",,html-keyboard-response,194,1145196,0.0-15.0-0.11,22611,List2A,white,woman,,,,null,,,,
null,"<img src=""stim_listA/touch4.gif""</stim_listA>",,html-keyboard-response,195,1147202,0.0-15.0-1.11,22611,List2A,white,woman,,,,null,,,,
null,are touching each other,,html-keyboard-response,196,1149203,0.0-15.0-2.11,22611,List2A,white,woman,,,,null,,,,
11826,,,survey-text,197,1161031,0.0-15.0-3.11,22611,List2A,white,woman,,,,,"{""Q0"":""fred and beth are touching each other""}","<img src=""stim_listA/touch4.gif""</stim_listA>",are touching each other,
null,"<div style=""font-size:60px;"">+</div>",,html-keyboard-response,198,1161535,0.0-15.0-0.12,22611,List2A,white,woman,,,,null,,,,
null,"<img src=""stim_listA/hug8.gif""</stim_listA>",,html-keyboard-response,199,1163541,0.0-15.0-1.12,22611,List2A,white,woman,,,,null,,,,
null,are hugging each other,,html-keyboard-response,200,1165547,0.0-15.0-2.12,22611,List2A,white,woman,,,,null,,,,
12377,,,survey-text,201,1177926,0.0-15.0-3.12,22611,List2A,white,woman,,,,,"{""Q0"":""kate and jane are hugging each other""}","<img src=""stim_listA/hug8.gif""</stim_listA>",are hugging each other,
null,"<div style=""font-size:60px;"">+</div>",,html-keyboard-response,202,1178429,0.0-15.0-0.13,22611,List2A,white,woman,,,,null,,,,
null,"<img src=""stim_listA/dance8.gif""</stim_listA>",,html-keyboard-response,203,1180435,0.0-15.0-1.13,22611,List2A,white,woman,,,,null,,,,
null,are dancing with each other,,html-keyboard-response,204,1182442,0.0-15.0-2.13,22611,List2A,white,woman,,,,null,,,,
10553,,,survey-text,205,1192996,0.0-15.0-3.13,22611,List2A,white,woman,,,,,"{""Q0"":""kate and jane are dancing with each other""}","<img src=""stim_listA/dance8.gif""</stim_listA>",are dancing with each other,
null,"<div style=""font-size:60px;"">+</div>",,html-keyboard-response,206,1193501,0.0-15.0-0.14,22611,List2A,white,woman,,,,null,,,,
null,"<img src=""stim_listA/marry2.gif""</stim_listA>",,html-keyboard-response,207,1195505,0.0-15.0-1.14,22611,List2A,white,woman,,,,null,,,,
null,are marrying each other,,html-keyboard-response,208,1197508,0.0-15.0-2.14,22611,List2A,white,woman,,,,null,,,,
7350,,,survey-text,209,1204860,0.0-15.0-3.14,22611,List2A,white,woman,,,,,"{""Q0"":""jane and luke are marrying each other""}","<img src=""stim_listA/marry2.gif""</stim_listA>",are marrying each other,
null,"<div style=""font-size:60px;"">+</div>",,html-keyboard-response,210,1205366,0.0-15.0-0.15,22611,List2A,white,woman,,,,null,,,,
null,"<img src=""stim_listA/meet8.gif""</stim_listA>",,html-keyboard-response,211,1207372,0.0-15.0-1.15,22611,List2A,white,woman,,,,null,,,,
null,are meeting each other,,html-keyboard-response,212,1209375,0.0-15.0-2.15,22611,List2A,white,woman,,,,null,,,,
10551,,,survey-text,213,1219926,0.0-15.0-3.15,22611,List2A,white,woman,,,,,"{""Q0"":""ruth and beth are meeting each other""}","<img src=""stim_listA/meet8.gif""</stim_listA>",are meeting each other,
null,"<div style=""font-size:60px;"">+</div>",,html-keyboard-response,214,1220432,0.0-15.0-0.16,22611,List2A,white,woman,,,,null,,,,
null,"<img src=""stim_listA/touch8.gif""</stim_listA>",,html-keyboard-response,215,1222434,0.0-15.0-1.16,22611,List2A,white,woman,,,,null,,,,
null,are touching each other,,html-keyboard-response,216,1224435,0.0-15.0-2.16,22611,List2A,white,woman,,,,null,,,,
10850,,,survey-text,217,1235287,0.0-15.0-3.16,22611,List2A,white,woman,,,,,"{""Q0"":""ruth and beth are touching each other""}","<img src=""stim_listA/touch8.gif""</stim_listA>",are touching each other,
null,"<div style=""font-size:60px;"">+</div>",,html-keyboard-response,218,1235793,0.0-15.0-0.17,22611,List2A,white,woman,,,,null,,,,
null,"<img src=""stim_listA/meet2.gif""</stim_listA>",,html-keyboard-response,219,1237795,0.0-15.0-1.17,22611,List2A,white,woman,,,,null,,,,
null,are meeting each other,,html-keyboard-response,220,1239801,0.0-15.0-2.17,22611,List2A,white,woman,,,,null,,,,
11168,,,survey-text,221,1250971,0.0-15.0-3.17,22611,List2A,white,woman,,,,,"{""Q0"":""ruth and luke are meeting each other""}","<img src=""stim_listA/meet2.gif""</stim_listA>",are meeting each other,
null,"<div style=""font-size:60px;"">+</div>",,html-keyboard-response,222,1251477,0.0-15.0-0.18,22611,List2A,white,woman,,,,null,,,,
null,"<img src=""stim_listA/fight1.gif""</stim_listA>",,html-keyboard-response,223,1253484,0.0-15.0-1.18,22611,List2A,white,woman,,,,null,,,,
null,is fighting,,html-keyboard-response,224,1255488,0.0-15.0-2.18,22611,List2A,white,woman,,,,null,,,,
9261,,,survey-text,225,1264751,0.0-15.0-3.18,22611,List2A,white,woman,,,,,"{""Q0"":""dave is fighting jane""}","<img src=""stim_listA/fight1.gif""</stim_listA>",is fighting,
null,"<div style=""font-size:60px;"">+</div>",,html-keyboard-response,226,1265258,0.0-15.0-0.19,22611,List2A,white,woman,,,,null,,,,
null,"<img src=""stim_listA/argue8.gif""</stim_listA>",,html-keyboard-response,227,1267264,0.0-15.0-1.19,22611,List2A,white,woman,,,,null,,,,
null,are arguing with each other,,html-keyboard-response,228,1269266,0.0-15.0-2.19,22611,List2A,white,woman,,,,null,,,,
11087,,,survey-text,229,1280355,0.0-15.0-3.19,22611,List2A,white,woman,,,,,"{""Q0"":""kate and ruth are arguing with each other""}","<img src=""stim_listA/argue8.gif""</stim_listA>",are arguing with each other,
5410,"<img src='img/portrait_matrix_list2.JPG' style='width:900px;height:500px;''></img><p>If you have memorised all the portraits and names and are ready to start, press Continue.</p><p><strong>Please note: Your memory of these faces will be tested 4 times during this experiment.</strong></p>",0,html-button-response,230,1285766,0.0-16.0-0.0,22611,List2A,white,woman,,,,,,,,
5015,"<img src=""portrait/WW1.jpg""style=""width:400px;height:400px;""></img>",1,html-button-response,231,1291785,0.0-16.0-1.0,22611,List2A,white,woman,,TRUE,1,,,,,
null,CORRECT,,html-keyboard-response,232,1293297,0.0-16.0-2.0-0.0,22611,List2A,white,woman,,,,null,,,,
1435,"<img src=""portrait/WM2.jpg""style=""width:400px;height:400px;""></img>",7,html-button-response,233,1294733,0.0-16.0-4.0,22611,List2A,white,woman,,TRUE,7,,,,,
null,CORRECT,,html-keyboard-response,234,1296245,0.0-16.0-5.0-0.0,22611,List2A,white,woman,,,,null,,,,
3085,"<img src=""portrait/WW2.jpg""style=""width:400px;height:400px;""></img>",3,html-button-response,235,1299331,0.0-16.0-7.0,22611,List2A,white,woman,,TRUE,3,,,,,
null,CORRECT,,html-keyboard-response,236,1300843,0.0-16.0-8.0-0.0,22611,List2A,white,woman,,,,null,,,,
2130,"<img src=""portrait/BM2.jpg""style=""width:400px;height:400px;""></img>",5,html-button-response,237,1302975,0.0-16.0-10.0,22611,List2A,white,woman,,TRUE,5,,,,,
null,CORRECT,,html-keyboard-response,238,1304487,0.0-16.0-11.0-0.0,22611,List2A,white,woman,,,,null,,,,
2131,"<img src=""portrait/BW2.jpg""style=""width:400px;height:400px;""></img>",2,html-button-response,239,1306619,0.0-16.0-13.0,22611,List2A,white,woman,,TRUE,2,,,,,
null,CORRECT,,html-keyboard-response,240,1308124,0.0-16.0-14.0-0.0,22611,List2A,white,woman,,,,null,,,,
2640,"<img src=""portrait/BW1.jpg""style=""width:400px;height:400px;""></img>",0,html-button-response,241,1310766,0.0-16.0-16.0,22611,List2A,white,woman,,TRUE,0,,,,,
null,CORRECT,,html-keyboard-response,242,1312275,0.0-16.0-17.0-0.0,22611,List2A,white,woman,,,,null,,,,
3023,"<img src=""portrait/BM1.jpg""style=""width:400px;height:400px;""></img>",4,html-button-response,243,1315300,0.0-16.0-19.0,22611,List2A,white,woman,,TRUE,4,,,,,
null,CORRECT,,html-keyboard-response,244,1316811,0.0-16.0-20.0-0.0,22611,List2A,white,woman,,,,null,,,,
2263,"<img src=""portrait/WM1.jpg""style=""width:400px;height:400px;""></img>",6,html-button-response,245,1319075,0.0-16.0-22.0,22611,List2A,white,woman,,TRUE,6,,,,,
null,CORRECT,,html-keyboard-response,246,1320587,0.0-16.0-23.0-0.0,22611,List2A,white,woman,,,,null,,,,
1615,<p>You got 8 out of 8 right first time. Press Continue.</p>,0,html-button-response,247,1322203,0.0-16.0-25.0,22611,List2A,white,woman,,,,,,,,
null,"<div style=""font-size:60px;"">+</div>",,html-keyboard-response,248,1323715,0.0-17.0-0.0,22611,List2A,white,woman,,,,null,,,,
null,"<img src=""stim_listA/fight5.gif""</stim_listA>",,html-keyboard-response,249,1325721,0.0-17.0-1.0,22611,List2A,white,woman,,,,null,,,,
null,is fighting,,html-keyboard-response,250,1327725,0.0-17.0-2.0,22611,List2A,white,woman,,,,null,,,,
9907,,,survey-text,251,1337634,0.0-17.0-3.0,22611,List2A,white,woman,,,,,"{""Q0"":""dave is fighting mike""}","<img src=""stim_listA/fight5.gif""</stim_listA>",is fighting,
null,"<div style=""font-size:60px;"">+</div>",,html-keyboard-response,252,1338140,0.0-17.0-0.1,22611,List2A,white,woman,,,,null,,,,
null,"<img src=""stim_listA/talk8.gif""</stim_listA>",,html-keyboard-response,253,1340143,0.0-17.0-1.1,22611,List2A,white,woman,,,,null,,,,
null,are talking to each other,,html-keyboard-response,254,1342147,0.0-17.0-2.1,22611,List2A,white,woman,,,,null,,,,
8200,,,survey-text,255,1350348,0.0-17.0-3.1,22611,List2A,white,woman,,,,,"{""Q0"":""jane and beth are talking to each other""}","<img src=""stim_listA/talk8.gif""</stim_listA>",are talking to each other,
null,"<div style=""font-size:60px;"">+</div>",,html-keyboard-response,256,1350855,0.0-17.0-0.2,22611,List2A,white,woman,,,,null,,,,
null,"<img src=""stim_listA/marry3.gif""</stim_listA>",,html-keyboard-response,257,1352861,0.0-17.0-1.2,22611,List2A,white,woman,,,,null,,,,
null,is marrying,,html-keyboard-response,258,1354867,0.0-17.0-2.2,22611,List2A,white,woman,,,,null,,,,
7485,,,survey-text,259,1362354,0.0-17.0-3.2,22611,List2A,white,woman,,,,,"{""Q0"":""beth is marrying mike""}","<img src=""stim_listA/marry3.gif""</stim_listA>",is marrying,
null,"<div style=""font-size:60px;"">+</div>",,html-keyboard-response,260,1362860,0.0-17.0-0.3,22611,List2A,white,woman,,,,null,,,,
null,"<img src=""stim_listA/talk1.gif""</stim_listA>",,html-keyboard-response,261,1364866,0.0-17.0-1.3,22611,List2A,white,woman,,,,null,,,,
null,is talking to,,html-keyboard-response,262,1366872,0.0-17.0-2.3,22611,List2A,white,woman,,,,null,,,,
5180,,,survey-text,263,1372054,0.0-17.0-3.3,22611,List2A,white,woman,,,,,"{""Q0"":""jane is talking to luke""}","<img src=""stim_listA/talk1.gif""</stim_listA>",is talking to,
null,"<div style=""font-size:60px;"">+</div>",,html-keyboard-response,264,1372558,0.0-17.0-0.4,22611,List2A,white,woman,,,,null,,,,
null,"<img src=""stim_listA/marry8.gif""</stim_listA>",,html-keyboard-response,265,1374564,0.0-17.0-1.4,22611,List2A,white,woman,,,,null,,,,
null,are marrying each other,,html-keyboard-response,266,1376565,0.0-17.0-2.4,22611,List2A,white,woman,,,,null,,,,
8292,,,survey-text,267,1384858,0.0-17.0-3.4,22611,List2A,white,woman,,,,,"{""Q0"":""kate and ruth are marrying each other""}","<img src=""stim_listA/marry8.gif""</stim_listA>",are marrying each other,
null,"<div style=""font-size:60px;"">+</div>",,html-keyboard-response,268,1385364,0.0-17.0-0.5,22611,List2A,white,woman,,,,null,,,,
null,"<img src=""stim_listA/hug1.gif""</stim_listA>",,html-keyboard-response,269,1387371,0.0-17.0-1.5,22611,List2A,white,woman,,,,null,,,,
null,is hugging,,html-keyboard-response,270,1389377,0.0-17.0-2.5,22611,List2A,white,woman,,,,null,,,,
7018,,,survey-text,271,1396397,0.0-17.0-3.5,22611,List2A,white,woman,,,,,"{""Q0"":""ruth is hugging luke""}","<img src=""stim_listA/hug1.gif""</stim_listA>",is hugging,
null,"<div style=""font-size:60px;"">+</div>",,html-keyboard-response,272,1396903,0.0-17.0-0.6,22611,List2A,white,woman,,,,null,,,,
null,"<img src=""stim_listA/kiss6.gif""</stim_listA>",,html-keyboard-response,273,1398909,0.0-17.0-1.6,22611,List2A,white,woman,,,,null,,,,
null,are kissing each other,,html-keyboard-response,274,1400915,0.0-17.0-2.6,22611,List2A,white,woman,,,,null,,,,
9487,,,survey-text,275,1410403,0.0-17.0-3.6,22611,List2A,white,woman,,,,,"{""Q0"":""dave and mike are kissing each other""}","<img src=""stim_listA/kiss6.gif""</stim_listA>",are kissing each other,
null,"<div style=""font-size:60px;"">+</div>",,html-keyboard-response,276,1410910,0.0-17.0-0.7,22611,List2A,white,woman,,,,null,,,,
null,"<img src=""stim_listA/fight7.gif""</stim_listA>",,html-keyboard-response,277,1412911,0.0-17.0-1.7,22611,List2A,white,woman,,,,null,,,,
null,is fighting,,html-keyboard-response,278,1414912,0.0-17.0-2.7,22611,List2A,white,woman,,,,null,,,,
8888,,,survey-text,279,1423802,0.0-17.0-3.7,22611,List2A,white,woman,,,,,"{""Q0"":""kate is fighting jane""}","<img src=""stim_listA/fight7.gif""</stim_listA>",is fighting,
null,"<div style=""font-size:60px;"">+</div>",,html-keyboard-response,280,1424308,0.0-17.0-0.8,22611,List2A,white,woman,,,,null,,,,
null,"<img src=""stim_listA/argue2.gif""</stim_listA>",,html-keyboard-response,281,1426310,0.0-17.0-1.8,22611,List2A,white,woman,,,,null,,,,
null,are arguing with each other,,html-keyboard-response,282,1428316,0.0-17.0-2.8,22611,List2A,white,woman,,,,null,,,,
9018,,,survey-text,283,1437336,0.0-17.0-3.8,22611,List2A,white,woman,,,,,"{""Q0"":""jane and luke are arguing with each other""}","<img src=""stim_listA/argue2.gif""</stim_listA>",are arguing with each other,
null,"<div style=""font-size:60px;"">+</div>",,html-keyboard-response,284,1437842,0.0-17.0-0.9,22611,List2A,white,woman,,,,null,,,,
null,"<img src=""stim_listA/argue1.gif""</stim_listA>",,html-keyboard-response,285,1439848,0.0-17.0-1.9,22611,List2A,white,woman,,,,null,,,,
null,is arguing with,,html-keyboard-response,286,1441850,0.0-17.0-2.9,22611,List2A,white,woman,,,,null,,,,
6063,,,survey-text,287,1447913,0.0-17.0-3.9,22611,List2A,white,woman,,,,,"{""Q0"":""dave is arguing with ruth""}","<img src=""stim_listA/argue1.gif""</stim_listA>",is arguing with,
null,"<div style=""font-size:60px;"">+</div>",,html-keyboard-response,288,1448415,0.0-17.0-0.10,22611,List2A,white,woman,,,,null,,,,
null,"<img src=""stim_listA/argue3.gif""</stim_listA>",,html-keyboard-response,289,1450417,0.0-17.0-1.10,22611,List2A,white,woman,,,,null,,,,
null,is arguing with,,html-keyboard-response,290,1452418,0.0-17.0-2.10,22611,List2A,white,woman,,,,null,,,,
7317,,,survey-text,291,1459736,0.0-17.0-3.10,22611,List2A,white,woman,,,,,"{""Q0"":""mike is arguing with beth""}","<img src=""stim_listA/argue3.gif""</stim_listA>",is arguing with,
null,"<div style=""font-size:60px;"">+</div>",,html-keyboard-response,292,1460243,0.0-17.0-0.11,22611,List2A,white,woman,,,,null,,,,
null,"<img src=""stim_listA/dance7.gif""</stim_listA>",,html-keyboard-response,293,1462249,0.0-17.0-1.11,22611,List2A,white,woman,,,,null,,,,
null,is dancing with,,html-keyboard-response,294,1464251,0.0-17.0-2.11,22611,List2A,white,woman,,,,null,,,,
6227,,,survey-text,295,1470478,0.0-17.0-3.11,22611,List2A,white,woman,,,,,"{""Q0"":""ruth is dancing with kate""}","<img src=""stim_listA/dance7.gif""</stim_listA>",is dancing with,
null,"<div style=""font-size:60px;"">+</div>",,html-keyboard-response,296,1470984,0.0-17.0-0.12,22611,List2A,white,woman,,,,null,,,,
null,"<img src=""stim_listA/meet4.gif""</stim_listA>",,html-keyboard-response,297,1472991,0.0-17.0-1.12,22611,List2A,white,woman,,,,null,,,,
null,are meeting each other,,html-keyboard-response,298,1474994,0.0-17.0-2.12,22611,List2A,white,woman,,,,null,,,,
6822,,,survey-text,299,1481817,0.0-17.0-3.12,22611,List2A,white,woman,,,,,"{""Q0"":""beth and fred are meeting each other""}","<img src=""stim_listA/meet4.gif""</stim_listA>",are meeting each other,
null,"<div style=""font-size:60px;"">+</div>",,html-keyboard-response,300,1482322,0.0-17.0-0.13,22611,List2A,white,woman,,,,null,,,,
null,"<img src=""stim_listA/meet5.gif""</stim_listA>",,html-keyboard-response,301,1484328,0.0-17.0-1.13,22611,List2A,white,woman,,,,null,,,,
null,is meeting,,html-keyboard-response,302,1486331,0.0-17.0-2.13,22611,List2A,white,woman,,,,null,,,,
6938,,,survey-text,303,1493270,0.0-17.0-3.13,22611,List2A,white,woman,,,,,"{""Q0"":""dave is meeting mike""}","<img src=""stim_listA/meet5.gif""</stim_listA>",is meeting,
null,"<div style=""font-size:60px;"">+</div>",,html-keyboard-response,304,1493776,0.0-17.0-0.14,22611,List2A,white,woman,,,,null,,,,
null,"<img src=""stim_listA/shout7.gif""</stim_listA>",,html-keyboard-response,305,1495783,0.0-17.0-1.14,22611,List2A,white,woman,,,,null,,,,
null,is shouting at,,html-keyboard-response,306,1497789,0.0-17.0-2.14,22611,List2A,white,woman,,,,null,,,,
5884,,,survey-text,307,1503674,0.0-17.0-3.14,22611,List2A,white,woman,,,,,"{""Q0"":""beth is shouting at ruth""}","<img src=""stim_listA/shout7.gif""</stim_listA>",is shouting at,
null,"<div style=""font-size:60px;"">+</div>",,html-keyboard-response,308,1504180,0.0-17.0-0.15,22611,List2A,white,woman,,,,null,,,,
null,"<img src=""stim_listA/marry7.gif""</stim_listA>",,html-keyboard-response,309,1506186,0.0-17.0-1.15,22611,List2A,white,woman,,,,null,,,,
null,is marrying,,html-keyboard-response,310,1508187,0.0-17.0-2.15,22611,List2A,white,woman,,,,null,,,,
5754,,,survey-text,311,1513942,0.0-17.0-3.15,22611,List2A,white,woman,,,,,"{""Q0"":""jane is marrying beth""}","<img src=""stim_listA/marry7.gif""</stim_listA>",is marrying,
null,"<div style=""font-size:60px;"">+</div>",,html-keyboard-response,312,1514449,0.0-17.0-0.16,22611,List2A,white,woman,,,,null,,,,
null,"<img src=""stim_listA/hug2.gif""</stim_listA>",,html-keyboard-response,313,1516455,0.0-17.0-1.16,22611,List2A,white,woman,,,,null,,,,
null,are hugging each other,,html-keyboard-response,314,1518459,0.0-17.0-2.16,22611,List2A,white,woman,,,,null,,,,
7566,,,survey-text,315,1526027,0.0-17.0-3.16,22611,List2A,white,woman,,,,,"{""Q0"":""jane and dave are hugging each other""}","<img src=""stim_listA/hug2.gif""</stim_listA>",are hugging each other,
null,"<div style=""font-size:60px;"">+</div>",,html-keyboard-response,316,1526533,0.0-17.0-0.17,22611,List2A,white,woman,,,,null,,,,
null,"<img src=""stim_listA/fight8.gif""</stim_listA>",,html-keyboard-response,317,1528537,0.0-17.0-1.17,22611,List2A,white,woman,,,,null,,,,
null,are fighting each other,,html-keyboard-response,318,1530543,0.0-17.0-2.17,22611,List2A,white,woman,,,,null,,,,
8820,,,survey-text,319,1539365,0.0-17.0-3.17,22611,List2A,white,woman,,,,,"{""Q0"":""beth and ruth are fighting each other""}","<img src=""stim_listA/fight8.gif""</stim_listA>",are fighting each other,
null,"<div style=""font-size:60px;"">+</div>",,html-keyboard-response,320,1539871,0.0-17.0-0.18,22611,List2A,white,woman,,,,null,,,,
null,"<img src=""stim_listA/shout5.gif""</stim_listA>",,html-keyboard-response,321,1541873,0.0-17.0-1.18,22611,List2A,white,woman,,,,null,,,,
null,is shouting at,,html-keyboard-response,322,1543875,0.0-17.0-2.18,22611,List2A,white,woman,,,,null,,,,
5231,,,survey-text,323,1549106,0.0-17.0-3.18,22611,List2A,white,woman,,,,,"{""Q0"":""luke is shouting at fred""}","<img src=""stim_listA/shout5.gif""</stim_listA>",is shouting at,
null,"<div style=""font-size:60px;"">+</div>",,html-keyboard-response,324,1549612,0.0-17.0-0.19,22611,List2A,white,woman,,,,null,,,,
null,"<img src=""stim_listA/hug7.gif""</stim_listA>",,html-keyboard-response,325,1551619,0.0-17.0-1.19,22611,List2A,white,woman,,,,null,,,,
null,is hugging,,html-keyboard-response,326,1553620,0.0-17.0-2.19,22611,List2A,white,woman,,,,null,,,,
6874,,,survey-text,327,1560494,0.0-17.0-3.19,22611,List2A,white,woman,,,,,"{""Q0"":""beth is hugging ruth""}","<img src=""stim_listA/hug7.gif""</stim_listA>",is hugging,
3057,"<img src='img/portrait_matrix_list2.JPG' style='width:900px;height:500px;''></img><p>If you have memorised all the portraits and names and are ready to start, press Continue.</p><p><strong>Please note: Your memory of these faces will be tested 4 times during this experiment.</strong></p>",0,html-button-response,328,1563553,0.0-18.0-0.0,22611,List2A,white,woman,,,,,,,,
2870,"<img src=""portrait/BW1.jpg""style=""width:400px;height:400px;""></img>",0,html-button-response,329,1567430,0.0-18.0-1.0,22611,List2A,white,woman,,TRUE,0,,,,,
null,CORRECT,,html-keyboard-response,330,1568941,0.0-18.0-2.0-0.0,22611,List2A,white,woman,,,,null,,,,
1491,"<img src=""portrait/WM1.jpg""style=""width:400px;height:400px;""></img>",6,html-button-response,331,1570434,0.0-18.0-4.0,22611,List2A,white,woman,,TRUE,6,,,,,
null,CORRECT,,html-keyboard-response,332,1571943,0.0-18.0-5.0-0.0,22611,List2A,white,woman,,,,null,,,,
1503,"<img src=""portrait/BM1.jpg""style=""width:400px;height:400px;""></img>",4,html-button-response,333,1573448,0.0-18.0-7.0,22611,List2A,white,woman,,TRUE,4,,,,,
null,CORRECT,,html-keyboard-response,334,1574960,0.0-18.0-8.0-0.0,22611,List2A,white,woman,,,,null,,,,
2666,"<img src=""portrait/WW1.jpg""style=""width:400px;height:400px;""></img>",1,html-button-response,335,1577627,0.0-18.0-10.0,22611,List2A,white,woman,,TRUE,1,,,,,
null,CORRECT,,html-keyboard-response,336,1579139,0.0-18.0-11.0-0.0,22611,List2A,white,woman,,,,null,,,,
2166,"<img src=""portrait/BW2.jpg""style=""width:400px;height:400px;""></img>",2,html-button-response,337,1581307,0.0-18.0-13.0,22611,List2A,white,woman,,TRUE,2,,,,,
null,CORRECT,,html-keyboard-response,338,1582819,0.0-18.0-14.0-0.0,22611,List2A,white,woman,,,,null,,,,
1269,"<img src=""portrait/WM2.jpg""style=""width:400px;height:400px;""></img>",7,html-button-response,339,1584089,0.0-18.0-16.0,22611,List2A,white,woman,,TRUE,7,,,,,
null,CORRECT,,html-keyboard-response,340,1585600,0.0-18.0-17.0-0.0,22611,List2A,white,woman,,,,null,,,,
1649,"<img src=""portrait/BM2.jpg""style=""width:400px;height:400px;""></img>",5,html-button-response,341,1587251,0.0-18.0-19.0,22611,List2A,white,woman,,TRUE,5,,,,,
null,CORRECT,,html-keyboard-response,342,1588763,0.0-18.0-20.0-0.0,22611,List2A,white,woman,,,,null,,,,
2187,"<img src=""portrait/WW2.jpg""style=""width:400px;height:400px;""></img>",3,html-button-response,343,1590952,0.0-18.0-22.0,22611,List2A,white,woman,,TRUE,3,,,,,
null,CORRECT,,html-keyboard-response,344,1592463,0.0-18.0-23.0-0.0,22611,List2A,white,woman,,,,null,,,,
1480,<p>You got 8 out of 8 right first time. Press Continue.</p>,0,html-button-response,345,1593944,0.0-18.0-25.0,22611,List2A,white,woman,,,,,,,,
null,"<div style=""font-size:60px;"">+</div>",,html-keyboard-response,346,1595456,0.0-19.0-0.0,22611,List2A,white,woman,,,,null,,,,
null,"<img src=""stim_listA/hug6.gif""</stim_listA>",,html-keyboard-response,347,1597460,0.0-19.0-1.0,22611,List2A,white,woman,,,,null,,,,
null,are hugging each other,,html-keyboard-response,348,1599466,0.0-19.0-2.0,22611,List2A,white,woman,,,,null,,,,
10579,,,survey-text,349,1610047,0.0-19.0-3.0,22611,List2A,white,woman,,,,,"{""Q0"":""dave and mike are hugging each other""}","<img src=""stim_listA/hug6.gif""</stim_listA>",are hugging each other,
null,"<div style=""font-size:60px;"">+</div>",,html-keyboard-response,350,1610552,0.0-19.0-0.1,22611,List2A,white,woman,,,,null,,,,
null,"<img src=""stim_listA/touch7.gif""</stim_listA>",,html-keyboard-response,351,1612558,0.0-19.0-1.1,22611,List2A,white,woman,,,,null,,,,
null,is touching,,html-keyboard-response,352,1614564,0.0-19.0-2.1,22611,List2A,white,woman,,,,null,,,,
5662,,,survey-text,353,1620228,0.0-19.0-3.1,22611,List2A,white,woman,,,,,"{""Q0"":""kate is touching jane""}","<img src=""stim_listA/touch7.gif""</stim_listA>",is touching,
null,"<div style=""font-size:60px;"">+</div>",,html-keyboard-response,354,1620734,0.0-19.0-0.2,22611,List2A,white,woman,,,,null,,,,
null,"<img src=""stim_listA/talk3.gif""</stim_listA>",,html-keyboard-response,355,1622740,0.0-19.0-1.2,22611,List2A,white,woman,,,,null,,,,
null,is talking to,,html-keyboard-response,356,1624744,0.0-19.0-2.2,22611,List2A,white,woman,,,,null,,,,
6914,,,survey-text,357,1631660,0.0-19.0-3.2,22611,List2A,white,woman,,,,,"{""Q0"":""fred is talking to kate""}","<img src=""stim_listA/talk3.gif""</stim_listA>",is talking to,
null,"<div style=""font-size:60px;"">+</div>",,html-keyboard-response,358,1632166,0.0-19.0-0.3,22611,List2A,white,woman,,,,null,,,,
null,"<img src=""stim_listA/kiss8.gif""</stim_listA>",,html-keyboard-response,359,1634173,0.0-19.0-1.3,22611,List2A,white,woman,,,,null,,,,
null,are kissing each other,,html-keyboard-response,360,1636174,0.0-19.0-2.3,22611,List2A,white,woman,,,,null,,,,
12548,,,survey-text,361,1648722,0.0-19.0-3.3,22611,List2A,white,woman,,,,,"{""Q0"":""kate and jane are kissing each other""}","<img src=""stim_listA/kiss8.gif""</stim_listA>",are kissing each other,
null,"<div style=""font-size:60px;"">+</div>",,html-keyboard-response,362,1649225,0.0-19.0-0.4,22611,List2A,white,woman,,,,null,,,,
null,"<img src=""stim_listA/kiss5.gif""</stim_listA>",,html-keyboard-response,363,1651228,0.0-19.0-1.4,22611,List2A,white,woman,,,,null,,,,
null,is kissing,,html-keyboard-response,364,1653234,0.0-19.0-2.4,22611,List2A,white,woman,,,,null,,,,
5117,,,survey-text,365,1658352,0.0-19.0-3.4,22611,List2A,white,woman,,,,,"{""Q0"":""luke is kissing fred""}","<img src=""stim_listA/kiss5.gif""</stim_listA>",is kissing,
null,"<div style=""font-size:60px;"">+</div>",,html-keyboard-response,366,1658858,0.0-19.0-0.5,22611,List2A,white,woman,,,,null,,,,
null,"<img src=""stim_listA/kiss4.gif""</stim_listA>",,html-keyboard-response,367,1660865,0.0-19.0-1.5,22611,List2A,white,woman,,,,null,,,,
null,are kissing each other,,html-keyboard-response,368,1662867,0.0-19.0-2.5,22611,List2A,white,woman,,,,null,,,,
16715,,,survey-text,369,1679583,0.0-19.0-3.5,22611,List2A,white,woman,,,,,"{""Q0"":""kate and mike are kissing each other""}","<img src=""stim_listA/kiss4.gif""</stim_listA>",are kissing each other,
null,"<div style=""font-size:60px;"">+</div>",,html-keyboard-response,370,1680089,0.0-19.0-0.6,22611,List2A,white,woman,,,,null,,,,
null,"<img src=""stim_listA/dance2.gif""</stim_listA>",,html-keyboard-response,371,1682095,0.0-19.0-1.6,22611,List2A,white,woman,,,,null,,,,
null,are dancing with each other,,html-keyboard-response,372,1684096,0.0-19.0-2.6,22611,List2A,white,woman,,,,null,,,,
11237,,,survey-text,373,1695334,0.0-19.0-3.6,22611,List2A,white,woman,,,,,"{""Q0"":""ruth and dave are dancing with each other""}","<img src=""stim_listA/dance2.gif""</stim_listA>",are dancing with each other,
null,"<div style=""font-size:60px;"">+</div>",,html-keyboard-response,374,1695837,0.0-19.0-0.7,22611,List2A,white,woman,,,,null,,,,
null,"<img src=""stim_listA/kiss2.gif""</stim_listA>",,html-keyboard-response,375,1697844,0.0-19.0-1.7,22611,List2A,white,woman,,,,null,,,,
null,are kissing each other,,html-keyboard-response,376,1699845,0.0-19.0-2.7,22611,List2A,white,woman,,,,null,,,,
11762,,,survey-text,377,1711608,0.0-19.0-3.7,22611,List2A,white,woman,,,,,"{""Q0"":""jane and dave are kissing each other""}","<img src=""stim_listA/kiss2.gif""</stim_listA>",are kissing each other,
null,"<div style=""font-size:60px;"">+</div>",,html-keyboard-response,378,1712111,0.0-19.0-0.8,22611,List2A,white,woman,,,,null,,,,
null,"<img src=""stim_listA/argue5.gif""</stim_listA>",,html-keyboard-response,379,1714117,0.0-19.0-1.8,22611,List2A,white,woman,,,,null,,,,
null,is arguing with,,html-keyboard-response,380,1716119,0.0-19.0-2.8,22611,List2A,white,woman,,,,null,,,,
6508,,,survey-text,381,1722629,0.0-19.0-3.8,22611,List2A,white,woman,,,,,"{""Q0"":""dave is arguing with fred""}","<img src=""stim_listA/argue5.gif""</stim_listA>",is arguing with,
null,"<div style=""font-size:60px;"">+</div>",,html-keyboard-response,382,1723136,0.0-19.0-0.9,22611,List2A,white,woman,,,,null,,,,
null,"<img src=""stim_listA/talk5.gif""</stim_listA>",,html-keyboard-response,383,1725142,0.0-19.0-1.9,22611,List2A,white,woman,,,,null,,,,
null,is talking to,,html-keyboard-response,384,1727145,0.0-19.0-2.9,22611,List2A,white,woman,,,,null,,,,
5904,,,survey-text,385,1733050,0.0-19.0-3.9,22611,List2A,white,woman,,,,,"{""Q0"":""luke is talking to mike""}","<img src=""stim_listA/talk5.gif""</stim_listA>",is talking to,
null,"<div style=""font-size:60px;"">+</div>",,html-keyboard-response,386,1733556,0.0-19.0-0.10,22611,List2A,white,woman,,,,null,,,,
null,"<img src=""stim_listA/marry1.gif""</stim_listA>",,html-keyboard-response,387,1735563,0.0-19.0-1.10,22611,List2A,white,woman,,,,null,,,,
null,is marrying,,html-keyboard-response,388,1737565,0.0-19.0-2.10,22611,List2A,white,woman,,,,null,,,,
6172,,,survey-text,389,1743738,0.0-19.0-3.10,22611,List2A,white,woman,,,,,"{""Q0"":""dave is marrying ruth""}","<img src=""stim_listA/marry1.gif""</stim_listA>",is marrying,
null,"<div style=""font-size:60px;"">+</div>",,html-keyboard-response,390,1744243,0.0-19.0-0.11,22611,List2A,white,woman,,,,null,,,,
null,"<img src=""stim_listA/dance4.gif""</stim_listA>",,html-keyboard-response,391,1746250,0.0-19.0-1.11,22611,List2A,white,woman,,,,null,,,,
null,are dancing with each other,,html-keyboard-response,392,1748251,0.0-19.0-2.11,22611,List2A,white,woman,,,,null,,,,
11227,,,survey-text,393,1759480,0.0-19.0-3.11,22611,List2A,white,woman,,,,,"{""Q0"":""beth and mike are dancing with each other""}","<img src=""stim_listA/dance4.gif""</stim_listA>",are dancing with each other,
null,"<div style=""font-size:60px;"">+</div>",,html-keyboard-response,394,1759986,0.0-19.0-0.12,22611,List2A,white,woman,,,,null,,,,
null,"<img src=""stim_listA/hug5.gif""</stim_listA>",,html-keyboard-response,395,1761991,0.0-19.0-1.12,22611,List2A,white,woman,,,,null,,,,
null,is hugging,,html-keyboard-response,396,1763992,0.0-19.0-2.12,22611,List2A,white,woman,,,,null,,,,
4637,,,survey-text,397,1768631,0.0-19.0-3.12,22611,List2A,white,woman,,,,,"{""Q0"":""luke is hugging fred""}","<img src=""stim_listA/hug5.gif""</stim_listA>",is hugging,
null,"<div style=""font-size:60px;"">+</div>",,html-keyboard-response,398,1769137,0.0-19.0-0.13,22611,List2A,white,woman,,,,null,,,,
null,"<img src=""stim_listA/marry4.gif""</stim_listA>",,html-keyboard-response,399,1771142,0.0-19.0-1.13,22611,List2A,white,woman,,,,null,,,,
null,are marrying each other,,html-keyboard-response,400,1773143,0.0-19.0-2.13,22611,List2A,white,woman,,,,null,,,,
6817,,,survey-text,401,1779962,0.0-19.0-3.13,22611,List2A,white,woman,,,,,"{""Q0"":""kate and fred are marrying each other""}","<img src=""stim_listA/marry4.gif""</stim_listA>",are marrying each other,
null,"<div style=""font-size:60px;"">+</div>",,html-keyboard-response,402,1780468,0.0-19.0-0.14,22611,List2A,white,woman,,,,null,,,,
null,"<img src=""stim_listA/dance5.gif""</stim_listA>",,html-keyboard-response,403,1782474,0.0-19.0-1.14,22611,List2A,white,woman,,,,null,,,,
null,is dancing with,,html-keyboard-response,404,1784477,0.0-19.0-2.14,22611,List2A,white,woman,,,,null,,,,
5704,,,survey-text,405,1790181,0.0-19.0-3.14,22611,List2A,white,woman,,,,,"{""Q0"":""luke is dancing with mike""}","<img src=""stim_listA/dance5.gif""</stim_listA>",is dancing with,
null,"<div style=""font-size:60px;"">+</div>",,html-keyboard-response,406,1790687,0.0-19.0-0.15,22611,List2A,white,woman,,,,null,,,,
null,"<img src=""stim_listA/touch3.gif""</stim_listA>",,html-keyboard-response,407,1792694,0.0-19.0-1.15,22611,List2A,white,woman,,,,null,,,,
null,is touching,,html-keyboard-response,408,1794697,0.0-19.0-2.15,22611,List2A,white,woman,,,,null,,,,
6752,,,survey-text,409,1801449,0.0-19.0-3.15,22611,List2A,white,woman,,,,,"{""Q0"":""mike is touching kate""}","<img src=""stim_listA/touch3.gif""</stim_listA>",is touching,
null,"<div style=""font-size:60px;"">+</div>",,html-keyboard-response,410,1801955,0.0-19.0-0.16,22611,List2A,white,woman,,,,null,,,,
null,"<img src=""stim_listA/shout8.gif""</stim_listA>",,html-keyboard-response,411,1803961,0.0-19.0-1.16,22611,List2A,white,woman,,,,null,,,,
null,are shouting at each other,,html-keyboard-response,412,1805962,0.0-19.0-2.16,22611,List2A,white,woman,,,,null,,,,
6520,,,survey-text,413,1812484,0.0-19.0-3.16,22611,List2A,white,woman,,,,,"{""Q0"":""kate and jane are shouting at each other""}","<img src=""stim_listA/shout8.gif""</stim_listA>",are shouting at each other,
null,"<div style=""font-size:60px;"">+</div>",,html-keyboard-response,414,1812987,0.0-19.0-0.17,22611,List2A,white,woman,,,,null,,,,
null,"<img src=""stim_listA/shout6.gif""</stim_listA>",,html-keyboard-response,415,1814993,0.0-19.0-1.17,22611,List2A,white,woman,,,,null,,,,
null,are shouting at each other,,html-keyboard-response,416,1816995,0.0-19.0-2.17,22611,List2A,white,woman,,,,null,,,,
10467,,,survey-text,417,1827463,0.0-19.0-3.17,22611,List2A,white,woman,,,,,"{""Q0"":""mike and dave are shouting at each other""}","<img src=""stim_listA/shout6.gif""</stim_listA>",are shouting at each other,
null,"<div style=""font-size:60px;"">+</div>",,html-keyboard-response,418,1827969,0.0-19.0-0.18,22611,List2A,white,woman,,,,null,,,,
null,"<img src=""stim_listA/argue7.gif""</stim_listA>",,html-keyboard-response,419,1829976,0.0-19.0-1.18,22611,List2A,white,woman,,,,null,,,,
null,is arguing with,,html-keyboard-response,420,1831978,0.0-19.0-2.18,22611,List2A,white,woman,,,,null,,,,
7964,,,survey-text,421,1839942,0.0-19.0-3.18,22611,List2A,white,woman,,,,,"{""Q0"":""jane is arguing with beth""}","<img src=""stim_listA/argue7.gif""</stim_listA>",is arguing with,
null,"<div style=""font-size:60px;"">+</div>",,html-keyboard-response,422,1840449,0.0-19.0-0.19,22611,List2A,white,woman,,,,null,,,,
null,"<img src=""stim_listA/fight3.gif""</stim_listA>",,html-keyboard-response,423,1842455,0.0-19.0-1.19,22611,List2A,white,woman,,,,null,,,,
null,is fighting,,html-keyboard-response,424,1844462,0.0-19.0-2.19,22611,List2A,white,woman,,,,null,,,,
11692,,,survey-text,425,1856155,0.0-19.0-3.19,22611,List2A,white,woman,,,,,"{""Q0"":""mike is fighting with kate""}","<img src=""stim_listA/fight3.gif""</stim_listA>",is fighting,
2686,<p>Thank you for completing that task.</p><p>The final part of this session is a short questionnaire.</p><p>Press Continue.</p>,0,html-button-response,426,1858842,0.0-20.0,22611,List2A,white,woman,,,,,,,,
24348,,,survey-text,427,1884196,0.0-21.0,22611,List2A,white,woman,,,,,"{""Q0"":""21"",""Q1"":""english"",""Q2"":""english"",""Q3"":""england"",""Q4"":""white british"",""Q5"":""female""}",,,demographics
43789,,,survey-likert,428,1927990,0.0-22.0,22611,List2A,white,woman,,,,,"{""Q0"":4,""Q1"":4,""Q2"":3,""Q3"":4,""Q4"":4,""Q5"":3,""Q6"":3,""Q7"":2,""Q8"":3,""Q9"":3,""Q10"":4,""Q11"":4,""Q12"":3,""Q13"":3}",,,likert_race
37553,,,survey-likert,429,1965547,0.0-23.0,22611,List2A,white,woman,,,,,"{""Q0"":4,""Q1"":4,""Q2"":4,""Q3"":4,""Q4"":4,""Q5"":3,""Q6"":4,""Q7"":3,""Q8"":4,""Q9"":3,""Q10"":3,""Q11"":3,""Q12"":3,""Q13"":3}",,,likert_gender
9382,,,survey-text,430,1974931,0.0-24.0,22611,List2A,white,woman,,,,,"{""Q0"":""ccc""}",,,worker_id
24385,,,external-html,431,1999438,0.0-25.0,22611,List2A,white,woman,debrief.html,,,,,,,
