rt,stimulus,button_pressed,trial_type,trial_index,time_elapsed,internal_node_id,subject,list,ppt_race,ppt_gender,url,first_guess,correct,key_press,responses,image_type,phrase_type,test_part
5654,Welcome to the experiment. Press Continue to begin.,0,html-button-response,0,5659,0.0-0.0,23493,List2B,white,man,,,,,,,,
82173,,,external-html,1,89425,0.0-1.0,23493,List2B,white,man,consent.html,,,,,,,
16019,"<p>On the next page, you will see portraits of 8 people and their names.</p><p>Your first task is to take a few minutes to memorise the names of these people.</p><p>You will have to recall their names during the rest of the experiment, so it is</p><p>essential that you try to memorise these people and their names as best as you can.</p><br><p><strong>You will then be tested on your memory of these names and portraits.</strong></p><br><p>The experiment will start after you have completed this memory test.</p><br><p>Ready?</p>",0,html-button-response,2,105446,0.0-2.0,23493,List2B,white,man,,,,,,,,
135594,"<img src='img/portrait_matrix_list2.JPG' style='width:900px;height:500px;''></img><p>If you have memorised all the portraits and names and are ready to start, press Continue.</p><p><strong>Please note: Your memory of these faces will be tested 4 times during this experiment.</strong></p>",0,html-button-response,3,242042,0.0-3.0-0.0,23493,List2B,white,man,,,,,,,,
3133,"<img src=""portrait/WM2.jpg""style=""width:400px;height:400px;""></img>",7,html-button-response,4,246179,0.0-3.0-1.0,23493,List2B,white,man,,TRUE,7,,,,,
null,CORRECT,,html-keyboard-response,5,247683,0.0-3.0-2.0-0.0,23493,List2B,white,man,,,,null,,,,
3950,"<img src=""portrait/BM2.jpg""style=""width:400px;height:400px;""></img>",5,html-button-response,6,251636,0.0-3.0-4.0,23493,List2B,white,man,,TRUE,5,,,,,
null,CORRECT,,html-keyboard-response,7,253139,0.0-3.0-5.0-0.0,23493,List2B,white,man,,,,null,,,,
8767,"<img src=""portrait/BW1.jpg""style=""width:400px;height:400px;""></img>",0,html-button-response,8,261908,0.0-3.0-7.0,23493,List2B,white,man,,TRUE,0,,,,,
null,CORRECT,,html-keyboard-response,9,263410,0.0-3.0-8.0-0.0,23493,List2B,white,man,,,,null,,,,
4119,"<img src=""portrait/WM1.jpg""style=""width:400px;height:400px;""></img>",6,html-button-response,10,267530,0.0-3.0-10.0,23493,List2B,white,man,,TRUE,6,,,,,
null,CORRECT,,html-keyboard-response,11,269032,0.0-3.0-11.0-0.0,23493,List2B,white,man,,,,null,,,,
12992,"<img src=""portrait/BW2.jpg""style=""width:400px;height:400px;""></img>",2,html-button-response,12,282025,0.0-3.0-13.0,23493,List2B,white,man,,TRUE,2,,,,,
null,CORRECT,,html-keyboard-response,13,283530,0.0-3.0-14.0-0.0,23493,List2B,white,man,,,,null,,,,
4912,"<img src=""portrait/BM1.jpg""style=""width:400px;height:400px;""></img>",4,html-button-response,14,288444,0.0-3.0-16.0,23493,List2B,white,man,,TRUE,4,,,,,
null,CORRECT,,html-keyboard-response,15,289946,0.0-3.0-17.0-0.0,23493,List2B,white,man,,,,null,,,,
2841,"<img src=""portrait/WW2.jpg""style=""width:400px;height:400px;""></img>",3,html-button-response,16,292789,0.0-3.0-19.0,23493,List2B,white,man,,TRUE,3,,,,,
null,CORRECT,,html-keyboard-response,17,294290,0.0-3.0-20.0-0.0,23493,List2B,white,man,,,,null,,,,
4400,"<img src=""portrait/WW1.jpg""style=""width:400px;height:400px;""></img>",1,html-button-response,18,298692,0.0-3.0-22.0,23493,List2B,white,man,,TRUE,1,,,,,
null,CORRECT,,html-keyboard-response,19,300195,0.0-3.0-23.0-0.0,23493,List2B,white,man,,,,null,,,,
2598,<p>You got 8 out of 8 right first time. Press Continue.</p>,0,html-button-response,20,302795,0.0-3.0-25.0,23493,List2B,white,man,,,,,,,,
43569,"<p>In this experiment, you will view photographs of the people from the memory game interacting.</p><p>By using the <strong>exact</strong> phrase given <i>after</i> the photograph appears and recalling the correct names of the people in the photographs, form a sentence describing the interaction. You do not need to capitalise names.</p><p>Type your answer in the space provided. Please complete every sentence before moving onto the next trial.</p><p>You will only have a few seconds to memorise each given photograph and phrase before you can respond, so try your best to focus.</p><p>An example is given below. Press 'Continue' when you are ready.</p><img src='img/speaking_example_v2.jpg' style='width:800px;height:460px;''></img>",0,html-button-response,21,347381,0.0-4.0,23493,List2B,white,man,,,,,,,,
2152,"<p>Before the experiment starts, you will watch two example trials. Press 'Continue'.</p>",0,html-button-response,22,350535,0.0-5.0,23493,List2B,white,man,,,,,,,,
null,<img src='img/speaking_WW.gif'></img>,,html-keyboard-response,23,353538,0.0-6.0,23493,List2B,white,man,,,,null,,,,
null,<p>is speaking to</p>,,html-keyboard-response,24,355540,0.0-7.0,23493,List2B,white,man,,,,null,,,,
9081,<p><b>Answer:</b> jane is speaking to ruth</p>,0,html-button-response,25,364622,0.0-8.0,23493,List2B,white,man,,,,,,,,
null,<img src='img/pointing_BM.gif'></img>,,html-keyboard-response,26,367625,0.0-9.0,23493,List2B,white,man,,,,null,,,,
null,<p>are pointing at each other</p>,,html-keyboard-response,27,369627,0.0-10.0,23493,List2B,white,man,,,,null,,,,
4705,<p><b>Answer:</b> fred and mike are pointing at each other</p>,0,html-button-response,28,374333,0.0-11.0,23493,List2B,white,man,,,,,,,,
4893,"<p>Ready to start the experiment?</p><br><p><strong>Remember to describe the picture using a full sentence,</strong></p><p><strong> that combines the names of the people with the given phrase.</strong></p><p><strong> You do not need to capitalise names or use punctuation.</strong></p><br><p>Press 'Continue' to begin.</p>",0,html-button-response,29,380228,0.0-12.0,23493,List2B,white,man,,,,,,,,
null,"<div style=""font-size:60px;"">+</div>",,html-keyboard-response,30,381730,0.0-13.0-0.0,23493,List2B,white,man,,,,null,,,,
null,"<img src=""stim_listB/dance4.gif""</stim_listB>",,html-keyboard-response,31,383732,0.0-13.0-1.0,23493,List2B,white,man,,,,null,,,,
null,are dancing with each other,,html-keyboard-response,32,385733,0.0-13.0-2.0,23493,List2B,white,man,,,,null,,,,
19044,,,survey-text,33,404779,0.0-13.0-3.0,23493,List2B,white,man,,,,,"{""Q0"":""mike and beth are dancing with each other""}","<img src=""stim_listB/dance4.gif""</stim_listB>",are dancing with each other,
null,"<div style=""font-size:60px;"">+</div>",,html-keyboard-response,34,405281,0.0-13.0-0.1,23493,List2B,white,man,,,,null,,,,
null,"<img src=""stim_listB/shout8.gif""</stim_listB>",,html-keyboard-response,35,407282,0.0-13.0-1.1,23493,List2B,white,man,,,,null,,,,
null,are shouting at each other,,html-keyboard-response,36,409283,0.0-13.0-2.1,23493,List2B,white,man,,,,null,,,,
28796,,,survey-text,37,438081,0.0-13.0-3.1,23493,List2B,white,man,,,,,"{""Q0"":""beth and ruth are shouting at each other""}","<img src=""stim_listB/shout8.gif""</stim_listB>",are shouting at each other,
null,"<div style=""font-size:60px;"">+</div>",,html-keyboard-response,38,438582,0.0-13.0-0.2,23493,List2B,white,man,,,,null,,,,
null,"<img src=""stim_listB/talk7.gif""</stim_listB>",,html-keyboard-response,39,440584,0.0-13.0-1.2,23493,List2B,white,man,,,,null,,,,
null,is talking to,,html-keyboard-response,40,442585,0.0-13.0-2.2,23493,List2B,white,man,,,,null,,,,
12177,,,survey-text,41,454763,0.0-13.0-3.2,23493,List2B,white,man,,,,,"{""Q0"":""beth is talking to ruth""}","<img src=""stim_listB/talk7.gif""</stim_listB>",is talking to,
null,"<div style=""font-size:60px;"">+</div>",,html-keyboard-response,42,455265,0.0-13.0-0.3,23493,List2B,white,man,,,,null,,,,
null,"<img src=""stim_listB/meet6.gif""</stim_listB>",,html-keyboard-response,43,457266,0.0-13.0-1.3,23493,List2B,white,man,,,,null,,,,
null,are meeting each other,,html-keyboard-response,44,459267,0.0-13.0-2.3,23493,List2B,white,man,,,,null,,,,
19869,,,survey-text,45,479138,0.0-13.0-3.3,23493,List2B,white,man,,,,,"{""Q0"":""luke and fred are meeting each other""}","<img src=""stim_listB/meet6.gif""</stim_listB>",are meeting each other,
null,"<div style=""font-size:60px;"">+</div>",,html-keyboard-response,46,479640,0.0-13.0-0.4,23493,List2B,white,man,,,,null,,,,
null,"<img src=""stim_listB/dance5.gif""</stim_listB>",,html-keyboard-response,47,481641,0.0-13.0-1.4,23493,List2B,white,man,,,,null,,,,
null,is dancing with,,html-keyboard-response,48,483642,0.0-13.0-2.4,23493,List2B,white,man,,,,null,,,,
9464,,,survey-text,49,493107,0.0-13.0-3.4,23493,List2B,white,man,,,,,"{""Q0"":""luke is dancing with mike""}","<img src=""stim_listB/dance5.gif""</stim_listB>",is dancing with,
null,"<div style=""font-size:60px;"">+</div>",,html-keyboard-response,50,493609,0.0-13.0-0.5,23493,List2B,white,man,,,,null,,,,
null,"<img src=""stim_listB/meet5.gif""</stim_listB>",,html-keyboard-response,51,495611,0.0-13.0-1.5,23493,List2B,white,man,,,,null,,,,
null,is meeting,,html-keyboard-response,52,497612,0.0-13.0-2.5,23493,List2B,white,man,,,,null,,,,
8436,,,survey-text,53,506048,0.0-13.0-3.5,23493,List2B,white,man,,,,,"{""Q0"":""mike is meeting dave""}","<img src=""stim_listB/meet5.gif""</stim_listB>",is meeting,
null,"<div style=""font-size:60px;"">+</div>",,html-keyboard-response,54,506549,0.0-13.0-0.6,23493,List2B,white,man,,,,null,,,,
null,"<img src=""stim_listB/shout5.gif""</stim_listB>",,html-keyboard-response,55,508551,0.0-13.0-1.6,23493,List2B,white,man,,,,null,,,,
null,is shouting at,,html-keyboard-response,56,510552,0.0-13.0-2.6,23493,List2B,white,man,,,,null,,,,
5881,,,survey-text,57,516434,0.0-13.0-3.6,23493,List2B,white,man,,,,,"{""Q0"":""luke is shouting at fred""}","<img src=""stim_listB/shout5.gif""</stim_listB>",is shouting at,
null,"<div style=""font-size:60px;"">+</div>",,html-keyboard-response,58,516935,0.0-13.0-0.7,23493,List2B,white,man,,,,null,,,,
null,"<img src=""stim_listB/hug5.gif""</stim_listB>",,html-keyboard-response,59,518936,0.0-13.0-1.7,23493,List2B,white,man,,,,null,,,,
null,is hugging,,html-keyboard-response,60,520937,0.0-13.0-2.7,23493,List2B,white,man,,,,null,,,,
6880,,,survey-text,61,527818,0.0-13.0-3.7,23493,List2B,white,man,,,,,"{""Q0"":""luke is hugging fred""}","<img src=""stim_listB/hug5.gif""</stim_listB>",is hugging,
null,"<div style=""font-size:60px;"">+</div>",,html-keyboard-response,62,528319,0.0-13.0-0.8,23493,List2B,white,man,,,,null,,,,
null,"<img src=""stim_listB/marry4.gif""</stim_listB>",,html-keyboard-response,63,530320,0.0-13.0-1.8,23493,List2B,white,man,,,,null,,,,
null,are marrying each other,,html-keyboard-response,64,532321,0.0-13.0-2.8,23493,List2B,white,man,,,,null,,,,
6775,,,survey-text,65,539099,0.0-13.0-3.8,23493,List2B,white,man,,,,,"{""Q0"":""fred and beth are marrying each other""}","<img src=""stim_listB/marry4.gif""</stim_listB>",are marrying each other,
null,"<div style=""font-size:60px;"">+</div>",,html-keyboard-response,66,539602,0.0-13.0-0.9,23493,List2B,white,man,,,,null,,,,
null,"<img src=""stim_listB/fight3.gif""</stim_listB>",,html-keyboard-response,67,541603,0.0-13.0-1.9,23493,List2B,white,man,,,,null,,,,
null,is fighting,,html-keyboard-response,68,543604,0.0-13.0-2.9,23493,List2B,white,man,,,,null,,,,
10023,,,survey-text,69,553627,0.0-13.0-3.9,23493,List2B,white,man,,,,,"{""Q0"":""beth is fighting mike""}","<img src=""stim_listB/fight3.gif""</stim_listB>",is fighting,
null,"<div style=""font-size:60px;"">+</div>",,html-keyboard-response,70,554129,0.0-13.0-0.10,23493,List2B,white,man,,,,null,,,,
null,"<img src=""stim_listB/argue7.gif""</stim_listB>",,html-keyboard-response,71,556132,0.0-13.0-1.10,23493,List2B,white,man,,,,null,,,,
null,is arguing with,,html-keyboard-response,72,558132,0.0-13.0-2.10,23493,List2B,white,man,,,,null,,,,
7754,,,survey-text,73,565887,0.0-13.0-3.10,23493,List2B,white,man,,,,,"{""Q0"":""ruth is arguing with jane""}","<img src=""stim_listB/argue7.gif""</stim_listB>",is arguing with,
null,"<div style=""font-size:60px;"">+</div>",,html-keyboard-response,74,566388,0.0-13.0-0.11,23493,List2B,white,man,,,,null,,,,
null,"<img src=""stim_listB/hug6.gif""</stim_listB>",,html-keyboard-response,75,568389,0.0-13.0-1.11,23493,List2B,white,man,,,,null,,,,
null,are hugging each other,,html-keyboard-response,76,570390,0.0-13.0-2.11,23493,List2B,white,man,,,,null,,,,
11685,,,survey-text,77,582077,0.0-13.0-3.11,23493,List2B,white,man,,,,,"{""Q0"":""mike is hugging dave""}","<img src=""stim_listB/hug6.gif""</stim_listB>",are hugging each other,
null,"<div style=""font-size:60px;"">+</div>",,html-keyboard-response,78,582579,0.0-13.0-0.12,23493,List2B,white,man,,,,null,,,,
null,"<img src=""stim_listB/marry8.gif""</stim_listB>",,html-keyboard-response,79,584580,0.0-13.0-1.12,23493,List2B,white,man,,,,null,,,,
null,are marrying each other,,html-keyboard-response,80,586603,0.0-13.0-2.12,23493,List2B,white,man,,,,null,,,,
15465,,,survey-text,81,602069,0.0-13.0-3.12,23493,List2B,white,man,,,,,"{""Q0"":""beth and ruth are marrying each other""}","<img src=""stim_listB/marry8.gif""</stim_listB>",are marrying each other,
null,"<div style=""font-size:60px;"">+</div>",,html-keyboard-response,82,602570,0.0-13.0-0.13,23493,List2B,white,man,,,,null,,,,
null,"<img src=""stim_listB/dance1.gif""</stim_listB>",,html-keyboard-response,83,604572,0.0-13.0-1.13,23493,List2B,white,man,,,,null,,,,
null,is dancing with,,html-keyboard-response,84,606574,0.0-13.0-2.13,23493,List2B,white,man,,,,null,,,,
6160,,,survey-text,85,612734,0.0-13.0-3.13,23493,List2B,white,man,,,,,"{""Q0"":""ruth is dancing with luke""}","<img src=""stim_listB/dance1.gif""</stim_listB>",is dancing with,
null,"<div style=""font-size:60px;"">+</div>",,html-keyboard-response,86,613236,0.0-13.0-0.14,23493,List2B,white,man,,,,null,,,,
null,"<img src=""stim_listB/kiss6.gif""</stim_listB>",,html-keyboard-response,87,615237,0.0-13.0-1.14,23493,List2B,white,man,,,,null,,,,
null,are kissing each other,,html-keyboard-response,88,617238,0.0-13.0-2.14,23493,List2B,white,man,,,,null,,,,
8168,,,survey-text,89,625408,0.0-13.0-3.14,23493,List2B,white,man,,,,,"{""Q0"":""dave and mike are kissing each other""}","<img src=""stim_listB/kiss6.gif""</stim_listB>",are kissing each other,
null,"<div style=""font-size:60px;"">+</div>",,html-keyboard-response,90,625912,0.0-13.0-0.15,23493,List2B,white,man,,,,null,,,,
null,"<img src=""stim_listB/talk2.gif""</stim_listB>",,html-keyboard-response,91,627915,0.0-13.0-1.15,23493,List2B,white,man,,,,null,,,,
null,are talking to each other,,html-keyboard-response,92,629916,0.0-13.0-2.15,23493,List2B,white,man,,,,null,,,,
6494,,,survey-text,93,636411,0.0-13.0-3.15,23493,List2B,white,man,,,,,"{""Q0"":""dave and jane are talking to each other""}","<img src=""stim_listB/talk2.gif""</stim_listB>",are talking to each other,
null,"<div style=""font-size:60px;"">+</div>",,html-keyboard-response,94,636913,0.0-13.0-0.16,23493,List2B,white,man,,,,null,,,,
null,"<img src=""stim_listB/touch1.gif""</stim_listB>",,html-keyboard-response,95,638916,0.0-13.0-1.16,23493,List2B,white,man,,,,null,,,,
null,is touching,,html-keyboard-response,96,640918,0.0-13.0-2.16,23493,List2B,white,man,,,,null,,,,
8640,,,survey-text,97,649560,0.0-13.0-3.16,23493,List2B,white,man,,,,,"{""Q0"":""ruth is touching dave""}","<img src=""stim_listB/touch1.gif""</stim_listB>",is touching,
null,"<div style=""font-size:60px;"">+</div>",,html-keyboard-response,98,650061,0.0-13.0-0.17,23493,List2B,white,man,,,,null,,,,
null,"<img src=""stim_listB/meet2.gif""</stim_listB>",,html-keyboard-response,99,652062,0.0-13.0-1.17,23493,List2B,white,man,,,,null,,,,
null,are meeting each other,,html-keyboard-response,100,654063,0.0-13.0-2.17,23493,List2B,white,man,,,,null,,,,
7903,,,survey-text,101,661967,0.0-13.0-3.17,23493,List2B,white,man,,,,,"{""Q0"":""luke is hanging out with jane""}","<img src=""stim_listB/meet2.gif""</stim_listB>",are meeting each other,
null,"<div style=""font-size:60px;"">+</div>",,html-keyboard-response,102,662468,0.0-13.0-0.18,23493,List2B,white,man,,,,null,,,,
null,"<img src=""stim_listB/talk4.gif""</stim_listB>",,html-keyboard-response,103,664469,0.0-13.0-1.18,23493,List2B,white,man,,,,null,,,,
null,are talking to each other,,html-keyboard-response,104,666471,0.0-13.0-2.18,23493,List2B,white,man,,,,null,,,,
19293,,,survey-text,105,685765,0.0-13.0-3.18,23493,List2B,white,man,,,,,"{""Q0"":""mike and jane are talking to each other""}","<img src=""stim_listB/talk4.gif""</stim_listB>",are talking to each other,
null,"<div style=""font-size:60px;"">+</div>",,html-keyboard-response,106,686266,0.0-13.0-0.19,23493,List2B,white,man,,,,null,,,,
null,"<img src=""stim_listB/meet3.gif""</stim_listB>",,html-keyboard-response,107,688267,0.0-13.0-1.19,23493,List2B,white,man,,,,null,,,,
null,is meeting,,html-keyboard-response,108,690269,0.0-13.0-2.19,23493,List2B,white,man,,,,null,,,,
3969,,,survey-text,109,694238,0.0-13.0-3.19,23493,List2B,white,man,,,,,"{""Q0"":""beth is meeting mike""}","<img src=""stim_listB/meet3.gif""</stim_listB>",is meeting,
65174,"<img src='img/portrait_matrix_list2.JPG' style='width:900px;height:500px;''></img><p>If you have memorised all the portraits and names and are ready to start, press Continue.</p><p><strong>Please note: Your memory of these faces will be tested 4 times during this experiment.</strong></p>",0,html-button-response,110,759414,0.0-14.0-0.0,23493,List2B,white,man,,,,,,,,
2916,"<img src=""portrait/WM2.jpg""style=""width:400px;height:400px;""></img>",7,html-button-response,111,763332,0.0-14.0-1.0,23493,List2B,white,man,,TRUE,7,,,,,
null,CORRECT,,html-keyboard-response,112,764835,0.0-14.0-2.0-0.0,23493,List2B,white,man,,,,null,,,,
1821,"<img src=""portrait/WM1.jpg""style=""width:400px;height:400px;""></img>",6,html-button-response,113,766658,0.0-14.0-4.0,23493,List2B,white,man,,TRUE,6,,,,,
null,CORRECT,,html-keyboard-response,114,768160,0.0-14.0-5.0-0.0,23493,List2B,white,man,,,,null,,,,
2860,"<img src=""portrait/WW1.jpg""style=""width:400px;height:400px;""></img>",1,html-button-response,115,771022,0.0-14.0-7.0,23493,List2B,white,man,,TRUE,1,,,,,
null,CORRECT,,html-keyboard-response,116,772524,0.0-14.0-8.0-0.0,23493,List2B,white,man,,,,null,,,,
1508,"<img src=""portrait/BM2.jpg""style=""width:400px;height:400px;""></img>",5,html-button-response,117,774034,0.0-14.0-10.0,23493,List2B,white,man,,TRUE,5,,,,,
null,CORRECT,,html-keyboard-response,118,775536,0.0-14.0-11.0-0.0,23493,List2B,white,man,,,,null,,,,
1897,"<img src=""portrait/BM1.jpg""style=""width:400px;height:400px;""></img>",4,html-button-response,119,777436,0.0-14.0-13.0,23493,List2B,white,man,,TRUE,4,,,,,
null,CORRECT,,html-keyboard-response,120,778937,0.0-14.0-14.0-0.0,23493,List2B,white,man,,,,null,,,,
3577,"<img src=""portrait/WW2.jpg""style=""width:400px;height:400px;""></img>",3,html-button-response,121,782516,0.0-14.0-16.0,23493,List2B,white,man,,TRUE,3,,,,,
null,CORRECT,,html-keyboard-response,122,784017,0.0-14.0-17.0-0.0,23493,List2B,white,man,,,,null,,,,
2256,"<img src=""portrait/BW1.jpg""style=""width:400px;height:400px;""></img>",0,html-button-response,123,786274,0.0-14.0-19.0,23493,List2B,white,man,,TRUE,0,,,,,
null,CORRECT,,html-keyboard-response,124,787777,0.0-14.0-20.0-0.0,23493,List2B,white,man,,,,null,,,,
2568,"<img src=""portrait/BW2.jpg""style=""width:400px;height:400px;""></img>",2,html-button-response,125,790347,0.0-14.0-22.0,23493,List2B,white,man,,TRUE,2,,,,,
null,CORRECT,,html-keyboard-response,126,791849,0.0-14.0-23.0-0.0,23493,List2B,white,man,,,,null,,,,
1398,<p>You got 8 out of 8 right first time. Press Continue.</p>,0,html-button-response,127,793249,0.0-14.0-25.0,23493,List2B,white,man,,,,,,,,
null,"<div style=""font-size:60px;"">+</div>",,html-keyboard-response,128,794752,0.0-15.0-0.0,23493,List2B,white,man,,,,null,,,,
null,"<img src=""stim_listB/argue4.gif""</stim_listB>",,html-keyboard-response,129,796754,0.0-15.0-1.0,23493,List2B,white,man,,,,null,,,,
null,are arguing with each other,,html-keyboard-response,130,798754,0.0-15.0-2.0,23493,List2B,white,man,,,,null,,,,
14043,,,survey-text,131,812799,0.0-15.0-3.0,23493,List2B,white,man,,,,,"{""Q0"":""kate and fred are arguing with each other""}","<img src=""stim_listB/argue4.gif""</stim_listB>",are arguing with each other,
null,"<div style=""font-size:60px;"">+</div>",,html-keyboard-response,132,813300,0.0-15.0-0.1,23493,List2B,white,man,,,,null,,,,
null,"<img src=""stim_listB/hug1.gif""</stim_listB>",,html-keyboard-response,133,815302,0.0-15.0-1.1,23493,List2B,white,man,,,,null,,,,
null,is hugging,,html-keyboard-response,134,817303,0.0-15.0-2.1,23493,List2B,white,man,,,,null,,,,
4455,,,survey-text,135,821760,0.0-15.0-3.1,23493,List2B,white,man,,,,,"{""Q0"":""ruth is hugging luke""}","<img src=""stim_listB/hug1.gif""</stim_listB>",is hugging,
null,"<div style=""font-size:60px;"">+</div>",,html-keyboard-response,136,822261,0.0-15.0-0.2,23493,List2B,white,man,,,,null,,,,
null,"<img src=""stim_listB/touch7.gif""</stim_listB>",,html-keyboard-response,137,824263,0.0-15.0-1.2,23493,List2B,white,man,,,,null,,,,
null,is touching,,html-keyboard-response,138,826264,0.0-15.0-2.2,23493,List2B,white,man,,,,null,,,,
7068,,,survey-text,139,833333,0.0-15.0-3.2,23493,List2B,white,man,,,,,"{""Q0"":""kate is touching jane""}","<img src=""stim_listB/touch7.gif""</stim_listB>",is touching,
null,"<div style=""font-size:60px;"">+</div>",,html-keyboard-response,140,833834,0.0-15.0-0.3,23493,List2B,white,man,,,,null,,,,
null,"<img src=""stim_listB/dance2.gif""</stim_listB>",,html-keyboard-response,141,835835,0.0-15.0-1.3,23493,List2B,white,man,,,,null,,,,
null,are dancing with each other,,html-keyboard-response,142,837836,0.0-15.0-2.3,23493,List2B,white,man,,,,null,,,,
7109,,,survey-text,143,844947,0.0-15.0-3.3,23493,List2B,white,man,,,,,"{""Q0"":""dave and ruth are dancing with each other""}","<img src=""stim_listB/dance2.gif""</stim_listB>",are dancing with each other,
null,"<div style=""font-size:60px;"">+</div>",,html-keyboard-response,144,845449,0.0-15.0-0.4,23493,List2B,white,man,,,,null,,,,
null,"<img src=""stim_listB/shout2.gif""</stim_listB>",,html-keyboard-response,145,847450,0.0-15.0-1.4,23493,List2B,white,man,,,,null,,,,
null,are shouting at each other,,html-keyboard-response,146,849451,0.0-15.0-2.4,23493,List2B,white,man,,,,null,,,,
7126,,,survey-text,147,856577,0.0-15.0-3.4,23493,List2B,white,man,,,,,"{""Q0"":""dave and jane are shouting at each other""}","<img src=""stim_listB/shout2.gif""</stim_listB>",are shouting at each other,
null,"<div style=""font-size:60px;"">+</div>",,html-keyboard-response,148,857079,0.0-15.0-0.5,23493,List2B,white,man,,,,null,,,,
null,"<img src=""stim_listB/shout1.gif""</stim_listB>",,html-keyboard-response,149,859080,0.0-15.0-1.5,23493,List2B,white,man,,,,null,,,,
null,is shouting at,,html-keyboard-response,150,861081,0.0-15.0-2.5,23493,List2B,white,man,,,,null,,,,
4862,,,survey-text,151,865943,0.0-15.0-3.5,23493,List2B,white,man,,,,,"{""Q0"":""ruth is shouting at luke""}","<img src=""stim_listB/shout1.gif""</stim_listB>",is shouting at,
null,"<div style=""font-size:60px;"">+</div>",,html-keyboard-response,152,866444,0.0-15.0-0.6,23493,List2B,white,man,,,,null,,,,
null,"<img src=""stim_listB/shout7.gif""</stim_listB>",,html-keyboard-response,153,868445,0.0-15.0-1.6,23493,List2B,white,man,,,,null,,,,
null,is shouting at,,html-keyboard-response,154,870446,0.0-15.0-2.6,23493,List2B,white,man,,,,null,,,,
4968,,,survey-text,155,875416,0.0-15.0-3.6,23493,List2B,white,man,,,,,"{""Q0"":""beth is shouting at ruth""}","<img src=""stim_listB/shout7.gif""</stim_listB>",is shouting at,
null,"<div style=""font-size:60px;"">+</div>",,html-keyboard-response,156,875918,0.0-15.0-0.7,23493,List2B,white,man,,,,null,,,,
null,"<img src=""stim_listB/argue3.gif""</stim_listB>",,html-keyboard-response,157,877919,0.0-15.0-1.7,23493,List2B,white,man,,,,null,,,,
null,is arguing with,,html-keyboard-response,158,879921,0.0-15.0-2.7,23493,List2B,white,man,,,,null,,,,
4632,,,survey-text,159,884554,0.0-15.0-3.7,23493,List2B,white,man,,,,,"{""Q0"":""beth is arguing with mike""}","<img src=""stim_listB/argue3.gif""</stim_listB>",is arguing with,
null,"<div style=""font-size:60px;"">+</div>",,html-keyboard-response,160,885055,0.0-15.0-0.8,23493,List2B,white,man,,,,null,,,,
null,"<img src=""stim_listB/marry7.gif""</stim_listB>",,html-keyboard-response,161,887056,0.0-15.0-1.8,23493,List2B,white,man,,,,null,,,,
null,is marrying,,html-keyboard-response,162,889057,0.0-15.0-2.8,23493,List2B,white,man,,,,null,,,,
6365,,,survey-text,163,895424,0.0-15.0-3.8,23493,List2B,white,man,,,,,"{""Q0"":""beth is marrying jane""}","<img src=""stim_listB/marry7.gif""</stim_listB>",is marrying,
null,"<div style=""font-size:60px;"">+</div>",,html-keyboard-response,164,895925,0.0-15.0-0.9,23493,List2B,white,man,,,,null,,,,
null,"<img src=""stim_listB/fight2.gif""</stim_listB>",,html-keyboard-response,165,897927,0.0-15.0-1.9,23493,List2B,white,man,,,,null,,,,
null,are fighting each other,,html-keyboard-response,166,899928,0.0-15.0-2.9,23493,List2B,white,man,,,,null,,,,
6491,,,survey-text,167,906419,0.0-15.0-3.9,23493,List2B,white,man,,,,,"{""Q0"":""luke and ruth are fighting each other""}","<img src=""stim_listB/fight2.gif""</stim_listB>",are fighting each other,
null,"<div style=""font-size:60px;"">+</div>",,html-keyboard-response,168,906920,0.0-15.0-0.10,23493,List2B,white,man,,,,null,,,,
null,"<img src=""stim_listB/kiss4.gif""</stim_listB>",,html-keyboard-response,169,908922,0.0-15.0-1.10,23493,List2B,white,man,,,,null,,,,
null,are kissing each other,,html-keyboard-response,170,910923,0.0-15.0-2.10,23493,List2B,white,man,,,,null,,,,
4900,,,survey-text,171,915824,0.0-15.0-3.10,23493,List2B,white,man,,,,,"{""Q0"":""kate and mike are kissing each other""}","<img src=""stim_listB/kiss4.gif""</stim_listB>",are kissing each other,
null,"<div style=""font-size:60px;"">+</div>",,html-keyboard-response,172,916325,0.0-15.0-0.11,23493,List2B,white,man,,,,null,,,,
null,"<img src=""stim_listB/shout6.gif""</stim_listB>",,html-keyboard-response,173,918327,0.0-15.0-1.11,23493,List2B,white,man,,,,null,,,,
null,are shouting at each other,,html-keyboard-response,174,920328,0.0-15.0-2.11,23493,List2B,white,man,,,,null,,,,
6749,,,survey-text,175,927081,0.0-15.0-3.11,23493,List2B,white,man,,,,,"{""Q0"":""dave and mike are shouting at each other""}","<img src=""stim_listB/shout6.gif""</stim_listB>",are shouting at each other,
null,"<div style=""font-size:60px;"">+</div>",,html-keyboard-response,176,927583,0.0-15.0-0.12,23493,List2B,white,man,,,,null,,,,
null,"<img src=""stim_listB/hug4.gif""</stim_listB>",,html-keyboard-response,177,929584,0.0-15.0-1.12,23493,List2B,white,man,,,,null,,,,
null,are hugging each other,,html-keyboard-response,178,931585,0.0-15.0-2.12,23493,List2B,white,man,,,,null,,,,
5475,,,survey-text,179,937062,0.0-15.0-3.12,23493,List2B,white,man,,,,,"{""Q0"":""kate and mike are hugging each other""}","<img src=""stim_listB/hug4.gif""</stim_listB>",are hugging each other,
null,"<div style=""font-size:60px;"">+</div>",,html-keyboard-response,180,937564,0.0-15.0-0.13,23493,List2B,white,man,,,,null,,,,
null,"<img src=""stim_listB/fight5.gif""</stim_listB>",,html-keyboard-response,181,939566,0.0-15.0-1.13,23493,List2B,white,man,,,,null,,,,
null,is fighting,,html-keyboard-response,182,941567,0.0-15.0-2.13,23493,List2B,white,man,,,,null,,,,
4863,,,survey-text,183,946431,0.0-15.0-3.13,23493,List2B,white,man,,,,,"{""Q0"":""mike is fighting dave""}","<img src=""stim_listB/fight5.gif""</stim_listB>",is fighting,
null,"<div style=""font-size:60px;"">+</div>",,html-keyboard-response,184,946933,0.0-15.0-0.14,23493,List2B,white,man,,,,null,,,,
null,"<img src=""stim_listB/talk8.gif""</stim_listB>",,html-keyboard-response,185,948934,0.0-15.0-1.14,23493,List2B,white,man,,,,null,,,,
null,are talking to each other,,html-keyboard-response,186,950935,0.0-15.0-2.14,23493,List2B,white,man,,,,null,,,,
10627,,,survey-text,187,961563,0.0-15.0-3.14,23493,List2B,white,man,,,,,"{""Q0"":""jane and beth are talking""}","<img src=""stim_listB/talk8.gif""</stim_listB>",are talking to each other,
null,"<div style=""font-size:60px;"">+</div>",,html-keyboard-response,188,962064,0.0-15.0-0.15,23493,List2B,white,man,,,,null,,,,
null,"<img src=""stim_listB/kiss3.gif""</stim_listB>",,html-keyboard-response,189,964066,0.0-15.0-1.15,23493,List2B,white,man,,,,null,,,,
null,is kissing,,html-keyboard-response,190,966067,0.0-15.0-2.15,23493,List2B,white,man,,,,null,,,,
5309,,,survey-text,191,971377,0.0-15.0-3.15,23493,List2B,white,man,,,,,"{""Q0"":""beth is kissing fred""}","<img src=""stim_listB/kiss3.gif""</stim_listB>",is kissing,
null,"<div style=""font-size:60px;"">+</div>",,html-keyboard-response,192,971878,0.0-15.0-0.16,23493,List2B,white,man,,,,null,,,,
null,"<img src=""stim_listB/fight6.gif""</stim_listB>",,html-keyboard-response,193,973880,0.0-15.0-1.16,23493,List2B,white,man,,,,null,,,,
null,are fighting each other,,html-keyboard-response,194,975882,0.0-15.0-2.16,23493,List2B,white,man,,,,null,,,,
5980,,,survey-text,195,981862,0.0-15.0-3.16,23493,List2B,white,man,,,,,"{""Q0"":""luke and fred are fighting each other""}","<img src=""stim_listB/fight6.gif""</stim_listB>",are fighting each other,
null,"<div style=""font-size:60px;"">+</div>",,html-keyboard-response,196,982363,0.0-15.0-0.17,23493,List2B,white,man,,,,null,,,,
null,"<img src=""stim_listB/touch5.gif""</stim_listB>",,html-keyboard-response,197,984365,0.0-15.0-1.17,23493,List2B,white,man,,,,null,,,,
null,is touching,,html-keyboard-response,198,986366,0.0-15.0-2.17,23493,List2B,white,man,,,,null,,,,
4661,,,survey-text,199,991029,0.0-15.0-3.17,23493,List2B,white,man,,,,,"{""Q0"":""dave is touching mike""}","<img src=""stim_listB/touch5.gif""</stim_listB>",is touching,
null,"<div style=""font-size:60px;"">+</div>",,html-keyboard-response,200,991531,0.0-15.0-0.18,23493,List2B,white,man,,,,null,,,,
null,"<img src=""stim_listB/hug8.gif""</stim_listB>",,html-keyboard-response,201,993532,0.0-15.0-1.18,23493,List2B,white,man,,,,null,,,,
null,are hugging each other,,html-keyboard-response,202,995535,0.0-15.0-2.18,23493,List2B,white,man,,,,null,,,,
10536,,,survey-text,203,1006072,0.0-15.0-3.18,23493,List2B,white,man,,,,,"{""Q0"":""kate and jane are hugging each other""}","<img src=""stim_listB/hug8.gif""</stim_listB>",are hugging each other,
null,"<div style=""font-size:60px;"">+</div>",,html-keyboard-response,204,1006573,0.0-15.0-0.19,23493,List2B,white,man,,,,null,,,,
null,"<img src=""stim_listB/kiss1.gif""</stim_listB>",,html-keyboard-response,205,1008583,0.0-15.0-1.19,23493,List2B,white,man,,,,null,,,,
null,is kissing,,html-keyboard-response,206,1010585,0.0-15.0-2.19,23493,List2B,white,man,,,,null,,,,
5237,,,survey-text,207,1015823,0.0-15.0-3.19,23493,List2B,white,man,,,,,"{""Q0"":""luke is kissing ruth""}","<img src=""stim_listB/kiss1.gif""</stim_listB>",is kissing,
25514,"<img src='img/portrait_matrix_list2.JPG' style='width:900px;height:500px;''></img><p>If you have memorised all the portraits and names and are ready to start, press Continue.</p><p><strong>Please note: Your memory of these faces will be tested 4 times during this experiment.</strong></p>",0,html-button-response,208,1041338,0.0-16.0-0.0,23493,List2B,white,man,,,,,,,,
3527,"<img src=""portrait/BM1.jpg""style=""width:400px;height:400px;""></img>",4,html-button-response,209,1045869,0.0-16.0-1.0,23493,List2B,white,man,,TRUE,4,,,,,
null,CORRECT,,html-keyboard-response,210,1047371,0.0-16.0-2.0-0.0,23493,List2B,white,man,,,,null,,,,
3442,"<img src=""portrait/WW2.jpg""style=""width:400px;height:400px;""></img>",3,html-button-response,211,1050814,0.0-16.0-4.0,23493,List2B,white,man,,TRUE,3,,,,,
null,CORRECT,,html-keyboard-response,212,1052316,0.0-16.0-5.0-0.0,23493,List2B,white,man,,,,null,,,,
1949,"<img src=""portrait/BW1.jpg""style=""width:400px;height:400px;""></img>",0,html-button-response,213,1054266,0.0-16.0-7.0,23493,List2B,white,man,,TRUE,0,,,,,
null,CORRECT,,html-keyboard-response,214,1055768,0.0-16.0-8.0-0.0,23493,List2B,white,man,,,,null,,,,
3021,"<img src=""portrait/WW1.jpg""style=""width:400px;height:400px;""></img>",1,html-button-response,215,1058791,0.0-16.0-10.0,23493,List2B,white,man,,TRUE,1,,,,,
null,CORRECT,,html-keyboard-response,216,1060293,0.0-16.0-11.0-0.0,23493,List2B,white,man,,,,null,,,,
1885,"<img src=""portrait/BW2.jpg""style=""width:400px;height:400px;""></img>",2,html-button-response,217,1062180,0.0-16.0-13.0,23493,List2B,white,man,,TRUE,2,,,,,
null,CORRECT,,html-keyboard-response,218,1063681,0.0-16.0-14.0-0.0,23493,List2B,white,man,,,,null,,,,
2403,"<img src=""portrait/WM1.jpg""style=""width:400px;height:400px;""></img>",6,html-button-response,219,1066087,0.0-16.0-16.0,23493,List2B,white,man,,TRUE,6,,,,,
null,CORRECT,,html-keyboard-response,220,1067588,0.0-16.0-17.0-0.0,23493,List2B,white,man,,,,null,,,,
1582,"<img src=""portrait/BM2.jpg""style=""width:400px;height:400px;""></img>",5,html-button-response,221,1069172,0.0-16.0-19.0,23493,List2B,white,man,,TRUE,5,,,,,
null,CORRECT,,html-keyboard-response,222,1070675,0.0-16.0-20.0-0.0,23493,List2B,white,man,,,,null,,,,
1748,"<img src=""portrait/WM2.jpg""style=""width:400px;height:400px;""></img>",7,html-button-response,223,1072425,0.0-16.0-22.0,23493,List2B,white,man,,TRUE,7,,,,,
null,CORRECT,,html-keyboard-response,224,1073943,0.0-16.0-23.0-0.0,23493,List2B,white,man,,,,null,,,,
2277,<p>You got 8 out of 8 right first time. Press Continue.</p>,0,html-button-response,225,1076221,0.0-16.0-25.0,23493,List2B,white,man,,,,,,,,
null,"<div style=""font-size:60px;"">+</div>",,html-keyboard-response,226,1077724,0.0-17.0-0.0,23493,List2B,white,man,,,,null,,,,
null,"<img src=""stim_listB/marry2.gif""</stim_listB>",,html-keyboard-response,227,1079726,0.0-17.0-1.0,23493,List2B,white,man,,,,null,,,,
null,are marrying each other,,html-keyboard-response,228,1081727,0.0-17.0-2.0,23493,List2B,white,man,,,,null,,,,
8813,,,survey-text,229,1090541,0.0-17.0-3.0,23493,List2B,white,man,,,,,"{""Q0"":""luke and jane are marrying each other""}","<img src=""stim_listB/marry2.gif""</stim_listB>",are marrying each other,
null,"<div style=""font-size:60px;"">+</div>",,html-keyboard-response,230,1091042,0.0-17.0-0.1,23493,List2B,white,man,,,,null,,,,
null,"<img src=""stim_listB/talk1.gif""</stim_listB>",,html-keyboard-response,231,1093044,0.0-17.0-1.1,23493,List2B,white,man,,,,null,,,,
null,is talking to,,html-keyboard-response,232,1095045,0.0-17.0-2.1,23493,List2B,white,man,,,,null,,,,
4790,,,survey-text,233,1099836,0.0-17.0-3.1,23493,List2B,white,man,,,,,"{""Q0"":""luke is talking to jane""}","<img src=""stim_listB/talk1.gif""</stim_listB>",is talking to,
null,"<div style=""font-size:60px;"">+</div>",,html-keyboard-response,234,1100338,0.0-17.0-0.2,23493,List2B,white,man,,,,null,,,,
null,"<img src=""stim_listB/marry3.gif""</stim_listB>",,html-keyboard-response,235,1102342,0.0-17.0-1.2,23493,List2B,white,man,,,,null,,,,
null,is marrying,,html-keyboard-response,236,1104342,0.0-17.0-2.2,23493,List2B,white,man,,,,null,,,,
4877,,,survey-text,237,1109221,0.0-17.0-3.2,23493,List2B,white,man,,,,,"{""Q0"":""beth is marrying mike""}","<img src=""stim_listB/marry3.gif""</stim_listB>",is marrying,
null,"<div style=""font-size:60px;"">+</div>",,html-keyboard-response,238,1109722,0.0-17.0-0.3,23493,List2B,white,man,,,,null,,,,
null,"<img src=""stim_listB/kiss5.gif""</stim_listB>",,html-keyboard-response,239,1111724,0.0-17.0-1.3,23493,List2B,white,man,,,,null,,,,
null,is kissing,,html-keyboard-response,240,1113725,0.0-17.0-2.3,23493,List2B,white,man,,,,null,,,,
4092,,,survey-text,241,1117819,0.0-17.0-3.3,23493,List2B,white,man,,,,,"{""Q0"":""luke is kissing fred""}","<img src=""stim_listB/kiss5.gif""</stim_listB>",is kissing,
null,"<div style=""font-size:60px;"">+</div>",,html-keyboard-response,242,1118320,0.0-17.0-0.4,23493,List2B,white,man,,,,null,,,,
null,"<img src=""stim_listB/hug2.gif""</stim_listB>",,html-keyboard-response,243,1120321,0.0-17.0-1.4,23493,List2B,white,man,,,,null,,,,
null,are hugging each other,,html-keyboard-response,244,1122322,0.0-17.0-2.4,23493,List2B,white,man,,,,null,,,,
5548,,,survey-text,245,1127872,0.0-17.0-3.4,23493,List2B,white,man,,,,,"{""Q0"":""jane and dave are hugging""}","<img src=""stim_listB/hug2.gif""</stim_listB>",are hugging each other,
null,"<div style=""font-size:60px;"">+</div>",,html-keyboard-response,246,1128373,0.0-17.0-0.5,23493,List2B,white,man,,,,null,,,,
null,"<img src=""stim_listB/shout3.gif""</stim_listB>",,html-keyboard-response,247,1130374,0.0-17.0-1.5,23493,List2B,white,man,,,,null,,,,
null,is shouting at,,html-keyboard-response,248,1132375,0.0-17.0-2.5,23493,List2B,white,man,,,,null,,,,
4609,,,survey-text,249,1136985,0.0-17.0-3.5,23493,List2B,white,man,,,,,"{""Q0"":""beth is shouting at fred""}","<img src=""stim_listB/shout3.gif""</stim_listB>",is shouting at,
null,"<div style=""font-size:60px;"">+</div>",,html-keyboard-response,250,1137486,0.0-17.0-0.6,23493,List2B,white,man,,,,null,,,,
null,"<img src=""stim_listB/marry6.gif""</stim_listB>",,html-keyboard-response,251,1139488,0.0-17.0-1.6,23493,List2B,white,man,,,,null,,,,
null,are marrying each other,,html-keyboard-response,252,1141489,0.0-17.0-2.6,23493,List2B,white,man,,,,null,,,,
7907,,,survey-text,253,1149397,0.0-17.0-3.6,23493,List2B,white,man,,,,,"{""Q0"":""luke and mike are marrying each other""}","<img src=""stim_listB/marry6.gif""</stim_listB>",are marrying each other,
null,"<div style=""font-size:60px;"">+</div>",,html-keyboard-response,254,1149899,0.0-17.0-0.7,23493,List2B,white,man,,,,null,,,,
null,"<img src=""stim_listB/kiss2.gif""</stim_listB>",,html-keyboard-response,255,1151907,0.0-17.0-1.7,23493,List2B,white,man,,,,null,,,,
null,are kissing each other,,html-keyboard-response,256,1153910,0.0-17.0-2.7,23493,List2B,white,man,,,,null,,,,
4551,,,survey-text,257,1158463,0.0-17.0-3.7,23493,List2B,white,man,,,,,"{""Q0"":""dave and jane are kissing""}","<img src=""stim_listB/kiss2.gif""</stim_listB>",are kissing each other,
null,"<div style=""font-size:60px;"">+</div>",,html-keyboard-response,258,1158965,0.0-17.0-0.8,23493,List2B,white,man,,,,null,,,,
null,"<img src=""stim_listB/fight4.gif""</stim_listB>",,html-keyboard-response,259,1160967,0.0-17.0-1.8,23493,List2B,white,man,,,,null,,,,
null,are fighting each other,,html-keyboard-response,260,1162969,0.0-17.0-2.8,23493,List2B,white,man,,,,null,,,,
6168,,,survey-text,261,1169138,0.0-17.0-3.8,23493,List2B,white,man,,,,,"{""Q0"":""beth and fred are fighting each other""}","<img src=""stim_listB/fight4.gif""</stim_listB>",are fighting each other,
null,"<div style=""font-size:60px;"">+</div>",,html-keyboard-response,262,1169639,0.0-17.0-0.9,23493,List2B,white,man,,,,null,,,,
null,"<img src=""stim_listB/argue6.gif""</stim_listB>",,html-keyboard-response,263,1171640,0.0-17.0-1.9,23493,List2B,white,man,,,,null,,,,
null,are arguing with each other,,html-keyboard-response,264,1173641,0.0-17.0-2.9,23493,List2B,white,man,,,,null,,,,
6734,,,survey-text,265,1180377,0.0-17.0-3.9,23493,List2B,white,man,,,,,"{""Q0"":""luke and mike are arguing with each other""}","<img src=""stim_listB/argue6.gif""</stim_listB>",are arguing with each other,
null,"<div style=""font-size:60px;"">+</div>",,html-keyboard-response,266,1180879,0.0-17.0-0.10,23493,List2B,white,man,,,,null,,,,
null,"<img src=""stim_listB/marry5.gif""</stim_listB>",,html-keyboard-response,267,1182881,0.0-17.0-1.10,23493,List2B,white,man,,,,null,,,,
null,is marrying,,html-keyboard-response,268,1184882,0.0-17.0-2.10,23493,List2B,white,man,,,,null,,,,
5042,,,survey-text,269,1189925,0.0-17.0-3.10,23493,List2B,white,man,,,,,"{""Q0"":""dave is marrying fred""}","<img src=""stim_listB/marry5.gif""</stim_listB>",is marrying,
null,"<div style=""font-size:60px;"">+</div>",,html-keyboard-response,270,1190426,0.0-17.0-0.11,23493,List2B,white,man,,,,null,,,,
null,"<img src=""stim_listB/talk6.gif""</stim_listB>",,html-keyboard-response,271,1192428,0.0-17.0-1.11,23493,List2B,white,man,,,,null,,,,
null,are talking to each other,,html-keyboard-response,272,1194429,0.0-17.0-2.11,23493,List2B,white,man,,,,null,,,,
6234,,,survey-text,273,1200664,0.0-17.0-3.11,23493,List2B,white,man,,,,,"{""Q0"":""dave and fred are talking to each other""}","<img src=""stim_listB/talk6.gif""</stim_listB>",are talking to each other,
null,"<div style=""font-size:60px;"">+</div>",,html-keyboard-response,274,1201165,0.0-17.0-0.12,23493,List2B,white,man,,,,null,,,,
null,"<img src=""stim_listB/touch4.gif""</stim_listB>",,html-keyboard-response,275,1203168,0.0-17.0-1.12,23493,List2B,white,man,,,,null,,,,
null,are touching each other,,html-keyboard-response,276,1205168,0.0-17.0-2.12,23493,List2B,white,man,,,,null,,,,
6807,,,survey-text,277,1211976,0.0-17.0-3.12,23493,List2B,white,man,,,,,"{""Q0"":""fred and beth are touching each other""}","<img src=""stim_listB/touch4.gif""</stim_listB>",are touching each other,
null,"<div style=""font-size:60px;"">+</div>",,html-keyboard-response,278,1212478,0.0-17.0-0.13,23493,List2B,white,man,,,,null,,,,
null,"<img src=""stim_listB/fight7.gif""</stim_listB>",,html-keyboard-response,279,1214479,0.0-17.0-1.13,23493,List2B,white,man,,,,null,,,,
null,is fighting,,html-keyboard-response,280,1216480,0.0-17.0-2.13,23493,List2B,white,man,,,,null,,,,
4767,,,survey-text,281,1221248,0.0-17.0-3.13,23493,List2B,white,man,,,,,"{""Q0"":""kate is fighting jane""}","<img src=""stim_listB/fight7.gif""</stim_listB>",is fighting,
null,"<div style=""font-size:60px;"">+</div>",,html-keyboard-response,282,1221749,0.0-17.0-0.14,23493,List2B,white,man,,,,null,,,,
null,"<img src=""stim_listB/meet7.gif""</stim_listB>",,html-keyboard-response,283,1223751,0.0-17.0-1.14,23493,List2B,white,man,,,,null,,,,
null,is meeting,,html-keyboard-response,284,1225752,0.0-17.0-2.14,23493,List2B,white,man,,,,null,,,,
4431,,,survey-text,285,1230183,0.0-17.0-3.14,23493,List2B,white,man,,,,,"{""Q0"":""kate is meeting jane""}","<img src=""stim_listB/meet7.gif""</stim_listB>",is meeting,
null,"<div style=""font-size:60px;"">+</div>",,html-keyboard-response,286,1230685,0.0-17.0-0.15,23493,List2B,white,man,,,,null,,,,
null,"<img src=""stim_listB/marry1.gif""</stim_listB>",,html-keyboard-response,287,1232708,0.0-17.0-1.15,23493,List2B,white,man,,,,null,,,,
null,is marrying,,html-keyboard-response,288,1234712,0.0-17.0-2.15,23493,List2B,white,man,,,,null,,,,
5106,,,survey-text,289,1239819,0.0-17.0-3.15,23493,List2B,white,man,,,,,"{""Q0"":""ruth is marrying dave""}","<img src=""stim_listB/marry1.gif""</stim_listB>",is marrying,
null,"<div style=""font-size:60px;"">+</div>",,html-keyboard-response,290,1240321,0.0-17.0-0.16,23493,List2B,white,man,,,,null,,,,
null,"<img src=""stim_listB/touch6.gif""</stim_listB>",,html-keyboard-response,291,1242323,0.0-17.0-1.16,23493,List2B,white,man,,,,null,,,,
null,are touching each other,,html-keyboard-response,292,1244324,0.0-17.0-2.16,23493,List2B,white,man,,,,null,,,,
8266,,,survey-text,293,1252592,0.0-17.0-3.16,23493,List2B,white,man,,,,,"{""Q0"":""luke and fred are touching each other""}","<img src=""stim_listB/touch6.gif""</stim_listB>",are touching each other,
null,"<div style=""font-size:60px;"">+</div>",,html-keyboard-response,294,1253093,0.0-17.0-0.17,23493,List2B,white,man,,,,null,,,,
null,"<img src=""stim_listB/touch3.gif""</stim_listB>",,html-keyboard-response,295,1255095,0.0-17.0-1.17,23493,List2B,white,man,,,,null,,,,
null,is touching,,html-keyboard-response,296,1257096,0.0-17.0-2.17,23493,List2B,white,man,,,,null,,,,
4082,,,survey-text,297,1261179,0.0-17.0-3.17,23493,List2B,white,man,,,,,"{""Q0"":""kate is touching mike""}","<img src=""stim_listB/touch3.gif""</stim_listB>",is touching,
null,"<div style=""font-size:60px;"">+</div>",,html-keyboard-response,298,1261681,0.0-17.0-0.18,23493,List2B,white,man,,,,null,,,,
null,"<img src=""stim_listB/shout4.gif""</stim_listB>",,html-keyboard-response,299,1263682,0.0-17.0-1.18,23493,List2B,white,man,,,,null,,,,
null,are shouting at each other,,html-keyboard-response,300,1265683,0.0-17.0-2.18,23493,List2B,white,man,,,,null,,,,
7231,,,survey-text,301,1272915,0.0-17.0-3.18,23493,List2B,white,man,,,,,"{""Q0"":""kate and mike are shouting at each other""}","<img src=""stim_listB/shout4.gif""</stim_listB>",are shouting at each other,
null,"<div style=""font-size:60px;"">+</div>",,html-keyboard-response,302,1273417,0.0-17.0-0.19,23493,List2B,white,man,,,,null,,,,
null,"<img src=""stim_listB/dance7.gif""</stim_listB>",,html-keyboard-response,303,1275419,0.0-17.0-1.19,23493,List2B,white,man,,,,null,,,,
null,is dancing with,,html-keyboard-response,304,1277420,0.0-17.0-2.19,23493,List2B,white,man,,,,null,,,,
4634,,,survey-text,305,1282057,0.0-17.0-3.19,23493,List2B,white,man,,,,,"{""Q0"":""kate is dancing with ruth""}","<img src=""stim_listB/dance7.gif""</stim_listB>",is dancing with,
31215,"<img src='img/portrait_matrix_list2.JPG' style='width:900px;height:500px;''></img><p>If you have memorised all the portraits and names and are ready to start, press Continue.</p><p><strong>Please note: Your memory of these faces will be tested 4 times during this experiment.</strong></p>",0,html-button-response,306,1313274,0.0-18.0-0.0,23493,List2B,white,man,,,,,,,,
2448,"<img src=""portrait/BW2.jpg""style=""width:400px;height:400px;""></img>",2,html-button-response,307,1316724,0.0-18.0-1.0,23493,List2B,white,man,,TRUE,2,,,,,
null,CORRECT,,html-keyboard-response,308,1318226,0.0-18.0-2.0-0.0,23493,List2B,white,man,,,,null,,,,
1655,"<img src=""portrait/BM2.jpg""style=""width:400px;height:400px;""></img>",5,html-button-response,309,1319884,0.0-18.0-4.0,23493,List2B,white,man,,TRUE,5,,,,,
null,CORRECT,,html-keyboard-response,310,1321391,0.0-18.0-5.0-0.0,23493,List2B,white,man,,,,null,,,,
3142,"<img src=""portrait/WM2.jpg""style=""width:400px;height:400px;""></img>",7,html-button-response,311,1324537,0.0-18.0-7.0,23493,List2B,white,man,,TRUE,7,,,,,
null,CORRECT,,html-keyboard-response,312,1326039,0.0-18.0-8.0-0.0,23493,List2B,white,man,,,,null,,,,
1736,"<img src=""portrait/BW1.jpg""style=""width:400px;height:400px;""></img>",0,html-button-response,313,1327777,0.0-18.0-10.0,23493,List2B,white,man,,TRUE,0,,,,,
null,CORRECT,,html-keyboard-response,314,1329279,0.0-18.0-11.0-0.0,23493,List2B,white,man,,,,null,,,,
3087,"<img src=""portrait/BM1.jpg""style=""width:400px;height:400px;""></img>",4,html-button-response,315,1332369,0.0-18.0-13.0,23493,List2B,white,man,,TRUE,4,,,,,
null,CORRECT,,html-keyboard-response,316,1333872,0.0-18.0-14.0-0.0,23493,List2B,white,man,,,,null,,,,
2424,"<img src=""portrait/WW1.jpg""style=""width:400px;height:400px;""></img>",1,html-button-response,317,1336298,0.0-18.0-16.0,23493,List2B,white,man,,TRUE,1,,,,,
null,CORRECT,,html-keyboard-response,318,1337800,0.0-18.0-17.0-0.0,23493,List2B,white,man,,,,null,,,,
1810,"<img src=""portrait/WW2.jpg""style=""width:400px;height:400px;""></img>",3,html-button-response,319,1339612,0.0-18.0-19.0,23493,List2B,white,man,,TRUE,3,,,,,
null,CORRECT,,html-keyboard-response,320,1341115,0.0-18.0-20.0-0.0,23493,List2B,white,man,,,,null,,,,
1813,"<img src=""portrait/WM1.jpg""style=""width:400px;height:400px;""></img>",6,html-button-response,321,1342950,0.0-18.0-22.0,23493,List2B,white,man,,TRUE,6,,,,,
null,CORRECT,,html-keyboard-response,322,1344452,0.0-18.0-23.0-0.0,23493,List2B,white,man,,,,null,,,,
2702,<p>You got 8 out of 8 right first time. Press Continue.</p>,0,html-button-response,323,1347155,0.0-18.0-25.0,23493,List2B,white,man,,,,,,,,
null,"<div style=""font-size:60px;"">+</div>",,html-keyboard-response,324,1348659,0.0-19.0-0.0,23493,List2B,white,man,,,,null,,,,
null,"<img src=""stim_listB/touch8.gif""</stim_listB>",,html-keyboard-response,325,1350660,0.0-19.0-1.0,23493,List2B,white,man,,,,null,,,,
null,are touching each other,,html-keyboard-response,326,1352663,0.0-19.0-2.0,23493,List2B,white,man,,,,null,,,,
8119,,,survey-text,327,1360783,0.0-19.0-3.0,23493,List2B,white,man,,,,,"{""Q0"":""beth is touching ruth""}","<img src=""stim_listB/touch8.gif""</stim_listB>",are touching each other,
null,"<div style=""font-size:60px;"">+</div>",,html-keyboard-response,328,1361285,0.0-19.0-0.1,23493,List2B,white,man,,,,null,,,,
null,"<img src=""stim_listB/talk3.gif""</stim_listB>",,html-keyboard-response,329,1363288,0.0-19.0-1.1,23493,List2B,white,man,,,,null,,,,
null,is talking to,,html-keyboard-response,330,1365289,0.0-19.0-2.1,23493,List2B,white,man,,,,null,,,,
5350,,,survey-text,331,1370641,0.0-19.0-3.1,23493,List2B,white,man,,,,,"{""Q0"":""kate is talking to fred""}","<img src=""stim_listB/talk3.gif""</stim_listB>",is talking to,
null,"<div style=""font-size:60px;"">+</div>",,html-keyboard-response,332,1371142,0.0-19.0-0.2,23493,List2B,white,man,,,,null,,,,
null,"<img src=""stim_listB/fight8.gif""</stim_listB>",,html-keyboard-response,333,1373144,0.0-19.0-1.2,23493,List2B,white,man,,,,null,,,,
null,are fighting each other,,html-keyboard-response,334,1375145,0.0-19.0-2.2,23493,List2B,white,man,,,,null,,,,
5564,,,survey-text,335,1380711,0.0-19.0-3.2,23493,List2B,white,man,,,,,"{""Q0"":""beth and ruth are fighting each other""}","<img src=""stim_listB/fight8.gif""</stim_listB>",are fighting each other,
null,"<div style=""font-size:60px;"">+</div>",,html-keyboard-response,336,1381212,0.0-19.0-0.3,23493,List2B,white,man,,,,null,,,,
null,"<img src=""stim_listB/meet8.gif""</stim_listB>",,html-keyboard-response,337,1383214,0.0-19.0-1.3,23493,List2B,white,man,,,,null,,,,
null,are meeting each other,,html-keyboard-response,338,1385215,0.0-19.0-2.3,23493,List2B,white,man,,,,null,,,,
6776,,,survey-text,339,1391992,0.0-19.0-3.3,23493,List2B,white,man,,,,,"{""Q0"":""beth and ruth are meeting each other""}","<img src=""stim_listB/meet8.gif""</stim_listB>",are meeting each other,
null,"<div style=""font-size:60px;"">+</div>",,html-keyboard-response,340,1392494,0.0-19.0-0.4,23493,List2B,white,man,,,,null,,,,
null,"<img src=""stim_listB/dance6.gif""</stim_listB>",,html-keyboard-response,341,1394495,0.0-19.0-1.4,23493,List2B,white,man,,,,null,,,,
null,are dancing with each other,,html-keyboard-response,342,1396496,0.0-19.0-2.4,23493,List2B,white,man,,,,null,,,,
7974,,,survey-text,343,1404472,0.0-19.0-3.4,23493,List2B,white,man,,,,,"{""Q0"":""fred and dave are dancing with each other""}","<img src=""stim_listB/dance6.gif""</stim_listB>",are dancing with each other,
null,"<div style=""font-size:60px;"">+</div>",,html-keyboard-response,344,1404974,0.0-19.0-0.5,23493,List2B,white,man,,,,null,,,,
null,"<img src=""stim_listB/hug7.gif""</stim_listB>",,html-keyboard-response,345,1406976,0.0-19.0-1.5,23493,List2B,white,man,,,,null,,,,
null,is hugging,,html-keyboard-response,346,1408977,0.0-19.0-2.5,23493,List2B,white,man,,,,null,,,,
4359,,,survey-text,347,1413336,0.0-19.0-3.5,23493,List2B,white,man,,,,,"{""Q0"":""beth is hugging ruth""}","<img src=""stim_listB/hug7.gif""</stim_listB>",is hugging,
null,"<div style=""font-size:60px;"">+</div>",,html-keyboard-response,348,1413838,0.0-19.0-0.6,23493,List2B,white,man,,,,null,,,,
null,"<img src=""stim_listB/talk5.gif""</stim_listB>",,html-keyboard-response,349,1415839,0.0-19.0-1.6,23493,List2B,white,man,,,,null,,,,
null,is talking to,,html-keyboard-response,350,1417840,0.0-19.0-2.6,23493,List2B,white,man,,,,null,,,,
4595,,,survey-text,351,1422437,0.0-19.0-3.6,23493,List2B,white,man,,,,,"{""Q0"":""luke is talking to dave""}","<img src=""stim_listB/talk5.gif""</stim_listB>",is talking to,
null,"<div style=""font-size:60px;"">+</div>",,html-keyboard-response,352,1422939,0.0-19.0-0.7,23493,List2B,white,man,,,,null,,,,
null,"<img src=""stim_listB/argue8.gif""</stim_listB>",,html-keyboard-response,353,1424940,0.0-19.0-1.7,23493,List2B,white,man,,,,null,,,,
null,are arguing with each other,,html-keyboard-response,354,1426941,0.0-19.0-2.7,23493,List2B,white,man,,,,null,,,,
10013,,,survey-text,355,1436955,0.0-19.0-3.7,23493,List2B,white,man,,,,,"{""Q0"":""ruth and kate are talking""}","<img src=""stim_listB/argue8.gif""</stim_listB>",are arguing with each other,
null,"<div style=""font-size:60px;"">+</div>",,html-keyboard-response,356,1437466,0.0-19.0-0.8,23493,List2B,white,man,,,,null,,,,
null,"<img src=""stim_listB/fight1.gif""</stim_listB>",,html-keyboard-response,357,1439469,0.0-19.0-1.8,23493,List2B,white,man,,,,null,,,,
null,is fighting,,html-keyboard-response,358,1441470,0.0-19.0-2.8,23493,List2B,white,man,,,,null,,,,
4322,,,survey-text,359,1445794,0.0-19.0-3.8,23493,List2B,white,man,,,,,"{""Q0"":""dave is fighting jane""}","<img src=""stim_listB/fight1.gif""</stim_listB>",is fighting,
null,"<div style=""font-size:60px;"">+</div>",,html-keyboard-response,360,1446295,0.0-19.0-0.9,23493,List2B,white,man,,,,null,,,,
null,"<img src=""stim_listB/kiss8.gif""</stim_listB>",,html-keyboard-response,361,1448296,0.0-19.0-1.9,23493,List2B,white,man,,,,null,,,,
null,are kissing each other,,html-keyboard-response,362,1450297,0.0-19.0-2.9,23493,List2B,white,man,,,,null,,,,
5199,,,survey-text,363,1455498,0.0-19.0-3.9,23493,List2B,white,man,,,,,"{""Q0"":""kate and jane are kissing each other""}","<img src=""stim_listB/kiss8.gif""</stim_listB>",are kissing each other,
null,"<div style=""font-size:60px;"">+</div>",,html-keyboard-response,364,1455999,0.0-19.0-0.10,23493,List2B,white,man,,,,null,,,,
null,"<img src=""stim_listB/hug3.gif""</stim_listB>",,html-keyboard-response,365,1458001,0.0-19.0-1.10,23493,List2B,white,man,,,,null,,,,
null,is hugging,,html-keyboard-response,366,1460002,0.0-19.0-2.10,23493,List2B,white,man,,,,null,,,,
7457,,,survey-text,367,1467460,0.0-19.0-3.10,23493,List2B,white,man,,,,,"{""Q0"":""fred is hugging beth""}","<img src=""stim_listB/hug3.gif""</stim_listB>",is hugging,
null,"<div style=""font-size:60px;"">+</div>",,html-keyboard-response,368,1467961,0.0-19.0-0.11,23493,List2B,white,man,,,,null,,,,
null,"<img src=""stim_listB/meet1.gif""</stim_listB>",,html-keyboard-response,369,1469962,0.0-19.0-1.11,23493,List2B,white,man,,,,null,,,,
null,is meeting,,html-keyboard-response,370,1471963,0.0-19.0-2.11,23493,List2B,white,man,,,,null,,,,
5240,,,survey-text,371,1477205,0.0-19.0-3.11,23493,List2B,white,man,,,,,"{""Q0"":""dave is meeting jane""}","<img src=""stim_listB/meet1.gif""</stim_listB>",is meeting,
null,"<div style=""font-size:60px;"">+</div>",,html-keyboard-response,372,1477706,0.0-19.0-0.12,23493,List2B,white,man,,,,null,,,,
null,"<img src=""stim_listB/kiss7.gif""</stim_listB>",,html-keyboard-response,373,1479707,0.0-19.0-1.12,23493,List2B,white,man,,,,null,,,,
null,is kissing,,html-keyboard-response,374,1481709,0.0-19.0-2.12,23493,List2B,white,man,,,,null,,,,
3966,,,survey-text,375,1485675,0.0-19.0-3.12,23493,List2B,white,man,,,,,"{""Q0"":""beth is kissing ruth""}","<img src=""stim_listB/kiss7.gif""</stim_listB>",is kissing,
null,"<div style=""font-size:60px;"">+</div>",,html-keyboard-response,376,1486176,0.0-19.0-0.13,23493,List2B,white,man,,,,null,,,,
null,"<img src=""stim_listB/meet4.gif""</stim_listB>",,html-keyboard-response,377,1488179,0.0-19.0-1.13,23493,List2B,white,man,,,,null,,,,
null,are meeting each other,,html-keyboard-response,378,1490180,0.0-19.0-2.13,23493,List2B,white,man,,,,null,,,,
6498,,,survey-text,379,1496679,0.0-19.0-3.13,23493,List2B,white,man,,,,,"{""Q0"":""beth and fred are meeting each other""}","<img src=""stim_listB/meet4.gif""</stim_listB>",are meeting each other,
null,"<div style=""font-size:60px;"">+</div>",,html-keyboard-response,380,1497180,0.0-19.0-0.14,23493,List2B,white,man,,,,null,,,,
null,"<img src=""stim_listB/dance3.gif""</stim_listB>",,html-keyboard-response,381,1499181,0.0-19.0-1.14,23493,List2B,white,man,,,,null,,,,
null,is dancing with,,html-keyboard-response,382,1501182,0.0-19.0-2.14,23493,List2B,white,man,,,,null,,,,
5629,,,survey-text,383,1506813,0.0-19.0-3.14,23493,List2B,white,man,,,,,"{""Q0"":""kate is dancing with fred""}","<img src=""stim_listB/dance3.gif""</stim_listB>",is dancing with,
null,"<div style=""font-size:60px;"">+</div>",,html-keyboard-response,384,1507313,0.0-19.0-0.15,23493,List2B,white,man,,,,null,,,,
null,"<img src=""stim_listB/dance8.gif""</stim_listB>",,html-keyboard-response,385,1509315,0.0-19.0-1.15,23493,List2B,white,man,,,,null,,,,
null,are dancing with each other,,html-keyboard-response,386,1511317,0.0-19.0-2.15,23493,List2B,white,man,,,,null,,,,
7408,,,survey-text,387,1518726,0.0-19.0-3.15,23493,List2B,white,man,,,,,"{""Q0"":""jane and beth are dancing with each other""}","<img src=""stim_listB/dance8.gif""</stim_listB>",are dancing with each other,
null,"<div style=""font-size:60px;"">+</div>",,html-keyboard-response,388,1519228,0.0-19.0-0.16,23493,List2B,white,man,,,,null,,,,
null,"<img src=""stim_listB/argue1.gif""</stim_listB>",,html-keyboard-response,389,1521230,0.0-19.0-1.16,23493,List2B,white,man,,,,null,,,,
null,is arguing with,,html-keyboard-response,390,1523231,0.0-19.0-2.16,23493,List2B,white,man,,,,null,,,,
4634,,,survey-text,391,1527866,0.0-19.0-3.16,23493,List2B,white,man,,,,,"{""Q0"":""dave is arguing with ruth""}","<img src=""stim_listB/argue1.gif""</stim_listB>",is arguing with,
null,"<div style=""font-size:60px;"">+</div>",,html-keyboard-response,392,1528367,0.0-19.0-0.17,23493,List2B,white,man,,,,null,,,,
null,"<img src=""stim_listB/argue2.gif""</stim_listB>",,html-keyboard-response,393,1530369,0.0-19.0-1.17,23493,List2B,white,man,,,,null,,,,
null,are arguing with each other,,html-keyboard-response,394,1532370,0.0-19.0-2.17,23493,List2B,white,man,,,,null,,,,
7792,,,survey-text,395,1540162,0.0-19.0-3.17,23493,List2B,white,man,,,,,"{""Q0"":""jane and luke are arguing with each other""}","<img src=""stim_listB/argue2.gif""</stim_listB>",are arguing with each other,
null,"<div style=""font-size:60px;"">+</div>",,html-keyboard-response,396,1540663,0.0-19.0-0.18,23493,List2B,white,man,,,,null,,,,
null,"<img src=""stim_listB/touch2.gif""</stim_listB>",,html-keyboard-response,397,1542665,0.0-19.0-1.18,23493,List2B,white,man,,,,null,,,,
null,are touching each other,,html-keyboard-response,398,1544666,0.0-19.0-2.18,23493,List2B,white,man,,,,null,,,,
6042,,,survey-text,399,1550710,0.0-19.0-3.18,23493,List2B,white,man,,,,,"{""Q0"":""luke and ruth are touching each other""}","<img src=""stim_listB/touch2.gif""</stim_listB>",are touching each other,
null,"<div style=""font-size:60px;"">+</div>",,html-keyboard-response,400,1551211,0.0-19.0-0.19,23493,List2B,white,man,,,,null,,,,
null,"<img src=""stim_listB/argue5.gif""</stim_listB>",,html-keyboard-response,401,1553213,0.0-19.0-1.19,23493,List2B,white,man,,,,null,,,,
null,is arguing with,,html-keyboard-response,402,1555214,0.0-19.0-2.19,23493,List2B,white,man,,,,null,,,,
4795,,,survey-text,403,1560010,0.0-19.0-3.19,23493,List2B,white,man,,,,,"{""Q0"":""fred is arguing with dave""}","<img src=""stim_listB/argue5.gif""</stim_listB>",is arguing with,
1891,<p>Thank you for completing that task.</p><p>The final part of this session is a short questionnaire.</p><p>Press Continue.</p>,0,html-button-response,404,1561902,0.0-20.0,23493,List2B,white,man,,,,,,,,
21218,,,survey-text,405,1584137,0.0-21.0,23493,List2B,white,man,,,,,"{""Q0"":""18"",""Q1"":""English"",""Q2"":""English"",""Q3"":""New Zealand"",""Q4"":""NZ European / Caucasian"",""Q5"":""Male""}",,,demographics
73320,,,survey-likert,406,1657465,0.0-22.0,23493,List2B,white,man,,,,,"{""Q0"":1,""Q1"":3,""Q2"":1,""Q3"":4,""Q4"":4,""Q5"":4,""Q6"":1,""Q7"":0,""Q8"":0,""Q9"":0,""Q10"":4,""Q11"":4,""Q12"":1,""Q13"":2}",,,likert_race
64010,,,survey-likert,407,1721486,0.0-23.0,23493,List2B,white,man,,,,,"{""Q0"":0,""Q1"":0,""Q2"":0,""Q3"":1,""Q4"":1,""Q5"":1,""Q6"":1,""Q7"":6,""Q8"":0,""Q9"":6,""Q10"":"""",""Q11"":0,""Q12"":2,""Q13"":2}",,,likert_gender
7877,,,survey-text,408,1729370,0.0-24.0,23493,List2B,white,man,,,,,"{""Q0"":""ccc""}",,,worker_id
41472,,,external-html,409,1771436,0.0-25.0,23493,List2B,white,man,debrief.html,,,,,,,
