rt,stimulus,button_pressed,trial_type,trial_index,time_elapsed,internal_node_id,subject,list,ppt_race,ppt_gender,url,first_guess,correct,key_press,responses,image_type,phrase_type,test_part
1802,Welcome to the experiment. Press Continue to begin.,0,html-button-response,0,1815,0.0-0.0,23657,List2B,black,man,,,,,,,,
26608,,,external-html,1,29447,0.0-1.0,23657,List2B,black,man,consent.html,,,,,,,
511252,"<p>On the next page, you will see portraits of 8 people and their names.</p><p>Your first task is to take a few minutes to memorise the names of these people.</p><p>You will have to recall their names during the rest of the experiment, so it is</p><p>essential that you try to memorise these people and their names as best as you can.</p><br><p><strong>You will then be tested on your memory of these names and portraits.</strong></p><br><p>The experiment will start after you have completed this memory test.</p><br><p>Ready?</p>",0,html-button-response,2,540700,0.0-2.0,23657,List2B,black,man,,,,,,,,
1854505,"<img src='img/portrait_matrix_list2.JPG' style='width:900px;height:500px;''></img><p>If you have memorised all the portraits and names and are ready to start, press Continue.</p><p><strong>Please note: Your memory of these faces will be tested 4 times during this experiment.</strong></p>",0,html-button-response,3,2396208,0.0-3.0-0.0,23657,List2B,black,man,,,,,,,,
9037,"<img src=""portrait/WM1.jpg""style=""width:400px;height:400px;""></img>",6,html-button-response,4,2406248,0.0-3.0-1.0,23657,List2B,black,man,,TRUE,6,,,,,
null,CORRECT,,html-keyboard-response,5,2407751,0.0-3.0-2.0-0.0,23657,List2B,black,man,,,,null,,,,
1677,"<img src=""portrait/WM2.jpg""style=""width:400px;height:400px;""></img>",7,html-button-response,6,2409429,0.0-3.0-4.0,23657,List2B,black,man,,TRUE,7,,,,,
null,CORRECT,,html-keyboard-response,7,2410931,0.0-3.0-5.0-0.0,23657,List2B,black,man,,,,null,,,,
3634,"<img src=""portrait/BW2.jpg""style=""width:400px;height:400px;""></img>",1,html-button-response,8,2414565,0.0-3.0-7.0,23657,List2B,black,man,,TRUE,2,,,,,
7107,"<img src=""portrait/BW2.jpg""style=""width:400px;height:400px;""></img>",0,html-button-response,9,2422675,0.0-3.0-9.0-0.0,23657,List2B,black,man,,FALSE,2,,,,,
null,INCORRECT,,html-keyboard-response,10,2424177,0.0-3.0-9.0-2.0-0.0,23657,List2B,black,man,,,,null,,,,
2384,"<img src=""portrait/BW1.jpg""style=""width:400px;height:400px;""></img>",1,html-button-response,11,2426563,0.0-3.0-10.0,23657,List2B,black,man,,TRUE,0,,,,,
4034,"<img src=""portrait/BW1.jpg""style=""width:400px;height:400px;""></img>",0,html-button-response,12,2431599,0.0-3.0-12.0-0.0,23657,List2B,black,man,,FALSE,0,,,,,
null,CORRECT,,html-keyboard-response,13,2433101,0.0-3.0-12.0-1.0-0.0,23657,List2B,black,man,,,,null,,,,
3018,"<img src=""portrait/WW1.jpg""style=""width:400px;height:400px;""></img>",2,html-button-response,14,2436120,0.0-3.0-13.0,23657,List2B,black,man,,TRUE,1,,,,,
2558,"<img src=""portrait/WW1.jpg""style=""width:400px;height:400px;""></img>",1,html-button-response,15,2439681,0.0-3.0-15.0-0.0,23657,List2B,black,man,,FALSE,1,,,,,
null,CORRECT,,html-keyboard-response,16,2441182,0.0-3.0-15.0-1.0-0.0,23657,List2B,black,man,,,,null,,,,
2278,"<img src=""portrait/BM1.jpg""style=""width:400px;height:400px;""></img>",5,html-button-response,17,2443461,0.0-3.0-16.0,23657,List2B,black,man,,TRUE,4,,,,,
2162,"<img src=""portrait/BM1.jpg""style=""width:400px;height:400px;""></img>",4,html-button-response,18,2446626,0.0-3.0-18.0-0.0,23657,List2B,black,man,,FALSE,4,,,,,
null,CORRECT,,html-keyboard-response,19,2448129,0.0-3.0-18.0-1.0-0.0,23657,List2B,black,man,,,,null,,,,
6029,"<img src=""portrait/BM2.jpg""style=""width:400px;height:400px;""></img>",5,html-button-response,20,2454159,0.0-3.0-19.0,23657,List2B,black,man,,TRUE,5,,,,,
null,CORRECT,,html-keyboard-response,21,2455661,0.0-3.0-20.0-0.0,23657,List2B,black,man,,,,null,,,,
1794,"<img src=""portrait/WW2.jpg""style=""width:400px;height:400px;""></img>",3,html-button-response,22,2457455,0.0-3.0-22.0,23657,List2B,black,man,,TRUE,3,,,,,
null,CORRECT,,html-keyboard-response,23,2458957,0.0-3.0-23.0-0.0,23657,List2B,black,man,,,,null,,,,
2653,<p>You got 4 out of 8 right first time. Press Continue.</p>,0,html-button-response,24,2461611,0.0-3.0-25.0,23657,List2B,black,man,,,,,,,,
201926,"As you did not score 100%, the memory game will repeat. Press Continue.",0,html-button-response,25,2664540,0.0-3.0-26.0-0.0,23657,List2B,black,man,,,,,,,,
28498,"<img src='img/portrait_matrix_list2.JPG' style='width:900px;height:500px;''></img><p>If you have memorised all the portraits and names and are ready to start, press Continue.</p><p><strong>Please note: Your memory of these faces will be tested 4 times during this experiment.</strong></p>",0,html-button-response,26,2694040,0.0-3.1-0.1,23657,List2B,black,man,,,,,,,,
23586,"<img src=""portrait/WM1.jpg""style=""width:400px;height:400px;""></img>",6,html-button-response,27,2718628,0.0-3.1-1.1,23657,List2B,black,man,,TRUE,6,,,,,
null,CORRECT,,html-keyboard-response,28,2720129,0.0-3.1-2.1-0.1,23657,List2B,black,man,,,,null,,,,
2104,"<img src=""portrait/WM2.jpg""style=""width:400px;height:400px;""></img>",7,html-button-response,29,2722235,0.0-3.1-4.1,23657,List2B,black,man,,TRUE,7,,,,,
null,CORRECT,,html-keyboard-response,30,2723737,0.0-3.1-5.1-0.1,23657,List2B,black,man,,,,null,,,,
9730,"<img src=""portrait/BW2.jpg""style=""width:400px;height:400px;""></img>",0,html-button-response,31,2733469,0.0-3.1-7.1,23657,List2B,black,man,,TRUE,2,,,,,
2829,"<img src=""portrait/BW2.jpg""style=""width:400px;height:400px;""></img>",2,html-button-response,32,2737301,0.0-3.1-9.1-0.1,23657,List2B,black,man,,FALSE,2,,,,,
null,CORRECT,,html-keyboard-response,33,2738802,0.0-3.1-9.1-1.1-0.1,23657,List2B,black,man,,,,null,,,,
60217,"<img src=""portrait/BW1.jpg""style=""width:400px;height:400px;""></img>",1,html-button-response,34,2799020,0.0-3.1-10.1,23657,List2B,black,man,,TRUE,0,,,,,
1839,"<img src=""portrait/BW1.jpg""style=""width:400px;height:400px;""></img>",0,html-button-response,35,2801861,0.0-3.1-12.1-0.1,23657,List2B,black,man,,FALSE,0,,,,,
null,CORRECT,,html-keyboard-response,36,2803363,0.0-3.1-12.1-1.1-0.1,23657,List2B,black,man,,,,null,,,,
6522,"<img src=""portrait/WW1.jpg""style=""width:400px;height:400px;""></img>",3,html-button-response,37,2809886,0.0-3.1-13.1,23657,List2B,black,man,,TRUE,1,,,,,
1727,"<img src=""portrait/WW1.jpg""style=""width:400px;height:400px;""></img>",1,html-button-response,38,2812614,0.0-3.1-15.1-0.1,23657,List2B,black,man,,FALSE,1,,,,,
null,CORRECT,,html-keyboard-response,39,2814117,0.0-3.1-15.1-1.1-0.1,23657,List2B,black,man,,,,null,,,,
2069,"<img src=""portrait/BM1.jpg""style=""width:400px;height:400px;""></img>",4,html-button-response,40,2816187,0.0-3.1-16.1,23657,List2B,black,man,,TRUE,4,,,,,
null,CORRECT,,html-keyboard-response,41,2817688,0.0-3.1-17.1-0.1,23657,List2B,black,man,,,,null,,,,
1430,"<img src=""portrait/BM2.jpg""style=""width:400px;height:400px;""></img>",5,html-button-response,42,2819119,0.0-3.1-19.1,23657,List2B,black,man,,TRUE,5,,,,,
null,CORRECT,,html-keyboard-response,43,2820621,0.0-3.1-20.1-0.1,23657,List2B,black,man,,,,null,,,,
4189,"<img src=""portrait/WW2.jpg""style=""width:400px;height:400px;""></img>",3,html-button-response,44,2824812,0.0-3.1-22.1,23657,List2B,black,man,,TRUE,3,,,,,
null,CORRECT,,html-keyboard-response,45,2826313,0.0-3.1-23.1-0.1,23657,List2B,black,man,,,,null,,,,
1246,<p>You got 5 out of 8 right first time. Press Continue.</p>,0,html-button-response,46,2827560,0.0-3.1-25.1,23657,List2B,black,man,,,,,,,,
1882,"As you did not score 100%, the memory game will repeat. Press Continue.",0,html-button-response,47,2830444,0.0-3.1-26.1-0.1,23657,List2B,black,man,,,,,,,,
84985,"<img src='img/portrait_matrix_list2.JPG' style='width:900px;height:500px;''></img><p>If you have memorised all the portraits and names and are ready to start, press Continue.</p><p><strong>Please note: Your memory of these faces will be tested 4 times during this experiment.</strong></p>",0,html-button-response,48,2916431,0.0-3.2-0.2,23657,List2B,black,man,,,,,,,,
4030,"<img src=""portrait/WM1.jpg""style=""width:400px;height:400px;""></img>",6,html-button-response,49,2921464,0.0-3.2-1.2,23657,List2B,black,man,,TRUE,6,,,,,
null,CORRECT,,html-keyboard-response,50,2922965,0.0-3.2-2.2-0.2,23657,List2B,black,man,,,,null,,,,
866,"<img src=""portrait/WM2.jpg""style=""width:400px;height:400px;""></img>",7,html-button-response,51,2923833,0.0-3.2-4.2,23657,List2B,black,man,,TRUE,7,,,,,
null,CORRECT,,html-keyboard-response,52,2925335,0.0-3.2-5.2-0.2,23657,List2B,black,man,,,,null,,,,
4857,"<img src=""portrait/BW2.jpg""style=""width:400px;height:400px;""></img>",2,html-button-response,53,2930194,0.0-3.2-7.2,23657,List2B,black,man,,TRUE,2,,,,,
null,CORRECT,,html-keyboard-response,54,2931695,0.0-3.2-8.2-0.2,23657,List2B,black,man,,,,null,,,,
11203,"<img src=""portrait/BW1.jpg""style=""width:400px;height:400px;""></img>",0,html-button-response,55,2942899,0.0-3.2-10.2,23657,List2B,black,man,,TRUE,0,,,,,
null,CORRECT,,html-keyboard-response,56,2944401,0.0-3.2-11.2-0.2,23657,List2B,black,man,,,,null,,,,
2852,"<img src=""portrait/WW1.jpg""style=""width:400px;height:400px;""></img>",1,html-button-response,57,2947254,0.0-3.2-13.2,23657,List2B,black,man,,TRUE,1,,,,,
null,CORRECT,,html-keyboard-response,58,2948756,0.0-3.2-14.2-0.2,23657,List2B,black,man,,,,null,,,,
1182,"<img src=""portrait/BM1.jpg""style=""width:400px;height:400px;""></img>",4,html-button-response,59,2949939,0.0-3.2-16.2,23657,List2B,black,man,,TRUE,4,,,,,
null,CORRECT,,html-keyboard-response,60,2951440,0.0-3.2-17.2-0.2,23657,List2B,black,man,,,,null,,,,
1313,"<img src=""portrait/BM2.jpg""style=""width:400px;height:400px;""></img>",5,html-button-response,61,2952755,0.0-3.2-19.2,23657,List2B,black,man,,TRUE,5,,,,,
null,CORRECT,,html-keyboard-response,62,2954256,0.0-3.2-20.2-0.2,23657,List2B,black,man,,,,null,,,,
5346,"<img src=""portrait/WW2.jpg""style=""width:400px;height:400px;""></img>",3,html-button-response,63,2959604,0.0-3.2-22.2,23657,List2B,black,man,,TRUE,3,,,,,
null,CORRECT,,html-keyboard-response,64,2961106,0.0-3.2-23.2-0.2,23657,List2B,black,man,,,,null,,,,
1170,<p>You got 8 out of 8 right first time. Press Continue.</p>,0,html-button-response,65,2962276,0.0-3.2-25.2,23657,List2B,black,man,,,,,,,,
89949,"<p>In this experiment, you will view photographs of the people from the memory game interacting.</p><p>By using the <strong>exact</strong> phrase given <i>after</i> the photograph appears and recalling the correct names of the people in the photographs, form a sentence describing the interaction. You do not need to capitalise names.</p><p>Type your answer in the space provided. Please complete every sentence before moving onto the next trial.</p><p>You will only have a few seconds to memorise each given photograph and phrase before you can respond, so try your best to focus.</p><p>An example is given below. Press 'Continue' when you are ready.</p><img src='img/speaking_example_v2.jpg' style='width:800px;height:460px;''></img>",0,html-button-response,66,3053227,0.0-4.0,23657,List2B,black,man,,,,,,,,
2368,"<p>Before the experiment starts, you will watch two example trials. Press 'Continue'.</p>",0,html-button-response,67,3056596,0.0-5.0,23657,List2B,black,man,,,,,,,,
null,<img src='img/speaking_WW.gif'></img>,,html-keyboard-response,68,3059597,0.0-6.0,23657,List2B,black,man,,,,null,,,,
null,<p>is speaking to</p>,,html-keyboard-response,69,3061598,0.0-7.0,23657,List2B,black,man,,,,null,,,,
3742,<p><b>Answer:</b> jane is speaking to ruth</p>,0,html-button-response,70,3065341,0.0-8.0,23657,List2B,black,man,,,,,,,,
null,<img src='img/pointing_BM.gif'></img>,,html-keyboard-response,71,3068342,0.0-9.0,23657,List2B,black,man,,,,null,,,,
null,<p>are pointing at each other</p>,,html-keyboard-response,72,3070343,0.0-10.0,23657,List2B,black,man,,,,null,,,,
583934,<p><b>Answer:</b> fred and mike are pointing at each other</p>,0,html-button-response,73,3654278,0.0-11.0,23657,List2B,black,man,,,,,,,,
13702,"<p>Ready to start the experiment?</p><br><p><strong>Remember to describe the picture using a full sentence,</strong></p><p><strong>that combines the names of the people with the given phrase.</strong></p><p><strong>If you do not do this correctly you will not be paid.</strong></p><p><strong> You do not need to capitalise names or use punctuation.</strong></p><br><p>Press 'Continue' to begin.</p>",0,html-button-response,74,3668984,0.0-12.0,23657,List2B,black,man,,,,,,,,
null,"<div style=""font-size:60px;"">+</div>",,html-keyboard-response,75,3670486,0.0-13.0-0.0,23657,List2B,black,man,,,,null,,,,
null,"<img src=""stim_listB/hug1.gif""</stim_listB>",,html-keyboard-response,76,3672488,0.0-13.0-1.0,23657,List2B,black,man,,,,null,,,,
null,is hugging,,html-keyboard-response,77,3674489,0.0-13.0-2.0,23657,List2B,black,man,,,,null,,,,
10356,,,survey-text,78,3684846,0.0-13.0-3.0,23657,List2B,black,man,,,,,"{""Q0"":""Luke is hugging Ruth""}","<img src=""stim_listB/hug1.gif""</stim_listB>",is hugging,
null,"<div style=""font-size:60px;"">+</div>",,html-keyboard-response,79,3685348,0.0-13.0-0.1,23657,List2B,black,man,,,,null,,,,
null,"<img src=""stim_listB/meet5.gif""</stim_listB>",,html-keyboard-response,80,3687349,0.0-13.0-1.1,23657,List2B,black,man,,,,null,,,,
null,is meeting,,html-keyboard-response,81,3689351,0.0-13.0-2.1,23657,List2B,black,man,,,,null,,,,
9781,,,survey-text,82,3699132,0.0-13.0-3.1,23657,List2B,black,man,,,,,"{""Q0"":""Mike is meeting Dave""}","<img src=""stim_listB/meet5.gif""</stim_listB>",is meeting,
null,"<div style=""font-size:60px;"">+</div>",,html-keyboard-response,83,3699633,0.0-13.0-0.2,23657,List2B,black,man,,,,null,,,,
null,"<img src=""stim_listB/dance2.gif""</stim_listB>",,html-keyboard-response,84,3701635,0.0-13.0-1.2,23657,List2B,black,man,,,,null,,,,
null,are dancing with each other,,html-keyboard-response,85,3703637,0.0-13.0-2.2,23657,List2B,black,man,,,,null,,,,
10492,,,survey-text,86,3714129,0.0-13.0-3.2,23657,List2B,black,man,,,,,"{""Q0"":""Dave is dancing with Ruth""}","<img src=""stim_listB/dance2.gif""</stim_listB>",are dancing with each other,
null,"<div style=""font-size:60px;"">+</div>",,html-keyboard-response,87,3714631,0.0-13.0-0.3,23657,List2B,black,man,,,,null,,,,
null,"<img src=""stim_listB/touch7.gif""</stim_listB>",,html-keyboard-response,88,3716632,0.0-13.0-1.3,23657,List2B,black,man,,,,null,,,,
null,is touching,,html-keyboard-response,89,3718633,0.0-13.0-2.3,23657,List2B,black,man,,,,null,,,,
6240,,,survey-text,90,3724875,0.0-13.0-3.3,23657,List2B,black,man,,,,,"{""Q0"":""Kate is touching Jane""}","<img src=""stim_listB/touch7.gif""</stim_listB>",is touching,
null,"<div style=""font-size:60px;"">+</div>",,html-keyboard-response,91,3725375,0.0-13.0-0.4,23657,List2B,black,man,,,,null,,,,
null,"<img src=""stim_listB/argue6.gif""</stim_listB>",,html-keyboard-response,92,3727376,0.0-13.0-1.4,23657,List2B,black,man,,,,null,,,,
null,are arguing with each other,,html-keyboard-response,93,3729377,0.0-13.0-2.4,23657,List2B,black,man,,,,null,,,,
6970,,,survey-text,94,3736348,0.0-13.0-3.4,23657,List2B,black,man,,,,,"{""Q0"":""Mike is arguing with Luke""}","<img src=""stim_listB/argue6.gif""</stim_listB>",are arguing with each other,
null,"<div style=""font-size:60px;"">+</div>",,html-keyboard-response,95,3736850,0.0-13.0-0.5,23657,List2B,black,man,,,,null,,,,
null,"<img src=""stim_listB/talk3.gif""</stim_listB>",,html-keyboard-response,96,3738851,0.0-13.0-1.5,23657,List2B,black,man,,,,null,,,,
null,is talking to,,html-keyboard-response,97,3740852,0.0-13.0-2.5,23657,List2B,black,man,,,,null,,,,
6453,,,survey-text,98,3747306,0.0-13.0-3.5,23657,List2B,black,man,,,,,"{""Q0"":""Fred is talking to Kate""}","<img src=""stim_listB/talk3.gif""</stim_listB>",is talking to,
null,"<div style=""font-size:60px;"">+</div>",,html-keyboard-response,99,3747807,0.0-13.0-0.6,23657,List2B,black,man,,,,null,,,,
null,"<img src=""stim_listB/dance4.gif""</stim_listB>",,html-keyboard-response,100,3749808,0.0-13.0-1.6,23657,List2B,black,man,,,,null,,,,
null,are dancing with each other,,html-keyboard-response,101,3751809,0.0-13.0-2.6,23657,List2B,black,man,,,,null,,,,
6354,,,survey-text,102,3758163,0.0-13.0-3.6,23657,List2B,black,man,,,,,"{""Q0"":""Mike is dancing with Beth""}","<img src=""stim_listB/dance4.gif""</stim_listB>",are dancing with each other,
null,"<div style=""font-size:60px;"">+</div>",,html-keyboard-response,103,3758666,0.0-13.0-0.7,23657,List2B,black,man,,,,null,,,,
null,"<img src=""stim_listB/fight5.gif""</stim_listB>",,html-keyboard-response,104,3760667,0.0-13.0-1.7,23657,List2B,black,man,,,,null,,,,
null,is fighting,,html-keyboard-response,105,3762668,0.0-13.0-2.7,23657,List2B,black,man,,,,null,,,,
5316,,,survey-text,106,3767984,0.0-13.0-3.7,23657,List2B,black,man,,,,,"{""Q0"":""Dave is fighting Mike""}","<img src=""stim_listB/fight5.gif""</stim_listB>",is fighting,
null,"<div style=""font-size:60px;"">+</div>",,html-keyboard-response,107,3768486,0.0-13.0-0.8,23657,List2B,black,man,,,,null,,,,
null,"<img src=""stim_listB/dance5.gif""</stim_listB>",,html-keyboard-response,108,3770488,0.0-13.0-1.8,23657,List2B,black,man,,,,null,,,,
null,is dancing with,,html-keyboard-response,109,3772489,0.0-13.0-2.8,23657,List2B,black,man,,,,null,,,,
10925,,,survey-text,110,3783414,0.0-13.0-3.8,23657,List2B,black,man,,,,,"{""Q0"":""Luke is dancing with Mike""}","<img src=""stim_listB/dance5.gif""</stim_listB>",is dancing with,
null,"<div style=""font-size:60px;"">+</div>",,html-keyboard-response,111,3783915,0.0-13.0-0.9,23657,List2B,black,man,,,,null,,,,
null,"<img src=""stim_listB/talk7.gif""</stim_listB>",,html-keyboard-response,112,3785916,0.0-13.0-1.9,23657,List2B,black,man,,,,null,,,,
null,is talking to,,html-keyboard-response,113,3787918,0.0-13.0-2.9,23657,List2B,black,man,,,,null,,,,
58415,,,survey-text,114,3846333,0.0-13.0-3.9,23657,List2B,black,man,,,,,"{""Q0"":""Kate is talking to Ruth""}","<img src=""stim_listB/talk7.gif""</stim_listB>",is talking to,
null,"<div style=""font-size:60px;"">+</div>",,html-keyboard-response,115,3846835,0.0-13.0-0.10,23657,List2B,black,man,,,,null,,,,
null,"<img src=""stim_listB/kiss4.gif""</stim_listB>",,html-keyboard-response,116,3848836,0.0-13.0-1.10,23657,List2B,black,man,,,,null,,,,
null,are kissing each other,,html-keyboard-response,117,3850837,0.0-13.0-2.10,23657,List2B,black,man,,,,null,,,,
4857,,,survey-text,118,3855695,0.0-13.0-3.10,23657,List2B,black,man,,,,,"{""Q0"":""Mike is kissing Kate""}","<img src=""stim_listB/kiss4.gif""</stim_listB>",are kissing each other,
null,"<div style=""font-size:60px;"">+</div>",,html-keyboard-response,119,3856196,0.0-13.0-0.11,23657,List2B,black,man,,,,null,,,,
null,"<img src=""stim_listB/dance7.gif""</stim_listB>",,html-keyboard-response,120,3858197,0.0-13.0-1.11,23657,List2B,black,man,,,,null,,,,
null,is dancing with,,html-keyboard-response,121,3860199,0.0-13.0-2.11,23657,List2B,black,man,,,,null,,,,
5865,,,survey-text,122,3866064,0.0-13.0-3.11,23657,List2B,black,man,,,,,"{""Q0"":""Kate is dancing with Ruth""}","<img src=""stim_listB/dance7.gif""</stim_listB>",is dancing with,
null,"<div style=""font-size:60px;"">+</div>",,html-keyboard-response,123,3866565,0.0-13.0-0.12,23657,List2B,black,man,,,,null,,,,
null,"<img src=""stim_listB/talk6.gif""</stim_listB>",,html-keyboard-response,124,3868567,0.0-13.0-1.12,23657,List2B,black,man,,,,null,,,,
null,are talking to each other,,html-keyboard-response,125,3870568,0.0-13.0-2.12,23657,List2B,black,man,,,,null,,,,
11005,,,survey-text,126,3881574,0.0-13.0-3.12,23657,List2B,black,man,,,,,"{""Q0"":""Dave and Fred are talking to each other""}","<img src=""stim_listB/talk6.gif""</stim_listB>",are talking to each other,
null,"<div style=""font-size:60px;"">+</div>",,html-keyboard-response,127,3882076,0.0-13.0-0.13,23657,List2B,black,man,,,,null,,,,
null,"<img src=""stim_listB/marry6.gif""</stim_listB>",,html-keyboard-response,128,3884077,0.0-13.0-1.13,23657,List2B,black,man,,,,null,,,,
null,are marrying each other,,html-keyboard-response,129,3886078,0.0-13.0-2.13,23657,List2B,black,man,,,,null,,,,
12322,,,survey-text,130,3898401,0.0-13.0-3.13,23657,List2B,black,man,,,,,"{""Q0"":""Mike and Luke are marrying each other""}","<img src=""stim_listB/marry6.gif""</stim_listB>",are marrying each other,
null,"<div style=""font-size:60px;"">+</div>",,html-keyboard-response,131,3898901,0.0-13.0-0.14,23657,List2B,black,man,,,,null,,,,
null,"<img src=""stim_listB/dance8.gif""</stim_listB>",,html-keyboard-response,132,3900903,0.0-13.0-1.14,23657,List2B,black,man,,,,null,,,,
null,are dancing with each other,,html-keyboard-response,133,3902904,0.0-13.0-2.14,23657,List2B,black,man,,,,null,,,,
9141,,,survey-text,134,3912045,0.0-13.0-3.14,23657,List2B,black,man,,,,,"{""Q0"":""Beth and Ruth are dancing with each other""}","<img src=""stim_listB/dance8.gif""</stim_listB>",are dancing with each other,
null,"<div style=""font-size:60px;"">+</div>",,html-keyboard-response,135,3912547,0.0-13.0-0.15,23657,List2B,black,man,,,,null,,,,
null,"<img src=""stim_listB/marry3.gif""</stim_listB>",,html-keyboard-response,136,3914548,0.0-13.0-1.15,23657,List2B,black,man,,,,null,,,,
null,is marrying,,html-keyboard-response,137,3916549,0.0-13.0-2.15,23657,List2B,black,man,,,,null,,,,
7902,,,survey-text,138,3924451,0.0-13.0-3.15,23657,List2B,black,man,,,,,"{""Q0"":""Mike is marrying Beth""}","<img src=""stim_listB/marry3.gif""</stim_listB>",is marrying,
null,"<div style=""font-size:60px;"">+</div>",,html-keyboard-response,139,3924952,0.0-13.0-0.16,23657,List2B,black,man,,,,null,,,,
null,"<img src=""stim_listB/meet3.gif""</stim_listB>",,html-keyboard-response,140,3926954,0.0-13.0-1.16,23657,List2B,black,man,,,,null,,,,
null,is meeting,,html-keyboard-response,141,3928954,0.0-13.0-2.16,23657,List2B,black,man,,,,null,,,,
7205,,,survey-text,142,3936161,0.0-13.0-3.16,23657,List2B,black,man,,,,,"{""Q0"":""Mike is meeting Kate""}","<img src=""stim_listB/meet3.gif""</stim_listB>",is meeting,
null,"<div style=""font-size:60px;"">+</div>",,html-keyboard-response,143,3936662,0.0-13.0-0.17,23657,List2B,black,man,,,,null,,,,
null,"<img src=""stim_listB/argue5.gif""</stim_listB>",,html-keyboard-response,144,3938663,0.0-13.0-1.17,23657,List2B,black,man,,,,null,,,,
null,is arguing with,,html-keyboard-response,145,3940665,0.0-13.0-2.17,23657,List2B,black,man,,,,null,,,,
52646,,,survey-text,146,3993311,0.0-13.0-3.17,23657,List2B,black,man,,,,,"{""Q0"":""Dave is arguing with Mike""}","<img src=""stim_listB/argue5.gif""</stim_listB>",is arguing with,
null,"<div style=""font-size:60px;"">+</div>",,html-keyboard-response,147,3993812,0.0-13.0-0.18,23657,List2B,black,man,,,,null,,,,
null,"<img src=""stim_listB/meet2.gif""</stim_listB>",,html-keyboard-response,148,3995813,0.0-13.0-1.18,23657,List2B,black,man,,,,null,,,,
null,are meeting each other,,html-keyboard-response,149,3997814,0.0-13.0-2.18,23657,List2B,black,man,,,,null,,,,
26813,,,survey-text,150,4024628,0.0-13.0-3.18,23657,List2B,black,man,,,,,"{""Q0"":""Luke is meeting Ruth""}","<img src=""stim_listB/meet2.gif""</stim_listB>",are meeting each other,
null,"<div style=""font-size:60px;"">+</div>",,html-keyboard-response,151,4025130,0.0-13.0-0.19,23657,List2B,black,man,,,,null,,,,
null,"<img src=""stim_listB/argue2.gif""</stim_listB>",,html-keyboard-response,152,4027131,0.0-13.0-1.19,23657,List2B,black,man,,,,null,,,,
null,are arguing with each other,,html-keyboard-response,153,4029132,0.0-13.0-2.19,23657,List2B,black,man,,,,null,,,,
7665,,,survey-text,154,4036797,0.0-13.0-3.19,23657,List2B,black,man,,,,,"{""Q0"":""Luke is arguing with Jane""}","<img src=""stim_listB/argue2.gif""</stim_listB>",are arguing with each other,
8560,"<img src='img/portrait_matrix_list2.JPG' style='width:900px;height:500px;''></img><p>If you have memorised all the portraits and names and are ready to start, press Continue.</p><p><strong>Please note: Your memory of these faces will be tested 4 times during this experiment.</strong></p>",0,html-button-response,155,4045358,0.0-14.0-0.0,23657,List2B,black,man,,,,,,,,
1853,"<img src=""portrait/BW1.jpg""style=""width:400px;height:400px;""></img>",0,html-button-response,156,4048215,0.0-14.0-1.0,23657,List2B,black,man,,TRUE,0,,,,,
null,CORRECT,,html-keyboard-response,157,4049718,0.0-14.0-2.0-0.0,23657,List2B,black,man,,,,null,,,,
1464,"<img src=""portrait/WM2.jpg""style=""width:400px;height:400px;""></img>",7,html-button-response,158,4051183,0.0-14.0-4.0,23657,List2B,black,man,,TRUE,7,,,,,
null,CORRECT,,html-keyboard-response,159,4052685,0.0-14.0-5.0-0.0,23657,List2B,black,man,,,,null,,,,
1614,"<img src=""portrait/WW1.jpg""style=""width:400px;height:400px;""></img>",1,html-button-response,160,4054300,0.0-14.0-7.0,23657,List2B,black,man,,TRUE,1,,,,,
null,CORRECT,,html-keyboard-response,161,4055802,0.0-14.0-8.0-0.0,23657,List2B,black,man,,,,null,,,,
1497,"<img src=""portrait/WM1.jpg""style=""width:400px;height:400px;""></img>",6,html-button-response,162,4057300,0.0-14.0-10.0,23657,List2B,black,man,,TRUE,6,,,,,
null,CORRECT,,html-keyboard-response,163,4058802,0.0-14.0-11.0-0.0,23657,List2B,black,man,,,,null,,,,
1141,"<img src=""portrait/BM1.jpg""style=""width:400px;height:400px;""></img>",4,html-button-response,164,4059944,0.0-14.0-13.0,23657,List2B,black,man,,TRUE,4,,,,,
null,CORRECT,,html-keyboard-response,165,4061447,0.0-14.0-14.0-0.0,23657,List2B,black,man,,,,null,,,,
2133,"<img src=""portrait/BM2.jpg""style=""width:400px;height:400px;""></img>",5,html-button-response,166,4063581,0.0-14.0-16.0,23657,List2B,black,man,,TRUE,5,,,,,
null,CORRECT,,html-keyboard-response,167,4065083,0.0-14.0-17.0-0.0,23657,List2B,black,man,,,,null,,,,
1678,"<img src=""portrait/BW2.jpg""style=""width:400px;height:400px;""></img>",2,html-button-response,168,4066761,0.0-14.0-19.0,23657,List2B,black,man,,TRUE,2,,,,,
null,CORRECT,,html-keyboard-response,169,4068264,0.0-14.0-20.0-0.0,23657,List2B,black,man,,,,null,,,,
1485,"<img src=""portrait/WW2.jpg""style=""width:400px;height:400px;""></img>",3,html-button-response,170,4069750,0.0-14.0-22.0,23657,List2B,black,man,,TRUE,3,,,,,
null,CORRECT,,html-keyboard-response,171,4071252,0.0-14.0-23.0-0.0,23657,List2B,black,man,,,,null,,,,
1277,<p>You got 8 out of 8 right first time. Press Continue.</p>,0,html-button-response,172,4072530,0.0-14.0-25.0,23657,List2B,black,man,,,,,,,,
null,"<div style=""font-size:60px;"">+</div>",,html-keyboard-response,173,4074033,0.0-15.0-0.0,23657,List2B,black,man,,,,null,,,,
null,"<img src=""stim_listB/talk2.gif""</stim_listB>",,html-keyboard-response,174,4076034,0.0-15.0-1.0,23657,List2B,black,man,,,,null,,,,
null,are talking to each other,,html-keyboard-response,175,4078035,0.0-15.0-2.0,23657,List2B,black,man,,,,null,,,,
9568,,,survey-text,176,4087604,0.0-15.0-3.0,23657,List2B,black,man,,,,,"{""Q0"":""Dave and Ruth are talking to each other""}","<img src=""stim_listB/talk2.gif""</stim_listB>",are talking to each other,
null,"<div style=""font-size:60px;"">+</div>",,html-keyboard-response,177,4088105,0.0-15.0-0.1,23657,List2B,black,man,,,,null,,,,
null,"<img src=""stim_listB/kiss6.gif""</stim_listB>",,html-keyboard-response,178,4090107,0.0-15.0-1.1,23657,List2B,black,man,,,,null,,,,
null,are kissing each other,,html-keyboard-response,179,4092108,0.0-15.0-2.1,23657,List2B,black,man,,,,null,,,,
11864,,,survey-text,180,4103973,0.0-15.0-3.1,23657,List2B,black,man,,,,,"{""Q0"":""Mike and Dave are kissing each other""}","<img src=""stim_listB/kiss6.gif""</stim_listB>",are kissing each other,
null,"<div style=""font-size:60px;"">+</div>",,html-keyboard-response,181,4104474,0.0-15.0-0.2,23657,List2B,black,man,,,,null,,,,
null,"<img src=""stim_listB/meet8.gif""</stim_listB>",,html-keyboard-response,182,4106475,0.0-15.0-1.2,23657,List2B,black,man,,,,null,,,,
null,are meeting each other,,html-keyboard-response,183,4108476,0.0-15.0-2.2,23657,List2B,black,man,,,,null,,,,
6546,,,survey-text,184,4115023,0.0-15.0-3.2,23657,List2B,black,man,,,,,"{""Q0"":""Beth and Ruth are meeting each other""}","<img src=""stim_listB/meet8.gif""</stim_listB>",are meeting each other,
null,"<div style=""font-size:60px;"">+</div>",,html-keyboard-response,185,4115524,0.0-15.0-0.3,23657,List2B,black,man,,,,null,,,,
null,"<img src=""stim_listB/fight6.gif""</stim_listB>",,html-keyboard-response,186,4117526,0.0-15.0-1.3,23657,List2B,black,man,,,,null,,,,
null,are fighting each other,,html-keyboard-response,187,4119527,0.0-15.0-2.3,23657,List2B,black,man,,,,null,,,,
10897,,,survey-text,188,4130425,0.0-15.0-3.3,23657,List2B,black,man,,,,,"{""Q0"":""Fred and Luke are fighting each other""}","<img src=""stim_listB/fight6.gif""</stim_listB>",are fighting each other,
null,"<div style=""font-size:60px;"">+</div>",,html-keyboard-response,189,4130926,0.0-15.0-0.4,23657,List2B,black,man,,,,null,,,,
null,"<img src=""stim_listB/shout6.gif""</stim_listB>",,html-keyboard-response,190,4132927,0.0-15.0-1.4,23657,List2B,black,man,,,,null,,,,
null,are shouting at each other,,html-keyboard-response,191,4134928,0.0-15.0-2.4,23657,List2B,black,man,,,,null,,,,
7498,,,survey-text,192,4142427,0.0-15.0-3.4,23657,List2B,black,man,,,,,"{""Q0"":""Mike and Dave are shouting at each other""}","<img src=""stim_listB/shout6.gif""</stim_listB>",are shouting at each other,
null,"<div style=""font-size:60px;"">+</div>",,html-keyboard-response,193,4142928,0.0-15.0-0.5,23657,List2B,black,man,,,,null,,,,
null,"<img src=""stim_listB/hug4.gif""</stim_listB>",,html-keyboard-response,194,4144930,0.0-15.0-1.5,23657,List2B,black,man,,,,null,,,,
null,are hugging each other,,html-keyboard-response,195,4146931,0.0-15.0-2.5,23657,List2B,black,man,,,,null,,,,
6608,,,survey-text,196,4153540,0.0-15.0-3.5,23657,List2B,black,man,,,,,"{""Q0"":""Mike and Kate are hugging each other""}","<img src=""stim_listB/hug4.gif""</stim_listB>",are hugging each other,
null,"<div style=""font-size:60px;"">+</div>",,html-keyboard-response,197,4154041,0.0-15.0-0.6,23657,List2B,black,man,,,,null,,,,
null,"<img src=""stim_listB/kiss5.gif""</stim_listB>",,html-keyboard-response,198,4156041,0.0-15.0-1.6,23657,List2B,black,man,,,,null,,,,
null,is kissing,,html-keyboard-response,199,4158042,0.0-15.0-2.6,23657,List2B,black,man,,,,null,,,,
5542,,,survey-text,200,4163585,0.0-15.0-3.6,23657,List2B,black,man,,,,,"{""Q0"":""Luke is kissing Fred""}","<img src=""stim_listB/kiss5.gif""</stim_listB>",is kissing,
null,"<div style=""font-size:60px;"">+</div>",,html-keyboard-response,201,4164086,0.0-15.0-0.7,23657,List2B,black,man,,,,null,,,,
null,"<img src=""stim_listB/fight4.gif""</stim_listB>",,html-keyboard-response,202,4166088,0.0-15.0-1.7,23657,List2B,black,man,,,,null,,,,
null,are fighting each other,,html-keyboard-response,203,4168089,0.0-15.0-2.7,23657,List2B,black,man,,,,null,,,,
7169,,,survey-text,204,4175258,0.0-15.0-3.7,23657,List2B,black,man,,,,,"{""Q0"":""Fred and Beth are fighting each other""}","<img src=""stim_listB/fight4.gif""</stim_listB>",are fighting each other,
null,"<div style=""font-size:60px;"">+</div>",,html-keyboard-response,205,4175760,0.0-15.0-0.8,23657,List2B,black,man,,,,null,,,,
null,"<img src=""stim_listB/argue3.gif""</stim_listB>",,html-keyboard-response,206,4177761,0.0-15.0-1.8,23657,List2B,black,man,,,,null,,,,
null,is arguing with,,html-keyboard-response,207,4179762,0.0-15.0-2.8,23657,List2B,black,man,,,,null,,,,
5309,,,survey-text,208,4185072,0.0-15.0-3.8,23657,List2B,black,man,,,,,"{""Q0"":""Mike is arguing with Beth""}","<img src=""stim_listB/argue3.gif""</stim_listB>",is arguing with,
null,"<div style=""font-size:60px;"">+</div>",,html-keyboard-response,209,4185573,0.0-15.0-0.9,23657,List2B,black,man,,,,null,,,,
null,"<img src=""stim_listB/meet6.gif""</stim_listB>",,html-keyboard-response,210,4187574,0.0-15.0-1.9,23657,List2B,black,man,,,,null,,,,
null,are meeting each other,,html-keyboard-response,211,4189575,0.0-15.0-2.9,23657,List2B,black,man,,,,null,,,,
6518,,,survey-text,212,4196093,0.0-15.0-3.9,23657,List2B,black,man,,,,,"{""Q0"":""Fred and Luke are meeting each other""}","<img src=""stim_listB/meet6.gif""</stim_listB>",are meeting each other,
null,"<div style=""font-size:60px;"">+</div>",,html-keyboard-response,213,4196595,0.0-15.0-0.10,23657,List2B,black,man,,,,null,,,,
null,"<img src=""stim_listB/talk5.gif""</stim_listB>",,html-keyboard-response,214,4198596,0.0-15.0-1.10,23657,List2B,black,man,,,,null,,,,
null,is talking to,,html-keyboard-response,215,4200598,0.0-15.0-2.10,23657,List2B,black,man,,,,null,,,,
6180,,,survey-text,216,4206779,0.0-15.0-3.10,23657,List2B,black,man,,,,,"{""Q0"":""Luke is talking to Mike""}","<img src=""stim_listB/talk5.gif""</stim_listB>",is talking to,
null,"<div style=""font-size:60px;"">+</div>",,html-keyboard-response,217,4207280,0.0-15.0-0.11,23657,List2B,black,man,,,,null,,,,
null,"<img src=""stim_listB/marry2.gif""</stim_listB>",,html-keyboard-response,218,4209281,0.0-15.0-1.11,23657,List2B,black,man,,,,null,,,,
null,are marrying each other,,html-keyboard-response,219,4211282,0.0-15.0-2.11,23657,List2B,black,man,,,,null,,,,
6596,,,survey-text,220,4217879,0.0-15.0-3.11,23657,List2B,black,man,,,,,"{""Q0"":""Luke is marrying Jane""}","<img src=""stim_listB/marry2.gif""</stim_listB>",are marrying each other,
null,"<div style=""font-size:60px;"">+</div>",,html-keyboard-response,221,4218380,0.0-15.0-0.12,23657,List2B,black,man,,,,null,,,,
null,"<img src=""stim_listB/hug6.gif""</stim_listB>",,html-keyboard-response,222,4220381,0.0-15.0-1.12,23657,List2B,black,man,,,,null,,,,
null,are hugging each other,,html-keyboard-response,223,4222382,0.0-15.0-2.12,23657,List2B,black,man,,,,null,,,,
10330,,,survey-text,224,4232713,0.0-15.0-3.12,23657,List2B,black,man,,,,,"{""Q0"":""Mike and Dave are hugging each other""}","<img src=""stim_listB/hug6.gif""</stim_listB>",are hugging each other,
null,"<div style=""font-size:60px;"">+</div>",,html-keyboard-response,225,4233214,0.0-15.0-0.13,23657,List2B,black,man,,,,null,,,,
null,"<img src=""stim_listB/talk1.gif""</stim_listB>",,html-keyboard-response,226,4235216,0.0-15.0-1.13,23657,List2B,black,man,,,,null,,,,
null,is talking to,,html-keyboard-response,227,4237217,0.0-15.0-2.13,23657,List2B,black,man,,,,null,,,,
22470,,,survey-text,228,4259689,0.0-15.0-3.13,23657,List2B,black,man,,,,,"{""Q0"":""luke and Jane are talking to each other""}","<img src=""stim_listB/talk1.gif""</stim_listB>",is talking to,
null,"<div style=""font-size:60px;"">+</div>",,html-keyboard-response,229,4260190,0.0-15.0-0.14,23657,List2B,black,man,,,,null,,,,
null,"<img src=""stim_listB/argue4.gif""</stim_listB>",,html-keyboard-response,230,4262192,0.0-15.0-1.14,23657,List2B,black,man,,,,null,,,,
null,are arguing with each other,,html-keyboard-response,231,4264193,0.0-15.0-2.14,23657,List2B,black,man,,,,null,,,,
16326,,,survey-text,232,4280519,0.0-15.0-3.14,23657,List2B,black,man,,,,,"{""Q0"":""Fred and Kate are arguing with each other""}","<img src=""stim_listB/argue4.gif""</stim_listB>",are arguing with each other,
null,"<div style=""font-size:60px;"">+</div>",,html-keyboard-response,233,4281021,0.0-15.0-0.15,23657,List2B,black,man,,,,null,,,,
null,"<img src=""stim_listB/touch3.gif""</stim_listB>",,html-keyboard-response,234,4283022,0.0-15.0-1.15,23657,List2B,black,man,,,,null,,,,
null,is touching,,html-keyboard-response,235,4285023,0.0-15.0-2.15,23657,List2B,black,man,,,,null,,,,
9041,,,survey-text,236,4294065,0.0-15.0-3.15,23657,List2B,black,man,,,,,"{""Q0"":""Kate is touching Mike""}","<img src=""stim_listB/touch3.gif""</stim_listB>",is touching,
null,"<div style=""font-size:60px;"">+</div>",,html-keyboard-response,237,4294566,0.0-15.0-0.16,23657,List2B,black,man,,,,null,,,,
null,"<img src=""stim_listB/argue8.gif""</stim_listB>",,html-keyboard-response,238,4296568,0.0-15.0-1.16,23657,List2B,black,man,,,,null,,,,
null,are arguing with each other,,html-keyboard-response,239,4298569,0.0-15.0-2.16,23657,List2B,black,man,,,,null,,,,
9673,,,survey-text,240,4308243,0.0-15.0-3.16,23657,List2B,black,man,,,,,"{""Q0"":""Kate and Jane are arguing with each other""}","<img src=""stim_listB/argue8.gif""</stim_listB>",are arguing with each other,
null,"<div style=""font-size:60px;"">+</div>",,html-keyboard-response,241,4308744,0.0-15.0-0.17,23657,List2B,black,man,,,,null,,,,
null,"<img src=""stim_listB/dance1.gif""</stim_listB>",,html-keyboard-response,242,4310745,0.0-15.0-1.17,23657,List2B,black,man,,,,null,,,,
null,is dancing with,,html-keyboard-response,243,4312746,0.0-15.0-2.17,23657,List2B,black,man,,,,null,,,,
8841,,,survey-text,244,4321589,0.0-15.0-3.17,23657,List2B,black,man,,,,,"{""Q0"":""Jane is dancing with Luke""}","<img src=""stim_listB/dance1.gif""</stim_listB>",is dancing with,
null,"<div style=""font-size:60px;"">+</div>",,html-keyboard-response,245,4322090,0.0-15.0-0.18,23657,List2B,black,man,,,,null,,,,
null,"<img src=""stim_listB/marry4.gif""</stim_listB>",,html-keyboard-response,246,4324091,0.0-15.0-1.18,23657,List2B,black,man,,,,null,,,,
null,are marrying each other,,html-keyboard-response,247,4326091,0.0-15.0-2.18,23657,List2B,black,man,,,,null,,,,
9782,,,survey-text,248,4335875,0.0-15.0-3.18,23657,List2B,black,man,,,,,"{""Q0"":""Fred and Kate are marrying each other""}","<img src=""stim_listB/marry4.gif""</stim_listB>",are marrying each other,
null,"<div style=""font-size:60px;"">+</div>",,html-keyboard-response,249,4336376,0.0-15.0-0.19,23657,List2B,black,man,,,,null,,,,
null,"<img src=""stim_listB/touch8.gif""</stim_listB>",,html-keyboard-response,250,4338377,0.0-15.0-1.19,23657,List2B,black,man,,,,null,,,,
null,are touching each other,,html-keyboard-response,251,4340378,0.0-15.0-2.19,23657,List2B,black,man,,,,null,,,,
9018,,,survey-text,252,4349396,0.0-15.0-3.19,23657,List2B,black,man,,,,,"{""Q0"":""Beth and Jane are touching each other""}","<img src=""stim_listB/touch8.gif""</stim_listB>",are touching each other,
24942,"<img src='img/portrait_matrix_list2.JPG' style='width:900px;height:500px;''></img><p>If you have memorised all the portraits and names and are ready to start, press Continue.</p><p><strong>Please note: Your memory of these faces will be tested 4 times during this experiment.</strong></p>",0,html-button-response,253,4374339,0.0-16.0-0.0,23657,List2B,black,man,,,,,,,,
1951,"<img src=""portrait/BW1.jpg""style=""width:400px;height:400px;""></img>",0,html-button-response,254,4377292,0.0-16.0-1.0,23657,List2B,black,man,,TRUE,0,,,,,
null,CORRECT,,html-keyboard-response,255,4378793,0.0-16.0-2.0-0.0,23657,List2B,black,man,,,,null,,,,
3653,"<img src=""portrait/WM1.jpg""style=""width:400px;height:400px;""></img>",6,html-button-response,256,4382449,0.0-16.0-4.0,23657,List2B,black,man,,TRUE,6,,,,,
null,CORRECT,,html-keyboard-response,257,4383952,0.0-16.0-5.0-0.0,23657,List2B,black,man,,,,null,,,,
1212,"<img src=""portrait/BW2.jpg""style=""width:400px;height:400px;""></img>",2,html-button-response,258,4385165,0.0-16.0-7.0,23657,List2B,black,man,,TRUE,2,,,,,
null,CORRECT,,html-keyboard-response,259,4386666,0.0-16.0-8.0-0.0,23657,List2B,black,man,,,,null,,,,
1542,"<img src=""portrait/WM2.jpg""style=""width:400px;height:400px;""></img>",7,html-button-response,260,4388210,0.0-16.0-10.0,23657,List2B,black,man,,TRUE,7,,,,,
null,CORRECT,,html-keyboard-response,261,4389712,0.0-16.0-11.0-0.0,23657,List2B,black,man,,,,null,,,,
3442,"<img src=""portrait/WW1.jpg""style=""width:400px;height:400px;""></img>",1,html-button-response,262,4393154,0.0-16.0-13.0,23657,List2B,black,man,,TRUE,1,,,,,
null,CORRECT,,html-keyboard-response,263,4394657,0.0-16.0-14.0-0.0,23657,List2B,black,man,,,,null,,,,
1344,"<img src=""portrait/WW2.jpg""style=""width:400px;height:400px;""></img>",3,html-button-response,264,4396003,0.0-16.0-16.0,23657,List2B,black,man,,TRUE,3,,,,,
null,CORRECT,,html-keyboard-response,265,4397504,0.0-16.0-17.0-0.0,23657,List2B,black,man,,,,null,,,,
1517,"<img src=""portrait/BM1.jpg""style=""width:400px;height:400px;""></img>",4,html-button-response,266,4399022,0.0-16.0-19.0,23657,List2B,black,man,,TRUE,4,,,,,
null,CORRECT,,html-keyboard-response,267,4400525,0.0-16.0-20.0-0.0,23657,List2B,black,man,,,,null,,,,
2621,"<img src=""portrait/BM2.jpg""style=""width:400px;height:400px;""></img>",5,html-button-response,268,4403147,0.0-16.0-22.0,23657,List2B,black,man,,TRUE,5,,,,,
null,CORRECT,,html-keyboard-response,269,4404648,0.0-16.0-23.0-0.0,23657,List2B,black,man,,,,null,,,,
1382,<p>You got 8 out of 8 right first time. Press Continue.</p>,0,html-button-response,270,4406031,0.0-16.0-25.0,23657,List2B,black,man,,,,,,,,
null,"<div style=""font-size:60px;"">+</div>",,html-keyboard-response,271,4407533,0.0-17.0-0.0,23657,List2B,black,man,,,,null,,,,
null,"<img src=""stim_listB/kiss7.gif""</stim_listB>",,html-keyboard-response,272,4409536,0.0-17.0-1.0,23657,List2B,black,man,,,,null,,,,
null,is kissing,,html-keyboard-response,273,4411537,0.0-17.0-2.0,23657,List2B,black,man,,,,null,,,,
13948,,,survey-text,274,4425486,0.0-17.0-3.0,23657,List2B,black,man,,,,,"{""Q0"":""Beth is kissing Ruth""}","<img src=""stim_listB/kiss7.gif""</stim_listB>",is kissing,
null,"<div style=""font-size:60px;"">+</div>",,html-keyboard-response,275,4425987,0.0-17.0-0.1,23657,List2B,black,man,,,,null,,,,
null,"<img src=""stim_listB/shout3.gif""</stim_listB>",,html-keyboard-response,276,4427989,0.0-17.0-1.1,23657,List2B,black,man,,,,null,,,,
null,is shouting at,,html-keyboard-response,277,4429990,0.0-17.0-2.1,23657,List2B,black,man,,,,null,,,,
6064,,,survey-text,278,4436055,0.0-17.0-3.1,23657,List2B,black,man,,,,,"{""Q0"":""Fred is shouting at Beth""}","<img src=""stim_listB/shout3.gif""</stim_listB>",is shouting at,
null,"<div style=""font-size:60px;"">+</div>",,html-keyboard-response,279,4436556,0.0-17.0-0.2,23657,List2B,black,man,,,,null,,,,
null,"<img src=""stim_listB/shout5.gif""</stim_listB>",,html-keyboard-response,280,4438557,0.0-17.0-1.2,23657,List2B,black,man,,,,null,,,,
null,is shouting at,,html-keyboard-response,281,4440558,0.0-17.0-2.2,23657,List2B,black,man,,,,null,,,,
5493,,,survey-text,282,4446052,0.0-17.0-3.2,23657,List2B,black,man,,,,,"{""Q0"":""Luke is shouting at Fred""}","<img src=""stim_listB/shout5.gif""</stim_listB>",is shouting at,
null,"<div style=""font-size:60px;"">+</div>",,html-keyboard-response,283,4446554,0.0-17.0-0.3,23657,List2B,black,man,,,,null,,,,
null,"<img src=""stim_listB/hug5.gif""</stim_listB>",,html-keyboard-response,284,4448555,0.0-17.0-1.3,23657,List2B,black,man,,,,null,,,,
null,is hugging,,html-keyboard-response,285,4450557,0.0-17.0-2.3,23657,List2B,black,man,,,,null,,,,
7667,,,survey-text,286,4458225,0.0-17.0-3.3,23657,List2B,black,man,,,,,"{""Q0"":""Fred is hugging Luke ""}","<img src=""stim_listB/hug5.gif""</stim_listB>",is hugging,
null,"<div style=""font-size:60px;"">+</div>",,html-keyboard-response,287,4458727,0.0-17.0-0.4,23657,List2B,black,man,,,,null,,,,
null,"<img src=""stim_listB/shout7.gif""</stim_listB>",,html-keyboard-response,288,4460728,0.0-17.0-1.4,23657,List2B,black,man,,,,null,,,,
null,is shouting at,,html-keyboard-response,289,4462731,0.0-17.0-2.4,23657,List2B,black,man,,,,null,,,,
6283,,,survey-text,290,4469015,0.0-17.0-3.4,23657,List2B,black,man,,,,,"{""Q0"":""Beth is shouting at Ruth""}","<img src=""stim_listB/shout7.gif""</stim_listB>",is shouting at,
null,"<div style=""font-size:60px;"">+</div>",,html-keyboard-response,291,4469516,0.0-17.0-0.5,23657,List2B,black,man,,,,null,,,,
null,"<img src=""stim_listB/touch5.gif""</stim_listB>",,html-keyboard-response,292,4471518,0.0-17.0-1.5,23657,List2B,black,man,,,,null,,,,
null,is touching,,html-keyboard-response,293,4473519,0.0-17.0-2.5,23657,List2B,black,man,,,,null,,,,
5557,,,survey-text,294,4479076,0.0-17.0-3.5,23657,List2B,black,man,,,,,"{""Q0"":""Dave is touching Mike""}","<img src=""stim_listB/touch5.gif""</stim_listB>",is touching,
null,"<div style=""font-size:60px;"">+</div>",,html-keyboard-response,295,4479577,0.0-17.0-0.6,23657,List2B,black,man,,,,null,,,,
null,"<img src=""stim_listB/shout2.gif""</stim_listB>",,html-keyboard-response,296,4481579,0.0-17.0-1.6,23657,List2B,black,man,,,,null,,,,
null,are shouting at each other,,html-keyboard-response,297,4483581,0.0-17.0-2.6,23657,List2B,black,man,,,,null,,,,
8557,,,survey-text,298,4492138,0.0-17.0-3.6,23657,List2B,black,man,,,,,"{""Q0"":""Jane and Dave are shouting at each other""}","<img src=""stim_listB/shout2.gif""</stim_listB>",are shouting at each other,
null,"<div style=""font-size:60px;"">+</div>",,html-keyboard-response,299,4492639,0.0-17.0-0.7,23657,List2B,black,man,,,,null,,,,
null,"<img src=""stim_listB/fight7.gif""</stim_listB>",,html-keyboard-response,300,4494640,0.0-17.0-1.7,23657,List2B,black,man,,,,null,,,,
null,is fighting,,html-keyboard-response,301,4496641,0.0-17.0-2.7,23657,List2B,black,man,,,,null,,,,
5974,,,survey-text,302,4502616,0.0-17.0-3.7,23657,List2B,black,man,,,,,"{""Q0"":""Jane is fighting Kate""}","<img src=""stim_listB/fight7.gif""</stim_listB>",is fighting,
null,"<div style=""font-size:60px;"">+</div>",,html-keyboard-response,303,4503116,0.0-17.0-0.8,23657,List2B,black,man,,,,null,,,,
null,"<img src=""stim_listB/kiss1.gif""</stim_listB>",,html-keyboard-response,304,4505117,0.0-17.0-1.8,23657,List2B,black,man,,,,null,,,,
null,is kissing,,html-keyboard-response,305,4507119,0.0-17.0-2.8,23657,List2B,black,man,,,,null,,,,
4925,,,survey-text,306,4512045,0.0-17.0-3.8,23657,List2B,black,man,,,,,"{""Q0"":""Ruth is kissing Luke""}","<img src=""stim_listB/kiss1.gif""</stim_listB>",is kissing,
null,"<div style=""font-size:60px;"">+</div>",,html-keyboard-response,307,4512546,0.0-17.0-0.9,23657,List2B,black,man,,,,null,,,,
null,"<img src=""stim_listB/shout1.gif""</stim_listB>",,html-keyboard-response,308,4514548,0.0-17.0-1.9,23657,List2B,black,man,,,,null,,,,
null,is shouting at,,html-keyboard-response,309,4516549,0.0-17.0-2.9,23657,List2B,black,man,,,,null,,,,
19040,,,survey-text,310,4535590,0.0-17.0-3.9,23657,List2B,black,man,,,,,"{""Q0"":""Luke and Ruth are shouting at each other""}","<img src=""stim_listB/shout1.gif""</stim_listB>",is shouting at,
null,"<div style=""font-size:60px;"">+</div>",,html-keyboard-response,311,4536091,0.0-17.0-0.10,23657,List2B,black,man,,,,null,,,,
null,"<img src=""stim_listB/marry1.gif""</stim_listB>",,html-keyboard-response,312,4538093,0.0-17.0-1.10,23657,List2B,black,man,,,,null,,,,
null,is marrying,,html-keyboard-response,313,4540095,0.0-17.0-2.10,23657,List2B,black,man,,,,null,,,,
8644,,,survey-text,314,4548740,0.0-17.0-3.10,23657,List2B,black,man,,,,,"{""Q0"":""Dave is marrying Ruth ""}","<img src=""stim_listB/marry1.gif""</stim_listB>",is marrying,
null,"<div style=""font-size:60px;"">+</div>",,html-keyboard-response,315,4549241,0.0-17.0-0.11,23657,List2B,black,man,,,,null,,,,
null,"<img src=""stim_listB/kiss8.gif""</stim_listB>",,html-keyboard-response,316,4551243,0.0-17.0-1.11,23657,List2B,black,man,,,,null,,,,
null,are kissing each other,,html-keyboard-response,317,4553243,0.0-17.0-2.11,23657,List2B,black,man,,,,null,,,,
10506,,,survey-text,318,4563750,0.0-17.0-3.11,23657,List2B,black,man,,,,,"{""Q0"":""Jane and Kate are kissing each other""}","<img src=""stim_listB/kiss8.gif""</stim_listB>",are kissing each other,
null,"<div style=""font-size:60px;"">+</div>",,html-keyboard-response,319,4564252,0.0-17.0-0.12,23657,List2B,black,man,,,,null,,,,
null,"<img src=""stim_listB/touch4.gif""</stim_listB>",,html-keyboard-response,320,4566253,0.0-17.0-1.12,23657,List2B,black,man,,,,null,,,,
null,are touching each other,,html-keyboard-response,321,4568255,0.0-17.0-2.12,23657,List2B,black,man,,,,null,,,,
8008,,,survey-text,322,4576264,0.0-17.0-3.12,23657,List2B,black,man,,,,,"{""Q0"":""Fred and Beth are touching each other""}","<img src=""stim_listB/touch4.gif""</stim_listB>",are touching each other,
null,"<div style=""font-size:60px;"">+</div>",,html-keyboard-response,323,4576765,0.0-17.0-0.13,23657,List2B,black,man,,,,null,,,,
null,"<img src=""stim_listB/dance6.gif""</stim_listB>",,html-keyboard-response,324,4578766,0.0-17.0-1.13,23657,List2B,black,man,,,,null,,,,
null,are dancing with each other,,html-keyboard-response,325,4580767,0.0-17.0-2.13,23657,List2B,black,man,,,,null,,,,
7450,,,survey-text,326,4588217,0.0-17.0-3.13,23657,List2B,black,man,,,,,"{""Q0"":""Fred and Dave are dancing with each other""}","<img src=""stim_listB/dance6.gif""</stim_listB>",are dancing with each other,
null,"<div style=""font-size:60px;"">+</div>",,html-keyboard-response,327,4588718,0.0-17.0-0.14,23657,List2B,black,man,,,,null,,,,
null,"<img src=""stim_listB/marry5.gif""</stim_listB>",,html-keyboard-response,328,4590719,0.0-17.0-1.14,23657,List2B,black,man,,,,null,,,,
null,is marrying,,html-keyboard-response,329,4592720,0.0-17.0-2.14,23657,List2B,black,man,,,,null,,,,
6414,,,survey-text,330,4599134,0.0-17.0-3.14,23657,List2B,black,man,,,,,"{""Q0"":""Dave is marrying Fred""}","<img src=""stim_listB/marry5.gif""</stim_listB>",is marrying,
null,"<div style=""font-size:60px;"">+</div>",,html-keyboard-response,331,4599635,0.0-17.0-0.15,23657,List2B,black,man,,,,null,,,,
null,"<img src=""stim_listB/touch2.gif""</stim_listB>",,html-keyboard-response,332,4601637,0.0-17.0-1.15,23657,List2B,black,man,,,,null,,,,
null,are touching each other,,html-keyboard-response,333,4603638,0.0-17.0-2.15,23657,List2B,black,man,,,,null,,,,
9970,,,survey-text,334,4613608,0.0-17.0-3.15,23657,List2B,black,man,,,,,"{""Q0"":""Luke and Ruth are touching each other""}","<img src=""stim_listB/touch2.gif""</stim_listB>",are touching each other,
null,"<div style=""font-size:60px;"">+</div>",,html-keyboard-response,335,4614110,0.0-17.0-0.16,23657,List2B,black,man,,,,null,,,,
null,"<img src=""stim_listB/fight2.gif""</stim_listB>",,html-keyboard-response,336,4616112,0.0-17.0-1.16,23657,List2B,black,man,,,,null,,,,
null,are fighting each other,,html-keyboard-response,337,4618112,0.0-17.0-2.16,23657,List2B,black,man,,,,null,,,,
7369,,,survey-text,338,4625482,0.0-17.0-3.16,23657,List2B,black,man,,,,,"{""Q0"":""Ruth is fighting Luke""}","<img src=""stim_listB/fight2.gif""</stim_listB>",are fighting each other,
null,"<div style=""font-size:60px;"">+</div>",,html-keyboard-response,339,4625983,0.0-17.0-0.17,23657,List2B,black,man,,,,null,,,,
null,"<img src=""stim_listB/kiss2.gif""</stim_listB>",,html-keyboard-response,340,4627985,0.0-17.0-1.17,23657,List2B,black,man,,,,null,,,,
null,are kissing each other,,html-keyboard-response,341,4629987,0.0-17.0-2.17,23657,List2B,black,man,,,,null,,,,
9275,,,survey-text,342,4639263,0.0-17.0-3.17,23657,List2B,black,man,,,,,"{""Q0"":""Dave and Jane are kissing each other""}","<img src=""stim_listB/kiss2.gif""</stim_listB>",are kissing each other,
null,"<div style=""font-size:60px;"">+</div>",,html-keyboard-response,343,4639764,0.0-17.0-0.18,23657,List2B,black,man,,,,null,,,,
null,"<img src=""stim_listB/hug8.gif""</stim_listB>",,html-keyboard-response,344,4641765,0.0-17.0-1.18,23657,List2B,black,man,,,,null,,,,
null,are hugging each other,,html-keyboard-response,345,4643766,0.0-17.0-2.18,23657,List2B,black,man,,,,null,,,,
9395,,,survey-text,346,4653161,0.0-17.0-3.18,23657,List2B,black,man,,,,,"{""Q0"":""Kate and Jane are hugging each other""}","<img src=""stim_listB/hug8.gif""</stim_listB>",are hugging each other,
null,"<div style=""font-size:60px;"">+</div>",,html-keyboard-response,347,4653662,0.0-17.0-0.19,23657,List2B,black,man,,,,null,,,,
null,"<img src=""stim_listB/shout4.gif""</stim_listB>",,html-keyboard-response,348,4655663,0.0-17.0-1.19,23657,List2B,black,man,,,,null,,,,
null,are shouting at each other,,html-keyboard-response,349,4657664,0.0-17.0-2.19,23657,List2B,black,man,,,,null,,,,
10038,,,survey-text,350,4667703,0.0-17.0-3.19,23657,List2B,black,man,,,,,"{""Q0"":""Mike and Kate are shouting at each other""}","<img src=""stim_listB/shout4.gif""</stim_listB>",are shouting at each other,
3172,"<img src='img/portrait_matrix_list2.JPG' style='width:900px;height:500px;''></img><p>If you have memorised all the portraits and names and are ready to start, press Continue.</p><p><strong>Please note: Your memory of these faces will be tested 4 times during this experiment.</strong></p>",0,html-button-response,351,4670875,0.0-18.0-0.0,23657,List2B,black,man,,,,,,,,
1936,"<img src=""portrait/BW1.jpg""style=""width:400px;height:400px;""></img>",0,html-button-response,352,4673812,0.0-18.0-1.0,23657,List2B,black,man,,TRUE,0,,,,,
null,CORRECT,,html-keyboard-response,353,4675315,0.0-18.0-2.0-0.0,23657,List2B,black,man,,,,null,,,,
1744,"<img src=""portrait/BM2.jpg""style=""width:400px;height:400px;""></img>",5,html-button-response,354,4677060,0.0-18.0-4.0,23657,List2B,black,man,,TRUE,5,,,,,
null,CORRECT,,html-keyboard-response,355,4678562,0.0-18.0-5.0-0.0,23657,List2B,black,man,,,,null,,,,
1206,"<img src=""portrait/WW2.jpg""style=""width:400px;height:400px;""></img>",3,html-button-response,356,4679769,0.0-18.0-7.0,23657,List2B,black,man,,TRUE,3,,,,,
null,CORRECT,,html-keyboard-response,357,4681270,0.0-18.0-8.0-0.0,23657,List2B,black,man,,,,null,,,,
1634,"<img src=""portrait/BW2.jpg""style=""width:400px;height:400px;""></img>",2,html-button-response,358,4682905,0.0-18.0-10.0,23657,List2B,black,man,,TRUE,2,,,,,
null,CORRECT,,html-keyboard-response,359,4684407,0.0-18.0-11.0-0.0,23657,List2B,black,man,,,,null,,,,
2513,"<img src=""portrait/WM1.jpg""style=""width:400px;height:400px;""></img>",6,html-button-response,360,4686922,0.0-18.0-13.0,23657,List2B,black,man,,TRUE,6,,,,,
null,CORRECT,,html-keyboard-response,361,4688424,0.0-18.0-14.0-0.0,23657,List2B,black,man,,,,null,,,,
1469,"<img src=""portrait/WM2.jpg""style=""width:400px;height:400px;""></img>",7,html-button-response,362,4689894,0.0-18.0-16.0,23657,List2B,black,man,,TRUE,7,,,,,
null,CORRECT,,html-keyboard-response,363,4691396,0.0-18.0-17.0-0.0,23657,List2B,black,man,,,,null,,,,
21431,"<img src=""portrait/BM1.jpg""style=""width:400px;height:400px;""></img>",4,html-button-response,364,4712829,0.0-18.0-19.0,23657,List2B,black,man,,TRUE,4,,,,,
null,CORRECT,,html-keyboard-response,365,4714330,0.0-18.0-20.0-0.0,23657,List2B,black,man,,,,null,,,,
1466,"<img src=""portrait/WW1.jpg""style=""width:400px;height:400px;""></img>",1,html-button-response,366,4715797,0.0-18.0-22.0,23657,List2B,black,man,,TRUE,1,,,,,
null,CORRECT,,html-keyboard-response,367,4717298,0.0-18.0-23.0-0.0,23657,List2B,black,man,,,,null,,,,
2050,<p>You got 8 out of 8 right first time. Press Continue.</p>,0,html-button-response,368,4719350,0.0-18.0-25.0,23657,List2B,black,man,,,,,,,,
null,"<div style=""font-size:60px;"">+</div>",,html-keyboard-response,369,4720852,0.0-19.0-0.0,23657,List2B,black,man,,,,null,,,,
null,"<img src=""stim_listB/meet7.gif""</stim_listB>",,html-keyboard-response,370,4722853,0.0-19.0-1.0,23657,List2B,black,man,,,,null,,,,
null,is meeting,,html-keyboard-response,371,4724855,0.0-19.0-2.0,23657,List2B,black,man,,,,null,,,,
6068,,,survey-text,372,4730923,0.0-19.0-3.0,23657,List2B,black,man,,,,,"{""Q0"":""Jane is meeting Kate""}","<img src=""stim_listB/meet7.gif""</stim_listB>",is meeting,
null,"<div style=""font-size:60px;"">+</div>",,html-keyboard-response,373,4731425,0.0-19.0-0.1,23657,List2B,black,man,,,,null,,,,
null,"<img src=""stim_listB/meet1.gif""</stim_listB>",,html-keyboard-response,374,4733426,0.0-19.0-1.1,23657,List2B,black,man,,,,null,,,,
null,is meeting,,html-keyboard-response,375,4735427,0.0-19.0-2.1,23657,List2B,black,man,,,,null,,,,
5104,,,survey-text,376,4740532,0.0-19.0-3.1,23657,List2B,black,man,,,,,"{""Q0"":""Dave is meeting Jane""}","<img src=""stim_listB/meet1.gif""</stim_listB>",is meeting,
null,"<div style=""font-size:60px;"">+</div>",,html-keyboard-response,377,4741033,0.0-19.0-0.2,23657,List2B,black,man,,,,null,,,,
null,"<img src=""stim_listB/marry8.gif""</stim_listB>",,html-keyboard-response,378,4743035,0.0-19.0-1.2,23657,List2B,black,man,,,,null,,,,
null,are marrying each other,,html-keyboard-response,379,4745036,0.0-19.0-2.2,23657,List2B,black,man,,,,null,,,,
10578,,,survey-text,380,4755615,0.0-19.0-3.2,23657,List2B,black,man,,,,,"{""Q0"":""Ruth and Kate are marrying each other""}","<img src=""stim_listB/marry8.gif""</stim_listB>",are marrying each other,
null,"<div style=""font-size:60px;"">+</div>",,html-keyboard-response,381,4756116,0.0-19.0-0.3,23657,List2B,black,man,,,,null,,,,
null,"<img src=""stim_listB/dance3.gif""</stim_listB>",,html-keyboard-response,382,4758117,0.0-19.0-1.3,23657,List2B,black,man,,,,null,,,,
null,is dancing with,,html-keyboard-response,383,4760118,0.0-19.0-2.3,23657,List2B,black,man,,,,null,,,,
21286,,,survey-text,384,4781405,0.0-19.0-3.3,23657,List2B,black,man,,,,,"{""Q0"":""Fred and Kate are dancing with each other""}","<img src=""stim_listB/dance3.gif""</stim_listB>",is dancing with,
null,"<div style=""font-size:60px;"">+</div>",,html-keyboard-response,385,4781907,0.0-19.0-0.4,23657,List2B,black,man,,,,null,,,,
null,"<img src=""stim_listB/hug7.gif""</stim_listB>",,html-keyboard-response,386,4783909,0.0-19.0-1.4,23657,List2B,black,man,,,,null,,,,
null,is hugging,,html-keyboard-response,387,4785910,0.0-19.0-2.4,23657,List2B,black,man,,,,null,,,,
13842,,,survey-text,388,4799752,0.0-19.0-3.4,23657,List2B,black,man,,,,,"{""Q0"":""Beth is hugging Ruth""}","<img src=""stim_listB/hug7.gif""</stim_listB>",is hugging,
null,"<div style=""font-size:60px;"">+</div>",,html-keyboard-response,389,4800253,0.0-19.0-0.5,23657,List2B,black,man,,,,null,,,,
null,"<img src=""stim_listB/hug3.gif""</stim_listB>",,html-keyboard-response,390,4802256,0.0-19.0-1.5,23657,List2B,black,man,,,,null,,,,
null,is hugging,,html-keyboard-response,391,4804257,0.0-19.0-2.5,23657,List2B,black,man,,,,null,,,,
7731,,,survey-text,392,4811989,0.0-19.0-3.5,23657,List2B,black,man,,,,,"{""Q0"":""Beth is hugging Fred""}","<img src=""stim_listB/hug3.gif""</stim_listB>",is hugging,
null,"<div style=""font-size:60px;"">+</div>",,html-keyboard-response,393,4812491,0.0-19.0-0.6,23657,List2B,black,man,,,,null,,,,
null,"<img src=""stim_listB/argue1.gif""</stim_listB>",,html-keyboard-response,394,4814492,0.0-19.0-1.6,23657,List2B,black,man,,,,null,,,,
null,is arguing with,,html-keyboard-response,395,4816493,0.0-19.0-2.6,23657,List2B,black,man,,,,null,,,,
7954,,,survey-text,396,4824447,0.0-19.0-3.6,23657,List2B,black,man,,,,,"{""Q0"":""Dave is arguing with Ruth""}","<img src=""stim_listB/argue1.gif""</stim_listB>",is arguing with,
null,"<div style=""font-size:60px;"">+</div>",,html-keyboard-response,397,4824948,0.0-19.0-0.7,23657,List2B,black,man,,,,null,,,,
null,"<img src=""stim_listB/talk4.gif""</stim_listB>",,html-keyboard-response,398,4826949,0.0-19.0-1.7,23657,List2B,black,man,,,,null,,,,
null,are talking to each other,,html-keyboard-response,399,4828951,0.0-19.0-2.7,23657,List2B,black,man,,,,null,,,,
8008,,,survey-text,400,4836960,0.0-19.0-3.7,23657,List2B,black,man,,,,,"{""Q0"":""Mike and Beth are talking to each other ""}","<img src=""stim_listB/talk4.gif""</stim_listB>",are talking to each other,
null,"<div style=""font-size:60px;"">+</div>",,html-keyboard-response,401,4837461,0.0-19.0-0.8,23657,List2B,black,man,,,,null,,,,
null,"<img src=""stim_listB/touch1.gif""</stim_listB>",,html-keyboard-response,402,4839463,0.0-19.0-1.8,23657,List2B,black,man,,,,null,,,,
null,is touching,,html-keyboard-response,403,4841464,0.0-19.0-2.8,23657,List2B,black,man,,,,null,,,,
5573,,,survey-text,404,4847037,0.0-19.0-3.8,23657,List2B,black,man,,,,,"{""Q0"":""Jane is touching Dave""}","<img src=""stim_listB/touch1.gif""</stim_listB>",is touching,
null,"<div style=""font-size:60px;"">+</div>",,html-keyboard-response,405,4847539,0.0-19.0-0.9,23657,List2B,black,man,,,,null,,,,
null,"<img src=""stim_listB/shout8.gif""</stim_listB>",,html-keyboard-response,406,4849540,0.0-19.0-1.9,23657,List2B,black,man,,,,null,,,,
null,are shouting at each other,,html-keyboard-response,407,4851541,0.0-19.0-2.9,23657,List2B,black,man,,,,null,,,,
7385,,,survey-text,408,4858927,0.0-19.0-3.9,23657,List2B,black,man,,,,,"{""Q0"":""Kate and Jane are shouting at each other""}","<img src=""stim_listB/shout8.gif""</stim_listB>",are shouting at each other,
null,"<div style=""font-size:60px;"">+</div>",,html-keyboard-response,409,4859428,0.0-19.0-0.10,23657,List2B,black,man,,,,null,,,,
null,"<img src=""stim_listB/argue7.gif""</stim_listB>",,html-keyboard-response,410,4861429,0.0-19.0-1.10,23657,List2B,black,man,,,,null,,,,
null,is arguing with,,html-keyboard-response,411,4863431,0.0-19.0-2.10,23657,List2B,black,man,,,,null,,,,
21251,,,survey-text,412,4884683,0.0-19.0-3.10,23657,List2B,black,man,,,,,"{""Q0"":""Beth is arguining Jane""}","<img src=""stim_listB/argue7.gif""</stim_listB>",is arguing with,
null,"<div style=""font-size:60px;"">+</div>",,html-keyboard-response,413,4885184,0.0-19.0-0.11,23657,List2B,black,man,,,,null,,,,
null,"<img src=""stim_listB/meet4.gif""</stim_listB>",,html-keyboard-response,414,4887185,0.0-19.0-1.11,23657,List2B,black,man,,,,null,,,,
null,are meeting each other,,html-keyboard-response,415,4889186,0.0-19.0-2.11,23657,List2B,black,man,,,,null,,,,
7512,,,survey-text,416,4896700,0.0-19.0-3.11,23657,List2B,black,man,,,,,"{""Q0"":""Fred and Beth are meeting each other""}","<img src=""stim_listB/meet4.gif""</stim_listB>",are meeting each other,
null,"<div style=""font-size:60px;"">+</div>",,html-keyboard-response,417,4897200,0.0-19.0-0.12,23657,List2B,black,man,,,,null,,,,
null,"<img src=""stim_listB/marry7.gif""</stim_listB>",,html-keyboard-response,418,4899202,0.0-19.0-1.12,23657,List2B,black,man,,,,null,,,,
null,is marrying,,html-keyboard-response,419,4901203,0.0-19.0-2.12,23657,List2B,black,man,,,,null,,,,
4396,,,survey-text,420,4905601,0.0-19.0-3.12,23657,List2B,black,man,,,,,"{""Q0"":""Beth is marrying Jane""}","<img src=""stim_listB/marry7.gif""</stim_listB>",is marrying,
null,"<div style=""font-size:60px;"">+</div>",,html-keyboard-response,421,4906103,0.0-19.0-0.13,23657,List2B,black,man,,,,null,,,,
null,"<img src=""stim_listB/hug2.gif""</stim_listB>",,html-keyboard-response,422,4908104,0.0-19.0-1.13,23657,List2B,black,man,,,,null,,,,
null,are hugging each other,,html-keyboard-response,423,4910105,0.0-19.0-2.13,23657,List2B,black,man,,,,null,,,,
5024,,,survey-text,424,4915130,0.0-19.0-3.13,23657,List2B,black,man,,,,,"{""Q0"":""Dave and Jane are hugging each other""}","<img src=""stim_listB/hug2.gif""</stim_listB>",are hugging each other,
null,"<div style=""font-size:60px;"">+</div>",,html-keyboard-response,425,4915631,0.0-19.0-0.14,23657,List2B,black,man,,,,null,,,,
null,"<img src=""stim_listB/fight3.gif""</stim_listB>",,html-keyboard-response,426,4917632,0.0-19.0-1.14,23657,List2B,black,man,,,,null,,,,
null,is fighting,,html-keyboard-response,427,4919633,0.0-19.0-2.14,23657,List2B,black,man,,,,null,,,,
5850,,,survey-text,428,4925484,0.0-19.0-3.14,23657,List2B,black,man,,,,,"{""Q0"":""Kate is fighting Mike""}","<img src=""stim_listB/fight3.gif""</stim_listB>",is fighting,
null,"<div style=""font-size:60px;"">+</div>",,html-keyboard-response,429,4925985,0.0-19.0-0.15,23657,List2B,black,man,,,,null,,,,
null,"<img src=""stim_listB/kiss3.gif""</stim_listB>",,html-keyboard-response,430,4927987,0.0-19.0-1.15,23657,List2B,black,man,,,,null,,,,
null,is kissing,,html-keyboard-response,431,4929988,0.0-19.0-2.15,23657,List2B,black,man,,,,null,,,,
5041,,,survey-text,432,4935029,0.0-19.0-3.15,23657,List2B,black,man,,,,,"{""Q0"":""Fred is kissing Beth""}","<img src=""stim_listB/kiss3.gif""</stim_listB>",is kissing,
null,"<div style=""font-size:60px;"">+</div>",,html-keyboard-response,433,4935530,0.0-19.0-0.16,23657,List2B,black,man,,,,null,,,,
null,"<img src=""stim_listB/fight1.gif""</stim_listB>",,html-keyboard-response,434,4937531,0.0-19.0-1.16,23657,List2B,black,man,,,,null,,,,
null,is fighting,,html-keyboard-response,435,4939533,0.0-19.0-2.16,23657,List2B,black,man,,,,null,,,,
5689,,,survey-text,436,4945222,0.0-19.0-3.16,23657,List2B,black,man,,,,,"{""Q0"":""Jane is fighting with Dave""}","<img src=""stim_listB/fight1.gif""</stim_listB>",is fighting,
null,"<div style=""font-size:60px;"">+</div>",,html-keyboard-response,437,4945723,0.0-19.0-0.17,23657,List2B,black,man,,,,null,,,,
null,"<img src=""stim_listB/fight8.gif""</stim_listB>",,html-keyboard-response,438,4947725,0.0-19.0-1.17,23657,List2B,black,man,,,,null,,,,
null,are fighting each other,,html-keyboard-response,439,4949725,0.0-19.0-2.17,23657,List2B,black,man,,,,null,,,,
6616,,,survey-text,440,4956343,0.0-19.0-3.17,23657,List2B,black,man,,,,,"{""Q0"":""Beth and Ruth are fighting each other""}","<img src=""stim_listB/fight8.gif""</stim_listB>",are fighting each other,
null,"<div style=""font-size:60px;"">+</div>",,html-keyboard-response,441,4956844,0.0-19.0-0.18,23657,List2B,black,man,,,,null,,,,
null,"<img src=""stim_listB/talk8.gif""</stim_listB>",,html-keyboard-response,442,4958845,0.0-19.0-1.18,23657,List2B,black,man,,,,null,,,,
null,are talking to each other,,html-keyboard-response,443,4960846,0.0-19.0-2.18,23657,List2B,black,man,,,,null,,,,
7922,,,survey-text,444,4968768,0.0-19.0-3.18,23657,List2B,black,man,,,,,"{""Q0"":""""}","<img src=""stim_listB/talk8.gif""</stim_listB>",are talking to each other,
null,"<div style=""font-size:60px;"">+</div>",,html-keyboard-response,445,4969270,0.0-19.0-0.19,23657,List2B,black,man,,,,null,,,,
null,"<img src=""stim_listB/touch6.gif""</stim_listB>",,html-keyboard-response,446,4971271,0.0-19.0-1.19,23657,List2B,black,man,,,,null,,,,
null,are touching each other,,html-keyboard-response,447,4973273,0.0-19.0-2.19,23657,List2B,black,man,,,,null,,,,
9497,,,survey-text,448,4982770,0.0-19.0-3.19,23657,List2B,black,man,,,,,"{""Q0"":""Luke and Fred are touching each other""}","<img src=""stim_listB/touch6.gif""</stim_listB>",are touching each other,
2231,<p>Thank you for completing that task.</p><p>The final part of this session is a short questionnaire.</p><p>Press Continue.</p>,0,html-button-response,449,4985003,0.0-20.0,23657,List2B,black,man,,,,,,,,
16000,,,survey-text,450,5002005,0.0-21.0,23657,List2B,black,man,,,,,"{""Q0"":""34"",""Q1"":""English"",""Q2"":""English"",""Q3"":""UK"",""Q4"":""Black"",""Q5"":""Male""}",,,demographics
89022,,,survey-likert,451,5091030,0.0-22.0,23657,List2B,black,man,,,,,"{""Q0"":5,""Q1"":3,""Q2"":5,""Q3"":6,""Q4"":6,""Q5"":6,""Q6"":6,""Q7"":3,""Q8"":6,""Q9"":6,""Q10"":5,""Q11"":2,""Q12"":5,""Q13"":5}",,,likert_race
55523,,,survey-likert,452,5146568,0.0-23.0,23657,List2B,black,man,,,,,"{""Q0"":6,""Q1"":6,""Q2"":6,""Q3"":"""",""Q4"":5,""Q5"":6,""Q6"":6,""Q7"":2,""Q8"":6,""Q9"":6,""Q10"":3,""Q11"":3,""Q12"":3,""Q13"":3}",,,likert_gender
42435,,,survey-text,453,5189016,0.0-24.0,23657,List2B,black,man,,,,,"{""Q0"":""ccc""}",,,worker_id
25285,,,external-html,454,5214342,0.0-25.0,23657,List2B,black,man,debrief.html,,,,,,,
