rt,stimulus,button_pressed,trial_type,trial_index,time_elapsed,internal_node_id,subject,list,ppt_race,ppt_gender,url,first_guess,correct,key_press,responses,image_type,phrase_type,test_part
2018,Welcome to the experiment. Press Continue to begin.,0,html-button-response,0,2072,0.0-0.0,23781,List2B,black,woman,,,,,,,,
31427,,,external-html,1,34630,0.0-1.0,23781,List2B,black,woman,consent.html,,,,,,,
9454,"<p>On the next page, you will see portraits of 8 people and their names.</p><p>Your first task is to take a few minutes to memorise the names of these people.</p><p>You will have to recall their names during the rest of the experiment, so it is</p><p>essential that you try to memorise these people and their names as best as you can.</p><br><p><strong>You will then be tested on your memory of these names and portraits.</strong></p><br><p>The experiment will start after you have completed this memory test.</p><br><p>Ready?</p>",0,html-button-response,2,44090,0.0-2.0,23781,List2B,black,woman,,,,,,,,
177983,"<img src='img/portrait_matrix_list2.JPG' style='width:900px;height:500px;''></img><p>If you have memorised all the portraits and names and are ready to start, press Continue.</p><p><strong>Please note: Your memory of these faces will be tested 4 times during this experiment.</strong></p>",0,html-button-response,3,223077,0.0-3.0-0.0,23781,List2B,black,woman,,,,,,,,
7470,"<img src=""portrait/BM2.jpg""style=""width:400px;height:400px;""></img>",5,html-button-response,4,231551,0.0-3.0-1.0,23781,List2B,black,woman,,TRUE,5,,,,,
null,CORRECT,,html-keyboard-response,5,233058,0.0-3.0-2.0-0.0,23781,List2B,black,woman,,,,null,,,,
6978,"<img src=""portrait/WM1.jpg""style=""width:400px;height:400px;""></img>",6,html-button-response,6,240042,0.0-3.0-4.0,23781,List2B,black,woman,,TRUE,6,,,,,
null,CORRECT,,html-keyboard-response,7,241554,0.0-3.0-5.0-0.0,23781,List2B,black,woman,,,,null,,,,
2397,"<img src=""portrait/BW2.jpg""style=""width:400px;height:400px;""></img>",2,html-button-response,8,243954,0.0-3.0-7.0,23781,List2B,black,woman,,TRUE,2,,,,,
null,CORRECT,,html-keyboard-response,9,245457,0.0-3.0-8.0-0.0,23781,List2B,black,woman,,,,null,,,,
7738,"<img src=""portrait/WW1.jpg""style=""width:400px;height:400px;""></img>",1,html-button-response,10,253199,0.0-3.0-10.0,23781,List2B,black,woman,,TRUE,1,,,,,
null,CORRECT,,html-keyboard-response,11,254702,0.0-3.0-11.0-0.0,23781,List2B,black,woman,,,,null,,,,
3025,"<img src=""portrait/WM2.jpg""style=""width:400px;height:400px;""></img>",7,html-button-response,12,257732,0.0-3.0-13.0,23781,List2B,black,woman,,TRUE,7,,,,,
null,CORRECT,,html-keyboard-response,13,259234,0.0-3.0-14.0-0.0,23781,List2B,black,woman,,,,null,,,,
86754,"<img src=""portrait/BM1.jpg""style=""width:400px;height:400px;""></img>",4,html-button-response,14,345992,0.0-3.0-16.0,23781,List2B,black,woman,,TRUE,4,,,,,
null,CORRECT,,html-keyboard-response,15,347494,0.0-3.0-17.0-0.0,23781,List2B,black,woman,,,,null,,,,
12180,"<img src=""portrait/BW1.jpg""style=""width:400px;height:400px;""></img>",0,html-button-response,16,359677,0.0-3.0-19.0,23781,List2B,black,woman,,TRUE,0,,,,,
null,CORRECT,,html-keyboard-response,17,361179,0.0-3.0-20.0-0.0,23781,List2B,black,woman,,,,null,,,,
9317,"<img src=""portrait/WW2.jpg""style=""width:400px;height:400px;""></img>",3,html-button-response,18,370500,0.0-3.0-22.0,23781,List2B,black,woman,,TRUE,3,,,,,
null,CORRECT,,html-keyboard-response,19,372002,0.0-3.0-23.0-0.0,23781,List2B,black,woman,,,,null,,,,
1252,<p>You got 8 out of 8 right first time. Press Continue.</p>,0,html-button-response,20,373258,0.0-3.0-25.0,23781,List2B,black,woman,,,,,,,,
25849,"<p>In this experiment, you will view photographs of the people from the memory game interacting.</p><p>By using the <strong>exact</strong> phrase given <i>after</i> the photograph appears and recalling the correct names of the people in the photographs, form a sentence describing the interaction. You do not need to capitalise names.</p><p>Type your answer in the space provided. Please complete every sentence before moving onto the next trial.</p><p>You will only have a few seconds to memorise each given photograph and phrase before you can respond, so try your best to focus.</p><p>An example is given below. Press 'Continue' when you are ready.</p><img src='img/speaking_example_v2.jpg' style='width:800px;height:460px;''></img>",0,html-button-response,21,400113,0.0-4.0,23781,List2B,black,woman,,,,,,,,
1646,"<p>Before the experiment starts, you will watch two example trials. Press 'Continue'.</p>",0,html-button-response,22,402762,0.0-5.0,23781,List2B,black,woman,,,,,,,,
null,<img src='img/speaking_WW.gif'></img>,,html-keyboard-response,23,405765,0.0-6.0,23781,List2B,black,woman,,,,null,,,,
null,<p>is speaking to</p>,,html-keyboard-response,24,407767,0.0-7.0,23781,List2B,black,woman,,,,null,,,,
5294,<p><b>Answer:</b> jane is speaking to ruth</p>,0,html-button-response,25,413063,0.0-8.0,23781,List2B,black,woman,,,,,,,,
null,<img src='img/pointing_BM.gif'></img>,,html-keyboard-response,26,416066,0.0-9.0,23781,List2B,black,woman,,,,null,,,,
null,<p>are pointing at each other</p>,,html-keyboard-response,27,418068,0.0-10.0,23781,List2B,black,woman,,,,null,,,,
2236,<p><b>Answer:</b> fred and mike are pointing at each other</p>,0,html-button-response,28,420306,0.0-11.0,23781,List2B,black,woman,,,,,,,,
5763,"<p>Ready to start the experiment?</p><br><p><strong>Remember to describe the picture using a full sentence,</strong></p><p><strong>that combines the names of the people with the given phrase.</strong></p><p><strong>If you do not do this correctly you will not be paid.</strong></p><p><strong> You do not need to capitalise names or use punctuation.</strong></p><br><p>Press 'Continue' to begin.</p>",0,html-button-response,29,427073,0.0-12.0,23781,List2B,black,woman,,,,,,,,
null,"<div style=""font-size:60px;"">+</div>",,html-keyboard-response,30,428576,0.0-13.0-0.0,23781,List2B,black,woman,,,,null,,,,
null,"<img src=""stim_listB/kiss4.gif""</stim_listB>",,html-keyboard-response,31,430580,0.0-13.0-1.0,23781,List2B,black,woman,,,,null,,,,
null,are kissing each other,,html-keyboard-response,32,432582,0.0-13.0-2.0,23781,List2B,black,woman,,,,null,,,,
16976,,,survey-text,33,449562,0.0-13.0-3.0,23781,List2B,black,woman,,,,,"{""Q0"":""kate and mike are kissing at each other""}","<img src=""stim_listB/kiss4.gif""</stim_listB>",are kissing each other,
null,"<div style=""font-size:60px;"">+</div>",,html-keyboard-response,34,450066,0.0-13.0-0.1,23781,List2B,black,woman,,,,null,,,,
null,"<img src=""stim_listB/marry1.gif""</stim_listB>",,html-keyboard-response,35,452068,0.0-13.0-1.1,23781,List2B,black,woman,,,,null,,,,
null,is marrying,,html-keyboard-response,36,454070,0.0-13.0-2.1,23781,List2B,black,woman,,,,null,,,,
41025,,,survey-text,37,495098,0.0-13.0-3.1,23781,List2B,black,woman,,,,,"{""Q0"":""luke is marrying ruth""}","<img src=""stim_listB/marry1.gif""</stim_listB>",is marrying,
null,"<div style=""font-size:60px;"">+</div>",,html-keyboard-response,38,495601,0.0-13.0-0.2,23781,List2B,black,woman,,,,null,,,,
null,"<img src=""stim_listB/shout7.gif""</stim_listB>",,html-keyboard-response,39,497604,0.0-13.0-1.2,23781,List2B,black,woman,,,,null,,,,
null,is shouting at,,html-keyboard-response,40,499605,0.0-13.0-2.2,23781,List2B,black,woman,,,,null,,,,
27196,,,survey-text,41,526805,0.0-13.0-3.2,23781,List2B,black,woman,,,,,"{""Q0"":""ruth is shouting at beth.""}","<img src=""stim_listB/shout7.gif""</stim_listB>",is shouting at,
null,"<div style=""font-size:60px;"">+</div>",,html-keyboard-response,42,527308,0.0-13.0-0.3,23781,List2B,black,woman,,,,null,,,,
null,"<img src=""stim_listB/fight5.gif""</stim_listB>",,html-keyboard-response,43,529311,0.0-13.0-1.3,23781,List2B,black,woman,,,,null,,,,
null,is fighting,,html-keyboard-response,44,531313,0.0-13.0-2.3,23781,List2B,black,woman,,,,null,,,,
6135,,,survey-text,45,537451,0.0-13.0-3.3,23781,List2B,black,woman,,,,,"{""Q0"":""""}","<img src=""stim_listB/fight5.gif""</stim_listB>",is fighting,
null,"<div style=""font-size:60px;"">+</div>",,html-keyboard-response,46,537953,0.0-13.0-0.4,23781,List2B,black,woman,,,,null,,,,
null,"<img src=""stim_listB/shout1.gif""</stim_listB>",,html-keyboard-response,47,539955,0.0-13.0-1.4,23781,List2B,black,woman,,,,null,,,,
null,is shouting at,,html-keyboard-response,48,541957,0.0-13.0-2.4,23781,List2B,black,woman,,,,null,,,,
18439,,,survey-text,49,560398,0.0-13.0-3.4,23781,List2B,black,woman,,,,,"{""Q0"":""luke is shouting at ruth.""}","<img src=""stim_listB/shout1.gif""</stim_listB>",is shouting at,
null,"<div style=""font-size:60px;"">+</div>",,html-keyboard-response,50,560901,0.0-13.0-0.5,23781,List2B,black,woman,,,,null,,,,
null,"<img src=""stim_listB/argue3.gif""</stim_listB>",,html-keyboard-response,51,562904,0.0-13.0-1.5,23781,List2B,black,woman,,,,null,,,,
null,is arguing with,,html-keyboard-response,52,564906,0.0-13.0-2.5,23781,List2B,black,woman,,,,null,,,,
18810,,,survey-text,53,583719,0.0-13.0-3.5,23781,List2B,black,woman,,,,,"{""Q0"":""kate is arguing with fred.""}","<img src=""stim_listB/argue3.gif""</stim_listB>",is arguing with,
null,"<div style=""font-size:60px;"">+</div>",,html-keyboard-response,54,584222,0.0-13.0-0.6,23781,List2B,black,woman,,,,null,,,,
null,"<img src=""stim_listB/hug8.gif""</stim_listB>",,html-keyboard-response,55,586225,0.0-13.0-1.6,23781,List2B,black,woman,,,,null,,,,
null,are hugging each other,,html-keyboard-response,56,588227,0.0-13.0-2.6,23781,List2B,black,woman,,,,null,,,,
29300,,,survey-text,57,617529,0.0-13.0-3.6,23781,List2B,black,woman,,,,,"{""Q0"":""kate and jane are hugging each other.""}","<img src=""stim_listB/hug8.gif""</stim_listB>",are hugging each other,
null,"<div style=""font-size:60px;"">+</div>",,html-keyboard-response,58,618032,0.0-13.0-0.7,23781,List2B,black,woman,,,,null,,,,
null,"<img src=""stim_listB/talk1.gif""</stim_listB>",,html-keyboard-response,59,620035,0.0-13.0-1.7,23781,List2B,black,woman,,,,null,,,,
null,is talking to,,html-keyboard-response,60,622037,0.0-13.0-2.7,23781,List2B,black,woman,,,,null,,,,
15309,,,survey-text,61,637350,0.0-13.0-3.7,23781,List2B,black,woman,,,,,"{""Q0"":""jane is talking to luke.""}","<img src=""stim_listB/talk1.gif""</stim_listB>",is talking to,
null,"<div style=""font-size:60px;"">+</div>",,html-keyboard-response,62,637853,0.0-13.0-0.8,23781,List2B,black,woman,,,,null,,,,
null,"<img src=""stim_listB/meet5.gif""</stim_listB>",,html-keyboard-response,63,639856,0.0-13.0-1.8,23781,List2B,black,woman,,,,null,,,,
null,is meeting,,html-keyboard-response,64,641858,0.0-13.0-2.8,23781,List2B,black,woman,,,,null,,,,
17735,,,survey-text,65,659597,0.0-13.0-3.8,23781,List2B,black,woman,,,,,"{""Q0"":""luke is meeting mike.""}","<img src=""stim_listB/meet5.gif""</stim_listB>",is meeting,
null,"<div style=""font-size:60px;"">+</div>",,html-keyboard-response,66,660103,0.0-13.0-0.9,23781,List2B,black,woman,,,,null,,,,
null,"<img src=""stim_listB/marry8.gif""</stim_listB>",,html-keyboard-response,67,662106,0.0-13.0-1.9,23781,List2B,black,woman,,,,null,,,,
null,are marrying each other,,html-keyboard-response,68,664108,0.0-13.0-2.9,23781,List2B,black,woman,,,,null,,,,
22780,,,survey-text,69,686891,0.0-13.0-3.9,23781,List2B,black,woman,,,,,"{""Q0"":""kate and jane are marrying each other.""}","<img src=""stim_listB/marry8.gif""</stim_listB>",are marrying each other,
null,"<div style=""font-size:60px;"">+</div>",,html-keyboard-response,70,687393,0.0-13.0-0.10,23781,List2B,black,woman,,,,null,,,,
null,"<img src=""stim_listB/dance1.gif""</stim_listB>",,html-keyboard-response,71,689396,0.0-13.0-1.10,23781,List2B,black,woman,,,,null,,,,
null,is dancing with,,html-keyboard-response,72,691398,0.0-13.0-2.10,23781,List2B,black,woman,,,,null,,,,
26641,,,survey-text,73,718041,0.0-13.0-3.10,23781,List2B,black,woman,,,,,"{""Q0"":""luke is dancing with jane.""}","<img src=""stim_listB/dance1.gif""</stim_listB>",is dancing with,
null,"<div style=""font-size:60px;"">+</div>",,html-keyboard-response,74,718544,0.0-13.0-0.11,23781,List2B,black,woman,,,,null,,,,
null,"<img src=""stim_listB/argue4.gif""</stim_listB>",,html-keyboard-response,75,720546,0.0-13.0-1.11,23781,List2B,black,woman,,,,null,,,,
null,are arguing with each other,,html-keyboard-response,76,722548,0.0-13.0-2.11,23781,List2B,black,woman,,,,null,,,,
25352,,,survey-text,77,747903,0.0-13.0-3.11,23781,List2B,black,woman,,,,,"{""Q0"":""kate and fred are arguing with each other ""}","<img src=""stim_listB/argue4.gif""</stim_listB>",are arguing with each other,
null,"<div style=""font-size:60px;"">+</div>",,html-keyboard-response,78,748406,0.0-13.0-0.12,23781,List2B,black,woman,,,,null,,,,
null,"<img src=""stim_listB/dance2.gif""</stim_listB>",,html-keyboard-response,79,750409,0.0-13.0-1.12,23781,List2B,black,woman,,,,null,,,,
null,are dancing with each other,,html-keyboard-response,80,752411,0.0-13.0-2.12,23781,List2B,black,woman,,,,null,,,,
26156,,,survey-text,81,778570,0.0-13.0-3.12,23781,List2B,black,woman,,,,,"{""Q0"":""luke and ruth are dancing with each other""}","<img src=""stim_listB/dance2.gif""</stim_listB>",are dancing with each other,
null,"<div style=""font-size:60px;"">+</div>",,html-keyboard-response,82,779072,0.0-13.0-0.13,23781,List2B,black,woman,,,,null,,,,
null,"<img src=""stim_listB/hug6.gif""</stim_listB>",,html-keyboard-response,83,781075,0.0-13.0-1.13,23781,List2B,black,woman,,,,null,,,,
null,are hugging each other,,html-keyboard-response,84,783077,0.0-13.0-2.13,23781,List2B,black,woman,,,,null,,,,
12900,,,survey-text,85,795979,0.0-13.0-3.13,23781,List2B,black,woman,,,,,"{""Q0"":""luke and mike are hugging each other""}","<img src=""stim_listB/hug6.gif""</stim_listB>",are hugging each other,
null,"<div style=""font-size:60px;"">+</div>",,html-keyboard-response,86,796480,0.0-13.0-0.14,23781,List2B,black,woman,,,,null,,,,
null,"<img src=""stim_listB/marry5.gif""</stim_listB>",,html-keyboard-response,87,798484,0.0-13.0-1.14,23781,List2B,black,woman,,,,null,,,,
null,is marrying,,html-keyboard-response,88,800486,0.0-13.0-2.14,23781,List2B,black,woman,,,,null,,,,
6433,,,survey-text,89,806921,0.0-13.0-3.14,23781,List2B,black,woman,,,,,"{""Q0"":""mike is marrying luke""}","<img src=""stim_listB/marry5.gif""</stim_listB>",is marrying,
null,"<div style=""font-size:60px;"">+</div>",,html-keyboard-response,90,807424,0.0-13.0-0.15,23781,List2B,black,woman,,,,null,,,,
null,"<img src=""stim_listB/talk2.gif""</stim_listB>",,html-keyboard-response,91,809427,0.0-13.0-1.15,23781,List2B,black,woman,,,,null,,,,
null,are talking to each other,,html-keyboard-response,92,811429,0.0-13.0-2.15,23781,List2B,black,woman,,,,null,,,,
26727,,,survey-text,93,838159,0.0-13.0-3.15,23781,List2B,black,woman,,,,,"{""Q0"":""luke and ruth are talking to each other""}","<img src=""stim_listB/talk2.gif""</stim_listB>",are talking to each other,
null,"<div style=""font-size:60px;"">+</div>",,html-keyboard-response,94,838661,0.0-13.0-0.16,23781,List2B,black,woman,,,,null,,,,
null,"<img src=""stim_listB/shout8.gif""</stim_listB>",,html-keyboard-response,95,840664,0.0-13.0-1.16,23781,List2B,black,woman,,,,null,,,,
null,are shouting at each other,,html-keyboard-response,96,842666,0.0-13.0-2.16,23781,List2B,black,woman,,,,null,,,,
7689,,,survey-text,97,850359,0.0-13.0-3.16,23781,List2B,black,woman,,,,,"{""Q0"":""are shouting at each other""}","<img src=""stim_listB/shout8.gif""</stim_listB>",are shouting at each other,
null,"<div style=""font-size:60px;"">+</div>",,html-keyboard-response,98,850861,0.0-13.0-0.17,23781,List2B,black,woman,,,,null,,,,
null,"<img src=""stim_listB/talk3.gif""</stim_listB>",,html-keyboard-response,99,852864,0.0-13.0-1.17,23781,List2B,black,woman,,,,null,,,,
null,is talking to,,html-keyboard-response,100,854866,0.0-13.0-2.17,23781,List2B,black,woman,,,,null,,,,
14677,,,survey-text,101,869546,0.0-13.0-3.17,23781,List2B,black,woman,,,,,"{""Q0"":""kate is talking to fred.""}","<img src=""stim_listB/talk3.gif""</stim_listB>",is talking to,
null,"<div style=""font-size:60px;"">+</div>",,html-keyboard-response,102,870048,0.0-13.0-0.18,23781,List2B,black,woman,,,,null,,,,
null,"<img src=""stim_listB/dance7.gif""</stim_listB>",,html-keyboard-response,103,872050,0.0-13.0-1.18,23781,List2B,black,woman,,,,null,,,,
null,is dancing with,,html-keyboard-response,104,874052,0.0-13.0-2.18,23781,List2B,black,woman,,,,null,,,,
7186,,,survey-text,105,881242,0.0-13.0-3.18,23781,List2B,black,woman,,,,,"{""Q0"":""kate is dancing with ruth.""}","<img src=""stim_listB/dance7.gif""</stim_listB>",is dancing with,
null,"<div style=""font-size:60px;"">+</div>",,html-keyboard-response,106,881744,0.0-13.0-0.19,23781,List2B,black,woman,,,,null,,,,
null,"<img src=""stim_listB/talk6.gif""</stim_listB>",,html-keyboard-response,107,883747,0.0-13.0-1.19,23781,List2B,black,woman,,,,null,,,,
null,are talking to each other,,html-keyboard-response,108,885748,0.0-13.0-2.19,23781,List2B,black,woman,,,,null,,,,
9545,,,survey-text,109,895295,0.0-13.0-3.19,23781,List2B,black,woman,,,,,"{""Q0"":""are talking to each other""}","<img src=""stim_listB/talk6.gif""</stim_listB>",are talking to each other,
42670,"<img src='img/portrait_matrix_list2.JPG' style='width:900px;height:500px;''></img><p>If you have memorised all the portraits and names and are ready to start, press Continue.</p><p><strong>Please note: Your memory of these faces will be tested 4 times during this experiment.</strong></p>",0,html-button-response,110,938016,0.0-14.0-0.0,23781,List2B,black,woman,,,,,,,,
8964,"<img src=""portrait/WW2.jpg""style=""width:400px;height:400px;""></img>",3,html-button-response,111,947985,0.0-14.0-1.0,23781,List2B,black,woman,,TRUE,3,,,,,
null,CORRECT,,html-keyboard-response,112,949488,0.0-14.0-2.0-0.0,23781,List2B,black,woman,,,,null,,,,
6391,"<img src=""portrait/BM1.jpg""style=""width:400px;height:400px;""></img>",4,html-button-response,113,955883,0.0-14.0-4.0,23781,List2B,black,woman,,TRUE,4,,,,,
null,CORRECT,,html-keyboard-response,114,957386,0.0-14.0-5.0-0.0,23781,List2B,black,woman,,,,null,,,,
4457,"<img src=""portrait/BW1.jpg""style=""width:400px;height:400px;""></img>",0,html-button-response,115,961847,0.0-14.0-7.0,23781,List2B,black,woman,,TRUE,0,,,,,
null,CORRECT,,html-keyboard-response,116,963350,0.0-14.0-8.0-0.0,23781,List2B,black,woman,,,,null,,,,
5002,"<img src=""portrait/WW1.jpg""style=""width:400px;height:400px;""></img>",1,html-button-response,117,968357,0.0-14.0-10.0,23781,List2B,black,woman,,TRUE,1,,,,,
null,CORRECT,,html-keyboard-response,118,969860,0.0-14.0-11.0-0.0,23781,List2B,black,woman,,,,null,,,,
11491,"<img src=""portrait/WM2.jpg""style=""width:400px;height:400px;""></img>",7,html-button-response,119,981355,0.0-14.0-13.0,23781,List2B,black,woman,,TRUE,7,,,,,
null,CORRECT,,html-keyboard-response,120,982858,0.0-14.0-14.0-0.0,23781,List2B,black,woman,,,,null,,,,
6891,"<img src=""portrait/BW2.jpg""style=""width:400px;height:400px;""></img>",2,html-button-response,121,989755,0.0-14.0-16.0,23781,List2B,black,woman,,TRUE,2,,,,,
null,CORRECT,,html-keyboard-response,122,991258,0.0-14.0-17.0-0.0,23781,List2B,black,woman,,,,null,,,,
4340,"<img src=""portrait/BM2.jpg""style=""width:400px;height:400px;""></img>",5,html-button-response,123,995603,0.0-14.0-19.0,23781,List2B,black,woman,,TRUE,5,,,,,
null,CORRECT,,html-keyboard-response,124,997106,0.0-14.0-20.0-0.0,23781,List2B,black,woman,,,,null,,,,
3978,"<img src=""portrait/WM1.jpg""style=""width:400px;height:400px;""></img>",6,html-button-response,125,1001089,0.0-14.0-22.0,23781,List2B,black,woman,,TRUE,6,,,,,
null,CORRECT,,html-keyboard-response,126,1002592,0.0-14.0-23.0-0.0,23781,List2B,black,woman,,,,null,,,,
1528,<p>You got 8 out of 8 right first time. Press Continue.</p>,0,html-button-response,127,1004124,0.0-14.0-25.0,23781,List2B,black,woman,,,,,,,,
null,"<div style=""font-size:60px;"">+</div>",,html-keyboard-response,128,1005628,0.0-15.0-0.0,23781,List2B,black,woman,,,,null,,,,
null,"<img src=""stim_listB/touch1.gif""</stim_listB>",,html-keyboard-response,129,1007631,0.0-15.0-1.0,23781,List2B,black,woman,,,,null,,,,
null,is touching,,html-keyboard-response,130,1009633,0.0-15.0-2.0,23781,List2B,black,woman,,,,null,,,,
6371,,,survey-text,131,1016007,0.0-15.0-3.0,23781,List2B,black,woman,,,,,"{""Q0"":""luke is touching jane.""}","<img src=""stim_listB/touch1.gif""</stim_listB>",is touching,
null,"<div style=""font-size:60px;"">+</div>",,html-keyboard-response,132,1016512,0.0-15.0-0.1,23781,List2B,black,woman,,,,null,,,,
null,"<img src=""stim_listB/meet3.gif""</stim_listB>",,html-keyboard-response,133,1018515,0.0-15.0-1.1,23781,List2B,black,woman,,,,null,,,,
null,is meeting,,html-keyboard-response,134,1020517,0.0-15.0-2.1,23781,List2B,black,woman,,,,null,,,,
7292,,,survey-text,135,1027811,0.0-15.0-3.1,23781,List2B,black,woman,,,,,"{""Q0"":""kate is meeting mike.""}","<img src=""stim_listB/meet3.gif""</stim_listB>",is meeting,
null,"<div style=""font-size:60px;"">+</div>",,html-keyboard-response,136,1028312,0.0-15.0-0.2,23781,List2B,black,woman,,,,null,,,,
null,"<img src=""stim_listB/touch4.gif""</stim_listB>",,html-keyboard-response,137,1030315,0.0-15.0-1.2,23781,List2B,black,woman,,,,null,,,,
null,are touching each other,,html-keyboard-response,138,1032316,0.0-15.0-2.2,23781,List2B,black,woman,,,,null,,,,
16031,,,survey-text,139,1048351,0.0-15.0-3.2,23781,List2B,black,woman,,,,,"{""Q0"":""beth and fred are touching each other.""}","<img src=""stim_listB/touch4.gif""</stim_listB>",are touching each other,
null,"<div style=""font-size:60px;"">+</div>",,html-keyboard-response,140,1048853,0.0-15.0-0.3,23781,List2B,black,woman,,,,null,,,,
null,"<img src=""stim_listB/kiss6.gif""</stim_listB>",,html-keyboard-response,141,1050857,0.0-15.0-1.3,23781,List2B,black,woman,,,,null,,,,
null,are kissing each other,,html-keyboard-response,142,1052859,0.0-15.0-2.3,23781,List2B,black,woman,,,,null,,,,
11063,,,survey-text,143,1063925,0.0-15.0-3.3,23781,List2B,black,woman,,,,,"{""Q0"":""luke and mike are kissing each other.""}","<img src=""stim_listB/kiss6.gif""</stim_listB>",are kissing each other,
null,"<div style=""font-size:60px;"">+</div>",,html-keyboard-response,144,1064428,0.0-15.0-0.4,23781,List2B,black,woman,,,,null,,,,
null,"<img src=""stim_listB/fight3.gif""</stim_listB>",,html-keyboard-response,145,1066431,0.0-15.0-1.4,23781,List2B,black,woman,,,,null,,,,
null,is fighting,,html-keyboard-response,146,1068433,0.0-15.0-2.4,23781,List2B,black,woman,,,,null,,,,
6440,,,survey-text,147,1074875,0.0-15.0-3.4,23781,List2B,black,woman,,,,,"{""Q0"":""kate is fighting mike.""}","<img src=""stim_listB/fight3.gif""</stim_listB>",is fighting,
null,"<div style=""font-size:60px;"">+</div>",,html-keyboard-response,148,1075378,0.0-15.0-0.5,23781,List2B,black,woman,,,,null,,,,
null,"<img src=""stim_listB/fight8.gif""</stim_listB>",,html-keyboard-response,149,1077381,0.0-15.0-1.5,23781,List2B,black,woman,,,,null,,,,
null,are fighting each other,,html-keyboard-response,150,1079383,0.0-15.0-2.5,23781,List2B,black,woman,,,,null,,,,
14018,,,survey-text,151,1093404,0.0-15.0-3.5,23781,List2B,black,woman,,,,,"{""Q0"":""jane and beth are fighting each other.""}","<img src=""stim_listB/fight8.gif""</stim_listB>",are fighting each other,
null,"<div style=""font-size:60px;"">+</div>",,html-keyboard-response,152,1093907,0.0-15.0-0.6,23781,List2B,black,woman,,,,null,,,,
null,"<img src=""stim_listB/argue6.gif""</stim_listB>",,html-keyboard-response,153,1095910,0.0-15.0-1.6,23781,List2B,black,woman,,,,null,,,,
null,are arguing with each other,,html-keyboard-response,154,1097911,0.0-15.0-2.6,23781,List2B,black,woman,,,,null,,,,
17160,,,survey-text,155,1115075,0.0-15.0-3.6,23781,List2B,black,woman,,,,,"{""Q0"":""jane and luke are arguing with each other.""}","<img src=""stim_listB/argue6.gif""</stim_listB>",are arguing with each other,
null,"<div style=""font-size:60px;"">+</div>",,html-keyboard-response,156,1115578,0.0-15.0-0.7,23781,List2B,black,woman,,,,null,,,,
null,"<img src=""stim_listB/shout6.gif""</stim_listB>",,html-keyboard-response,157,1117581,0.0-15.0-1.7,23781,List2B,black,woman,,,,null,,,,
null,are shouting at each other,,html-keyboard-response,158,1119583,0.0-15.0-2.7,23781,List2B,black,woman,,,,null,,,,
11699,,,survey-text,159,1131284,0.0-15.0-3.7,23781,List2B,black,woman,,,,,"{""Q0"":""luke and mike are shouting at each other.""}","<img src=""stim_listB/shout6.gif""</stim_listB>",are shouting at each other,
null,"<div style=""font-size:60px;"">+</div>",,html-keyboard-response,160,1131787,0.0-15.0-0.8,23781,List2B,black,woman,,,,null,,,,
null,"<img src=""stim_listB/meet4.gif""</stim_listB>",,html-keyboard-response,161,1133790,0.0-15.0-1.8,23781,List2B,black,woman,,,,null,,,,
null,are meeting each other,,html-keyboard-response,162,1135792,0.0-15.0-2.8,23781,List2B,black,woman,,,,null,,,,
22492,,,survey-text,163,1158287,0.0-15.0-3.8,23781,List2B,black,woman,,,,,"{""Q0"":""beth and dave are meeting each other.""}","<img src=""stim_listB/meet4.gif""</stim_listB>",are meeting each other,
null,"<div style=""font-size:60px;"">+</div>",,html-keyboard-response,164,1158790,0.0-15.0-0.9,23781,List2B,black,woman,,,,null,,,,
null,"<img src=""stim_listB/hug2.gif""</stim_listB>",,html-keyboard-response,165,1160793,0.0-15.0-1.9,23781,List2B,black,woman,,,,null,,,,
null,are hugging each other,,html-keyboard-response,166,1162796,0.0-15.0-2.9,23781,List2B,black,woman,,,,null,,,,
57102,,,survey-text,167,1219900,0.0-15.0-3.9,23781,List2B,black,woman,,,,,"{""Q0"":""luke and jane are hugging each other.""}","<img src=""stim_listB/hug2.gif""</stim_listB>",are hugging each other,
null,"<div style=""font-size:60px;"">+</div>",,html-keyboard-response,168,1220403,0.0-15.0-0.10,23781,List2B,black,woman,,,,null,,,,
null,"<img src=""stim_listB/hug3.gif""</stim_listB>",,html-keyboard-response,169,1222407,0.0-15.0-1.10,23781,List2B,black,woman,,,,null,,,,
null,is hugging,,html-keyboard-response,170,1224409,0.0-15.0-2.10,23781,List2B,black,woman,,,,null,,,,
8412,,,survey-text,171,1232823,0.0-15.0-3.10,23781,List2B,black,woman,,,,,"{""Q0"":""beth is hugging dave.""}","<img src=""stim_listB/hug3.gif""</stim_listB>",is hugging,
null,"<div style=""font-size:60px;"">+</div>",,html-keyboard-response,172,1233326,0.0-15.0-0.11,23781,List2B,black,woman,,,,null,,,,
null,"<img src=""stim_listB/talk7.gif""</stim_listB>",,html-keyboard-response,173,1235329,0.0-15.0-1.11,23781,List2B,black,woman,,,,null,,,,
null,is talking to,,html-keyboard-response,174,1237331,0.0-15.0-2.11,23781,List2B,black,woman,,,,null,,,,
87899,,,survey-text,175,1325343,0.0-15.0-3.11,23781,List2B,black,woman,,,,,"{""Q0"":""kate is talking to jane.""}","<img src=""stim_listB/talk7.gif""</stim_listB>",is talking to,
null,"<div style=""font-size:60px;"">+</div>",,html-keyboard-response,176,1325871,0.0-15.0-0.12,23781,List2B,black,woman,,,,null,,,,
null,"<img src=""stim_listB/dance6.gif""</stim_listB>",,html-keyboard-response,177,1327874,0.0-15.0-1.12,23781,List2B,black,woman,,,,null,,,,
null,are dancing with each other,,html-keyboard-response,178,1329876,0.0-15.0-2.12,23781,List2B,black,woman,,,,null,,,,
30459,,,survey-text,179,1360337,0.0-15.0-3.12,23781,List2B,black,woman,,,,,"{""Q0"":""luke and dave are dancing with each other.""}","<img src=""stim_listB/dance6.gif""</stim_listB>",are dancing with each other,
null,"<div style=""font-size:60px;"">+</div>",,html-keyboard-response,180,1360839,0.0-15.0-0.13,23781,List2B,black,woman,,,,null,,,,
null,"<img src=""stim_listB/argue5.gif""</stim_listB>",,html-keyboard-response,181,1362842,0.0-15.0-1.13,23781,List2B,black,woman,,,,null,,,,
null,is arguing with,,html-keyboard-response,182,1364843,0.0-15.0-2.13,23781,List2B,black,woman,,,,null,,,,
286702,,,survey-text,183,1651547,0.0-15.0-3.13,23781,List2B,black,woman,,,,,"{""Q0"":""luke is arguing with dave.""}","<img src=""stim_listB/argue5.gif""</stim_listB>",is arguing with,
null,"<div style=""font-size:60px;"">+</div>",,html-keyboard-response,184,1652050,0.0-15.0-0.14,23781,List2B,black,woman,,,,null,,,,
null,"<img src=""stim_listB/meet1.gif""</stim_listB>",,html-keyboard-response,185,1654053,0.0-15.0-1.14,23781,List2B,black,woman,,,,null,,,,
null,is meeting,,html-keyboard-response,186,1656054,0.0-15.0-2.14,23781,List2B,black,woman,,,,null,,,,
10050,,,survey-text,187,1666107,0.0-15.0-3.14,23781,List2B,black,woman,,,,,"{""Q0"":""jane is meeting with dave.""}","<img src=""stim_listB/meet1.gif""</stim_listB>",is meeting,
null,"<div style=""font-size:60px;"">+</div>",,html-keyboard-response,188,1666609,0.0-15.0-0.15,23781,List2B,black,woman,,,,null,,,,
null,"<img src=""stim_listB/fight4.gif""</stim_listB>",,html-keyboard-response,189,1668612,0.0-15.0-1.15,23781,List2B,black,woman,,,,null,,,,
null,are fighting each other,,html-keyboard-response,190,1670614,0.0-15.0-2.15,23781,List2B,black,woman,,,,null,,,,
20037,,,survey-text,191,1690654,0.0-15.0-3.15,23781,List2B,black,woman,,,,,"{""Q0"":""beth and fred are fighting each other.""}","<img src=""stim_listB/fight4.gif""</stim_listB>",are fighting each other,
null,"<div style=""font-size:60px;"">+</div>",,html-keyboard-response,192,1691157,0.0-15.0-0.16,23781,List2B,black,woman,,,,null,,,,
null,"<img src=""stim_listB/dance5.gif""</stim_listB>",,html-keyboard-response,193,1693160,0.0-15.0-1.16,23781,List2B,black,woman,,,,null,,,,
null,is dancing with,,html-keyboard-response,194,1695162,0.0-15.0-2.16,23781,List2B,black,woman,,,,null,,,,
9071,,,survey-text,195,1704235,0.0-15.0-3.16,23781,List2B,black,woman,,,,,"{""Q0"":""luke is dancing with mike.""}","<img src=""stim_listB/dance5.gif""</stim_listB>",is dancing with,
null,"<div style=""font-size:60px;"">+</div>",,html-keyboard-response,196,1704737,0.0-15.0-0.17,23781,List2B,black,woman,,,,null,,,,
null,"<img src=""stim_listB/dance3.gif""</stim_listB>",,html-keyboard-response,197,1706740,0.0-15.0-1.17,23781,List2B,black,woman,,,,null,,,,
null,is dancing with,,html-keyboard-response,198,1708742,0.0-15.0-2.17,23781,List2B,black,woman,,,,null,,,,
7522,,,survey-text,199,1716268,0.0-15.0-3.17,23781,List2B,black,woman,,,,,"{""Q0"":""fred is dancing with beth.""}","<img src=""stim_listB/dance3.gif""</stim_listB>",is dancing with,
null,"<div style=""font-size:60px;"">+</div>",,html-keyboard-response,200,1716770,0.0-15.0-0.18,23781,List2B,black,woman,,,,null,,,,
null,"<img src=""stim_listB/talk5.gif""</stim_listB>",,html-keyboard-response,201,1718773,0.0-15.0-1.18,23781,List2B,black,woman,,,,null,,,,
null,is talking to,,html-keyboard-response,202,1720775,0.0-15.0-2.18,23781,List2B,black,woman,,,,null,,,,
8166,,,survey-text,203,1728944,0.0-15.0-3.18,23781,List2B,black,woman,,,,,"{""Q0"":""luke is talking to mike.""}","<img src=""stim_listB/talk5.gif""</stim_listB>",is talking to,
null,"<div style=""font-size:60px;"">+</div>",,html-keyboard-response,204,1729446,0.0-15.0-0.19,23781,List2B,black,woman,,,,null,,,,
null,"<img src=""stim_listB/shout3.gif""</stim_listB>",,html-keyboard-response,205,1731450,0.0-15.0-1.19,23781,List2B,black,woman,,,,null,,,,
null,is shouting at,,html-keyboard-response,206,1733452,0.0-15.0-2.19,23781,List2B,black,woman,,,,null,,,,
7624,,,survey-text,207,1741078,0.0-15.0-3.19,23781,List2B,black,woman,,,,,"{""Q0"":""beth is shouting at fred.""}","<img src=""stim_listB/shout3.gif""</stim_listB>",is shouting at,
23308,"<img src='img/portrait_matrix_list2.JPG' style='width:900px;height:500px;''></img><p>If you have memorised all the portraits and names and are ready to start, press Continue.</p><p><strong>Please note: Your memory of these faces will be tested 4 times during this experiment.</strong></p>",0,html-button-response,208,1764392,0.0-16.0-0.0,23781,List2B,black,woman,,,,,,,,
4011,"<img src=""portrait/BM1.jpg""style=""width:400px;height:400px;""></img>",4,html-button-response,209,1769409,0.0-16.0-1.0,23781,List2B,black,woman,,TRUE,4,,,,,
null,CORRECT,,html-keyboard-response,210,1770912,0.0-16.0-2.0-0.0,23781,List2B,black,woman,,,,null,,,,
15111,"<img src=""portrait/WM2.jpg""style=""width:400px;height:400px;""></img>",7,html-button-response,211,1786028,0.0-16.0-4.0,23781,List2B,black,woman,,TRUE,7,,,,,
null,CORRECT,,html-keyboard-response,212,1787530,0.0-16.0-5.0-0.0,23781,List2B,black,woman,,,,null,,,,
2731,"<img src=""portrait/BW1.jpg""style=""width:400px;height:400px;""></img>",0,html-button-response,213,1790264,0.0-16.0-7.0,23781,List2B,black,woman,,TRUE,0,,,,,
null,CORRECT,,html-keyboard-response,214,1791767,0.0-16.0-8.0-0.0,23781,List2B,black,woman,,,,null,,,,
3975,"<img src=""portrait/BM2.jpg""style=""width:400px;height:400px;""></img>",5,html-button-response,215,1795746,0.0-16.0-10.0,23781,List2B,black,woman,,TRUE,5,,,,,
null,CORRECT,,html-keyboard-response,216,1797248,0.0-16.0-11.0-0.0,23781,List2B,black,woman,,,,null,,,,
2132,"<img src=""portrait/BW2.jpg""style=""width:400px;height:400px;""></img>",2,html-button-response,217,1799382,0.0-16.0-13.0,23781,List2B,black,woman,,TRUE,2,,,,,
null,CORRECT,,html-keyboard-response,218,1800885,0.0-16.0-14.0-0.0,23781,List2B,black,woman,,,,null,,,,
2579,"<img src=""portrait/WM1.jpg""style=""width:400px;height:400px;""></img>",6,html-button-response,219,1803469,0.0-16.0-16.0,23781,List2B,black,woman,,TRUE,6,,,,,
null,CORRECT,,html-keyboard-response,220,1804972,0.0-16.0-17.0-0.0,23781,List2B,black,woman,,,,null,,,,
2455,"<img src=""portrait/WW2.jpg""style=""width:400px;height:400px;""></img>",3,html-button-response,221,1807431,0.0-16.0-19.0,23781,List2B,black,woman,,TRUE,3,,,,,
null,CORRECT,,html-keyboard-response,222,1808933,0.0-16.0-20.0-0.0,23781,List2B,black,woman,,,,null,,,,
3409,"<img src=""portrait/WW1.jpg""style=""width:400px;height:400px;""></img>",1,html-button-response,223,1812349,0.0-16.0-22.0,23781,List2B,black,woman,,TRUE,1,,,,,
null,CORRECT,,html-keyboard-response,224,1813852,0.0-16.0-23.0-0.0,23781,List2B,black,woman,,,,null,,,,
757,<p>You got 8 out of 8 right first time. Press Continue.</p>,0,html-button-response,225,1814612,0.0-16.0-25.0,23781,List2B,black,woman,,,,,,,,
null,"<div style=""font-size:60px;"">+</div>",,html-keyboard-response,226,1816116,0.0-17.0-0.0,23781,List2B,black,woman,,,,null,,,,
null,"<img src=""stim_listB/marry2.gif""</stim_listB>",,html-keyboard-response,227,1818118,0.0-17.0-1.0,23781,List2B,black,woman,,,,null,,,,
null,are marrying each other,,html-keyboard-response,228,1820120,0.0-17.0-2.0,23781,List2B,black,woman,,,,null,,,,
10060,,,survey-text,229,1830184,0.0-17.0-3.0,23781,List2B,black,woman,,,,,"{""Q0"":""luke and jane are marrying each other.""}","<img src=""stim_listB/marry2.gif""</stim_listB>",are marrying each other,
null,"<div style=""font-size:60px;"">+</div>",,html-keyboard-response,230,1830686,0.0-17.0-0.1,23781,List2B,black,woman,,,,null,,,,
null,"<img src=""stim_listB/hug7.gif""</stim_listB>",,html-keyboard-response,231,1832689,0.0-17.0-1.1,23781,List2B,black,woman,,,,null,,,,
null,is hugging,,html-keyboard-response,232,1834691,0.0-17.0-2.1,23781,List2B,black,woman,,,,null,,,,
7519,,,survey-text,233,1842213,0.0-17.0-3.1,23781,List2B,black,woman,,,,,"{""Q0"":""beth is hugging ruth.""}","<img src=""stim_listB/hug7.gif""</stim_listB>",is hugging,
null,"<div style=""font-size:60px;"">+</div>",,html-keyboard-response,234,1842715,0.0-17.0-0.2,23781,List2B,black,woman,,,,null,,,,
null,"<img src=""stim_listB/fight7.gif""</stim_listB>",,html-keyboard-response,235,1844718,0.0-17.0-1.2,23781,List2B,black,woman,,,,null,,,,
null,is fighting,,html-keyboard-response,236,1846720,0.0-17.0-2.2,23781,List2B,black,woman,,,,null,,,,
5225,,,survey-text,237,1851947,0.0-17.0-3.2,23781,List2B,black,woman,,,,,"{""Q0"":""kate is fighting jane.""}","<img src=""stim_listB/fight7.gif""</stim_listB>",is fighting,
null,"<div style=""font-size:60px;"">+</div>",,html-keyboard-response,238,1852450,0.0-17.0-0.3,23781,List2B,black,woman,,,,null,,,,
null,"<img src=""stim_listB/fight1.gif""</stim_listB>",,html-keyboard-response,239,1854453,0.0-17.0-1.3,23781,List2B,black,woman,,,,null,,,,
null,is fighting,,html-keyboard-response,240,1856456,0.0-17.0-2.3,23781,List2B,black,woman,,,,null,,,,
7758,,,survey-text,241,1864217,0.0-17.0-3.3,23781,List2B,black,woman,,,,,"{""Q0"":""jane is fighting dave.""}","<img src=""stim_listB/fight1.gif""</stim_listB>",is fighting,
null,"<div style=""font-size:60px;"">+</div>",,html-keyboard-response,242,1864719,0.0-17.0-0.4,23781,List2B,black,woman,,,,null,,,,
null,"<img src=""stim_listB/argue7.gif""</stim_listB>",,html-keyboard-response,243,1866723,0.0-17.0-1.4,23781,List2B,black,woman,,,,null,,,,
null,is arguing with,,html-keyboard-response,244,1868725,0.0-17.0-2.4,23781,List2B,black,woman,,,,null,,,,
11834,,,survey-text,245,1880562,0.0-17.0-3.4,23781,List2B,black,woman,,,,,"{""Q0"":""beth is arguing with jane.""}","<img src=""stim_listB/argue7.gif""</stim_listB>",is arguing with,
null,"<div style=""font-size:60px;"">+</div>",,html-keyboard-response,246,1881065,0.0-17.0-0.5,23781,List2B,black,woman,,,,null,,,,
null,"<img src=""stim_listB/talk8.gif""</stim_listB>",,html-keyboard-response,247,1883068,0.0-17.0-1.5,23781,List2B,black,woman,,,,null,,,,
null,are talking to each other,,html-keyboard-response,248,1885070,0.0-17.0-2.5,23781,List2B,black,woman,,,,null,,,,
9290,,,survey-text,249,1894364,0.0-17.0-3.5,23781,List2B,black,woman,,,,,"{""Q0"":""jane and beth are talking to each other.""}","<img src=""stim_listB/talk8.gif""</stim_listB>",are talking to each other,
null,"<div style=""font-size:60px;"">+</div>",,html-keyboard-response,250,1894866,0.0-17.0-0.6,23781,List2B,black,woman,,,,null,,,,
null,"<img src=""stim_listB/touch5.gif""</stim_listB>",,html-keyboard-response,251,1896869,0.0-17.0-1.6,23781,List2B,black,woman,,,,null,,,,
null,is touching,,html-keyboard-response,252,1898871,0.0-17.0-2.6,23781,List2B,black,woman,,,,null,,,,
5818,,,survey-text,253,1904692,0.0-17.0-3.6,23781,List2B,black,woman,,,,,"{""Q0"":""mike is touching dave.""}","<img src=""stim_listB/touch5.gif""</stim_listB>",is touching,
null,"<div style=""font-size:60px;"">+</div>",,html-keyboard-response,254,1905195,0.0-17.0-0.7,23781,List2B,black,woman,,,,null,,,,
null,"<img src=""stim_listB/dance8.gif""</stim_listB>",,html-keyboard-response,255,1907198,0.0-17.0-1.7,23781,List2B,black,woman,,,,null,,,,
null,are dancing with each other,,html-keyboard-response,256,1909202,0.0-17.0-2.7,23781,List2B,black,woman,,,,null,,,,
7846,,,survey-text,257,1917051,0.0-17.0-3.7,23781,List2B,black,woman,,,,,"{""Q0"":""jane and beth are dancing with each other.""}","<img src=""stim_listB/dance8.gif""</stim_listB>",are dancing with each other,
null,"<div style=""font-size:60px;"">+</div>",,html-keyboard-response,258,1917553,0.0-17.0-0.8,23781,List2B,black,woman,,,,null,,,,
null,"<img src=""stim_listB/touch6.gif""</stim_listB>",,html-keyboard-response,259,1919555,0.0-17.0-1.8,23781,List2B,black,woman,,,,null,,,,
null,are touching each other,,html-keyboard-response,260,1921558,0.0-17.0-2.8,23781,List2B,black,woman,,,,null,,,,
7685,,,survey-text,261,1929245,0.0-17.0-3.8,23781,List2B,black,woman,,,,,"{""Q0"":""luke and fred are touching each other.""}","<img src=""stim_listB/touch6.gif""</stim_listB>",are touching each other,
null,"<div style=""font-size:60px;"">+</div>",,html-keyboard-response,262,1929748,0.0-17.0-0.9,23781,List2B,black,woman,,,,null,,,,
null,"<img src=""stim_listB/meet7.gif""</stim_listB>",,html-keyboard-response,263,1931751,0.0-17.0-1.9,23781,List2B,black,woman,,,,null,,,,
null,is meeting,,html-keyboard-response,264,1933753,0.0-17.0-2.9,23781,List2B,black,woman,,,,null,,,,
11387,,,survey-text,265,1945143,0.0-17.0-3.9,23781,List2B,black,woman,,,,,"{""Q0"":""kate is meeting jane.""}","<img src=""stim_listB/meet7.gif""</stim_listB>",is meeting,
null,"<div style=""font-size:60px;"">+</div>",,html-keyboard-response,266,1945646,0.0-17.0-0.10,23781,List2B,black,woman,,,,null,,,,
null,"<img src=""stim_listB/kiss7.gif""</stim_listB>",,html-keyboard-response,267,1947649,0.0-17.0-1.10,23781,List2B,black,woman,,,,null,,,,
null,is kissing,,html-keyboard-response,268,1949651,0.0-17.0-2.10,23781,List2B,black,woman,,,,null,,,,
5406,,,survey-text,269,1955060,0.0-17.0-3.10,23781,List2B,black,woman,,,,,"{""Q0"":""beth is kissing ruth.""}","<img src=""stim_listB/kiss7.gif""</stim_listB>",is kissing,
null,"<div style=""font-size:60px;"">+</div>",,html-keyboard-response,270,1955562,0.0-17.0-0.11,23781,List2B,black,woman,,,,null,,,,
null,"<img src=""stim_listB/kiss8.gif""</stim_listB>",,html-keyboard-response,271,1957565,0.0-17.0-1.11,23781,List2B,black,woman,,,,null,,,,
null,are kissing each other,,html-keyboard-response,272,1959568,0.0-17.0-2.11,23781,List2B,black,woman,,,,null,,,,
10887,,,survey-text,273,1970457,0.0-17.0-3.11,23781,List2B,black,woman,,,,,"{""Q0"":""jane and kate are kissing each other.""}","<img src=""stim_listB/kiss8.gif""</stim_listB>",are kissing each other,
null,"<div style=""font-size:60px;"">+</div>",,html-keyboard-response,274,1970959,0.0-17.0-0.12,23781,List2B,black,woman,,,,null,,,,
null,"<img src=""stim_listB/touch7.gif""</stim_listB>",,html-keyboard-response,275,1972961,0.0-17.0-1.12,23781,List2B,black,woman,,,,null,,,,
null,is touching,,html-keyboard-response,276,1974963,0.0-17.0-2.12,23781,List2B,black,woman,,,,null,,,,
5435,,,survey-text,277,1980400,0.0-17.0-3.12,23781,List2B,black,woman,,,,,"{""Q0"":""kate is touching jane.""}","<img src=""stim_listB/touch7.gif""</stim_listB>",is touching,
null,"<div style=""font-size:60px;"">+</div>",,html-keyboard-response,278,1980903,0.0-17.0-0.13,23781,List2B,black,woman,,,,null,,,,
null,"<img src=""stim_listB/meet2.gif""</stim_listB>",,html-keyboard-response,279,1982906,0.0-17.0-1.13,23781,List2B,black,woman,,,,null,,,,
null,are meeting each other,,html-keyboard-response,280,1984908,0.0-17.0-2.13,23781,List2B,black,woman,,,,null,,,,
10391,,,survey-text,281,1995301,0.0-17.0-3.13,23781,List2B,black,woman,,,,,"{""Q0"":""luke and ruth are meeting each other.""}","<img src=""stim_listB/meet2.gif""</stim_listB>",are meeting each other,
null,"<div style=""font-size:60px;"">+</div>",,html-keyboard-response,282,1995804,0.0-17.0-0.14,23781,List2B,black,woman,,,,null,,,,
null,"<img src=""stim_listB/dance4.gif""</stim_listB>",,html-keyboard-response,283,1997807,0.0-17.0-1.14,23781,List2B,black,woman,,,,null,,,,
null,are dancing with each other,,html-keyboard-response,284,1999809,0.0-17.0-2.14,23781,List2B,black,woman,,,,null,,,,
7148,,,survey-text,285,2006960,0.0-17.0-3.14,23781,List2B,black,woman,,,,,"{""Q0"":""mike and beth are dancing with each other.""}","<img src=""stim_listB/dance4.gif""</stim_listB>",are dancing with each other,
null,"<div style=""font-size:60px;"">+</div>",,html-keyboard-response,286,2007463,0.0-17.0-0.15,23781,List2B,black,woman,,,,null,,,,
null,"<img src=""stim_listB/hug4.gif""</stim_listB>",,html-keyboard-response,287,2009466,0.0-17.0-1.15,23781,List2B,black,woman,,,,null,,,,
null,are hugging each other,,html-keyboard-response,288,2011469,0.0-17.0-2.15,23781,List2B,black,woman,,,,null,,,,
6411,,,survey-text,289,2017883,0.0-17.0-3.15,23781,List2B,black,woman,,,,,"{""Q0"":""mike and kate are hugging each other.""}","<img src=""stim_listB/hug4.gif""</stim_listB>",are hugging each other,
null,"<div style=""font-size:60px;"">+</div>",,html-keyboard-response,290,2018386,0.0-17.0-0.16,23781,List2B,black,woman,,,,null,,,,
null,"<img src=""stim_listB/argue8.gif""</stim_listB>",,html-keyboard-response,291,2020911,0.0-17.0-1.16,23781,List2B,black,woman,,,,null,,,,
null,are arguing with each other,,html-keyboard-response,292,2022913,0.0-17.0-2.16,23781,List2B,black,woman,,,,null,,,,
6466,,,survey-text,293,2029381,0.0-17.0-3.16,23781,List2B,black,woman,,,,,"{""Q0"":""are arguing with each other""}","<img src=""stim_listB/argue8.gif""</stim_listB>",are arguing with each other,
null,"<div style=""font-size:60px;"">+</div>",,html-keyboard-response,294,2029884,0.0-17.0-0.17,23781,List2B,black,woman,,,,null,,,,
null,"<img src=""stim_listB/kiss1.gif""</stim_listB>",,html-keyboard-response,295,2031886,0.0-17.0-1.17,23781,List2B,black,woman,,,,null,,,,
null,is kissing,,html-keyboard-response,296,2033889,0.0-17.0-2.17,23781,List2B,black,woman,,,,null,,,,
12689,,,survey-text,297,2046581,0.0-17.0-3.17,23781,List2B,black,woman,,,,,"{""Q0"":""ruth is kissing luke.""}","<img src=""stim_listB/kiss1.gif""</stim_listB>",is kissing,
null,"<div style=""font-size:60px;"">+</div>",,html-keyboard-response,298,2047084,0.0-17.0-0.18,23781,List2B,black,woman,,,,null,,,,
null,"<img src=""stim_listB/meet8.gif""</stim_listB>",,html-keyboard-response,299,2049087,0.0-17.0-1.18,23781,List2B,black,woman,,,,null,,,,
null,are meeting each other,,html-keyboard-response,300,2051089,0.0-17.0-2.18,23781,List2B,black,woman,,,,null,,,,
9802,,,survey-text,301,2060894,0.0-17.0-3.18,23781,List2B,black,woman,,,,,"{""Q0"":""ruth and kate are meeting each other.""}","<img src=""stim_listB/meet8.gif""</stim_listB>",are meeting each other,
null,"<div style=""font-size:60px;"">+</div>",,html-keyboard-response,302,2061397,0.0-17.0-0.19,23781,List2B,black,woman,,,,null,,,,
null,"<img src=""stim_listB/marry7.gif""</stim_listB>",,html-keyboard-response,303,2063400,0.0-17.0-1.19,23781,List2B,black,woman,,,,null,,,,
null,is marrying,,html-keyboard-response,304,2065402,0.0-17.0-2.19,23781,List2B,black,woman,,,,null,,,,
9714,,,survey-text,305,2075119,0.0-17.0-3.19,23781,List2B,black,woman,,,,,"{""Q0"":""beth is marrying jane.""}","<img src=""stim_listB/marry7.gif""</stim_listB>",is marrying,
15110,"<img src='img/portrait_matrix_list2.JPG' style='width:900px;height:500px;''></img><p>If you have memorised all the portraits and names and are ready to start, press Continue.</p><p><strong>Please note: Your memory of these faces will be tested 4 times during this experiment.</strong></p>",0,html-button-response,306,2090233,0.0-18.0-0.0,23781,List2B,black,woman,,,,,,,,
1731,"<img src=""portrait/WW2.jpg""style=""width:400px;height:400px;""></img>",3,html-button-response,307,2092969,0.0-18.0-1.0,23781,List2B,black,woman,,TRUE,3,,,,,
null,CORRECT,,html-keyboard-response,308,2094472,0.0-18.0-2.0-0.0,23781,List2B,black,woman,,,,null,,,,
5095,"<img src=""portrait/BM1.jpg""style=""width:400px;height:400px;""></img>",4,html-button-response,309,2099572,0.0-18.0-4.0,23781,List2B,black,woman,,TRUE,4,,,,,
null,CORRECT,,html-keyboard-response,310,2101075,0.0-18.0-5.0-0.0,23781,List2B,black,woman,,,,null,,,,
2398,"<img src=""portrait/BW1.jpg""style=""width:400px;height:400px;""></img>",0,html-button-response,311,2103478,0.0-18.0-7.0,23781,List2B,black,woman,,TRUE,0,,,,,
null,CORRECT,,html-keyboard-response,312,2105609,0.0-18.0-8.0-0.0,23781,List2B,black,woman,,,,null,,,,
4409,"<img src=""portrait/WM1.jpg""style=""width:400px;height:400px;""></img>",6,html-button-response,313,2110021,0.0-18.0-10.0,23781,List2B,black,woman,,TRUE,6,,,,,
null,CORRECT,,html-keyboard-response,314,2111525,0.0-18.0-11.0-0.0,23781,List2B,black,woman,,,,null,,,,
6059,"<img src=""portrait/WM2.jpg""style=""width:400px;height:400px;""></img>",7,html-button-response,315,2117589,0.0-18.0-13.0,23781,List2B,black,woman,,TRUE,7,,,,,
null,CORRECT,,html-keyboard-response,316,2119092,0.0-18.0-14.0-0.0,23781,List2B,black,woman,,,,null,,,,
4013,"<img src=""portrait/BM2.jpg""style=""width:400px;height:400px;""></img>",5,html-button-response,317,2123112,0.0-18.0-16.0,23781,List2B,black,woman,,TRUE,5,,,,,
null,CORRECT,,html-keyboard-response,318,2124615,0.0-18.0-17.0-0.0,23781,List2B,black,woman,,,,null,,,,
2562,"<img src=""portrait/WW1.jpg""style=""width:400px;height:400px;""></img>",1,html-button-response,319,2127181,0.0-18.0-19.0,23781,List2B,black,woman,,TRUE,1,,,,,
null,CORRECT,,html-keyboard-response,320,2128684,0.0-18.0-20.0-0.0,23781,List2B,black,woman,,,,null,,,,
2346,"<img src=""portrait/BW2.jpg""style=""width:400px;height:400px;""></img>",2,html-button-response,321,2131033,0.0-18.0-22.0,23781,List2B,black,woman,,TRUE,2,,,,,
null,CORRECT,,html-keyboard-response,322,2132536,0.0-18.0-23.0-0.0,23781,List2B,black,woman,,,,null,,,,
883,<p>You got 8 out of 8 right first time. Press Continue.</p>,0,html-button-response,323,2133422,0.0-18.0-25.0,23781,List2B,black,woman,,,,,,,,
null,"<div style=""font-size:60px;"">+</div>",,html-keyboard-response,324,2134926,0.0-19.0-0.0,23781,List2B,black,woman,,,,null,,,,
null,"<img src=""stim_listB/kiss3.gif""</stim_listB>",,html-keyboard-response,325,2136929,0.0-19.0-1.0,23781,List2B,black,woman,,,,null,,,,
null,is kissing,,html-keyboard-response,326,2138932,0.0-19.0-2.0,23781,List2B,black,woman,,,,null,,,,
5490,,,survey-text,327,2144426,0.0-19.0-3.0,23781,List2B,black,woman,,,,,"{""Q0"":""beth is kissing fred.""}","<img src=""stim_listB/kiss3.gif""</stim_listB>",is kissing,
null,"<div style=""font-size:60px;"">+</div>",,html-keyboard-response,328,2144930,0.0-19.0-0.1,23781,List2B,black,woman,,,,null,,,,
null,"<img src=""stim_listB/meet6.gif""</stim_listB>",,html-keyboard-response,329,2146933,0.0-19.0-1.1,23781,List2B,black,woman,,,,null,,,,
null,are meeting each other,,html-keyboard-response,330,2148938,0.0-19.0-2.1,23781,List2B,black,woman,,,,null,,,,
6299,,,survey-text,331,2155239,0.0-19.0-3.1,23781,List2B,black,woman,,,,,"{""Q0"":""luke and dave are meeting each other.""}","<img src=""stim_listB/meet6.gif""</stim_listB>",are meeting each other,
null,"<div style=""font-size:60px;"">+</div>",,html-keyboard-response,332,2155742,0.0-19.0-0.2,23781,List2B,black,woman,,,,null,,,,
null,"<img src=""stim_listB/fight2.gif""</stim_listB>",,html-keyboard-response,333,2157746,0.0-19.0-1.2,23781,List2B,black,woman,,,,null,,,,
null,are fighting each other,,html-keyboard-response,334,2159748,0.0-19.0-2.2,23781,List2B,black,woman,,,,null,,,,
8538,,,survey-text,335,2168289,0.0-19.0-3.2,23781,List2B,black,woman,,,,,"{""Q0"":""luke and ruth are fighting each other.""}","<img src=""stim_listB/fight2.gif""</stim_listB>",are fighting each other,
null,"<div style=""font-size:60px;"">+</div>",,html-keyboard-response,336,2168792,0.0-19.0-0.3,23781,List2B,black,woman,,,,null,,,,
null,"<img src=""stim_listB/argue1.gif""</stim_listB>",,html-keyboard-response,337,2170795,0.0-19.0-1.3,23781,List2B,black,woman,,,,null,,,,
null,is arguing with,,html-keyboard-response,338,2172797,0.0-19.0-2.3,23781,List2B,black,woman,,,,null,,,,
10529,,,survey-text,339,2183328,0.0-19.0-3.3,23781,List2B,black,woman,,,,,"{""Q0"":""beth is arguing with dave.""}","<img src=""stim_listB/argue1.gif""</stim_listB>",is arguing with,
null,"<div style=""font-size:60px;"">+</div>",,html-keyboard-response,340,2183831,0.0-19.0-0.4,23781,List2B,black,woman,,,,null,,,,
null,"<img src=""stim_listB/talk4.gif""</stim_listB>",,html-keyboard-response,341,2185834,0.0-19.0-1.4,23781,List2B,black,woman,,,,null,,,,
null,are talking to each other,,html-keyboard-response,342,2187836,0.0-19.0-2.4,23781,List2B,black,woman,,,,null,,,,
9864,,,survey-text,343,2197704,0.0-19.0-3.4,23781,List2B,black,woman,,,,,"{""Q0"":""mike and beth are talking to each other.""}","<img src=""stim_listB/talk4.gif""</stim_listB>",are talking to each other,
null,"<div style=""font-size:60px;"">+</div>",,html-keyboard-response,344,2198206,0.0-19.0-0.5,23781,List2B,black,woman,,,,null,,,,
null,"<img src=""stim_listB/fight6.gif""</stim_listB>",,html-keyboard-response,345,2200209,0.0-19.0-1.5,23781,List2B,black,woman,,,,null,,,,
null,are fighting each other,,html-keyboard-response,346,2202211,0.0-19.0-2.5,23781,List2B,black,woman,,,,null,,,,
7950,,,survey-text,347,2210164,0.0-19.0-3.5,23781,List2B,black,woman,,,,,"{""Q0"":""luke and fred are fighting each other.""}","<img src=""stim_listB/fight6.gif""</stim_listB>",are fighting each other,
null,"<div style=""font-size:60px;"">+</div>",,html-keyboard-response,348,2210667,0.0-19.0-0.6,23781,List2B,black,woman,,,,null,,,,
null,"<img src=""stim_listB/shout2.gif""</stim_listB>",,html-keyboard-response,349,2212670,0.0-19.0-1.6,23781,List2B,black,woman,,,,null,,,,
null,are shouting at each other,,html-keyboard-response,350,2214672,0.0-19.0-2.6,23781,List2B,black,woman,,,,null,,,,
6357,,,survey-text,351,2221033,0.0-19.0-3.6,23781,List2B,black,woman,,,,,"{""Q0"":""jane and dave are shouting at each other.""}","<img src=""stim_listB/shout2.gif""</stim_listB>",are shouting at each other,
null,"<div style=""font-size:60px;"">+</div>",,html-keyboard-response,352,2221536,0.0-19.0-0.7,23781,List2B,black,woman,,,,null,,,,
null,"<img src=""stim_listB/shout5.gif""</stim_listB>",,html-keyboard-response,353,2223539,0.0-19.0-1.7,23781,List2B,black,woman,,,,null,,,,
null,is shouting at,,html-keyboard-response,354,2225541,0.0-19.0-2.7,23781,List2B,black,woman,,,,null,,,,
6176,,,survey-text,355,2231720,0.0-19.0-3.7,23781,List2B,black,woman,,,,,"{""Q0"":""luke is shouting at fred.""}","<img src=""stim_listB/shout5.gif""</stim_listB>",is shouting at,
null,"<div style=""font-size:60px;"">+</div>",,html-keyboard-response,356,2232223,0.0-19.0-0.8,23781,List2B,black,woman,,,,null,,,,
null,"<img src=""stim_listB/hug5.gif""</stim_listB>",,html-keyboard-response,357,2234226,0.0-19.0-1.8,23781,List2B,black,woman,,,,null,,,,
null,is hugging,,html-keyboard-response,358,2236229,0.0-19.0-2.8,23781,List2B,black,woman,,,,null,,,,
6615,,,survey-text,359,2242846,0.0-19.0-3.8,23781,List2B,black,woman,,,,,"{""Q0"":""fred is hugging luke.""}","<img src=""stim_listB/hug5.gif""</stim_listB>",is hugging,
null,"<div style=""font-size:60px;"">+</div>",,html-keyboard-response,360,2243349,0.0-19.0-0.9,23781,List2B,black,woman,,,,null,,,,
null,"<img src=""stim_listB/touch3.gif""</stim_listB>",,html-keyboard-response,361,2245352,0.0-19.0-1.9,23781,List2B,black,woman,,,,null,,,,
null,is touching,,html-keyboard-response,362,2247354,0.0-19.0-2.9,23781,List2B,black,woman,,,,null,,,,
9309,,,survey-text,363,2256667,0.0-19.0-3.9,23781,List2B,black,woman,,,,,"{""Q0"":""kate is touching mike.""}","<img src=""stim_listB/touch3.gif""</stim_listB>",is touching,
null,"<div style=""font-size:60px;"">+</div>",,html-keyboard-response,364,2257170,0.0-19.0-0.10,23781,List2B,black,woman,,,,null,,,,
null,"<img src=""stim_listB/kiss2.gif""</stim_listB>",,html-keyboard-response,365,2259173,0.0-19.0-1.10,23781,List2B,black,woman,,,,null,,,,
null,are kissing each other,,html-keyboard-response,366,2261175,0.0-19.0-2.10,23781,List2B,black,woman,,,,null,,,,
7360,,,survey-text,367,2268539,0.0-19.0-3.10,23781,List2B,black,woman,,,,,"{""Q0"":""jane and dave are kissing each other.""}","<img src=""stim_listB/kiss2.gif""</stim_listB>",are kissing each other,
null,"<div style=""font-size:60px;"">+</div>",,html-keyboard-response,368,2269042,0.0-19.0-0.11,23781,List2B,black,woman,,,,null,,,,
null,"<img src=""stim_listB/marry6.gif""</stim_listB>",,html-keyboard-response,369,2271045,0.0-19.0-1.11,23781,List2B,black,woman,,,,null,,,,
null,are marrying each other,,html-keyboard-response,370,2273046,0.0-19.0-2.11,23781,List2B,black,woman,,,,null,,,,
8105,,,survey-text,371,2281154,0.0-19.0-3.11,23781,List2B,black,woman,,,,,"{""Q0"":""luke and mike are marrying each other.""}","<img src=""stim_listB/marry6.gif""</stim_listB>",are marrying each other,
null,"<div style=""font-size:60px;"">+</div>",,html-keyboard-response,372,2281656,0.0-19.0-0.12,23781,List2B,black,woman,,,,null,,,,
null,"<img src=""stim_listB/touch8.gif""</stim_listB>",,html-keyboard-response,373,2283659,0.0-19.0-1.12,23781,List2B,black,woman,,,,null,,,,
null,are touching each other,,html-keyboard-response,374,2285663,0.0-19.0-2.12,23781,List2B,black,woman,,,,null,,,,
12255,,,survey-text,375,2297920,0.0-19.0-3.12,23781,List2B,black,woman,,,,,"{""Q0"":""beth and jane are touching each other.""}","<img src=""stim_listB/touch8.gif""</stim_listB>",are touching each other,
null,"<div style=""font-size:60px;"">+</div>",,html-keyboard-response,376,2298423,0.0-19.0-0.13,23781,List2B,black,woman,,,,null,,,,
null,"<img src=""stim_listB/marry3.gif""</stim_listB>",,html-keyboard-response,377,2300426,0.0-19.0-1.13,23781,List2B,black,woman,,,,null,,,,
null,is marrying,,html-keyboard-response,378,2302429,0.0-19.0-2.13,23781,List2B,black,woman,,,,null,,,,
7130,,,survey-text,379,2309561,0.0-19.0-3.13,23781,List2B,black,woman,,,,,"{""Q0"":""mike is marrying beth.""}","<img src=""stim_listB/marry3.gif""</stim_listB>",is marrying,
null,"<div style=""font-size:60px;"">+</div>",,html-keyboard-response,380,2310064,0.0-19.0-0.14,23781,List2B,black,woman,,,,null,,,,
null,"<img src=""stim_listB/touch2.gif""</stim_listB>",,html-keyboard-response,381,2312067,0.0-19.0-1.14,23781,List2B,black,woman,,,,null,,,,
null,are touching each other,,html-keyboard-response,382,2314069,0.0-19.0-2.14,23781,List2B,black,woman,,,,null,,,,
8795,,,survey-text,383,2322867,0.0-19.0-3.14,23781,List2B,black,woman,,,,,"{""Q0"":""luke and ruth are touching each other.""}","<img src=""stim_listB/touch2.gif""</stim_listB>",are touching each other,
null,"<div style=""font-size:60px;"">+</div>",,html-keyboard-response,384,2323370,0.0-19.0-0.15,23781,List2B,black,woman,,,,null,,,,
null,"<img src=""stim_listB/hug1.gif""</stim_listB>",,html-keyboard-response,385,2325373,0.0-19.0-1.15,23781,List2B,black,woman,,,,null,,,,
null,is hugging,,html-keyboard-response,386,2327375,0.0-19.0-2.15,23781,List2B,black,woman,,,,null,,,,
5411,,,survey-text,387,2332789,0.0-19.0-3.15,23781,List2B,black,woman,,,,,"{""Q0"":""luke is hugging ruth.""}","<img src=""stim_listB/hug1.gif""</stim_listB>",is hugging,
null,"<div style=""font-size:60px;"">+</div>",,html-keyboard-response,388,2333292,0.0-19.0-0.16,23781,List2B,black,woman,,,,null,,,,
null,"<img src=""stim_listB/kiss5.gif""</stim_listB>",,html-keyboard-response,389,2335294,0.0-19.0-1.16,23781,List2B,black,woman,,,,null,,,,
null,is kissing,,html-keyboard-response,390,2337297,0.0-19.0-2.16,23781,List2B,black,woman,,,,null,,,,
9449,,,survey-text,391,2346749,0.0-19.0-3.16,23781,List2B,black,woman,,,,,"{""Q0"":""fred is kissing luke.""}","<img src=""stim_listB/kiss5.gif""</stim_listB>",is kissing,
null,"<div style=""font-size:60px;"">+</div>",,html-keyboard-response,392,2347251,0.0-19.0-0.17,23781,List2B,black,woman,,,,null,,,,
null,"<img src=""stim_listB/argue2.gif""</stim_listB>",,html-keyboard-response,393,2349255,0.0-19.0-1.17,23781,List2B,black,woman,,,,null,,,,
null,are arguing with each other,,html-keyboard-response,394,2351257,0.0-19.0-2.17,23781,List2B,black,woman,,,,null,,,,
7931,,,survey-text,395,2359191,0.0-19.0-3.17,23781,List2B,black,woman,,,,,"{""Q0"":""jane and luke are arguing with each other.""}","<img src=""stim_listB/argue2.gif""</stim_listB>",are arguing with each other,
null,"<div style=""font-size:60px;"">+</div>",,html-keyboard-response,396,2359694,0.0-19.0-0.18,23781,List2B,black,woman,,,,null,,,,
null,"<img src=""stim_listB/shout4.gif""</stim_listB>",,html-keyboard-response,397,2361697,0.0-19.0-1.18,23781,List2B,black,woman,,,,null,,,,
null,are shouting at each other,,html-keyboard-response,398,2363699,0.0-19.0-2.18,23781,List2B,black,woman,,,,null,,,,
7977,,,survey-text,399,2371678,0.0-19.0-3.18,23781,List2B,black,woman,,,,,"{""Q0"":""mike and kate are shouting at each other.""}","<img src=""stim_listB/shout4.gif""</stim_listB>",are shouting at each other,
null,"<div style=""font-size:60px;"">+</div>",,html-keyboard-response,400,2372181,0.0-19.0-0.19,23781,List2B,black,woman,,,,null,,,,
null,"<img src=""stim_listB/marry4.gif""</stim_listB>",,html-keyboard-response,401,2374185,0.0-19.0-1.19,23781,List2B,black,woman,,,,null,,,,
null,are marrying each other,,html-keyboard-response,402,2376187,0.0-19.0-2.19,23781,List2B,black,woman,,,,null,,,,
8656,,,survey-text,403,2384845,0.0-19.0-3.19,23781,List2B,black,woman,,,,,"{""Q0"":""kate and fred are marrying each other.""}","<img src=""stim_listB/marry4.gif""</stim_listB>",are marrying each other,
3055,<p>Thank you for completing that task.</p><p>The final part of this session is a short questionnaire.</p><p>Press Continue.</p>,0,html-button-response,404,2387904,0.0-20.0,23781,List2B,black,woman,,,,,,,,
38588,,,survey-text,405,2427497,0.0-21.0,23781,List2B,black,woman,,,,,"{""Q0"":""39"",""Q1"":""english"",""Q2"":""english"",""Q3"":""United States"",""Q4"":""black"",""Q5"":""female""}",,,demographics
39092,,,survey-likert,406,2466602,0.0-22.0,23781,List2B,black,woman,,,,,"{""Q0"":6,""Q1"":6,""Q2"":6,""Q3"":6,""Q4"":5,""Q5"":1,""Q6"":5,""Q7"":3,""Q8"":6,""Q9"":6,""Q10"":3,""Q11"":3,""Q12"":3,""Q13"":3}",,,likert_race
34851,,,survey-likert,407,2501471,0.0-23.0,23781,List2B,black,woman,,,,,"{""Q0"":1,""Q1"":2,""Q2"":3,""Q3"":6,""Q4"":4,""Q5"":4,""Q6"":3,""Q7"":0,""Q8"":1,""Q9"":2,""Q10"":3,""Q11"":3,""Q12"":3,""Q13"":3}",,,likert_gender
11053,,,survey-text,408,2512535,0.0-24.0,23781,List2B,black,woman,,,,,"{""Q0"":""ccc""}",,,worker_id
57701,,,external-html,409,2570501,0.0-25.0,23781,List2B,black,woman,debrief.html,,,,,,,
