rt,stimulus,button_pressed,trial_type,trial_index,time_elapsed,internal_node_id,subject,list,ppt_race,ppt_gender,url,first_guess,correct,key_press,responses,image_type,phrase_type,test_part
9926,Welcome to the experiment. Press Continue to begin.,0,html-button-response,0,9928,0.0-0.0,26425,List1A,white,man,,,,,,,,
93124,,,external-html,1,104126,0.0-1.0,26425,List1A,white,man,consent.html,,,,,,,
12941,"<p>On the next page, you will see portraits of 8 people and their names.</p><p>Your first task is to take a few minutes to memorise the names of these people.</p><p>You will have to recall their names during the rest of the experiment, so it is</p><p>essential that you try to memorise these people and their names as best as you can.</p><br><p><strong>You will then be tested on your memory of these names and portraits.</strong></p><br><p>The experiment will start after you have completed this memory test.</p><br><p>Ready?</p>",0,html-button-response,2,117068,0.0-2.0,26425,List1A,white,man,,,,,,,,
116311,"<img src='img/portrait_matrix_list1.JPG' style='width:900px;height:500px;''></img><p>If you have memorised all the portraits and names and are ready to start, press Continue.</p><p><strong>Please note: Your memory of these faces will be tested 4 times during this experiment.</strong></p>",0,html-button-response,3,234381,0.0-3.0-0.0,26425,List1A,white,man,,,,,,,,
3430,"<img src=""portrait/WM1.jpg""style=""width:400px;height:400px;""></img>",6,html-button-response,4,238813,0.0-3.0-1.0,26425,List1A,white,man,,TRUE,6,,,,,
null,CORRECT,,html-keyboard-response,5,240316,0.0-3.0-2.0-0.0,26425,List1A,white,man,,,,null,,,,
22503,"<img src=""portrait/BW2.jpg""style=""width:400px;height:400px;""></img>",2,html-button-response,6,262819,0.0-3.0-4.0,26425,List1A,white,man,,TRUE,2,,,,,
null,CORRECT,,html-keyboard-response,7,264322,0.0-3.0-5.0-0.0,26425,List1A,white,man,,,,null,,,,
3727,"<img src=""portrait/WW1.jpg""style=""width:400px;height:400px;""></img>",1,html-button-response,8,268051,0.0-3.0-7.0,26425,List1A,white,man,,TRUE,1,,,,,
null,CORRECT,,html-keyboard-response,9,269553,0.0-3.0-8.0-0.0,26425,List1A,white,man,,,,null,,,,
2393,"<img src=""portrait/BM2.jpg""style=""width:400px;height:400px;""></img>",5,html-button-response,10,271947,0.0-3.0-10.0,26425,List1A,white,man,,TRUE,5,,,,,
null,CORRECT,,html-keyboard-response,11,273449,0.0-3.0-11.0-0.0,26425,List1A,white,man,,,,null,,,,
2169,"<img src=""portrait/WW2.jpg""style=""width:400px;height:400px;""></img>",3,html-button-response,12,275619,0.0-3.0-13.0,26425,List1A,white,man,,TRUE,3,,,,,
null,CORRECT,,html-keyboard-response,13,277120,0.0-3.0-14.0-0.0,26425,List1A,white,man,,,,null,,,,
8000,"<img src=""portrait/BM1.jpg""style=""width:400px;height:400px;""></img>",4,html-button-response,14,285122,0.0-3.0-16.0,26425,List1A,white,man,,TRUE,4,,,,,
null,CORRECT,,html-keyboard-response,15,286624,0.0-3.0-17.0-0.0,26425,List1A,white,man,,,,null,,,,
2225,"<img src=""portrait/WM2.jpg""style=""width:400px;height:400px;""></img>",7,html-button-response,16,288849,0.0-3.0-19.0,26425,List1A,white,man,,TRUE,7,,,,,
null,CORRECT,,html-keyboard-response,17,290351,0.0-3.0-20.0-0.0,26425,List1A,white,man,,,,null,,,,
10212,"<img src=""portrait/BW1.jpg""style=""width:400px;height:400px;""></img>",0,html-button-response,18,300565,0.0-3.0-22.0,26425,List1A,white,man,,TRUE,0,,,,,
null,CORRECT,,html-keyboard-response,19,302067,0.0-3.0-23.0-0.0,26425,List1A,white,man,,,,null,,,,
1264,<p>You got 8 out of 8 right first time. Press Continue.</p>,0,html-button-response,20,303332,0.0-3.0-25.0,26425,List1A,white,man,,,,,,,,
33043,"<p>In this experiment, you will view photographs of the people from the memory game interacting.</p><p>By using the <strong>exact</strong> phrase given <i>after</i> the photograph appears and recalling the correct names of the people in the photographs, form a sentence describing the interaction. You do not need to capitalise names.</p><p>Type your answer in the space provided. Please complete every sentence before moving onto the next trial.</p><p>You will only have a few seconds to memorise each given photograph and phrase before you can respond, so try your best to focus.</p><p>An example is given below. Press 'Continue' when you are ready.</p><img src='img/speaking_example_v2.jpg' style='width:800px;height:460px;''></img>",0,html-button-response,21,337378,0.0-4.0,26425,List1A,white,man,,,,,,,,
2766,"<p>Before the experiment starts, you will watch two example trials. Press 'Continue'.</p>",0,html-button-response,22,341146,0.0-5.0,26425,List1A,white,man,,,,,,,,
null,<img src='img/speaking_WW.gif'></img>,,html-keyboard-response,23,344148,0.0-6.0,26425,List1A,white,man,,,,null,,,,
null,<p>is speaking to</p>,,html-keyboard-response,24,346149,0.0-7.0,26425,List1A,white,man,,,,null,,,,
3972,<p><b>Answer:</b> kate is speaking to beth</p>,0,html-button-response,25,350122,0.0-8.0,26425,List1A,white,man,,,,,,,,
null,<img src='img/pointing_BM.gif'></img>,,html-keyboard-response,26,353123,0.0-9.0,26425,List1A,white,man,,,,null,,,,
null,<p>are pointing at each other</p>,,html-keyboard-response,27,355124,0.0-10.0,26425,List1A,white,man,,,,null,,,,
8807,<p><b>Answer:</b> luke and dave are pointing at each other</p>,0,html-button-response,28,363932,0.0-11.0,26425,List1A,white,man,,,,,,,,
56330,"<p>Ready to start the experiment?</p><br><p><strong>Remember to describe the picture using a full sentence,</strong></p><p><strong>that combines the names of the people with the given phrase.</strong></p><p><strong>If you do not do this correctly you will not be paid.</strong></p><p><strong> You do not need to capitalise names or use punctuation.</strong></p><br><p>Press 'Continue' to begin.</p>",0,html-button-response,29,421265,0.0-12.0,26425,List1A,white,man,,,,,,,,
null,"<div style=""font-size:60px;"">+</div>",,html-keyboard-response,30,422767,0.0-13.0-0.0,26425,List1A,white,man,,,,null,,,,
null,"<img src=""stim_listA/talk3.gif""</stim_listA>",,html-keyboard-response,31,424773,0.0-13.0-1.0,26425,List1A,white,man,,,,null,,,,
null,is talking to,,html-keyboard-response,32,426774,0.0-13.0-2.0,26425,List1A,white,man,,,,null,,,,
13157,,,survey-text,33,439932,0.0-13.0-3.0,26425,List1A,white,man,,,,,"{""Q0"":""Luke is talking to Jane""}","<img src=""stim_listA/talk3.gif""</stim_listA>",is talking to,
null,"<div style=""font-size:60px;"">+</div>",,html-keyboard-response,34,440434,0.0-13.0-0.1,26425,List1A,white,man,,,,null,,,,
null,"<img src=""stim_listA/fight5.gif""</stim_listA>",,html-keyboard-response,35,442436,0.0-13.0-1.1,26425,List1A,white,man,,,,null,,,,
null,is fighting,,html-keyboard-response,36,444437,0.0-13.0-2.1,26425,List1A,white,man,,,,null,,,,
11366,,,survey-text,37,455803,0.0-13.0-3.1,26425,List1A,white,man,,,,,"{""Q0"":""Mike is fighting with Dave""}","<img src=""stim_listA/fight5.gif""</stim_listA>",is fighting,
null,"<div style=""font-size:60px;"">+</div>",,html-keyboard-response,38,456304,0.0-13.0-0.2,26425,List1A,white,man,,,,null,,,,
null,"<img src=""stim_listA/meet7.gif""</stim_listA>",,html-keyboard-response,39,458306,0.0-13.0-1.2,26425,List1A,white,man,,,,null,,,,
null,is meeting,,html-keyboard-response,40,460307,0.0-13.0-2.2,26425,List1A,white,man,,,,null,,,,
7950,,,survey-text,41,468259,0.0-13.0-3.2,26425,List1A,white,man,,,,,"{""Q0"":""Jane is meeting Kate""}","<img src=""stim_listA/meet7.gif""</stim_listA>",is meeting,
null,"<div style=""font-size:60px;"">+</div>",,html-keyboard-response,42,468760,0.0-13.0-0.3,26425,List1A,white,man,,,,null,,,,
null,"<img src=""stim_listA/hug7.gif""</stim_listA>",,html-keyboard-response,43,470761,0.0-13.0-1.3,26425,List1A,white,man,,,,null,,,,
null,is hugging,,html-keyboard-response,44,472762,0.0-13.0-2.3,26425,List1A,white,man,,,,null,,,,
12914,,,survey-text,45,485677,0.0-13.0-3.3,26425,List1A,white,man,,,,,"{""Q0"":""Beth is hugging Ruth""}","<img src=""stim_listA/hug7.gif""</stim_listA>",is hugging,
null,"<div style=""font-size:60px;"">+</div>",,html-keyboard-response,46,486178,0.0-13.0-0.4,26425,List1A,white,man,,,,null,,,,
null,"<img src=""stim_listA/touch3.gif""</stim_listA>",,html-keyboard-response,47,488179,0.0-13.0-1.4,26425,List1A,white,man,,,,null,,,,
null,is touching,,html-keyboard-response,48,490180,0.0-13.0-2.4,26425,List1A,white,man,,,,null,,,,
6400,,,survey-text,49,496580,0.0-13.0-3.4,26425,List1A,white,man,,,,,"{""Q0"":""Jane is touching dave""}","<img src=""stim_listA/touch3.gif""</stim_listA>",is touching,
null,"<div style=""font-size:60px;"">+</div>",,html-keyboard-response,50,497081,0.0-13.0-0.5,26425,List1A,white,man,,,,null,,,,
null,"<img src=""stim_listA/hug8.gif""</stim_listA>",,html-keyboard-response,51,499083,0.0-13.0-1.5,26425,List1A,white,man,,,,null,,,,
null,are hugging each other,,html-keyboard-response,52,501084,0.0-13.0-2.5,26425,List1A,white,man,,,,null,,,,
8814,,,survey-text,53,509900,0.0-13.0-3.5,26425,List1A,white,man,,,,,"{""Q0"":""Jane and Kate are hugging each other""}","<img src=""stim_listA/hug8.gif""</stim_listA>",are hugging each other,
null,"<div style=""font-size:60px;"">+</div>",,html-keyboard-response,54,510400,0.0-13.0-0.6,26425,List1A,white,man,,,,null,,,,
null,"<img src=""stim_listA/argue4.gif""</stim_listA>",,html-keyboard-response,55,512402,0.0-13.0-1.6,26425,List1A,white,man,,,,null,,,,
null,are arguing with each other,,html-keyboard-response,56,514403,0.0-13.0-2.6,26425,List1A,white,man,,,,null,,,,
13966,,,survey-text,57,528370,0.0-13.0-3.6,26425,List1A,white,man,,,,,"{""Q0"":""Jane and Luke are arguing with each other""}","<img src=""stim_listA/argue4.gif""</stim_listA>",are arguing with each other,
null,"<div style=""font-size:60px;"">+</div>",,html-keyboard-response,58,528871,0.0-13.0-0.7,26425,List1A,white,man,,,,null,,,,
null,"<img src=""stim_listA/meet6.gif""</stim_listA>",,html-keyboard-response,59,530873,0.0-13.0-1.7,26425,List1A,white,man,,,,null,,,,
null,are meeting each other,,html-keyboard-response,60,532874,0.0-13.0-2.7,26425,List1A,white,man,,,,null,,,,
6823,,,survey-text,61,539698,0.0-13.0-3.7,26425,List1A,white,man,,,,,"{""Q0"":""Luke and fred are meeting each other""}","<img src=""stim_listA/meet6.gif""</stim_listA>",are meeting each other,
null,"<div style=""font-size:60px;"">+</div>",,html-keyboard-response,62,540200,0.0-13.0-0.8,26425,List1A,white,man,,,,null,,,,
null,"<img src=""stim_listA/shout2.gif""</stim_listA>",,html-keyboard-response,63,542202,0.0-13.0-1.8,26425,List1A,white,man,,,,null,,,,
null,are shouting at each other,,html-keyboard-response,64,544207,0.0-13.0-2.8,26425,List1A,white,man,,,,null,,,,
6045,,,survey-text,65,550253,0.0-13.0-3.8,26425,List1A,white,man,,,,,"{""Q0"":""kate and mike are shouting at each other""}","<img src=""stim_listA/shout2.gif""</stim_listA>",are shouting at each other,
null,"<div style=""font-size:60px;"">+</div>",,html-keyboard-response,66,550756,0.0-13.0-0.9,26425,List1A,white,man,,,,null,,,,
null,"<img src=""stim_listA/shout8.gif""</stim_listA>",,html-keyboard-response,67,552757,0.0-13.0-1.9,26425,List1A,white,man,,,,null,,,,
null,are shouting at each other,,html-keyboard-response,68,554758,0.0-13.0-2.9,26425,List1A,white,man,,,,null,,,,
7420,,,survey-text,69,562180,0.0-13.0-3.9,26425,List1A,white,man,,,,,"{""Q0"":""kate and jane are shouting at each other""}","<img src=""stim_listA/shout8.gif""</stim_listA>",are shouting at each other,
null,"<div style=""font-size:60px;"">+</div>",,html-keyboard-response,70,562681,0.0-13.0-0.10,26425,List1A,white,man,,,,null,,,,
null,"<img src=""stim_listA/touch1.gif""</stim_listA>",,html-keyboard-response,71,564682,0.0-13.0-1.10,26425,List1A,white,man,,,,null,,,,
null,is touching,,html-keyboard-response,72,566683,0.0-13.0-2.10,26425,List1A,white,man,,,,null,,,,
4143,,,survey-text,73,570827,0.0-13.0-3.10,26425,List1A,white,man,,,,,"{""Q0"":""mike is touching kate""}","<img src=""stim_listA/touch1.gif""</stim_listA>",is touching,
null,"<div style=""font-size:60px;"">+</div>",,html-keyboard-response,74,571328,0.0-13.0-0.11,26425,List1A,white,man,,,,null,,,,
null,"<img src=""stim_listA/dance4.gif""</stim_listA>",,html-keyboard-response,75,573330,0.0-13.0-1.11,26425,List1A,white,man,,,,null,,,,
null,are dancing with each other,,html-keyboard-response,76,575331,0.0-13.0-2.11,26425,List1A,white,man,,,,null,,,,
13839,,,survey-text,77,589170,0.0-13.0-3.11,26425,List1A,white,man,,,,,"{""Q0"":""dave and ruth are dancing with each other""}","<img src=""stim_listA/dance4.gif""</stim_listA>",are dancing with each other,
null,"<div style=""font-size:60px;"">+</div>",,html-keyboard-response,78,589671,0.0-13.0-0.12,26425,List1A,white,man,,,,null,,,,
null,"<img src=""stim_listA/shout7.gif""</stim_listA>",,html-keyboard-response,79,591673,0.0-13.0-1.12,26425,List1A,white,man,,,,null,,,,
null,is shouting at,,html-keyboard-response,80,593673,0.0-13.0-2.12,26425,List1A,white,man,,,,null,,,,
5047,,,survey-text,81,598721,0.0-13.0-3.12,26425,List1A,white,man,,,,,"{""Q0"":""beth is shouting at ruth""}","<img src=""stim_listA/shout7.gif""</stim_listA>",is shouting at,
null,"<div style=""font-size:60px;"">+</div>",,html-keyboard-response,82,599223,0.0-13.0-0.13,26425,List1A,white,man,,,,null,,,,
null,"<img src=""stim_listA/touch5.gif""</stim_listA>",,html-keyboard-response,83,601225,0.0-13.0-1.13,26425,List1A,white,man,,,,null,,,,
null,is touching,,html-keyboard-response,84,603226,0.0-13.0-2.13,26425,List1A,white,man,,,,null,,,,
8466,,,survey-text,85,611692,0.0-13.0-3.13,26425,List1A,white,man,,,,,"{""Q0"":""mike is touching dave""}","<img src=""stim_listA/touch5.gif""</stim_listA>",is touching,
null,"<div style=""font-size:60px;"">+</div>",,html-keyboard-response,86,612193,0.0-13.0-0.14,26425,List1A,white,man,,,,null,,,,
null,"<img src=""stim_listA/fight2.gif""</stim_listA>",,html-keyboard-response,87,614195,0.0-13.0-1.14,26425,List1A,white,man,,,,null,,,,
null,are fighting each other,,html-keyboard-response,88,616196,0.0-13.0-2.14,26425,List1A,white,man,,,,null,,,,
8895,,,survey-text,89,625091,0.0-13.0-3.14,26425,List1A,white,man,,,,,"{""Q0"":""beth and fred are fighting each other""}","<img src=""stim_listA/fight2.gif""</stim_listA>",are fighting each other,
null,"<div style=""font-size:60px;"">+</div>",,html-keyboard-response,90,625592,0.0-13.0-0.15,26425,List1A,white,man,,,,null,,,,
null,"<img src=""stim_listA/talk2.gif""</stim_listA>",,html-keyboard-response,91,627594,0.0-13.0-1.15,26425,List1A,white,man,,,,null,,,,
null,are talking to each other,,html-keyboard-response,92,629595,0.0-13.0-2.15,26425,List1A,white,man,,,,null,,,,
15966,,,survey-text,93,645562,0.0-13.0-3.15,26425,List1A,white,man,,,,,"{""Q0"":""beth and mike are talking to each other""}","<img src=""stim_listA/talk2.gif""</stim_listA>",are talking to each other,
null,"<div style=""font-size:60px;"">+</div>",,html-keyboard-response,94,646063,0.0-13.0-0.16,26425,List1A,white,man,,,,null,,,,
null,"<img src=""stim_listA/dance8.gif""</stim_listA>",,html-keyboard-response,95,648064,0.0-13.0-1.16,26425,List1A,white,man,,,,null,,,,
null,are dancing with each other,,html-keyboard-response,96,650064,0.0-13.0-2.16,26425,List1A,white,man,,,,null,,,,
7800,,,survey-text,97,657865,0.0-13.0-3.16,26425,List1A,white,man,,,,,"{""Q0"":""kate and ruth are dancing with each other""}","<img src=""stim_listA/dance8.gif""</stim_listA>",are dancing with each other,
null,"<div style=""font-size:60px;"">+</div>",,html-keyboard-response,98,658366,0.0-13.0-0.17,26425,List1A,white,man,,,,null,,,,
null,"<img src=""stim_listA/fight8.gif""</stim_listA>",,html-keyboard-response,99,660368,0.0-13.0-1.17,26425,List1A,white,man,,,,null,,,,
null,are fighting each other,,html-keyboard-response,100,662369,0.0-13.0-2.17,26425,List1A,white,man,,,,null,,,,
6523,,,survey-text,101,668893,0.0-13.0-3.17,26425,List1A,white,man,,,,,"{""Q0"":""ruth and beth are fighting each other""}","<img src=""stim_listA/fight8.gif""</stim_listA>",are fighting each other,
null,"<div style=""font-size:60px;"">+</div>",,html-keyboard-response,102,669394,0.0-13.0-0.18,26425,List1A,white,man,,,,null,,,,
null,"<img src=""stim_listA/hug6.gif""</stim_listA>",,html-keyboard-response,103,671396,0.0-13.0-1.18,26425,List1A,white,man,,,,null,,,,
null,are hugging each other,,html-keyboard-response,104,673397,0.0-13.0-2.18,26425,List1A,white,man,,,,null,,,,
7255,,,survey-text,105,680652,0.0-13.0-3.18,26425,List1A,white,man,,,,,"{""Q0"":""dave and mike are hugging each other""}","<img src=""stim_listA/hug6.gif""</stim_listA>",are hugging each other,
null,"<div style=""font-size:60px;"">+</div>",,html-keyboard-response,106,681153,0.0-13.0-0.19,26425,List1A,white,man,,,,null,,,,
null,"<img src=""stim_listA/marry5.gif""</stim_listA>",,html-keyboard-response,107,683154,0.0-13.0-1.19,26425,List1A,white,man,,,,null,,,,
null,is marrying,,html-keyboard-response,108,685155,0.0-13.0-2.19,26425,List1A,white,man,,,,null,,,,
6647,,,survey-text,109,691803,0.0-13.0-3.19,26425,List1A,white,man,,,,,"{""Q0"":""mike is marrying luke""}","<img src=""stim_listA/marry5.gif""</stim_listA>",is marrying,
3695,"<img src='img/portrait_matrix_list1.JPG' style='width:900px;height:500px;''></img><p>If you have memorised all the portraits and names and are ready to start, press Continue.</p><p><strong>Please note: Your memory of these faces will be tested 4 times during this experiment.</strong></p>",0,html-button-response,110,695499,0.0-14.0-0.0,26425,List1A,white,man,,,,,,,,
5366,"<img src=""portrait/BW2.jpg""style=""width:400px;height:400px;""></img>",2,html-button-response,111,701867,0.0-14.0-1.0,26425,List1A,white,man,,TRUE,2,,,,,
null,CORRECT,,html-keyboard-response,112,703368,0.0-14.0-2.0-0.0,26425,List1A,white,man,,,,null,,,,
1505,"<img src=""portrait/WW2.jpg""style=""width:400px;height:400px;""></img>",3,html-button-response,113,704874,0.0-14.0-4.0,26425,List1A,white,man,,TRUE,3,,,,,
null,CORRECT,,html-keyboard-response,114,706376,0.0-14.0-5.0-0.0,26425,List1A,white,man,,,,null,,,,
2473,"<img src=""portrait/WM2.jpg""style=""width:400px;height:400px;""></img>",7,html-button-response,115,708850,0.0-14.0-7.0,26425,List1A,white,man,,TRUE,7,,,,,
null,CORRECT,,html-keyboard-response,116,710352,0.0-14.0-8.0-0.0,26425,List1A,white,man,,,,null,,,,
2409,"<img src=""portrait/WW1.jpg""style=""width:400px;height:400px;""></img>",1,html-button-response,117,712762,0.0-14.0-10.0,26425,List1A,white,man,,TRUE,1,,,,,
null,CORRECT,,html-keyboard-response,118,714263,0.0-14.0-11.0-0.0,26425,List1A,white,man,,,,null,,,,
2225,"<img src=""portrait/BM2.jpg""style=""width:400px;height:400px;""></img>",5,html-button-response,119,716489,0.0-14.0-13.0,26425,List1A,white,man,,TRUE,5,,,,,
null,CORRECT,,html-keyboard-response,120,717991,0.0-14.0-14.0-0.0,26425,List1A,white,man,,,,null,,,,
1321,"<img src=""portrait/WM1.jpg""style=""width:400px;height:400px;""></img>",6,html-button-response,121,719314,0.0-14.0-16.0,26425,List1A,white,man,,TRUE,6,,,,,
null,CORRECT,,html-keyboard-response,122,720815,0.0-14.0-17.0-0.0,26425,List1A,white,man,,,,null,,,,
1673,"<img src=""portrait/BW1.jpg""style=""width:400px;height:400px;""></img>",0,html-button-response,123,722489,0.0-14.0-19.0,26425,List1A,white,man,,TRUE,0,,,,,
null,CORRECT,,html-keyboard-response,124,723991,0.0-14.0-20.0-0.0,26425,List1A,white,man,,,,null,,,,
2244,"<img src=""portrait/BM1.jpg""style=""width:400px;height:400px;""></img>",4,html-button-response,125,726237,0.0-14.0-22.0,26425,List1A,white,man,,TRUE,4,,,,,
null,CORRECT,,html-keyboard-response,126,727738,0.0-14.0-23.0-0.0,26425,List1A,white,man,,,,null,,,,
1585,<p>You got 8 out of 8 right first time. Press Continue.</p>,0,html-button-response,127,729325,0.0-14.0-25.0,26425,List1A,white,man,,,,,,,,
null,"<div style=""font-size:60px;"">+</div>",,html-keyboard-response,128,730826,0.0-15.0-0.0,26425,List1A,white,man,,,,null,,,,
null,"<img src=""stim_listA/shout3.gif""</stim_listA>",,html-keyboard-response,129,732828,0.0-15.0-1.0,26425,List1A,white,man,,,,null,,,,
null,is shouting at,,html-keyboard-response,130,734829,0.0-15.0-2.0,26425,List1A,white,man,,,,null,,,,
8997,,,survey-text,131,743828,0.0-15.0-3.0,26425,List1A,white,man,,,,,"{""Q0"":""ruth is shouting at luke""}","<img src=""stim_listA/shout3.gif""</stim_listA>",is shouting at,
null,"<div style=""font-size:60px;"">+</div>",,html-keyboard-response,132,744329,0.0-15.0-0.1,26425,List1A,white,man,,,,null,,,,
null,"<img src=""stim_listA/argue2.gif""</stim_listA>",,html-keyboard-response,133,746331,0.0-15.0-1.1,26425,List1A,white,man,,,,null,,,,
null,are arguing with each other,,html-keyboard-response,134,748331,0.0-15.0-2.1,26425,List1A,white,man,,,,null,,,,
18238,,,survey-text,135,766570,0.0-15.0-3.1,26425,List1A,white,man,,,,,"{""Q0"":""fred and kate are arguing with each other""}","<img src=""stim_listA/argue2.gif""</stim_listA>",are arguing with each other,
null,"<div style=""font-size:60px;"">+</div>",,html-keyboard-response,136,767071,0.0-15.0-0.2,26425,List1A,white,man,,,,null,,,,
null,"<img src=""stim_listA/meet5.gif""</stim_listA>",,html-keyboard-response,137,769073,0.0-15.0-1.2,26425,List1A,white,man,,,,null,,,,
null,is meeting,,html-keyboard-response,138,771075,0.0-15.0-2.2,26425,List1A,white,man,,,,null,,,,
5718,,,survey-text,139,776793,0.0-15.0-3.2,26425,List1A,white,man,,,,,"{""Q0"":""mike is meeting dave""}","<img src=""stim_listA/meet5.gif""</stim_listA>",is meeting,
null,"<div style=""font-size:60px;"">+</div>",,html-keyboard-response,140,777295,0.0-15.0-0.3,26425,List1A,white,man,,,,null,,,,
null,"<img src=""stim_listA/talk5.gif""</stim_listA>",,html-keyboard-response,141,779297,0.0-15.0-1.3,26425,List1A,white,man,,,,null,,,,
null,is talking to,,html-keyboard-response,142,781297,0.0-15.0-2.3,26425,List1A,white,man,,,,null,,,,
3791,,,survey-text,143,785089,0.0-15.0-3.3,26425,List1A,white,man,,,,,"{""Q0"":""fred is talking to dave""}","<img src=""stim_listA/talk5.gif""</stim_listA>",is talking to,
null,"<div style=""font-size:60px;"">+</div>",,html-keyboard-response,144,785594,0.0-15.0-0.4,26425,List1A,white,man,,,,null,,,,
null,"<img src=""stim_listA/fight6.gif""</stim_listA>",,html-keyboard-response,145,787596,0.0-15.0-1.4,26425,List1A,white,man,,,,null,,,,
null,are fighting each other,,html-keyboard-response,146,789596,0.0-15.0-2.4,26425,List1A,white,man,,,,null,,,,
6671,,,survey-text,147,796268,0.0-15.0-3.4,26425,List1A,white,man,,,,,"{""Q0"":""fred and luke are fighting each other""}","<img src=""stim_listA/fight6.gif""</stim_listA>",are fighting each other,
null,"<div style=""font-size:60px;"">+</div>",,html-keyboard-response,148,796769,0.0-15.0-0.5,26425,List1A,white,man,,,,null,,,,
null,"<img src=""stim_listA/hug4.gif""</stim_listA>",,html-keyboard-response,149,798770,0.0-15.0-1.5,26425,List1A,white,man,,,,null,,,,
null,are hugging each other,,html-keyboard-response,150,800772,0.0-15.0-2.5,26425,List1A,white,man,,,,null,,,,
8943,,,survey-text,151,809715,0.0-15.0-3.5,26425,List1A,white,man,,,,,"{""Q0"":""jane and dave are hugging each other""}","<img src=""stim_listA/hug4.gif""</stim_listA>",are hugging each other,
null,"<div style=""font-size:60px;"">+</div>",,html-keyboard-response,152,810216,0.0-15.0-0.6,26425,List1A,white,man,,,,null,,,,
null,"<img src=""stim_listA/marry3.gif""</stim_listA>",,html-keyboard-response,153,812217,0.0-15.0-1.6,26425,List1A,white,man,,,,null,,,,
null,is marrying,,html-keyboard-response,154,814218,0.0-15.0-2.6,26425,List1A,white,man,,,,null,,,,
6408,,,survey-text,155,820626,0.0-15.0-3.6,26425,List1A,white,man,,,,,"{""Q0"":""dave is marrying ruth""}","<img src=""stim_listA/marry3.gif""</stim_listA>",is marrying,
null,"<div style=""font-size:60px;"">+</div>",,html-keyboard-response,156,821127,0.0-15.0-0.7,26425,List1A,white,man,,,,null,,,,
null,"<img src=""stim_listA/touch2.gif""</stim_listA>",,html-keyboard-response,157,823128,0.0-15.0-1.7,26425,List1A,white,man,,,,null,,,,
null,are touching each other,,html-keyboard-response,158,825129,0.0-15.0-2.7,26425,List1A,white,man,,,,null,,,,
7431,,,survey-text,159,832562,0.0-15.0-3.7,26425,List1A,white,man,,,,,"{""Q0"":""beth and fred are touching each other""}","<img src=""stim_listA/touch2.gif""</stim_listA>",are touching each other,
null,"<div style=""font-size:60px;"">+</div>",,html-keyboard-response,160,833063,0.0-15.0-0.8,26425,List1A,white,man,,,,null,,,,
null,"<img src=""stim_listA/dance5.gif""</stim_listA>",,html-keyboard-response,161,835065,0.0-15.0-1.8,26425,List1A,white,man,,,,null,,,,
null,is dancing with,,html-keyboard-response,162,837066,0.0-15.0-2.8,26425,List1A,white,man,,,,null,,,,
6318,,,survey-text,163,843385,0.0-15.0-3.8,26425,List1A,white,man,,,,,"{""Q0"":""fred is dancing with dave""}","<img src=""stim_listA/dance5.gif""</stim_listA>",is dancing with,
null,"<div style=""font-size:60px;"">+</div>",,html-keyboard-response,164,843886,0.0-15.0-0.9,26425,List1A,white,man,,,,null,,,,
null,"<img src=""stim_listA/kiss3.gif""</stim_listA>",,html-keyboard-response,165,845891,0.0-15.0-1.9,26425,List1A,white,man,,,,null,,,,
null,is kissing,,html-keyboard-response,166,847892,0.0-15.0-2.9,26425,List1A,white,man,,,,null,,,,
6312,,,survey-text,167,854204,0.0-15.0-3.9,26425,List1A,white,man,,,,,"{""Q0"":""luke is kissing ruth""}","<img src=""stim_listA/kiss3.gif""</stim_listA>",is kissing,
null,"<div style=""font-size:60px;"">+</div>",,html-keyboard-response,168,854705,0.0-15.0-0.10,26425,List1A,white,man,,,,null,,,,
null,"<img src=""stim_listA/meet3.gif""</stim_listA>",,html-keyboard-response,169,856707,0.0-15.0-1.10,26425,List1A,white,man,,,,null,,,,
null,is meeting,,html-keyboard-response,170,858708,0.0-15.0-2.10,26425,List1A,white,man,,,,null,,,,
3814,,,survey-text,171,862523,0.0-15.0-3.10,26425,List1A,white,man,,,,,"{""Q0"":""dave is meeting jane""}","<img src=""stim_listA/meet3.gif""</stim_listA>",is meeting,
null,"<div style=""font-size:60px;"">+</div>",,html-keyboard-response,172,863024,0.0-15.0-0.11,26425,List1A,white,man,,,,null,,,,
null,"<img src=""stim_listA/dance2.gif""</stim_listA>",,html-keyboard-response,173,865026,0.0-15.0-1.11,26425,List1A,white,man,,,,null,,,,
null,are dancing with each other,,html-keyboard-response,174,867026,0.0-15.0-2.11,26425,List1A,white,man,,,,null,,,,
6384,,,survey-text,175,873411,0.0-15.0-3.11,26425,List1A,white,man,,,,,"{""Q0"":""mike and beth are dancing with each other""}","<img src=""stim_listA/dance2.gif""</stim_listA>",are dancing with each other,
null,"<div style=""font-size:60px;"">+</div>",,html-keyboard-response,176,873912,0.0-15.0-0.12,26425,List1A,white,man,,,,null,,,,
null,"<img src=""stim_listA/touch6.gif""</stim_listA>",,html-keyboard-response,177,875914,0.0-15.0-1.12,26425,List1A,white,man,,,,null,,,,
null,are touching each other,,html-keyboard-response,178,877915,0.0-15.0-2.12,26425,List1A,white,man,,,,null,,,,
8015,,,survey-text,179,885930,0.0-15.0-3.12,26425,List1A,white,man,,,,,"{""Q0"":""fred and luke are touching each other""}","<img src=""stim_listA/touch6.gif""</stim_listA>",are touching each other,
null,"<div style=""font-size:60px;"">+</div>",,html-keyboard-response,180,886431,0.0-15.0-0.13,26425,List1A,white,man,,,,null,,,,
null,"<img src=""stim_listA/argue1.gif""</stim_listA>",,html-keyboard-response,181,888433,0.0-15.0-1.13,26425,List1A,white,man,,,,null,,,,
null,is arguing with,,html-keyboard-response,182,890434,0.0-15.0-2.13,26425,List1A,white,man,,,,null,,,,
5742,,,survey-text,183,896178,0.0-15.0-3.13,26425,List1A,white,man,,,,,"{""Q0"":""mike is arguing with beth""}","<img src=""stim_listA/argue1.gif""</stim_listA>",is arguing with,
null,"<div style=""font-size:60px;"">+</div>",,html-keyboard-response,184,896680,0.0-15.0-0.14,26425,List1A,white,man,,,,null,,,,
null,"<img src=""stim_listA/talk7.gif""</stim_listA>",,html-keyboard-response,185,898681,0.0-15.0-1.14,26425,List1A,white,man,,,,null,,,,
null,is talking to,,html-keyboard-response,186,900682,0.0-15.0-2.14,26425,List1A,white,man,,,,null,,,,
4941,,,survey-text,187,905625,0.0-15.0-3.14,26425,List1A,white,man,,,,,"{""Q0"":""beth is talking to jane""}","<img src=""stim_listA/talk7.gif""</stim_listA>",is talking to,
null,"<div style=""font-size:60px;"">+</div>",,html-keyboard-response,188,906130,0.0-15.0-0.15,26425,List1A,white,man,,,,null,,,,
null,"<img src=""stim_listA/touch4.gif""</stim_listA>",,html-keyboard-response,189,908131,0.0-15.0-1.15,26425,List1A,white,man,,,,null,,,,
null,are touching each other,,html-keyboard-response,190,910132,0.0-15.0-2.15,26425,List1A,white,man,,,,null,,,,
8224,,,survey-text,191,918356,0.0-15.0-3.15,26425,List1A,white,man,,,,,"{""Q0"":""ruth and luke are touching each other""}","<img src=""stim_listA/touch4.gif""</stim_listA>",are touching each other,
null,"<div style=""font-size:60px;"">+</div>",,html-keyboard-response,192,918857,0.0-15.0-0.16,26425,List1A,white,man,,,,null,,,,
null,"<img src=""stim_listA/marry2.gif""</stim_listA>",,html-keyboard-response,193,920859,0.0-15.0-1.16,26425,List1A,white,man,,,,null,,,,
null,are marrying each other,,html-keyboard-response,194,922860,0.0-15.0-2.16,26425,List1A,white,man,,,,null,,,,
8183,,,survey-text,195,931043,0.0-15.0-3.16,26425,List1A,white,man,,,,,"{""Q0"":""kate and fred are marrying each other""}","<img src=""stim_listA/marry2.gif""</stim_listA>",are marrying each other,
null,"<div style=""font-size:60px;"">+</div>",,html-keyboard-response,196,931544,0.0-15.0-0.17,26425,List1A,white,man,,,,null,,,,
null,"<img src=""stim_listA/dance3.gif""</stim_listA>",,html-keyboard-response,197,933546,0.0-15.0-1.17,26425,List1A,white,man,,,,null,,,,
null,is dancing with,,html-keyboard-response,198,935547,0.0-15.0-2.17,26425,List1A,white,man,,,,null,,,,
6087,,,survey-text,199,941634,0.0-15.0-3.17,26425,List1A,white,man,,,,,"{""Q0"":""jane is dancing with luke""}","<img src=""stim_listA/dance3.gif""</stim_listA>",is dancing with,
null,"<div style=""font-size:60px;"">+</div>",,html-keyboard-response,200,942135,0.0-15.0-0.18,26425,List1A,white,man,,,,null,,,,
null,"<img src=""stim_listA/kiss5.gif""</stim_listA>",,html-keyboard-response,201,944137,0.0-15.0-1.18,26425,List1A,white,man,,,,null,,,,
null,is kissing,,html-keyboard-response,202,946138,0.0-15.0-2.18,26425,List1A,white,man,,,,null,,,,
6807,,,survey-text,203,952946,0.0-15.0-3.18,26425,List1A,white,man,,,,,"{""Q0"":""luke is kissing fred""}","<img src=""stim_listA/kiss5.gif""</stim_listA>",is kissing,
null,"<div style=""font-size:60px;"">+</div>",,html-keyboard-response,204,953447,0.0-15.0-0.19,26425,List1A,white,man,,,,null,,,,
null,"<img src=""stim_listA/kiss7.gif""</stim_listA>",,html-keyboard-response,205,955449,0.0-15.0-1.19,26425,List1A,white,man,,,,null,,,,
null,is kissing,,html-keyboard-response,206,957450,0.0-15.0-2.19,26425,List1A,white,man,,,,null,,,,
5407,,,survey-text,207,962857,0.0-15.0-3.19,26425,List1A,white,man,,,,,"{""Q0"":""ruth is kissing beth""}","<img src=""stim_listA/kiss7.gif""</stim_listA>",is kissing,
3507,"<img src='img/portrait_matrix_list1.JPG' style='width:900px;height:500px;''></img><p>If you have memorised all the portraits and names and are ready to start, press Continue.</p><p><strong>Please note: Your memory of these faces will be tested 4 times during this experiment.</strong></p>",0,html-button-response,208,966365,0.0-16.0-0.0,26425,List1A,white,man,,,,,,,,
4949,"<img src=""portrait/BM1.jpg""style=""width:400px;height:400px;""></img>",4,html-button-response,209,972317,0.0-16.0-1.0,26425,List1A,white,man,,TRUE,4,,,,,
null,CORRECT,,html-keyboard-response,210,973819,0.0-16.0-2.0-0.0,26425,List1A,white,man,,,,null,,,,
1329,"<img src=""portrait/BW2.jpg""style=""width:400px;height:400px;""></img>",2,html-button-response,211,975148,0.0-16.0-4.0,26425,List1A,white,man,,TRUE,2,,,,,
null,CORRECT,,html-keyboard-response,212,976650,0.0-16.0-5.0-0.0,26425,List1A,white,man,,,,null,,,,
2017,"<img src=""portrait/WM2.jpg""style=""width:400px;height:400px;""></img>",7,html-button-response,213,978668,0.0-16.0-7.0,26425,List1A,white,man,,TRUE,7,,,,,
null,CORRECT,,html-keyboard-response,214,980170,0.0-16.0-8.0-0.0,26425,List1A,white,man,,,,null,,,,
2737,"<img src=""portrait/BW1.jpg""style=""width:400px;height:400px;""></img>",0,html-button-response,215,982908,0.0-16.0-10.0,26425,List1A,white,man,,TRUE,0,,,,,
null,CORRECT,,html-keyboard-response,216,984410,0.0-16.0-11.0-0.0,26425,List1A,white,man,,,,null,,,,
1929,"<img src=""portrait/BM2.jpg""style=""width:400px;height:400px;""></img>",5,html-button-response,217,986340,0.0-16.0-13.0,26425,List1A,white,man,,TRUE,5,,,,,
null,CORRECT,,html-keyboard-response,218,987842,0.0-16.0-14.0-0.0,26425,List1A,white,man,,,,null,,,,
3785,"<img src=""portrait/WM1.jpg""style=""width:400px;height:400px;""></img>",6,html-button-response,219,991627,0.0-16.0-16.0,26425,List1A,white,man,,TRUE,6,,,,,
null,CORRECT,,html-keyboard-response,220,993129,0.0-16.0-17.0-0.0,26425,List1A,white,man,,,,null,,,,
1257,"<img src=""portrait/WW2.jpg""style=""width:400px;height:400px;""></img>",3,html-button-response,221,994387,0.0-16.0-19.0,26425,List1A,white,man,,TRUE,3,,,,,
null,CORRECT,,html-keyboard-response,222,995889,0.0-16.0-20.0-0.0,26425,List1A,white,man,,,,null,,,,
2145,"<img src=""portrait/WW1.jpg""style=""width:400px;height:400px;""></img>",1,html-button-response,223,998035,0.0-16.0-22.0,26425,List1A,white,man,,TRUE,1,,,,,
null,CORRECT,,html-keyboard-response,224,999537,0.0-16.0-23.0-0.0,26425,List1A,white,man,,,,null,,,,
841,<p>You got 8 out of 8 right first time. Press Continue.</p>,0,html-button-response,225,1000379,0.0-16.0-25.0,26425,List1A,white,man,,,,,,,,
null,"<div style=""font-size:60px;"">+</div>",,html-keyboard-response,226,1001881,0.0-17.0-0.0,26425,List1A,white,man,,,,null,,,,
null,"<img src=""stim_listA/dance7.gif""</stim_listA>",,html-keyboard-response,227,1003882,0.0-17.0-1.0,26425,List1A,white,man,,,,null,,,,
null,is dancing with,,html-keyboard-response,228,1005883,0.0-17.0-2.0,26425,List1A,white,man,,,,null,,,,
6503,,,survey-text,229,1012386,0.0-17.0-3.0,26425,List1A,white,man,,,,,"{""Q0"":""jane is dancing with beth""}","<img src=""stim_listA/dance7.gif""</stim_listA>",is dancing with,
null,"<div style=""font-size:60px;"">+</div>",,html-keyboard-response,230,1012887,0.0-17.0-0.1,26425,List1A,white,man,,,,null,,,,
null,"<img src=""stim_listA/marry8.gif""</stim_listA>",,html-keyboard-response,231,1014889,0.0-17.0-1.1,26425,List1A,white,man,,,,null,,,,
null,are marrying each other,,html-keyboard-response,232,1016890,0.0-17.0-2.1,26425,List1A,white,man,,,,null,,,,
6103,,,survey-text,233,1022993,0.0-17.0-3.1,26425,List1A,white,man,,,,,"{""Q0"":""jane and beth are marrying each other""}","<img src=""stim_listA/marry8.gif""</stim_listA>",are marrying each other,
null,"<div style=""font-size:60px;"">+</div>",,html-keyboard-response,234,1023495,0.0-17.0-0.2,26425,List1A,white,man,,,,null,,,,
null,"<img src=""stim_listA/hug5.gif""</stim_listA>",,html-keyboard-response,235,1025497,0.0-17.0-1.2,26425,List1A,white,man,,,,null,,,,
null,is hugging,,html-keyboard-response,236,1027502,0.0-17.0-2.2,26425,List1A,white,man,,,,null,,,,
5822,,,survey-text,237,1033324,0.0-17.0-3.2,26425,List1A,white,man,,,,,"{""Q0"":""fred is hugging luke""}","<img src=""stim_listA/hug5.gif""</stim_listA>",is hugging,
null,"<div style=""font-size:60px;"">+</div>",,html-keyboard-response,238,1033825,0.0-17.0-0.3,26425,List1A,white,man,,,,null,,,,
null,"<img src=""stim_listA/meet2.gif""</stim_listA>",,html-keyboard-response,239,1035827,0.0-17.0-1.3,26425,List1A,white,man,,,,null,,,,
null,are meeting each other,,html-keyboard-response,240,1037828,0.0-17.0-2.3,26425,List1A,white,man,,,,null,,,,
51800,,,survey-text,241,1089630,0.0-17.0-3.3,26425,List1A,white,man,,,,,"{""Q0"":""beth and fred are meeting each other""}","<img src=""stim_listA/meet2.gif""</stim_listA>",are meeting each other,
null,"<div style=""font-size:60px;"">+</div>",,html-keyboard-response,242,1090131,0.0-17.0-0.4,26425,List1A,white,man,,,,null,,,,
null,"<img src=""stim_listA/talk4.gif""</stim_listA>",,html-keyboard-response,243,1092132,0.0-17.0-1.4,26425,List1A,white,man,,,,null,,,,
null,are talking to each other,,html-keyboard-response,244,1094132,0.0-17.0-2.4,26425,List1A,white,man,,,,null,,,,
9375,,,survey-text,245,1103508,0.0-17.0-3.4,26425,List1A,white,man,,,,,"{""Q0"":""ruth and dave are talking to each other""}","<img src=""stim_listA/talk4.gif""</stim_listA>",are talking to each other,
null,"<div style=""font-size:60px;"">+</div>",,html-keyboard-response,246,1104009,0.0-17.0-0.5,26425,List1A,white,man,,,,null,,,,
null,"<img src=""stim_listA/argue8.gif""</stim_listA>",,html-keyboard-response,247,1106012,0.0-17.0-1.5,26425,List1A,white,man,,,,null,,,,
null,are arguing with each other,,html-keyboard-response,248,1108013,0.0-17.0-2.5,26425,List1A,white,man,,,,null,,,,
37980,,,survey-text,249,1145994,0.0-17.0-3.5,26425,List1A,white,man,,,,,"{""Q0"":""jane and beth are arguing with each other""}","<img src=""stim_listA/argue8.gif""</stim_listA>",are arguing with each other,
null,"<div style=""font-size:60px;"">+</div>",,html-keyboard-response,250,1146494,0.0-17.0-0.6,26425,List1A,white,man,,,,null,,,,
null,"<img src=""stim_listA/argue5.gif""</stim_listA>",,html-keyboard-response,251,1148496,0.0-17.0-1.6,26425,List1A,white,man,,,,null,,,,
null,is arguing with,,html-keyboard-response,252,1150501,0.0-17.0-2.6,26425,List1A,white,man,,,,null,,,,
7279,,,survey-text,253,1157780,0.0-17.0-3.6,26425,List1A,white,man,,,,,"{""Q0"":""luke is arguing with mike""}","<img src=""stim_listA/argue5.gif""</stim_listA>",is arguing with,
null,"<div style=""font-size:60px;"">+</div>",,html-keyboard-response,254,1158281,0.0-17.0-0.7,26425,List1A,white,man,,,,null,,,,
null,"<img src=""stim_listA/marry6.gif""</stim_listA>",,html-keyboard-response,255,1160283,0.0-17.0-1.7,26425,List1A,white,man,,,,null,,,,
null,are marrying each other,,html-keyboard-response,256,1162284,0.0-17.0-2.7,26425,List1A,white,man,,,,null,,,,
7455,,,survey-text,257,1169740,0.0-17.0-3.7,26425,List1A,white,man,,,,,"{""Q0"":""dave and fred are marrying each other""}","<img src=""stim_listA/marry6.gif""</stim_listA>",are marrying each other,
null,"<div style=""font-size:60px;"">+</div>",,html-keyboard-response,258,1170240,0.0-17.0-0.8,26425,List1A,white,man,,,,null,,,,
null,"<img src=""stim_listA/talk1.gif""</stim_listA>",,html-keyboard-response,259,1172242,0.0-17.0-1.8,26425,List1A,white,man,,,,null,,,,
null,is talking to,,html-keyboard-response,260,1174243,0.0-17.0-2.8,26425,List1A,white,man,,,,null,,,,
4318,,,survey-text,261,1178563,0.0-17.0-3.8,26425,List1A,white,man,,,,,"{""Q0"":""kate is talking to fred""}","<img src=""stim_listA/talk1.gif""</stim_listA>",is talking to,
null,"<div style=""font-size:60px;"">+</div>",,html-keyboard-response,262,1179064,0.0-17.0-0.9,26425,List1A,white,man,,,,null,,,,
null,"<img src=""stim_listA/shout1.gif""</stim_listA>",,html-keyboard-response,263,1181066,0.0-17.0-1.9,26425,List1A,white,man,,,,null,,,,
null,is shouting at,,html-keyboard-response,264,1183067,0.0-17.0-2.9,26425,List1A,white,man,,,,null,,,,
4495,,,survey-text,265,1187562,0.0-17.0-3.9,26425,List1A,white,man,,,,,"{""Q0"":""beth is shouting at fred""}","<img src=""stim_listA/shout1.gif""</stim_listA>",is shouting at,
null,"<div style=""font-size:60px;"">+</div>",,html-keyboard-response,266,1188063,0.0-17.0-0.10,26425,List1A,white,man,,,,null,,,,
null,"<img src=""stim_listA/shout5.gif""</stim_listA>",,html-keyboard-response,267,1190065,0.0-17.0-1.10,26425,List1A,white,man,,,,null,,,,
null,is shouting at,,html-keyboard-response,268,1192066,0.0-17.0-2.10,26425,List1A,white,man,,,,null,,,,
5160,,,survey-text,269,1197226,0.0-17.0-3.10,26425,List1A,white,man,,,,,"{""Q0"":""luke is shouting at fred""}","<img src=""stim_listA/shout5.gif""</stim_listA>",is shouting at,
null,"<div style=""font-size:60px;"">+</div>",,html-keyboard-response,270,1197727,0.0-17.0-0.11,26425,List1A,white,man,,,,null,,,,
null,"<img src=""stim_listA/kiss6.gif""</stim_listA>",,html-keyboard-response,271,1199729,0.0-17.0-1.11,26425,List1A,white,man,,,,null,,,,
null,are kissing each other,,html-keyboard-response,272,1201730,0.0-17.0-2.11,26425,List1A,white,man,,,,null,,,,
8423,,,survey-text,273,1210153,0.0-17.0-3.11,26425,List1A,white,man,,,,,"{""Q0"":""dave and mike are kissing each other""}","<img src=""stim_listA/kiss6.gif""</stim_listA>",are kissing each other,
null,"<div style=""font-size:60px;"">+</div>",,html-keyboard-response,274,1210658,0.0-17.0-0.12,26425,List1A,white,man,,,,null,,,,
null,"<img src=""stim_listA/marry1.gif""</stim_listA>",,html-keyboard-response,275,1212660,0.0-17.0-1.12,26425,List1A,white,man,,,,null,,,,
null,is marrying,,html-keyboard-response,276,1214660,0.0-17.0-2.12,26425,List1A,white,man,,,,null,,,,
5031,,,survey-text,277,1219692,0.0-17.0-3.12,26425,List1A,white,man,,,,,"{""Q0"":""beth is marrying mike""}","<img src=""stim_listA/marry1.gif""</stim_listA>",is marrying,
null,"<div style=""font-size:60px;"">+</div>",,html-keyboard-response,278,1220194,0.0-17.0-0.13,26425,List1A,white,man,,,,null,,,,
null,"<img src=""stim_listA/argue6.gif""</stim_listA>",,html-keyboard-response,279,1222196,0.0-17.0-1.13,26425,List1A,white,man,,,,null,,,,
null,are arguing with each other,,html-keyboard-response,280,1224197,0.0-17.0-2.13,26425,List1A,white,man,,,,null,,,,
6718,,,survey-text,281,1230916,0.0-17.0-3.13,26425,List1A,white,man,,,,,"{""Q0"":""dave and fred are arguing with each other""}","<img src=""stim_listA/argue6.gif""</stim_listA>",are arguing with each other,
null,"<div style=""font-size:60px;"">+</div>",,html-keyboard-response,282,1231416,0.0-17.0-0.14,26425,List1A,white,man,,,,null,,,,
null,"<img src=""stim_listA/fight7.gif""</stim_listA>",,html-keyboard-response,283,1233418,0.0-17.0-1.14,26425,List1A,white,man,,,,null,,,,
null,is fighting,,html-keyboard-response,284,1235419,0.0-17.0-2.14,26425,List1A,white,man,,,,null,,,,
4638,,,survey-text,285,1240059,0.0-17.0-3.14,26425,List1A,white,man,,,,,"{""Q0"":""jane is fighting kate""}","<img src=""stim_listA/fight7.gif""</stim_listA>",is fighting,
null,"<div style=""font-size:60px;"">+</div>",,html-keyboard-response,286,1240561,0.0-17.0-0.15,26425,List1A,white,man,,,,null,,,,
null,"<img src=""stim_listA/argue3.gif""</stim_listA>",,html-keyboard-response,287,1242563,0.0-17.0-1.15,26425,List1A,white,man,,,,null,,,,
null,is arguing with,,html-keyboard-response,288,1244564,0.0-17.0-2.15,26425,List1A,white,man,,,,null,,,,
7406,,,survey-text,289,1251970,0.0-17.0-3.15,26425,List1A,white,man,,,,,"{""Q0"":""dave is arguing with ruth""}","<img src=""stim_listA/argue3.gif""</stim_listA>",is arguing with,
null,"<div style=""font-size:60px;"">+</div>",,html-keyboard-response,290,1252471,0.0-17.0-0.16,26425,List1A,white,man,,,,null,,,,
null,"<img src=""stim_listA/hug2.gif""</stim_listA>",,html-keyboard-response,291,1254473,0.0-17.0-1.16,26425,List1A,white,man,,,,null,,,,
null,are hugging each other,,html-keyboard-response,292,1256474,0.0-17.0-2.16,26425,List1A,white,man,,,,null,,,,
7399,,,survey-text,293,1263873,0.0-17.0-3.16,26425,List1A,white,man,,,,,"{""Q0"":""kate and mike are hugging each other""}","<img src=""stim_listA/hug2.gif""</stim_listA>",are hugging each other,
null,"<div style=""font-size:60px;"">+</div>",,html-keyboard-response,294,1264374,0.0-17.0-0.17,26425,List1A,white,man,,,,null,,,,
null,"<img src=""stim_listA/hug3.gif""</stim_listA>",,html-keyboard-response,295,1266376,0.0-17.0-1.17,26425,List1A,white,man,,,,null,,,,
null,is hugging,,html-keyboard-response,296,1268378,0.0-17.0-2.17,26425,List1A,white,man,,,,null,,,,
24938,,,survey-text,297,1293316,0.0-17.0-3.17,26425,List1A,white,man,,,,,"{""Q0"":""kate is hugging luke""}","<img src=""stim_listA/hug3.gif""</stim_listA>",is hugging,
null,"<div style=""font-size:60px;"">+</div>",,html-keyboard-response,298,1293817,0.0-17.0-0.18,26425,List1A,white,man,,,,null,,,,
null,"<img src=""stim_listA/argue7.gif""</stim_listA>",,html-keyboard-response,299,1295819,0.0-17.0-1.18,26425,List1A,white,man,,,,null,,,,
null,is arguing with,,html-keyboard-response,300,1297820,0.0-17.0-2.18,26425,List1A,white,man,,,,null,,,,
6486,,,survey-text,301,1304308,0.0-17.0-3.18,26425,List1A,white,man,,,,,"{""Q0"":""kate is arguing with ruth""}","<img src=""stim_listA/argue7.gif""</stim_listA>",is arguing with,
null,"<div style=""font-size:60px;"">+</div>",,html-keyboard-response,302,1304809,0.0-17.0-0.19,26425,List1A,white,man,,,,null,,,,
null,"<img src=""stim_listA/meet4.gif""</stim_listA>",,html-keyboard-response,303,1306811,0.0-17.0-1.19,26425,List1A,white,man,,,,null,,,,
null,are meeting each other,,html-keyboard-response,304,1308812,0.0-17.0-2.19,26425,List1A,white,man,,,,null,,,,
6999,,,survey-text,305,1315811,0.0-17.0-3.19,26425,List1A,white,man,,,,,"{""Q0"":""ruth and luke are meeting each other""}","<img src=""stim_listA/meet4.gif""</stim_listA>",are meeting each other,
1647,"<img src='img/portrait_matrix_list1.JPG' style='width:900px;height:500px;''></img><p>If you have memorised all the portraits and names and are ready to start, press Continue.</p><p><strong>Please note: Your memory of these faces will be tested 4 times during this experiment.</strong></p>",0,html-button-response,306,1317459,0.0-18.0-0.0,26425,List1A,white,man,,,,,,,,
1574,"<img src=""portrait/BW1.jpg""style=""width:400px;height:400px;""></img>",0,html-button-response,307,1320035,0.0-18.0-1.0,26425,List1A,white,man,,TRUE,0,,,,,
null,CORRECT,,html-keyboard-response,308,1321537,0.0-18.0-2.0-0.0,26425,List1A,white,man,,,,null,,,,
1169,"<img src=""portrait/BW2.jpg""style=""width:400px;height:400px;""></img>",2,html-button-response,309,1322707,0.0-18.0-4.0,26425,List1A,white,man,,TRUE,2,,,,,
null,CORRECT,,html-keyboard-response,310,1324209,0.0-18.0-5.0-0.0,26425,List1A,white,man,,,,null,,,,
1369,"<img src=""portrait/WM2.jpg""style=""width:400px;height:400px;""></img>",7,html-button-response,311,1325579,0.0-18.0-7.0,26425,List1A,white,man,,TRUE,7,,,,,
null,CORRECT,,html-keyboard-response,312,1327080,0.0-18.0-8.0-0.0,26425,List1A,white,man,,,,null,,,,
1673,"<img src=""portrait/WM1.jpg""style=""width:400px;height:400px;""></img>",6,html-button-response,313,1328754,0.0-18.0-10.0,26425,List1A,white,man,,TRUE,6,,,,,
null,CORRECT,,html-keyboard-response,314,1330256,0.0-18.0-11.0-0.0,26425,List1A,white,man,,,,null,,,,
1329,"<img src=""portrait/BM2.jpg""style=""width:400px;height:400px;""></img>",5,html-button-response,315,1331586,0.0-18.0-13.0,26425,List1A,white,man,,TRUE,5,,,,,
null,CORRECT,,html-keyboard-response,316,1333088,0.0-18.0-14.0-0.0,26425,List1A,white,man,,,,null,,,,
1417,"<img src=""portrait/WW1.jpg""style=""width:400px;height:400px;""></img>",1,html-button-response,317,1334506,0.0-18.0-16.0,26425,List1A,white,man,,TRUE,1,,,,,
null,CORRECT,,html-keyboard-response,318,1336009,0.0-18.0-17.0-0.0,26425,List1A,white,man,,,,null,,,,
1160,"<img src=""portrait/WW2.jpg""style=""width:400px;height:400px;""></img>",3,html-button-response,319,1337170,0.0-18.0-19.0,26425,List1A,white,man,,TRUE,3,,,,,
null,CORRECT,,html-keyboard-response,320,1338671,0.0-18.0-20.0-0.0,26425,List1A,white,man,,,,null,,,,
1369,"<img src=""portrait/BM1.jpg""style=""width:400px;height:400px;""></img>",4,html-button-response,321,1340042,0.0-18.0-22.0,26425,List1A,white,man,,TRUE,4,,,,,
null,CORRECT,,html-keyboard-response,322,1341543,0.0-18.0-23.0-0.0,26425,List1A,white,man,,,,null,,,,
1273,<p>You got 8 out of 8 right first time. Press Continue.</p>,0,html-button-response,323,1342817,0.0-18.0-25.0,26425,List1A,white,man,,,,,,,,
null,"<div style=""font-size:60px;"">+</div>",,html-keyboard-response,324,1344321,0.0-19.0-0.0,26425,List1A,white,man,,,,null,,,,
null,"<img src=""stim_listA/meet8.gif""</stim_listA>",,html-keyboard-response,325,1346323,0.0-19.0-1.0,26425,List1A,white,man,,,,null,,,,
null,are meeting each other,,html-keyboard-response,326,1348328,0.0-19.0-2.0,26425,List1A,white,man,,,,null,,,,
6091,,,survey-text,327,1354420,0.0-19.0-3.0,26425,List1A,white,man,,,,,"{""Q0"":""ruth and beth are meeting each other""}","<img src=""stim_listA/meet8.gif""</stim_listA>",are meeting each other,
null,"<div style=""font-size:60px;"">+</div>",,html-keyboard-response,328,1354921,0.0-19.0-0.1,26425,List1A,white,man,,,,null,,,,
null,"<img src=""stim_listA/shout6.gif""</stim_listA>",,html-keyboard-response,329,1356922,0.0-19.0-1.1,26425,List1A,white,man,,,,null,,,,
null,are shouting at each other,,html-keyboard-response,330,1358924,0.0-19.0-2.1,26425,List1A,white,man,,,,null,,,,
5839,,,survey-text,331,1364764,0.0-19.0-3.1,26425,List1A,white,man,,,,,"{""Q0"":""dave and mike are shouting at each other""}","<img src=""stim_listA/shout6.gif""</stim_listA>",are shouting at each other,
null,"<div style=""font-size:60px;"">+</div>",,html-keyboard-response,332,1365264,0.0-19.0-0.2,26425,List1A,white,man,,,,null,,,,
null,"<img src=""stim_listA/talk8.gif""</stim_listA>",,html-keyboard-response,333,1367266,0.0-19.0-1.2,26425,List1A,white,man,,,,null,,,,
null,are talking to each other,,html-keyboard-response,334,1369267,0.0-19.0-2.2,26425,List1A,white,man,,,,null,,,,
7359,,,survey-text,335,1376627,0.0-19.0-3.2,26425,List1A,white,man,,,,,"{""Q0"":""ruth and kate are talking to each other""}","<img src=""stim_listA/talk8.gif""</stim_listA>",are talking to each other,
null,"<div style=""font-size:60px;"">+</div>",,html-keyboard-response,336,1377128,0.0-19.0-0.3,26425,List1A,white,man,,,,null,,,,
null,"<img src=""stim_listA/kiss8.gif""</stim_listA>",,html-keyboard-response,337,1379130,0.0-19.0-1.3,26425,List1A,white,man,,,,null,,,,
null,are kissing each other,,html-keyboard-response,338,1381131,0.0-19.0-2.3,26425,List1A,white,man,,,,null,,,,
6215,,,survey-text,339,1387346,0.0-19.0-3.3,26425,List1A,white,man,,,,,"{""Q0"":""jane and kate are kissing each other""}","<img src=""stim_listA/kiss8.gif""</stim_listA>",are kissing each other,
null,"<div style=""font-size:60px;"">+</div>",,html-keyboard-response,340,1387847,0.0-19.0-0.4,26425,List1A,white,man,,,,null,,,,
null,"<img src=""stim_listA/meet1.gif""</stim_listA>",,html-keyboard-response,341,1389849,0.0-19.0-1.4,26425,List1A,white,man,,,,null,,,,
null,is meeting,,html-keyboard-response,342,1391850,0.0-19.0-2.4,26425,List1A,white,man,,,,null,,,,
4039,,,survey-text,343,1395890,0.0-19.0-3.4,26425,List1A,white,man,,,,,"{""Q0"":""mike is meeting kate""}","<img src=""stim_listA/meet1.gif""</stim_listA>",is meeting,
null,"<div style=""font-size:60px;"">+</div>",,html-keyboard-response,344,1396391,0.0-19.0-0.5,26425,List1A,white,man,,,,null,,,,
null,"<img src=""stim_listA/kiss1.gif""</stim_listA>",,html-keyboard-response,345,1398392,0.0-19.0-1.5,26425,List1A,white,man,,,,null,,,,
null,is kissing,,html-keyboard-response,346,1400393,0.0-19.0-2.5,26425,List1A,white,man,,,,null,,,,
4551,,,survey-text,347,1404945,0.0-19.0-3.5,26425,List1A,white,man,,,,,"{""Q0"":""beth is kissing fred""}","<img src=""stim_listA/kiss1.gif""</stim_listA>",is kissing,
null,"<div style=""font-size:60px;"">+</div>",,html-keyboard-response,348,1405446,0.0-19.0-0.6,26425,List1A,white,man,,,,null,,,,
null,"<img src=""stim_listA/kiss2.gif""</stim_listA>",,html-keyboard-response,349,1407448,0.0-19.0-1.6,26425,List1A,white,man,,,,null,,,,
null,are kissing each other,,html-keyboard-response,350,1409453,0.0-19.0-2.6,26425,List1A,white,man,,,,null,,,,
7223,,,survey-text,351,1416676,0.0-19.0-3.6,26425,List1A,white,man,,,,,"{""Q0"":""mike and kate are kissing each other""}","<img src=""stim_listA/kiss2.gif""</stim_listA>",are kissing each other,
null,"<div style=""font-size:60px;"">+</div>",,html-keyboard-response,352,1417177,0.0-19.0-0.7,26425,List1A,white,man,,,,null,,,,
null,"<img src=""stim_listA/talk6.gif""</stim_listA>",,html-keyboard-response,353,1419179,0.0-19.0-1.7,26425,List1A,white,man,,,,null,,,,
null,are talking to each other,,html-keyboard-response,354,1421180,0.0-19.0-2.7,26425,List1A,white,man,,,,null,,,,
6991,,,survey-text,355,1428172,0.0-19.0-3.7,26425,List1A,white,man,,,,,"{""Q0"":""mike and luke are talking to each other""}","<img src=""stim_listA/talk6.gif""</stim_listA>",are talking to each other,
null,"<div style=""font-size:60px;"">+</div>",,html-keyboard-response,356,1428673,0.0-19.0-0.8,26425,List1A,white,man,,,,null,,,,
null,"<img src=""stim_listA/fight4.gif""</stim_listA>",,html-keyboard-response,357,1430674,0.0-19.0-1.8,26425,List1A,white,man,,,,null,,,,
null,are fighting each other,,html-keyboard-response,358,1432675,0.0-19.0-2.8,26425,List1A,white,man,,,,null,,,,
6182,,,survey-text,359,1438859,0.0-19.0-3.8,26425,List1A,white,man,,,,,"{""Q0"":""ruth and luke are fighting each other""}","<img src=""stim_listA/fight4.gif""</stim_listA>",are fighting each other,
null,"<div style=""font-size:60px;"">+</div>",,html-keyboard-response,360,1439360,0.0-19.0-0.9,26425,List1A,white,man,,,,null,,,,
null,"<img src=""stim_listA/fight3.gif""</stim_listA>",,html-keyboard-response,361,1441362,0.0-19.0-1.9,26425,List1A,white,man,,,,null,,,,
null,is fighting,,html-keyboard-response,362,1443362,0.0-19.0-2.9,26425,List1A,white,man,,,,null,,,,
5183,,,survey-text,363,1448546,0.0-19.0-3.9,26425,List1A,white,man,,,,,"{""Q0"":""dave is fighting jane""}","<img src=""stim_listA/fight3.gif""</stim_listA>",is fighting,
null,"<div style=""font-size:60px;"">+</div>",,html-keyboard-response,364,1449048,0.0-19.0-0.10,26425,List1A,white,man,,,,null,,,,
null,"<img src=""stim_listA/hug1.gif""</stim_listA>",,html-keyboard-response,365,1451049,0.0-19.0-1.10,26425,List1A,white,man,,,,null,,,,
null,is hugging,,html-keyboard-response,366,1453051,0.0-19.0-2.10,26425,List1A,white,man,,,,null,,,,
6037,,,survey-text,367,1459090,0.0-19.0-3.10,26425,List1A,white,man,,,,,"{""Q0"":""fred is hugging beth""}","<img src=""stim_listA/hug1.gif""</stim_listA>",is hugging,
null,"<div style=""font-size:60px;"">+</div>",,html-keyboard-response,368,1459592,0.0-19.0-0.11,26425,List1A,white,man,,,,null,,,,
null,"<img src=""stim_listA/marry4.gif""</stim_listA>",,html-keyboard-response,369,1461593,0.0-19.0-1.11,26425,List1A,white,man,,,,null,,,,
null,are marrying each other,,html-keyboard-response,370,1463594,0.0-19.0-2.11,26425,List1A,white,man,,,,null,,,,
6306,,,survey-text,371,1469901,0.0-19.0-3.11,26425,List1A,white,man,,,,,"{""Q0"":""jane and luke are marrying each other""}","<img src=""stim_listA/marry4.gif""</stim_listA>",are marrying each other,
null,"<div style=""font-size:60px;"">+</div>",,html-keyboard-response,372,1470402,0.0-19.0-0.12,26425,List1A,white,man,,,,null,,,,
null,"<img src=""stim_listA/marry7.gif""</stim_listA>",,html-keyboard-response,373,1472404,0.0-19.0-1.12,26425,List1A,white,man,,,,null,,,,
null,is marrying,,html-keyboard-response,374,1474405,0.0-19.0-2.12,26425,List1A,white,man,,,,null,,,,
399,,,survey-text,375,1474805,0.0-19.0-3.12,26425,List1A,white,man,,,,,"{""Q0"":""""}","<img src=""stim_listA/marry7.gif""</stim_listA>",is marrying,
null,"<div style=""font-size:60px;"">+</div>",,html-keyboard-response,376,1475306,0.0-19.0-0.13,26425,List1A,white,man,,,,null,,,,
null,"<img src=""stim_listA/dance6.gif""</stim_listA>",,html-keyboard-response,377,1477307,0.0-19.0-1.13,26425,List1A,white,man,,,,null,,,,
null,are dancing with each other,,html-keyboard-response,378,1479309,0.0-19.0-2.13,26425,List1A,white,man,,,,null,,,,
10102,,,survey-text,379,1489412,0.0-19.0-3.13,26425,List1A,white,man,,,,,"{""Q0"":""mike and luke are dancing with each other""}","<img src=""stim_listA/dance6.gif""</stim_listA>",are dancing with each other,
null,"<div style=""font-size:60px;"">+</div>",,html-keyboard-response,380,1489913,0.0-19.0-0.14,26425,List1A,white,man,,,,null,,,,
null,"<img src=""stim_listA/fight1.gif""</stim_listA>",,html-keyboard-response,381,1491914,0.0-19.0-1.14,26425,List1A,white,man,,,,null,,,,
null,is fighting,,html-keyboard-response,382,1493915,0.0-19.0-2.14,26425,List1A,white,man,,,,null,,,,
4624,,,survey-text,383,1498539,0.0-19.0-3.14,26425,List1A,white,man,,,,,"{""Q0"":""mike is fighting kate""}","<img src=""stim_listA/fight1.gif""</stim_listA>",is fighting,
null,"<div style=""font-size:60px;"">+</div>",,html-keyboard-response,384,1499041,0.0-19.0-0.15,26425,List1A,white,man,,,,null,,,,
null,"<img src=""stim_listA/kiss4.gif""</stim_listA>",,html-keyboard-response,385,1501043,0.0-19.0-1.15,26425,List1A,white,man,,,,null,,,,
null,are kissing each other,,html-keyboard-response,386,1503045,0.0-19.0-2.15,26425,List1A,white,man,,,,null,,,,
8413,,,survey-text,387,1511458,0.0-19.0-3.15,26425,List1A,white,man,,,,,"{""Q0"":""jane and dave are kissing each other""}","<img src=""stim_listA/kiss4.gif""</stim_listA>",are kissing each other,
null,"<div style=""font-size:60px;"">+</div>",,html-keyboard-response,388,1511959,0.0-19.0-0.16,26425,List1A,white,man,,,,null,,,,
null,"<img src=""stim_listA/touch7.gif""</stim_listA>",,html-keyboard-response,389,1513961,0.0-19.0-1.16,26425,List1A,white,man,,,,null,,,,
null,is touching,,html-keyboard-response,390,1515962,0.0-19.0-2.16,26425,List1A,white,man,,,,null,,,,
6175,,,survey-text,391,1522138,0.0-19.0-3.16,26425,List1A,white,man,,,,,"{""Q0"":""kate is touching jane""}","<img src=""stim_listA/touch7.gif""</stim_listA>",is touching,
null,"<div style=""font-size:60px;"">+</div>",,html-keyboard-response,392,1522639,0.0-19.0-0.17,26425,List1A,white,man,,,,null,,,,
null,"<img src=""stim_listA/shout4.gif""</stim_listA>",,html-keyboard-response,393,1524641,0.0-19.0-1.17,26425,List1A,white,man,,,,null,,,,
null,are shouting at each other,,html-keyboard-response,394,1526641,0.0-19.0-2.17,26425,List1A,white,man,,,,null,,,,
7042,,,survey-text,395,1533685,0.0-19.0-3.17,26425,List1A,white,man,,,,,"{""Q0"":""jane and dave are shouting at each other""}","<img src=""stim_listA/shout4.gif""</stim_listA>",are shouting at each other,
null,"<div style=""font-size:60px;"">+</div>",,html-keyboard-response,396,1534186,0.0-19.0-0.18,26425,List1A,white,man,,,,null,,,,
null,"<img src=""stim_listA/dance1.gif""</stim_listA>",,html-keyboard-response,397,1536188,0.0-19.0-1.18,26425,List1A,white,man,,,,null,,,,
null,is dancing with,,html-keyboard-response,398,1538189,0.0-19.0-2.18,26425,List1A,white,man,,,,null,,,,
4591,,,survey-text,399,1542780,0.0-19.0-3.18,26425,List1A,white,man,,,,,"{""Q0"":""kate is dancing with fred""}","<img src=""stim_listA/dance1.gif""</stim_listA>",is dancing with,
null,"<div style=""font-size:60px;"">+</div>",,html-keyboard-response,400,1543281,0.0-19.0-0.19,26425,List1A,white,man,,,,null,,,,
null,"<img src=""stim_listA/touch8.gif""</stim_listA>",,html-keyboard-response,401,1545283,0.0-19.0-1.19,26425,List1A,white,man,,,,null,,,,
null,are touching each other,,html-keyboard-response,402,1547284,0.0-19.0-2.19,26425,List1A,white,man,,,,null,,,,
7654,,,survey-text,403,1554939,0.0-19.0-3.19,26425,List1A,white,man,,,,,"{""Q0"":""ruth and beth are touching each other""}","<img src=""stim_listA/touch8.gif""</stim_listA>",are touching each other,
3447,<p>Thank you for completing that task.</p><p>The final part of this session is a short questionnaire.</p><p>Press Continue.</p>,0,html-button-response,404,1558387,0.0-20.0,26425,List1A,white,man,,,,,,,,
14421,,,survey-text,405,1573810,0.0-21.0,26425,List1A,white,man,,,,,"{""Q0"":""22"",""Q1"":""English"",""Q2"":""English"",""Q3"":""England"",""Q4"":""White"",""Q5"":""Male""}",,,demographics
47856,,,survey-likert,406,1621670,0.0-22.0,26425,List1A,white,man,,,,,"{""Q0"":1,""Q1"":1,""Q2"":"""",""Q3"":"""",""Q4"":2,""Q5"":5,""Q6"":3,""Q7"":1,""Q8"":2,""Q9"":1,""Q10"":4,""Q11"":4,""Q12"":2,""Q13"":1}",,,likert_race
41796,,,survey-likert,407,1663470,0.0-23.0,26425,List1A,white,man,,,,,"{""Q0"":3,""Q1"":3,""Q2"":3,""Q3"":5,""Q4"":2,""Q5"":5,""Q6"":3,""Q7"":2,""Q8"":2,""Q9"":2,""Q10"":4,""Q11"":4,""Q12"":4,""Q13"":3}",,,likert_gender
8708,,,survey-text,408,1672179,0.0-24.0,26425,List1A,white,man,,,,,"{""Q0"":""ccc""}",,,worker_id
30487,,,external-html,409,1702737,0.0-25.0,26425,List1A,white,man,debrief.html,,,,,,,
