rt,stimulus,button_pressed,trial_type,trial_index,time_elapsed,internal_node_id,subject,list,ppt_race,ppt_gender,url,first_guess,correct,key_press,responses,image_type,phrase_type,test_part
2213,Welcome to the experiment. Press Continue to begin.,0,html-button-response,0,2215,0.0-0.0,26908,List2A,black,man,,,,,,,,
5724,,,external-html,1,9055,0.0-1.0,26908,List2A,black,man,consent.html,,,,,,,
9542,"<p>On the next page, you will see portraits of 8 people and their names.</p><p>Your first task is to take a few minutes to memorise the names of these people.</p><p>You will have to recall their names during the rest of the experiment, so it is</p><p>essential that you try to memorise these people and their names as best as you can.</p><br><p><strong>You will then be tested on your memory of these names and portraits.</strong></p><br><p>The experiment will start after you have completed this memory test.</p><br><p>Ready?</p>",0,html-button-response,2,18599,0.0-2.0,26908,List2A,black,man,,,,,,,,
83909,"<img src='img/portrait_matrix_list2.JPG' style='width:900px;height:500px;''></img><p>If you have memorised all the portraits and names and are ready to start, press Continue.</p><p><strong>Please note: Your memory of these faces will be tested 4 times during this experiment.</strong></p>",0,html-button-response,3,103510,0.0-3.0-0.0,26908,List2A,black,man,,,,,,,,
3830,"<img src=""portrait/BM2.jpg""style=""width:400px;height:400px;""></img>",5,html-button-response,4,108342,0.0-3.0-1.0,26908,List2A,black,man,,TRUE,5,,,,,
null,CORRECT,,html-keyboard-response,5,109847,0.0-3.0-2.0-0.0,26908,List2A,black,man,,,,null,,,,
2069,"<img src=""portrait/WW2.jpg""style=""width:400px;height:400px;""></img>",3,html-button-response,6,111918,0.0-3.0-4.0,26908,List2A,black,man,,TRUE,3,,,,,
null,CORRECT,,html-keyboard-response,7,113421,0.0-3.0-5.0-0.0,26908,List2A,black,man,,,,null,,,,
2264,"<img src=""portrait/WM1.jpg""style=""width:400px;height:400px;""></img>",6,html-button-response,8,115686,0.0-3.0-7.0,26908,List2A,black,man,,TRUE,6,,,,,
null,CORRECT,,html-keyboard-response,9,117189,0.0-3.0-8.0-0.0,26908,List2A,black,man,,,,null,,,,
3799,"<img src=""portrait/BW2.jpg""style=""width:400px;height:400px;""></img>",2,html-button-response,10,120990,0.0-3.0-10.0,26908,List2A,black,man,,TRUE,2,,,,,
null,CORRECT,,html-keyboard-response,11,122492,0.0-3.0-11.0-0.0,26908,List2A,black,man,,,,null,,,,
3792,"<img src=""portrait/WW1.jpg""style=""width:400px;height:400px;""></img>",1,html-button-response,12,126286,0.0-3.0-13.0,26908,List2A,black,man,,TRUE,1,,,,,
null,CORRECT,,html-keyboard-response,13,127790,0.0-3.0-14.0-0.0,26908,List2A,black,man,,,,null,,,,
3016,"<img src=""portrait/BW1.jpg""style=""width:400px;height:400px;""></img>",0,html-button-response,14,130806,0.0-3.0-16.0,26908,List2A,black,man,,TRUE,0,,,,,
null,CORRECT,,html-keyboard-response,15,132308,0.0-3.0-17.0-0.0,26908,List2A,black,man,,,,null,,,,
7385,"<img src=""portrait/BM1.jpg""style=""width:400px;height:400px;""></img>",4,html-button-response,16,139694,0.0-3.0-19.0,26908,List2A,black,man,,TRUE,4,,,,,
null,CORRECT,,html-keyboard-response,17,141197,0.0-3.0-20.0-0.0,26908,List2A,black,man,,,,null,,,,
2983,"<img src=""portrait/WM2.jpg""style=""width:400px;height:400px;""></img>",7,html-button-response,18,144182,0.0-3.0-22.0,26908,List2A,black,man,,TRUE,7,,,,,
null,CORRECT,,html-keyboard-response,19,145684,0.0-3.0-23.0-0.0,26908,List2A,black,man,,,,null,,,,
1552,<p>You got 8 out of 8 right first time. Press Continue.</p>,0,html-button-response,20,147238,0.0-3.0-25.0,26908,List2A,black,man,,,,,,,,
17390,"<p>In this experiment, you will view photographs of the people from the memory game interacting.</p><p>By using the <strong>exact</strong> phrase given <i>after</i> the photograph appears and recalling the correct names of the people in the photographs, form a sentence describing the interaction. You do not need to capitalise names.</p><p>Type your answer in the space provided. Please complete every sentence before moving onto the next trial.</p><p>You will only have a few seconds to memorise each given photograph and phrase before you can respond, so try your best to focus.</p><p>An example is given below. Press 'Continue' when you are ready.</p><img src='img/speaking_example_v2.jpg' style='width:800px;height:460px;''></img>",0,html-button-response,21,165630,0.0-4.0,26908,List2A,black,man,,,,,,,,
2534,"<p>Before the experiment starts, you will watch two example trials. Press 'Continue'.</p>",0,html-button-response,22,169167,0.0-5.0,26908,List2A,black,man,,,,,,,,
null,<img src='img/speaking_WW.gif'></img>,,html-keyboard-response,23,172169,0.0-6.0,26908,List2A,black,man,,,,null,,,,
null,<p>is speaking to</p>,,html-keyboard-response,24,174170,0.0-7.0,26908,List2A,black,man,,,,null,,,,
6619,<p><b>Answer:</b> jane is speaking to ruth</p>,0,html-button-response,25,180791,0.0-8.0,26908,List2A,black,man,,,,,,,,
null,<img src='img/pointing_BM.gif'></img>,,html-keyboard-response,26,183794,0.0-9.0,26908,List2A,black,man,,,,null,,,,
null,<p>are pointing at each other</p>,,html-keyboard-response,27,185795,0.0-10.0,26908,List2A,black,man,,,,null,,,,
2875,<p><b>Answer:</b> fred and mike are pointing at each other</p>,0,html-button-response,28,188671,0.0-11.0,26908,List2A,black,man,,,,,,,,
8550,"<p>Ready to start the experiment?</p><br><p><strong>Remember to describe the picture using a full sentence,</strong></p><p><strong>that combines the names of the people with the given phrase.</strong></p><p><strong>If you do not do this correctly you will not be paid.</strong></p><p><strong> You do not need to capitalise names or use punctuation.</strong></p><br><p>Press 'Continue' to begin.</p>",0,html-button-response,29,198223,0.0-12.0,26908,List2A,black,man,,,,,,,,
null,"<div style=""font-size:60px;"">+</div>",,html-keyboard-response,30,199725,0.0-13.0-0.0,26908,List2A,black,man,,,,null,,,,
null,"<img src=""stim_listA/touch6.gif""</stim_listA>",,html-keyboard-response,31,201728,0.0-13.0-1.0,26908,List2A,black,man,,,,null,,,,
null,are touching each other,,html-keyboard-response,32,203730,0.0-13.0-2.0,26908,List2A,black,man,,,,null,,,,
11572,,,survey-text,33,215303,0.0-13.0-3.0,26908,List2A,black,man,,,,,"{""Q0"":""Fred and Luke are touching each other""}","<img src=""stim_listA/touch6.gif""</stim_listA>",are touching each other,
null,"<div style=""font-size:60px;"">+</div>",,html-keyboard-response,34,215805,0.0-13.0-0.1,26908,List2A,black,man,,,,null,,,,
null,"<img src=""stim_listA/kiss2.gif""</stim_listA>",,html-keyboard-response,35,217806,0.0-13.0-1.1,26908,List2A,black,man,,,,null,,,,
null,are kissing each other,,html-keyboard-response,36,219807,0.0-13.0-2.1,26908,List2A,black,man,,,,null,,,,
15886,,,survey-text,37,235694,0.0-13.0-3.1,26908,List2A,black,man,,,,,"{""Q0"":""Jane and Dave are kissing each other""}","<img src=""stim_listA/kiss2.gif""</stim_listA>",are kissing each other,
null,"<div style=""font-size:60px;"">+</div>",,html-keyboard-response,38,236196,0.0-13.0-0.2,26908,List2A,black,man,,,,null,,,,
null,"<img src=""stim_listA/shout7.gif""</stim_listA>",,html-keyboard-response,39,238198,0.0-13.0-1.2,26908,List2A,black,man,,,,null,,,,
null,is shouting at,,html-keyboard-response,40,240199,0.0-13.0-2.2,26908,List2A,black,man,,,,null,,,,
11038,,,survey-text,41,251238,0.0-13.0-3.2,26908,List2A,black,man,,,,,"{""Q0"":""Ruth is shouting at Beth""}","<img src=""stim_listA/shout7.gif""</stim_listA>",is shouting at,
null,"<div style=""font-size:60px;"">+</div>",,html-keyboard-response,42,251740,0.0-13.0-0.3,26908,List2A,black,man,,,,null,,,,
null,"<img src=""stim_listA/dance4.gif""</stim_listA>",,html-keyboard-response,43,253741,0.0-13.0-1.3,26908,List2A,black,man,,,,null,,,,
null,are dancing with each other,,html-keyboard-response,44,255744,0.0-13.0-2.3,26908,List2A,black,man,,,,null,,,,
11110,,,survey-text,45,266854,0.0-13.0-3.3,26908,List2A,black,man,,,,,"{""Q0"":""Mike and Beth are dancing with each other""}","<img src=""stim_listA/dance4.gif""</stim_listA>",are dancing with each other,
null,"<div style=""font-size:60px;"">+</div>",,html-keyboard-response,46,267355,0.0-13.0-0.4,26908,List2A,black,man,,,,null,,,,
null,"<img src=""stim_listA/fight5.gif""</stim_listA>",,html-keyboard-response,47,269358,0.0-13.0-1.4,26908,List2A,black,man,,,,null,,,,
null,is fighting,,html-keyboard-response,48,271359,0.0-13.0-2.4,26908,List2A,black,man,,,,null,,,,
6342,,,survey-text,49,277702,0.0-13.0-3.4,26908,List2A,black,man,,,,,"{""Q0"":""Dave is fighting Mike""}","<img src=""stim_listA/fight5.gif""</stim_listA>",is fighting,
null,"<div style=""font-size:60px;"">+</div>",,html-keyboard-response,50,278204,0.0-13.0-0.5,26908,List2A,black,man,,,,null,,,,
null,"<img src=""stim_listA/hug3.gif""</stim_listA>",,html-keyboard-response,51,280206,0.0-13.0-1.5,26908,List2A,black,man,,,,null,,,,
null,is hugging,,html-keyboard-response,52,282207,0.0-13.0-2.5,26908,List2A,black,man,,,,null,,,,
33414,,,survey-text,53,315622,0.0-13.0-3.5,26908,List2A,black,man,,,,,"{""Q0"":""Fred is hugging Beth""}","<img src=""stim_listA/hug3.gif""</stim_listA>",is hugging,
null,"<div style=""font-size:60px;"">+</div>",,html-keyboard-response,54,316123,0.0-13.0-0.6,26908,List2A,black,man,,,,null,,,,
null,"<img src=""stim_listA/hug8.gif""</stim_listA>",,html-keyboard-response,55,318126,0.0-13.0-1.6,26908,List2A,black,man,,,,null,,,,
null,are hugging each other,,html-keyboard-response,56,320127,0.0-13.0-2.6,26908,List2A,black,man,,,,null,,,,
9055,,,survey-text,57,329182,0.0-13.0-3.6,26908,List2A,black,man,,,,,"{""Q0"":""Kate and Jane are hugging each other""}","<img src=""stim_listA/hug8.gif""</stim_listA>",are hugging each other,
null,"<div style=""font-size:60px;"">+</div>",,html-keyboard-response,58,329683,0.0-13.0-0.7,26908,List2A,black,man,,,,null,,,,
null,"<img src=""stim_listA/argue3.gif""</stim_listA>",,html-keyboard-response,59,331685,0.0-13.0-1.7,26908,List2A,black,man,,,,null,,,,
null,is arguing with,,html-keyboard-response,60,333686,0.0-13.0-2.7,26908,List2A,black,man,,,,null,,,,
9207,,,survey-text,61,342894,0.0-13.0-3.7,26908,List2A,black,man,,,,,"{""Q0"":""Mike is arguing with Beth""}","<img src=""stim_listA/argue3.gif""</stim_listA>",is arguing with,
null,"<div style=""font-size:60px;"">+</div>",,html-keyboard-response,62,343396,0.0-13.0-0.8,26908,List2A,black,man,,,,null,,,,
null,"<img src=""stim_listA/dance7.gif""</stim_listA>",,html-keyboard-response,63,345398,0.0-13.0-1.8,26908,List2A,black,man,,,,null,,,,
null,is dancing with,,html-keyboard-response,64,347400,0.0-13.0-2.8,26908,List2A,black,man,,,,null,,,,
7926,,,survey-text,65,355327,0.0-13.0-3.8,26908,List2A,black,man,,,,,"{""Q0"":""Ruth is dancing with Kate""}","<img src=""stim_listA/dance7.gif""</stim_listA>",is dancing with,
null,"<div style=""font-size:60px;"">+</div>",,html-keyboard-response,66,355829,0.0-13.0-0.9,26908,List2A,black,man,,,,null,,,,
null,"<img src=""stim_listA/shout2.gif""</stim_listA>",,html-keyboard-response,67,357831,0.0-13.0-1.9,26908,List2A,black,man,,,,null,,,,
null,are shouting at each other,,html-keyboard-response,68,359833,0.0-13.0-2.9,26908,List2A,black,man,,,,null,,,,
13509,,,survey-text,69,373343,0.0-13.0-3.9,26908,List2A,black,man,,,,,"{""Q0"":""Dave and Jane are shouting at each other""}","<img src=""stim_listA/shout2.gif""</stim_listA>",are shouting at each other,
null,"<div style=""font-size:60px;"">+</div>",,html-keyboard-response,70,373845,0.0-13.0-0.10,26908,List2A,black,man,,,,null,,,,
null,"<img src=""stim_listA/argue6.gif""</stim_listA>",,html-keyboard-response,71,375847,0.0-13.0-1.10,26908,List2A,black,man,,,,null,,,,
null,are arguing with each other,,html-keyboard-response,72,377848,0.0-13.0-2.10,26908,List2A,black,man,,,,null,,,,
11390,,,survey-text,73,389239,0.0-13.0-3.10,26908,List2A,black,man,,,,,"{""Q0"":""Luke and Mike are arguing with each other""}","<img src=""stim_listA/argue6.gif""</stim_listA>",are arguing with each other,
null,"<div style=""font-size:60px;"">+</div>",,html-keyboard-response,74,389740,0.0-13.0-0.11,26908,List2A,black,man,,,,null,,,,
null,"<img src=""stim_listA/touch1.gif""</stim_listA>",,html-keyboard-response,75,391743,0.0-13.0-1.11,26908,List2A,black,man,,,,null,,,,
null,is touching,,html-keyboard-response,76,393745,0.0-13.0-2.11,26908,List2A,black,man,,,,null,,,,
5029,,,survey-text,77,398775,0.0-13.0-3.11,26908,List2A,black,man,,,,,"{""Q0"":""Dave is touching Jane""}","<img src=""stim_listA/touch1.gif""</stim_listA>",is touching,
null,"<div style=""font-size:60px;"">+</div>",,html-keyboard-response,78,399277,0.0-13.0-0.12,26908,List2A,black,man,,,,null,,,,
null,"<img src=""stim_listA/hug5.gif""</stim_listA>",,html-keyboard-response,79,401278,0.0-13.0-1.12,26908,List2A,black,man,,,,null,,,,
null,is hugging,,html-keyboard-response,80,403279,0.0-13.0-2.12,26908,List2A,black,man,,,,null,,,,
7878,,,survey-text,81,411158,0.0-13.0-3.12,26908,List2A,black,man,,,,,"{""Q0"":""Fred is hugging Luke""}","<img src=""stim_listA/hug5.gif""</stim_listA>",is hugging,
null,"<div style=""font-size:60px;"">+</div>",,html-keyboard-response,82,411660,0.0-13.0-0.13,26908,List2A,black,man,,,,null,,,,
null,"<img src=""stim_listA/kiss6.gif""</stim_listA>",,html-keyboard-response,83,413661,0.0-13.0-1.13,26908,List2A,black,man,,,,null,,,,
null,are kissing each other,,html-keyboard-response,84,415662,0.0-13.0-2.13,26908,List2A,black,man,,,,null,,,,
9328,,,survey-text,85,424990,0.0-13.0-3.13,26908,List2A,black,man,,,,,"{""Q0"":""Mike and Dave are kissing each other""}","<img src=""stim_listA/kiss6.gif""</stim_listA>",are kissing each other,
null,"<div style=""font-size:60px;"">+</div>",,html-keyboard-response,86,425492,0.0-13.0-0.14,26908,List2A,black,man,,,,null,,,,
null,"<img src=""stim_listA/argue8.gif""</stim_listA>",,html-keyboard-response,87,427494,0.0-13.0-1.14,26908,List2A,black,man,,,,null,,,,
null,are arguing with each other,,html-keyboard-response,88,429497,0.0-13.0-2.14,26908,List2A,black,man,,,,null,,,,
15901,,,survey-text,89,445398,0.0-13.0-3.14,26908,List2A,black,man,,,,,"{""Q0"":""Kate and Ruth are arguing with each other""}","<img src=""stim_listA/argue8.gif""</stim_listA>",are arguing with each other,
null,"<div style=""font-size:60px;"">+</div>",,html-keyboard-response,90,445899,0.0-13.0-0.15,26908,List2A,black,man,,,,null,,,,
null,"<img src=""stim_listA/argue4.gif""</stim_listA>",,html-keyboard-response,91,447901,0.0-13.0-1.15,26908,List2A,black,man,,,,null,,,,
null,are arguing with each other,,html-keyboard-response,92,449903,0.0-13.0-2.15,26908,List2A,black,man,,,,null,,,,
23615,,,survey-text,93,473519,0.0-13.0-3.15,26908,List2A,black,man,,,,,"{""Q0"":""Fred and Kate are pointing at each other""}","<img src=""stim_listA/argue4.gif""</stim_listA>",are arguing with each other,
null,"<div style=""font-size:60px;"">+</div>",,html-keyboard-response,94,474020,0.0-13.0-0.16,26908,List2A,black,man,,,,null,,,,
null,"<img src=""stim_listA/shout5.gif""</stim_listA>",,html-keyboard-response,95,476021,0.0-13.0-1.16,26908,List2A,black,man,,,,null,,,,
null,is shouting at,,html-keyboard-response,96,478023,0.0-13.0-2.16,26908,List2A,black,man,,,,null,,,,
11198,,,survey-text,97,489223,0.0-13.0-3.16,26908,List2A,black,man,,,,,"{""Q0"":""Fred is shouting at Luke""}","<img src=""stim_listA/shout5.gif""</stim_listA>",is shouting at,
null,"<div style=""font-size:60px;"">+</div>",,html-keyboard-response,98,489723,0.0-13.0-0.17,26908,List2A,black,man,,,,null,,,,
null,"<img src=""stim_listA/touch2.gif""</stim_listA>",,html-keyboard-response,99,491726,0.0-13.0-1.17,26908,List2A,black,man,,,,null,,,,
null,are touching each other,,html-keyboard-response,100,493727,0.0-13.0-2.17,26908,List2A,black,man,,,,null,,,,
12343,,,survey-text,101,506070,0.0-13.0-3.17,26908,List2A,black,man,,,,,"{""Q0"":""Ruth and Luke are touching each other""}","<img src=""stim_listA/touch2.gif""</stim_listA>",are touching each other,
null,"<div style=""font-size:60px;"">+</div>",,html-keyboard-response,102,506572,0.0-13.0-0.18,26908,List2A,black,man,,,,null,,,,
null,"<img src=""stim_listA/marry6.gif""</stim_listA>",,html-keyboard-response,103,508575,0.0-13.0-1.18,26908,List2A,black,man,,,,null,,,,
null,are marrying each other,,html-keyboard-response,104,510576,0.0-13.0-2.18,26908,List2A,black,man,,,,null,,,,
6957,,,survey-text,105,517535,0.0-13.0-3.18,26908,List2A,black,man,,,,,"{""Q0"":""Mike and Luke are marrying each other""}","<img src=""stim_listA/marry6.gif""</stim_listA>",are marrying each other,
null,"<div style=""font-size:60px;"">+</div>",,html-keyboard-response,106,518036,0.0-13.0-0.19,26908,List2A,black,man,,,,null,,,,
null,"<img src=""stim_listA/argue7.gif""</stim_listA>",,html-keyboard-response,107,520037,0.0-13.0-1.19,26908,List2A,black,man,,,,null,,,,
null,is arguing with,,html-keyboard-response,108,522039,0.0-13.0-2.19,26908,List2A,black,man,,,,null,,,,
6279,,,survey-text,109,528319,0.0-13.0-3.19,26908,List2A,black,man,,,,,"{""Q0"":""Jane is arguing with Beth""}","<img src=""stim_listA/argue7.gif""</stim_listA>",is arguing with,
4080,"<img src='img/portrait_matrix_list2.JPG' style='width:900px;height:500px;''></img><p>If you have memorised all the portraits and names and are ready to start, press Continue.</p><p><strong>Please note: Your memory of these faces will be tested 4 times during this experiment.</strong></p>",0,html-button-response,110,532399,0.0-14.0-0.0,26908,List2A,black,man,,,,,,,,
3085,"<img src=""portrait/WM1.jpg""style=""width:400px;height:400px;""></img>",6,html-button-response,111,536487,0.0-14.0-1.0,26908,List2A,black,man,,TRUE,6,,,,,
null,CORRECT,,html-keyboard-response,112,537990,0.0-14.0-2.0-0.0,26908,List2A,black,man,,,,null,,,,
2296,"<img src=""portrait/BW1.jpg""style=""width:400px;height:400px;""></img>",0,html-button-response,113,540287,0.0-14.0-4.0,26908,List2A,black,man,,TRUE,0,,,,,
null,CORRECT,,html-keyboard-response,114,541791,0.0-14.0-5.0-0.0,26908,List2A,black,man,,,,null,,,,
4495,"<img src=""portrait/BM1.jpg""style=""width:400px;height:400px;""></img>",4,html-button-response,115,546288,0.0-14.0-7.0,26908,List2A,black,man,,TRUE,4,,,,,
null,CORRECT,,html-keyboard-response,116,547789,0.0-14.0-8.0-0.0,26908,List2A,black,man,,,,null,,,,
3769,"<img src=""portrait/BW2.jpg""style=""width:400px;height:400px;""></img>",2,html-button-response,117,551559,0.0-14.0-10.0,26908,List2A,black,man,,TRUE,2,,,,,
null,CORRECT,,html-keyboard-response,118,553061,0.0-14.0-11.0-0.0,26908,List2A,black,man,,,,null,,,,
2225,"<img src=""portrait/BM2.jpg""style=""width:400px;height:400px;""></img>",5,html-button-response,119,555288,0.0-14.0-13.0,26908,List2A,black,man,,TRUE,5,,,,,
null,CORRECT,,html-keyboard-response,120,556790,0.0-14.0-14.0-0.0,26908,List2A,black,man,,,,null,,,,
2230,"<img src=""portrait/WW1.jpg""style=""width:400px;height:400px;""></img>",1,html-button-response,121,559023,0.0-14.0-16.0,26908,List2A,black,man,,TRUE,1,,,,,
null,CORRECT,,html-keyboard-response,122,560527,0.0-14.0-17.0-0.0,26908,List2A,black,man,,,,null,,,,
1471,"<img src=""portrait/WW2.jpg""style=""width:400px;height:400px;""></img>",3,html-button-response,123,561999,0.0-14.0-19.0,26908,List2A,black,man,,TRUE,3,,,,,
null,CORRECT,,html-keyboard-response,124,563501,0.0-14.0-20.0-0.0,26908,List2A,black,man,,,,null,,,,
1737,"<img src=""portrait/WM2.jpg""style=""width:400px;height:400px;""></img>",7,html-button-response,125,565240,0.0-14.0-22.0,26908,List2A,black,man,,TRUE,7,,,,,
null,CORRECT,,html-keyboard-response,126,566741,0.0-14.0-23.0-0.0,26908,List2A,black,man,,,,null,,,,
1273,<p>You got 8 out of 8 right first time. Press Continue.</p>,0,html-button-response,127,568016,0.0-14.0-25.0,26908,List2A,black,man,,,,,,,,
null,"<div style=""font-size:60px;"">+</div>",,html-keyboard-response,128,569519,0.0-15.0-0.0,26908,List2A,black,man,,,,null,,,,
null,"<img src=""stim_listA/dance3.gif""</stim_listA>",,html-keyboard-response,129,571521,0.0-15.0-1.0,26908,List2A,black,man,,,,null,,,,
null,is dancing with,,html-keyboard-response,130,573523,0.0-15.0-2.0,26908,List2A,black,man,,,,null,,,,
6027,,,survey-text,131,579551,0.0-15.0-3.0,26908,List2A,black,man,,,,,"{""Q0"":""Fred is dancing with Kate""}","<img src=""stim_listA/dance3.gif""</stim_listA>",is dancing with,
null,"<div style=""font-size:60px;"">+</div>",,html-keyboard-response,132,580053,0.0-15.0-0.1,26908,List2A,black,man,,,,null,,,,
null,"<img src=""stim_listA/meet5.gif""</stim_listA>",,html-keyboard-response,133,582055,0.0-15.0-1.1,26908,List2A,black,man,,,,null,,,,
null,is meeting,,html-keyboard-response,134,584056,0.0-15.0-2.1,26908,List2A,black,man,,,,null,,,,
10942,,,survey-text,135,594999,0.0-15.0-3.1,26908,List2A,black,man,,,,,"{""Q0"":""Dave is meeting Mike""}","<img src=""stim_listA/meet5.gif""</stim_listA>",is meeting,
null,"<div style=""font-size:60px;"">+</div>",,html-keyboard-response,136,595501,0.0-15.0-0.2,26908,List2A,black,man,,,,null,,,,
null,"<img src=""stim_listA/talk5.gif""</stim_listA>",,html-keyboard-response,137,597504,0.0-15.0-1.2,26908,List2A,black,man,,,,null,,,,
null,is talking to,,html-keyboard-response,138,599505,0.0-15.0-2.2,26908,List2A,black,man,,,,null,,,,
6845,,,survey-text,139,606352,0.0-15.0-3.2,26908,List2A,black,man,,,,,"{""Q0"":""Mike is talking to Luke""}","<img src=""stim_listA/talk5.gif""</stim_listA>",is talking to,
null,"<div style=""font-size:60px;"">+</div>",,html-keyboard-response,140,606853,0.0-15.0-0.3,26908,List2A,black,man,,,,null,,,,
null,"<img src=""stim_listA/shout3.gif""</stim_listA>",,html-keyboard-response,141,608856,0.0-15.0-1.3,26908,List2A,black,man,,,,null,,,,
null,is shouting at,,html-keyboard-response,142,610857,0.0-15.0-2.3,26908,List2A,black,man,,,,null,,,,
5637,,,survey-text,143,616495,0.0-15.0-3.3,26908,List2A,black,man,,,,,"{""Q0"":""Fred is shouting at Beth""}","<img src=""stim_listA/shout3.gif""</stim_listA>",is shouting at,
null,"<div style=""font-size:60px;"">+</div>",,html-keyboard-response,144,616996,0.0-15.0-0.4,26908,List2A,black,man,,,,null,,,,
null,"<img src=""stim_listA/dance6.gif""</stim_listA>",,html-keyboard-response,145,618999,0.0-15.0-1.4,26908,List2A,black,man,,,,null,,,,
null,are dancing with each other,,html-keyboard-response,146,621001,0.0-15.0-2.4,26908,List2A,black,man,,,,null,,,,
8965,,,survey-text,147,629968,0.0-15.0-3.4,26908,List2A,black,man,,,,,"{""Q0"":""Fred and Dave are dancing with each other""}","<img src=""stim_listA/dance6.gif""</stim_listA>",are dancing with each other,
null,"<div style=""font-size:60px;"">+</div>",,html-keyboard-response,148,630469,0.0-15.0-0.5,26908,List2A,black,man,,,,null,,,,
null,"<img src=""stim_listA/hug6.gif""</stim_listA>",,html-keyboard-response,149,632471,0.0-15.0-1.5,26908,List2A,black,man,,,,null,,,,
null,are hugging each other,,html-keyboard-response,150,634472,0.0-15.0-2.5,26908,List2A,black,man,,,,null,,,,
7398,,,survey-text,151,641871,0.0-15.0-3.5,26908,List2A,black,man,,,,,"{""Q0"":""Mike and Dave are hugging each other""}","<img src=""stim_listA/hug6.gif""</stim_listA>",are hugging each other,
null,"<div style=""font-size:60px;"">+</div>",,html-keyboard-response,152,642373,0.0-15.0-0.6,26908,List2A,black,man,,,,null,,,,
null,"<img src=""stim_listA/hug4.gif""</stim_listA>",,html-keyboard-response,153,644375,0.0-15.0-1.6,26908,List2A,black,man,,,,null,,,,
null,are hugging each other,,html-keyboard-response,154,646376,0.0-15.0-2.6,26908,List2A,black,man,,,,null,,,,
6807,,,survey-text,155,653184,0.0-15.0-3.6,26908,List2A,black,man,,,,,"{""Q0"":""Kate and Mike are hugging each other""}","<img src=""stim_listA/hug4.gif""</stim_listA>",are hugging each other,
null,"<div style=""font-size:60px;"">+</div>",,html-keyboard-response,156,653684,0.0-15.0-0.7,26908,List2A,black,man,,,,null,,,,
null,"<img src=""stim_listA/marry2.gif""</stim_listA>",,html-keyboard-response,157,655685,0.0-15.0-1.7,26908,List2A,black,man,,,,null,,,,
null,are marrying each other,,html-keyboard-response,158,657686,0.0-15.0-2.7,26908,List2A,black,man,,,,null,,,,
8536,,,survey-text,159,666223,0.0-15.0-3.7,26908,List2A,black,man,,,,,"{""Q0"":""Jane and Luke are marrying each other""}","<img src=""stim_listA/marry2.gif""</stim_listA>",are marrying each other,
null,"<div style=""font-size:60px;"">+</div>",,html-keyboard-response,160,666724,0.0-15.0-0.8,26908,List2A,black,man,,,,null,,,,
null,"<img src=""stim_listA/talk3.gif""</stim_listA>",,html-keyboard-response,161,668726,0.0-15.0-1.8,26908,List2A,black,man,,,,null,,,,
null,is talking to,,html-keyboard-response,162,670729,0.0-15.0-2.8,26908,List2A,black,man,,,,null,,,,
4918,,,survey-text,163,675647,0.0-15.0-3.8,26908,List2A,black,man,,,,,"{""Q0"":""Fred is talking to Kate""}","<img src=""stim_listA/talk3.gif""</stim_listA>",is talking to,
null,"<div style=""font-size:60px;"">+</div>",,html-keyboard-response,164,676149,0.0-15.0-0.9,26908,List2A,black,man,,,,null,,,,
null,"<img src=""stim_listA/meet2.gif""</stim_listA>",,html-keyboard-response,165,678151,0.0-15.0-1.9,26908,List2A,black,man,,,,null,,,,
null,are meeting each other,,html-keyboard-response,166,680152,0.0-15.0-2.9,26908,List2A,black,man,,,,null,,,,
10686,,,survey-text,167,690839,0.0-15.0-3.9,26908,List2A,black,man,,,,,"{""Q0"":""Ruth and Luke are meeting each other""}","<img src=""stim_listA/meet2.gif""</stim_listA>",are meeting each other,
null,"<div style=""font-size:60px;"">+</div>",,html-keyboard-response,168,691341,0.0-15.0-0.10,26908,List2A,black,man,,,,null,,,,
null,"<img src=""stim_listA/marry8.gif""</stim_listA>",,html-keyboard-response,169,693342,0.0-15.0-1.10,26908,List2A,black,man,,,,null,,,,
null,are marrying each other,,html-keyboard-response,170,695345,0.0-15.0-2.10,26908,List2A,black,man,,,,null,,,,
8646,,,survey-text,171,703991,0.0-15.0-3.10,26908,List2A,black,man,,,,,"{""Q0"":""Kate and Ruth are meeting each other""}","<img src=""stim_listA/marry8.gif""</stim_listA>",are marrying each other,
null,"<div style=""font-size:60px;"">+</div>",,html-keyboard-response,172,704493,0.0-15.0-0.11,26908,List2A,black,man,,,,null,,,,
null,"<img src=""stim_listA/touch4.gif""</stim_listA>",,html-keyboard-response,173,706495,0.0-15.0-1.11,26908,List2A,black,man,,,,null,,,,
null,are touching each other,,html-keyboard-response,174,708497,0.0-15.0-2.11,26908,List2A,black,man,,,,null,,,,
6916,,,survey-text,175,715415,0.0-15.0-3.11,26908,List2A,black,man,,,,,"{""Q0"":""Fred and Beth are touching each other""}","<img src=""stim_listA/touch4.gif""</stim_listA>",are touching each other,
null,"<div style=""font-size:60px;"">+</div>",,html-keyboard-response,176,715917,0.0-15.0-0.12,26908,List2A,black,man,,,,null,,,,
null,"<img src=""stim_listA/meet4.gif""</stim_listA>",,html-keyboard-response,177,717919,0.0-15.0-1.12,26908,List2A,black,man,,,,null,,,,
null,are meeting each other,,html-keyboard-response,178,719920,0.0-15.0-2.12,26908,List2A,black,man,,,,null,,,,
6846,,,survey-text,179,726767,0.0-15.0-3.12,26908,List2A,black,man,,,,,"{""Q0"":""Fred and Beth are meeting each other""}","<img src=""stim_listA/meet4.gif""</stim_listA>",are meeting each other,
null,"<div style=""font-size:60px;"">+</div>",,html-keyboard-response,180,727269,0.0-15.0-0.13,26908,List2A,black,man,,,,null,,,,
null,"<img src=""stim_listA/dance2.gif""</stim_listA>",,html-keyboard-response,181,729270,0.0-15.0-1.13,26908,List2A,black,man,,,,null,,,,
null,are dancing with each other,,html-keyboard-response,182,731271,0.0-15.0-2.13,26908,List2A,black,man,,,,null,,,,
8559,,,survey-text,183,739832,0.0-15.0-3.13,26908,List2A,black,man,,,,,"{""Q0"":""Dave and Ruth are dancing with each other""}","<img src=""stim_listA/dance2.gif""</stim_listA>",are dancing with each other,
null,"<div style=""font-size:60px;"">+</div>",,html-keyboard-response,184,740333,0.0-15.0-0.14,26908,List2A,black,man,,,,null,,,,
null,"<img src=""stim_listA/fight1.gif""</stim_listA>",,html-keyboard-response,185,742336,0.0-15.0-1.14,26908,List2A,black,man,,,,null,,,,
null,is fighting,,html-keyboard-response,186,744338,0.0-15.0-2.14,26908,List2A,black,man,,,,null,,,,
7084,,,survey-text,187,751423,0.0-15.0-3.14,26908,List2A,black,man,,,,,"{""Q0"":""Jane is fighting Dave""}","<img src=""stim_listA/fight1.gif""</stim_listA>",is fighting,
null,"<div style=""font-size:60px;"">+</div>",,html-keyboard-response,188,751925,0.0-15.0-0.15,26908,List2A,black,man,,,,null,,,,
null,"<img src=""stim_listA/talk1.gif""</stim_listA>",,html-keyboard-response,189,753927,0.0-15.0-1.15,26908,List2A,black,man,,,,null,,,,
null,is talking to,,html-keyboard-response,190,755928,0.0-15.0-2.15,26908,List2A,black,man,,,,null,,,,
6502,,,survey-text,191,762431,0.0-15.0-3.15,26908,List2A,black,man,,,,,"{""Q0"":""Jane is talking to Luke""}","<img src=""stim_listA/talk1.gif""</stim_listA>",is talking to,
null,"<div style=""font-size:60px;"">+</div>",,html-keyboard-response,192,762932,0.0-15.0-0.16,26908,List2A,black,man,,,,null,,,,
null,"<img src=""stim_listA/meet8.gif""</stim_listA>",,html-keyboard-response,193,764934,0.0-15.0-1.16,26908,List2A,black,man,,,,null,,,,
null,are meeting each other,,html-keyboard-response,194,766935,0.0-15.0-2.16,26908,List2A,black,man,,,,null,,,,
7783,,,survey-text,195,774720,0.0-15.0-3.16,26908,List2A,black,man,,,,,"{""Q0"":""Ruth and Beth are meeting each other""}","<img src=""stim_listA/meet8.gif""</stim_listA>",are meeting each other,
null,"<div style=""font-size:60px;"">+</div>",,html-keyboard-response,196,775221,0.0-15.0-0.17,26908,List2A,black,man,,,,null,,,,
null,"<img src=""stim_listA/fight2.gif""</stim_listA>",,html-keyboard-response,197,777224,0.0-15.0-1.17,26908,List2A,black,man,,,,null,,,,
null,are fighting each other,,html-keyboard-response,198,779225,0.0-15.0-2.17,26908,List2A,black,man,,,,null,,,,
5861,,,survey-text,199,785088,0.0-15.0-3.17,26908,List2A,black,man,,,,,"{""Q0"":""Ruth and Luke are fighting each other""}","<img src=""stim_listA/fight2.gif""</stim_listA>",are fighting each other,
null,"<div style=""font-size:60px;"">+</div>",,html-keyboard-response,200,785590,0.0-15.0-0.18,26908,List2A,black,man,,,,null,,,,
null,"<img src=""stim_listA/fight6.gif""</stim_listA>",,html-keyboard-response,201,787592,0.0-15.0-1.18,26908,List2A,black,man,,,,null,,,,
null,are fighting each other,,html-keyboard-response,202,789594,0.0-15.0-2.18,26908,List2A,black,man,,,,null,,,,
5189,,,survey-text,203,794784,0.0-15.0-3.18,26908,List2A,black,man,,,,,"{""Q0"":""Fred and Luke are fighting each other""}","<img src=""stim_listA/fight6.gif""</stim_listA>",are fighting each other,
null,"<div style=""font-size:60px;"">+</div>",,html-keyboard-response,204,795285,0.0-15.0-0.19,26908,List2A,black,man,,,,null,,,,
null,"<img src=""stim_listA/shout4.gif""</stim_listA>",,html-keyboard-response,205,797287,0.0-15.0-1.19,26908,List2A,black,man,,,,null,,,,
null,are shouting at each other,,html-keyboard-response,206,799288,0.0-15.0-2.19,26908,List2A,black,man,,,,null,,,,
6230,,,survey-text,207,805520,0.0-15.0-3.19,26908,List2A,black,man,,,,,"{""Q0"":""Kate and Mike are shouting at each other""}","<img src=""stim_listA/shout4.gif""</stim_listA>",are shouting at each other,
1687,"<img src='img/portrait_matrix_list2.JPG' style='width:900px;height:500px;''></img><p>If you have memorised all the portraits and names and are ready to start, press Continue.</p><p><strong>Please note: Your memory of these faces will be tested 4 times during this experiment.</strong></p>",0,html-button-response,208,807208,0.0-16.0-0.0,26908,List2A,black,man,,,,,,,,
1973,"<img src=""portrait/WW1.jpg""style=""width:400px;height:400px;""></img>",1,html-button-response,209,810184,0.0-16.0-1.0,26908,List2A,black,man,,TRUE,1,,,,,
null,CORRECT,,html-keyboard-response,210,811686,0.0-16.0-2.0-0.0,26908,List2A,black,man,,,,null,,,,
1952,"<img src=""portrait/BM1.jpg""style=""width:400px;height:400px;""></img>",4,html-button-response,211,813640,0.0-16.0-4.0,26908,List2A,black,man,,TRUE,4,,,,,
null,CORRECT,,html-keyboard-response,212,815143,0.0-16.0-5.0-0.0,26908,List2A,black,man,,,,null,,,,
1616,"<img src=""portrait/WW2.jpg""style=""width:400px;height:400px;""></img>",3,html-button-response,213,816760,0.0-16.0-7.0,26908,List2A,black,man,,TRUE,3,,,,,
null,CORRECT,,html-keyboard-response,214,818262,0.0-16.0-8.0-0.0,26908,List2A,black,man,,,,null,,,,
2439,"<img src=""portrait/BM2.jpg""style=""width:400px;height:400px;""></img>",5,html-button-response,215,820704,0.0-16.0-10.0,26908,List2A,black,man,,TRUE,5,,,,,
null,CORRECT,,html-keyboard-response,216,822206,0.0-16.0-11.0-0.0,26908,List2A,black,man,,,,null,,,,
4561,"<img src=""portrait/WM2.jpg""style=""width:400px;height:400px;""></img>",7,html-button-response,217,826768,0.0-16.0-13.0,26908,List2A,black,man,,TRUE,7,,,,,
null,CORRECT,,html-keyboard-response,218,828270,0.0-16.0-14.0-0.0,26908,List2A,black,man,,,,null,,,,
2161,"<img src=""portrait/BW2.jpg""style=""width:400px;height:400px;""></img>",2,html-button-response,219,830432,0.0-16.0-16.0,26908,List2A,black,man,,TRUE,2,,,,,
null,CORRECT,,html-keyboard-response,220,831934,0.0-16.0-17.0-0.0,26908,List2A,black,man,,,,null,,,,
1896,"<img src=""portrait/WM1.jpg""style=""width:400px;height:400px;""></img>",6,html-button-response,221,833833,0.0-16.0-19.0,26908,List2A,black,man,,TRUE,6,,,,,
null,CORRECT,,html-keyboard-response,222,835335,0.0-16.0-20.0-0.0,26908,List2A,black,man,,,,null,,,,
1543,"<img src=""portrait/BW1.jpg""style=""width:400px;height:400px;""></img>",0,html-button-response,223,836880,0.0-16.0-22.0,26908,List2A,black,man,,TRUE,0,,,,,
null,CORRECT,,html-keyboard-response,224,838382,0.0-16.0-23.0-0.0,26908,List2A,black,man,,,,null,,,,
896,<p>You got 8 out of 8 right first time. Press Continue.</p>,0,html-button-response,225,839279,0.0-16.0-25.0,26908,List2A,black,man,,,,,,,,
null,"<div style=""font-size:60px;"">+</div>",,html-keyboard-response,226,840782,0.0-17.0-0.0,26908,List2A,black,man,,,,null,,,,
null,"<img src=""stim_listA/argue1.gif""</stim_listA>",,html-keyboard-response,227,842784,0.0-17.0-1.0,26908,List2A,black,man,,,,null,,,,
null,is arguing with,,html-keyboard-response,228,844785,0.0-17.0-2.0,26908,List2A,black,man,,,,null,,,,
6133,,,survey-text,229,850920,0.0-17.0-3.0,26908,List2A,black,man,,,,,"{""Q0"":""Dave is arguing with Ruth""}","<img src=""stim_listA/argue1.gif""</stim_listA>",is arguing with,
null,"<div style=""font-size:60px;"">+</div>",,html-keyboard-response,230,851422,0.0-17.0-0.1,26908,List2A,black,man,,,,null,,,,
null,"<img src=""stim_listA/marry1.gif""</stim_listA>",,html-keyboard-response,231,853425,0.0-17.0-1.1,26908,List2A,black,man,,,,null,,,,
null,is marrying,,html-keyboard-response,232,855427,0.0-17.0-2.1,26908,List2A,black,man,,,,null,,,,
4516,,,survey-text,233,859944,0.0-17.0-3.1,26908,List2A,black,man,,,,,"{""Q0"":""Dave is marrying Ruth""}","<img src=""stim_listA/marry1.gif""</stim_listA>",is marrying,
null,"<div style=""font-size:60px;"">+</div>",,html-keyboard-response,234,860445,0.0-17.0-0.2,26908,List2A,black,man,,,,null,,,,
null,"<img src=""stim_listA/meet7.gif""</stim_listA>",,html-keyboard-response,235,862447,0.0-17.0-1.2,26908,List2A,black,man,,,,null,,,,
null,is meeting,,html-keyboard-response,236,864448,0.0-17.0-2.2,26908,List2A,black,man,,,,null,,,,
5406,,,survey-text,237,869856,0.0-17.0-3.2,26908,List2A,black,man,,,,,"{""Q0"":""Jane is meeting Kate""}","<img src=""stim_listA/meet7.gif""</stim_listA>",is meeting,
null,"<div style=""font-size:60px;"">+</div>",,html-keyboard-response,238,870357,0.0-17.0-0.3,26908,List2A,black,man,,,,null,,,,
null,"<img src=""stim_listA/hug2.gif""</stim_listA>",,html-keyboard-response,239,872359,0.0-17.0-1.3,26908,List2A,black,man,,,,null,,,,
null,are hugging each other,,html-keyboard-response,240,874361,0.0-17.0-2.3,26908,List2A,black,man,,,,null,,,,
8518,,,survey-text,241,882879,0.0-17.0-3.3,26908,List2A,black,man,,,,,"{""Q0"":""Dave and Jane are hugging each other""}","<img src=""stim_listA/hug2.gif""</stim_listA>",are hugging each other,
null,"<div style=""font-size:60px;"">+</div>",,html-keyboard-response,242,883380,0.0-17.0-0.4,26908,List2A,black,man,,,,null,,,,
null,"<img src=""stim_listA/talk7.gif""</stim_listA>",,html-keyboard-response,243,885382,0.0-17.0-1.4,26908,List2A,black,man,,,,null,,,,
null,is talking to,,html-keyboard-response,244,887383,0.0-17.0-2.4,26908,List2A,black,man,,,,null,,,,
4975,,,survey-text,245,892359,0.0-17.0-3.4,26908,List2A,black,man,,,,,"{""Q0"":""Ruth is talking to Kate""}","<img src=""stim_listA/talk7.gif""</stim_listA>",is talking to,
null,"<div style=""font-size:60px;"">+</div>",,html-keyboard-response,246,892862,0.0-17.0-0.5,26908,List2A,black,man,,,,null,,,,
null,"<img src=""stim_listA/marry5.gif""</stim_listA>",,html-keyboard-response,247,894864,0.0-17.0-1.5,26908,List2A,black,man,,,,null,,,,
null,is marrying,,html-keyboard-response,248,896866,0.0-17.0-2.5,26908,List2A,black,man,,,,null,,,,
4396,,,survey-text,249,901263,0.0-17.0-3.5,26908,List2A,black,man,,,,,"{""Q0"":""Fred is marrying Dave""}","<img src=""stim_listA/marry5.gif""</stim_listA>",is marrying,
null,"<div style=""font-size:60px;"">+</div>",,html-keyboard-response,250,901764,0.0-17.0-0.6,26908,List2A,black,man,,,,null,,,,
null,"<img src=""stim_listA/kiss3.gif""</stim_listA>",,html-keyboard-response,251,903767,0.0-17.0-1.6,26908,List2A,black,man,,,,null,,,,
null,is kissing,,html-keyboard-response,252,905769,0.0-17.0-2.6,26908,List2A,black,man,,,,null,,,,
6678,,,survey-text,253,912448,0.0-17.0-3.6,26908,List2A,black,man,,,,,"{""Q0"":""Fred is kissing Beth""}","<img src=""stim_listA/kiss3.gif""</stim_listA>",is kissing,
null,"<div style=""font-size:60px;"">+</div>",,html-keyboard-response,254,912949,0.0-17.0-0.7,26908,List2A,black,man,,,,null,,,,
null,"<img src=""stim_listA/talk6.gif""</stim_listA>",,html-keyboard-response,255,914951,0.0-17.0-1.7,26908,List2A,black,man,,,,null,,,,
null,are talking to each other,,html-keyboard-response,256,916953,0.0-17.0-2.7,26908,List2A,black,man,,,,null,,,,
6343,,,survey-text,257,923296,0.0-17.0-3.7,26908,List2A,black,man,,,,,"{""Q0"":""Fred and Dave are talking to each other""}","<img src=""stim_listA/talk6.gif""</stim_listA>",are talking to each other,
null,"<div style=""font-size:60px;"">+</div>",,html-keyboard-response,258,923798,0.0-17.0-0.8,26908,List2A,black,man,,,,null,,,,
null,"<img src=""stim_listA/meet3.gif""</stim_listA>",,html-keyboard-response,259,925801,0.0-17.0-1.8,26908,List2A,black,man,,,,null,,,,
null,is meeting,,html-keyboard-response,260,927802,0.0-17.0-2.8,26908,List2A,black,man,,,,null,,,,
13563,,,survey-text,261,941368,0.0-17.0-3.8,26908,List2A,black,man,,,,,"{""Q0"":""Mike and Beth are meeting each other""}","<img src=""stim_listA/meet3.gif""</stim_listA>",is meeting,
null,"<div style=""font-size:60px;"">+</div>",,html-keyboard-response,262,941869,0.0-17.0-0.9,26908,List2A,black,man,,,,null,,,,
null,"<img src=""stim_listA/dance1.gif""</stim_listA>",,html-keyboard-response,263,943871,0.0-17.0-1.9,26908,List2A,black,man,,,,null,,,,
null,is dancing with,,html-keyboard-response,264,945872,0.0-17.0-2.9,26908,List2A,black,man,,,,null,,,,
6454,,,survey-text,265,952328,0.0-17.0-3.9,26908,List2A,black,man,,,,,"{""Q0"":""Luke is dancing with Jane""}","<img src=""stim_listA/dance1.gif""</stim_listA>",is dancing with,
null,"<div style=""font-size:60px;"">+</div>",,html-keyboard-response,266,952829,0.0-17.0-0.10,26908,List2A,black,man,,,,null,,,,
null,"<img src=""stim_listA/touch5.gif""</stim_listA>",,html-keyboard-response,267,954832,0.0-17.0-1.10,26908,List2A,black,man,,,,null,,,,
null,is touching,,html-keyboard-response,268,956833,0.0-17.0-2.10,26908,List2A,black,man,,,,null,,,,
4574,,,survey-text,269,961408,0.0-17.0-3.10,26908,List2A,black,man,,,,,"{""Q0"":""Dave is touching Mike""}","<img src=""stim_listA/touch5.gif""</stim_listA>",is touching,
null,"<div style=""font-size:60px;"">+</div>",,html-keyboard-response,270,961909,0.0-17.0-0.11,26908,List2A,black,man,,,,null,,,,
null,"<img src=""stim_listA/dance8.gif""</stim_listA>",,html-keyboard-response,271,963911,0.0-17.0-1.11,26908,List2A,black,man,,,,null,,,,
null,are dancing with each other,,html-keyboard-response,272,965912,0.0-17.0-2.11,26908,List2A,black,man,,,,null,,,,
6951,,,survey-text,273,972864,0.0-17.0-3.11,26908,List2A,black,man,,,,,"{""Q0"":""Beth and Jane are dancing with each other""}","<img src=""stim_listA/dance8.gif""</stim_listA>",are dancing with each other,
null,"<div style=""font-size:60px;"">+</div>",,html-keyboard-response,274,973365,0.0-17.0-0.12,26908,List2A,black,man,,,,null,,,,
null,"<img src=""stim_listA/touch7.gif""</stim_listA>",,html-keyboard-response,275,975367,0.0-17.0-1.12,26908,List2A,black,man,,,,null,,,,
null,is touching,,html-keyboard-response,276,977368,0.0-17.0-2.12,26908,List2A,black,man,,,,null,,,,
9375,,,survey-text,277,986744,0.0-17.0-3.12,26908,List2A,black,man,,,,,"{""Q0"":""Jane and Kate are touching each other""}","<img src=""stim_listA/touch7.gif""</stim_listA>",is touching,
null,"<div style=""font-size:60px;"">+</div>",,html-keyboard-response,278,987246,0.0-17.0-0.13,26908,List2A,black,man,,,,null,,,,
null,"<img src=""stim_listA/touch3.gif""</stim_listA>",,html-keyboard-response,279,989248,0.0-17.0-1.13,26908,List2A,black,man,,,,null,,,,
null,is touching,,html-keyboard-response,280,991249,0.0-17.0-2.13,26908,List2A,black,man,,,,null,,,,
6790,,,survey-text,281,998041,0.0-17.0-3.13,26908,List2A,black,man,,,,,"{""Q0"":""Mike is touching Kate""}","<img src=""stim_listA/touch3.gif""</stim_listA>",is touching,
null,"<div style=""font-size:60px;"">+</div>",,html-keyboard-response,282,998542,0.0-17.0-0.14,26908,List2A,black,man,,,,null,,,,
null,"<img src=""stim_listA/kiss8.gif""</stim_listA>",,html-keyboard-response,283,1000543,0.0-17.0-1.14,26908,List2A,black,man,,,,null,,,,
null,are kissing each other,,html-keyboard-response,284,1002546,0.0-17.0-2.14,26908,List2A,black,man,,,,null,,,,
6781,,,survey-text,285,1009328,0.0-17.0-3.14,26908,List2A,black,man,,,,,"{""Q0"":""Kate and Jane are kissing each other""}","<img src=""stim_listA/kiss8.gif""</stim_listA>",are kissing each other,
null,"<div style=""font-size:60px;"">+</div>",,html-keyboard-response,286,1009830,0.0-17.0-0.15,26908,List2A,black,man,,,,null,,,,
null,"<img src=""stim_listA/fight3.gif""</stim_listA>",,html-keyboard-response,287,1011832,0.0-17.0-1.15,26908,List2A,black,man,,,,null,,,,
null,is fighting,,html-keyboard-response,288,1013833,0.0-17.0-2.15,26908,List2A,black,man,,,,null,,,,
9229,,,survey-text,289,1023063,0.0-17.0-3.15,26908,List2A,black,man,,,,,"{""Q0"":""Kate is fighting Mike""}","<img src=""stim_listA/fight3.gif""</stim_listA>",is fighting,
null,"<div style=""font-size:60px;"">+</div>",,html-keyboard-response,290,1023566,0.0-17.0-0.16,26908,List2A,black,man,,,,null,,,,
null,"<img src=""stim_listA/meet6.gif""</stim_listA>",,html-keyboard-response,291,1025568,0.0-17.0-1.16,26908,List2A,black,man,,,,null,,,,
null,are meeting each other,,html-keyboard-response,292,1027569,0.0-17.0-2.16,26908,List2A,black,man,,,,null,,,,
5877,,,survey-text,293,1033447,0.0-17.0-3.16,26908,List2A,black,man,,,,,"{""Q0"":""Fred and Luke are meeting each other""}","<img src=""stim_listA/meet6.gif""</stim_listA>",are meeting each other,
null,"<div style=""font-size:60px;"">+</div>",,html-keyboard-response,294,1033949,0.0-17.0-0.17,26908,List2A,black,man,,,,null,,,,
null,"<img src=""stim_listA/marry7.gif""</stim_listA>",,html-keyboard-response,295,1035951,0.0-17.0-1.17,26908,List2A,black,man,,,,null,,,,
null,is marrying,,html-keyboard-response,296,1037952,0.0-17.0-2.17,26908,List2A,black,man,,,,null,,,,
8318,,,survey-text,297,1046271,0.0-17.0-3.17,26908,List2A,black,man,,,,,"{""Q0"":""Jane is marrying Beth""}","<img src=""stim_listA/marry7.gif""</stim_listA>",is marrying,
null,"<div style=""font-size:60px;"">+</div>",,html-keyboard-response,298,1046772,0.0-17.0-0.18,26908,List2A,black,man,,,,null,,,,
null,"<img src=""stim_listA/kiss7.gif""</stim_listA>",,html-keyboard-response,299,1048774,0.0-17.0-1.18,26908,List2A,black,man,,,,null,,,,
null,is kissing,,html-keyboard-response,300,1050775,0.0-17.0-2.18,26908,List2A,black,man,,,,null,,,,
5767,,,survey-text,301,1056544,0.0-17.0-3.18,26908,List2A,black,man,,,,,"{""Q0"":""Ruth is kissing Beth""}","<img src=""stim_listA/kiss7.gif""</stim_listA>",is kissing,
null,"<div style=""font-size:60px;"">+</div>",,html-keyboard-response,302,1057045,0.0-17.0-0.19,26908,List2A,black,man,,,,null,,,,
null,"<img src=""stim_listA/shout1.gif""</stim_listA>",,html-keyboard-response,303,1059046,0.0-17.0-1.19,26908,List2A,black,man,,,,null,,,,
null,is shouting at,,html-keyboard-response,304,1061049,0.0-17.0-2.19,26908,List2A,black,man,,,,null,,,,
6021,,,survey-text,305,1067071,0.0-17.0-3.19,26908,List2A,black,man,,,,,"{""Q0"":""Luke is shouting at Ruth""}","<img src=""stim_listA/shout1.gif""</stim_listA>",is shouting at,
15999,"<img src='img/portrait_matrix_list2.JPG' style='width:900px;height:500px;''></img><p>If you have memorised all the portraits and names and are ready to start, press Continue.</p><p><strong>Please note: Your memory of these faces will be tested 4 times during this experiment.</strong></p>",0,html-button-response,306,1083072,0.0-18.0-0.0,26908,List2A,black,man,,,,,,,,
3335,"<img src=""portrait/WW2.jpg""style=""width:400px;height:400px;""></img>",3,html-button-response,307,1087408,0.0-18.0-1.0,26908,List2A,black,man,,TRUE,3,,,,,
null,CORRECT,,html-keyboard-response,308,1088910,0.0-18.0-2.0-0.0,26908,List2A,black,man,,,,null,,,,
1520,"<img src=""portrait/WW1.jpg""style=""width:400px;height:400px;""></img>",1,html-button-response,309,1090432,0.0-18.0-4.0,26908,List2A,black,man,,TRUE,1,,,,,
null,CORRECT,,html-keyboard-response,310,1091935,0.0-18.0-5.0-0.0,26908,List2A,black,man,,,,null,,,,
2448,"<img src=""portrait/BM2.jpg""style=""width:400px;height:400px;""></img>",5,html-button-response,311,1094384,0.0-18.0-7.0,26908,List2A,black,man,,TRUE,5,,,,,
null,CORRECT,,html-keyboard-response,312,1095887,0.0-18.0-8.0-0.0,26908,List2A,black,man,,,,null,,,,
1696,"<img src=""portrait/WM1.jpg""style=""width:400px;height:400px;""></img>",6,html-button-response,313,1097584,0.0-18.0-10.0,26908,List2A,black,man,,TRUE,6,,,,,
null,CORRECT,,html-keyboard-response,314,1099088,0.0-18.0-11.0-0.0,26908,List2A,black,man,,,,null,,,,
4471,"<img src=""portrait/BM1.jpg""style=""width:400px;height:400px;""></img>",4,html-button-response,315,1103560,0.0-18.0-13.0,26908,List2A,black,man,,TRUE,4,,,,,
null,CORRECT,,html-keyboard-response,316,1105062,0.0-18.0-14.0-0.0,26908,List2A,black,man,,,,null,,,,
2192,"<img src=""portrait/BW2.jpg""style=""width:400px;height:400px;""></img>",2,html-button-response,317,1107256,0.0-18.0-16.0,26908,List2A,black,man,,TRUE,2,,,,,
null,CORRECT,,html-keyboard-response,318,1108759,0.0-18.0-17.0-0.0,26908,List2A,black,man,,,,null,,,,
1560,"<img src=""portrait/BW1.jpg""style=""width:400px;height:400px;""></img>",0,html-button-response,319,1110321,0.0-18.0-19.0,26908,List2A,black,man,,TRUE,0,,,,,
null,CORRECT,,html-keyboard-response,320,1111822,0.0-18.0-20.0-0.0,26908,List2A,black,man,,,,null,,,,
3239,"<img src=""portrait/WM2.jpg""style=""width:400px;height:400px;""></img>",7,html-button-response,321,1115064,0.0-18.0-22.0,26908,List2A,black,man,,TRUE,7,,,,,
null,CORRECT,,html-keyboard-response,322,1116567,0.0-18.0-23.0-0.0,26908,List2A,black,man,,,,null,,,,
1072,<p>You got 8 out of 8 right first time. Press Continue.</p>,0,html-button-response,323,1117640,0.0-18.0-25.0,26908,List2A,black,man,,,,,,,,
null,"<div style=""font-size:60px;"">+</div>",,html-keyboard-response,324,1119142,0.0-19.0-0.0,26908,List2A,black,man,,,,null,,,,
null,"<img src=""stim_listA/shout6.gif""</stim_listA>",,html-keyboard-response,325,1121145,0.0-19.0-1.0,26908,List2A,black,man,,,,null,,,,
null,are shouting at each other,,html-keyboard-response,326,1123146,0.0-19.0-2.0,26908,List2A,black,man,,,,null,,,,
6893,,,survey-text,327,1130040,0.0-19.0-3.0,26908,List2A,black,man,,,,,"{""Q0"":""Dave and Mike are shouting at each other""}","<img src=""stim_listA/shout6.gif""</stim_listA>",are shouting at each other,
null,"<div style=""font-size:60px;"">+</div>",,html-keyboard-response,328,1130541,0.0-19.0-0.1,26908,List2A,black,man,,,,null,,,,
null,"<img src=""stim_listA/meet1.gif""</stim_listA>",,html-keyboard-response,329,1132543,0.0-19.0-1.1,26908,List2A,black,man,,,,null,,,,
null,is meeting,,html-keyboard-response,330,1134544,0.0-19.0-2.1,26908,List2A,black,man,,,,null,,,,
4439,,,survey-text,331,1138984,0.0-19.0-3.1,26908,List2A,black,man,,,,,"{""Q0"":""Dave is meeting Jane""}","<img src=""stim_listA/meet1.gif""</stim_listA>",is meeting,
null,"<div style=""font-size:60px;"">+</div>",,html-keyboard-response,332,1139485,0.0-19.0-0.2,26908,List2A,black,man,,,,null,,,,
null,"<img src=""stim_listA/fight8.gif""</stim_listA>",,html-keyboard-response,333,1141488,0.0-19.0-1.2,26908,List2A,black,man,,,,null,,,,
null,are fighting each other,,html-keyboard-response,334,1143489,0.0-19.0-2.2,26908,List2A,black,man,,,,null,,,,
6831,,,survey-text,335,1150320,0.0-19.0-3.2,26908,List2A,black,man,,,,,"{""Q0"":""Beth and Ruth are fighting each other""}","<img src=""stim_listA/fight8.gif""</stim_listA>",are fighting each other,
null,"<div style=""font-size:60px;"">+</div>",,html-keyboard-response,336,1150821,0.0-19.0-0.3,26908,List2A,black,man,,,,null,,,,
null,"<img src=""stim_listA/kiss1.gif""</stim_listA>",,html-keyboard-response,337,1152823,0.0-19.0-1.3,26908,List2A,black,man,,,,null,,,,
null,is kissing,,html-keyboard-response,338,1154825,0.0-19.0-2.3,26908,List2A,black,man,,,,null,,,,
7815,,,survey-text,339,1162640,0.0-19.0-3.3,26908,List2A,black,man,,,,,"{""Q0"":""Luke is kissing Ruth""}","<img src=""stim_listA/kiss1.gif""</stim_listA>",is kissing,
null,"<div style=""font-size:60px;"">+</div>",,html-keyboard-response,340,1163142,0.0-19.0-0.4,26908,List2A,black,man,,,,null,,,,
null,"<img src=""stim_listA/fight4.gif""</stim_listA>",,html-keyboard-response,341,1165143,0.0-19.0-1.4,26908,List2A,black,man,,,,null,,,,
null,are fighting each other,,html-keyboard-response,342,1167145,0.0-19.0-2.4,26908,List2A,black,man,,,,null,,,,
8022,,,survey-text,343,1175168,0.0-19.0-3.4,26908,List2A,black,man,,,,,"{""Q0"":""Beth and Fred are fighting each other""}","<img src=""stim_listA/fight4.gif""</stim_listA>",are fighting each other,
null,"<div style=""font-size:60px;"">+</div>",,html-keyboard-response,344,1175670,0.0-19.0-0.5,26908,List2A,black,man,,,,null,,,,
null,"<img src=""stim_listA/hug7.gif""</stim_listA>",,html-keyboard-response,345,1177672,0.0-19.0-1.5,26908,List2A,black,man,,,,null,,,,
null,is hugging,,html-keyboard-response,346,1179673,0.0-19.0-2.5,26908,List2A,black,man,,,,null,,,,
4791,,,survey-text,347,1184464,0.0-19.0-3.5,26908,List2A,black,man,,,,,"{""Q0"":""Ruth is hugging Beth""}","<img src=""stim_listA/hug7.gif""</stim_listA>",is hugging,
null,"<div style=""font-size:60px;"">+</div>",,html-keyboard-response,348,1184966,0.0-19.0-0.6,26908,List2A,black,man,,,,null,,,,
null,"<img src=""stim_listA/dance5.gif""</stim_listA>",,html-keyboard-response,349,1186967,0.0-19.0-1.6,26908,List2A,black,man,,,,null,,,,
null,is dancing with,,html-keyboard-response,350,1188969,0.0-19.0-2.6,26908,List2A,black,man,,,,null,,,,
7974,,,survey-text,351,1196944,0.0-19.0-3.6,26908,List2A,black,man,,,,,"{""Q0"":""Luke is dancing with Mike""}","<img src=""stim_listA/dance5.gif""</stim_listA>",is dancing with,
null,"<div style=""font-size:60px;"">+</div>",,html-keyboard-response,352,1197446,0.0-19.0-0.7,26908,List2A,black,man,,,,null,,,,
null,"<img src=""stim_listA/talk4.gif""</stim_listA>",,html-keyboard-response,353,1199448,0.0-19.0-1.7,26908,List2A,black,man,,,,null,,,,
null,are talking to each other,,html-keyboard-response,354,1201449,0.0-19.0-2.7,26908,List2A,black,man,,,,null,,,,
6687,,,survey-text,355,1208136,0.0-19.0-3.7,26908,List2A,black,man,,,,,"{""Q0"":""Beth and Mike are talking to each other""}","<img src=""stim_listA/talk4.gif""</stim_listA>",are talking to each other,
null,"<div style=""font-size:60px;"">+</div>",,html-keyboard-response,356,1208637,0.0-19.0-0.8,26908,List2A,black,man,,,,null,,,,
null,"<img src=""stim_listA/argue2.gif""</stim_listA>",,html-keyboard-response,357,1210640,0.0-19.0-1.8,26908,List2A,black,man,,,,null,,,,
null,are arguing with each other,,html-keyboard-response,358,1212642,0.0-19.0-2.8,26908,List2A,black,man,,,,null,,,,
11109,,,survey-text,359,1223752,0.0-19.0-3.8,26908,List2A,black,man,,,,,"{""Q0"":""Jane and Luke are arguing with each other""}","<img src=""stim_listA/argue2.gif""</stim_listA>",are arguing with each other,
null,"<div style=""font-size:60px;"">+</div>",,html-keyboard-response,360,1224254,0.0-19.0-0.9,26908,List2A,black,man,,,,null,,,,
null,"<img src=""stim_listA/kiss5.gif""</stim_listA>",,html-keyboard-response,361,1226256,0.0-19.0-1.9,26908,List2A,black,man,,,,null,,,,
null,is kissing,,html-keyboard-response,362,1228258,0.0-19.0-2.9,26908,List2A,black,man,,,,null,,,,
11870,,,survey-text,363,1240128,0.0-19.0-3.9,26908,List2A,black,man,,,,,"{""Q0"":""Fred is kissing Luke""}","<img src=""stim_listA/kiss5.gif""</stim_listA>",is kissing,
null,"<div style=""font-size:60px;"">+</div>",,html-keyboard-response,364,1240629,0.0-19.0-0.10,26908,List2A,black,man,,,,null,,,,
null,"<img src=""stim_listA/fight7.gif""</stim_listA>",,html-keyboard-response,365,1242632,0.0-19.0-1.10,26908,List2A,black,man,,,,null,,,,
null,is fighting,,html-keyboard-response,366,1244633,0.0-19.0-2.10,26908,List2A,black,man,,,,null,,,,
6023,,,survey-text,367,1250656,0.0-19.0-3.10,26908,List2A,black,man,,,,,"{""Q0"":""Jane is fighting Kate""}","<img src=""stim_listA/fight7.gif""</stim_listA>",is fighting,
null,"<div style=""font-size:60px;"">+</div>",,html-keyboard-response,368,1251158,0.0-19.0-0.11,26908,List2A,black,man,,,,null,,,,
null,"<img src=""stim_listA/kiss4.gif""</stim_listA>",,html-keyboard-response,369,1253160,0.0-19.0-1.11,26908,List2A,black,man,,,,null,,,,
null,are kissing each other,,html-keyboard-response,370,1255161,0.0-19.0-2.11,26908,List2A,black,man,,,,null,,,,
6350,,,survey-text,371,1261512,0.0-19.0-3.11,26908,List2A,black,man,,,,,"{""Q0"":""Kate and Mike are kissing each other""}","<img src=""stim_listA/kiss4.gif""</stim_listA>",are kissing each other,
null,"<div style=""font-size:60px;"">+</div>",,html-keyboard-response,372,1262014,0.0-19.0-0.12,26908,List2A,black,man,,,,null,,,,
null,"<img src=""stim_listA/hug1.gif""</stim_listA>",,html-keyboard-response,373,1264016,0.0-19.0-1.12,26908,List2A,black,man,,,,null,,,,
null,is hugging,,html-keyboard-response,374,1266018,0.0-19.0-2.12,26908,List2A,black,man,,,,null,,,,
5533,,,survey-text,375,1271552,0.0-19.0-3.12,26908,List2A,black,man,,,,,"{""Q0"":""Luke is hugging Ruth""}","<img src=""stim_listA/hug1.gif""</stim_listA>",is hugging,
null,"<div style=""font-size:60px;"">+</div>",,html-keyboard-response,376,1272053,0.0-19.0-0.13,26908,List2A,black,man,,,,null,,,,
null,"<img src=""stim_listA/marry4.gif""</stim_listA>",,html-keyboard-response,377,1274055,0.0-19.0-1.13,26908,List2A,black,man,,,,null,,,,
null,are marrying each other,,html-keyboard-response,378,1276058,0.0-19.0-2.13,26908,List2A,black,man,,,,null,,,,
6645,,,survey-text,379,1282704,0.0-19.0-3.13,26908,List2A,black,man,,,,,"{""Q0"":""Fred and Kate are marrying each other""}","<img src=""stim_listA/marry4.gif""</stim_listA>",are marrying each other,
null,"<div style=""font-size:60px;"">+</div>",,html-keyboard-response,380,1283205,0.0-19.0-0.14,26908,List2A,black,man,,,,null,,,,
null,"<img src=""stim_listA/argue5.gif""</stim_listA>",,html-keyboard-response,381,1285207,0.0-19.0-1.14,26908,List2A,black,man,,,,null,,,,
null,is arguing with,,html-keyboard-response,382,1287209,0.0-19.0-2.14,26908,List2A,black,man,,,,null,,,,
6695,,,survey-text,383,1293904,0.0-19.0-3.14,26908,List2A,black,man,,,,,"{""Q0"":""Dave is arguing with Fred""}","<img src=""stim_listA/argue5.gif""</stim_listA>",is arguing with,
null,"<div style=""font-size:60px;"">+</div>",,html-keyboard-response,384,1294405,0.0-19.0-0.15,26908,List2A,black,man,,,,null,,,,
null,"<img src=""stim_listA/marry3.gif""</stim_listA>",,html-keyboard-response,385,1296407,0.0-19.0-1.15,26908,List2A,black,man,,,,null,,,,
null,is marrying,,html-keyboard-response,386,1298410,0.0-19.0-2.15,26908,List2A,black,man,,,,null,,,,
5629,,,survey-text,387,1304040,0.0-19.0-3.15,26908,List2A,black,man,,,,,"{""Q0"":""Mike is marrying Beth""}","<img src=""stim_listA/marry3.gif""</stim_listA>",is marrying,
null,"<div style=""font-size:60px;"">+</div>",,html-keyboard-response,388,1304541,0.0-19.0-0.16,26908,List2A,black,man,,,,null,,,,
null,"<img src=""stim_listA/talk8.gif""</stim_listA>",,html-keyboard-response,389,1306543,0.0-19.0-1.16,26908,List2A,black,man,,,,null,,,,
null,are talking to each other,,html-keyboard-response,390,1308544,0.0-19.0-2.16,26908,List2A,black,man,,,,null,,,,
7271,,,survey-text,391,1315816,0.0-19.0-3.16,26908,List2A,black,man,,,,,"{""Q0"":""Beth and Jane are talking to each other""}","<img src=""stim_listA/talk8.gif""</stim_listA>",are talking to each other,
null,"<div style=""font-size:60px;"">+</div>",,html-keyboard-response,392,1316317,0.0-19.0-0.17,26908,List2A,black,man,,,,null,,,,
null,"<img src=""stim_listA/shout8.gif""</stim_listA>",,html-keyboard-response,393,1318319,0.0-19.0-1.17,26908,List2A,black,man,,,,null,,,,
null,are shouting at each other,,html-keyboard-response,394,1320320,0.0-19.0-2.17,26908,List2A,black,man,,,,null,,,,
7894,,,survey-text,395,1328215,0.0-19.0-3.17,26908,List2A,black,man,,,,,"{""Q0"":""Kate and Jane are shouting at each other""}","<img src=""stim_listA/shout8.gif""</stim_listA>",are shouting at each other,
null,"<div style=""font-size:60px;"">+</div>",,html-keyboard-response,396,1328716,0.0-19.0-0.18,26908,List2A,black,man,,,,null,,,,
null,"<img src=""stim_listA/touch8.gif""</stim_listA>",,html-keyboard-response,397,1330719,0.0-19.0-1.18,26908,List2A,black,man,,,,null,,,,
null,are touching each other,,html-keyboard-response,398,1332720,0.0-19.0-2.18,26908,List2A,black,man,,,,null,,,,
7438,,,survey-text,399,1340160,0.0-19.0-3.18,26908,List2A,black,man,,,,,"{""Q0"":""Beth and Ruth are touching each other""}","<img src=""stim_listA/touch8.gif""</stim_listA>",are touching each other,
null,"<div style=""font-size:60px;"">+</div>",,html-keyboard-response,400,1340662,0.0-19.0-0.19,26908,List2A,black,man,,,,null,,,,
null,"<img src=""stim_listA/talk2.gif""</stim_listA>",,html-keyboard-response,401,1342665,0.0-19.0-1.19,26908,List2A,black,man,,,,null,,,,
null,are talking to each other,,html-keyboard-response,402,1344666,0.0-19.0-2.19,26908,List2A,black,man,,,,null,,,,
6172,,,survey-text,403,1350840,0.0-19.0-3.19,26908,List2A,black,man,,,,,"{""Q0"":""Dave and Ruth are talking to each other""}","<img src=""stim_listA/talk2.gif""</stim_listA>",are talking to each other,
1991,<p>Thank you for completing that task.</p><p>The final part of this session is a short questionnaire.</p><p>Press Continue.</p>,0,html-button-response,404,1352832,0.0-20.0,26908,List2A,black,man,,,,,,,,
17261,,,survey-text,405,1371096,0.0-21.0,26908,List2A,black,man,,,,,"{""Q0"":""36"",""Q1"":""English"",""Q2"":""English"",""Q3"":""USA"",""Q4"":""African-American"",""Q5"":""Male""}",,,demographics
67447,,,survey-likert,406,1438569,0.0-22.0,26908,List2A,black,man,,,,,"{""Q0"":4,""Q1"":3,""Q2"":4,""Q3"":5,""Q4"":5,""Q5"":3,""Q6"":3,""Q7"":5,""Q8"":4,""Q9"":4,""Q10"":2,""Q11"":2,""Q12"":2,""Q13"":2}",,,likert_race
46525,,,survey-likert,407,1485099,0.0-23.0,26908,List2A,black,man,,,,,"{""Q0"":0,""Q1"":0,""Q2"":0,""Q3"":5,""Q4"":0,""Q5"":5,""Q6"":4,""Q7"":1,""Q8"":1,""Q9"":1,""Q10"":0,""Q11"":0,""Q12"":0,""Q13"":0}",,,likert_gender
13285,,,survey-text,408,1498385,0.0-24.0,26908,List2A,black,man,,,,,"{""Q0"":""ccc""}",,,worker_id
12547,,,external-html,409,1511145,0.0-25.0,26908,List2A,black,man,debrief.html,,,,,,,
