rt,stimulus,button_pressed,trial_type,trial_index,time_elapsed,internal_node_id,subject,list,ppt_race,ppt_gender,url,first_guess,correct,key_press,responses,image_type,phrase_type,test_part
5731,Welcome to the experiment. Press Continue to begin.,0,html-button-response,0,5765,0.0-0.0,29071,List2B,white,woman,,,,,,,,
100175,,,external-html,1,107074,0.0-1.0,29071,List2B,white,woman,consent.html,,,,,,,
16018,"<p>On the next page, you will see portraits of 8 people and their names.</p><p>Your first task is to take a few minutes to memorise the names of these people.</p><p>You will have to recall their names during the rest of the experiment, so it is</p><p>essential that you try to memorise these people and their names as best as you can.</p><br><p><strong>You will then be tested on your memory of these names and portraits.</strong></p><br><p>The experiment will start after you have completed this memory test.</p><br><p>Ready?</p>",0,html-button-response,2,123103,0.0-2.0,29071,List2B,white,woman,,,,,,,,
150306,"<img src='img/portrait_matrix_list2.JPG' style='width:900px;height:500px;''></img><p>If you have memorised all the portraits and names and are ready to start, press Continue.</p><p><strong>Please note: Your memory of these faces will be tested 4 times during this experiment.</strong></p>",0,html-button-response,3,274424,0.0-3.0-0.0,29071,List2B,white,woman,,,,,,,,
3680,"<img src=""portrait/BW2.jpg""style=""width:400px;height:400px;""></img>",2,html-button-response,4,279121,0.0-3.0-1.0,29071,List2B,white,woman,,TRUE,2,,,,,
null,CORRECT,,html-keyboard-response,5,280654,0.0-3.0-2.0-0.0,29071,List2B,white,woman,,,,null,,,,
2937,"<img src=""portrait/BM2.jpg""style=""width:400px;height:400px;""></img>",5,html-button-response,6,283606,0.0-3.0-4.0,29071,List2B,white,woman,,TRUE,5,,,,,
null,CORRECT,,html-keyboard-response,7,285125,0.0-3.0-5.0-0.0,29071,List2B,white,woman,,,,null,,,,
3075,"<img src=""portrait/WM1.jpg""style=""width:400px;height:400px;""></img>",6,html-button-response,8,288211,0.0-3.0-7.0,29071,List2B,white,woman,,TRUE,6,,,,,
null,CORRECT,,html-keyboard-response,9,289723,0.0-3.0-8.0-0.0,29071,List2B,white,woman,,,,null,,,,
8794,"<img src=""portrait/BM1.jpg""style=""width:400px;height:400px;""></img>",4,html-button-response,10,298528,0.0-3.0-10.0,29071,List2B,white,woman,,TRUE,4,,,,,
null,CORRECT,,html-keyboard-response,11,300040,0.0-3.0-11.0-0.0,29071,List2B,white,woman,,,,null,,,,
8571,"<img src=""portrait/WW1.jpg""style=""width:400px;height:400px;""></img>",1,html-button-response,12,308622,0.0-3.0-13.0,29071,List2B,white,woman,,TRUE,1,,,,,
null,CORRECT,,html-keyboard-response,13,310135,0.0-3.0-14.0-0.0,29071,List2B,white,woman,,,,null,,,,
2898,"<img src=""portrait/WM2.jpg""style=""width:400px;height:400px;""></img>",7,html-button-response,14,313045,0.0-3.0-16.0,29071,List2B,white,woman,,TRUE,7,,,,,
null,CORRECT,,html-keyboard-response,15,314554,0.0-3.0-17.0-0.0,29071,List2B,white,woman,,,,null,,,,
5527,"<img src=""portrait/BW1.jpg""style=""width:400px;height:400px;""></img>",0,html-button-response,16,320098,0.0-3.0-19.0,29071,List2B,white,woman,,TRUE,0,,,,,
null,CORRECT,,html-keyboard-response,17,321608,0.0-3.0-20.0-0.0,29071,List2B,white,woman,,,,null,,,,
2707,"<img src=""portrait/WW2.jpg""style=""width:400px;height:400px;""></img>",3,html-button-response,18,324332,0.0-3.0-22.0,29071,List2B,white,woman,,TRUE,3,,,,,
null,CORRECT,,html-keyboard-response,19,325849,0.0-3.0-23.0-0.0,29071,List2B,white,woman,,,,null,,,,
2590,<p>You got 8 out of 8 right first time. Press Continue.</p>,0,html-button-response,20,328451,0.0-3.0-25.0,29071,List2B,white,woman,,,,,,,,
44758,"<p>In this experiment, you will view photographs of the people from the memory game interacting.</p><p>By using the <strong>exact</strong> phrase given <i>after</i> the photograph appears and recalling the correct names of the people in the photographs, form a sentence describing the interaction. You do not need to capitalise names.</p><p>Type your answer in the space provided. Please complete every sentence before moving onto the next trial.</p><p>You will only have a few seconds to memorise each given photograph and phrase before you can respond, so try your best to focus.</p><p>An example is given below. Press 'Continue' when you are ready.</p><img src='img/speaking_example_v2.jpg' style='width:800px;height:460px;''></img>",0,html-button-response,21,374232,0.0-4.0,29071,List2B,white,woman,,,,,,,,
4647,"<p>Before the experiment starts, you will watch two example trials. Press 'Continue'.</p>",0,html-button-response,22,379884,0.0-5.0,29071,List2B,white,woman,,,,,,,,
null,<img src='img/speaking_WW.gif'></img>,,html-keyboard-response,23,382889,0.0-6.0,29071,List2B,white,woman,,,,null,,,,
null,<p>is speaking to</p>,,html-keyboard-response,24,384903,0.0-7.0,29071,List2B,white,woman,,,,null,,,,
3819,<p><b>Answer:</b> jane is speaking to ruth</p>,0,html-button-response,25,388729,0.0-8.0,29071,List2B,white,woman,,,,,,,,
null,<img src='img/pointing_BM.gif'></img>,,html-keyboard-response,26,391737,0.0-9.0,29071,List2B,white,woman,,,,null,,,,
null,<p>are pointing at each other</p>,,html-keyboard-response,27,393740,0.0-10.0,29071,List2B,white,woman,,,,null,,,,
3870,<p><b>Answer:</b> fred and mike are pointing at each other</p>,0,html-button-response,28,397614,0.0-11.0,29071,List2B,white,woman,,,,,,,,
13425,"<p>Ready to start the experiment?</p><br><p><strong>Remember to describe the picture using a full sentence,</strong></p><p><strong>that combines the names of the people with the given phrase.</strong></p><p><strong>If you do not do this correctly you will not be paid.</strong></p><p><strong> You do not need to capitalise names or use punctuation.</strong></p><br><p>Press 'Continue' to begin.</p>",0,html-button-response,29,412053,0.0-12.0,29071,List2B,white,woman,,,,,,,,
null,"<div style=""font-size:60px;"">+</div>",,html-keyboard-response,30,413563,0.0-13.0-0.0,29071,List2B,white,woman,,,,null,,,,
null,"<img src=""stim_listB/fight6.gif""</stim_listB>",,html-keyboard-response,31,415578,0.0-13.0-1.0,29071,List2B,white,woman,,,,null,,,,
null,are fighting each other,,html-keyboard-response,32,417591,0.0-13.0-2.0,29071,List2B,white,woman,,,,null,,,,
21946,,,survey-text,33,439556,0.0-13.0-3.0,29071,List2B,white,woman,,,,,"{""Q0"":""Luke is fighting fred""}","<img src=""stim_listB/fight6.gif""</stim_listB>",are fighting each other,
null,"<div style=""font-size:60px;"">+</div>",,html-keyboard-response,34,440069,0.0-13.0-0.1,29071,List2B,white,woman,,,,null,,,,
null,"<img src=""stim_listB/marry7.gif""</stim_listB>",,html-keyboard-response,35,442083,0.0-13.0-1.1,29071,List2B,white,woman,,,,null,,,,
null,is marrying,,html-keyboard-response,36,444092,0.0-13.0-2.1,29071,List2B,white,woman,,,,null,,,,
12135,,,survey-text,37,456236,0.0-13.0-3.1,29071,List2B,white,woman,,,,,"{""Q0"":""Jane is marrying beth""}","<img src=""stim_listB/marry7.gif""</stim_listB>",is marrying,
null,"<div style=""font-size:60px;"">+</div>",,html-keyboard-response,38,456743,0.0-13.0-0.2,29071,List2B,white,woman,,,,null,,,,
null,"<img src=""stim_listB/hug2.gif""</stim_listB>",,html-keyboard-response,39,458751,0.0-13.0-1.2,29071,List2B,white,woman,,,,null,,,,
null,are hugging each other,,html-keyboard-response,40,460762,0.0-13.0-2.2,29071,List2B,white,woman,,,,null,,,,
12960,,,survey-text,41,473734,0.0-13.0-3.2,29071,List2B,white,woman,,,,,"{""Q0"":""Dave is hugging jane""}","<img src=""stim_listB/hug2.gif""</stim_listB>",are hugging each other,
null,"<div style=""font-size:60px;"">+</div>",,html-keyboard-response,42,474245,0.0-13.0-0.3,29071,List2B,white,woman,,,,null,,,,
null,"<img src=""stim_listB/talk8.gif""</stim_listB>",,html-keyboard-response,43,476261,0.0-13.0-1.3,29071,List2B,white,woman,,,,null,,,,
null,are talking to each other,,html-keyboard-response,44,478274,0.0-13.0-2.3,29071,List2B,white,woman,,,,null,,,,
10612,,,survey-text,45,488898,0.0-13.0-3.3,29071,List2B,white,woman,,,,,"{""Q0"":""Jane is talking to beth""}","<img src=""stim_listB/talk8.gif""</stim_listB>",are talking to each other,
null,"<div style=""font-size:60px;"">+</div>",,html-keyboard-response,46,489408,0.0-13.0-0.4,29071,List2B,white,woman,,,,null,,,,
null,"<img src=""stim_listB/dance8.gif""</stim_listB>",,html-keyboard-response,47,491419,0.0-13.0-1.4,29071,List2B,white,woman,,,,null,,,,
null,are dancing with each other,,html-keyboard-response,48,493432,0.0-13.0-2.4,29071,List2B,white,woman,,,,null,,,,
8706,,,survey-text,49,502151,0.0-13.0-3.4,29071,List2B,white,woman,,,,,"{""Q0"":""Jane is dancing with beth""}","<img src=""stim_listB/dance8.gif""</stim_listB>",are dancing with each other,
null,"<div style=""font-size:60px;"">+</div>",,html-keyboard-response,50,502658,0.0-13.0-0.5,29071,List2B,white,woman,,,,null,,,,
null,"<img src=""stim_listB/hug1.gif""</stim_listB>",,html-keyboard-response,51,504669,0.0-13.0-1.5,29071,List2B,white,woman,,,,null,,,,
null,is hugging,,html-keyboard-response,52,506676,0.0-13.0-2.5,29071,List2B,white,woman,,,,null,,,,
12292,,,survey-text,53,518982,0.0-13.0-3.5,29071,List2B,white,woman,,,,,"{""Q0"":""Ruth is hugging luke""}","<img src=""stim_listB/hug1.gif""</stim_listB>",is hugging,
null,"<div style=""font-size:60px;"">+</div>",,html-keyboard-response,54,519494,0.0-13.0-0.6,29071,List2B,white,woman,,,,null,,,,
null,"<img src=""stim_listB/kiss3.gif""</stim_listB>",,html-keyboard-response,55,521504,0.0-13.0-1.6,29071,List2B,white,woman,,,,null,,,,
null,is kissing,,html-keyboard-response,56,523510,0.0-13.0-2.6,29071,List2B,white,woman,,,,null,,,,
14219,,,survey-text,57,537737,0.0-13.0-3.6,29071,List2B,white,woman,,,,,"{""Q0"":""Beth is kissing feed ""}","<img src=""stim_listB/kiss3.gif""</stim_listB>",is kissing,
null,"<div style=""font-size:60px;"">+</div>",,html-keyboard-response,58,538251,0.0-13.0-0.7,29071,List2B,white,woman,,,,null,,,,
null,"<img src=""stim_listB/hug7.gif""</stim_listB>",,html-keyboard-response,59,540264,0.0-13.0-1.7,29071,List2B,white,woman,,,,null,,,,
null,is hugging,,html-keyboard-response,60,542271,0.0-13.0-2.7,29071,List2B,white,woman,,,,null,,,,
8726,,,survey-text,61,551002,0.0-13.0-3.7,29071,List2B,white,woman,,,,,"{""Q0"":""Beth is hugging ruth""}","<img src=""stim_listB/hug7.gif""</stim_listB>",is hugging,
null,"<div style=""font-size:60px;"">+</div>",,html-keyboard-response,62,551508,0.0-13.0-0.8,29071,List2B,white,woman,,,,null,,,,
null,"<img src=""stim_listB/fight7.gif""</stim_listB>",,html-keyboard-response,63,553514,0.0-13.0-1.8,29071,List2B,white,woman,,,,null,,,,
null,is fighting,,html-keyboard-response,64,555524,0.0-13.0-2.8,29071,List2B,white,woman,,,,null,,,,
11199,,,survey-text,65,566729,0.0-13.0-3.8,29071,List2B,white,woman,,,,,"{""Q0"":""Jane is fighting kate""}","<img src=""stim_listB/fight7.gif""</stim_listB>",is fighting,
null,"<div style=""font-size:60px;"">+</div>",,html-keyboard-response,66,567243,0.0-13.0-0.9,29071,List2B,white,woman,,,,null,,,,
null,"<img src=""stim_listB/shout8.gif""</stim_listB>",,html-keyboard-response,67,569252,0.0-13.0-1.9,29071,List2B,white,woman,,,,null,,,,
null,are shouting at each other,,html-keyboard-response,68,571265,0.0-13.0-2.9,29071,List2B,white,woman,,,,null,,,,
8515,,,survey-text,69,579790,0.0-13.0-3.9,29071,List2B,white,woman,,,,,"{""Q0"":""Jane is shouting at kate""}","<img src=""stim_listB/shout8.gif""</stim_listB>",are shouting at each other,
null,"<div style=""font-size:60px;"">+</div>",,html-keyboard-response,70,580306,0.0-13.0-0.10,29071,List2B,white,woman,,,,null,,,,
null,"<img src=""stim_listB/hug5.gif""</stim_listB>",,html-keyboard-response,71,582317,0.0-13.0-1.10,29071,List2B,white,woman,,,,null,,,,
null,is hugging,,html-keyboard-response,72,584326,0.0-13.0-2.10,29071,List2B,white,woman,,,,null,,,,
10577,,,survey-text,73,594911,0.0-13.0-3.10,29071,List2B,white,woman,,,,,"{""Q0"":""Fred is hugging luke""}","<img src=""stim_listB/hug5.gif""</stim_listB>",is hugging,
null,"<div style=""font-size:60px;"">+</div>",,html-keyboard-response,74,595416,0.0-13.0-0.11,29071,List2B,white,woman,,,,null,,,,
null,"<img src=""stim_listB/dance4.gif""</stim_listB>",,html-keyboard-response,75,597422,0.0-13.0-1.11,29071,List2B,white,woman,,,,null,,,,
null,are dancing with each other,,html-keyboard-response,76,599428,0.0-13.0-2.11,29071,List2B,white,woman,,,,null,,,,
11316,,,survey-text,77,610746,0.0-13.0-3.11,29071,List2B,white,woman,,,,,"{""Q0"":""Mike is dancing with beth""}","<img src=""stim_listB/dance4.gif""</stim_listB>",are dancing with each other,
null,"<div style=""font-size:60px;"">+</div>",,html-keyboard-response,78,611253,0.0-13.0-0.12,29071,List2B,white,woman,,,,null,,,,
null,"<img src=""stim_listB/kiss4.gif""</stim_listB>",,html-keyboard-response,79,613261,0.0-13.0-1.12,29071,List2B,white,woman,,,,null,,,,
null,are kissing each other,,html-keyboard-response,80,615273,0.0-13.0-2.12,29071,List2B,white,woman,,,,null,,,,
7152,,,survey-text,81,622438,0.0-13.0-3.12,29071,List2B,white,woman,,,,,"{""Q0"":""Mike is kissing kate""}","<img src=""stim_listB/kiss4.gif""</stim_listB>",are kissing each other,
null,"<div style=""font-size:60px;"">+</div>",,html-keyboard-response,82,622952,0.0-13.0-0.13,29071,List2B,white,woman,,,,null,,,,
null,"<img src=""stim_listB/talk5.gif""</stim_listB>",,html-keyboard-response,83,624962,0.0-13.0-1.13,29071,List2B,white,woman,,,,null,,,,
null,is talking to,,html-keyboard-response,84,626971,0.0-13.0-2.13,29071,List2B,white,woman,,,,null,,,,
6432,,,survey-text,85,633414,0.0-13.0-3.13,29071,List2B,white,woman,,,,,"{""Q0"":""Mike is talking to luke""}","<img src=""stim_listB/talk5.gif""</stim_listB>",is talking to,
null,"<div style=""font-size:60px;"">+</div>",,html-keyboard-response,86,633930,0.0-13.0-0.14,29071,List2B,white,woman,,,,null,,,,
null,"<img src=""stim_listB/argue7.gif""</stim_listB>",,html-keyboard-response,87,635935,0.0-13.0-1.14,29071,List2B,white,woman,,,,null,,,,
null,is arguing with,,html-keyboard-response,88,637945,0.0-13.0-2.14,29071,List2B,white,woman,,,,null,,,,
14031,,,survey-text,89,651986,0.0-13.0-3.14,29071,List2B,white,woman,,,,,"{""Q0"":""Beth is arguing with jane""}","<img src=""stim_listB/argue7.gif""</stim_listB>",is arguing with,
null,"<div style=""font-size:60px;"">+</div>",,html-keyboard-response,90,652498,0.0-13.0-0.15,29071,List2B,white,woman,,,,null,,,,
null,"<img src=""stim_listB/meet3.gif""</stim_listB>",,html-keyboard-response,91,654507,0.0-13.0-1.15,29071,List2B,white,woman,,,,null,,,,
null,is meeting,,html-keyboard-response,92,656518,0.0-13.0-2.15,29071,List2B,white,woman,,,,null,,,,
8550,,,survey-text,93,665079,0.0-13.0-3.15,29071,List2B,white,woman,,,,,"{""Q0"":""Kate is meeting jane""}","<img src=""stim_listB/meet3.gif""</stim_listB>",is meeting,
null,"<div style=""font-size:60px;"">+</div>",,html-keyboard-response,94,665589,0.0-13.0-0.16,29071,List2B,white,woman,,,,null,,,,
null,"<img src=""stim_listB/hug8.gif""</stim_listB>",,html-keyboard-response,95,667599,0.0-13.0-1.16,29071,List2B,white,woman,,,,null,,,,
null,are hugging each other,,html-keyboard-response,96,669613,0.0-13.0-2.16,29071,List2B,white,woman,,,,null,,,,
7457,,,survey-text,97,677078,0.0-13.0-3.16,29071,List2B,white,woman,,,,,"{""Q0"":""Jane is hugging kate""}","<img src=""stim_listB/hug8.gif""</stim_listB>",are hugging each other,
null,"<div style=""font-size:60px;"">+</div>",,html-keyboard-response,98,677587,0.0-13.0-0.17,29071,List2B,white,woman,,,,null,,,,
null,"<img src=""stim_listB/touch8.gif""</stim_listB>",,html-keyboard-response,99,679598,0.0-13.0-1.17,29071,List2B,white,woman,,,,null,,,,
null,are touching each other,,html-keyboard-response,100,681608,0.0-13.0-2.17,29071,List2B,white,woman,,,,null,,,,
12415,,,survey-text,101,694036,0.0-13.0-3.17,29071,List2B,white,woman,,,,,"{""Q0"":""Beth is touching ruth""}","<img src=""stim_listB/touch8.gif""</stim_listB>",are touching each other,
null,"<div style=""font-size:60px;"">+</div>",,html-keyboard-response,102,694545,0.0-13.0-0.18,29071,List2B,white,woman,,,,null,,,,
null,"<img src=""stim_listB/talk6.gif""</stim_listB>",,html-keyboard-response,103,696552,0.0-13.0-1.18,29071,List2B,white,woman,,,,null,,,,
null,are talking to each other,,html-keyboard-response,104,698562,0.0-13.0-2.18,29071,List2B,white,woman,,,,null,,,,
15405,,,survey-text,105,713980,0.0-13.0-3.18,29071,List2B,white,woman,,,,,"{""Q0"":""Dave is talking to fred""}","<img src=""stim_listB/talk6.gif""</stim_listB>",are talking to each other,
null,"<div style=""font-size:60px;"">+</div>",,html-keyboard-response,106,714487,0.0-13.0-0.19,29071,List2B,white,woman,,,,null,,,,
null,"<img src=""stim_listB/argue2.gif""</stim_listB>",,html-keyboard-response,107,716511,0.0-13.0-1.19,29071,List2B,white,woman,,,,null,,,,
null,are arguing with each other,,html-keyboard-response,108,718526,0.0-13.0-2.19,29071,List2B,white,woman,,,,null,,,,
6827,,,survey-text,109,725365,0.0-13.0-3.19,29071,List2B,white,woman,,,,,"{""Q0"":""Jane is arguing with luke""}","<img src=""stim_listB/argue2.gif""</stim_listB>",are arguing with each other,
17855,"<img src='img/portrait_matrix_list2.JPG' style='width:900px;height:500px;''></img><p>If you have memorised all the portraits and names and are ready to start, press Continue.</p><p><strong>Please note: Your memory of these faces will be tested 4 times during this experiment.</strong></p>",0,html-button-response,110,743232,0.0-14.0-0.0,29071,List2B,white,woman,,,,,,,,
2777,"<img src=""portrait/BM2.jpg""style=""width:400px;height:400px;""></img>",5,html-button-response,111,747026,0.0-14.0-1.0,29071,List2B,white,woman,,TRUE,5,,,,,
null,CORRECT,,html-keyboard-response,112,748532,0.0-14.0-2.0-0.0,29071,List2B,white,woman,,,,null,,,,
2521,"<img src=""portrait/BW2.jpg""style=""width:400px;height:400px;""></img>",2,html-button-response,113,751062,0.0-14.0-4.0,29071,List2B,white,woman,,TRUE,2,,,,,
null,CORRECT,,html-keyboard-response,114,752573,0.0-14.0-5.0-0.0,29071,List2B,white,woman,,,,null,,,,
3195,"<img src=""portrait/WW1.jpg""style=""width:400px;height:400px;""></img>",1,html-button-response,115,755780,0.0-14.0-7.0,29071,List2B,white,woman,,TRUE,1,,,,,
null,CORRECT,,html-keyboard-response,116,757293,0.0-14.0-8.0-0.0,29071,List2B,white,woman,,,,null,,,,
5423,"<img src=""portrait/WM2.jpg""style=""width:400px;height:400px;""></img>",7,html-button-response,117,762727,0.0-14.0-10.0,29071,List2B,white,woman,,TRUE,7,,,,,
null,CORRECT,,html-keyboard-response,118,764235,0.0-14.0-11.0-0.0,29071,List2B,white,woman,,,,null,,,,
2314,"<img src=""portrait/WW2.jpg""style=""width:400px;height:400px;""></img>",3,html-button-response,119,766556,0.0-14.0-13.0,29071,List2B,white,woman,,TRUE,3,,,,,
null,CORRECT,,html-keyboard-response,120,768072,0.0-14.0-14.0-0.0,29071,List2B,white,woman,,,,null,,,,
2780,"<img src=""portrait/WM1.jpg""style=""width:400px;height:400px;""></img>",6,html-button-response,121,770863,0.0-14.0-16.0,29071,List2B,white,woman,,TRUE,6,,,,,
null,CORRECT,,html-keyboard-response,122,772378,0.0-14.0-17.0-0.0,29071,List2B,white,woman,,,,null,,,,
3145,"<img src=""portrait/BM1.jpg""style=""width:400px;height:400px;""></img>",4,html-button-response,123,775535,0.0-14.0-19.0,29071,List2B,white,woman,,TRUE,4,,,,,
null,CORRECT,,html-keyboard-response,124,777048,0.0-14.0-20.0-0.0,29071,List2B,white,woman,,,,null,,,,
2621,"<img src=""portrait/BW1.jpg""style=""width:400px;height:400px;""></img>",0,html-button-response,125,779679,0.0-14.0-22.0,29071,List2B,white,woman,,TRUE,0,,,,,
null,CORRECT,,html-keyboard-response,126,781186,0.0-14.0-23.0-0.0,29071,List2B,white,woman,,,,null,,,,
2533,<p>You got 8 out of 8 right first time. Press Continue.</p>,0,html-button-response,127,783732,0.0-14.0-25.0,29071,List2B,white,woman,,,,,,,,
null,"<div style=""font-size:60px;"">+</div>",,html-keyboard-response,128,785247,0.0-15.0-0.0,29071,List2B,white,woman,,,,null,,,,
null,"<img src=""stim_listB/marry4.gif""</stim_listB>",,html-keyboard-response,129,787261,0.0-15.0-1.0,29071,List2B,white,woman,,,,null,,,,
null,are marrying each other,,html-keyboard-response,130,789271,0.0-15.0-2.0,29071,List2B,white,woman,,,,null,,,,
8105,,,survey-text,131,797386,0.0-15.0-3.0,29071,List2B,white,woman,,,,,"{""Q0"":""Fred is marrying kate""}","<img src=""stim_listB/marry4.gif""</stim_listB>",are marrying each other,
null,"<div style=""font-size:60px;"">+</div>",,html-keyboard-response,132,797913,0.0-15.0-0.1,29071,List2B,white,woman,,,,null,,,,
null,"<img src=""stim_listB/touch4.gif""</stim_listB>",,html-keyboard-response,133,799926,0.0-15.0-1.1,29071,List2B,white,woman,,,,null,,,,
null,are touching each other,,html-keyboard-response,134,801936,0.0-15.0-2.1,29071,List2B,white,woman,,,,null,,,,
15165,,,survey-text,135,817113,0.0-15.0-3.1,29071,List2B,white,woman,,,,,"{""Q0"":""Fred is touching beth""}","<img src=""stim_listB/touch4.gif""</stim_listB>",are touching each other,
null,"<div style=""font-size:60px;"">+</div>",,html-keyboard-response,136,817625,0.0-15.0-0.2,29071,List2B,white,woman,,,,null,,,,
null,"<img src=""stim_listB/shout4.gif""</stim_listB>",,html-keyboard-response,137,819630,0.0-15.0-1.2,29071,List2B,white,woman,,,,null,,,,
null,are shouting at each other,,html-keyboard-response,138,821635,0.0-15.0-2.2,29071,List2B,white,woman,,,,null,,,,
7165,,,survey-text,139,828808,0.0-15.0-3.2,29071,List2B,white,woman,,,,,"{""Q0"":""Kate is shouting at mike""}","<img src=""stim_listB/shout4.gif""</stim_listB>",are shouting at each other,
null,"<div style=""font-size:60px;"">+</div>",,html-keyboard-response,140,829312,0.0-15.0-0.3,29071,List2B,white,woman,,,,null,,,,
null,"<img src=""stim_listB/shout6.gif""</stim_listB>",,html-keyboard-response,141,831323,0.0-15.0-1.3,29071,List2B,white,woman,,,,null,,,,
null,are shouting at each other,,html-keyboard-response,142,833331,0.0-15.0-2.3,29071,List2B,white,woman,,,,null,,,,
8934,,,survey-text,143,842277,0.0-15.0-3.3,29071,List2B,white,woman,,,,,"{""Q0"":""Dave is shouting at mike""}","<img src=""stim_listB/shout6.gif""</stim_listB>",are shouting at each other,
null,"<div style=""font-size:60px;"">+</div>",,html-keyboard-response,144,842792,0.0-15.0-0.4,29071,List2B,white,woman,,,,null,,,,
null,"<img src=""stim_listB/kiss7.gif""</stim_listB>",,html-keyboard-response,145,844800,0.0-15.0-1.4,29071,List2B,white,woman,,,,null,,,,
null,is kissing,,html-keyboard-response,146,846808,0.0-15.0-2.4,29071,List2B,white,woman,,,,null,,,,
13974,,,survey-text,147,860801,0.0-15.0-3.4,29071,List2B,white,woman,,,,,"{""Q0"":""Ruth is kissing beth""}","<img src=""stim_listB/kiss7.gif""</stim_listB>",is kissing,
null,"<div style=""font-size:60px;"">+</div>",,html-keyboard-response,148,861309,0.0-15.0-0.5,29071,List2B,white,woman,,,,null,,,,
null,"<img src=""stim_listB/kiss1.gif""</stim_listB>",,html-keyboard-response,149,863318,0.0-15.0-1.5,29071,List2B,white,woman,,,,null,,,,
null,is kissing,,html-keyboard-response,150,865330,0.0-15.0-2.5,29071,List2B,white,woman,,,,null,,,,
9441,,,survey-text,151,874780,0.0-15.0-3.5,29071,List2B,white,woman,,,,,"{""Q0"":""Luke is kissing ruth""}","<img src=""stim_listB/kiss1.gif""</stim_listB>",is kissing,
null,"<div style=""font-size:60px;"">+</div>",,html-keyboard-response,152,875285,0.0-15.0-0.6,29071,List2B,white,woman,,,,null,,,,
null,"<img src=""stim_listB/meet8.gif""</stim_listB>",,html-keyboard-response,153,877291,0.0-15.0-1.6,29071,List2B,white,woman,,,,null,,,,
null,are meeting each other,,html-keyboard-response,154,879296,0.0-15.0-2.6,29071,List2B,white,woman,,,,null,,,,
6364,,,survey-text,155,885668,0.0-15.0-3.6,29071,List2B,white,woman,,,,,"{""Q0"":""Ruth is meeting beth""}","<img src=""stim_listB/meet8.gif""</stim_listB>",are meeting each other,
null,"<div style=""font-size:60px;"">+</div>",,html-keyboard-response,156,886177,0.0-15.0-0.7,29071,List2B,white,woman,,,,null,,,,
null,"<img src=""stim_listB/argue1.gif""</stim_listB>",,html-keyboard-response,157,888189,0.0-15.0-1.7,29071,List2B,white,woman,,,,null,,,,
null,is arguing with,,html-keyboard-response,158,890194,0.0-15.0-2.7,29071,List2B,white,woman,,,,null,,,,
8317,,,survey-text,159,898517,0.0-15.0-3.7,29071,List2B,white,woman,,,,,"{""Q0"":""Ruth is arguing with Dave ""}","<img src=""stim_listB/argue1.gif""</stim_listB>",is arguing with,
null,"<div style=""font-size:60px;"">+</div>",,html-keyboard-response,160,899022,0.0-15.0-0.8,29071,List2B,white,woman,,,,null,,,,
null,"<img src=""stim_listB/kiss8.gif""</stim_listB>",,html-keyboard-response,161,901026,0.0-15.0-1.8,29071,List2B,white,woman,,,,null,,,,
null,are kissing each other,,html-keyboard-response,162,903040,0.0-15.0-2.8,29071,List2B,white,woman,,,,null,,,,
9069,,,survey-text,163,912117,0.0-15.0-3.8,29071,List2B,white,woman,,,,,"{""Q0"":""Jane is kissing kate""}","<img src=""stim_listB/kiss8.gif""</stim_listB>",are kissing each other,
null,"<div style=""font-size:60px;"">+</div>",,html-keyboard-response,164,912623,0.0-15.0-0.9,29071,List2B,white,woman,,,,null,,,,
null,"<img src=""stim_listB/marry6.gif""</stim_listB>",,html-keyboard-response,165,914636,0.0-15.0-1.9,29071,List2B,white,woman,,,,null,,,,
null,are marrying each other,,html-keyboard-response,166,916650,0.0-15.0-2.9,29071,List2B,white,woman,,,,null,,,,
11666,,,survey-text,167,928327,0.0-15.0-3.9,29071,List2B,white,woman,,,,,"{""Q0"":""Luke is marrying mike ""}","<img src=""stim_listB/marry6.gif""</stim_listB>",are marrying each other,
null,"<div style=""font-size:60px;"">+</div>",,html-keyboard-response,168,928837,0.0-15.0-0.10,29071,List2B,white,woman,,,,null,,,,
null,"<img src=""stim_listB/kiss2.gif""</stim_listB>",,html-keyboard-response,169,930845,0.0-15.0-1.10,29071,List2B,white,woman,,,,null,,,,
null,are kissing each other,,html-keyboard-response,170,932852,0.0-15.0-2.10,29071,List2B,white,woman,,,,null,,,,
8737,,,survey-text,171,941598,0.0-15.0-3.10,29071,List2B,white,woman,,,,,"{""Q0"":""Dave is kissing jane""}","<img src=""stim_listB/kiss2.gif""</stim_listB>",are kissing each other,
null,"<div style=""font-size:60px;"">+</div>",,html-keyboard-response,172,942109,0.0-15.0-0.11,29071,List2B,white,woman,,,,null,,,,
null,"<img src=""stim_listB/talk7.gif""</stim_listB>",,html-keyboard-response,173,944122,0.0-15.0-1.11,29071,List2B,white,woman,,,,null,,,,
null,is talking to,,html-keyboard-response,174,946133,0.0-15.0-2.11,29071,List2B,white,woman,,,,null,,,,
8289,,,survey-text,175,954435,0.0-15.0-3.11,29071,List2B,white,woman,,,,,"{""Q0"":""Kate is talking to Ruth ""}","<img src=""stim_listB/talk7.gif""</stim_listB>",is talking to,
null,"<div style=""font-size:60px;"">+</div>",,html-keyboard-response,176,954943,0.0-15.0-0.12,29071,List2B,white,woman,,,,null,,,,
null,"<img src=""stim_listB/touch2.gif""</stim_listB>",,html-keyboard-response,177,956954,0.0-15.0-1.12,29071,List2B,white,woman,,,,null,,,,
null,are touching each other,,html-keyboard-response,178,958963,0.0-15.0-2.12,29071,List2B,white,woman,,,,null,,,,
8017,,,survey-text,179,966987,0.0-15.0-3.12,29071,List2B,white,woman,,,,,"{""Q0"":""Ruth is touching luke ""}","<img src=""stim_listB/touch2.gif""</stim_listB>",are touching each other,
null,"<div style=""font-size:60px;"">+</div>",,html-keyboard-response,180,967497,0.0-15.0-0.13,29071,List2B,white,woman,,,,null,,,,
null,"<img src=""stim_listB/talk4.gif""</stim_listB>",,html-keyboard-response,181,969513,0.0-15.0-1.13,29071,List2B,white,woman,,,,null,,,,
null,are talking to each other,,html-keyboard-response,182,971524,0.0-15.0-2.13,29071,List2B,white,woman,,,,null,,,,
9894,,,survey-text,183,981430,0.0-15.0-3.13,29071,List2B,white,woman,,,,,"{""Q0"":""Mike is talking to beth""}","<img src=""stim_listB/talk4.gif""</stim_listB>",are talking to each other,
null,"<div style=""font-size:60px;"">+</div>",,html-keyboard-response,184,981940,0.0-15.0-0.14,29071,List2B,white,woman,,,,null,,,,
null,"<img src=""stim_listB/hug3.gif""</stim_listB>",,html-keyboard-response,185,983956,0.0-15.0-1.14,29071,List2B,white,woman,,,,null,,,,
null,is hugging,,html-keyboard-response,186,985968,0.0-15.0-2.14,29071,List2B,white,woman,,,,null,,,,
8068,,,survey-text,187,994048,0.0-15.0-3.14,29071,List2B,white,woman,,,,,"{""Q0"":""Beth is hugging free ""}","<img src=""stim_listB/hug3.gif""</stim_listB>",is hugging,
null,"<div style=""font-size:60px;"">+</div>",,html-keyboard-response,188,994556,0.0-15.0-0.15,29071,List2B,white,woman,,,,null,,,,
null,"<img src=""stim_listB/shout3.gif""</stim_listB>",,html-keyboard-response,189,996563,0.0-15.0-1.15,29071,List2B,white,woman,,,,null,,,,
null,is shouting at,,html-keyboard-response,190,998579,0.0-15.0-2.15,29071,List2B,white,woman,,,,null,,,,
9784,,,survey-text,191,1008374,0.0-15.0-3.15,29071,List2B,white,woman,,,,,"{""Q0"":""Beth is shouting at Fred ""}","<img src=""stim_listB/shout3.gif""</stim_listB>",is shouting at,
null,"<div style=""font-size:60px;"">+</div>",,html-keyboard-response,192,1008890,0.0-15.0-0.16,29071,List2B,white,woman,,,,null,,,,
null,"<img src=""stim_listB/marry1.gif""</stim_listB>",,html-keyboard-response,193,1010897,0.0-15.0-1.16,29071,List2B,white,woman,,,,null,,,,
null,is marrying,,html-keyboard-response,194,1012905,0.0-15.0-2.16,29071,List2B,white,woman,,,,null,,,,
8205,,,survey-text,195,1021123,0.0-15.0-3.16,29071,List2B,white,woman,,,,,"{""Q0"":""Ruth is marrying dave""}","<img src=""stim_listB/marry1.gif""</stim_listB>",is marrying,
null,"<div style=""font-size:60px;"">+</div>",,html-keyboard-response,196,1021635,0.0-15.0-0.17,29071,List2B,white,woman,,,,null,,,,
null,"<img src=""stim_listB/marry2.gif""</stim_listB>",,html-keyboard-response,197,1023640,0.0-15.0-1.17,29071,List2B,white,woman,,,,null,,,,
null,are marrying each other,,html-keyboard-response,198,1025651,0.0-15.0-2.17,29071,List2B,white,woman,,,,null,,,,
16682,,,survey-text,199,1042344,0.0-15.0-3.17,29071,List2B,white,woman,,,,,"{""Q0"":""Jane is marrying luke ""}","<img src=""stim_listB/marry2.gif""</stim_listB>",are marrying each other,
null,"<div style=""font-size:60px;"">+</div>",,html-keyboard-response,200,1042858,0.0-15.0-0.18,29071,List2B,white,woman,,,,null,,,,
null,"<img src=""stim_listB/marry5.gif""</stim_listB>",,html-keyboard-response,201,1044866,0.0-15.0-1.18,29071,List2B,white,woman,,,,null,,,,
null,is marrying,,html-keyboard-response,202,1046875,0.0-15.0-2.18,29071,List2B,white,woman,,,,null,,,,
11939,,,survey-text,203,1058827,0.0-15.0-3.18,29071,List2B,white,woman,,,,,"{""Q0"":""Fred is marrying Dave ""}","<img src=""stim_listB/marry5.gif""</stim_listB>",is marrying,
null,"<div style=""font-size:60px;"">+</div>",,html-keyboard-response,204,1059343,0.0-15.0-0.19,29071,List2B,white,woman,,,,null,,,,
null,"<img src=""stim_listB/dance2.gif""</stim_listB>",,html-keyboard-response,205,1061350,0.0-15.0-1.19,29071,List2B,white,woman,,,,null,,,,
null,are dancing with each other,,html-keyboard-response,206,1063357,0.0-15.0-2.19,29071,List2B,white,woman,,,,null,,,,
12588,,,survey-text,207,1075961,0.0-15.0-3.19,29071,List2B,white,woman,,,,,"{""Q0"":""Dave is dancing with Ruth ""}","<img src=""stim_listB/dance2.gif""</stim_listB>",are dancing with each other,
43623,"<img src='img/portrait_matrix_list2.JPG' style='width:900px;height:500px;''></img><p>If you have memorised all the portraits and names and are ready to start, press Continue.</p><p><strong>Please note: Your memory of these faces will be tested 4 times during this experiment.</strong></p>",0,html-button-response,208,1119595,0.0-16.0-0.0,29071,List2B,white,woman,,,,,,,,
2617,"<img src=""portrait/WW2.jpg""style=""width:400px;height:400px;""></img>",3,html-button-response,209,1123227,0.0-16.0-1.0,29071,List2B,white,woman,,TRUE,3,,,,,
null,CORRECT,,html-keyboard-response,210,1124740,0.0-16.0-2.0-0.0,29071,List2B,white,woman,,,,null,,,,
2572,"<img src=""portrait/BM2.jpg""style=""width:400px;height:400px;""></img>",5,html-button-response,211,1127327,0.0-16.0-4.0,29071,List2B,white,woman,,TRUE,5,,,,,
null,CORRECT,,html-keyboard-response,212,1128834,0.0-16.0-5.0-0.0,29071,List2B,white,woman,,,,null,,,,
2596,"<img src=""portrait/WM2.jpg""style=""width:400px;height:400px;""></img>",7,html-button-response,213,1131436,0.0-16.0-7.0,29071,List2B,white,woman,,TRUE,7,,,,,
null,CORRECT,,html-keyboard-response,214,1132951,0.0-16.0-8.0-0.0,29071,List2B,white,woman,,,,null,,,,
2183,"<img src=""portrait/WW1.jpg""style=""width:400px;height:400px;""></img>",1,html-button-response,215,1135145,0.0-16.0-10.0,29071,List2B,white,woman,,TRUE,1,,,,,
null,CORRECT,,html-keyboard-response,216,1136659,0.0-16.0-11.0-0.0,29071,List2B,white,woman,,,,null,,,,
4595,"<img src=""portrait/BM1.jpg""style=""width:400px;height:400px;""></img>",4,html-button-response,217,1141268,0.0-16.0-13.0,29071,List2B,white,woman,,TRUE,4,,,,,
null,CORRECT,,html-keyboard-response,218,1142783,0.0-16.0-14.0-0.0,29071,List2B,white,woman,,,,null,,,,
3105,"<img src=""portrait/BW2.jpg""style=""width:400px;height:400px;""></img>",2,html-button-response,219,1145900,0.0-16.0-16.0,29071,List2B,white,woman,,TRUE,2,,,,,
null,CORRECT,,html-keyboard-response,220,1147408,0.0-16.0-17.0-0.0,29071,List2B,white,woman,,,,null,,,,
2737,"<img src=""portrait/WM1.jpg""style=""width:400px;height:400px;""></img>",6,html-button-response,221,1150155,0.0-16.0-19.0,29071,List2B,white,woman,,TRUE,6,,,,,
null,CORRECT,,html-keyboard-response,222,1151667,0.0-16.0-20.0-0.0,29071,List2B,white,woman,,,,null,,,,
3048,"<img src=""portrait/BW1.jpg""style=""width:400px;height:400px;""></img>",0,html-button-response,223,1154725,0.0-16.0-22.0,29071,List2B,white,woman,,TRUE,0,,,,,
null,CORRECT,,html-keyboard-response,224,1156235,0.0-16.0-23.0-0.0,29071,List2B,white,woman,,,,null,,,,
2037,<p>You got 8 out of 8 right first time. Press Continue.</p>,0,html-button-response,225,1158281,0.0-16.0-25.0,29071,List2B,white,woman,,,,,,,,
null,"<div style=""font-size:60px;"">+</div>",,html-keyboard-response,226,1159795,0.0-17.0-0.0,29071,List2B,white,woman,,,,null,,,,
null,"<img src=""stim_listB/talk1.gif""</stim_listB>",,html-keyboard-response,227,1161807,0.0-17.0-1.0,29071,List2B,white,woman,,,,null,,,,
null,is talking to,,html-keyboard-response,228,1163813,0.0-17.0-2.0,29071,List2B,white,woman,,,,null,,,,
17520,,,survey-text,229,1181342,0.0-17.0-3.0,29071,List2B,white,woman,,,,,"{""Q0"":""Jane is talking to luke ""}","<img src=""stim_listB/talk1.gif""</stim_listB>",is talking to,
null,"<div style=""font-size:60px;"">+</div>",,html-keyboard-response,230,1181855,0.0-17.0-0.1,29071,List2B,white,woman,,,,null,,,,
null,"<img src=""stim_listB/shout5.gif""</stim_listB>",,html-keyboard-response,231,1183862,0.0-17.0-1.1,29071,List2B,white,woman,,,,null,,,,
null,is shouting at,,html-keyboard-response,232,1185870,0.0-17.0-2.1,29071,List2B,white,woman,,,,null,,,,
12330,,,survey-text,233,1198210,0.0-17.0-3.1,29071,List2B,white,woman,,,,,"{""Q0"":""Fred is shouting at luke ""}","<img src=""stim_listB/shout5.gif""</stim_listB>",is shouting at,
null,"<div style=""font-size:60px;"">+</div>",,html-keyboard-response,234,1198719,0.0-17.0-0.2,29071,List2B,white,woman,,,,null,,,,
null,"<img src=""stim_listB/kiss5.gif""</stim_listB>",,html-keyboard-response,235,1200728,0.0-17.0-1.2,29071,List2B,white,woman,,,,null,,,,
null,is kissing,,html-keyboard-response,236,1202738,0.0-17.0-2.2,29071,List2B,white,woman,,,,null,,,,
7142,,,survey-text,237,1209892,0.0-17.0-3.2,29071,List2B,white,woman,,,,,"{""Q0"":""Fred is kissing luke ""}","<img src=""stim_listB/kiss5.gif""</stim_listB>",is kissing,
null,"<div style=""font-size:60px;"">+</div>",,html-keyboard-response,238,1210399,0.0-17.0-0.3,29071,List2B,white,woman,,,,null,,,,
null,"<img src=""stim_listB/fight5.gif""</stim_listB>",,html-keyboard-response,239,1212409,0.0-17.0-1.3,29071,List2B,white,woman,,,,null,,,,
null,is fighting,,html-keyboard-response,240,1214419,0.0-17.0-2.3,29071,List2B,white,woman,,,,null,,,,
13744,,,survey-text,241,1228174,0.0-17.0-3.3,29071,List2B,white,woman,,,,,"{""Q0"":""Mike is fighting dave""}","<img src=""stim_listB/fight5.gif""</stim_listB>",is fighting,
null,"<div style=""font-size:60px;"">+</div>",,html-keyboard-response,242,1228683,0.0-17.0-0.4,29071,List2B,white,woman,,,,null,,,,
null,"<img src=""stim_listB/meet6.gif""</stim_listB>",,html-keyboard-response,243,1230692,0.0-17.0-1.4,29071,List2B,white,woman,,,,null,,,,
null,are meeting each other,,html-keyboard-response,244,1232701,0.0-17.0-2.4,29071,List2B,white,woman,,,,null,,,,
7636,,,survey-text,245,1240347,0.0-17.0-3.4,29071,List2B,white,woman,,,,,"{""Q0"":""Luke is meeting Fred ""}","<img src=""stim_listB/meet6.gif""</stim_listB>",are meeting each other,
null,"<div style=""font-size:60px;"">+</div>",,html-keyboard-response,246,1240854,0.0-17.0-0.5,29071,List2B,white,woman,,,,null,,,,
null,"<img src=""stim_listB/dance3.gif""</stim_listB>",,html-keyboard-response,247,1242864,0.0-17.0-1.5,29071,List2B,white,woman,,,,null,,,,
null,is dancing with,,html-keyboard-response,248,1244875,0.0-17.0-2.5,29071,List2B,white,woman,,,,null,,,,
7160,,,survey-text,249,1252049,0.0-17.0-3.5,29071,List2B,white,woman,,,,,"{""Q0"":""Kate is dancing with fred""}","<img src=""stim_listB/dance3.gif""</stim_listB>",is dancing with,
null,"<div style=""font-size:60px;"">+</div>",,html-keyboard-response,250,1252558,0.0-17.0-0.6,29071,List2B,white,woman,,,,null,,,,
null,"<img src=""stim_listB/hug4.gif""</stim_listB>",,html-keyboard-response,251,1254570,0.0-17.0-1.6,29071,List2B,white,woman,,,,null,,,,
null,are hugging each other,,html-keyboard-response,252,1256582,0.0-17.0-2.6,29071,List2B,white,woman,,,,null,,,,
10915,,,survey-text,253,1267513,0.0-17.0-3.6,29071,List2B,white,woman,,,,,"{""Q0"":""Kate is hugging mike ""}","<img src=""stim_listB/hug4.gif""</stim_listB>",are hugging each other,
null,"<div style=""font-size:60px;"">+</div>",,html-keyboard-response,254,1268027,0.0-17.0-0.7,29071,List2B,white,woman,,,,null,,,,
null,"<img src=""stim_listB/meet1.gif""</stim_listB>",,html-keyboard-response,255,1270033,0.0-17.0-1.7,29071,List2B,white,woman,,,,null,,,,
null,is meeting,,html-keyboard-response,256,1272045,0.0-17.0-2.7,29071,List2B,white,woman,,,,null,,,,
8111,,,survey-text,257,1280170,0.0-17.0-3.7,29071,List2B,white,woman,,,,,"{""Q0"":""Jane is meeting dave""}","<img src=""stim_listB/meet1.gif""</stim_listB>",is meeting,
null,"<div style=""font-size:60px;"">+</div>",,html-keyboard-response,258,1280679,0.0-17.0-0.8,29071,List2B,white,woman,,,,null,,,,
null,"<img src=""stim_listB/fight8.gif""</stim_listB>",,html-keyboard-response,259,1282688,0.0-17.0-1.8,29071,List2B,white,woman,,,,null,,,,
null,are fighting each other,,html-keyboard-response,260,1284698,0.0-17.0-2.8,29071,List2B,white,woman,,,,null,,,,
6832,,,survey-text,261,1291545,0.0-17.0-3.8,29071,List2B,white,woman,,,,,"{""Q0"":""Ruth is fighting Beth ""}","<img src=""stim_listB/fight8.gif""</stim_listB>",are fighting each other,
null,"<div style=""font-size:60px;"">+</div>",,html-keyboard-response,262,1292054,0.0-17.0-0.9,29071,List2B,white,woman,,,,null,,,,
null,"<img src=""stim_listB/talk3.gif""</stim_listB>",,html-keyboard-response,263,1294063,0.0-17.0-1.9,29071,List2B,white,woman,,,,null,,,,
null,is talking to,,html-keyboard-response,264,1296071,0.0-17.0-2.9,29071,List2B,white,woman,,,,null,,,,
17910,,,survey-text,265,1313993,0.0-17.0-3.9,29071,List2B,white,woman,,,,,"{""Q0"":""Fred is talking to kate""}","<img src=""stim_listB/talk3.gif""</stim_listB>",is talking to,
null,"<div style=""font-size:60px;"">+</div>",,html-keyboard-response,266,1314501,0.0-17.0-0.10,29071,List2B,white,woman,,,,null,,,,
null,"<img src=""stim_listB/touch6.gif""</stim_listB>",,html-keyboard-response,267,1316512,0.0-17.0-1.10,29071,List2B,white,woman,,,,null,,,,
null,are touching each other,,html-keyboard-response,268,1318524,0.0-17.0-2.10,29071,List2B,white,woman,,,,null,,,,
6950,,,survey-text,269,1325483,0.0-17.0-3.10,29071,List2B,white,woman,,,,,"{""Q0"":""Luke is touching fred""}","<img src=""stim_listB/touch6.gif""</stim_listB>",are touching each other,
null,"<div style=""font-size:60px;"">+</div>",,html-keyboard-response,270,1325993,0.0-17.0-0.11,29071,List2B,white,woman,,,,null,,,,
null,"<img src=""stim_listB/marry8.gif""</stim_listB>",,html-keyboard-response,271,1328001,0.0-17.0-1.11,29071,List2B,white,woman,,,,null,,,,
null,are marrying each other,,html-keyboard-response,272,1330007,0.0-17.0-2.11,29071,List2B,white,woman,,,,null,,,,
7046,,,survey-text,273,1337064,0.0-17.0-3.11,29071,List2B,white,woman,,,,,"{""Q0"":""Ruth is marrying kate""}","<img src=""stim_listB/marry8.gif""</stim_listB>",are marrying each other,
null,"<div style=""font-size:60px;"">+</div>",,html-keyboard-response,274,1337573,0.0-17.0-0.12,29071,List2B,white,woman,,,,null,,,,
null,"<img src=""stim_listB/touch1.gif""</stim_listB>",,html-keyboard-response,275,1339584,0.0-17.0-1.12,29071,List2B,white,woman,,,,null,,,,
null,is touching,,html-keyboard-response,276,1341594,0.0-17.0-2.12,29071,List2B,white,woman,,,,null,,,,
15654,,,survey-text,277,1357259,0.0-17.0-3.12,29071,List2B,white,woman,,,,,"{""Q0"":""Jane is touching dave""}","<img src=""stim_listB/touch1.gif""</stim_listB>",is touching,
null,"<div style=""font-size:60px;"">+</div>",,html-keyboard-response,278,1357766,0.0-17.0-0.13,29071,List2B,white,woman,,,,null,,,,
null,"<img src=""stim_listB/fight3.gif""</stim_listB>",,html-keyboard-response,279,1359773,0.0-17.0-1.13,29071,List2B,white,woman,,,,null,,,,
null,is fighting,,html-keyboard-response,280,1361796,0.0-17.0-2.13,29071,List2B,white,woman,,,,null,,,,
12330,,,survey-text,281,1374132,0.0-17.0-3.13,29071,List2B,white,woman,,,,,"{""Q0"":""Kate is fighting mike""}","<img src=""stim_listB/fight3.gif""</stim_listB>",is fighting,
null,"<div style=""font-size:60px;"">+</div>",,html-keyboard-response,282,1374639,0.0-17.0-0.14,29071,List2B,white,woman,,,,null,,,,
null,"<img src=""stim_listB/argue8.gif""</stim_listB>",,html-keyboard-response,283,1376649,0.0-17.0-1.14,29071,List2B,white,woman,,,,null,,,,
null,are arguing with each other,,html-keyboard-response,284,1378660,0.0-17.0-2.14,29071,List2B,white,woman,,,,null,,,,
11626,,,survey-text,285,1390296,0.0-17.0-3.14,29071,List2B,white,woman,,,,,"{""Q0"":""Kate is arguing with Ruth ""}","<img src=""stim_listB/argue8.gif""</stim_listB>",are arguing with each other,
null,"<div style=""font-size:60px;"">+</div>",,html-keyboard-response,286,1390804,0.0-17.0-0.15,29071,List2B,white,woman,,,,null,,,,
null,"<img src=""stim_listB/dance6.gif""</stim_listB>",,html-keyboard-response,287,1392815,0.0-17.0-1.15,29071,List2B,white,woman,,,,null,,,,
null,are dancing with each other,,html-keyboard-response,288,1394823,0.0-17.0-2.15,29071,List2B,white,woman,,,,null,,,,
7403,,,survey-text,289,1402236,0.0-17.0-3.15,29071,List2B,white,woman,,,,,"{""Q0"":""Dave is dancing with Fred ""}","<img src=""stim_listB/dance6.gif""</stim_listB>",are dancing with each other,
null,"<div style=""font-size:60px;"">+</div>",,html-keyboard-response,290,1402747,0.0-17.0-0.16,29071,List2B,white,woman,,,,null,,,,
null,"<img src=""stim_listB/touch5.gif""</stim_listB>",,html-keyboard-response,291,1404756,0.0-17.0-1.16,29071,List2B,white,woman,,,,null,,,,
null,is touching,,html-keyboard-response,292,1406761,0.0-17.0-2.16,29071,List2B,white,woman,,,,null,,,,
16106,,,survey-text,293,1422877,0.0-17.0-3.16,29071,List2B,white,woman,,,,,"{""Q0"":""Mike is touching dave""}","<img src=""stim_listB/touch5.gif""</stim_listB>",is touching,
null,"<div style=""font-size:60px;"">+</div>",,html-keyboard-response,294,1423385,0.0-17.0-0.17,29071,List2B,white,woman,,,,null,,,,
null,"<img src=""stim_listB/shout7.gif""</stim_listB>",,html-keyboard-response,295,1425398,0.0-17.0-1.17,29071,List2B,white,woman,,,,null,,,,
null,is shouting at,,html-keyboard-response,296,1427410,0.0-17.0-2.17,29071,List2B,white,woman,,,,null,,,,
10095,,,survey-text,297,1437514,0.0-17.0-3.17,29071,List2B,white,woman,,,,,"{""Q0"":""Beth is shouting at ruth""}","<img src=""stim_listB/shout7.gif""</stim_listB>",is shouting at,
null,"<div style=""font-size:60px;"">+</div>",,html-keyboard-response,298,1438020,0.0-17.0-0.18,29071,List2B,white,woman,,,,null,,,,
null,"<img src=""stim_listB/touch7.gif""</stim_listB>",,html-keyboard-response,299,1440032,0.0-17.0-1.18,29071,List2B,white,woman,,,,null,,,,
null,is touching,,html-keyboard-response,300,1442043,0.0-17.0-2.18,29071,List2B,white,woman,,,,null,,,,
10151,,,survey-text,301,1452204,0.0-17.0-3.18,29071,List2B,white,woman,,,,,"{""Q0"":""Kate is touching Jane ""}","<img src=""stim_listB/touch7.gif""</stim_listB>",is touching,
null,"<div style=""font-size:60px;"">+</div>",,html-keyboard-response,302,1452708,0.0-17.0-0.19,29071,List2B,white,woman,,,,null,,,,
null,"<img src=""stim_listB/dance1.gif""</stim_listB>",,html-keyboard-response,303,1454712,0.0-17.0-1.19,29071,List2B,white,woman,,,,null,,,,
null,is dancing with,,html-keyboard-response,304,1456718,0.0-17.0-2.19,29071,List2B,white,woman,,,,null,,,,
12831,,,survey-text,305,1469567,0.0-17.0-3.19,29071,List2B,white,woman,,,,,"{""Q0"":""Jane is dancing with luke""}","<img src=""stim_listB/dance1.gif""</stim_listB>",is dancing with,
8629,"<img src='img/portrait_matrix_list2.JPG' style='width:900px;height:500px;''></img><p>If you have memorised all the portraits and names and are ready to start, press Continue.</p><p><strong>Please note: Your memory of these faces will be tested 4 times during this experiment.</strong></p>",0,html-button-response,306,1478207,0.0-18.0-0.0,29071,List2B,white,woman,,,,,,,,
3215,"<img src=""portrait/WM2.jpg""style=""width:400px;height:400px;""></img>",7,html-button-response,307,1482441,0.0-18.0-1.0,29071,List2B,white,woman,,TRUE,7,,,,,
null,CORRECT,,html-keyboard-response,308,1483953,0.0-18.0-2.0-0.0,29071,List2B,white,woman,,,,null,,,,
3009,"<img src=""portrait/BW2.jpg""style=""width:400px;height:400px;""></img>",2,html-button-response,309,1486975,0.0-18.0-4.0,29071,List2B,white,woman,,TRUE,2,,,,,
null,CORRECT,,html-keyboard-response,310,1488487,0.0-18.0-5.0-0.0,29071,List2B,white,woman,,,,null,,,,
2615,"<img src=""portrait/WW1.jpg""style=""width:400px;height:400px;""></img>",1,html-button-response,311,1491116,0.0-18.0-7.0,29071,List2B,white,woman,,TRUE,1,,,,,
null,CORRECT,,html-keyboard-response,312,1492624,0.0-18.0-8.0-0.0,29071,List2B,white,woman,,,,null,,,,
13150,"<img src=""portrait/BM1.jpg""style=""width:400px;height:400px;""></img>",4,html-button-response,313,1505788,0.0-18.0-10.0,29071,List2B,white,woman,,TRUE,4,,,,,
null,CORRECT,,html-keyboard-response,314,1507303,0.0-18.0-11.0-0.0,29071,List2B,white,woman,,,,null,,,,
3083,"<img src=""portrait/WM1.jpg""style=""width:400px;height:400px;""></img>",6,html-button-response,315,1510400,0.0-18.0-13.0,29071,List2B,white,woman,,TRUE,6,,,,,
null,CORRECT,,html-keyboard-response,316,1511917,0.0-18.0-14.0-0.0,29071,List2B,white,woman,,,,null,,,,
5277,"<img src=""portrait/BM2.jpg""style=""width:400px;height:400px;""></img>",5,html-button-response,317,1517211,0.0-18.0-16.0,29071,List2B,white,woman,,TRUE,5,,,,,
null,CORRECT,,html-keyboard-response,318,1518727,0.0-18.0-17.0-0.0,29071,List2B,white,woman,,,,null,,,,
1877,"<img src=""portrait/WW2.jpg""style=""width:400px;height:400px;""></img>",3,html-button-response,319,1520621,0.0-18.0-19.0,29071,List2B,white,woman,,TRUE,3,,,,,
null,CORRECT,,html-keyboard-response,320,1522135,0.0-18.0-20.0-0.0,29071,List2B,white,woman,,,,null,,,,
3821,"<img src=""portrait/BW1.jpg""style=""width:400px;height:400px;""></img>",0,html-button-response,321,1525971,0.0-18.0-22.0,29071,List2B,white,woman,,TRUE,0,,,,,
null,CORRECT,,html-keyboard-response,322,1527483,0.0-18.0-23.0-0.0,29071,List2B,white,woman,,,,null,,,,
6536,<p>You got 8 out of 8 right first time. Press Continue.</p>,0,html-button-response,323,1534032,0.0-18.0-25.0,29071,List2B,white,woman,,,,,,,,
null,"<div style=""font-size:60px;"">+</div>",,html-keyboard-response,324,1535553,0.0-19.0-0.0,29071,List2B,white,woman,,,,null,,,,
null,"<img src=""stim_listB/meet4.gif""</stim_listB>",,html-keyboard-response,325,1537559,0.0-19.0-1.0,29071,List2B,white,woman,,,,null,,,,
null,are meeting each other,,html-keyboard-response,326,1539573,0.0-19.0-2.0,29071,List2B,white,woman,,,,null,,,,
7247,,,survey-text,327,1546828,0.0-19.0-3.0,29071,List2B,white,woman,,,,,"{""Q0"":""Beth is meeting fred""}","<img src=""stim_listB/meet4.gif""</stim_listB>",are meeting each other,
null,"<div style=""font-size:60px;"">+</div>",,html-keyboard-response,328,1547332,0.0-19.0-0.1,29071,List2B,white,woman,,,,null,,,,
null,"<img src=""stim_listB/argue5.gif""</stim_listB>",,html-keyboard-response,329,1549336,0.0-19.0-1.1,29071,List2B,white,woman,,,,null,,,,
null,is arguing with,,html-keyboard-response,330,1551343,0.0-19.0-2.1,29071,List2B,white,woman,,,,null,,,,
8745,,,survey-text,331,1560097,0.0-19.0-3.1,29071,List2B,white,woman,,,,,"{""Q0"":""Fred is arguing with Dave ""}","<img src=""stim_listB/argue5.gif""</stim_listB>",is arguing with,
null,"<div style=""font-size:60px;"">+</div>",,html-keyboard-response,332,1560605,0.0-19.0-0.2,29071,List2B,white,woman,,,,null,,,,
null,"<img src=""stim_listB/talk2.gif""</stim_listB>",,html-keyboard-response,333,1562615,0.0-19.0-1.2,29071,List2B,white,woman,,,,null,,,,
null,are talking to each other,,html-keyboard-response,334,1564631,0.0-19.0-2.2,29071,List2B,white,woman,,,,null,,,,
6441,,,survey-text,335,1571088,0.0-19.0-3.2,29071,List2B,white,woman,,,,,"{""Q0"":""Dave is talking to Ruth ""}","<img src=""stim_listB/talk2.gif""</stim_listB>",are talking to each other,
null,"<div style=""font-size:60px;"">+</div>",,html-keyboard-response,336,1571601,0.0-19.0-0.3,29071,List2B,white,woman,,,,null,,,,
null,"<img src=""stim_listB/argue4.gif""</stim_listB>",,html-keyboard-response,337,1573609,0.0-19.0-1.3,29071,List2B,white,woman,,,,null,,,,
null,are arguing with each other,,html-keyboard-response,338,1575616,0.0-19.0-2.3,29071,List2B,white,woman,,,,null,,,,
11186,,,survey-text,339,1586813,0.0-19.0-3.3,29071,List2B,white,woman,,,,,"{""Q0"":""Fred is arguing with kate""}","<img src=""stim_listB/argue4.gif""</stim_listB>",are arguing with each other,
null,"<div style=""font-size:60px;"">+</div>",,html-keyboard-response,340,1587323,0.0-19.0-0.4,29071,List2B,white,woman,,,,null,,,,
null,"<img src=""stim_listB/kiss6.gif""</stim_listB>",,html-keyboard-response,341,1589340,0.0-19.0-1.4,29071,List2B,white,woman,,,,null,,,,
null,are kissing each other,,html-keyboard-response,342,1591352,0.0-19.0-2.4,29071,List2B,white,woman,,,,null,,,,
8712,,,survey-text,343,1600080,0.0-19.0-3.4,29071,List2B,white,woman,,,,,"{""Q0"":""Dave is kissing mike""}","<img src=""stim_listB/kiss6.gif""</stim_listB>",are kissing each other,
null,"<div style=""font-size:60px;"">+</div>",,html-keyboard-response,344,1600597,0.0-19.0-0.5,29071,List2B,white,woman,,,,null,,,,
null,"<img src=""stim_listB/touch3.gif""</stim_listB>",,html-keyboard-response,345,1602613,0.0-19.0-1.5,29071,List2B,white,woman,,,,null,,,,
null,is touching,,html-keyboard-response,346,1604622,0.0-19.0-2.5,29071,List2B,white,woman,,,,null,,,,
6503,,,survey-text,347,1611133,0.0-19.0-3.5,29071,List2B,white,woman,,,,,"{""Q0"":""Kate is touching mike""}","<img src=""stim_listB/touch3.gif""</stim_listB>",is touching,
null,"<div style=""font-size:60px;"">+</div>",,html-keyboard-response,348,1611644,0.0-19.0-0.6,29071,List2B,white,woman,,,,null,,,,
null,"<img src=""stim_listB/dance7.gif""</stim_listB>",,html-keyboard-response,349,1613660,0.0-19.0-1.6,29071,List2B,white,woman,,,,null,,,,
null,is dancing with,,html-keyboard-response,350,1615674,0.0-19.0-2.6,29071,List2B,white,woman,,,,null,,,,
10059,,,survey-text,351,1625741,0.0-19.0-3.6,29071,List2B,white,woman,,,,,"{""Q0"":""Kate is dancing with ruth""}","<img src=""stim_listB/dance7.gif""</stim_listB>",is dancing with,
null,"<div style=""font-size:60px;"">+</div>",,html-keyboard-response,352,1626247,0.0-19.0-0.7,29071,List2B,white,woman,,,,null,,,,
null,"<img src=""stim_listB/hug6.gif""</stim_listB>",,html-keyboard-response,353,1628255,0.0-19.0-1.7,29071,List2B,white,woman,,,,null,,,,
null,are hugging each other,,html-keyboard-response,354,1630264,0.0-19.0-2.7,29071,List2B,white,woman,,,,null,,,,
7730,,,survey-text,355,1638007,0.0-19.0-3.7,29071,List2B,white,woman,,,,,"{""Q0"":""Dave is hugging mike""}","<img src=""stim_listB/hug6.gif""</stim_listB>",are hugging each other,
null,"<div style=""font-size:60px;"">+</div>",,html-keyboard-response,356,1638516,0.0-19.0-0.8,29071,List2B,white,woman,,,,null,,,,
null,"<img src=""stim_listB/meet5.gif""</stim_listB>",,html-keyboard-response,357,1640527,0.0-19.0-1.8,29071,List2B,white,woman,,,,null,,,,
null,is meeting,,html-keyboard-response,358,1642536,0.0-19.0-2.8,29071,List2B,white,woman,,,,null,,,,
11066,,,survey-text,359,1653613,0.0-19.0-3.8,29071,List2B,white,woman,,,,,"{""Q0"":""Mike is meeting dave ""}","<img src=""stim_listB/meet5.gif""</stim_listB>",is meeting,
null,"<div style=""font-size:60px;"">+</div>",,html-keyboard-response,360,1654122,0.0-19.0-0.9,29071,List2B,white,woman,,,,null,,,,
null,"<img src=""stim_listB/meet7.gif""</stim_listB>",,html-keyboard-response,361,1656135,0.0-19.0-1.9,29071,List2B,white,woman,,,,null,,,,
null,is meeting,,html-keyboard-response,362,1658148,0.0-19.0-2.9,29071,List2B,white,woman,,,,null,,,,
6108,,,survey-text,363,1664266,0.0-19.0-3.9,29071,List2B,white,woman,,,,,"{""Q0"":""Kate is meeting Jane ""}","<img src=""stim_listB/meet7.gif""</stim_listB>",is meeting,
null,"<div style=""font-size:60px;"">+</div>",,html-keyboard-response,364,1664772,0.0-19.0-0.10,29071,List2B,white,woman,,,,null,,,,
null,"<img src=""stim_listB/argue3.gif""</stim_listB>",,html-keyboard-response,365,1666784,0.0-19.0-1.10,29071,List2B,white,woman,,,,null,,,,
null,is arguing with,,html-keyboard-response,366,1668792,0.0-19.0-2.10,29071,List2B,white,woman,,,,null,,,,
7903,,,survey-text,367,1676707,0.0-19.0-3.10,29071,List2B,white,woman,,,,,"{""Q0"":""Beth is arguing with Mike ""}","<img src=""stim_listB/argue3.gif""</stim_listB>",is arguing with,
null,"<div style=""font-size:60px;"">+</div>",,html-keyboard-response,368,1677219,0.0-19.0-0.11,29071,List2B,white,woman,,,,null,,,,
null,"<img src=""stim_listB/fight4.gif""</stim_listB>",,html-keyboard-response,369,1679230,0.0-19.0-1.11,29071,List2B,white,woman,,,,null,,,,
null,are fighting each other,,html-keyboard-response,370,1681241,0.0-19.0-2.11,29071,List2B,white,woman,,,,null,,,,
11898,,,survey-text,371,1693150,0.0-19.0-3.11,29071,List2B,white,woman,,,,,"{""Q0"":""Fred is fighting with Kate ""}","<img src=""stim_listB/fight4.gif""</stim_listB>",are fighting each other,
null,"<div style=""font-size:60px;"">+</div>",,html-keyboard-response,372,1693660,0.0-19.0-0.12,29071,List2B,white,woman,,,,null,,,,
null,"<img src=""stim_listB/fight1.gif""</stim_listB>",,html-keyboard-response,373,1695669,0.0-19.0-1.12,29071,List2B,white,woman,,,,null,,,,
null,is fighting,,html-keyboard-response,374,1697679,0.0-19.0-2.12,29071,List2B,white,woman,,,,null,,,,
10547,,,survey-text,375,1708237,0.0-19.0-3.12,29071,List2B,white,woman,,,,,"{""Q0"":""Dave is fighting Jane ""}","<img src=""stim_listB/fight1.gif""</stim_listB>",is fighting,
null,"<div style=""font-size:60px;"">+</div>",,html-keyboard-response,376,1708747,0.0-19.0-0.13,29071,List2B,white,woman,,,,null,,,,
null,"<img src=""stim_listB/meet2.gif""</stim_listB>",,html-keyboard-response,377,1710756,0.0-19.0-1.13,29071,List2B,white,woman,,,,null,,,,
null,are meeting each other,,html-keyboard-response,378,1712764,0.0-19.0-2.13,29071,List2B,white,woman,,,,null,,,,
6786,,,survey-text,379,1719563,0.0-19.0-3.13,29071,List2B,white,woman,,,,,"{""Q0"":""Ruth is meeting luke ""}","<img src=""stim_listB/meet2.gif""</stim_listB>",are meeting each other,
null,"<div style=""font-size:60px;"">+</div>",,html-keyboard-response,380,1720073,0.0-19.0-0.14,29071,List2B,white,woman,,,,null,,,,
null,"<img src=""stim_listB/shout2.gif""</stim_listB>",,html-keyboard-response,381,1722083,0.0-19.0-1.14,29071,List2B,white,woman,,,,null,,,,
null,are shouting at each other,,html-keyboard-response,382,1724093,0.0-19.0-2.14,29071,List2B,white,woman,,,,null,,,,
7155,,,survey-text,383,1731261,0.0-19.0-3.14,29071,List2B,white,woman,,,,,"{""Q0"":""Dave is shouting at Jane ""}","<img src=""stim_listB/shout2.gif""</stim_listB>",are shouting at each other,
null,"<div style=""font-size:60px;"">+</div>",,html-keyboard-response,384,1731770,0.0-19.0-0.15,29071,List2B,white,woman,,,,null,,,,
null,"<img src=""stim_listB/argue6.gif""</stim_listB>",,html-keyboard-response,385,1733778,0.0-19.0-1.15,29071,List2B,white,woman,,,,null,,,,
null,are arguing with each other,,html-keyboard-response,386,1735786,0.0-19.0-2.15,29071,List2B,white,woman,,,,null,,,,
7369,,,survey-text,387,1743174,0.0-19.0-3.15,29071,List2B,white,woman,,,,,"{""Q0"":""Luke is arguing with Mike ""}","<img src=""stim_listB/argue6.gif""</stim_listB>",are arguing with each other,
null,"<div style=""font-size:60px;"">+</div>",,html-keyboard-response,388,1743690,0.0-19.0-0.16,29071,List2B,white,woman,,,,null,,,,
null,"<img src=""stim_listB/fight2.gif""</stim_listB>",,html-keyboard-response,389,1745701,0.0-19.0-1.16,29071,List2B,white,woman,,,,null,,,,
null,are fighting each other,,html-keyboard-response,390,1747708,0.0-19.0-2.16,29071,List2B,white,woman,,,,null,,,,
8970,,,survey-text,391,1756692,0.0-19.0-3.16,29071,List2B,white,woman,,,,,"{""Q0"":""Luke is fighting Ruth ""}","<img src=""stim_listB/fight2.gif""</stim_listB>",are fighting each other,
null,"<div style=""font-size:60px;"">+</div>",,html-keyboard-response,392,1757201,0.0-19.0-0.17,29071,List2B,white,woman,,,,null,,,,
null,"<img src=""stim_listB/marry3.gif""</stim_listB>",,html-keyboard-response,393,1759229,0.0-19.0-1.17,29071,List2B,white,woman,,,,null,,,,
null,is marrying,,html-keyboard-response,394,1761239,0.0-19.0-2.17,29071,List2B,white,woman,,,,null,,,,
10818,,,survey-text,395,1772067,0.0-19.0-3.17,29071,List2B,white,woman,,,,,"{""Q0"":""Beth is marrying mike ""}","<img src=""stim_listB/marry3.gif""</stim_listB>",is marrying,
null,"<div style=""font-size:60px;"">+</div>",,html-keyboard-response,396,1772577,0.0-19.0-0.18,29071,List2B,white,woman,,,,null,,,,
null,"<img src=""stim_listB/shout1.gif""</stim_listB>",,html-keyboard-response,397,1774592,0.0-19.0-1.18,29071,List2B,white,woman,,,,null,,,,
null,is shouting at,,html-keyboard-response,398,1776604,0.0-19.0-2.18,29071,List2B,white,woman,,,,null,,,,
9352,,,survey-text,399,1785969,0.0-19.0-3.18,29071,List2B,white,woman,,,,,"{""Q0"":""Ruth is shouting at luke""}","<img src=""stim_listB/shout1.gif""</stim_listB>",is shouting at,
null,"<div style=""font-size:60px;"">+</div>",,html-keyboard-response,400,1786478,0.0-19.0-0.19,29071,List2B,white,woman,,,,null,,,,
null,"<img src=""stim_listB/dance5.gif""</stim_listB>",,html-keyboard-response,401,1788489,0.0-19.0-1.19,29071,List2B,white,woman,,,,null,,,,
null,is dancing with,,html-keyboard-response,402,1790495,0.0-19.0-2.19,29071,List2B,white,woman,,,,null,,,,
6909,,,survey-text,403,1797417,0.0-19.0-3.19,29071,List2B,white,woman,,,,,"{""Q0"":""Mike is dancing with luke""}","<img src=""stim_listB/dance5.gif""</stim_listB>",is dancing with,
3277,<p>Thank you for completing that task.</p><p>The final part of this session is a short questionnaire.</p><p>Press Continue.</p>,0,html-button-response,404,1800701,0.0-20.0,29071,List2B,white,woman,,,,,,,,
25541,,,survey-text,405,1827260,0.0-21.0,29071,List2B,white,woman,,,,,"{""Q0"":""19"",""Q1"":""English "",""Q2"":""English"",""Q3"":""England "",""Q4"":""White "",""Q5"":""Female ""}",,,demographics
95746,,,survey-likert,406,1923043,0.0-22.0,29071,List2B,white,woman,,,,,"{""Q0"":3,""Q1"":4,""Q2"":4,""Q3"":5,""Q4"":3,""Q5"":5,""Q6"":4,""Q7"":1,""Q8"":3,""Q9"":4,""Q10"":3,""Q11"":4,""Q12"":3,""Q13"":2}",,,likert_race
90918,,,survey-likert,407,2013983,0.0-23.0,29071,List2B,white,woman,,,,,"{""Q0"":5,""Q1"":5,""Q2"":4,""Q3"":5,""Q4"":6,""Q5"":3,""Q6"":4,""Q7"":3,""Q8"":5,""Q9"":5,""Q10"":4,""Q11"":4,""Q12"":4,""Q13"":4}",,,likert_gender
20528,,,survey-text,408,2034522,0.0-24.0,29071,List2B,white,woman,,,,,"{""Q0"":""ccc""}",,,worker_id
47556,,,external-html,409,2082184,0.0-25.0,29071,List2B,white,woman,debrief.html,,,,,,,
