rt,stimulus,button_pressed,trial_type,trial_index,time_elapsed,internal_node_id,subject,list,ppt_race,ppt_gender,url,first_guess,correct,key_press,responses,image_type,phrase_type,test_part
2397,Welcome to the experiment. Press Continue to begin.,0,html-button-response,0,2405,0.0-0.0,29727,List2A,black,man,,,,,,,,
15847,,,external-html,1,19401,0.0-1.0,29727,List2A,black,man,consent.html,,,,,,,
44613,"<p>On the next page, you will see portraits of 8 people and their names.</p><p>Your first task is to take a few minutes to memorise the names of these people.</p><p>You will have to recall their names during the rest of the experiment, so it is</p><p>essential that you try to memorise these people and their names as best as you can.</p><br><p><strong>You will then be tested on your memory of these names and portraits.</strong></p><br><p>The experiment will start after you have completed this memory test.</p><br><p>Ready?</p>",0,html-button-response,2,64017,0.0-2.0,29727,List2A,black,man,,,,,,,,
54642,"<img src='img/portrait_matrix_list2.JPG' style='width:900px;height:500px;''></img><p>If you have memorised all the portraits and names and are ready to start, press Continue.</p><p><strong>Please note: Your memory of these faces will be tested 4 times during this experiment.</strong></p>",0,html-button-response,3,119662,0.0-3.0-0.0,29727,List2A,black,man,,,,,,,,
11268,"<img src=""portrait/WW2.jpg""style=""width:400px;height:400px;""></img>",3,html-button-response,4,131947,0.0-3.0-1.0,29727,List2A,black,man,,TRUE,3,,,,,
null,CORRECT,,html-keyboard-response,5,133475,0.0-3.0-2.0-0.0,29727,List2A,black,man,,,,null,,,,
5853,"<img src=""portrait/WM1.jpg""style=""width:400px;height:400px;""></img>",6,html-button-response,6,139332,0.0-3.0-4.0,29727,List2A,black,man,,TRUE,6,,,,,
null,CORRECT,,html-keyboard-response,7,140839,0.0-3.0-5.0-0.0,29727,List2A,black,man,,,,null,,,,
7108,"<img src=""portrait/BM1.jpg""style=""width:400px;height:400px;""></img>",4,html-button-response,8,147949,0.0-3.0-7.0,29727,List2A,black,man,,TRUE,4,,,,,
null,CORRECT,,html-keyboard-response,9,149461,0.0-3.0-8.0-0.0,29727,List2A,black,man,,,,null,,,,
7438,"<img src=""portrait/BW1.jpg""style=""width:400px;height:400px;""></img>",0,html-button-response,10,156902,0.0-3.0-10.0,29727,List2A,black,man,,TRUE,0,,,,,
null,CORRECT,,html-keyboard-response,11,158423,0.0-3.0-11.0-0.0,29727,List2A,black,man,,,,null,,,,
6768,"<img src=""portrait/WM2.jpg""style=""width:400px;height:400px;""></img>",7,html-button-response,12,165195,0.0-3.0-13.0,29727,List2A,black,man,,TRUE,7,,,,,
null,CORRECT,,html-keyboard-response,13,166732,0.0-3.0-14.0-0.0,29727,List2A,black,man,,,,null,,,,
4228,"<img src=""portrait/BW2.jpg""style=""width:400px;height:400px;""></img>",2,html-button-response,14,170963,0.0-3.0-16.0,29727,List2A,black,man,,TRUE,2,,,,,
null,CORRECT,,html-keyboard-response,15,172475,0.0-3.0-17.0-0.0,29727,List2A,black,man,,,,null,,,,
5688,"<img src=""portrait/WW1.jpg""style=""width:400px;height:400px;""></img>",1,html-button-response,16,178165,0.0-3.0-19.0,29727,List2A,black,man,,TRUE,1,,,,,
null,CORRECT,,html-keyboard-response,17,179683,0.0-3.0-20.0-0.0,29727,List2A,black,man,,,,null,,,,
6528,"<img src=""portrait/BM2.jpg""style=""width:400px;height:400px;""></img>",5,html-button-response,18,186213,0.0-3.0-22.0,29727,List2A,black,man,,TRUE,5,,,,,
null,CORRECT,,html-keyboard-response,19,187723,0.0-3.0-23.0-0.0,29727,List2A,black,man,,,,null,,,,
2004,<p>You got 8 out of 8 right first time. Press Continue.</p>,0,html-button-response,20,189730,0.0-3.0-25.0,29727,List2A,black,man,,,,,,,,
63202,"<p>In this experiment, you will view photographs of the people from the memory game interacting.</p><p>By using the <strong>exact</strong> phrase given <i>after</i> the photograph appears and recalling the correct names of the people in the photographs, form a sentence describing the interaction. You do not need to capitalise names.</p><p>Type your answer in the space provided. Please complete every sentence before moving onto the next trial.</p><p>You will only have a few seconds to memorise each given photograph and phrase before you can respond, so try your best to focus.</p><p>An example is given below. Press 'Continue' when you are ready.</p><img src='img/speaking_example_v2.jpg' style='width:800px;height:460px;''></img>",0,html-button-response,21,253937,0.0-4.0,29727,List2A,black,man,,,,,,,,
7248,"<p>Before the experiment starts, you will watch two example trials. Press 'Continue'.</p>",0,html-button-response,22,262194,0.0-5.0,29727,List2A,black,man,,,,,,,,
null,<img src='img/speaking_WW.gif'></img>,,html-keyboard-response,23,265210,0.0-6.0,29727,List2A,black,man,,,,null,,,,
null,<p>is speaking to</p>,,html-keyboard-response,24,267217,0.0-7.0,29727,List2A,black,man,,,,null,,,,
2742,<p><b>Answer:</b> jane is speaking to ruth</p>,0,html-button-response,25,269961,0.0-8.0,29727,List2A,black,man,,,,,,,,
null,<img src='img/pointing_BM.gif'></img>,,html-keyboard-response,26,272982,0.0-9.0,29727,List2A,black,man,,,,null,,,,
null,<p>are pointing at each other</p>,,html-keyboard-response,27,274995,0.0-10.0,29727,List2A,black,man,,,,null,,,,
15890,<p><b>Answer:</b> fred and mike are pointing at each other</p>,0,html-button-response,28,290887,0.0-11.0,29727,List2A,black,man,,,,,,,,
5343,"<p>Ready to start the experiment?</p><br><p><strong>Remember to describe the picture using a full sentence,</strong></p><p><strong>that combines the names of the people with the given phrase.</strong></p><p><strong>If you do not do this correctly you will not be paid.</strong></p><p><strong> You do not need to capitalise names or use punctuation.</strong></p><br><p>Press 'Continue' to begin.</p>",0,html-button-response,29,297233,0.0-12.0,29727,List2A,black,man,,,,,,,,
null,"<div style=""font-size:60px;"">+</div>",,html-keyboard-response,30,298767,0.0-13.0-0.0,29727,List2A,black,man,,,,null,,,,
null,"<img src=""stim_listA/marry2.gif""</stim_listA>",,html-keyboard-response,31,300786,0.0-13.0-1.0,29727,List2A,black,man,,,,null,,,,
null,are marrying each other,,html-keyboard-response,32,302793,0.0-13.0-2.0,29727,List2A,black,man,,,,null,,,,
65667,,,survey-text,33,368462,0.0-13.0-3.0,29727,List2A,black,man,,,,,"{""Q0"":""Luke and Jane are marrying each other""}","<img src=""stim_listA/marry2.gif""</stim_listA>",are marrying each other,
null,"<div style=""font-size:60px;"">+</div>",,html-keyboard-response,34,368964,0.0-13.0-0.1,29727,List2A,black,man,,,,null,,,,
null,"<img src=""stim_listA/dance7.gif""</stim_listA>",,html-keyboard-response,35,370980,0.0-13.0-1.1,29727,List2A,black,man,,,,null,,,,
null,is dancing with,,html-keyboard-response,36,372986,0.0-13.0-2.1,29727,List2A,black,man,,,,null,,,,
43903,,,survey-text,37,416890,0.0-13.0-3.1,29727,List2A,black,man,,,,,"{""Q0"":""Kate is dancing with Ruth""}","<img src=""stim_listA/dance7.gif""</stim_listA>",is dancing with,
null,"<div style=""font-size:60px;"">+</div>",,html-keyboard-response,38,417404,0.0-13.0-0.2,29727,List2A,black,man,,,,null,,,,
null,"<img src=""stim_listA/meet5.gif""</stim_listA>",,html-keyboard-response,39,419415,0.0-13.0-1.2,29727,List2A,black,man,,,,null,,,,
null,is meeting,,html-keyboard-response,40,421438,0.0-13.0-2.2,29727,List2A,black,man,,,,null,,,,
52278,,,survey-text,41,473717,0.0-13.0-3.2,29727,List2A,black,man,,,,,"{""Q0"":""Mike is meeting Dave""}","<img src=""stim_listA/meet5.gif""</stim_listA>",is meeting,
null,"<div style=""font-size:60px;"">+</div>",,html-keyboard-response,42,474231,0.0-13.0-0.3,29727,List2A,black,man,,,,null,,,,
null,"<img src=""stim_listA/talk8.gif""</stim_listA>",,html-keyboard-response,43,476235,0.0-13.0-1.3,29727,List2A,black,man,,,,null,,,,
null,are talking to each other,,html-keyboard-response,44,478253,0.0-13.0-2.3,29727,List2A,black,man,,,,null,,,,
62221,,,survey-text,45,540474,0.0-13.0-3.3,29727,List2A,black,man,,,,,"{""Q0"":""Beth and Jane are talking to each other""}","<img src=""stim_listA/talk8.gif""</stim_listA>",are talking to each other,
null,"<div style=""font-size:60px;"">+</div>",,html-keyboard-response,46,540983,0.0-13.0-0.4,29727,List2A,black,man,,,,null,,,,
null,"<img src=""stim_listA/meet4.gif""</stim_listA>",,html-keyboard-response,47,542994,0.0-13.0-1.4,29727,List2A,black,man,,,,null,,,,
null,are meeting each other,,html-keyboard-response,48,545002,0.0-13.0-2.4,29727,List2A,black,man,,,,null,,,,
49299,,,survey-text,49,594303,0.0-13.0-3.4,29727,List2A,black,man,,,,,"{""Q0"":""Beth and Fred are meeting each other""}","<img src=""stim_listA/meet4.gif""</stim_listA>",are meeting each other,
null,"<div style=""font-size:60px;"">+</div>",,html-keyboard-response,50,594812,0.0-13.0-0.5,29727,List2A,black,man,,,,null,,,,
null,"<img src=""stim_listA/talk7.gif""</stim_listA>",,html-keyboard-response,51,596836,0.0-13.0-1.5,29727,List2A,black,man,,,,null,,,,
null,is talking to,,html-keyboard-response,52,598852,0.0-13.0-2.5,29727,List2A,black,man,,,,null,,,,
43376,,,survey-text,53,642229,0.0-13.0-3.5,29727,List2A,black,man,,,,,"{""Q0"":""Kate is talking to Ruth""}","<img src=""stim_listA/talk7.gif""</stim_listA>",is talking to,
null,"<div style=""font-size:60px;"">+</div>",,html-keyboard-response,54,642734,0.0-13.0-0.6,29727,List2A,black,man,,,,null,,,,
null,"<img src=""stim_listA/kiss4.gif""</stim_listA>",,html-keyboard-response,55,644738,0.0-13.0-1.6,29727,List2A,black,man,,,,null,,,,
null,are kissing each other,,html-keyboard-response,56,646754,0.0-13.0-2.6,29727,List2A,black,man,,,,null,,,,
51099,,,survey-text,57,697855,0.0-13.0-3.6,29727,List2A,black,man,,,,,"{""Q0"":""Mike and Kate are kissing each other""}","<img src=""stim_listA/kiss4.gif""</stim_listA>",are kissing each other,
null,"<div style=""font-size:60px;"">+</div>",,html-keyboard-response,58,698357,0.0-13.0-0.7,29727,List2A,black,man,,,,null,,,,
null,"<img src=""stim_listA/argue4.gif""</stim_listA>",,html-keyboard-response,59,700359,0.0-13.0-1.7,29727,List2A,black,man,,,,null,,,,
null,are arguing with each other,,html-keyboard-response,60,702361,0.0-13.0-2.7,29727,List2A,black,man,,,,null,,,,
36520,,,survey-text,61,738883,0.0-13.0-3.7,29727,List2A,black,man,,,,,"{""Q0"":""Kate and Fred are arguing with each other""}","<img src=""stim_listA/argue4.gif""</stim_listA>",are arguing with each other,
null,"<div style=""font-size:60px;"">+</div>",,html-keyboard-response,62,739386,0.0-13.0-0.8,29727,List2A,black,man,,,,null,,,,
null,"<img src=""stim_listA/fight2.gif""</stim_listA>",,html-keyboard-response,63,741388,0.0-13.0-1.8,29727,List2A,black,man,,,,null,,,,
null,are fighting each other,,html-keyboard-response,64,743391,0.0-13.0-2.8,29727,List2A,black,man,,,,null,,,,
40045,,,survey-text,65,783438,0.0-13.0-3.8,29727,List2A,black,man,,,,,"{""Q0"":""Luke and Ruth are fighting each other""}","<img src=""stim_listA/fight2.gif""</stim_listA>",are fighting each other,
null,"<div style=""font-size:60px;"">+</div>",,html-keyboard-response,66,783943,0.0-13.0-0.9,29727,List2A,black,man,,,,null,,,,
null,"<img src=""stim_listA/talk2.gif""</stim_listA>",,html-keyboard-response,67,785947,0.0-13.0-1.9,29727,List2A,black,man,,,,null,,,,
null,are talking to each other,,html-keyboard-response,68,787960,0.0-13.0-2.9,29727,List2A,black,man,,,,null,,,,
44335,,,survey-text,69,832296,0.0-13.0-3.9,29727,List2A,black,man,,,,,"{""Q0"":""Ruth and Dave are talking to each other""}","<img src=""stim_listA/talk2.gif""</stim_listA>",are talking to each other,
null,"<div style=""font-size:60px;"">+</div>",,html-keyboard-response,70,832799,0.0-13.0-0.10,29727,List2A,black,man,,,,null,,,,
null,"<img src=""stim_listA/shout5.gif""</stim_listA>",,html-keyboard-response,71,834802,0.0-13.0-1.10,29727,List2A,black,man,,,,null,,,,
null,is shouting at,,html-keyboard-response,72,836804,0.0-13.0-2.10,29727,List2A,black,man,,,,null,,,,
29529,,,survey-text,73,866335,0.0-13.0-3.10,29727,List2A,black,man,,,,,"{""Q0"":""Luke is shouting at Fred""}","<img src=""stim_listA/shout5.gif""</stim_listA>",is shouting at,
null,"<div style=""font-size:60px;"">+</div>",,html-keyboard-response,74,866836,0.0-13.0-0.11,29727,List2A,black,man,,,,null,,,,
null,"<img src=""stim_listA/marry6.gif""</stim_listA>",,html-keyboard-response,75,868839,0.0-13.0-1.11,29727,List2A,black,man,,,,null,,,,
null,are marrying each other,,html-keyboard-response,76,870846,0.0-13.0-2.11,29727,List2A,black,man,,,,null,,,,
47123,,,survey-text,77,917970,0.0-13.0-3.11,29727,List2A,black,man,,,,,"{""Q0"":""Mike and Luke are marrying each other""}","<img src=""stim_listA/marry6.gif""</stim_listA>",are marrying each other,
null,"<div style=""font-size:60px;"">+</div>",,html-keyboard-response,78,918473,0.0-13.0-0.12,29727,List2A,black,man,,,,null,,,,
null,"<img src=""stim_listA/hug5.gif""</stim_listA>",,html-keyboard-response,79,920475,0.0-13.0-1.12,29727,List2A,black,man,,,,null,,,,
null,is hugging,,html-keyboard-response,80,922477,0.0-13.0-2.12,29727,List2A,black,man,,,,null,,,,
49786,,,survey-text,81,972265,0.0-13.0-3.12,29727,List2A,black,man,,,,,"{""Q0"":""Luke is hugging Fred""}","<img src=""stim_listA/hug5.gif""</stim_listA>",is hugging,
null,"<div style=""font-size:60px;"">+</div>",,html-keyboard-response,82,972766,0.0-13.0-0.13,29727,List2A,black,man,,,,null,,,,
null,"<img src=""stim_listA/meet7.gif""</stim_listA>",,html-keyboard-response,83,974769,0.0-13.0-1.13,29727,List2A,black,man,,,,null,,,,
null,is meeting,,html-keyboard-response,84,976771,0.0-13.0-2.13,29727,List2A,black,man,,,,null,,,,
28507,,,survey-text,85,1005280,0.0-13.0-3.13,29727,List2A,black,man,,,,,"{""Q0"":""Kate is meeting Jane""}","<img src=""stim_listA/meet7.gif""</stim_listA>",is meeting,
null,"<div style=""font-size:60px;"">+</div>",,html-keyboard-response,86,1005782,0.0-13.0-0.14,29727,List2A,black,man,,,,null,,,,
null,"<img src=""stim_listA/meet6.gif""</stim_listA>",,html-keyboard-response,87,1007784,0.0-13.0-1.14,29727,List2A,black,man,,,,null,,,,
null,are meeting each other,,html-keyboard-response,88,1009786,0.0-13.0-2.14,29727,List2A,black,man,,,,null,,,,
37591,,,survey-text,89,1047379,0.0-13.0-3.14,29727,List2A,black,man,,,,,"{""Q0"":""Luke and Fred are meeting each other""}","<img src=""stim_listA/meet6.gif""</stim_listA>",are meeting each other,
null,"<div style=""font-size:60px;"">+</div>",,html-keyboard-response,90,1047881,0.0-13.0-0.15,29727,List2A,black,man,,,,null,,,,
null,"<img src=""stim_listA/dance5.gif""</stim_listA>",,html-keyboard-response,91,1049885,0.0-13.0-1.15,29727,List2A,black,man,,,,null,,,,
null,is dancing with,,html-keyboard-response,92,1051888,0.0-13.0-2.15,29727,List2A,black,man,,,,null,,,,
21219,,,survey-text,93,1073109,0.0-13.0-3.15,29727,List2A,black,man,,,,,"{""Q0"":""Mike is dancing with Luke""}","<img src=""stim_listA/dance5.gif""</stim_listA>",is dancing with,
null,"<div style=""font-size:60px;"">+</div>",,html-keyboard-response,94,1073612,0.0-13.0-0.16,29727,List2A,black,man,,,,null,,,,
null,"<img src=""stim_listA/argue5.gif""</stim_listA>",,html-keyboard-response,95,1075616,0.0-13.0-1.16,29727,List2A,black,man,,,,null,,,,
null,is arguing with,,html-keyboard-response,96,1077619,0.0-13.0-2.16,29727,List2A,black,man,,,,null,,,,
30174,,,survey-text,97,1107795,0.0-13.0-3.16,29727,List2A,black,man,,,,,"{""Q0"":""Dave is arguing with Fred""}","<img src=""stim_listA/argue5.gif""</stim_listA>",is arguing with,
null,"<div style=""font-size:60px;"">+</div>",,html-keyboard-response,98,1108298,0.0-13.0-0.17,29727,List2A,black,man,,,,null,,,,
null,"<img src=""stim_listA/touch3.gif""</stim_listA>",,html-keyboard-response,99,1110302,0.0-13.0-1.17,29727,List2A,black,man,,,,null,,,,
null,is touching,,html-keyboard-response,100,1112303,0.0-13.0-2.17,29727,List2A,black,man,,,,null,,,,
17824,,,survey-text,101,1130128,0.0-13.0-3.17,29727,List2A,black,man,,,,,"{""Q0"":""Mike is touching Kate""}","<img src=""stim_listA/touch3.gif""</stim_listA>",is touching,
null,"<div style=""font-size:60px;"">+</div>",,html-keyboard-response,102,1130630,0.0-13.0-0.18,29727,List2A,black,man,,,,null,,,,
null,"<img src=""stim_listA/touch8.gif""</stim_listA>",,html-keyboard-response,103,1132635,0.0-13.0-1.18,29727,List2A,black,man,,,,null,,,,
null,are touching each other,,html-keyboard-response,104,1134636,0.0-13.0-2.18,29727,List2A,black,man,,,,null,,,,
56830,,,survey-text,105,1191468,0.0-13.0-3.18,29727,List2A,black,man,,,,,"{""Q0"":""Beth and Ruth are touching each other""}","<img src=""stim_listA/touch8.gif""</stim_listA>",are touching each other,
null,"<div style=""font-size:60px;"">+</div>",,html-keyboard-response,106,1191971,0.0-13.0-0.19,29727,List2A,black,man,,,,null,,,,
null,"<img src=""stim_listA/fight4.gif""</stim_listA>",,html-keyboard-response,107,1193974,0.0-13.0-1.19,29727,List2A,black,man,,,,null,,,,
null,are fighting each other,,html-keyboard-response,108,1195977,0.0-13.0-2.19,29727,List2A,black,man,,,,null,,,,
41580,,,survey-text,109,1237559,0.0-13.0-3.19,29727,List2A,black,man,,,,,"{""Q0"":""Beth and Fred are fighting each other""}","<img src=""stim_listA/fight4.gif""</stim_listA>",are fighting each other,
19984,"<img src='img/portrait_matrix_list2.JPG' style='width:900px;height:500px;''></img><p>If you have memorised all the portraits and names and are ready to start, press Continue.</p><p><strong>Please note: Your memory of these faces will be tested 4 times during this experiment.</strong></p>",0,html-button-response,110,1257544,0.0-14.0-0.0,29727,List2A,black,man,,,,,,,,
6253,"<img src=""portrait/BM1.jpg""style=""width:400px;height:400px;""></img>",4,html-button-response,111,1264802,0.0-14.0-1.0,29727,List2A,black,man,,TRUE,4,,,,,
null,CORRECT,,html-keyboard-response,112,1266306,0.0-14.0-2.0-0.0,29727,List2A,black,man,,,,null,,,,
3369,"<img src=""portrait/BM2.jpg""style=""width:400px;height:400px;""></img>",5,html-button-response,113,1269677,0.0-14.0-4.0,29727,List2A,black,man,,TRUE,5,,,,,
null,CORRECT,,html-keyboard-response,114,1271181,0.0-14.0-5.0-0.0,29727,List2A,black,man,,,,null,,,,
3921,"<img src=""portrait/WM2.jpg""style=""width:400px;height:400px;""></img>",7,html-button-response,115,1275104,0.0-14.0-7.0,29727,List2A,black,man,,TRUE,7,,,,,
null,CORRECT,,html-keyboard-response,116,1276607,0.0-14.0-8.0-0.0,29727,List2A,black,man,,,,null,,,,
48917,"<img src=""portrait/WM1.jpg""style=""width:400px;height:400px;""></img>",6,html-button-response,117,1325527,0.0-14.0-10.0,29727,List2A,black,man,,TRUE,6,,,,,
null,CORRECT,,html-keyboard-response,118,1327029,0.0-14.0-11.0-0.0,29727,List2A,black,man,,,,null,,,,
5216,"<img src=""portrait/WW1.jpg""style=""width:400px;height:400px;""></img>",1,html-button-response,119,1332248,0.0-14.0-13.0,29727,List2A,black,man,,TRUE,1,,,,,
null,CORRECT,,html-keyboard-response,120,1333752,0.0-14.0-14.0-0.0,29727,List2A,black,man,,,,null,,,,
2311,"<img src=""portrait/BW2.jpg""style=""width:400px;height:400px;""></img>",2,html-button-response,121,1336065,0.0-14.0-16.0,29727,List2A,black,man,,TRUE,2,,,,,
null,CORRECT,,html-keyboard-response,122,1337569,0.0-14.0-17.0-0.0,29727,List2A,black,man,,,,null,,,,
4520,"<img src=""portrait/BW1.jpg""style=""width:400px;height:400px;""></img>",0,html-button-response,123,1342091,0.0-14.0-19.0,29727,List2A,black,man,,TRUE,0,,,,,
null,CORRECT,,html-keyboard-response,124,1343594,0.0-14.0-20.0-0.0,29727,List2A,black,man,,,,null,,,,
2898,"<img src=""portrait/WW2.jpg""style=""width:400px;height:400px;""></img>",3,html-button-response,125,1346494,0.0-14.0-22.0,29727,List2A,black,man,,TRUE,3,,,,,
null,CORRECT,,html-keyboard-response,126,1347998,0.0-14.0-23.0-0.0,29727,List2A,black,man,,,,null,,,,
7944,<p>You got 8 out of 8 right first time. Press Continue.</p>,0,html-button-response,127,1355943,0.0-14.0-25.0,29727,List2A,black,man,,,,,,,,
null,"<div style=""font-size:60px;"">+</div>",,html-keyboard-response,128,1357447,0.0-15.0-0.0,29727,List2A,black,man,,,,null,,,,
null,"<img src=""stim_listA/hug7.gif""</stim_listA>",,html-keyboard-response,129,1359451,0.0-15.0-1.0,29727,List2A,black,man,,,,null,,,,
null,is hugging,,html-keyboard-response,130,1361453,0.0-15.0-2.0,29727,List2A,black,man,,,,null,,,,
37559,,,survey-text,131,1399012,0.0-15.0-3.0,29727,List2A,black,man,,,,,"{""Q0"":""Beth is hugging Ruth""}","<img src=""stim_listA/hug7.gif""</stim_listA>",is hugging,
null,"<div style=""font-size:60px;"">+</div>",,html-keyboard-response,132,1399517,0.0-15.0-0.1,29727,List2A,black,man,,,,null,,,,
null,"<img src=""stim_listA/talk3.gif""</stim_listA>",,html-keyboard-response,133,1401519,0.0-15.0-1.1,29727,List2A,black,man,,,,null,,,,
null,is talking to,,html-keyboard-response,134,1403521,0.0-15.0-2.1,29727,List2A,black,man,,,,null,,,,
31079,,,survey-text,135,1434602,0.0-15.0-3.1,29727,List2A,black,man,,,,,"{""Q0"":""Fred is talking to Kate""}","<img src=""stim_listA/talk3.gif""</stim_listA>",is talking to,
null,"<div style=""font-size:60px;"">+</div>",,html-keyboard-response,136,1435104,0.0-15.0-0.2,29727,List2A,black,man,,,,null,,,,
null,"<img src=""stim_listA/dance6.gif""</stim_listA>",,html-keyboard-response,137,1437107,0.0-15.0-1.2,29727,List2A,black,man,,,,null,,,,
null,are dancing with each other,,html-keyboard-response,138,1439109,0.0-15.0-2.2,29727,List2A,black,man,,,,null,,,,
15713,,,survey-text,139,1454824,0.0-15.0-3.2,29727,List2A,black,man,,,,,"{""Q0"":""Fred and Dave are dancing with each other""}","<img src=""stim_listA/dance6.gif""</stim_listA>",are dancing with each other,
null,"<div style=""font-size:60px;"">+</div>",,html-keyboard-response,140,1455326,0.0-15.0-0.3,29727,List2A,black,man,,,,null,,,,
null,"<img src=""stim_listA/dance3.gif""</stim_listA>",,html-keyboard-response,141,1457330,0.0-15.0-1.3,29727,List2A,black,man,,,,null,,,,
null,is dancing with,,html-keyboard-response,142,1459332,0.0-15.0-2.3,29727,List2A,black,man,,,,null,,,,
11434,,,survey-text,143,1470768,0.0-15.0-3.3,29727,List2A,black,man,,,,,"{""Q0"":""Fred is dancing with Kate""}","<img src=""stim_listA/dance3.gif""</stim_listA>",is dancing with,
null,"<div style=""font-size:60px;"">+</div>",,html-keyboard-response,144,1471270,0.0-15.0-0.4,29727,List2A,black,man,,,,null,,,,
null,"<img src=""stim_listA/fight8.gif""</stim_listA>",,html-keyboard-response,145,1473272,0.0-15.0-1.4,29727,List2A,black,man,,,,null,,,,
null,are fighting each other,,html-keyboard-response,146,1475275,0.0-15.0-2.4,29727,List2A,black,man,,,,null,,,,
36570,,,survey-text,147,1511849,0.0-15.0-3.4,29727,List2A,black,man,,,,,"{""Q0"":""Beth and Ruth are fighting each other""}","<img src=""stim_listA/fight8.gif""</stim_listA>",are fighting each other,
null,"<div style=""font-size:60px;"">+</div>",,html-keyboard-response,148,1512351,0.0-15.0-0.5,29727,List2A,black,man,,,,null,,,,
null,"<img src=""stim_listA/touch6.gif""</stim_listA>",,html-keyboard-response,149,1514354,0.0-15.0-1.5,29727,List2A,black,man,,,,null,,,,
null,are touching each other,,html-keyboard-response,150,1516369,0.0-15.0-2.5,29727,List2A,black,man,,,,null,,,,
54452,,,survey-text,151,1570822,0.0-15.0-3.5,29727,List2A,black,man,,,,,"{""Q0"":""Fred and Luke are touching each other""}","<img src=""stim_listA/touch6.gif""</stim_listA>",are touching each other,
null,"<div style=""font-size:60px;"">+</div>",,html-keyboard-response,152,1571324,0.0-15.0-0.6,29727,List2A,black,man,,,,null,,,,
null,"<img src=""stim_listA/fight5.gif""</stim_listA>",,html-keyboard-response,153,1573329,0.0-15.0-1.6,29727,List2A,black,man,,,,null,,,,
null,is fighting,,html-keyboard-response,154,1575332,0.0-15.0-2.6,29727,List2A,black,man,,,,null,,,,
12731,,,survey-text,155,1588065,0.0-15.0-3.6,29727,List2A,black,man,,,,,"{""Q0"":""Mike is fighting Dave""}","<img src=""stim_listA/fight5.gif""</stim_listA>",is fighting,
null,"<div style=""font-size:60px;"">+</div>",,html-keyboard-response,156,1588569,0.0-15.0-0.7,29727,List2A,black,man,,,,null,,,,
null,"<img src=""stim_listA/marry1.gif""</stim_listA>",,html-keyboard-response,157,1590571,0.0-15.0-1.7,29727,List2A,black,man,,,,null,,,,
null,is marrying,,html-keyboard-response,158,1592586,0.0-15.0-2.7,29727,List2A,black,man,,,,null,,,,
11451,,,survey-text,159,1604038,0.0-15.0-3.7,29727,List2A,black,man,,,,,"{""Q0"":""Dave is marrying Ruth""}","<img src=""stim_listA/marry1.gif""</stim_listA>",is marrying,
null,"<div style=""font-size:60px;"">+</div>",,html-keyboard-response,160,1604540,0.0-15.0-0.8,29727,List2A,black,man,,,,null,,,,
null,"<img src=""stim_listA/shout7.gif""</stim_listA>",,html-keyboard-response,161,1606544,0.0-15.0-1.8,29727,List2A,black,man,,,,null,,,,
null,is shouting at,,html-keyboard-response,162,1608547,0.0-15.0-2.8,29727,List2A,black,man,,,,null,,,,
13663,,,survey-text,163,1622212,0.0-15.0-3.8,29727,List2A,black,man,,,,,"{""Q0"":""Ruth is shouting at Beth""}","<img src=""stim_listA/shout7.gif""</stim_listA>",is shouting at,
null,"<div style=""font-size:60px;"">+</div>",,html-keyboard-response,164,1622714,0.0-15.0-0.9,29727,List2A,black,man,,,,null,,,,
null,"<img src=""stim_listA/talk5.gif""</stim_listA>",,html-keyboard-response,165,1624716,0.0-15.0-1.9,29727,List2A,black,man,,,,null,,,,
null,is talking to,,html-keyboard-response,166,1626719,0.0-15.0-2.9,29727,List2A,black,man,,,,null,,,,
6021,,,survey-text,167,1632742,0.0-15.0-3.9,29727,List2A,black,man,,,,,"{""Q0"":""Luke is talking to Mike""}","<img src=""stim_listA/talk5.gif""</stim_listA>",is talking to,
null,"<div style=""font-size:60px;"">+</div>",,html-keyboard-response,168,1633244,0.0-15.0-0.10,29727,List2A,black,man,,,,null,,,,
null,"<img src=""stim_listA/meet1.gif""</stim_listA>",,html-keyboard-response,169,1635246,0.0-15.0-1.10,29727,List2A,black,man,,,,null,,,,
null,is meeting,,html-keyboard-response,170,1637249,0.0-15.0-2.10,29727,List2A,black,man,,,,null,,,,
7659,,,survey-text,171,1644910,0.0-15.0-3.10,29727,List2A,black,man,,,,,"{""Q0"":""Dave is meeting Jane""}","<img src=""stim_listA/meet1.gif""</stim_listA>",is meeting,
null,"<div style=""font-size:60px;"">+</div>",,html-keyboard-response,172,1645412,0.0-15.0-0.11,29727,List2A,black,man,,,,null,,,,
null,"<img src=""stim_listA/meet8.gif""</stim_listA>",,html-keyboard-response,173,1647415,0.0-15.0-1.11,29727,List2A,black,man,,,,null,,,,
null,are meeting each other,,html-keyboard-response,174,1649417,0.0-15.0-2.11,29727,List2A,black,man,,,,null,,,,
9723,,,survey-text,175,1659142,0.0-15.0-3.11,29727,List2A,black,man,,,,,"{""Q0"":""Ruth and Beth are meeting each other""}","<img src=""stim_listA/meet8.gif""</stim_listA>",are meeting each other,
null,"<div style=""font-size:60px;"">+</div>",,html-keyboard-response,176,1659644,0.0-15.0-0.12,29727,List2A,black,man,,,,null,,,,
null,"<img src=""stim_listA/kiss7.gif""</stim_listA>",,html-keyboard-response,177,1661646,0.0-15.0-1.12,29727,List2A,black,man,,,,null,,,,
null,is kissing,,html-keyboard-response,178,1663648,0.0-15.0-2.12,29727,List2A,black,man,,,,null,,,,
9658,,,survey-text,179,1673308,0.0-15.0-3.12,29727,List2A,black,man,,,,,"{""Q0"":""Ruth is kissing Beth""}","<img src=""stim_listA/kiss7.gif""</stim_listA>",is kissing,
null,"<div style=""font-size:60px;"">+</div>",,html-keyboard-response,180,1673809,0.0-15.0-0.13,29727,List2A,black,man,,,,null,,,,
null,"<img src=""stim_listA/argue3.gif""</stim_listA>",,html-keyboard-response,181,1675813,0.0-15.0-1.13,29727,List2A,black,man,,,,null,,,,
null,is arguing with,,html-keyboard-response,182,1677816,0.0-15.0-2.13,29727,List2A,black,man,,,,null,,,,
7490,,,survey-text,183,1685308,0.0-15.0-3.13,29727,List2A,black,man,,,,,"{""Q0"":""Mike is arguing with Beth""}","<img src=""stim_listA/argue3.gif""</stim_listA>",is arguing with,
null,"<div style=""font-size:60px;"">+</div>",,html-keyboard-response,184,1685811,0.0-15.0-0.14,29727,List2A,black,man,,,,null,,,,
null,"<img src=""stim_listA/hug6.gif""</stim_listA>",,html-keyboard-response,185,1687815,0.0-15.0-1.14,29727,List2A,black,man,,,,null,,,,
null,are hugging each other,,html-keyboard-response,186,1689818,0.0-15.0-2.14,29727,List2A,black,man,,,,null,,,,
9291,,,survey-text,187,1699111,0.0-15.0-3.14,29727,List2A,black,man,,,,,"{""Q0"":""Mike and Dave are hugging each other""}","<img src=""stim_listA/hug6.gif""</stim_listA>",are hugging each other,
null,"<div style=""font-size:60px;"">+</div>",,html-keyboard-response,188,1699613,0.0-15.0-0.15,29727,List2A,black,man,,,,null,,,,
null,"<img src=""stim_listA/hug1.gif""</stim_listA>",,html-keyboard-response,189,1701617,0.0-15.0-1.15,29727,List2A,black,man,,,,null,,,,
null,is hugging,,html-keyboard-response,190,1703621,0.0-15.0-2.15,29727,List2A,black,man,,,,null,,,,
7653,,,survey-text,191,1711275,0.0-15.0-3.15,29727,List2A,black,man,,,,,"{""Q0"":""Luke is hugging Ruth""}","<img src=""stim_listA/hug1.gif""</stim_listA>",is hugging,
null,"<div style=""font-size:60px;"">+</div>",,html-keyboard-response,192,1711778,0.0-15.0-0.16,29727,List2A,black,man,,,,null,,,,
null,"<img src=""stim_listA/marry7.gif""</stim_listA>",,html-keyboard-response,193,1713782,0.0-15.0-1.16,29727,List2A,black,man,,,,null,,,,
null,is marrying,,html-keyboard-response,194,1715783,0.0-15.0-2.16,29727,List2A,black,man,,,,null,,,,
7835,,,survey-text,195,1723619,0.0-15.0-3.16,29727,List2A,black,man,,,,,"{""Q0"":""Beth is marrying Jane""}","<img src=""stim_listA/marry7.gif""</stim_listA>",is marrying,
null,"<div style=""font-size:60px;"">+</div>",,html-keyboard-response,196,1724122,0.0-15.0-0.17,29727,List2A,black,man,,,,null,,,,
null,"<img src=""stim_listA/talk1.gif""</stim_listA>",,html-keyboard-response,197,1726126,0.0-15.0-1.17,29727,List2A,black,man,,,,null,,,,
null,is talking to,,html-keyboard-response,198,1728127,0.0-15.0-2.17,29727,List2A,black,man,,,,null,,,,
6848,,,survey-text,199,1734976,0.0-15.0-3.17,29727,List2A,black,man,,,,,"{""Q0"":""Luke is talking to Jane""}","<img src=""stim_listA/talk1.gif""</stim_listA>",is talking to,
null,"<div style=""font-size:60px;"">+</div>",,html-keyboard-response,200,1735479,0.0-15.0-0.18,29727,List2A,black,man,,,,null,,,,
null,"<img src=""stim_listA/shout3.gif""</stim_listA>",,html-keyboard-response,201,1737482,0.0-15.0-1.18,29727,List2A,black,man,,,,null,,,,
null,is shouting at,,html-keyboard-response,202,1739484,0.0-15.0-2.18,29727,List2A,black,man,,,,null,,,,
10158,,,survey-text,203,1749644,0.0-15.0-3.18,29727,List2A,black,man,,,,,"{""Q0"":""Fred is shouting at Beth""}","<img src=""stim_listA/shout3.gif""</stim_listA>",is shouting at,
null,"<div style=""font-size:60px;"">+</div>",,html-keyboard-response,204,1750146,0.0-15.0-0.19,29727,List2A,black,man,,,,null,,,,
null,"<img src=""stim_listA/argue6.gif""</stim_listA>",,html-keyboard-response,205,1752148,0.0-15.0-1.19,29727,List2A,black,man,,,,null,,,,
null,are arguing with each other,,html-keyboard-response,206,1754151,0.0-15.0-2.19,29727,List2A,black,man,,,,null,,,,
11799,,,survey-text,207,1765952,0.0-15.0-3.19,29727,List2A,black,man,,,,,"{""Q0"":""Luke and Mike are arguing with each other""}","<img src=""stim_listA/argue6.gif""</stim_listA>",are arguing with each other,
4398,"<img src='img/portrait_matrix_list2.JPG' style='width:900px;height:500px;''></img><p>If you have memorised all the portraits and names and are ready to start, press Continue.</p><p><strong>Please note: Your memory of these faces will be tested 4 times during this experiment.</strong></p>",0,html-button-response,208,1770352,0.0-16.0-0.0,29727,List2A,black,man,,,,,,,,
1886,"<img src=""portrait/BW2.jpg""style=""width:400px;height:400px;""></img>",2,html-button-response,209,1773243,0.0-16.0-1.0,29727,List2A,black,man,,TRUE,2,,,,,
null,CORRECT,,html-keyboard-response,210,1774747,0.0-16.0-2.0-0.0,29727,List2A,black,man,,,,null,,,,
2548,"<img src=""portrait/WW1.jpg""style=""width:400px;height:400px;""></img>",1,html-button-response,211,1777298,0.0-16.0-4.0,29727,List2A,black,man,,TRUE,1,,,,,
null,CORRECT,,html-keyboard-response,212,1778802,0.0-16.0-5.0-0.0,29727,List2A,black,man,,,,null,,,,
2126,"<img src=""portrait/BM2.jpg""style=""width:400px;height:400px;""></img>",5,html-button-response,213,1780930,0.0-16.0-7.0,29727,List2A,black,man,,TRUE,5,,,,,
null,CORRECT,,html-keyboard-response,214,1782434,0.0-16.0-8.0-0.0,29727,List2A,black,man,,,,null,,,,
2075,"<img src=""portrait/BW1.jpg""style=""width:400px;height:400px;""></img>",0,html-button-response,215,1784512,0.0-16.0-10.0,29727,List2A,black,man,,TRUE,0,,,,,
null,CORRECT,,html-keyboard-response,216,1786016,0.0-16.0-11.0-0.0,29727,List2A,black,man,,,,null,,,,
1512,"<img src=""portrait/BM1.jpg""style=""width:400px;height:400px;""></img>",4,html-button-response,217,1787531,0.0-16.0-13.0,29727,List2A,black,man,,TRUE,4,,,,,
null,CORRECT,,html-keyboard-response,218,1789034,0.0-16.0-14.0-0.0,29727,List2A,black,man,,,,null,,,,
1551,"<img src=""portrait/WW2.jpg""style=""width:400px;height:400px;""></img>",3,html-button-response,219,1790587,0.0-16.0-16.0,29727,List2A,black,man,,TRUE,3,,,,,
null,CORRECT,,html-keyboard-response,220,1792092,0.0-16.0-17.0-0.0,29727,List2A,black,man,,,,null,,,,
1931,"<img src=""portrait/WM2.jpg""style=""width:400px;height:400px;""></img>",7,html-button-response,221,1794027,0.0-16.0-19.0,29727,List2A,black,man,,TRUE,7,,,,,
null,CORRECT,,html-keyboard-response,222,1795531,0.0-16.0-20.0-0.0,29727,List2A,black,man,,,,null,,,,
1473,"<img src=""portrait/WM1.jpg""style=""width:400px;height:400px;""></img>",6,html-button-response,223,1797007,0.0-16.0-22.0,29727,List2A,black,man,,TRUE,6,,,,,
null,CORRECT,,html-keyboard-response,224,1798511,0.0-16.0-23.0-0.0,29727,List2A,black,man,,,,null,,,,
1946,<p>You got 8 out of 8 right first time. Press Continue.</p>,0,html-button-response,225,1800460,0.0-16.0-25.0,29727,List2A,black,man,,,,,,,,
null,"<div style=""font-size:60px;"">+</div>",,html-keyboard-response,226,1801965,0.0-17.0-0.0,29727,List2A,black,man,,,,null,,,,
null,"<img src=""stim_listA/shout8.gif""</stim_listA>",,html-keyboard-response,227,1803968,0.0-17.0-1.0,29727,List2A,black,man,,,,null,,,,
null,are shouting at each other,,html-keyboard-response,228,1805970,0.0-17.0-2.0,29727,List2A,black,man,,,,null,,,,
11210,,,survey-text,229,1817180,0.0-17.0-3.0,29727,List2A,black,man,,,,,"{""Q0"":""Kate and Jane are shouting at each other""}","<img src=""stim_listA/shout8.gif""</stim_listA>",are shouting at each other,
null,"<div style=""font-size:60px;"">+</div>",,html-keyboard-response,230,1817683,0.0-17.0-0.1,29727,List2A,black,man,,,,null,,,,
null,"<img src=""stim_listA/dance2.gif""</stim_listA>",,html-keyboard-response,231,1819692,0.0-17.0-1.1,29727,List2A,black,man,,,,null,,,,
null,are dancing with each other,,html-keyboard-response,232,1821695,0.0-17.0-2.1,29727,List2A,black,man,,,,null,,,,
9128,,,survey-text,233,1830825,0.0-17.0-3.1,29727,List2A,black,man,,,,,"{""Q0"":""Dave and Ruth are dancing with each other""}","<img src=""stim_listA/dance2.gif""</stim_listA>",are dancing with each other,
null,"<div style=""font-size:60px;"">+</div>",,html-keyboard-response,234,1831327,0.0-17.0-0.2,29727,List2A,black,man,,,,null,,,,
null,"<img src=""stim_listA/talk6.gif""</stim_listA>",,html-keyboard-response,235,1833331,0.0-17.0-1.2,29727,List2A,black,man,,,,null,,,,
null,are talking to each other,,html-keyboard-response,236,1835332,0.0-17.0-2.2,29727,List2A,black,man,,,,null,,,,
10364,,,survey-text,237,1845698,0.0-17.0-3.2,29727,List2A,black,man,,,,,"{""Q0"":""Fred and Dave are talking to each other""}","<img src=""stim_listA/talk6.gif""</stim_listA>",are talking to each other,
null,"<div style=""font-size:60px;"">+</div>",,html-keyboard-response,238,1846200,0.0-17.0-0.3,29727,List2A,black,man,,,,null,,,,
null,"<img src=""stim_listA/marry4.gif""</stim_listA>",,html-keyboard-response,239,1848205,0.0-17.0-1.3,29727,List2A,black,man,,,,null,,,,
null,are marrying each other,,html-keyboard-response,240,1850206,0.0-17.0-2.3,29727,List2A,black,man,,,,null,,,,
8478,,,survey-text,241,1858685,0.0-17.0-3.3,29727,List2A,black,man,,,,,"{""Q0"":""Kate and Fred are marrying each other""}","<img src=""stim_listA/marry4.gif""</stim_listA>",are marrying each other,
null,"<div style=""font-size:60px;"">+</div>",,html-keyboard-response,242,1859187,0.0-17.0-0.4,29727,List2A,black,man,,,,null,,,,
null,"<img src=""stim_listA/kiss1.gif""</stim_listA>",,html-keyboard-response,243,1861190,0.0-17.0-1.4,29727,List2A,black,man,,,,null,,,,
null,is kissing,,html-keyboard-response,244,1863192,0.0-17.0-2.4,29727,List2A,black,man,,,,null,,,,
6437,,,survey-text,245,1869631,0.0-17.0-3.4,29727,List2A,black,man,,,,,"{""Q0"":""Luke is kissing Ruth""}","<img src=""stim_listA/kiss1.gif""</stim_listA>",is kissing,
null,"<div style=""font-size:60px;"">+</div>",,html-keyboard-response,246,1870133,0.0-17.0-0.5,29727,List2A,black,man,,,,null,,,,
null,"<img src=""stim_listA/fight7.gif""</stim_listA>",,html-keyboard-response,247,1872136,0.0-17.0-1.5,29727,List2A,black,man,,,,null,,,,
null,is fighting,,html-keyboard-response,248,1874137,0.0-17.0-2.5,29727,List2A,black,man,,,,null,,,,
5323,,,survey-text,249,1879464,0.0-17.0-3.5,29727,List2A,black,man,,,,,"{""Q0"":""Jane is fighting Kate""}","<img src=""stim_listA/fight7.gif""</stim_listA>",is fighting,
null,"<div style=""font-size:60px;"">+</div>",,html-keyboard-response,250,1879966,0.0-17.0-0.6,29727,List2A,black,man,,,,null,,,,
null,"<img src=""stim_listA/fight3.gif""</stim_listA>",,html-keyboard-response,251,1881971,0.0-17.0-1.6,29727,List2A,black,man,,,,null,,,,
null,is fighting,,html-keyboard-response,252,1883972,0.0-17.0-2.6,29727,List2A,black,man,,,,null,,,,
10317,,,survey-text,253,1894290,0.0-17.0-3.6,29727,List2A,black,man,,,,,"{""Q0"":""Mike is fighting Kate""}","<img src=""stim_listA/fight3.gif""</stim_listA>",is fighting,
null,"<div style=""font-size:60px;"">+</div>",,html-keyboard-response,254,1894792,0.0-17.0-0.7,29727,List2A,black,man,,,,null,,,,
null,"<img src=""stim_listA/argue1.gif""</stim_listA>",,html-keyboard-response,255,1896795,0.0-17.0-1.7,29727,List2A,black,man,,,,null,,,,
null,is arguing with,,html-keyboard-response,256,1898798,0.0-17.0-2.7,29727,List2A,black,man,,,,null,,,,
7818,,,survey-text,257,1906618,0.0-17.0-3.7,29727,List2A,black,man,,,,,"{""Q0"":""Dave is arguing with Ruth""}","<img src=""stim_listA/argue1.gif""</stim_listA>",is arguing with,
null,"<div style=""font-size:60px;"">+</div>",,html-keyboard-response,258,1907120,0.0-17.0-0.8,29727,List2A,black,man,,,,null,,,,
null,"<img src=""stim_listA/dance8.gif""</stim_listA>",,html-keyboard-response,259,1909124,0.0-17.0-1.8,29727,List2A,black,man,,,,null,,,,
null,are dancing with each other,,html-keyboard-response,260,1911126,0.0-17.0-2.8,29727,List2A,black,man,,,,null,,,,
12427,,,survey-text,261,1923555,0.0-17.0-3.8,29727,List2A,black,man,,,,,"{""Q0"":""Jane and Beth are dancing with each other""}","<img src=""stim_listA/dance8.gif""</stim_listA>",are dancing with each other,
null,"<div style=""font-size:60px;"">+</div>",,html-keyboard-response,262,1924057,0.0-17.0-0.9,29727,List2A,black,man,,,,null,,,,
null,"<img src=""stim_listA/kiss6.gif""</stim_listA>",,html-keyboard-response,263,1926060,0.0-17.0-1.9,29727,List2A,black,man,,,,null,,,,
null,are kissing each other,,html-keyboard-response,264,1928062,0.0-17.0-2.9,29727,List2A,black,man,,,,null,,,,
7868,,,survey-text,265,1935932,0.0-17.0-3.9,29727,List2A,black,man,,,,,"{""Q0"":""Mike and Dave are kissing each other""}","<img src=""stim_listA/kiss6.gif""</stim_listA>",are kissing each other,
null,"<div style=""font-size:60px;"">+</div>",,html-keyboard-response,266,1936436,0.0-17.0-0.10,29727,List2A,black,man,,,,null,,,,
null,"<img src=""stim_listA/shout2.gif""</stim_listA>",,html-keyboard-response,267,1938439,0.0-17.0-1.10,29727,List2A,black,man,,,,null,,,,
null,are shouting at each other,,html-keyboard-response,268,1940441,0.0-17.0-2.10,29727,List2A,black,man,,,,null,,,,
12297,,,survey-text,269,1952740,0.0-17.0-3.10,29727,List2A,black,man,,,,,"{""Q0"":""Dave and Jane are shouting at each other""}","<img src=""stim_listA/shout2.gif""</stim_listA>",are shouting at each other,
null,"<div style=""font-size:60px;"">+</div>",,html-keyboard-response,270,1953243,0.0-17.0-0.11,29727,List2A,black,man,,,,null,,,,
null,"<img src=""stim_listA/fight6.gif""</stim_listA>",,html-keyboard-response,271,1955246,0.0-17.0-1.11,29727,List2A,black,man,,,,null,,,,
null,are fighting each other,,html-keyboard-response,272,1957249,0.0-17.0-2.11,29727,List2A,black,man,,,,null,,,,
8286,,,survey-text,273,1965537,0.0-17.0-3.11,29727,List2A,black,man,,,,,"{""Q0"":""Fred and Luke are fighting each other""}","<img src=""stim_listA/fight6.gif""</stim_listA>",are fighting each other,
null,"<div style=""font-size:60px;"">+</div>",,html-keyboard-response,274,1966039,0.0-17.0-0.12,29727,List2A,black,man,,,,null,,,,
null,"<img src=""stim_listA/kiss3.gif""</stim_listA>",,html-keyboard-response,275,1968042,0.0-17.0-1.12,29727,List2A,black,man,,,,null,,,,
null,is kissing,,html-keyboard-response,276,1970044,0.0-17.0-2.12,29727,List2A,black,man,,,,null,,,,
9767,,,survey-text,277,1979813,0.0-17.0-3.12,29727,List2A,black,man,,,,,"{""Q0"":""Fred is kissing Beth""}","<img src=""stim_listA/kiss3.gif""</stim_listA>",is kissing,
null,"<div style=""font-size:60px;"">+</div>",,html-keyboard-response,278,1980315,0.0-17.0-0.13,29727,List2A,black,man,,,,null,,,,
null,"<img src=""stim_listA/fight1.gif""</stim_listA>",,html-keyboard-response,279,1982318,0.0-17.0-1.13,29727,List2A,black,man,,,,null,,,,
null,is fighting,,html-keyboard-response,280,1984320,0.0-17.0-2.13,29727,List2A,black,man,,,,null,,,,
8188,,,survey-text,281,1992510,0.0-17.0-3.13,29727,List2A,black,man,,,,,"{""Q0"":""Dave is fighting Jane""}","<img src=""stim_listA/fight1.gif""</stim_listA>",is fighting,
null,"<div style=""font-size:60px;"">+</div>",,html-keyboard-response,282,1993013,0.0-17.0-0.14,29727,List2A,black,man,,,,null,,,,
null,"<img src=""stim_listA/kiss8.gif""</stim_listA>",,html-keyboard-response,283,1995016,0.0-17.0-1.14,29727,List2A,black,man,,,,null,,,,
null,are kissing each other,,html-keyboard-response,284,1997018,0.0-17.0-2.14,29727,List2A,black,man,,,,null,,,,
8920,,,survey-text,285,2005940,0.0-17.0-3.14,29727,List2A,black,man,,,,,"{""Q0"":""Kate and Jane are kissing each other""}","<img src=""stim_listA/kiss8.gif""</stim_listA>",are kissing each other,
null,"<div style=""font-size:60px;"">+</div>",,html-keyboard-response,286,2006443,0.0-17.0-0.15,29727,List2A,black,man,,,,null,,,,
null,"<img src=""stim_listA/argue2.gif""</stim_listA>",,html-keyboard-response,287,2008445,0.0-17.0-1.15,29727,List2A,black,man,,,,null,,,,
null,are arguing with each other,,html-keyboard-response,288,2010448,0.0-17.0-2.15,29727,List2A,black,man,,,,null,,,,
10458,,,survey-text,289,2020908,0.0-17.0-3.15,29727,List2A,black,man,,,,,"{""Q0"":""Luke and Jane are arguing with each other""}","<img src=""stim_listA/argue2.gif""</stim_listA>",are arguing with each other,
null,"<div style=""font-size:60px;"">+</div>",,html-keyboard-response,290,2021412,0.0-17.0-0.16,29727,List2A,black,man,,,,null,,,,
null,"<img src=""stim_listA/marry8.gif""</stim_listA>",,html-keyboard-response,291,2023414,0.0-17.0-1.16,29727,List2A,black,man,,,,null,,,,
null,are marrying each other,,html-keyboard-response,292,2025416,0.0-17.0-2.16,29727,List2A,black,man,,,,null,,,,
11657,,,survey-text,293,2037075,0.0-17.0-3.16,29727,List2A,black,man,,,,,"{""Q0"":""Beth and Ruth are marrying each other""}","<img src=""stim_listA/marry8.gif""</stim_listA>",are marrying each other,
null,"<div style=""font-size:60px;"">+</div>",,html-keyboard-response,294,2037578,0.0-17.0-0.17,29727,List2A,black,man,,,,null,,,,
null,"<img src=""stim_listA/hug4.gif""</stim_listA>",,html-keyboard-response,295,2039581,0.0-17.0-1.17,29727,List2A,black,man,,,,null,,,,
null,are hugging each other,,html-keyboard-response,296,2041586,0.0-17.0-2.17,29727,List2A,black,man,,,,null,,,,
9069,,,survey-text,297,2050657,0.0-17.0-3.17,29727,List2A,black,man,,,,,"{""Q0"":""Mike and Kate are hugging each other""}","<img src=""stim_listA/hug4.gif""</stim_listA>",are hugging each other,
null,"<div style=""font-size:60px;"">+</div>",,html-keyboard-response,298,2051160,0.0-17.0-0.18,29727,List2A,black,man,,,,null,,,,
null,"<img src=""stim_listA/touch7.gif""</stim_listA>",,html-keyboard-response,299,2053162,0.0-17.0-1.18,29727,List2A,black,man,,,,null,,,,
null,is touching,,html-keyboard-response,300,2055164,0.0-17.0-2.18,29727,List2A,black,man,,,,null,,,,
7189,,,survey-text,301,2062354,0.0-17.0-3.18,29727,List2A,black,man,,,,,"{""Q0"":""Kate is touching Jane""}","<img src=""stim_listA/touch7.gif""</stim_listA>",is touching,
null,"<div style=""font-size:60px;"">+</div>",,html-keyboard-response,302,2062857,0.0-17.0-0.19,29727,List2A,black,man,,,,null,,,,
null,"<img src=""stim_listA/touch2.gif""</stim_listA>",,html-keyboard-response,303,2064859,0.0-17.0-1.19,29727,List2A,black,man,,,,null,,,,
null,are touching each other,,html-keyboard-response,304,2066862,0.0-17.0-2.19,29727,List2A,black,man,,,,null,,,,
10186,,,survey-text,305,2077049,0.0-17.0-3.19,29727,List2A,black,man,,,,,"{""Q0"":""Luke and Ruth are touching each other""}","<img src=""stim_listA/touch2.gif""</stim_listA>",are touching each other,
4267,"<img src='img/portrait_matrix_list2.JPG' style='width:900px;height:500px;''></img><p>If you have memorised all the portraits and names and are ready to start, press Continue.</p><p><strong>Please note: Your memory of these faces will be tested 4 times during this experiment.</strong></p>",0,html-button-response,306,2081318,0.0-18.0-0.0,29727,List2A,black,man,,,,,,,,
1669,"<img src=""portrait/BM2.jpg""style=""width:400px;height:400px;""></img>",5,html-button-response,307,2083990,0.0-18.0-1.0,29727,List2A,black,man,,TRUE,5,,,,,
null,CORRECT,,html-keyboard-response,308,2085495,0.0-18.0-2.0-0.0,29727,List2A,black,man,,,,null,,,,
1957,"<img src=""portrait/WW1.jpg""style=""width:400px;height:400px;""></img>",1,html-button-response,309,2087454,0.0-18.0-4.0,29727,List2A,black,man,,TRUE,1,,,,,
null,CORRECT,,html-keyboard-response,310,2088960,0.0-18.0-5.0-0.0,29727,List2A,black,man,,,,null,,,,
1521,"<img src=""portrait/WM2.jpg""style=""width:400px;height:400px;""></img>",7,html-button-response,311,2090485,0.0-18.0-7.0,29727,List2A,black,man,,TRUE,7,,,,,
null,CORRECT,,html-keyboard-response,312,2091988,0.0-18.0-8.0-0.0,29727,List2A,black,man,,,,null,,,,
1434,"<img src=""portrait/BM1.jpg""style=""width:400px;height:400px;""></img>",4,html-button-response,313,2093425,0.0-18.0-10.0,29727,List2A,black,man,,TRUE,4,,,,,
null,CORRECT,,html-keyboard-response,314,2094931,0.0-18.0-11.0-0.0,29727,List2A,black,man,,,,null,,,,
1675,"<img src=""portrait/BW2.jpg""style=""width:400px;height:400px;""></img>",2,html-button-response,315,2096608,0.0-18.0-13.0,29727,List2A,black,man,,TRUE,2,,,,,
null,CORRECT,,html-keyboard-response,316,2098112,0.0-18.0-14.0-0.0,29727,List2A,black,man,,,,null,,,,
1344,"<img src=""portrait/WM1.jpg""style=""width:400px;height:400px;""></img>",6,html-button-response,317,2099459,0.0-18.0-16.0,29727,List2A,black,man,,TRUE,6,,,,,
null,CORRECT,,html-keyboard-response,318,2100963,0.0-18.0-17.0-0.0,29727,List2A,black,man,,,,null,,,,
1670,"<img src=""portrait/WW2.jpg""style=""width:400px;height:400px;""></img>",3,html-button-response,319,2102635,0.0-18.0-19.0,29727,List2A,black,man,,TRUE,3,,,,,
null,CORRECT,,html-keyboard-response,320,2104141,0.0-18.0-20.0-0.0,29727,List2A,black,man,,,,null,,,,
1887,"<img src=""portrait/BW1.jpg""style=""width:400px;height:400px;""></img>",0,html-button-response,321,2106030,0.0-18.0-22.0,29727,List2A,black,man,,TRUE,0,,,,,
null,CORRECT,,html-keyboard-response,322,2107535,0.0-18.0-23.0-0.0,29727,List2A,black,man,,,,null,,,,
1687,<p>You got 8 out of 8 right first time. Press Continue.</p>,0,html-button-response,323,2109225,0.0-18.0-25.0,29727,List2A,black,man,,,,,,,,
null,"<div style=""font-size:60px;"">+</div>",,html-keyboard-response,324,2110729,0.0-19.0-0.0,29727,List2A,black,man,,,,null,,,,
null,"<img src=""stim_listA/hug8.gif""</stim_listA>",,html-keyboard-response,325,2112734,0.0-19.0-1.0,29727,List2A,black,man,,,,null,,,,
null,are hugging each other,,html-keyboard-response,326,2114737,0.0-19.0-2.0,29727,List2A,black,man,,,,null,,,,
8579,,,survey-text,327,2123319,0.0-19.0-3.0,29727,List2A,black,man,,,,,"{""Q0"":""Kate and Jane are hugging each other""}","<img src=""stim_listA/hug8.gif""</stim_listA>",are hugging each other,
null,"<div style=""font-size:60px;"">+</div>",,html-keyboard-response,328,2123820,0.0-19.0-0.1,29727,List2A,black,man,,,,null,,,,
null,"<img src=""stim_listA/shout4.gif""</stim_listA>",,html-keyboard-response,329,2125824,0.0-19.0-1.1,29727,List2A,black,man,,,,null,,,,
null,are shouting at each other,,html-keyboard-response,330,2127826,0.0-19.0-2.1,29727,List2A,black,man,,,,null,,,,
9844,,,survey-text,331,2137672,0.0-19.0-3.1,29727,List2A,black,man,,,,,"{""Q0"":""Kate and Mike are shouting at each other""}","<img src=""stim_listA/shout4.gif""</stim_listA>",are shouting at each other,
null,"<div style=""font-size:60px;"">+</div>",,html-keyboard-response,332,2138175,0.0-19.0-0.2,29727,List2A,black,man,,,,null,,,,
null,"<img src=""stim_listA/talk4.gif""</stim_listA>",,html-keyboard-response,333,2140177,0.0-19.0-1.2,29727,List2A,black,man,,,,null,,,,
null,are talking to each other,,html-keyboard-response,334,2142179,0.0-19.0-2.2,29727,List2A,black,man,,,,null,,,,
8445,,,survey-text,335,2150626,0.0-19.0-3.2,29727,List2A,black,man,,,,,"{""Q0"":""Mike and Beth are talking to each other""}","<img src=""stim_listA/talk4.gif""</stim_listA>",are talking to each other,
null,"<div style=""font-size:60px;"">+</div>",,html-keyboard-response,336,2151128,0.0-19.0-0.3,29727,List2A,black,man,,,,null,,,,
null,"<img src=""stim_listA/meet3.gif""</stim_listA>",,html-keyboard-response,337,2153132,0.0-19.0-1.3,29727,List2A,black,man,,,,null,,,,
null,is meeting,,html-keyboard-response,338,2155134,0.0-19.0-2.3,29727,List2A,black,man,,,,null,,,,
6382,,,survey-text,339,2161518,0.0-19.0-3.3,29727,List2A,black,man,,,,,"{""Q0"":""Kate is meeting Mike""}","<img src=""stim_listA/meet3.gif""</stim_listA>",is meeting,
null,"<div style=""font-size:60px;"">+</div>",,html-keyboard-response,340,2162019,0.0-19.0-0.4,29727,List2A,black,man,,,,null,,,,
null,"<img src=""stim_listA/dance4.gif""</stim_listA>",,html-keyboard-response,341,2164023,0.0-19.0-1.4,29727,List2A,black,man,,,,null,,,,
null,are dancing with each other,,html-keyboard-response,342,2166024,0.0-19.0-2.4,29727,List2A,black,man,,,,null,,,,
8151,,,survey-text,343,2174177,0.0-19.0-3.4,29727,List2A,black,man,,,,,"{""Q0"":""Mike and Beth are dancing with each other""}","<img src=""stim_listA/dance4.gif""</stim_listA>",are dancing with each other,
null,"<div style=""font-size:60px;"">+</div>",,html-keyboard-response,344,2174679,0.0-19.0-0.5,29727,List2A,black,man,,,,null,,,,
null,"<img src=""stim_listA/meet2.gif""</stim_listA>",,html-keyboard-response,345,2176683,0.0-19.0-1.5,29727,List2A,black,man,,,,null,,,,
null,are meeting each other,,html-keyboard-response,346,2178684,0.0-19.0-2.5,29727,List2A,black,man,,,,null,,,,
9319,,,survey-text,347,2188005,0.0-19.0-3.5,29727,List2A,black,man,,,,,"{""Q0"":""Luke and Ruth are meeting each other""}","<img src=""stim_listA/meet2.gif""</stim_listA>",are meeting each other,
null,"<div style=""font-size:60px;"">+</div>",,html-keyboard-response,348,2188508,0.0-19.0-0.6,29727,List2A,black,man,,,,null,,,,
null,"<img src=""stim_listA/shout1.gif""</stim_listA>",,html-keyboard-response,349,2190512,0.0-19.0-1.6,29727,List2A,black,man,,,,null,,,,
null,is shouting at,,html-keyboard-response,350,2192514,0.0-19.0-2.6,29727,List2A,black,man,,,,null,,,,
8807,,,survey-text,351,2201323,0.0-19.0-3.6,29727,List2A,black,man,,,,,"{""Q0"":""Luke is shouting at Ruth""}","<img src=""stim_listA/shout1.gif""</stim_listA>",is shouting at,
null,"<div style=""font-size:60px;"">+</div>",,html-keyboard-response,352,2201825,0.0-19.0-0.7,29727,List2A,black,man,,,,null,,,,
null,"<img src=""stim_listA/kiss2.gif""</stim_listA>",,html-keyboard-response,353,2203829,0.0-19.0-1.7,29727,List2A,black,man,,,,null,,,,
null,are kissing each other,,html-keyboard-response,354,2205831,0.0-19.0-2.7,29727,List2A,black,man,,,,null,,,,
7708,,,survey-text,355,2213540,0.0-19.0-3.7,29727,List2A,black,man,,,,,"{""Q0"":""Dave and Jane are kissing each other""}","<img src=""stim_listA/kiss2.gif""</stim_listA>",are kissing each other,
null,"<div style=""font-size:60px;"">+</div>",,html-keyboard-response,356,2214043,0.0-19.0-0.8,29727,List2A,black,man,,,,null,,,,
null,"<img src=""stim_listA/dance1.gif""</stim_listA>",,html-keyboard-response,357,2216047,0.0-19.0-1.8,29727,List2A,black,man,,,,null,,,,
null,is dancing with,,html-keyboard-response,358,2218049,0.0-19.0-2.8,29727,List2A,black,man,,,,null,,,,
6067,,,survey-text,359,2224118,0.0-19.0-3.8,29727,List2A,black,man,,,,,"{""Q0"":""Luke is dancing with Jane""}","<img src=""stim_listA/dance1.gif""</stim_listA>",is dancing with,
null,"<div style=""font-size:60px;"">+</div>",,html-keyboard-response,360,2224620,0.0-19.0-0.9,29727,List2A,black,man,,,,null,,,,
null,"<img src=""stim_listA/touch4.gif""</stim_listA>",,html-keyboard-response,361,2226622,0.0-19.0-1.9,29727,List2A,black,man,,,,null,,,,
null,are touching each other,,html-keyboard-response,362,2228625,0.0-19.0-2.9,29727,List2A,black,man,,,,null,,,,
9760,,,survey-text,363,2238387,0.0-19.0-3.9,29727,List2A,black,man,,,,,"{""Q0"":""Fred and Beth are touching each other""}","<img src=""stim_listA/touch4.gif""</stim_listA>",are touching each other,
null,"<div style=""font-size:60px;"">+</div>",,html-keyboard-response,364,2238889,0.0-19.0-0.10,29727,List2A,black,man,,,,null,,,,
null,"<img src=""stim_listA/hug3.gif""</stim_listA>",,html-keyboard-response,365,2240893,0.0-19.0-1.10,29727,List2A,black,man,,,,null,,,,
null,is hugging,,html-keyboard-response,366,2242901,0.0-19.0-2.10,29727,List2A,black,man,,,,null,,,,
8744,,,survey-text,367,2251646,0.0-19.0-3.10,29727,List2A,black,man,,,,,"{""Q0"":""Fred is hugging Beth""}","<img src=""stim_listA/hug3.gif""</stim_listA>",is hugging,
null,"<div style=""font-size:60px;"">+</div>",,html-keyboard-response,368,2252149,0.0-19.0-0.11,29727,List2A,black,man,,,,null,,,,
null,"<img src=""stim_listA/hug2.gif""</stim_listA>",,html-keyboard-response,369,2254153,0.0-19.0-1.11,29727,List2A,black,man,,,,null,,,,
null,are hugging each other,,html-keyboard-response,370,2256155,0.0-19.0-2.11,29727,List2A,black,man,,,,null,,,,
11904,,,survey-text,371,2268062,0.0-19.0-3.11,29727,List2A,black,man,,,,,"{""Q0"":""Dave and Jane are hugging each other""}","<img src=""stim_listA/hug2.gif""</stim_listA>",are hugging each other,
null,"<div style=""font-size:60px;"">+</div>",,html-keyboard-response,372,2268565,0.0-19.0-0.12,29727,List2A,black,man,,,,null,,,,
null,"<img src=""stim_listA/marry3.gif""</stim_listA>",,html-keyboard-response,373,2270569,0.0-19.0-1.12,29727,List2A,black,man,,,,null,,,,
null,is marrying,,html-keyboard-response,374,2272582,0.0-19.0-2.12,29727,List2A,black,man,,,,null,,,,
5919,,,survey-text,375,2278504,0.0-19.0-3.12,29727,List2A,black,man,,,,,"{""Q0"":""Mike is marrying Beth""}","<img src=""stim_listA/marry3.gif""</stim_listA>",is marrying,
null,"<div style=""font-size:60px;"">+</div>",,html-keyboard-response,376,2279007,0.0-19.0-0.13,29727,List2A,black,man,,,,null,,,,
null,"<img src=""stim_listA/marry5.gif""</stim_listA>",,html-keyboard-response,377,2281010,0.0-19.0-1.13,29727,List2A,black,man,,,,null,,,,
null,is marrying,,html-keyboard-response,378,2283012,0.0-19.0-2.13,29727,List2A,black,man,,,,null,,,,
11201,,,survey-text,379,2294215,0.0-19.0-3.13,29727,List2A,black,man,,,,,"{""Q0"":""Fred is marrying Dave""}","<img src=""stim_listA/marry5.gif""</stim_listA>",is marrying,
null,"<div style=""font-size:60px;"">+</div>",,html-keyboard-response,380,2294718,0.0-19.0-0.14,29727,List2A,black,man,,,,null,,,,
null,"<img src=""stim_listA/argue8.gif""</stim_listA>",,html-keyboard-response,381,2296721,0.0-19.0-1.14,29727,List2A,black,man,,,,null,,,,
null,are arguing with each other,,html-keyboard-response,382,2298722,0.0-19.0-2.14,29727,List2A,black,man,,,,null,,,,
15319,,,survey-text,383,2314043,0.0-19.0-3.14,29727,List2A,black,man,,,,,"{""Q0"":""Kate and Ruth are arguing with each other""}","<img src=""stim_listA/argue8.gif""</stim_listA>",are arguing with each other,
null,"<div style=""font-size:60px;"">+</div>",,html-keyboard-response,384,2314554,0.0-19.0-0.15,29727,List2A,black,man,,,,null,,,,
null,"<img src=""stim_listA/touch5.gif""</stim_listA>",,html-keyboard-response,385,2316558,0.0-19.0-1.15,29727,List2A,black,man,,,,null,,,,
null,is touching,,html-keyboard-response,386,2318559,0.0-19.0-2.15,29727,List2A,black,man,,,,null,,,,
11885,,,survey-text,387,2330446,0.0-19.0-3.15,29727,List2A,black,man,,,,,"{""Q0"":""Dave is touching Mike""}","<img src=""stim_listA/touch5.gif""</stim_listA>",is touching,
null,"<div style=""font-size:60px;"">+</div>",,html-keyboard-response,388,2330949,0.0-19.0-0.16,29727,List2A,black,man,,,,null,,,,
null,"<img src=""stim_listA/shout6.gif""</stim_listA>",,html-keyboard-response,389,2332952,0.0-19.0-1.16,29727,List2A,black,man,,,,null,,,,
null,are shouting at each other,,html-keyboard-response,390,2334954,0.0-19.0-2.16,29727,List2A,black,man,,,,null,,,,
11569,,,survey-text,391,2346525,0.0-19.0-3.16,29727,List2A,black,man,,,,,"{""Q0"":""Dave and Mike are shouting at each other""}","<img src=""stim_listA/shout6.gif""</stim_listA>",are shouting at each other,
null,"<div style=""font-size:60px;"">+</div>",,html-keyboard-response,392,2347027,0.0-19.0-0.17,29727,List2A,black,man,,,,null,,,,
null,"<img src=""stim_listA/touch1.gif""</stim_listA>",,html-keyboard-response,393,2349031,0.0-19.0-1.17,29727,List2A,black,man,,,,null,,,,
null,is touching,,html-keyboard-response,394,2351033,0.0-19.0-2.17,29727,List2A,black,man,,,,null,,,,
11075,,,survey-text,395,2362110,0.0-19.0-3.17,29727,List2A,black,man,,,,,"{""Q0"":""Jane is touching Dave""}","<img src=""stim_listA/touch1.gif""</stim_listA>",is touching,
null,"<div style=""font-size:60px;"">+</div>",,html-keyboard-response,396,2362612,0.0-19.0-0.18,29727,List2A,black,man,,,,null,,,,
null,"<img src=""stim_listA/argue7.gif""</stim_listA>",,html-keyboard-response,397,2364615,0.0-19.0-1.18,29727,List2A,black,man,,,,null,,,,
null,is arguing with,,html-keyboard-response,398,2366617,0.0-19.0-2.18,29727,List2A,black,man,,,,null,,,,
7965,,,survey-text,399,2374583,0.0-19.0-3.18,29727,List2A,black,man,,,,,"{""Q0"":""Beth is arguing with Jane""}","<img src=""stim_listA/argue7.gif""</stim_listA>",is arguing with,
null,"<div style=""font-size:60px;"">+</div>",,html-keyboard-response,400,2375086,0.0-19.0-0.19,29727,List2A,black,man,,,,null,,,,
null,"<img src=""stim_listA/kiss5.gif""</stim_listA>",,html-keyboard-response,401,2377091,0.0-19.0-1.19,29727,List2A,black,man,,,,null,,,,
null,is kissing,,html-keyboard-response,402,2379093,0.0-19.0-2.19,29727,List2A,black,man,,,,null,,,,
8461,,,survey-text,403,2387557,0.0-19.0-3.19,29727,List2A,black,man,,,,,"{""Q0"":""Fred is kissing Luke""}","<img src=""stim_listA/kiss5.gif""</stim_listA>",is kissing,
2402,<p>Thank you for completing that task.</p><p>The final part of this session is a short questionnaire.</p><p>Press Continue.</p>,0,html-button-response,404,2389960,0.0-20.0,29727,List2A,black,man,,,,,,,,
32891,,,survey-text,405,2423856,0.0-21.0,29727,List2A,black,man,,,,,"{""Q0"":""35"",""Q1"":""English"",""Q2"":""English"",""Q3"":""United States"",""Q4"":""African American"",""Q5"":""Male""}",,,demographics
59764,,,survey-likert,406,2483632,0.0-22.0,29727,List2A,black,man,,,,,"{""Q0"":5,""Q1"":5,""Q2"":5,""Q3"":5,""Q4"":5,""Q5"":5,""Q6"":5,""Q7"":4,""Q8"":5,""Q9"":5,""Q10"":4,""Q11"":4,""Q12"":4,""Q13"":4}",,,likert_race
41215,,,survey-likert,407,2524856,0.0-23.0,29727,List2A,black,man,,,,,"{""Q0"":5,""Q1"":5,""Q2"":2,""Q3"":5,""Q4"":4,""Q5"":4,""Q6"":5,""Q7"":2,""Q8"":5,""Q9"":5,""Q10"":4,""Q11"":4,""Q12"":4,""Q13"":4}",,,likert_gender
10789,,,survey-text,408,2535649,0.0-24.0,29727,List2A,black,man,,,,,"{""Q0"":""ccc""}",,,worker_id
3447,,,external-html,409,2539317,0.0-25.0,29727,List2A,black,man,debrief.html,,,,,,,
