rt,stimulus,button_pressed,trial_type,trial_index,time_elapsed,internal_node_id,subject,list,ppt_race,ppt_gender,url,first_guess,correct,key_press,responses,image_type,phrase_type,test_part
1485,Welcome to the experiment. Press Continue to begin.,0,html-button-response,0,1492,0.0-0.0,30006,List2B,white,man,,,,,,,,
21689,,,external-html,1,24539,0.0-1.0,30006,List2B,white,man,consent.html,,,,,,,
7762,"<p>On the next page, you will see portraits of 8 people and their names.</p><p>Your first task is to take a few minutes to memorise the names of these people.</p><p>You will have to recall their names during the rest of the experiment, so it is</p><p>essential that you try to memorise these people and their names as best as you can.</p><br><p><strong>You will then be tested on your memory of these names and portraits.</strong></p><br><p>The experiment will start after you have completed this memory test.</p><br><p>Ready?</p>",0,html-button-response,2,32304,0.0-2.0,30006,List2B,white,man,,,,,,,,
47011,"<img src='img/portrait_matrix_list2.JPG' style='width:900px;height:500px;''></img><p>If you have memorised all the portraits and names and are ready to start, press Continue.</p><p><strong>Please note: Your memory of these faces will be tested 4 times during this experiment.</strong></p>",0,html-button-response,3,80317,0.0-3.0-0.0,30006,List2B,white,man,,,,,,,,
7650,"<img src=""portrait/WM2.jpg""style=""width:400px;height:400px;""></img>",7,html-button-response,4,88971,0.0-3.0-1.0,30006,List2B,white,man,,TRUE,7,,,,,
null,CORRECT,,html-keyboard-response,5,90477,0.0-3.0-2.0-0.0,30006,List2B,white,man,,,,null,,,,
8309,"<img src=""portrait/BW1.jpg""style=""width:400px;height:400px;""></img>",1,html-button-response,6,98787,0.0-3.0-4.0,30006,List2B,white,man,,TRUE,0,,,,,
2538,"<img src=""portrait/BW1.jpg""style=""width:400px;height:400px;""></img>",0,html-button-response,7,102328,0.0-3.0-6.0-0.0,30006,List2B,white,man,,FALSE,0,,,,,
null,CORRECT,,html-keyboard-response,8,103831,0.0-3.0-6.0-1.0-0.0,30006,List2B,white,man,,,,null,,,,
4302,"<img src=""portrait/WW1.jpg""style=""width:400px;height:400px;""></img>",1,html-button-response,9,108134,0.0-3.0-7.0,30006,List2B,white,man,,TRUE,1,,,,,
null,CORRECT,,html-keyboard-response,10,109637,0.0-3.0-8.0-0.0,30006,List2B,white,man,,,,null,,,,
4779,"<img src=""portrait/BM1.jpg""style=""width:400px;height:400px;""></img>",7,html-button-response,11,114417,0.0-3.0-10.0,30006,List2B,white,man,,TRUE,4,,,,,
1315,"<img src=""portrait/BM1.jpg""style=""width:400px;height:400px;""></img>",4,html-button-response,12,116735,0.0-3.0-12.0-0.0,30006,List2B,white,man,,FALSE,4,,,,,
null,CORRECT,,html-keyboard-response,13,118239,0.0-3.0-12.0-1.0-0.0,30006,List2B,white,man,,,,null,,,,
3248,"<img src=""portrait/WW2.jpg""style=""width:400px;height:400px;""></img>",3,html-button-response,14,121489,0.0-3.0-13.0,30006,List2B,white,man,,TRUE,3,,,,,
null,CORRECT,,html-keyboard-response,15,122991,0.0-3.0-14.0-0.0,30006,List2B,white,man,,,,null,,,,
4736,"<img src=""portrait/WM1.jpg""style=""width:400px;height:400px;""></img>",5,html-button-response,16,127728,0.0-3.0-16.0,30006,List2B,white,man,,TRUE,6,,,,,
1182,"<img src=""portrait/WM1.jpg""style=""width:400px;height:400px;""></img>",6,html-button-response,17,129913,0.0-3.0-18.0-0.0,30006,List2B,white,man,,FALSE,6,,,,,
null,CORRECT,,html-keyboard-response,18,131416,0.0-3.0-18.0-1.0-0.0,30006,List2B,white,man,,,,null,,,,
4375,"<img src=""portrait/BW2.jpg""style=""width:400px;height:400px;""></img>",3,html-button-response,19,135793,0.0-3.0-19.0,30006,List2B,white,man,,TRUE,2,,,,,
803,"<img src=""portrait/BW2.jpg""style=""width:400px;height:400px;""></img>",2,html-button-response,20,137598,0.0-3.0-21.0-0.0,30006,List2B,white,man,,FALSE,2,,,,,
null,CORRECT,,html-keyboard-response,21,139100,0.0-3.0-21.0-1.0-0.0,30006,List2B,white,man,,,,null,,,,
6433,"<img src=""portrait/BM2.jpg""style=""width:400px;height:400px;""></img>",5,html-button-response,22,145534,0.0-3.0-22.0,30006,List2B,white,man,,TRUE,5,,,,,
null,CORRECT,,html-keyboard-response,23,147037,0.0-3.0-23.0-0.0,30006,List2B,white,man,,,,null,,,,
1045,<p>You got 4 out of 8 right first time. Press Continue.</p>,0,html-button-response,24,148084,0.0-3.0-25.0,30006,List2B,white,man,,,,,,,,
1493,"As you did not score 100%, the memory game will repeat. Press Continue.",0,html-button-response,25,150580,0.0-3.0-26.0-0.0,30006,List2B,white,man,,,,,,,,
25023,"<img src='img/portrait_matrix_list2.JPG' style='width:900px;height:500px;''></img><p>If you have memorised all the portraits and names and are ready to start, press Continue.</p><p><strong>Please note: Your memory of these faces will be tested 4 times during this experiment.</strong></p>",0,html-button-response,26,176606,0.0-3.1-0.1,30006,List2B,white,man,,,,,,,,
11952,"<img src=""portrait/WM2.jpg""style=""width:400px;height:400px;""></img>",7,html-button-response,27,189561,0.0-3.1-1.1,30006,List2B,white,man,,TRUE,7,,,,,
null,CORRECT,,html-keyboard-response,28,191064,0.0-3.1-2.1-0.1,30006,List2B,white,man,,,,null,,,,
8355,"<img src=""portrait/BW1.jpg""style=""width:400px;height:400px;""></img>",0,html-button-response,29,199420,0.0-3.1-4.1,30006,List2B,white,man,,TRUE,0,,,,,
null,CORRECT,,html-keyboard-response,30,200923,0.0-3.1-5.1-0.1,30006,List2B,white,man,,,,null,,,,
4595,"<img src=""portrait/WW1.jpg""style=""width:400px;height:400px;""></img>",1,html-button-response,31,205521,0.0-3.1-7.1,30006,List2B,white,man,,TRUE,1,,,,,
null,CORRECT,,html-keyboard-response,32,207023,0.0-3.1-8.1-0.1,30006,List2B,white,man,,,,null,,,,
9369,"<img src=""portrait/BM1.jpg""style=""width:400px;height:400px;""></img>",7,html-button-response,33,216393,0.0-3.1-10.1,30006,List2B,white,man,,TRUE,4,,,,,
1918,"<img src=""portrait/BM1.jpg""style=""width:400px;height:400px;""></img>",4,html-button-response,34,219315,0.0-3.1-12.1-0.1,30006,List2B,white,man,,FALSE,4,,,,,
null,CORRECT,,html-keyboard-response,35,220819,0.0-3.1-12.1-1.1-0.1,30006,List2B,white,man,,,,null,,,,
7562,"<img src=""portrait/WW2.jpg""style=""width:400px;height:400px;""></img>",1,html-button-response,36,228384,0.0-3.1-13.1,30006,List2B,white,man,,TRUE,3,,,,,
2665,"<img src=""portrait/WW2.jpg""style=""width:400px;height:400px;""></img>",3,html-button-response,37,232053,0.0-3.1-15.1-0.1,30006,List2B,white,man,,FALSE,3,,,,,
null,CORRECT,,html-keyboard-response,38,233556,0.0-3.1-15.1-1.1-0.1,30006,List2B,white,man,,,,null,,,,
4037,"<img src=""portrait/WM1.jpg""style=""width:400px;height:400px;""></img>",6,html-button-response,39,237595,0.0-3.1-16.1,30006,List2B,white,man,,TRUE,6,,,,,
null,CORRECT,,html-keyboard-response,40,239098,0.0-3.1-17.1-0.1,30006,List2B,white,man,,,,null,,,,
3373,"<img src=""portrait/BW2.jpg""style=""width:400px;height:400px;""></img>",0,html-button-response,41,242473,0.0-3.1-19.1,30006,List2B,white,man,,TRUE,2,,,,,
1433,"<img src=""portrait/BW2.jpg""style=""width:400px;height:400px;""></img>",2,html-button-response,42,244908,0.0-3.1-21.1-0.1,30006,List2B,white,man,,FALSE,2,,,,,
null,CORRECT,,html-keyboard-response,43,246410,0.0-3.1-21.1-1.1-0.1,30006,List2B,white,man,,,,null,,,,
2822,"<img src=""portrait/BM2.jpg""style=""width:400px;height:400px;""></img>",5,html-button-response,44,249234,0.0-3.1-22.1,30006,List2B,white,man,,TRUE,5,,,,,
null,CORRECT,,html-keyboard-response,45,250737,0.0-3.1-23.1-0.1,30006,List2B,white,man,,,,null,,,,
1022,<p>You got 5 out of 8 right first time. Press Continue.</p>,0,html-button-response,46,251759,0.0-3.1-25.1,30006,List2B,white,man,,,,,,,,
2203,"As you did not score 100%, the memory game will repeat. Press Continue.",0,html-button-response,47,254964,0.0-3.1-26.1-0.1,30006,List2B,white,man,,,,,,,,
6352,"<img src='img/portrait_matrix_list2.JPG' style='width:900px;height:500px;''></img><p>If you have memorised all the portraits and names and are ready to start, press Continue.</p><p><strong>Please note: Your memory of these faces will be tested 4 times during this experiment.</strong></p>",0,html-button-response,48,262318,0.0-3.2-0.2,30006,List2B,white,man,,,,,,,,
2901,"<img src=""portrait/WM2.jpg""style=""width:400px;height:400px;""></img>",7,html-button-response,49,266222,0.0-3.2-1.2,30006,List2B,white,man,,TRUE,7,,,,,
null,CORRECT,,html-keyboard-response,50,267724,0.0-3.2-2.2-0.2,30006,List2B,white,man,,,,null,,,,
3449,"<img src=""portrait/BW1.jpg""style=""width:400px;height:400px;""></img>",0,html-button-response,51,271174,0.0-3.2-4.2,30006,List2B,white,man,,TRUE,0,,,,,
null,CORRECT,,html-keyboard-response,52,272676,0.0-3.2-5.2-0.2,30006,List2B,white,man,,,,null,,,,
4273,"<img src=""portrait/WW1.jpg""style=""width:400px;height:400px;""></img>",1,html-button-response,53,276951,0.0-3.2-7.2,30006,List2B,white,man,,TRUE,1,,,,,
null,CORRECT,,html-keyboard-response,54,278453,0.0-3.2-8.2-0.2,30006,List2B,white,man,,,,null,,,,
6323,"<img src=""portrait/BM1.jpg""style=""width:400px;height:400px;""></img>",4,html-button-response,55,284777,0.0-3.2-10.2,30006,List2B,white,man,,TRUE,4,,,,,
null,CORRECT,,html-keyboard-response,56,286280,0.0-3.2-11.2-0.2,30006,List2B,white,man,,,,null,,,,
2651,"<img src=""portrait/WW2.jpg""style=""width:400px;height:400px;""></img>",3,html-button-response,57,288933,0.0-3.2-13.2,30006,List2B,white,man,,TRUE,3,,,,,
null,CORRECT,,html-keyboard-response,58,290435,0.0-3.2-14.2-0.2,30006,List2B,white,man,,,,null,,,,
3351,"<img src=""portrait/WM1.jpg""style=""width:400px;height:400px;""></img>",6,html-button-response,59,293787,0.0-3.2-16.2,30006,List2B,white,man,,TRUE,6,,,,,
null,CORRECT,,html-keyboard-response,60,295290,0.0-3.2-17.2-0.2,30006,List2B,white,man,,,,null,,,,
2783,"<img src=""portrait/BW2.jpg""style=""width:400px;height:400px;""></img>",2,html-button-response,61,298073,0.0-3.2-19.2,30006,List2B,white,man,,TRUE,2,,,,,
null,CORRECT,,html-keyboard-response,62,299576,0.0-3.2-20.2-0.2,30006,List2B,white,man,,,,null,,,,
2372,"<img src=""portrait/BM2.jpg""style=""width:400px;height:400px;""></img>",5,html-button-response,63,301949,0.0-3.2-22.2,30006,List2B,white,man,,TRUE,5,,,,,
null,CORRECT,,html-keyboard-response,64,303452,0.0-3.2-23.2-0.2,30006,List2B,white,man,,,,null,,,,
1028,<p>You got 8 out of 8 right first time. Press Continue.</p>,0,html-button-response,65,304481,0.0-3.2-25.2,30006,List2B,white,man,,,,,,,,
21677,"<p>In this experiment, you will view photographs of the people from the memory game interacting.</p><p>By using the <strong>exact</strong> phrase given <i>after</i> the photograph appears and recalling the correct names of the people in the photographs, form a sentence describing the interaction. You do not need to capitalise names.</p><p>Type your answer in the space provided. Please complete every sentence before moving onto the next trial.</p><p>You will only have a few seconds to memorise each given photograph and phrase before you can respond, so try your best to focus.</p><p>An example is given below. Press 'Continue' when you are ready.</p><img src='img/speaking_example_v2.jpg' style='width:800px;height:460px;''></img>",0,html-button-response,66,327162,0.0-4.0,30006,List2B,white,man,,,,,,,,
1368,"<p>Before the experiment starts, you will watch two example trials. Press 'Continue'.</p>",0,html-button-response,67,329531,0.0-5.0,30006,List2B,white,man,,,,,,,,
null,<img src='img/speaking_WW.gif'></img>,,html-keyboard-response,68,332534,0.0-6.0,30006,List2B,white,man,,,,null,,,,
null,<p>is speaking to</p>,,html-keyboard-response,69,334534,0.0-7.0,30006,List2B,white,man,,,,null,,,,
1358,<p><b>Answer:</b> jane is speaking to ruth</p>,0,html-button-response,70,335892,0.0-8.0,30006,List2B,white,man,,,,,,,,
null,<img src='img/pointing_BM.gif'></img>,,html-keyboard-response,71,338896,0.0-9.0,30006,List2B,white,man,,,,null,,,,
null,<p>are pointing at each other</p>,,html-keyboard-response,72,340898,0.0-10.0,30006,List2B,white,man,,,,null,,,,
1381,<p><b>Answer:</b> fred and mike are pointing at each other</p>,0,html-button-response,73,342280,0.0-11.0,30006,List2B,white,man,,,,,,,,
1702,"<p>Ready to start the experiment?</p><br><p><strong>Remember to describe the picture using a full sentence,</strong></p><p><strong> that combines the names of the people with the given phrase.</strong></p><p><strong> You do not need to capitalise names or use punctuation.</strong></p><br><p>Press 'Continue' to begin.</p>",0,html-button-response,74,344985,0.0-12.0,30006,List2B,white,man,,,,,,,,
null,"<div style=""font-size:60px;"">+</div>",,html-keyboard-response,75,346488,0.0-13.0-0.0,30006,List2B,white,man,,,,null,,,,
null,"<img src=""stim_listB/touch1.gif""</stim_listB>",,html-keyboard-response,76,348491,0.0-13.0-1.0,30006,List2B,white,man,,,,null,,,,
null,is touching,,html-keyboard-response,77,350492,0.0-13.0-2.0,30006,List2B,white,man,,,,null,,,,
10075,,,survey-text,78,360568,0.0-13.0-3.0,30006,List2B,white,man,,,,,"{""Q0"":""Jane is touching Dave""}","<img src=""stim_listB/touch1.gif""</stim_listB>",is touching,
null,"<div style=""font-size:60px;"">+</div>",,html-keyboard-response,79,361071,0.0-13.0-0.1,30006,List2B,white,man,,,,null,,,,
null,"<img src=""stim_listB/touch2.gif""</stim_listB>",,html-keyboard-response,80,363073,0.0-13.0-1.1,30006,List2B,white,man,,,,null,,,,
null,are touching each other,,html-keyboard-response,81,365075,0.0-13.0-2.1,30006,List2B,white,man,,,,null,,,,
10675,,,survey-text,82,375750,0.0-13.0-3.1,30006,List2B,white,man,,,,,"{""Q0"":""Luke is touching Ruth""}","<img src=""stim_listB/touch2.gif""</stim_listB>",are touching each other,
null,"<div style=""font-size:60px;"">+</div>",,html-keyboard-response,83,376253,0.0-13.0-0.2,30006,List2B,white,man,,,,null,,,,
null,"<img src=""stim_listB/talk2.gif""</stim_listB>",,html-keyboard-response,84,378254,0.0-13.0-1.2,30006,List2B,white,man,,,,null,,,,
null,are talking to each other,,html-keyboard-response,85,380255,0.0-13.0-2.2,30006,List2B,white,man,,,,null,,,,
5797,,,survey-text,86,386053,0.0-13.0-3.2,30006,List2B,white,man,,,,,"{""Q0"":""Ruth and Dave""}","<img src=""stim_listB/talk2.gif""</stim_listB>",are talking to each other,
null,"<div style=""font-size:60px;"">+</div>",,html-keyboard-response,87,386555,0.0-13.0-0.3,30006,List2B,white,man,,,,null,,,,
null,"<img src=""stim_listB/argue6.gif""</stim_listB>",,html-keyboard-response,88,388557,0.0-13.0-1.3,30006,List2B,white,man,,,,null,,,,
null,are arguing with each other,,html-keyboard-response,89,390557,0.0-13.0-2.3,30006,List2B,white,man,,,,null,,,,
4483,,,survey-text,90,395040,0.0-13.0-3.3,30006,List2B,white,man,,,,,"{""Q0"":""Luke and Mike""}","<img src=""stim_listB/argue6.gif""</stim_listB>",are arguing with each other,
null,"<div style=""font-size:60px;"">+</div>",,html-keyboard-response,91,395542,0.0-13.0-0.4,30006,List2B,white,man,,,,null,,,,
null,"<img src=""stim_listB/marry3.gif""</stim_listB>",,html-keyboard-response,92,397544,0.0-13.0-1.4,30006,List2B,white,man,,,,null,,,,
null,is marrying,,html-keyboard-response,93,399544,0.0-13.0-2.4,30006,List2B,white,man,,,,null,,,,
4244,,,survey-text,94,403789,0.0-13.0-3.4,30006,List2B,white,man,,,,,"{""Q0"":""Mike and Beth""}","<img src=""stim_listB/marry3.gif""</stim_listB>",is marrying,
null,"<div style=""font-size:60px;"">+</div>",,html-keyboard-response,95,404290,0.0-13.0-0.5,30006,List2B,white,man,,,,null,,,,
null,"<img src=""stim_listB/dance4.gif""</stim_listB>",,html-keyboard-response,96,406292,0.0-13.0-1.5,30006,List2B,white,man,,,,null,,,,
null,are dancing with each other,,html-keyboard-response,97,408292,0.0-13.0-2.5,30006,List2B,white,man,,,,null,,,,
4163,,,survey-text,98,412455,0.0-13.0-3.5,30006,List2B,white,man,,,,,"{""Q0"":""Mike and Beth""}","<img src=""stim_listB/dance4.gif""</stim_listB>",are dancing with each other,
null,"<div style=""font-size:60px;"">+</div>",,html-keyboard-response,99,412957,0.0-13.0-0.6,30006,List2B,white,man,,,,null,,,,
null,"<img src=""stim_listB/touch7.gif""</stim_listB>",,html-keyboard-response,100,414958,0.0-13.0-1.6,30006,List2B,white,man,,,,null,,,,
null,is touching,,html-keyboard-response,101,416960,0.0-13.0-2.6,30006,List2B,white,man,,,,null,,,,
4006,,,survey-text,102,420967,0.0-13.0-3.6,30006,List2B,white,man,,,,,"{""Q0"":""Jane and Kate""}","<img src=""stim_listB/touch7.gif""</stim_listB>",is touching,
null,"<div style=""font-size:60px;"">+</div>",,html-keyboard-response,103,421470,0.0-13.0-0.7,30006,List2B,white,man,,,,null,,,,
null,"<img src=""stim_listB/shout1.gif""</stim_listB>",,html-keyboard-response,104,423470,0.0-13.0-1.7,30006,List2B,white,man,,,,null,,,,
null,is shouting at,,html-keyboard-response,105,425471,0.0-13.0-2.7,30006,List2B,white,man,,,,null,,,,
4385,,,survey-text,106,429856,0.0-13.0-3.7,30006,List2B,white,man,,,,,"{""Q0"":""Luke and Ruth""}","<img src=""stim_listB/shout1.gif""</stim_listB>",is shouting at,
null,"<div style=""font-size:60px;"">+</div>",,html-keyboard-response,107,430359,0.0-13.0-0.8,30006,List2B,white,man,,,,null,,,,
null,"<img src=""stim_listB/talk6.gif""</stim_listB>",,html-keyboard-response,108,432361,0.0-13.0-1.8,30006,List2B,white,man,,,,null,,,,
null,are talking to each other,,html-keyboard-response,109,434362,0.0-13.0-2.8,30006,List2B,white,man,,,,null,,,,
11685,,,survey-text,110,446047,0.0-13.0-3.8,30006,List2B,white,man,,,,,"{""Q0"":""Fred and Mike""}","<img src=""stim_listB/talk6.gif""</stim_listB>",are talking to each other,
null,"<div style=""font-size:60px;"">+</div>",,html-keyboard-response,111,446550,0.0-13.0-0.9,30006,List2B,white,man,,,,null,,,,
null,"<img src=""stim_listB/shout4.gif""</stim_listB>",,html-keyboard-response,112,448551,0.0-13.0-1.9,30006,List2B,white,man,,,,null,,,,
null,are shouting at each other,,html-keyboard-response,113,450552,0.0-13.0-2.9,30006,List2B,white,man,,,,null,,,,
3754,,,survey-text,114,454306,0.0-13.0-3.9,30006,List2B,white,man,,,,,"{""Q0"":""Kate and Mike""}","<img src=""stim_listB/shout4.gif""</stim_listB>",are shouting at each other,
null,"<div style=""font-size:60px;"">+</div>",,html-keyboard-response,115,454808,0.0-13.0-0.10,30006,List2B,white,man,,,,null,,,,
null,"<img src=""stim_listB/marry5.gif""</stim_listB>",,html-keyboard-response,116,456813,0.0-13.0-1.10,30006,List2B,white,man,,,,null,,,,
null,is marrying,,html-keyboard-response,117,458814,0.0-13.0-2.10,30006,List2B,white,man,,,,null,,,,
6009,,,survey-text,118,464824,0.0-13.0-3.10,30006,List2B,white,man,,,,,"{""Q0"":""Dave and Fred""}","<img src=""stim_listB/marry5.gif""</stim_listB>",is marrying,
null,"<div style=""font-size:60px;"">+</div>",,html-keyboard-response,119,465326,0.0-13.0-0.11,30006,List2B,white,man,,,,null,,,,
null,"<img src=""stim_listB/kiss6.gif""</stim_listB>",,html-keyboard-response,120,467328,0.0-13.0-1.11,30006,List2B,white,man,,,,null,,,,
null,are kissing each other,,html-keyboard-response,121,469328,0.0-13.0-2.11,30006,List2B,white,man,,,,null,,,,
4243,,,survey-text,122,473572,0.0-13.0-3.11,30006,List2B,white,man,,,,,"{""Q0"":""Mike and Dave""}","<img src=""stim_listB/kiss6.gif""</stim_listB>",are kissing each other,
null,"<div style=""font-size:60px;"">+</div>",,html-keyboard-response,123,474074,0.0-13.0-0.12,30006,List2B,white,man,,,,null,,,,
null,"<img src=""stim_listB/dance8.gif""</stim_listB>",,html-keyboard-response,124,476075,0.0-13.0-1.12,30006,List2B,white,man,,,,null,,,,
null,are dancing with each other,,html-keyboard-response,125,478077,0.0-13.0-2.12,30006,List2B,white,man,,,,null,,,,
7965,,,survey-text,126,486043,0.0-13.0-3.12,30006,List2B,white,man,,,,,"{""Q0"":""Mike and Ruth""}","<img src=""stim_listB/dance8.gif""</stim_listB>",are dancing with each other,
null,"<div style=""font-size:60px;"">+</div>",,html-keyboard-response,127,486546,0.0-13.0-0.13,30006,List2B,white,man,,,,null,,,,
null,"<img src=""stim_listB/kiss1.gif""</stim_listB>",,html-keyboard-response,128,488548,0.0-13.0-1.13,30006,List2B,white,man,,,,null,,,,
null,is kissing,,html-keyboard-response,129,490548,0.0-13.0-2.13,30006,List2B,white,man,,,,null,,,,
4825,,,survey-text,130,495374,0.0-13.0-3.13,30006,List2B,white,man,,,,,"{""Q0"":""Luke and Ruth""}","<img src=""stim_listB/kiss1.gif""</stim_listB>",is kissing,
null,"<div style=""font-size:60px;"">+</div>",,html-keyboard-response,131,495876,0.0-13.0-0.14,30006,List2B,white,man,,,,null,,,,
null,"<img src=""stim_listB/talk8.gif""</stim_listB>",,html-keyboard-response,132,497877,0.0-13.0-1.14,30006,List2B,white,man,,,,null,,,,
null,are talking to each other,,html-keyboard-response,133,499877,0.0-13.0-2.14,30006,List2B,white,man,,,,null,,,,
4259,,,survey-text,134,504137,0.0-13.0-3.14,30006,List2B,white,man,,,,,"{""Q0"":""Beth and Ruth""}","<img src=""stim_listB/talk8.gif""</stim_listB>",are talking to each other,
null,"<div style=""font-size:60px;"">+</div>",,html-keyboard-response,135,504639,0.0-13.0-0.15,30006,List2B,white,man,,,,null,,,,
null,"<img src=""stim_listB/shout3.gif""</stim_listB>",,html-keyboard-response,136,506640,0.0-13.0-1.15,30006,List2B,white,man,,,,null,,,,
null,is shouting at,,html-keyboard-response,137,508640,0.0-13.0-2.15,30006,List2B,white,man,,,,null,,,,
4234,,,survey-text,138,512875,0.0-13.0-3.15,30006,List2B,white,man,,,,,"{""Q0"":""Fred and Beth""}","<img src=""stim_listB/shout3.gif""</stim_listB>",is shouting at,
null,"<div style=""font-size:60px;"">+</div>",,html-keyboard-response,139,513378,0.0-13.0-0.16,30006,List2B,white,man,,,,null,,,,
null,"<img src=""stim_listB/meet4.gif""</stim_listB>",,html-keyboard-response,140,515380,0.0-13.0-1.16,30006,List2B,white,man,,,,null,,,,
null,are meeting each other,,html-keyboard-response,141,517382,0.0-13.0-2.16,30006,List2B,white,man,,,,null,,,,
3192,,,survey-text,142,520575,0.0-13.0-3.16,30006,List2B,white,man,,,,,"{""Q0"":""Fred and Beth""}","<img src=""stim_listB/meet4.gif""</stim_listB>",are meeting each other,
null,"<div style=""font-size:60px;"">+</div>",,html-keyboard-response,143,521077,0.0-13.0-0.17,30006,List2B,white,man,,,,null,,,,
null,"<img src=""stim_listB/hug2.gif""</stim_listB>",,html-keyboard-response,144,523078,0.0-13.0-1.17,30006,List2B,white,man,,,,null,,,,
null,are hugging each other,,html-keyboard-response,145,525080,0.0-13.0-2.17,30006,List2B,white,man,,,,null,,,,
3018,,,survey-text,146,528099,0.0-13.0-3.17,30006,List2B,white,man,,,,,"{""Q0"":""Dave and Jane""}","<img src=""stim_listB/hug2.gif""</stim_listB>",are hugging each other,
null,"<div style=""font-size:60px;"">+</div>",,html-keyboard-response,147,528602,0.0-13.0-0.18,30006,List2B,white,man,,,,null,,,,
null,"<img src=""stim_listB/dance5.gif""</stim_listB>",,html-keyboard-response,148,530604,0.0-13.0-1.18,30006,List2B,white,man,,,,null,,,,
null,is dancing with,,html-keyboard-response,149,532606,0.0-13.0-2.18,30006,List2B,white,man,,,,null,,,,
4360,,,survey-text,150,536968,0.0-13.0-3.18,30006,List2B,white,man,,,,,"{""Q0"":""Luke and Mike""}","<img src=""stim_listB/dance5.gif""</stim_listB>",is dancing with,
null,"<div style=""font-size:60px;"">+</div>",,html-keyboard-response,151,537470,0.0-13.0-0.19,30006,List2B,white,man,,,,null,,,,
null,"<img src=""stim_listB/touch3.gif""</stim_listB>",,html-keyboard-response,152,539471,0.0-13.0-1.19,30006,List2B,white,man,,,,null,,,,
null,is touching,,html-keyboard-response,153,541473,0.0-13.0-2.19,30006,List2B,white,man,,,,null,,,,
4145,,,survey-text,154,545618,0.0-13.0-3.19,30006,List2B,white,man,,,,,"{""Q0"":""Mike and Kate""}","<img src=""stim_listB/touch3.gif""</stim_listB>",is touching,
5729,"<img src='img/portrait_matrix_list2.JPG' style='width:900px;height:500px;''></img><p>If you have memorised all the portraits and names and are ready to start, press Continue.</p><p><strong>Please note: Your memory of these faces will be tested 4 times during this experiment.</strong></p>",0,html-button-response,155,551349,0.0-14.0-0.0,30006,List2B,white,man,,,,,,,,
2074,"<img src=""portrait/WM2.jpg""style=""width:400px;height:400px;""></img>",7,html-button-response,156,554426,0.0-14.0-1.0,30006,List2B,white,man,,TRUE,7,,,,,
null,CORRECT,,html-keyboard-response,157,555930,0.0-14.0-2.0-0.0,30006,List2B,white,man,,,,null,,,,
3055,"<img src=""portrait/BW2.jpg""style=""width:400px;height:400px;""></img>",2,html-button-response,158,558987,0.0-14.0-4.0,30006,List2B,white,man,,TRUE,2,,,,,
null,CORRECT,,html-keyboard-response,159,560490,0.0-14.0-5.0-0.0,30006,List2B,white,man,,,,null,,,,
1970,"<img src=""portrait/WW2.jpg""style=""width:400px;height:400px;""></img>",1,html-button-response,160,562462,0.0-14.0-7.0,30006,List2B,white,man,,TRUE,3,,,,,
2683,"<img src=""portrait/WW2.jpg""style=""width:400px;height:400px;""></img>",3,html-button-response,161,566147,0.0-14.0-9.0-0.0,30006,List2B,white,man,,FALSE,3,,,,,
null,CORRECT,,html-keyboard-response,162,567650,0.0-14.0-9.0-1.0-0.0,30006,List2B,white,man,,,,null,,,,
3277,"<img src=""portrait/BM2.jpg""style=""width:400px;height:400px;""></img>",5,html-button-response,163,570928,0.0-14.0-10.0,30006,List2B,white,man,,TRUE,5,,,,,
null,CORRECT,,html-keyboard-response,164,572432,0.0-14.0-11.0-0.0,30006,List2B,white,man,,,,null,,,,
2701,"<img src=""portrait/WM1.jpg""style=""width:400px;height:400px;""></img>",6,html-button-response,165,575135,0.0-14.0-13.0,30006,List2B,white,man,,TRUE,6,,,,,
null,CORRECT,,html-keyboard-response,166,576638,0.0-14.0-14.0-0.0,30006,List2B,white,man,,,,null,,,,
2951,"<img src=""portrait/WW1.jpg""style=""width:400px;height:400px;""></img>",1,html-button-response,167,579591,0.0-14.0-16.0,30006,List2B,white,man,,TRUE,1,,,,,
null,CORRECT,,html-keyboard-response,168,581092,0.0-14.0-17.0-0.0,30006,List2B,white,man,,,,null,,,,
1397,"<img src=""portrait/BM1.jpg""style=""width:400px;height:400px;""></img>",3,html-button-response,169,582493,0.0-14.0-19.0,30006,List2B,white,man,,TRUE,4,,,,,
2284,"<img src=""portrait/BM1.jpg""style=""width:400px;height:400px;""></img>",4,html-button-response,170,585781,0.0-14.0-21.0-0.0,30006,List2B,white,man,,FALSE,4,,,,,
null,CORRECT,,html-keyboard-response,171,587284,0.0-14.0-21.0-1.0-0.0,30006,List2B,white,man,,,,null,,,,
2602,"<img src=""portrait/BW1.jpg""style=""width:400px;height:400px;""></img>",0,html-button-response,172,589889,0.0-14.0-22.0,30006,List2B,white,man,,TRUE,0,,,,,
null,CORRECT,,html-keyboard-response,173,591391,0.0-14.0-23.0-0.0,30006,List2B,white,man,,,,null,,,,
923,<p>You got 6 out of 8 right first time. Press Continue.</p>,0,html-button-response,174,592314,0.0-14.0-25.0,30006,List2B,white,man,,,,,,,,
667,"As you did not score 100%, the memory game will repeat. Press Continue.",0,html-button-response,175,593983,0.0-14.0-26.0-0.0,30006,List2B,white,man,,,,,,,,
1126,"<img src='img/portrait_matrix_list2.JPG' style='width:900px;height:500px;''></img><p>If you have memorised all the portraits and names and are ready to start, press Continue.</p><p><strong>Please note: Your memory of these faces will be tested 4 times during this experiment.</strong></p>",0,html-button-response,176,596111,0.0-14.1-0.1,30006,List2B,white,man,,,,,,,,
1655,"<img src=""portrait/WM2.jpg""style=""width:400px;height:400px;""></img>",7,html-button-response,177,598768,0.0-14.1-1.1,30006,List2B,white,man,,TRUE,7,,,,,
null,CORRECT,,html-keyboard-response,178,600271,0.0-14.1-2.1-0.1,30006,List2B,white,man,,,,null,,,,
3952,"<img src=""portrait/BW2.jpg""style=""width:400px;height:400px;""></img>",2,html-button-response,179,604224,0.0-14.1-4.1,30006,List2B,white,man,,TRUE,2,,,,,
null,CORRECT,,html-keyboard-response,180,605727,0.0-14.1-5.1-0.1,30006,List2B,white,man,,,,null,,,,
3384,"<img src=""portrait/WW2.jpg""style=""width:400px;height:400px;""></img>",3,html-button-response,181,609112,0.0-14.1-7.1,30006,List2B,white,man,,TRUE,3,,,,,
null,CORRECT,,html-keyboard-response,182,610614,0.0-14.1-8.1-0.1,30006,List2B,white,man,,,,null,,,,
1616,"<img src=""portrait/BM2.jpg""style=""width:400px;height:400px;""></img>",5,html-button-response,183,612231,0.0-14.1-10.1,30006,List2B,white,man,,TRUE,5,,,,,
null,CORRECT,,html-keyboard-response,184,613734,0.0-14.1-11.1-0.1,30006,List2B,white,man,,,,null,,,,
3916,"<img src=""portrait/WM1.jpg""style=""width:400px;height:400px;""></img>",6,html-button-response,185,617650,0.0-14.1-13.1,30006,List2B,white,man,,TRUE,6,,,,,
null,CORRECT,,html-keyboard-response,186,619152,0.0-14.1-14.1-0.1,30006,List2B,white,man,,,,null,,,,
5211,"<img src=""portrait/WW1.jpg""style=""width:400px;height:400px;""></img>",1,html-button-response,187,624363,0.0-14.1-16.1,30006,List2B,white,man,,TRUE,1,,,,,
null,CORRECT,,html-keyboard-response,188,625867,0.0-14.1-17.1-0.1,30006,List2B,white,man,,,,null,,,,
2778,"<img src=""portrait/BM1.jpg""style=""width:400px;height:400px;""></img>",4,html-button-response,189,628646,0.0-14.1-19.1,30006,List2B,white,man,,TRUE,4,,,,,
null,CORRECT,,html-keyboard-response,190,630148,0.0-14.1-20.1-0.1,30006,List2B,white,man,,,,null,,,,
2957,"<img src=""portrait/BW1.jpg""style=""width:400px;height:400px;""></img>",0,html-button-response,191,633106,0.0-14.1-22.1,30006,List2B,white,man,,TRUE,0,,,,,
null,CORRECT,,html-keyboard-response,192,634608,0.0-14.1-23.1-0.1,30006,List2B,white,man,,,,null,,,,
883,<p>You got 8 out of 8 right first time. Press Continue.</p>,0,html-button-response,193,635492,0.0-14.1-25.1,30006,List2B,white,man,,,,,,,,
null,"<div style=""font-size:60px;"">+</div>",,html-keyboard-response,194,636995,0.0-15.0-0.0,30006,List2B,white,man,,,,null,,,,
null,"<img src=""stim_listB/talk5.gif""</stim_listB>",,html-keyboard-response,195,638996,0.0-15.0-1.0,30006,List2B,white,man,,,,null,,,,
null,is talking to,,html-keyboard-response,196,640997,0.0-15.0-2.0,30006,List2B,white,man,,,,null,,,,
2897,,,survey-text,197,643895,0.0-15.0-3.0,30006,List2B,white,man,,,,,"{""Q0"":""""}","<img src=""stim_listB/talk5.gif""</stim_listB>",is talking to,
null,"<div style=""font-size:60px;"">+</div>",,html-keyboard-response,198,644397,0.0-15.0-0.1,30006,List2B,white,man,,,,null,,,,
null,"<img src=""stim_listB/argue8.gif""</stim_listB>",,html-keyboard-response,199,646398,0.0-15.0-1.1,30006,List2B,white,man,,,,null,,,,
null,are arguing with each other,,html-keyboard-response,200,648399,0.0-15.0-2.1,30006,List2B,white,man,,,,null,,,,
4938,,,survey-text,201,653340,0.0-15.0-3.1,30006,List2B,white,man,,,,,"{""Q0"":""Fred and Kate""}","<img src=""stim_listB/argue8.gif""</stim_listB>",are arguing with each other,
null,"<div style=""font-size:60px;"">+</div>",,html-keyboard-response,202,653842,0.0-15.0-0.2,30006,List2B,white,man,,,,null,,,,
null,"<img src=""stim_listB/touch6.gif""</stim_listB>",,html-keyboard-response,203,655844,0.0-15.0-1.2,30006,List2B,white,man,,,,null,,,,
null,are touching each other,,html-keyboard-response,204,657845,0.0-15.0-2.2,30006,List2B,white,man,,,,null,,,,
3758,,,survey-text,205,661604,0.0-15.0-3.2,30006,List2B,white,man,,,,,"{""Q0"":""Fred and Luke""}","<img src=""stim_listB/touch6.gif""</stim_listB>",are touching each other,
null,"<div style=""font-size:60px;"">+</div>",,html-keyboard-response,206,662105,0.0-15.0-0.3,30006,List2B,white,man,,,,null,,,,
null,"<img src=""stim_listB/argue5.gif""</stim_listB>",,html-keyboard-response,207,664106,0.0-15.0-1.3,30006,List2B,white,man,,,,null,,,,
null,is arguing with,,html-keyboard-response,208,666107,0.0-15.0-2.3,30006,List2B,white,man,,,,null,,,,
3198,,,survey-text,209,669306,0.0-15.0-3.3,30006,List2B,white,man,,,,,"{""Q0"":""Fred and Dave""}","<img src=""stim_listB/argue5.gif""</stim_listB>",is arguing with,
null,"<div style=""font-size:60px;"">+</div>",,html-keyboard-response,210,669808,0.0-15.0-0.4,30006,List2B,white,man,,,,null,,,,
null,"<img src=""stim_listB/shout6.gif""</stim_listB>",,html-keyboard-response,211,671808,0.0-15.0-1.4,30006,List2B,white,man,,,,null,,,,
null,are shouting at each other,,html-keyboard-response,212,673811,0.0-15.0-2.4,30006,List2B,white,man,,,,null,,,,
8570,,,survey-text,213,682382,0.0-15.0-3.4,30006,List2B,white,man,,,,,"{""Q0"":""Ruth and Kate""}","<img src=""stim_listB/shout6.gif""</stim_listB>",are shouting at each other,
null,"<div style=""font-size:60px;"">+</div>",,html-keyboard-response,214,682884,0.0-15.0-0.5,30006,List2B,white,man,,,,null,,,,
null,"<img src=""stim_listB/dance7.gif""</stim_listB>",,html-keyboard-response,215,684886,0.0-15.0-1.5,30006,List2B,white,man,,,,null,,,,
null,is dancing with,,html-keyboard-response,216,686887,0.0-15.0-2.5,30006,List2B,white,man,,,,null,,,,
3462,,,survey-text,217,690351,0.0-15.0-3.5,30006,List2B,white,man,,,,,"{""Q0"":""Ruth and Kate""}","<img src=""stim_listB/dance7.gif""</stim_listB>",is dancing with,
null,"<div style=""font-size:60px;"">+</div>",,html-keyboard-response,218,690854,0.0-15.0-0.6,30006,List2B,white,man,,,,null,,,,
null,"<img src=""stim_listB/hug8.gif""</stim_listB>",,html-keyboard-response,219,692855,0.0-15.0-1.6,30006,List2B,white,man,,,,null,,,,
null,are hugging each other,,html-keyboard-response,220,694856,0.0-15.0-2.6,30006,List2B,white,man,,,,null,,,,
3525,,,survey-text,221,698382,0.0-15.0-3.6,30006,List2B,white,man,,,,,"{""Q0"":""Jane and Kate""}","<img src=""stim_listB/hug8.gif""</stim_listB>",are hugging each other,
null,"<div style=""font-size:60px;"">+</div>",,html-keyboard-response,222,698884,0.0-15.0-0.7,30006,List2B,white,man,,,,null,,,,
null,"<img src=""stim_listB/fight6.gif""</stim_listB>",,html-keyboard-response,223,700885,0.0-15.0-1.7,30006,List2B,white,man,,,,null,,,,
null,are fighting each other,,html-keyboard-response,224,702886,0.0-15.0-2.7,30006,List2B,white,man,,,,null,,,,
7486,,,survey-text,225,710373,0.0-15.0-3.7,30006,List2B,white,man,,,,,"{""Q0"":""Luke and Fred""}","<img src=""stim_listB/fight6.gif""</stim_listB>",are fighting each other,
null,"<div style=""font-size:60px;"">+</div>",,html-keyboard-response,226,710876,0.0-15.0-0.8,30006,List2B,white,man,,,,null,,,,
null,"<img src=""stim_listB/talk4.gif""</stim_listB>",,html-keyboard-response,227,712879,0.0-15.0-1.8,30006,List2B,white,man,,,,null,,,,
null,are talking to each other,,html-keyboard-response,228,714882,0.0-15.0-2.8,30006,List2B,white,man,,,,null,,,,
5056,,,survey-text,229,719940,0.0-15.0-3.8,30006,List2B,white,man,,,,,"{""Q0"":""Mike and Beth""}","<img src=""stim_listB/talk4.gif""</stim_listB>",are talking to each other,
null,"<div style=""font-size:60px;"">+</div>",,html-keyboard-response,230,720441,0.0-15.0-0.9,30006,List2B,white,man,,,,null,,,,
null,"<img src=""stim_listB/meet3.gif""</stim_listB>",,html-keyboard-response,231,722443,0.0-15.0-1.9,30006,List2B,white,man,,,,null,,,,
null,is meeting,,html-keyboard-response,232,724444,0.0-15.0-2.9,30006,List2B,white,man,,,,null,,,,
3494,,,survey-text,233,727939,0.0-15.0-3.9,30006,List2B,white,man,,,,,"{""Q0"":""Mike and Kate""}","<img src=""stim_listB/meet3.gif""</stim_listB>",is meeting,
null,"<div style=""font-size:60px;"">+</div>",,html-keyboard-response,234,728442,0.0-15.0-0.10,30006,List2B,white,man,,,,null,,,,
null,"<img src=""stim_listB/fight3.gif""</stim_listB>",,html-keyboard-response,235,730445,0.0-15.0-1.10,30006,List2B,white,man,,,,null,,,,
null,is fighting,,html-keyboard-response,236,732447,0.0-15.0-2.10,30006,List2B,white,man,,,,null,,,,
6267,,,survey-text,237,738715,0.0-15.0-3.10,30006,List2B,white,man,,,,,"{""Q0"":""Kate and Mike""}","<img src=""stim_listB/fight3.gif""</stim_listB>",is fighting,
null,"<div style=""font-size:60px;"">+</div>",,html-keyboard-response,238,739218,0.0-15.0-0.11,30006,List2B,white,man,,,,null,,,,
null,"<img src=""stim_listB/fight8.gif""</stim_listB>",,html-keyboard-response,239,741220,0.0-15.0-1.11,30006,List2B,white,man,,,,null,,,,
null,are fighting each other,,html-keyboard-response,240,743221,0.0-15.0-2.11,30006,List2B,white,man,,,,null,,,,
4384,,,survey-text,241,747605,0.0-15.0-3.11,30006,List2B,white,man,,,,,"{""Q0"":""Ruth and Beth""}","<img src=""stim_listB/fight8.gif""</stim_listB>",are fighting each other,
null,"<div style=""font-size:60px;"">+</div>",,html-keyboard-response,242,748106,0.0-15.0-0.12,30006,List2B,white,man,,,,null,,,,
null,"<img src=""stim_listB/kiss3.gif""</stim_listB>",,html-keyboard-response,243,750108,0.0-15.0-1.12,30006,List2B,white,man,,,,null,,,,
null,is kissing,,html-keyboard-response,244,752108,0.0-15.0-2.12,30006,List2B,white,man,,,,null,,,,
4363,,,survey-text,245,756472,0.0-15.0-3.12,30006,List2B,white,man,,,,,"{""Q0"":""Beth and Fred""}","<img src=""stim_listB/kiss3.gif""</stim_listB>",is kissing,
null,"<div style=""font-size:60px;"">+</div>",,html-keyboard-response,246,756973,0.0-15.0-0.13,30006,List2B,white,man,,,,null,,,,
null,"<img src=""stim_listB/kiss4.gif""</stim_listB>",,html-keyboard-response,247,758975,0.0-15.0-1.13,30006,List2B,white,man,,,,null,,,,
null,are kissing each other,,html-keyboard-response,248,760976,0.0-15.0-2.13,30006,List2B,white,man,,,,null,,,,
3675,,,survey-text,249,764653,0.0-15.0-3.13,30006,List2B,white,man,,,,,"{""Q0"":""Kate and Mike""}","<img src=""stim_listB/kiss4.gif""</stim_listB>",are kissing each other,
null,"<div style=""font-size:60px;"">+</div>",,html-keyboard-response,250,765155,0.0-15.0-0.14,30006,List2B,white,man,,,,null,,,,
null,"<img src=""stim_listB/talk7.gif""</stim_listB>",,html-keyboard-response,251,767158,0.0-15.0-1.14,30006,List2B,white,man,,,,null,,,,
null,is talking to,,html-keyboard-response,252,769160,0.0-15.0-2.14,30006,List2B,white,man,,,,null,,,,
3737,,,survey-text,253,772898,0.0-15.0-3.14,30006,List2B,white,man,,,,,"{""Q0"":""Ruth and Kate""}","<img src=""stim_listB/talk7.gif""</stim_listB>",is talking to,
null,"<div style=""font-size:60px;"">+</div>",,html-keyboard-response,254,773401,0.0-15.0-0.15,30006,List2B,white,man,,,,null,,,,
null,"<img src=""stim_listB/talk3.gif""</stim_listB>",,html-keyboard-response,255,775402,0.0-15.0-1.15,30006,List2B,white,man,,,,null,,,,
null,is talking to,,html-keyboard-response,256,777402,0.0-15.0-2.15,30006,List2B,white,man,,,,null,,,,
7777,,,survey-text,257,785181,0.0-15.0-3.15,30006,List2B,white,man,,,,,"{""Q0"":""Beth and Luke""}","<img src=""stim_listB/talk3.gif""</stim_listB>",is talking to,
null,"<div style=""font-size:60px;"">+</div>",,html-keyboard-response,258,785683,0.0-15.0-0.16,30006,List2B,white,man,,,,null,,,,
null,"<img src=""stim_listB/marry4.gif""</stim_listB>",,html-keyboard-response,259,787685,0.0-15.0-1.16,30006,List2B,white,man,,,,null,,,,
null,are marrying each other,,html-keyboard-response,260,789687,0.0-15.0-2.16,30006,List2B,white,man,,,,null,,,,
4699,,,survey-text,261,794389,0.0-15.0-3.16,30006,List2B,white,man,,,,,"{""Q0"":""Fred and Kate""}","<img src=""stim_listB/marry4.gif""</stim_listB>",are marrying each other,
null,"<div style=""font-size:60px;"">+</div>",,html-keyboard-response,262,794891,0.0-15.0-0.17,30006,List2B,white,man,,,,null,,,,
null,"<img src=""stim_listB/argue1.gif""</stim_listB>",,html-keyboard-response,263,796892,0.0-15.0-1.17,30006,List2B,white,man,,,,null,,,,
null,is arguing with,,html-keyboard-response,264,798893,0.0-15.0-2.17,30006,List2B,white,man,,,,null,,,,
3417,,,survey-text,265,802311,0.0-15.0-3.17,30006,List2B,white,man,,,,,"{""Q0"":""Ruth and Dave""}","<img src=""stim_listB/argue1.gif""</stim_listB>",is arguing with,
null,"<div style=""font-size:60px;"">+</div>",,html-keyboard-response,266,802813,0.0-15.0-0.18,30006,List2B,white,man,,,,null,,,,
null,"<img src=""stim_listB/hug4.gif""</stim_listB>",,html-keyboard-response,267,804814,0.0-15.0-1.18,30006,List2B,white,man,,,,null,,,,
null,are hugging each other,,html-keyboard-response,268,806816,0.0-15.0-2.18,30006,List2B,white,man,,,,null,,,,
5538,,,survey-text,269,812355,0.0-15.0-3.18,30006,List2B,white,man,,,,,"{""Q0"":""Fred and Mike""}","<img src=""stim_listB/hug4.gif""</stim_listB>",are hugging each other,
null,"<div style=""font-size:60px;"">+</div>",,html-keyboard-response,270,812857,0.0-15.0-0.19,30006,List2B,white,man,,,,null,,,,
null,"<img src=""stim_listB/fight1.gif""</stim_listB>",,html-keyboard-response,271,814860,0.0-15.0-1.19,30006,List2B,white,man,,,,null,,,,
null,is fighting,,html-keyboard-response,272,816861,0.0-15.0-2.19,30006,List2B,white,man,,,,null,,,,
4841,,,survey-text,273,821702,0.0-15.0-3.19,30006,List2B,white,man,,,,,"{""Q0"":""Dave and Jane""}","<img src=""stim_listB/fight1.gif""</stim_listB>",is fighting,
991,"<img src='img/portrait_matrix_list2.JPG' style='width:900px;height:500px;''></img><p>If you have memorised all the portraits and names and are ready to start, press Continue.</p><p><strong>Please note: Your memory of these faces will be tested 4 times during this experiment.</strong></p>",0,html-button-response,274,822694,0.0-16.0-0.0,30006,List2B,white,man,,,,,,,,
2508,"<img src=""portrait/BM1.jpg""style=""width:400px;height:400px;""></img>",4,html-button-response,275,826205,0.0-16.0-1.0,30006,List2B,white,man,,TRUE,4,,,,,
null,CORRECT,,html-keyboard-response,276,827707,0.0-16.0-2.0-0.0,30006,List2B,white,man,,,,null,,,,
3709,"<img src=""portrait/WM1.jpg""style=""width:400px;height:400px;""></img>",6,html-button-response,277,831418,0.0-16.0-4.0,30006,List2B,white,man,,TRUE,6,,,,,
null,CORRECT,,html-keyboard-response,278,832921,0.0-16.0-5.0-0.0,30006,List2B,white,man,,,,null,,,,
2666,"<img src=""portrait/WW2.jpg""style=""width:400px;height:400px;""></img>",3,html-button-response,279,835588,0.0-16.0-7.0,30006,List2B,white,man,,TRUE,3,,,,,
null,CORRECT,,html-keyboard-response,280,837090,0.0-16.0-8.0-0.0,30006,List2B,white,man,,,,null,,,,
6648,"<img src=""portrait/BW2.jpg""style=""width:400px;height:400px;""></img>",2,html-button-response,281,843740,0.0-16.0-10.0,30006,List2B,white,man,,TRUE,2,,,,,
null,CORRECT,,html-keyboard-response,282,845244,0.0-16.0-11.0-0.0,30006,List2B,white,man,,,,null,,,,
4538,"<img src=""portrait/WM2.jpg""style=""width:400px;height:400px;""></img>",7,html-button-response,283,849786,0.0-16.0-13.0,30006,List2B,white,man,,TRUE,7,,,,,
null,CORRECT,,html-keyboard-response,284,851289,0.0-16.0-14.0-0.0,30006,List2B,white,man,,,,null,,,,
4366,"<img src=""portrait/BW1.jpg""style=""width:400px;height:400px;""></img>",0,html-button-response,285,855658,0.0-16.0-16.0,30006,List2B,white,man,,TRUE,0,,,,,
null,CORRECT,,html-keyboard-response,286,857160,0.0-16.0-17.0-0.0,30006,List2B,white,man,,,,null,,,,
2977,"<img src=""portrait/WW1.jpg""style=""width:400px;height:400px;""></img>",1,html-button-response,287,860138,0.0-16.0-19.0,30006,List2B,white,man,,TRUE,1,,,,,
null,CORRECT,,html-keyboard-response,288,861640,0.0-16.0-20.0-0.0,30006,List2B,white,man,,,,null,,,,
6568,"<img src=""portrait/BM2.jpg""style=""width:400px;height:400px;""></img>",6,html-button-response,289,868210,0.0-16.0-22.0,30006,List2B,white,man,,TRUE,5,,,,,
861,"<img src=""portrait/BM2.jpg""style=""width:400px;height:400px;""></img>",5,html-button-response,290,870072,0.0-16.0-24.0-0.0,30006,List2B,white,man,,FALSE,5,,,,,
null,CORRECT,,html-keyboard-response,291,871577,0.0-16.0-24.0-1.0-0.0,30006,List2B,white,man,,,,null,,,,
812,<p>You got 7 out of 8 right first time. Press Continue.</p>,0,html-button-response,292,872392,0.0-16.0-25.0,30006,List2B,white,man,,,,,,,,
479,"As you did not score 100%, the memory game will repeat. Press Continue.",0,html-button-response,293,873875,0.0-16.0-26.0-0.0,30006,List2B,white,man,,,,,,,,
982,"<img src='img/portrait_matrix_list2.JPG' style='width:900px;height:500px;''></img><p>If you have memorised all the portraits and names and are ready to start, press Continue.</p><p><strong>Please note: Your memory of these faces will be tested 4 times during this experiment.</strong></p>",0,html-button-response,294,875861,0.0-16.1-0.1,30006,List2B,white,man,,,,,,,,
2297,"<img src=""portrait/BM1.jpg""style=""width:400px;height:400px;""></img>",4,html-button-response,295,879158,0.0-16.1-1.1,30006,List2B,white,man,,TRUE,4,,,,,
null,CORRECT,,html-keyboard-response,296,880659,0.0-16.1-2.1-0.1,30006,List2B,white,man,,,,null,,,,
5032,"<img src=""portrait/WM1.jpg""style=""width:400px;height:400px;""></img>",6,html-button-response,297,885692,0.0-16.1-4.1,30006,List2B,white,man,,TRUE,6,,,,,
null,CORRECT,,html-keyboard-response,298,887194,0.0-16.1-5.1-0.1,30006,List2B,white,man,,,,null,,,,
2680,"<img src=""portrait/WW2.jpg""style=""width:400px;height:400px;""></img>",3,html-button-response,299,889876,0.0-16.1-7.1,30006,List2B,white,man,,TRUE,3,,,,,
null,CORRECT,,html-keyboard-response,300,891378,0.0-16.1-8.1-0.1,30006,List2B,white,man,,,,null,,,,
1629,"<img src=""portrait/BW2.jpg""style=""width:400px;height:400px;""></img>",2,html-button-response,301,893008,0.0-16.1-10.1,30006,List2B,white,man,,TRUE,2,,,,,
null,CORRECT,,html-keyboard-response,302,894513,0.0-16.1-11.1-0.1,30006,List2B,white,man,,,,null,,,,
1907,"<img src=""portrait/WM2.jpg""style=""width:400px;height:400px;""></img>",7,html-button-response,303,896422,0.0-16.1-13.1,30006,List2B,white,man,,TRUE,7,,,,,
null,CORRECT,,html-keyboard-response,304,897925,0.0-16.1-14.1-0.1,30006,List2B,white,man,,,,null,,,,
3307,"<img src=""portrait/BW1.jpg""style=""width:400px;height:400px;""></img>",0,html-button-response,305,901234,0.0-16.1-16.1,30006,List2B,white,man,,TRUE,0,,,,,
null,CORRECT,,html-keyboard-response,306,902738,0.0-16.1-17.1-0.1,30006,List2B,white,man,,,,null,,,,
2828,"<img src=""portrait/WW1.jpg""style=""width:400px;height:400px;""></img>",1,html-button-response,307,905568,0.0-16.1-19.1,30006,List2B,white,man,,TRUE,1,,,,,
null,CORRECT,,html-keyboard-response,308,907071,0.0-16.1-20.1-0.1,30006,List2B,white,man,,,,null,,,,
1864,"<img src=""portrait/BM2.jpg""style=""width:400px;height:400px;""></img>",5,html-button-response,309,908938,0.0-16.1-22.1,30006,List2B,white,man,,TRUE,5,,,,,
null,CORRECT,,html-keyboard-response,310,910441,0.0-16.1-23.1-0.1,30006,List2B,white,man,,,,null,,,,
804,<p>You got 8 out of 8 right first time. Press Continue.</p>,0,html-button-response,311,911247,0.0-16.1-25.1,30006,List2B,white,man,,,,,,,,
null,"<div style=""font-size:60px;"">+</div>",,html-keyboard-response,312,912751,0.0-17.0-0.0,30006,List2B,white,man,,,,null,,,,
null,"<img src=""stim_listB/hug5.gif""</stim_listB>",,html-keyboard-response,313,914753,0.0-17.0-1.0,30006,List2B,white,man,,,,null,,,,
null,is hugging,,html-keyboard-response,314,916754,0.0-17.0-2.0,30006,List2B,white,man,,,,null,,,,
3899,,,survey-text,315,920654,0.0-17.0-3.0,30006,List2B,white,man,,,,,"{""Q0"":""Luke and Fred""}","<img src=""stim_listB/hug5.gif""</stim_listB>",is hugging,
null,"<div style=""font-size:60px;"">+</div>",,html-keyboard-response,316,921158,0.0-17.0-0.1,30006,List2B,white,man,,,,null,,,,
null,"<img src=""stim_listB/meet2.gif""</stim_listB>",,html-keyboard-response,317,923159,0.0-17.0-1.1,30006,List2B,white,man,,,,null,,,,
null,are meeting each other,,html-keyboard-response,318,925160,0.0-17.0-2.1,30006,List2B,white,man,,,,null,,,,
5277,,,survey-text,319,930438,0.0-17.0-3.1,30006,List2B,white,man,,,,,"{""Q0"":""Ruth and Luke""}","<img src=""stim_listB/meet2.gif""</stim_listB>",are meeting each other,
null,"<div style=""font-size:60px;"">+</div>",,html-keyboard-response,320,930940,0.0-17.0-0.2,30006,List2B,white,man,,,,null,,,,
null,"<img src=""stim_listB/meet5.gif""</stim_listB>",,html-keyboard-response,321,932941,0.0-17.0-1.2,30006,List2B,white,man,,,,null,,,,
null,is meeting,,html-keyboard-response,322,934942,0.0-17.0-2.2,30006,List2B,white,man,,,,null,,,,
4252,,,survey-text,323,939195,0.0-17.0-3.2,30006,List2B,white,man,,,,,"{""Q0"":""Dave and Mike""}","<img src=""stim_listB/meet5.gif""</stim_listB>",is meeting,
null,"<div style=""font-size:60px;"">+</div>",,html-keyboard-response,324,939698,0.0-17.0-0.3,30006,List2B,white,man,,,,null,,,,
null,"<img src=""stim_listB/shout7.gif""</stim_listB>",,html-keyboard-response,325,941699,0.0-17.0-1.3,30006,List2B,white,man,,,,null,,,,
null,is shouting at,,html-keyboard-response,326,943700,0.0-17.0-2.3,30006,List2B,white,man,,,,null,,,,
4362,,,survey-text,327,948062,0.0-17.0-3.3,30006,List2B,white,man,,,,,"{""Q0"":""Beth and Mike""}","<img src=""stim_listB/shout7.gif""</stim_listB>",is shouting at,
null,"<div style=""font-size:60px;"">+</div>",,html-keyboard-response,328,948566,0.0-17.0-0.4,30006,List2B,white,man,,,,null,,,,
null,"<img src=""stim_listB/shout2.gif""</stim_listB>",,html-keyboard-response,329,950566,0.0-17.0-1.4,30006,List2B,white,man,,,,null,,,,
null,are shouting at each other,,html-keyboard-response,330,952567,0.0-17.0-2.4,30006,List2B,white,man,,,,null,,,,
3800,,,survey-text,331,956367,0.0-17.0-3.4,30006,List2B,white,man,,,,,"{""Q0"":""Dave and Fred""}","<img src=""stim_listB/shout2.gif""</stim_listB>",are shouting at each other,
null,"<div style=""font-size:60px;"">+</div>",,html-keyboard-response,332,956870,0.0-17.0-0.5,30006,List2B,white,man,,,,null,,,,
null,"<img src=""stim_listB/marry1.gif""</stim_listB>",,html-keyboard-response,333,958871,0.0-17.0-1.5,30006,List2B,white,man,,,,null,,,,
null,is marrying,,html-keyboard-response,334,960872,0.0-17.0-2.5,30006,List2B,white,man,,,,null,,,,
4004,,,survey-text,335,964877,0.0-17.0-3.5,30006,List2B,white,man,,,,,"{""Q0"":""Ruth and Beth""}","<img src=""stim_listB/marry1.gif""</stim_listB>",is marrying,
null,"<div style=""font-size:60px;"">+</div>",,html-keyboard-response,336,965378,0.0-17.0-0.6,30006,List2B,white,man,,,,null,,,,
null,"<img src=""stim_listB/fight4.gif""</stim_listB>",,html-keyboard-response,337,967380,0.0-17.0-1.6,30006,List2B,white,man,,,,null,,,,
null,are fighting each other,,html-keyboard-response,338,969380,0.0-17.0-2.6,30006,List2B,white,man,,,,null,,,,
5580,,,survey-text,339,974961,0.0-17.0-3.6,30006,List2B,white,man,,,,,"{""Q0"":""Beth and Fred""}","<img src=""stim_listB/fight4.gif""</stim_listB>",are fighting each other,
null,"<div style=""font-size:60px;"">+</div>",,html-keyboard-response,340,975462,0.0-17.0-0.7,30006,List2B,white,man,,,,null,,,,
null,"<img src=""stim_listB/marry7.gif""</stim_listB>",,html-keyboard-response,341,977463,0.0-17.0-1.7,30006,List2B,white,man,,,,null,,,,
null,is marrying,,html-keyboard-response,342,979464,0.0-17.0-2.7,30006,List2B,white,man,,,,null,,,,
5008,,,survey-text,343,984473,0.0-17.0-3.7,30006,List2B,white,man,,,,,"{""Q0"":""Fred and Kate""}","<img src=""stim_listB/marry7.gif""</stim_listB>",is marrying,
null,"<div style=""font-size:60px;"">+</div>",,html-keyboard-response,344,984975,0.0-17.0-0.8,30006,List2B,white,man,,,,null,,,,
null,"<img src=""stim_listB/dance1.gif""</stim_listB>",,html-keyboard-response,345,986976,0.0-17.0-1.8,30006,List2B,white,man,,,,null,,,,
null,is dancing with,,html-keyboard-response,346,988978,0.0-17.0-2.8,30006,List2B,white,man,,,,null,,,,
4909,,,survey-text,347,993888,0.0-17.0-3.8,30006,List2B,white,man,,,,,"{""Q0"":""Jane and Luke""}","<img src=""stim_listB/dance1.gif""</stim_listB>",is dancing with,
null,"<div style=""font-size:60px;"">+</div>",,html-keyboard-response,348,994389,0.0-17.0-0.9,30006,List2B,white,man,,,,null,,,,
null,"<img src=""stim_listB/dance3.gif""</stim_listB>",,html-keyboard-response,349,996392,0.0-17.0-1.9,30006,List2B,white,man,,,,null,,,,
null,is dancing with,,html-keyboard-response,350,998393,0.0-17.0-2.9,30006,List2B,white,man,,,,null,,,,
3229,,,survey-text,351,1001623,0.0-17.0-3.9,30006,List2B,white,man,,,,,"{""Q0"":""Kate and Fred""}","<img src=""stim_listB/dance3.gif""</stim_listB>",is dancing with,
null,"<div style=""font-size:60px;"">+</div>",,html-keyboard-response,352,1002124,0.0-17.0-0.10,30006,List2B,white,man,,,,null,,,,
null,"<img src=""stim_listB/dance2.gif""</stim_listB>",,html-keyboard-response,353,1004126,0.0-17.0-1.10,30006,List2B,white,man,,,,null,,,,
null,are dancing with each other,,html-keyboard-response,354,1006127,0.0-17.0-2.10,30006,List2B,white,man,,,,null,,,,
4185,,,survey-text,355,1010312,0.0-17.0-3.10,30006,List2B,white,man,,,,,"{""Q0"":""Beth and Ruth""}","<img src=""stim_listB/dance2.gif""</stim_listB>",are dancing with each other,
null,"<div style=""font-size:60px;"">+</div>",,html-keyboard-response,356,1010814,0.0-17.0-0.11,30006,List2B,white,man,,,,null,,,,
null,"<img src=""stim_listB/dance6.gif""</stim_listB>",,html-keyboard-response,357,1012815,0.0-17.0-1.11,30006,List2B,white,man,,,,null,,,,
null,are dancing with each other,,html-keyboard-response,358,1014816,0.0-17.0-2.11,30006,List2B,white,man,,,,null,,,,
3371,,,survey-text,359,1018187,0.0-17.0-3.11,30006,List2B,white,man,,,,,"{""Q0"":""Fred and Dave""}","<img src=""stim_listB/dance6.gif""</stim_listB>",are dancing with each other,
null,"<div style=""font-size:60px;"">+</div>",,html-keyboard-response,360,1018690,0.0-17.0-0.12,30006,List2B,white,man,,,,null,,,,
null,"<img src=""stim_listB/fight2.gif""</stim_listB>",,html-keyboard-response,361,1020692,0.0-17.0-1.12,30006,List2B,white,man,,,,null,,,,
null,are fighting each other,,html-keyboard-response,362,1022693,0.0-17.0-2.12,30006,List2B,white,man,,,,null,,,,
3371,,,survey-text,363,1026064,0.0-17.0-3.12,30006,List2B,white,man,,,,,"{""Q0"":""Ruth and Luke""}","<img src=""stim_listB/fight2.gif""</stim_listB>",are fighting each other,
null,"<div style=""font-size:60px;"">+</div>",,html-keyboard-response,364,1026565,0.0-17.0-0.13,30006,List2B,white,man,,,,null,,,,
null,"<img src=""stim_listB/hug7.gif""</stim_listB>",,html-keyboard-response,365,1028567,0.0-17.0-1.13,30006,List2B,white,man,,,,null,,,,
null,is hugging,,html-keyboard-response,366,1030569,0.0-17.0-2.13,30006,List2B,white,man,,,,null,,,,
3264,,,survey-text,367,1033833,0.0-17.0-3.13,30006,List2B,white,man,,,,,"{""Q0"":""Ruth and Beth""}","<img src=""stim_listB/hug7.gif""</stim_listB>",is hugging,
null,"<div style=""font-size:60px;"">+</div>",,html-keyboard-response,368,1034336,0.0-17.0-0.14,30006,List2B,white,man,,,,null,,,,
null,"<img src=""stim_listB/talk1.gif""</stim_listB>",,html-keyboard-response,369,1036338,0.0-17.0-1.14,30006,List2B,white,man,,,,null,,,,
null,is talking to,,html-keyboard-response,370,1038340,0.0-17.0-2.14,30006,List2B,white,man,,,,null,,,,
4503,,,survey-text,371,1042843,0.0-17.0-3.14,30006,List2B,white,man,,,,,"{""Q0"":""Ruth and Luke""}","<img src=""stim_listB/talk1.gif""</stim_listB>",is talking to,
null,"<div style=""font-size:60px;"">+</div>",,html-keyboard-response,372,1043345,0.0-17.0-0.15,30006,List2B,white,man,,,,null,,,,
null,"<img src=""stim_listB/meet1.gif""</stim_listB>",,html-keyboard-response,373,1045347,0.0-17.0-1.15,30006,List2B,white,man,,,,null,,,,
null,is meeting,,html-keyboard-response,374,1047349,0.0-17.0-2.15,30006,List2B,white,man,,,,null,,,,
4335,,,survey-text,375,1051686,0.0-17.0-3.15,30006,List2B,white,man,,,,,"{""Q0"":""Dave and Jane""}","<img src=""stim_listB/meet1.gif""</stim_listB>",is meeting,
null,"<div style=""font-size:60px;"">+</div>",,html-keyboard-response,376,1052188,0.0-17.0-0.16,30006,List2B,white,man,,,,null,,,,
null,"<img src=""stim_listB/kiss7.gif""</stim_listB>",,html-keyboard-response,377,1054192,0.0-17.0-1.16,30006,List2B,white,man,,,,null,,,,
null,is kissing,,html-keyboard-response,378,1056192,0.0-17.0-2.16,30006,List2B,white,man,,,,null,,,,
4468,,,survey-text,379,1060662,0.0-17.0-3.16,30006,List2B,white,man,,,,,"{""Q0"":""Beth and Ruth""}","<img src=""stim_listB/kiss7.gif""</stim_listB>",is kissing,
null,"<div style=""font-size:60px;"">+</div>",,html-keyboard-response,380,1061164,0.0-17.0-0.17,30006,List2B,white,man,,,,null,,,,
null,"<img src=""stim_listB/marry2.gif""</stim_listB>",,html-keyboard-response,381,1063166,0.0-17.0-1.17,30006,List2B,white,man,,,,null,,,,
null,are marrying each other,,html-keyboard-response,382,1065167,0.0-17.0-2.17,30006,List2B,white,man,,,,null,,,,
6163,,,survey-text,383,1071330,0.0-17.0-3.17,30006,List2B,white,man,,,,,"{""Q0"":""Luke and Jane""}","<img src=""stim_listB/marry2.gif""</stim_listB>",are marrying each other,
null,"<div style=""font-size:60px;"">+</div>",,html-keyboard-response,384,1071833,0.0-17.0-0.18,30006,List2B,white,man,,,,null,,,,
null,"<img src=""stim_listB/hug3.gif""</stim_listB>",,html-keyboard-response,385,1073834,0.0-17.0-1.18,30006,List2B,white,man,,,,null,,,,
null,is hugging,,html-keyboard-response,386,1075837,0.0-17.0-2.18,30006,List2B,white,man,,,,null,,,,
6191,,,survey-text,387,1082028,0.0-17.0-3.18,30006,List2B,white,man,,,,,"{""Q0"":""Beth and Ruth""}","<img src=""stim_listB/hug3.gif""</stim_listB>",is hugging,
null,"<div style=""font-size:60px;"">+</div>",,html-keyboard-response,388,1082530,0.0-17.0-0.19,30006,List2B,white,man,,,,null,,,,
null,"<img src=""stim_listB/fight7.gif""</stim_listB>",,html-keyboard-response,389,1084532,0.0-17.0-1.19,30006,List2B,white,man,,,,null,,,,
null,is fighting,,html-keyboard-response,390,1086533,0.0-17.0-2.19,30006,List2B,white,man,,,,null,,,,
5827,,,survey-text,391,1092362,0.0-17.0-3.19,30006,List2B,white,man,,,,,"{""Q0"":""Ruth and Kate""}","<img src=""stim_listB/fight7.gif""</stim_listB>",is fighting,
4679,"<img src='img/portrait_matrix_list2.JPG' style='width:900px;height:500px;''></img><p>If you have memorised all the portraits and names and are ready to start, press Continue.</p><p><strong>Please note: Your memory of these faces will be tested 4 times during this experiment.</strong></p>",0,html-button-response,392,1097044,0.0-18.0-0.0,30006,List2B,white,man,,,,,,,,
3961,"<img src=""portrait/BW2.jpg""style=""width:400px;height:400px;""></img>",2,html-button-response,393,1102008,0.0-18.0-1.0,30006,List2B,white,man,,TRUE,2,,,,,
null,CORRECT,,html-keyboard-response,394,1103512,0.0-18.0-2.0-0.0,30006,List2B,white,man,,,,null,,,,
2947,"<img src=""portrait/BM2.jpg""style=""width:400px;height:400px;""></img>",5,html-button-response,395,1106460,0.0-18.0-4.0,30006,List2B,white,man,,TRUE,5,,,,,
null,CORRECT,,html-keyboard-response,396,1107962,0.0-18.0-5.0-0.0,30006,List2B,white,man,,,,null,,,,
1732,"<img src=""portrait/WW2.jpg""style=""width:400px;height:400px;""></img>",3,html-button-response,397,1109695,0.0-18.0-7.0,30006,List2B,white,man,,TRUE,3,,,,,
null,CORRECT,,html-keyboard-response,398,1111198,0.0-18.0-8.0-0.0,30006,List2B,white,man,,,,null,,,,
5474,"<img src=""portrait/BW1.jpg""style=""width:400px;height:400px;""></img>",0,html-button-response,399,1116675,0.0-18.0-10.0,30006,List2B,white,man,,TRUE,0,,,,,
null,CORRECT,,html-keyboard-response,400,1118179,0.0-18.0-11.0-0.0,30006,List2B,white,man,,,,null,,,,
2376,"<img src=""portrait/WW1.jpg""style=""width:400px;height:400px;""></img>",1,html-button-response,401,1120557,0.0-18.0-13.0,30006,List2B,white,man,,TRUE,1,,,,,
null,CORRECT,,html-keyboard-response,402,1122062,0.0-18.0-14.0-0.0,30006,List2B,white,man,,,,null,,,,
2141,"<img src=""portrait/BM1.jpg""style=""width:400px;height:400px;""></img>",4,html-button-response,403,1124203,0.0-18.0-16.0,30006,List2B,white,man,,TRUE,4,,,,,
null,CORRECT,,html-keyboard-response,404,1125706,0.0-18.0-17.0-0.0,30006,List2B,white,man,,,,null,,,,
2232,"<img src=""portrait/WM1.jpg""style=""width:400px;height:400px;""></img>",6,html-button-response,405,1127941,0.0-18.0-19.0,30006,List2B,white,man,,TRUE,6,,,,,
null,CORRECT,,html-keyboard-response,406,1129443,0.0-18.0-20.0-0.0,30006,List2B,white,man,,,,null,,,,
1918,"<img src=""portrait/WM2.jpg""style=""width:400px;height:400px;""></img>",7,html-button-response,407,1131362,0.0-18.0-22.0,30006,List2B,white,man,,TRUE,7,,,,,
null,CORRECT,,html-keyboard-response,408,1132864,0.0-18.0-23.0-0.0,30006,List2B,white,man,,,,null,,,,
841,<p>You got 8 out of 8 right first time. Press Continue.</p>,0,html-button-response,409,1133708,0.0-18.0-25.0,30006,List2B,white,man,,,,,,,,
null,"<div style=""font-size:60px;"">+</div>",,html-keyboard-response,410,1135212,0.0-19.0-0.0,30006,List2B,white,man,,,,null,,,,
null,"<img src=""stim_listB/argue3.gif""</stim_listB>",,html-keyboard-response,411,1137214,0.0-19.0-1.0,30006,List2B,white,man,,,,null,,,,
null,is arguing with,,html-keyboard-response,412,1139216,0.0-19.0-2.0,30006,List2B,white,man,,,,null,,,,
32859,,,survey-text,413,1172076,0.0-19.0-3.0,30006,List2B,white,man,,,,,"{""Q0"":""Fred and Dave""}","<img src=""stim_listB/argue3.gif""</stim_listB>",is arguing with,
null,"<div style=""font-size:60px;"">+</div>",,html-keyboard-response,414,1172580,0.0-19.0-0.1,30006,List2B,white,man,,,,null,,,,
null,"<img src=""stim_listB/meet8.gif""</stim_listB>",,html-keyboard-response,415,1174583,0.0-19.0-1.1,30006,List2B,white,man,,,,null,,,,
null,are meeting each other,,html-keyboard-response,416,1176584,0.0-19.0-2.1,30006,List2B,white,man,,,,null,,,,
3590,,,survey-text,417,1180176,0.0-19.0-3.1,30006,List2B,white,man,,,,,"{""Q0"":""Ruth and Beth""}","<img src=""stim_listB/meet8.gif""</stim_listB>",are meeting each other,
null,"<div style=""font-size:60px;"">+</div>",,html-keyboard-response,418,1180680,0.0-19.0-0.2,30006,List2B,white,man,,,,null,,,,
null,"<img src=""stim_listB/hug6.gif""</stim_listB>",,html-keyboard-response,419,1182683,0.0-19.0-1.2,30006,List2B,white,man,,,,null,,,,
null,are hugging each other,,html-keyboard-response,420,1184685,0.0-19.0-2.2,30006,List2B,white,man,,,,null,,,,
4460,,,survey-text,421,1189146,0.0-19.0-3.2,30006,List2B,white,man,,,,,"{""Q0"":""Ruth and Fred""}","<img src=""stim_listB/hug6.gif""</stim_listB>",are hugging each other,
null,"<div style=""font-size:60px;"">+</div>",,html-keyboard-response,422,1189649,0.0-19.0-0.3,30006,List2B,white,man,,,,null,,,,
null,"<img src=""stim_listB/kiss8.gif""</stim_listB>",,html-keyboard-response,423,1191651,0.0-19.0-1.3,30006,List2B,white,man,,,,null,,,,
null,are kissing each other,,html-keyboard-response,424,1193651,0.0-19.0-2.3,30006,List2B,white,man,,,,null,,,,
3316,,,survey-text,425,1196970,0.0-19.0-3.3,30006,List2B,white,man,,,,,"{""Q0"":""Jane and KAte""}","<img src=""stim_listB/kiss8.gif""</stim_listB>",are kissing each other,
null,"<div style=""font-size:60px;"">+</div>",,html-keyboard-response,426,1197472,0.0-19.0-0.4,30006,List2B,white,man,,,,null,,,,
null,"<img src=""stim_listB/hug1.gif""</stim_listB>",,html-keyboard-response,427,1199475,0.0-19.0-1.4,30006,List2B,white,man,,,,null,,,,
null,is hugging,,html-keyboard-response,428,1201476,0.0-19.0-2.4,30006,List2B,white,man,,,,null,,,,
5710,,,survey-text,429,1207188,0.0-19.0-3.4,30006,List2B,white,man,,,,,"{""Q0"":""Luke and Ruth""}","<img src=""stim_listB/hug1.gif""</stim_listB>",is hugging,
null,"<div style=""font-size:60px;"">+</div>",,html-keyboard-response,430,1207689,0.0-19.0-0.5,30006,List2B,white,man,,,,null,,,,
null,"<img src=""stim_listB/touch8.gif""</stim_listB>",,html-keyboard-response,431,1209692,0.0-19.0-1.5,30006,List2B,white,man,,,,null,,,,
null,are touching each other,,html-keyboard-response,432,1211692,0.0-19.0-2.5,30006,List2B,white,man,,,,null,,,,
3965,,,survey-text,433,1215658,0.0-19.0-3.5,30006,List2B,white,man,,,,,"{""Q0"":""Beth and RUth""}","<img src=""stim_listB/touch8.gif""</stim_listB>",are touching each other,
null,"<div style=""font-size:60px;"">+</div>",,html-keyboard-response,434,1216159,0.0-19.0-0.6,30006,List2B,white,man,,,,null,,,,
null,"<img src=""stim_listB/marry8.gif""</stim_listB>",,html-keyboard-response,435,1218160,0.0-19.0-1.6,30006,List2B,white,man,,,,null,,,,
null,are marrying each other,,html-keyboard-response,436,1220162,0.0-19.0-2.6,30006,List2B,white,man,,,,null,,,,
5151,,,survey-text,437,1225313,0.0-19.0-3.6,30006,List2B,white,man,,,,,"{""Q0"":""kate and ruth""}","<img src=""stim_listB/marry8.gif""</stim_listB>",are marrying each other,
null,"<div style=""font-size:60px;"">+</div>",,html-keyboard-response,438,1225815,0.0-19.0-0.7,30006,List2B,white,man,,,,null,,,,
null,"<img src=""stim_listB/touch5.gif""</stim_listB>",,html-keyboard-response,439,1227817,0.0-19.0-1.7,30006,List2B,white,man,,,,null,,,,
null,is touching,,html-keyboard-response,440,1229837,0.0-19.0-2.7,30006,List2B,white,man,,,,null,,,,
6531,,,survey-text,441,1236368,0.0-19.0-3.7,30006,List2B,white,man,,,,,"{""Q0"":""dave and mike""}","<img src=""stim_listB/touch5.gif""</stim_listB>",is touching,
null,"<div style=""font-size:60px;"">+</div>",,html-keyboard-response,442,1236870,0.0-19.0-0.8,30006,List2B,white,man,,,,null,,,,
null,"<img src=""stim_listB/argue2.gif""</stim_listB>",,html-keyboard-response,443,1238872,0.0-19.0-1.8,30006,List2B,white,man,,,,null,,,,
null,are arguing with each other,,html-keyboard-response,444,1240874,0.0-19.0-2.8,30006,List2B,white,man,,,,null,,,,
4267,,,survey-text,445,1245143,0.0-19.0-3.8,30006,List2B,white,man,,,,,"{""Q0"":""jane and luke""}","<img src=""stim_listB/argue2.gif""</stim_listB>",are arguing with each other,
null,"<div style=""font-size:60px;"">+</div>",,html-keyboard-response,446,1245647,0.0-19.0-0.9,30006,List2B,white,man,,,,null,,,,
null,"<img src=""stim_listB/argue7.gif""</stim_listB>",,html-keyboard-response,447,1247648,0.0-19.0-1.9,30006,List2B,white,man,,,,null,,,,
null,is arguing with,,html-keyboard-response,448,1249648,0.0-19.0-2.9,30006,List2B,white,man,,,,null,,,,
4081,,,survey-text,449,1253731,0.0-19.0-3.9,30006,List2B,white,man,,,,,"{""Q0"":""jane and dave""}","<img src=""stim_listB/argue7.gif""</stim_listB>",is arguing with,
null,"<div style=""font-size:60px;"">+</div>",,html-keyboard-response,450,1254235,0.0-19.0-0.10,30006,List2B,white,man,,,,null,,,,
null,"<img src=""stim_listB/shout5.gif""</stim_listB>",,html-keyboard-response,451,1256236,0.0-19.0-1.10,30006,List2B,white,man,,,,null,,,,
null,is shouting at,,html-keyboard-response,452,1258238,0.0-19.0-2.10,30006,List2B,white,man,,,,null,,,,
6217,,,survey-text,453,1264455,0.0-19.0-3.10,30006,List2B,white,man,,,,,"{""Q0"":""Luke and Fred""}","<img src=""stim_listB/shout5.gif""</stim_listB>",is shouting at,
null,"<div style=""font-size:60px;"">+</div>",,html-keyboard-response,454,1264958,0.0-19.0-0.11,30006,List2B,white,man,,,,null,,,,
null,"<img src=""stim_listB/argue4.gif""</stim_listB>",,html-keyboard-response,455,1266960,0.0-19.0-1.11,30006,List2B,white,man,,,,null,,,,
null,are arguing with each other,,html-keyboard-response,456,1268959,0.0-19.0-2.11,30006,List2B,white,man,,,,null,,,,
39302,,,survey-text,457,1308262,0.0-19.0-3.11,30006,List2B,white,man,,,,,"{""Q0"":""Fred and Luke""}","<img src=""stim_listB/argue4.gif""</stim_listB>",are arguing with each other,
null,"<div style=""font-size:60px;"">+</div>",,html-keyboard-response,458,1308764,0.0-19.0-0.12,30006,List2B,white,man,,,,null,,,,
null,"<img src=""stim_listB/meet7.gif""</stim_listB>",,html-keyboard-response,459,1310768,0.0-19.0-1.12,30006,List2B,white,man,,,,null,,,,
null,is meeting,,html-keyboard-response,460,1312770,0.0-19.0-2.12,30006,List2B,white,man,,,,null,,,,
4571,,,survey-text,461,1317343,0.0-19.0-3.12,30006,List2B,white,man,,,,,"{""Q0"":""Kate and Ruth""}","<img src=""stim_listB/meet7.gif""</stim_listB>",is meeting,
null,"<div style=""font-size:60px;"">+</div>",,html-keyboard-response,462,1317846,0.0-19.0-0.13,30006,List2B,white,man,,,,null,,,,
null,"<img src=""stim_listB/meet6.gif""</stim_listB>",,html-keyboard-response,463,1319847,0.0-19.0-1.13,30006,List2B,white,man,,,,null,,,,
null,are meeting each other,,html-keyboard-response,464,1321848,0.0-19.0-2.13,30006,List2B,white,man,,,,null,,,,
4518,,,survey-text,465,1326368,0.0-19.0-3.13,30006,List2B,white,man,,,,,"{""Q0"":""Luke and Jane""}","<img src=""stim_listB/meet6.gif""</stim_listB>",are meeting each other,
null,"<div style=""font-size:60px;"">+</div>",,html-keyboard-response,466,1326871,0.0-19.0-0.14,30006,List2B,white,man,,,,null,,,,
null,"<img src=""stim_listB/kiss5.gif""</stim_listB>",,html-keyboard-response,467,1328871,0.0-19.0-1.14,30006,List2B,white,man,,,,null,,,,
null,is kissing,,html-keyboard-response,468,1330873,0.0-19.0-2.14,30006,List2B,white,man,,,,null,,,,
3805,,,survey-text,469,1334680,0.0-19.0-3.14,30006,List2B,white,man,,,,,"{""Q0"":""Fred and Luke""}","<img src=""stim_listB/kiss5.gif""</stim_listB>",is kissing,
null,"<div style=""font-size:60px;"">+</div>",,html-keyboard-response,470,1335183,0.0-19.0-0.15,30006,List2B,white,man,,,,null,,,,
null,"<img src=""stim_listB/shout8.gif""</stim_listB>",,html-keyboard-response,471,1337185,0.0-19.0-1.15,30006,List2B,white,man,,,,null,,,,
null,are shouting at each other,,html-keyboard-response,472,1339186,0.0-19.0-2.15,30006,List2B,white,man,,,,null,,,,
4826,,,survey-text,473,1344013,0.0-19.0-3.15,30006,List2B,white,man,,,,,"{""Q0"":""Kate and Ruth""}","<img src=""stim_listB/shout8.gif""</stim_listB>",are shouting at each other,
null,"<div style=""font-size:60px;"">+</div>",,html-keyboard-response,474,1344516,0.0-19.0-0.16,30006,List2B,white,man,,,,null,,,,
null,"<img src=""stim_listB/touch4.gif""</stim_listB>",,html-keyboard-response,475,1346517,0.0-19.0-1.16,30006,List2B,white,man,,,,null,,,,
null,are touching each other,,html-keyboard-response,476,1348520,0.0-19.0-2.16,30006,List2B,white,man,,,,null,,,,
6124,,,survey-text,477,1354644,0.0-19.0-3.16,30006,List2B,white,man,,,,,"{""Q0"":""Luke and Beth""}","<img src=""stim_listB/touch4.gif""</stim_listB>",are touching each other,
null,"<div style=""font-size:60px;"">+</div>",,html-keyboard-response,478,1355147,0.0-19.0-0.17,30006,List2B,white,man,,,,null,,,,
null,"<img src=""stim_listB/kiss2.gif""</stim_listB>",,html-keyboard-response,479,1357150,0.0-19.0-1.17,30006,List2B,white,man,,,,null,,,,
null,are kissing each other,,html-keyboard-response,480,1359152,0.0-19.0-2.17,30006,List2B,white,man,,,,null,,,,
4782,,,survey-text,481,1363935,0.0-19.0-3.17,30006,List2B,white,man,,,,,"{""Q0"":""Jane and Dave""}","<img src=""stim_listB/kiss2.gif""</stim_listB>",are kissing each other,
null,"<div style=""font-size:60px;"">+</div>",,html-keyboard-response,482,1364436,0.0-19.0-0.18,30006,List2B,white,man,,,,null,,,,
null,"<img src=""stim_listB/fight5.gif""</stim_listB>",,html-keyboard-response,483,1366438,0.0-19.0-1.18,30006,List2B,white,man,,,,null,,,,
null,is fighting,,html-keyboard-response,484,1368439,0.0-19.0-2.18,30006,List2B,white,man,,,,null,,,,
5254,,,survey-text,485,1373694,0.0-19.0-3.18,30006,List2B,white,man,,,,,"{""Q0"":""Dave and Mike""}","<img src=""stim_listB/fight5.gif""</stim_listB>",is fighting,
null,"<div style=""font-size:60px;"">+</div>",,html-keyboard-response,486,1374195,0.0-19.0-0.19,30006,List2B,white,man,,,,null,,,,
null,"<img src=""stim_listB/marry6.gif""</stim_listB>",,html-keyboard-response,487,1376196,0.0-19.0-1.19,30006,List2B,white,man,,,,null,,,,
null,are marrying each other,,html-keyboard-response,488,1378199,0.0-19.0-2.19,30006,List2B,white,man,,,,null,,,,
4137,,,survey-text,489,1382336,0.0-19.0-3.19,30006,List2B,white,man,,,,,"{""Q0"":""Mike and Luke""}","<img src=""stim_listB/marry6.gif""</stim_listB>",are marrying each other,
971,<p>Thank you for completing that task.</p><p>The final part of this session is a short questionnaire.</p><p>Press Continue.</p>,0,html-button-response,490,1383309,0.0-20.0,30006,List2B,white,man,,,,,,,,
15317,,,survey-text,491,1399630,0.0-21.0,30006,List2B,white,man,,,,,"{""Q0"":""18"",""Q1"":""English"",""Q2"":""English"",""Q3"":""Australia"",""Q4"":""Caucasian"",""Q5"":""Male""}",,,demographics
57646,,,survey-likert,492,1457281,0.0-22.0,30006,List2B,white,man,,,,,"{""Q0"":3,""Q1"":3,""Q2"":4,""Q3"":5,""Q4"":4,""Q5"":"""",""Q6"":3,""Q7"":1,""Q8"":1,""Q9"":1,""Q10"":4,""Q11"":4,""Q12"":3,""Q13"":2}",,,likert_race
48039,,,survey-likert,493,1505325,0.0-23.0,30006,List2B,white,man,,,,,"{""Q0"":3,""Q1"":3,""Q2"":4,""Q3"":5,""Q4"":4,""Q5"":5,""Q6"":3,""Q7"":1,""Q8"":1,""Q9"":2,""Q10"":4,""Q11"":5,""Q12"":4,""Q13"":3}",,,likert_gender
6330,,,survey-text,494,1511658,0.0-24.0,30006,List2B,white,man,,,,,"{""Q0"":""ccc""}",,,worker_id
4315,,,external-html,495,1516661,0.0-25.0,30006,List2B,white,man,debrief.html,,,,,,,
