rt,stimulus,button_pressed,trial_type,trial_index,time_elapsed,internal_node_id,subject,list,ppt_race,ppt_gender,url,first_guess,correct,key_press,responses,image_type,phrase_type,test_part
16770,Welcome to the experiment. Press Continue to begin.,0,html-button-response,0,16780,0.0-0.0,31127,List2A,white,woman,,,,,,,,
11323,,,external-html,1,29269,0.0-1.0,31127,List2A,white,woman,consent.html,,,,,,,
1031,"<p>On the next page, you will see portraits of 8 people and their names.</p><p>Your first task is to take a few minutes to memorise the names of these people.</p><p>You will have to recall their names during the rest of the experiment, so it is</p><p>essential that you try to memorise these people and their names as best as you can.</p><br><p><strong>You will then be tested on your memory of these names and portraits.</strong></p><br><p>The experiment will start after you have completed this memory test.</p><br><p>Ready?</p>",0,html-button-response,2,30304,0.0-2.0,31127,List2A,white,woman,,,,,,,,
29373,"<img src='img/portrait_matrix_list2.JPG' style='width:900px;height:500px;''></img><p>If you have memorised all the portraits and names and are ready to start, press Continue.</p><p><strong>Please note: Your memory of these faces will be tested 4 times during this experiment.</strong></p>",0,html-button-response,3,60700,0.0-3.0-0.0,31127,List2A,white,woman,,,,,,,,
4938,"<img src=""portrait/WM2.jpg""style=""width:400px;height:400px;""></img>",7,html-button-response,4,66644,0.0-3.0-1.0,31127,List2A,white,woman,,TRUE,7,,,,,
null,CORRECT,,html-keyboard-response,5,68164,0.0-3.0-2.0-0.0,31127,List2A,white,woman,,,,null,,,,
4353,"<img src=""portrait/WW2.jpg""style=""width:400px;height:400px;""></img>",3,html-button-response,6,72523,0.0-3.0-4.0,31127,List2A,white,woman,,TRUE,3,,,,,
null,CORRECT,,html-keyboard-response,7,74061,0.0-3.0-5.0-0.0,31127,List2A,white,woman,,,,null,,,,
3278,"<img src=""portrait/WM1.jpg""style=""width:400px;height:400px;""></img>",6,html-button-response,8,77342,0.0-3.0-7.0,31127,List2A,white,woman,,TRUE,6,,,,,
null,CORRECT,,html-keyboard-response,9,78881,0.0-3.0-8.0-0.0,31127,List2A,white,woman,,,,null,,,,
1595,"<img src=""portrait/WW1.jpg""style=""width:400px;height:400px;""></img>",1,html-button-response,10,80481,0.0-3.0-10.0,31127,List2A,white,woman,,TRUE,1,,,,,
null,CORRECT,,html-keyboard-response,11,82019,0.0-3.0-11.0-0.0,31127,List2A,white,woman,,,,null,,,,
3752,"<img src=""portrait/BW2.jpg""style=""width:400px;height:400px;""></img>",2,html-button-response,12,85776,0.0-3.0-13.0,31127,List2A,white,woman,,TRUE,2,,,,,
null,CORRECT,,html-keyboard-response,13,87292,0.0-3.0-14.0-0.0,31127,List2A,white,woman,,,,null,,,,
6946,"<img src=""portrait/BW1.jpg""style=""width:400px;height:400px;""></img>",0,html-button-response,14,94241,0.0-3.0-16.0,31127,List2A,white,woman,,TRUE,0,,,,,
null,CORRECT,,html-keyboard-response,15,95781,0.0-3.0-17.0-0.0,31127,List2A,white,woman,,,,null,,,,
3839,"<img src=""portrait/BM2.jpg""style=""width:400px;height:400px;""></img>",5,html-button-response,16,99623,0.0-3.0-19.0,31127,List2A,white,woman,,TRUE,5,,,,,
null,CORRECT,,html-keyboard-response,17,101162,0.0-3.0-20.0-0.0,31127,List2A,white,woman,,,,null,,,,
2864,"<img src=""portrait/BM1.jpg""style=""width:400px;height:400px;""></img>",4,html-button-response,18,104030,0.0-3.0-22.0,31127,List2A,white,woman,,TRUE,4,,,,,
null,CORRECT,,html-keyboard-response,19,105562,0.0-3.0-23.0-0.0,31127,List2A,white,woman,,,,null,,,,
1320,<p>You got 8 out of 8 right first time. Press Continue.</p>,0,html-button-response,20,106885,0.0-3.0-25.0,31127,List2A,white,woman,,,,,,,,
11940,"<p>In this experiment, you will view photographs of the people from the memory game interacting.</p><p>By using the <strong>exact</strong> phrase given <i>after</i> the photograph appears and recalling the correct names of the people in the photographs, form a sentence describing the interaction. You do not need to capitalise names.</p><p>Type your answer in the space provided. Please complete every sentence before moving onto the next trial.</p><p>You will only have a few seconds to memorise each given photograph and phrase before you can respond, so try your best to focus.</p><p>An example is given below. Press 'Continue' when you are ready.</p><img src='img/speaking_example_v2.jpg' style='width:800px;height:460px;''></img>",0,html-button-response,21,119848,0.0-4.0,31127,List2A,white,woman,,,,,,,,
4254,"<p>Before the experiment starts, you will watch two example trials. Press 'Continue'.</p>",0,html-button-response,22,125108,0.0-5.0,31127,List2A,white,woman,,,,,,,,
null,<img src='img/speaking_WW.gif'></img>,,html-keyboard-response,23,128132,0.0-6.0,31127,List2A,white,woman,,,,null,,,,
null,<p>is speaking to</p>,,html-keyboard-response,24,130152,0.0-7.0,31127,List2A,white,woman,,,,null,,,,
1481,<p><b>Answer:</b> jane is speaking to ruth</p>,0,html-button-response,25,131633,0.0-8.0,31127,List2A,white,woman,,,,,,,,
null,<img src='img/pointing_BM.gif'></img>,,html-keyboard-response,26,134673,0.0-9.0,31127,List2A,white,woman,,,,null,,,,
null,<p>are pointing at each other</p>,,html-keyboard-response,27,136690,0.0-10.0,31127,List2A,white,woman,,,,null,,,,
1184,<p><b>Answer:</b> fred and mike are pointing at each other</p>,0,html-button-response,28,137877,0.0-11.0,31127,List2A,white,woman,,,,,,,,
2189,"<p>Ready to start the experiment?</p><br><p><strong>Remember to describe the picture using a full sentence,</strong></p><p><strong>that combines the names of the people with the given phrase.</strong></p><p><strong>If you do not do this correctly you will not be paid.</strong></p><p><strong> You do not need to capitalise names or use punctuation.</strong></p><br><p>Press 'Continue' to begin.</p>",0,html-button-response,29,141083,0.0-12.0,31127,List2A,white,woman,,,,,,,,
null,"<div style=""font-size:60px;"">+</div>",,html-keyboard-response,30,142607,0.0-13.0-0.0,31127,List2A,white,woman,,,,null,,,,
null,"<img src=""stim_listA/fight2.gif""</stim_listA>",,html-keyboard-response,31,144622,0.0-13.0-1.0,31127,List2A,white,woman,,,,null,,,,
null,are fighting each other,,html-keyboard-response,32,146642,0.0-13.0-2.0,31127,List2A,white,woman,,,,null,,,,
10637,,,survey-text,33,157282,0.0-13.0-3.0,31127,List2A,white,woman,,,,,"{""Q0"":""Luke and Ruth are fighting eachother""}","<img src=""stim_listA/fight2.gif""</stim_listA>",are fighting each other,
null,"<div style=""font-size:60px;"">+</div>",,html-keyboard-response,34,157791,0.0-13.0-0.1,31127,List2A,white,woman,,,,null,,,,
null,"<img src=""stim_listA/argue4.gif""</stim_listA>",,html-keyboard-response,35,159811,0.0-13.0-1.1,31127,List2A,white,woman,,,,null,,,,
null,are arguing with each other,,html-keyboard-response,36,161833,0.0-13.0-2.1,31127,List2A,white,woman,,,,null,,,,
10772,,,survey-text,37,172609,0.0-13.0-3.1,31127,List2A,white,woman,,,,,"{""Q0"":""Fred and Kate are arguing with eachother""}","<img src=""stim_listA/argue4.gif""</stim_listA>",are arguing with each other,
null,"<div style=""font-size:60px;"">+</div>",,html-keyboard-response,38,173133,0.0-13.0-0.2,31127,List2A,white,woman,,,,null,,,,
null,"<img src=""stim_listA/shout5.gif""</stim_listA>",,html-keyboard-response,39,175153,0.0-13.0-1.2,31127,List2A,white,woman,,,,null,,,,
null,is shouting at,,html-keyboard-response,40,177163,0.0-13.0-2.2,31127,List2A,white,woman,,,,null,,,,
11131,,,survey-text,41,188296,0.0-13.0-3.2,31127,List2A,white,woman,,,,,"{""Q0"":""Luke is shouting at Fred""}","<img src=""stim_listA/shout5.gif""</stim_listA>",is shouting at,
null,"<div style=""font-size:60px;"">+</div>",,html-keyboard-response,42,188803,0.0-13.0-0.3,31127,List2A,white,woman,,,,null,,,,
null,"<img src=""stim_listA/dance4.gif""</stim_listA>",,html-keyboard-response,43,190824,0.0-13.0-1.3,31127,List2A,white,woman,,,,null,,,,
null,are dancing with each other,,html-keyboard-response,44,192843,0.0-13.0-2.3,31127,List2A,white,woman,,,,null,,,,
13057,,,survey-text,45,205901,0.0-13.0-3.3,31127,List2A,white,woman,,,,,"{""Q0"":""Beth is dancing with Mike""}","<img src=""stim_listA/dance4.gif""</stim_listA>",are dancing with each other,
null,"<div style=""font-size:60px;"">+</div>",,html-keyboard-response,46,206413,0.0-13.0-0.4,31127,List2A,white,woman,,,,null,,,,
null,"<img src=""stim_listA/kiss2.gif""</stim_listA>",,html-keyboard-response,47,208433,0.0-13.0-1.4,31127,List2A,white,woman,,,,null,,,,
null,are kissing each other,,html-keyboard-response,48,210453,0.0-13.0-2.4,31127,List2A,white,woman,,,,null,,,,
12814,,,survey-text,49,223269,0.0-13.0-3.4,31127,List2A,white,woman,,,,,"{""Q0"":""Jen and Dave are kissing eachother""}","<img src=""stim_listA/kiss2.gif""</stim_listA>",are kissing each other,
null,"<div style=""font-size:60px;"">+</div>",,html-keyboard-response,50,223773,0.0-13.0-0.5,31127,List2A,white,woman,,,,null,,,,
null,"<img src=""stim_listA/shout4.gif""</stim_listA>",,html-keyboard-response,51,225791,0.0-13.0-1.5,31127,List2A,white,woman,,,,null,,,,
null,are shouting at each other,,html-keyboard-response,52,227793,0.0-13.0-2.5,31127,List2A,white,woman,,,,null,,,,
8766,,,survey-text,53,236561,0.0-13.0-3.5,31127,List2A,white,woman,,,,,"{""Q0"":""Mike and Kate are shouting at eachother""}","<img src=""stim_listA/shout4.gif""</stim_listA>",are shouting at each other,
null,"<div style=""font-size:60px;"">+</div>",,html-keyboard-response,54,237118,0.0-13.0-0.6,31127,List2A,white,woman,,,,null,,,,
null,"<img src=""stim_listA/argue7.gif""</stim_listA>",,html-keyboard-response,55,239132,0.0-13.0-1.6,31127,List2A,white,woman,,,,null,,,,
null,is arguing with,,html-keyboard-response,56,241154,0.0-13.0-2.6,31127,List2A,white,woman,,,,null,,,,
10982,,,survey-text,57,252138,0.0-13.0-3.6,31127,List2A,white,woman,,,,,"{""Q0"":""Beth is arguing with Jane""}","<img src=""stim_listA/argue7.gif""</stim_listA>",is arguing with,
null,"<div style=""font-size:60px;"">+</div>",,html-keyboard-response,58,252654,0.0-13.0-0.7,31127,List2A,white,woman,,,,null,,,,
null,"<img src=""stim_listA/kiss6.gif""</stim_listA>",,html-keyboard-response,59,254674,0.0-13.0-1.7,31127,List2A,white,woman,,,,null,,,,
null,are kissing each other,,html-keyboard-response,60,256693,0.0-13.0-2.7,31127,List2A,white,woman,,,,null,,,,
8122,,,survey-text,61,264818,0.0-13.0-3.7,31127,List2A,white,woman,,,,,"{""Q0"":""Dave and Mike are kissing eachother""}","<img src=""stim_listA/kiss6.gif""</stim_listA>",are kissing each other,
null,"<div style=""font-size:60px;"">+</div>",,html-keyboard-response,62,265323,0.0-13.0-0.8,31127,List2A,white,woman,,,,null,,,,
null,"<img src=""stim_listA/fight7.gif""</stim_listA>",,html-keyboard-response,63,267345,0.0-13.0-1.8,31127,List2A,white,woman,,,,null,,,,
null,is fighting,,html-keyboard-response,64,269364,0.0-13.0-2.8,31127,List2A,white,woman,,,,null,,,,
7720,,,survey-text,65,277087,0.0-13.0-3.8,31127,List2A,white,woman,,,,,"{""Q0"":""Jane is fighting Kate""}","<img src=""stim_listA/fight7.gif""</stim_listA>",is fighting,
null,"<div style=""font-size:60px;"">+</div>",,html-keyboard-response,66,277604,0.0-13.0-0.9,31127,List2A,white,woman,,,,null,,,,
null,"<img src=""stim_listA/dance8.gif""</stim_listA>",,html-keyboard-response,67,279614,0.0-13.0-1.9,31127,List2A,white,woman,,,,null,,,,
null,are dancing with each other,,html-keyboard-response,68,281634,0.0-13.0-2.9,31127,List2A,white,woman,,,,null,,,,
11773,,,survey-text,69,293408,0.0-13.0-3.9,31127,List2A,white,woman,,,,,"{""Q0"":""Jane is dancing with Beth""}","<img src=""stim_listA/dance8.gif""</stim_listA>",are dancing with each other,
null,"<div style=""font-size:60px;"">+</div>",,html-keyboard-response,70,293912,0.0-13.0-0.10,31127,List2A,white,woman,,,,null,,,,
null,"<img src=""stim_listA/talk3.gif""</stim_listA>",,html-keyboard-response,71,295934,0.0-13.0-1.10,31127,List2A,white,woman,,,,null,,,,
null,is talking to,,html-keyboard-response,72,297935,0.0-13.0-2.10,31127,List2A,white,woman,,,,null,,,,
10628,,,survey-text,73,308566,0.0-13.0-3.10,31127,List2A,white,woman,,,,,"{""Q0"":""Fred is talking to Kate""}","<img src=""stim_listA/talk3.gif""</stim_listA>",is talking to,
null,"<div style=""font-size:60px;"">+</div>",,html-keyboard-response,74,309074,0.0-13.0-0.11,31127,List2A,white,woman,,,,null,,,,
null,"<img src=""stim_listA/hug4.gif""</stim_listA>",,html-keyboard-response,75,311084,0.0-13.0-1.11,31127,List2A,white,woman,,,,null,,,,
null,are hugging each other,,html-keyboard-response,76,313094,0.0-13.0-2.11,31127,List2A,white,woman,,,,null,,,,
10516,,,survey-text,77,323614,0.0-13.0-3.11,31127,List2A,white,woman,,,,,"{""Q0"":""Mike and Kate are hugging eachother""}","<img src=""stim_listA/hug4.gif""</stim_listA>",are hugging each other,
null,"<div style=""font-size:60px;"">+</div>",,html-keyboard-response,78,324136,0.0-13.0-0.12,31127,List2A,white,woman,,,,null,,,,
null,"<img src=""stim_listA/hug7.gif""</stim_listA>",,html-keyboard-response,79,326154,0.0-13.0-1.12,31127,List2A,white,woman,,,,null,,,,
null,is hugging,,html-keyboard-response,80,328175,0.0-13.0-2.12,31127,List2A,white,woman,,,,null,,,,
6999,,,survey-text,81,335177,0.0-13.0-3.12,31127,List2A,white,woman,,,,,"{""Q0"":""Beth is hugging Jane""}","<img src=""stim_listA/hug7.gif""</stim_listA>",is hugging,
null,"<div style=""font-size:60px;"">+</div>",,html-keyboard-response,82,335695,0.0-13.0-0.13,31127,List2A,white,woman,,,,null,,,,
null,"<img src=""stim_listA/argue3.gif""</stim_listA>",,html-keyboard-response,83,337716,0.0-13.0-1.13,31127,List2A,white,woman,,,,null,,,,
null,is arguing with,,html-keyboard-response,84,339735,0.0-13.0-2.13,31127,List2A,white,woman,,,,null,,,,
12670,,,survey-text,85,352407,0.0-13.0-3.13,31127,List2A,white,woman,,,,,"{""Q0"":""Beth is arguing with Mike""}","<img src=""stim_listA/argue3.gif""</stim_listA>",is arguing with,
null,"<div style=""font-size:60px;"">+</div>",,html-keyboard-response,86,352915,0.0-13.0-0.14,31127,List2A,white,woman,,,,null,,,,
null,"<img src=""stim_listA/touch7.gif""</stim_listA>",,html-keyboard-response,87,354957,0.0-13.0-1.14,31127,List2A,white,woman,,,,null,,,,
null,is touching,,html-keyboard-response,88,356976,0.0-13.0-2.14,31127,List2A,white,woman,,,,null,,,,
9877,,,survey-text,89,366856,0.0-13.0-3.14,31127,List2A,white,woman,,,,,"{""Q0"":""Mike and Dave are dancing""}","<img src=""stim_listA/touch7.gif""</stim_listA>",is touching,
null,"<div style=""font-size:60px;"">+</div>",,html-keyboard-response,90,367375,0.0-13.0-0.15,31127,List2A,white,woman,,,,null,,,,
null,"<img src=""stim_listA/kiss4.gif""</stim_listA>",,html-keyboard-response,91,369395,0.0-13.0-1.15,31127,List2A,white,woman,,,,null,,,,
null,are kissing each other,,html-keyboard-response,92,371416,0.0-13.0-2.15,31127,List2A,white,woman,,,,null,,,,
13911,,,survey-text,93,385328,0.0-13.0-3.15,31127,List2A,white,woman,,,,,"{""Q0"":""Mike and Kate are kissing eachother""}","<img src=""stim_listA/kiss4.gif""</stim_listA>",are kissing each other,
null,"<div style=""font-size:60px;"">+</div>",,html-keyboard-response,94,385835,0.0-13.0-0.16,31127,List2A,white,woman,,,,null,,,,
null,"<img src=""stim_listA/shout8.gif""</stim_listA>",,html-keyboard-response,95,387856,0.0-13.0-1.16,31127,List2A,white,woman,,,,null,,,,
null,are shouting at each other,,html-keyboard-response,96,389875,0.0-13.0-2.16,31127,List2A,white,woman,,,,null,,,,
16765,,,survey-text,97,406642,0.0-13.0-3.16,31127,List2A,white,woman,,,,,"{""Q0"":""Jane and Kate are shouting at eachother""}","<img src=""stim_listA/shout8.gif""</stim_listA>",are shouting at each other,
null,"<div style=""font-size:60px;"">+</div>",,html-keyboard-response,98,407155,0.0-13.0-0.17,31127,List2A,white,woman,,,,null,,,,
null,"<img src=""stim_listA/meet2.gif""</stim_listA>",,html-keyboard-response,99,409175,0.0-13.0-1.17,31127,List2A,white,woman,,,,null,,,,
null,are meeting each other,,html-keyboard-response,100,411195,0.0-13.0-2.17,31127,List2A,white,woman,,,,null,,,,
15993,,,survey-text,101,427190,0.0-13.0-3.17,31127,List2A,white,woman,,,,,"{""Q0"":""Luke and Ruth are greeting eachother""}","<img src=""stim_listA/meet2.gif""</stim_listA>",are meeting each other,
null,"<div style=""font-size:60px;"">+</div>",,html-keyboard-response,102,427697,0.0-13.0-0.18,31127,List2A,white,woman,,,,null,,,,
null,"<img src=""stim_listA/meet5.gif""</stim_listA>",,html-keyboard-response,103,429709,0.0-13.0-1.18,31127,List2A,white,woman,,,,null,,,,
null,is meeting,,html-keyboard-response,104,431715,0.0-13.0-2.18,31127,List2A,white,woman,,,,null,,,,
5413,,,survey-text,105,437131,0.0-13.0-3.18,31127,List2A,white,woman,,,,,"{""Q0"":""Dave is meeting Mike""}","<img src=""stim_listA/meet5.gif""</stim_listA>",is meeting,
null,"<div style=""font-size:60px;"">+</div>",,html-keyboard-response,106,437636,0.0-13.0-0.19,31127,List2A,white,woman,,,,null,,,,
null,"<img src=""stim_listA/talk4.gif""</stim_listA>",,html-keyboard-response,107,439656,0.0-13.0-1.19,31127,List2A,white,woman,,,,null,,,,
null,are talking to each other,,html-keyboard-response,108,441678,0.0-13.0-2.19,31127,List2A,white,woman,,,,null,,,,
9478,,,survey-text,109,451158,0.0-13.0-3.19,31127,List2A,white,woman,,,,,"{""Q0"":""Beth and Mike are talking to eachother""}","<img src=""stim_listA/talk4.gif""</stim_listA>",are talking to each other,
4750,"<img src='img/portrait_matrix_list2.JPG' style='width:900px;height:500px;''></img><p>If you have memorised all the portraits and names and are ready to start, press Continue.</p><p><strong>Please note: Your memory of these faces will be tested 4 times during this experiment.</strong></p>",0,html-button-response,110,455912,0.0-14.0-0.0,31127,List2A,white,woman,,,,,,,,
3973,"<img src=""portrait/BM1.jpg""style=""width:400px;height:400px;""></img>",4,html-button-response,111,460894,0.0-14.0-1.0,31127,List2A,white,woman,,TRUE,4,,,,,
null,CORRECT,,html-keyboard-response,112,462416,0.0-14.0-2.0-0.0,31127,List2A,white,woman,,,,null,,,,
2659,"<img src=""portrait/BW2.jpg""style=""width:400px;height:400px;""></img>",2,html-button-response,113,465080,0.0-14.0-4.0,31127,List2A,white,woman,,TRUE,2,,,,,
null,CORRECT,,html-keyboard-response,114,466606,0.0-14.0-5.0-0.0,31127,List2A,white,woman,,,,null,,,,
1855,"<img src=""portrait/BW1.jpg""style=""width:400px;height:400px;""></img>",0,html-button-response,115,468466,0.0-14.0-7.0,31127,List2A,white,woman,,TRUE,0,,,,,
null,CORRECT,,html-keyboard-response,116,470007,0.0-14.0-8.0-0.0,31127,List2A,white,woman,,,,null,,,,
1129,"<img src=""portrait/WW1.jpg""style=""width:400px;height:400px;""></img>",1,html-button-response,117,471139,0.0-14.0-10.0,31127,List2A,white,woman,,TRUE,1,,,,,
null,CORRECT,,html-keyboard-response,118,472667,0.0-14.0-11.0-0.0,31127,List2A,white,woman,,,,null,,,,
3625,"<img src=""portrait/WM1.jpg""style=""width:400px;height:400px;""></img>",6,html-button-response,119,476294,0.0-14.0-13.0,31127,List2A,white,woman,,TRUE,6,,,,,
null,CORRECT,,html-keyboard-response,120,477827,0.0-14.0-14.0-0.0,31127,List2A,white,woman,,,,null,,,,
2358,"<img src=""portrait/BM2.jpg""style=""width:400px;height:400px;""></img>",5,html-button-response,121,480188,0.0-14.0-16.0,31127,List2A,white,woman,,TRUE,5,,,,,
null,CORRECT,,html-keyboard-response,122,481726,0.0-14.0-17.0-0.0,31127,List2A,white,woman,,,,null,,,,
2469,"<img src=""portrait/WM2.jpg""style=""width:400px;height:400px;""></img>",7,html-button-response,123,484197,0.0-14.0-19.0,31127,List2A,white,woman,,TRUE,7,,,,,
null,CORRECT,,html-keyboard-response,124,485727,0.0-14.0-20.0-0.0,31127,List2A,white,woman,,,,null,,,,
3279,"<img src=""portrait/WW2.jpg""style=""width:400px;height:400px;""></img>",3,html-button-response,125,489008,0.0-14.0-22.0,31127,List2A,white,woman,,TRUE,3,,,,,
null,CORRECT,,html-keyboard-response,126,490516,0.0-14.0-23.0-0.0,31127,List2A,white,woman,,,,null,,,,
1271,<p>You got 8 out of 8 right first time. Press Continue.</p>,0,html-button-response,127,491791,0.0-14.0-25.0,31127,List2A,white,woman,,,,,,,,
null,"<div style=""font-size:60px;"">+</div>",,html-keyboard-response,128,493317,0.0-15.0-0.0,31127,List2A,white,woman,,,,null,,,,
null,"<img src=""stim_listA/shout6.gif""</stim_listA>",,html-keyboard-response,129,495337,0.0-15.0-1.0,31127,List2A,white,woman,,,,null,,,,
null,are shouting at each other,,html-keyboard-response,130,497358,0.0-15.0-2.0,31127,List2A,white,woman,,,,null,,,,
9832,,,survey-text,131,507191,0.0-15.0-3.0,31127,List2A,white,woman,,,,,"{""Q0"":""Dave and Mike are shouting at eachother""}","<img src=""stim_listA/shout6.gif""</stim_listA>",are shouting at each other,
null,"<div style=""font-size:60px;"">+</div>",,html-keyboard-response,132,507697,0.0-15.0-0.1,31127,List2A,white,woman,,,,null,,,,
null,"<img src=""stim_listA/talk6.gif""</stim_listA>",,html-keyboard-response,133,509717,0.0-15.0-1.1,31127,List2A,white,woman,,,,null,,,,
null,are talking to each other,,html-keyboard-response,134,511736,0.0-15.0-2.1,31127,List2A,white,woman,,,,null,,,,
9801,,,survey-text,135,521540,0.0-15.0-3.1,31127,List2A,white,woman,,,,,"{""Q0"":""Fred and Dave are talking to eachother""}","<img src=""stim_listA/talk6.gif""</stim_listA>",are talking to each other,
null,"<div style=""font-size:60px;"">+</div>",,html-keyboard-response,136,522057,0.0-15.0-0.2,31127,List2A,white,woman,,,,null,,,,
null,"<img src=""stim_listA/touch5.gif""</stim_listA>",,html-keyboard-response,137,524078,0.0-15.0-1.2,31127,List2A,white,woman,,,,null,,,,
null,is touching,,html-keyboard-response,138,526096,0.0-15.0-2.2,31127,List2A,white,woman,,,,null,,,,
5079,,,survey-text,139,531179,0.0-15.0-3.2,31127,List2A,white,woman,,,,,"{""Q0"":""Mike is touching Dave""}","<img src=""stim_listA/touch5.gif""</stim_listA>",is touching,
null,"<div style=""font-size:60px;"">+</div>",,html-keyboard-response,140,531699,0.0-15.0-0.3,31127,List2A,white,woman,,,,null,,,,
null,"<img src=""stim_listA/meet6.gif""</stim_listA>",,html-keyboard-response,141,533717,0.0-15.0-1.3,31127,List2A,white,woman,,,,null,,,,
null,are meeting each other,,html-keyboard-response,142,535726,0.0-15.0-2.3,31127,List2A,white,woman,,,,null,,,,
7016,,,survey-text,143,542744,0.0-15.0-3.3,31127,List2A,white,woman,,,,,"{""Q0"":""Luke and Fred are meeting eachother""}","<img src=""stim_listA/meet6.gif""</stim_listA>",are meeting each other,
null,"<div style=""font-size:60px;"">+</div>",,html-keyboard-response,144,543257,0.0-15.0-0.4,31127,List2A,white,woman,,,,null,,,,
null,"<img src=""stim_listA/talk1.gif""</stim_listA>",,html-keyboard-response,145,545278,0.0-15.0-1.4,31127,List2A,white,woman,,,,null,,,,
null,is talking to,,html-keyboard-response,146,547300,0.0-15.0-2.4,31127,List2A,white,woman,,,,null,,,,
5582,,,survey-text,147,552884,0.0-15.0-3.4,31127,List2A,white,woman,,,,,"{""Q0"":""Luke is talking to Jane""}","<img src=""stim_listA/talk1.gif""</stim_listA>",is talking to,
null,"<div style=""font-size:60px;"">+</div>",,html-keyboard-response,148,553388,0.0-15.0-0.5,31127,List2A,white,woman,,,,null,,,,
null,"<img src=""stim_listA/marry2.gif""</stim_listA>",,html-keyboard-response,149,555409,0.0-15.0-1.5,31127,List2A,white,woman,,,,null,,,,
null,are marrying each other,,html-keyboard-response,150,557432,0.0-15.0-2.5,31127,List2A,white,woman,,,,null,,,,
16748,,,survey-text,151,574181,0.0-15.0-3.5,31127,List2A,white,woman,,,,,"{""Q0"":""Luke is marrying Jane""}","<img src=""stim_listA/marry2.gif""</stim_listA>",are marrying each other,
null,"<div style=""font-size:60px;"">+</div>",,html-keyboard-response,152,574689,0.0-15.0-0.6,31127,List2A,white,woman,,,,null,,,,
null,"<img src=""stim_listA/fight8.gif""</stim_listA>",,html-keyboard-response,153,576698,0.0-15.0-1.6,31127,List2A,white,woman,,,,null,,,,
null,are fighting each other,,html-keyboard-response,154,578708,0.0-15.0-2.6,31127,List2A,white,woman,,,,null,,,,
16812,,,survey-text,155,595521,0.0-15.0-3.6,31127,List2A,white,woman,,,,,"{""Q0"":""Beth and Ruth are fighting eachother""}","<img src=""stim_listA/fight8.gif""</stim_listA>",are fighting each other,
null,"<div style=""font-size:60px;"">+</div>",,html-keyboard-response,156,596038,0.0-15.0-0.7,31127,List2A,white,woman,,,,null,,,,
null,"<img src=""stim_listA/touch4.gif""</stim_listA>",,html-keyboard-response,157,598058,0.0-15.0-1.7,31127,List2A,white,woman,,,,null,,,,
null,are touching each other,,html-keyboard-response,158,600078,0.0-15.0-2.7,31127,List2A,white,woman,,,,null,,,,
12577,,,survey-text,159,612656,0.0-15.0-3.7,31127,List2A,white,woman,,,,,"{""Q0"":""Fred and Beth are touching eachother""}","<img src=""stim_listA/touch4.gif""</stim_listA>",are touching each other,
null,"<div style=""font-size:60px;"">+</div>",,html-keyboard-response,160,613178,0.0-15.0-0.8,31127,List2A,white,woman,,,,null,,,,
null,"<img src=""stim_listA/kiss8.gif""</stim_listA>",,html-keyboard-response,161,615198,0.0-15.0-1.8,31127,List2A,white,woman,,,,null,,,,
null,are kissing each other,,html-keyboard-response,162,617218,0.0-15.0-2.8,31127,List2A,white,woman,,,,null,,,,
7573,,,survey-text,163,624792,0.0-15.0-3.8,31127,List2A,white,woman,,,,,"{""Q0"":""Jane and Kate are kissing eachother""}","<img src=""stim_listA/kiss8.gif""</stim_listA>",are kissing each other,
null,"<div style=""font-size:60px;"">+</div>",,html-keyboard-response,164,625299,0.0-15.0-0.9,31127,List2A,white,woman,,,,null,,,,
null,"<img src=""stim_listA/touch8.gif""</stim_listA>",,html-keyboard-response,165,627319,0.0-15.0-1.9,31127,List2A,white,woman,,,,null,,,,
null,are touching each other,,html-keyboard-response,166,629339,0.0-15.0-2.9,31127,List2A,white,woman,,,,null,,,,
8860,,,survey-text,167,638202,0.0-15.0-3.9,31127,List2A,white,woman,,,,,"{""Q0"":""Ruth and Beth are holding hands""}","<img src=""stim_listA/touch8.gif""</stim_listA>",are touching each other,
null,"<div style=""font-size:60px;"">+</div>",,html-keyboard-response,168,638718,0.0-15.0-0.10,31127,List2A,white,woman,,,,null,,,,
null,"<img src=""stim_listA/argue8.gif""</stim_listA>",,html-keyboard-response,169,640739,0.0-15.0-1.10,31127,List2A,white,woman,,,,null,,,,
null,are arguing with each other,,html-keyboard-response,170,642758,0.0-15.0-2.10,31127,List2A,white,woman,,,,null,,,,
11280,,,survey-text,171,654042,0.0-15.0-3.10,31127,List2A,white,woman,,,,,"{""Q0"":""Ruth and Kate are arguing with eachother""}","<img src=""stim_listA/argue8.gif""</stim_listA>",are arguing with each other,
null,"<div style=""font-size:60px;"">+</div>",,html-keyboard-response,172,654550,0.0-15.0-0.11,31127,List2A,white,woman,,,,null,,,,
null,"<img src=""stim_listA/kiss3.gif""</stim_listA>",,html-keyboard-response,173,656568,0.0-15.0-1.11,31127,List2A,white,woman,,,,null,,,,
null,is kissing,,html-keyboard-response,174,658589,0.0-15.0-2.11,31127,List2A,white,woman,,,,null,,,,
9083,,,survey-text,175,667673,0.0-15.0-3.11,31127,List2A,white,woman,,,,,"{""Q0"":""Fred is kissing Beth""}","<img src=""stim_listA/kiss3.gif""</stim_listA>",is kissing,
null,"<div style=""font-size:60px;"">+</div>",,html-keyboard-response,176,668179,0.0-15.0-0.12,31127,List2A,white,woman,,,,null,,,,
null,"<img src=""stim_listA/fight6.gif""</stim_listA>",,html-keyboard-response,177,670200,0.0-15.0-1.12,31127,List2A,white,woman,,,,null,,,,
null,are fighting each other,,html-keyboard-response,178,672221,0.0-15.0-2.12,31127,List2A,white,woman,,,,null,,,,
7019,,,survey-text,179,679242,0.0-15.0-3.12,31127,List2A,white,woman,,,,,"{""Q0"":""Fred and Luke are fighting eachother""}","<img src=""stim_listA/fight6.gif""</stim_listA>",are fighting each other,
null,"<div style=""font-size:60px;"">+</div>",,html-keyboard-response,180,679759,0.0-15.0-0.13,31127,List2A,white,woman,,,,null,,,,
null,"<img src=""stim_listA/argue2.gif""</stim_listA>",,html-keyboard-response,181,681779,0.0-15.0-1.13,31127,List2A,white,woman,,,,null,,,,
null,are arguing with each other,,html-keyboard-response,182,683799,0.0-15.0-2.13,31127,List2A,white,woman,,,,null,,,,
12515,,,survey-text,183,696317,0.0-15.0-3.13,31127,List2A,white,woman,,,,,"{""Q0"":""Jane and Luke are fighting with eachother""}","<img src=""stim_listA/argue2.gif""</stim_listA>",are arguing with each other,
null,"<div style=""font-size:60px;"">+</div>",,html-keyboard-response,184,696839,0.0-15.0-0.14,31127,List2A,white,woman,,,,null,,,,
null,"<img src=""stim_listA/touch1.gif""</stim_listA>",,html-keyboard-response,185,698859,0.0-15.0-1.14,31127,List2A,white,woman,,,,null,,,,
null,is touching,,html-keyboard-response,186,700880,0.0-15.0-2.14,31127,List2A,white,woman,,,,null,,,,
5454,,,survey-text,187,706336,0.0-15.0-3.14,31127,List2A,white,woman,,,,,"{""Q0"":""Dave is touching Jane""}","<img src=""stim_listA/touch1.gif""</stim_listA>",is touching,
null,"<div style=""font-size:60px;"">+</div>",,html-keyboard-response,188,706839,0.0-15.0-0.15,31127,List2A,white,woman,,,,null,,,,
null,"<img src=""stim_listA/dance3.gif""</stim_listA>",,html-keyboard-response,189,708859,0.0-15.0-1.15,31127,List2A,white,woman,,,,null,,,,
null,is dancing with,,html-keyboard-response,190,710877,0.0-15.0-2.15,31127,List2A,white,woman,,,,null,,,,
58183,,,survey-text,191,769063,0.0-15.0-3.15,31127,List2A,white,woman,,,,,"{""Q0"":""Fred is dancing with Kate""}","<img src=""stim_listA/dance3.gif""</stim_listA>",is dancing with,
null,"<div style=""font-size:60px;"">+</div>",,html-keyboard-response,192,769580,0.0-15.0-0.16,31127,List2A,white,woman,,,,null,,,,
null,"<img src=""stim_listA/marry5.gif""</stim_listA>",,html-keyboard-response,193,771599,0.0-15.0-1.16,31127,List2A,white,woman,,,,null,,,,
null,is marrying,,html-keyboard-response,194,773621,0.0-15.0-2.16,31127,List2A,white,woman,,,,null,,,,
4866,,,survey-text,195,778489,0.0-15.0-3.16,31127,List2A,white,woman,,,,,"{""Q0"":""Fred is marrying Dave""}","<img src=""stim_listA/marry5.gif""</stim_listA>",is marrying,
null,"<div style=""font-size:60px;"">+</div>",,html-keyboard-response,196,779001,0.0-15.0-0.17,31127,List2A,white,woman,,,,null,,,,
null,"<img src=""stim_listA/shout2.gif""</stim_listA>",,html-keyboard-response,197,781021,0.0-15.0-1.17,31127,List2A,white,woman,,,,null,,,,
null,are shouting at each other,,html-keyboard-response,198,783030,0.0-15.0-2.17,31127,List2A,white,woman,,,,null,,,,
10833,,,survey-text,199,793866,0.0-15.0-3.17,31127,List2A,white,woman,,,,,"{""Q0"":""Dave and Jane are shouting at eachother""}","<img src=""stim_listA/shout2.gif""</stim_listA>",are shouting at each other,
null,"<div style=""font-size:60px;"">+</div>",,html-keyboard-response,200,794371,0.0-15.0-0.18,31127,List2A,white,woman,,,,null,,,,
null,"<img src=""stim_listA/fight1.gif""</stim_listA>",,html-keyboard-response,201,796391,0.0-15.0-1.18,31127,List2A,white,woman,,,,null,,,,
null,is fighting,,html-keyboard-response,202,798411,0.0-15.0-2.18,31127,List2A,white,woman,,,,null,,,,
13537,,,survey-text,203,811951,0.0-15.0-3.18,31127,List2A,white,woman,,,,,"{""Q0"":""Dave is fighting Jane""}","<img src=""stim_listA/fight1.gif""</stim_listA>",is fighting,
null,"<div style=""font-size:60px;"">+</div>",,html-keyboard-response,204,812462,0.0-15.0-0.19,31127,List2A,white,woman,,,,null,,,,
null,"<img src=""stim_listA/fight3.gif""</stim_listA>",,html-keyboard-response,205,814474,0.0-15.0-1.19,31127,List2A,white,woman,,,,null,,,,
null,is fighting,,html-keyboard-response,206,816485,0.0-15.0-2.19,31127,List2A,white,woman,,,,null,,,,
9049,,,survey-text,207,825538,0.0-15.0-3.19,31127,List2A,white,woman,,,,,"{""Q0"":""Mike is fighting Kate""}","<img src=""stim_listA/fight3.gif""</stim_listA>",is fighting,
4561,"<img src='img/portrait_matrix_list2.JPG' style='width:900px;height:500px;''></img><p>If you have memorised all the portraits and names and are ready to start, press Continue.</p><p><strong>Please note: Your memory of these faces will be tested 4 times during this experiment.</strong></p>",0,html-button-response,208,830104,0.0-16.0-0.0,31127,List2A,white,woman,,,,,,,,
3042,"<img src=""portrait/WW1.jpg""style=""width:400px;height:400px;""></img>",1,html-button-response,209,834156,0.0-16.0-1.0,31127,List2A,white,woman,,TRUE,1,,,,,
null,CORRECT,,html-keyboard-response,210,835692,0.0-16.0-2.0-0.0,31127,List2A,white,woman,,,,null,,,,
1776,"<img src=""portrait/WM1.jpg""style=""width:400px;height:400px;""></img>",6,html-button-response,211,837470,0.0-16.0-4.0,31127,List2A,white,woman,,TRUE,6,,,,,
null,CORRECT,,html-keyboard-response,212,839011,0.0-16.0-5.0-0.0,31127,List2A,white,woman,,,,null,,,,
1911,"<img src=""portrait/WM2.jpg""style=""width:400px;height:400px;""></img>",7,html-button-response,213,840926,0.0-16.0-7.0,31127,List2A,white,woman,,TRUE,7,,,,,
null,CORRECT,,html-keyboard-response,214,842452,0.0-16.0-8.0-0.0,31127,List2A,white,woman,,,,null,,,,
1227,"<img src=""portrait/BW2.jpg""style=""width:400px;height:400px;""></img>",2,html-button-response,215,843683,0.0-16.0-10.0,31127,List2A,white,woman,,TRUE,2,,,,,
null,CORRECT,,html-keyboard-response,216,845212,0.0-16.0-11.0-0.0,31127,List2A,white,woman,,,,null,,,,
2300,"<img src=""portrait/BW1.jpg""style=""width:400px;height:400px;""></img>",0,html-button-response,217,847514,0.0-16.0-13.0,31127,List2A,white,woman,,TRUE,0,,,,,
null,CORRECT,,html-keyboard-response,218,849041,0.0-16.0-14.0-0.0,31127,List2A,white,woman,,,,null,,,,
13428,"<img src=""portrait/WW2.jpg""style=""width:400px;height:400px;""></img>",3,html-button-response,219,862471,0.0-16.0-16.0,31127,List2A,white,woman,,TRUE,3,,,,,
null,CORRECT,,html-keyboard-response,220,863994,0.0-16.0-17.0-0.0,31127,List2A,white,woman,,,,null,,,,
2450,"<img src=""portrait/BM2.jpg""style=""width:400px;height:400px;""></img>",5,html-button-response,221,866447,0.0-16.0-19.0,31127,List2A,white,woman,,TRUE,5,,,,,
null,CORRECT,,html-keyboard-response,222,867971,0.0-16.0-20.0-0.0,31127,List2A,white,woman,,,,null,,,,
3679,"<img src=""portrait/BM1.jpg""style=""width:400px;height:400px;""></img>",4,html-button-response,223,871654,0.0-16.0-22.0,31127,List2A,white,woman,,TRUE,4,,,,,
null,CORRECT,,html-keyboard-response,224,873192,0.0-16.0-23.0-0.0,31127,List2A,white,woman,,,,null,,,,
66169,<p>You got 8 out of 8 right first time. Press Continue.</p>,0,html-button-response,225,939368,0.0-16.0-25.0,31127,List2A,white,woman,,,,,,,,
null,"<div style=""font-size:60px;"">+</div>",,html-keyboard-response,226,940908,0.0-17.0-0.0,31127,List2A,white,woman,,,,null,,,,
null,"<img src=""stim_listA/kiss1.gif""</stim_listA>",,html-keyboard-response,227,942922,0.0-17.0-1.0,31127,List2A,white,woman,,,,null,,,,
null,is kissing,,html-keyboard-response,228,944933,0.0-17.0-2.0,31127,List2A,white,woman,,,,null,,,,
5629,,,survey-text,229,950563,0.0-17.0-3.0,31127,List2A,white,woman,,,,,"{""Q0"":""Luke is kissing Ruth""}","<img src=""stim_listA/kiss1.gif""</stim_listA>",is kissing,
null,"<div style=""font-size:60px;"">+</div>",,html-keyboard-response,230,951073,0.0-17.0-0.1,31127,List2A,white,woman,,,,null,,,,
null,"<img src=""stim_listA/dance7.gif""</stim_listA>",,html-keyboard-response,231,953093,0.0-17.0-1.1,31127,List2A,white,woman,,,,null,,,,
null,is dancing with,,html-keyboard-response,232,955113,0.0-17.0-2.1,31127,List2A,white,woman,,,,null,,,,
8240,,,survey-text,233,963356,0.0-17.0-3.1,31127,List2A,white,woman,,,,,"{""Q0"":""Ruth is dancing with Kate""}","<img src=""stim_listA/dance7.gif""</stim_listA>",is dancing with,
null,"<div style=""font-size:60px;"">+</div>",,html-keyboard-response,234,963872,0.0-17.0-0.2,31127,List2A,white,woman,,,,null,,,,
null,"<img src=""stim_listA/hug1.gif""</stim_listA>",,html-keyboard-response,235,965893,0.0-17.0-1.2,31127,List2A,white,woman,,,,null,,,,
null,is hugging,,html-keyboard-response,236,967913,0.0-17.0-2.2,31127,List2A,white,woman,,,,null,,,,
5126,,,survey-text,237,973041,0.0-17.0-3.2,31127,List2A,white,woman,,,,,"{""Q0"":""Ruth is hugging Luke""}","<img src=""stim_listA/hug1.gif""</stim_listA>",is hugging,
null,"<div style=""font-size:60px;"">+</div>",,html-keyboard-response,238,973554,0.0-17.0-0.3,31127,List2A,white,woman,,,,null,,,,
null,"<img src=""stim_listA/meet1.gif""</stim_listA>",,html-keyboard-response,239,975573,0.0-17.0-1.3,31127,List2A,white,woman,,,,null,,,,
null,is meeting,,html-keyboard-response,240,977594,0.0-17.0-2.3,31127,List2A,white,woman,,,,null,,,,
10272,,,survey-text,241,987868,0.0-17.0-3.3,31127,List2A,white,woman,,,,,"{""Q0"":""Jane is meeting Dave""}","<img src=""stim_listA/meet1.gif""</stim_listA>",is meeting,
null,"<div style=""font-size:60px;"">+</div>",,html-keyboard-response,242,988373,0.0-17.0-0.4,31127,List2A,white,woman,,,,null,,,,
null,"<img src=""stim_listA/meet4.gif""</stim_listA>",,html-keyboard-response,243,990384,0.0-17.0-1.4,31127,List2A,white,woman,,,,null,,,,
null,are meeting each other,,html-keyboard-response,244,992403,0.0-17.0-2.4,31127,List2A,white,woman,,,,null,,,,
6617,,,survey-text,245,999023,0.0-17.0-3.4,31127,List2A,white,woman,,,,,"{""Q0"":""Fred and Beth are meeting eachother""}","<img src=""stim_listA/meet4.gif""</stim_listA>",are meeting each other,
null,"<div style=""font-size:60px;"">+</div>",,html-keyboard-response,246,999533,0.0-17.0-0.5,31127,List2A,white,woman,,,,null,,,,
null,"<img src=""stim_listA/touch3.gif""</stim_listA>",,html-keyboard-response,247,1001553,0.0-17.0-1.5,31127,List2A,white,woman,,,,null,,,,
null,is touching,,html-keyboard-response,248,1003565,0.0-17.0-2.5,31127,List2A,white,woman,,,,null,,,,
5220,,,survey-text,249,1008787,0.0-17.0-3.5,31127,List2A,white,woman,,,,,"{""Q0"":""Mike is touching Kate""}","<img src=""stim_listA/touch3.gif""</stim_listA>",is touching,
null,"<div style=""font-size:60px;"">+</div>",,html-keyboard-response,250,1009294,0.0-17.0-0.6,31127,List2A,white,woman,,,,null,,,,
null,"<img src=""stim_listA/hug2.gif""</stim_listA>",,html-keyboard-response,251,1011314,0.0-17.0-1.6,31127,List2A,white,woman,,,,null,,,,
null,are hugging each other,,html-keyboard-response,252,1013335,0.0-17.0-2.6,31127,List2A,white,woman,,,,null,,,,
24006,,,survey-text,253,1037343,0.0-17.0-3.6,31127,List2A,white,woman,,,,,"{""Q0"":""Jane and Dave are hugging eachother""}","<img src=""stim_listA/hug2.gif""</stim_listA>",are hugging each other,
null,"<div style=""font-size:60px;"">+</div>",,html-keyboard-response,254,1037859,0.0-17.0-0.7,31127,List2A,white,woman,,,,null,,,,
null,"<img src=""stim_listA/talk7.gif""</stim_listA>",,html-keyboard-response,255,1039874,0.0-17.0-1.7,31127,List2A,white,woman,,,,null,,,,
null,is talking to,,html-keyboard-response,256,1041884,0.0-17.0-2.7,31127,List2A,white,woman,,,,null,,,,
5438,,,survey-text,257,1047325,0.0-17.0-3.7,31127,List2A,white,woman,,,,,"{""Q0"":""Kate is talking to Ruth""}","<img src=""stim_listA/talk7.gif""</stim_listA>",is talking to,
null,"<div style=""font-size:60px;"">+</div>",,html-keyboard-response,258,1047844,0.0-17.0-0.8,31127,List2A,white,woman,,,,null,,,,
null,"<img src=""stim_listA/dance6.gif""</stim_listA>",,html-keyboard-response,259,1049864,0.0-17.0-1.8,31127,List2A,white,woman,,,,null,,,,
null,are dancing with each other,,html-keyboard-response,260,1051884,0.0-17.0-2.8,31127,List2A,white,woman,,,,null,,,,
8071,,,survey-text,261,1059956,0.0-17.0-3.8,31127,List2A,white,woman,,,,,"{""Q0"":""Fred and Dave are dancing with eachother""}","<img src=""stim_listA/dance6.gif""</stim_listA>",are dancing with each other,
null,"<div style=""font-size:60px;"">+</div>",,html-keyboard-response,262,1060464,0.0-17.0-0.9,31127,List2A,white,woman,,,,null,,,,
null,"<img src=""stim_listA/argue6.gif""</stim_listA>",,html-keyboard-response,263,1062484,0.0-17.0-1.9,31127,List2A,white,woman,,,,null,,,,
null,are arguing with each other,,html-keyboard-response,264,1064504,0.0-17.0-2.9,31127,List2A,white,woman,,,,null,,,,
11047,,,survey-text,265,1075553,0.0-17.0-3.9,31127,List2A,white,woman,,,,,"{""Q0"":""Luke and Mike are arguing with eachother""}","<img src=""stim_listA/argue6.gif""</stim_listA>",are arguing with each other,
null,"<div style=""font-size:60px;"">+</div>",,html-keyboard-response,266,1076064,0.0-17.0-0.10,31127,List2A,white,woman,,,,null,,,,
null,"<img src=""stim_listA/dance2.gif""</stim_listA>",,html-keyboard-response,267,1078082,0.0-17.0-1.10,31127,List2A,white,woman,,,,null,,,,
null,are dancing with each other,,html-keyboard-response,268,1080084,0.0-17.0-2.10,31127,List2A,white,woman,,,,null,,,,
7301,,,survey-text,269,1087388,0.0-17.0-3.10,31127,List2A,white,woman,,,,,"{""Q0"":""Ruth and Dave are dancing with eachother""}","<img src=""stim_listA/dance2.gif""</stim_listA>",are dancing with each other,
null,"<div style=""font-size:60px;"">+</div>",,html-keyboard-response,270,1087905,0.0-17.0-0.11,31127,List2A,white,woman,,,,null,,,,
null,"<img src=""stim_listA/kiss7.gif""</stim_listA>",,html-keyboard-response,271,1089924,0.0-17.0-1.11,31127,List2A,white,woman,,,,null,,,,
null,is kissing,,html-keyboard-response,272,1091946,0.0-17.0-2.11,31127,List2A,white,woman,,,,null,,,,
6484,,,survey-text,273,1098432,0.0-17.0-3.11,31127,List2A,white,woman,,,,,"{""Q0"":""Ruth is kissing Beth""}","<img src=""stim_listA/kiss7.gif""</stim_listA>",is kissing,
null,"<div style=""font-size:60px;"">+</div>",,html-keyboard-response,274,1098944,0.0-17.0-0.12,31127,List2A,white,woman,,,,null,,,,
null,"<img src=""stim_listA/talk5.gif""</stim_listA>",,html-keyboard-response,275,1100965,0.0-17.0-1.12,31127,List2A,white,woman,,,,null,,,,
null,is talking to,,html-keyboard-response,276,1102985,0.0-17.0-2.12,31127,List2A,white,woman,,,,null,,,,
6620,,,survey-text,277,1109606,0.0-17.0-3.12,31127,List2A,white,woman,,,,,"{""Q0"":""Luke is talking to Mike""}","<img src=""stim_listA/talk5.gif""</stim_listA>",is talking to,
null,"<div style=""font-size:60px;"">+</div>",,html-keyboard-response,278,1110125,0.0-17.0-0.13,31127,List2A,white,woman,,,,null,,,,
null,"<img src=""stim_listA/marry4.gif""</stim_listA>",,html-keyboard-response,279,1112144,0.0-17.0-1.13,31127,List2A,white,woman,,,,null,,,,
null,are marrying each other,,html-keyboard-response,280,1114166,0.0-17.0-2.13,31127,List2A,white,woman,,,,null,,,,
9784,,,survey-text,281,1123952,0.0-17.0-3.13,31127,List2A,white,woman,,,,,"{""Q0"":""Kate and Fred are marrying eachother""}","<img src=""stim_listA/marry4.gif""</stim_listA>",are marrying each other,
null,"<div style=""font-size:60px;"">+</div>",,html-keyboard-response,282,1124465,0.0-17.0-0.14,31127,List2A,white,woman,,,,null,,,,
null,"<img src=""stim_listA/argue1.gif""</stim_listA>",,html-keyboard-response,283,1126485,0.0-17.0-1.14,31127,List2A,white,woman,,,,null,,,,
null,is arguing with,,html-keyboard-response,284,1128507,0.0-17.0-2.14,31127,List2A,white,woman,,,,null,,,,
6159,,,survey-text,285,1134667,0.0-17.0-3.14,31127,List2A,white,woman,,,,,"{""Q0"":""Dave is arguing with Ruth""}","<img src=""stim_listA/argue1.gif""</stim_listA>",is arguing with,
null,"<div style=""font-size:60px;"">+</div>",,html-keyboard-response,286,1135185,0.0-17.0-0.15,31127,List2A,white,woman,,,,null,,,,
null,"<img src=""stim_listA/touch6.gif""</stim_listA>",,html-keyboard-response,287,1137202,0.0-17.0-1.15,31127,List2A,white,woman,,,,null,,,,
null,are touching each other,,html-keyboard-response,288,1139205,0.0-17.0-2.15,31127,List2A,white,woman,,,,null,,,,
6848,,,survey-text,289,1146054,0.0-17.0-3.15,31127,List2A,white,woman,,,,,"{""Q0"":""Fred and Luke are touching eachother""}","<img src=""stim_listA/touch6.gif""</stim_listA>",are touching each other,
null,"<div style=""font-size:60px;"">+</div>",,html-keyboard-response,290,1146568,0.0-17.0-0.16,31127,List2A,white,woman,,,,null,,,,
null,"<img src=""stim_listA/hug6.gif""</stim_listA>",,html-keyboard-response,291,1148585,0.0-17.0-1.16,31127,List2A,white,woman,,,,null,,,,
null,are hugging each other,,html-keyboard-response,292,1150605,0.0-17.0-2.16,31127,List2A,white,woman,,,,null,,,,
6651,,,survey-text,293,1157256,0.0-17.0-3.16,31127,List2A,white,woman,,,,,"{""Q0"":""Dave and Mike are hugging eachother""}","<img src=""stim_listA/hug6.gif""</stim_listA>",are hugging each other,
null,"<div style=""font-size:60px;"">+</div>",,html-keyboard-response,294,1157776,0.0-17.0-0.17,31127,List2A,white,woman,,,,null,,,,
null,"<img src=""stim_listA/shout3.gif""</stim_listA>",,html-keyboard-response,295,1159796,0.0-17.0-1.17,31127,List2A,white,woman,,,,null,,,,
null,is shouting at,,html-keyboard-response,296,1161816,0.0-17.0-2.17,31127,List2A,white,woman,,,,null,,,,
8956,,,survey-text,297,1170774,0.0-17.0-3.17,31127,List2A,white,woman,,,,,"{""Q0"":""Beth is shouting at Fred""}","<img src=""stim_listA/shout3.gif""</stim_listA>",is shouting at,
null,"<div style=""font-size:60px;"">+</div>",,html-keyboard-response,298,1171295,0.0-17.0-0.18,31127,List2A,white,woman,,,,null,,,,
null,"<img src=""stim_listA/hug3.gif""</stim_listA>",,html-keyboard-response,299,1173306,0.0-17.0-1.18,31127,List2A,white,woman,,,,null,,,,
null,is hugging,,html-keyboard-response,300,1175325,0.0-17.0-2.18,31127,List2A,white,woman,,,,null,,,,
6671,,,survey-text,301,1181999,0.0-17.0-3.18,31127,List2A,white,woman,,,,,"{""Q0"":""Beth is hugging Fred""}","<img src=""stim_listA/hug3.gif""</stim_listA>",is hugging,
null,"<div style=""font-size:60px;"">+</div>",,html-keyboard-response,302,1182516,0.0-17.0-0.19,31127,List2A,white,woman,,,,null,,,,
null,"<img src=""stim_listA/kiss5.gif""</stim_listA>",,html-keyboard-response,303,1184535,0.0-17.0-1.19,31127,List2A,white,woman,,,,null,,,,
null,is kissing,,html-keyboard-response,304,1186556,0.0-17.0-2.19,31127,List2A,white,woman,,,,null,,,,
7361,,,survey-text,305,1193920,0.0-17.0-3.19,31127,List2A,white,woman,,,,,"{""Q0"":""Fred is kissing Luke""}","<img src=""stim_listA/kiss5.gif""</stim_listA>",is kissing,
73450,"<img src='img/portrait_matrix_list2.JPG' style='width:900px;height:500px;''></img><p>If you have memorised all the portraits and names and are ready to start, press Continue.</p><p><strong>Please note: Your memory of these faces will be tested 4 times during this experiment.</strong></p>",0,html-button-response,306,1267375,0.0-18.0-0.0,31127,List2A,white,woman,,,,,,,,
2203,"<img src=""portrait/BW1.jpg""style=""width:400px;height:400px;""></img>",0,html-button-response,307,1270589,0.0-18.0-1.0,31127,List2A,white,woman,,TRUE,0,,,,,
null,CORRECT,,html-keyboard-response,308,1272106,0.0-18.0-2.0-0.0,31127,List2A,white,woman,,,,null,,,,
1348,"<img src=""portrait/WW2.jpg""style=""width:400px;height:400px;""></img>",3,html-button-response,309,1273461,0.0-18.0-4.0,31127,List2A,white,woman,,TRUE,3,,,,,
null,CORRECT,,html-keyboard-response,310,1274998,0.0-18.0-5.0-0.0,31127,List2A,white,woman,,,,null,,,,
4257,"<img src=""portrait/BW2.jpg""style=""width:400px;height:400px;""></img>",2,html-button-response,311,1279258,0.0-18.0-7.0,31127,List2A,white,woman,,TRUE,2,,,,,
null,CORRECT,,html-keyboard-response,312,1280788,0.0-18.0-8.0-0.0,31127,List2A,white,woman,,,,null,,,,
1691,"<img src=""portrait/WM2.jpg""style=""width:400px;height:400px;""></img>",7,html-button-response,313,1282481,0.0-18.0-10.0,31127,List2A,white,woman,,TRUE,7,,,,,
null,CORRECT,,html-keyboard-response,314,1284007,0.0-18.0-11.0-0.0,31127,List2A,white,woman,,,,null,,,,
2419,"<img src=""portrait/WM1.jpg""style=""width:400px;height:400px;""></img>",6,html-button-response,315,1286429,0.0-18.0-13.0,31127,List2A,white,woman,,TRUE,6,,,,,
null,CORRECT,,html-keyboard-response,316,1287948,0.0-18.0-14.0-0.0,31127,List2A,white,woman,,,,null,,,,
1609,"<img src=""portrait/BM2.jpg""style=""width:400px;height:400px;""></img>",5,html-button-response,317,1289561,0.0-18.0-16.0,31127,List2A,white,woman,,TRUE,5,,,,,
null,CORRECT,,html-keyboard-response,318,1291089,0.0-18.0-17.0-0.0,31127,List2A,white,woman,,,,null,,,,
2449,"<img src=""portrait/WW1.jpg""style=""width:400px;height:400px;""></img>",1,html-button-response,319,1293542,0.0-18.0-19.0,31127,List2A,white,woman,,TRUE,1,,,,,
null,CORRECT,,html-keyboard-response,320,1295068,0.0-18.0-20.0-0.0,31127,List2A,white,woman,,,,null,,,,
1514,"<img src=""portrait/BM1.jpg""style=""width:400px;height:400px;""></img>",4,html-button-response,321,1296590,0.0-18.0-22.0,31127,List2A,white,woman,,TRUE,4,,,,,
null,CORRECT,,html-keyboard-response,322,1298128,0.0-18.0-23.0-0.0,31127,List2A,white,woman,,,,null,,,,
1508,<p>You got 8 out of 8 right first time. Press Continue.</p>,0,html-button-response,323,1299640,0.0-18.0-25.0,31127,List2A,white,woman,,,,,,,,
null,"<div style=""font-size:60px;"">+</div>",,html-keyboard-response,324,1301167,0.0-19.0-0.0,31127,List2A,white,woman,,,,null,,,,
null,"<img src=""stim_listA/argue5.gif""</stim_listA>",,html-keyboard-response,325,1303188,0.0-19.0-1.0,31127,List2A,white,woman,,,,null,,,,
null,is arguing with,,html-keyboard-response,326,1305207,0.0-19.0-2.0,31127,List2A,white,woman,,,,null,,,,
5217,,,survey-text,327,1310425,0.0-19.0-3.0,31127,List2A,white,woman,,,,,"{""Q0"":""Dave is arguing with Fred""}","<img src=""stim_listA/argue5.gif""</stim_listA>",is arguing with,
null,"<div style=""font-size:60px;"">+</div>",,html-keyboard-response,328,1310928,0.0-19.0-0.1,31127,List2A,white,woman,,,,null,,,,
null,"<img src=""stim_listA/shout1.gif""</stim_listA>",,html-keyboard-response,329,1312948,0.0-19.0-1.1,31127,List2A,white,woman,,,,null,,,,
null,is shouting at,,html-keyboard-response,330,1314969,0.0-19.0-2.1,31127,List2A,white,woman,,,,null,,,,
9743,,,survey-text,331,1324713,0.0-19.0-3.1,31127,List2A,white,woman,,,,,"{""Q0"":""Ruth is shouting at Luke""}","<img src=""stim_listA/shout1.gif""</stim_listA>",is shouting at,
null,"<div style=""font-size:60px;"">+</div>",,html-keyboard-response,332,1325228,0.0-19.0-0.2,31127,List2A,white,woman,,,,null,,,,
null,"<img src=""stim_listA/marry6.gif""</stim_listA>",,html-keyboard-response,333,1327248,0.0-19.0-1.2,31127,List2A,white,woman,,,,null,,,,
null,are marrying each other,,html-keyboard-response,334,1329268,0.0-19.0-2.2,31127,List2A,white,woman,,,,null,,,,
9557,,,survey-text,335,1338826,0.0-19.0-3.2,31127,List2A,white,woman,,,,,"{""Q0"":""Luke and Mike are marrying eachother""}","<img src=""stim_listA/marry6.gif""</stim_listA>",are marrying each other,
null,"<div style=""font-size:60px;"">+</div>",,html-keyboard-response,336,1339349,0.0-19.0-0.3,31127,List2A,white,woman,,,,null,,,,
null,"<img src=""stim_listA/meet8.gif""</stim_listA>",,html-keyboard-response,337,1341368,0.0-19.0-1.3,31127,List2A,white,woman,,,,null,,,,
null,are meeting each other,,html-keyboard-response,338,1343388,0.0-19.0-2.3,31127,List2A,white,woman,,,,null,,,,
12828,,,survey-text,339,1356220,0.0-19.0-3.3,31127,List2A,white,woman,,,,,"{""Q0"":""Beth and Ruth are meeting eachother""}","<img src=""stim_listA/meet8.gif""</stim_listA>",are meeting each other,
null,"<div style=""font-size:60px;"">+</div>",,html-keyboard-response,340,1356738,0.0-19.0-0.4,31127,List2A,white,woman,,,,null,,,,
null,"<img src=""stim_listA/touch2.gif""</stim_listA>",,html-keyboard-response,341,1358756,0.0-19.0-1.4,31127,List2A,white,woman,,,,null,,,,
null,are touching each other,,html-keyboard-response,342,1360759,0.0-19.0-2.4,31127,List2A,white,woman,,,,null,,,,
9401,,,survey-text,343,1370163,0.0-19.0-3.4,31127,List2A,white,woman,,,,,"{""Q0"":""Luke and Ruth are touching eachother""}","<img src=""stim_listA/touch2.gif""</stim_listA>",are touching each other,
null,"<div style=""font-size:60px;"">+</div>",,html-keyboard-response,344,1370679,0.0-19.0-0.5,31127,List2A,white,woman,,,,null,,,,
null,"<img src=""stim_listA/fight4.gif""</stim_listA>",,html-keyboard-response,345,1372699,0.0-19.0-1.5,31127,List2A,white,woman,,,,null,,,,
null,are fighting each other,,html-keyboard-response,346,1374718,0.0-19.0-2.5,31127,List2A,white,woman,,,,null,,,,
6420,,,survey-text,347,1381140,0.0-19.0-3.5,31127,List2A,white,woman,,,,,"{""Q0"":""Fred and Beth are fighting eachother""}","<img src=""stim_listA/fight4.gif""</stim_listA>",are fighting each other,
null,"<div style=""font-size:60px;"">+</div>",,html-keyboard-response,348,1381659,0.0-19.0-0.6,31127,List2A,white,woman,,,,null,,,,
null,"<img src=""stim_listA/talk2.gif""</stim_listA>",,html-keyboard-response,349,1383679,0.0-19.0-1.6,31127,List2A,white,woman,,,,null,,,,
null,are talking to each other,,html-keyboard-response,350,1385699,0.0-19.0-2.6,31127,List2A,white,woman,,,,null,,,,
11887,,,survey-text,351,1397586,0.0-19.0-3.6,31127,List2A,white,woman,,,,,"{""Q0"":""Dave and Ruth are talking to each other""}","<img src=""stim_listA/talk2.gif""</stim_listA>",are talking to each other,
null,"<div style=""font-size:60px;"">+</div>",,html-keyboard-response,352,1398099,0.0-19.0-0.7,31127,List2A,white,woman,,,,null,,,,
null,"<img src=""stim_listA/marry7.gif""</stim_listA>",,html-keyboard-response,353,1400120,0.0-19.0-1.7,31127,List2A,white,woman,,,,null,,,,
null,is marrying,,html-keyboard-response,354,1402139,0.0-19.0-2.7,31127,List2A,white,woman,,,,null,,,,
5118,,,survey-text,355,1407259,0.0-19.0-3.7,31127,List2A,white,woman,,,,,"{""Q0"":""Beth is marrying Ruth""}","<img src=""stim_listA/marry7.gif""</stim_listA>",is marrying,
null,"<div style=""font-size:60px;"">+</div>",,html-keyboard-response,356,1407779,0.0-19.0-0.8,31127,List2A,white,woman,,,,null,,,,
null,"<img src=""stim_listA/hug5.gif""</stim_listA>",,html-keyboard-response,357,1409800,0.0-19.0-1.8,31127,List2A,white,woman,,,,null,,,,
null,is hugging,,html-keyboard-response,358,1411820,0.0-19.0-2.8,31127,List2A,white,woman,,,,null,,,,
5775,,,survey-text,359,1417596,0.0-19.0-3.8,31127,List2A,white,woman,,,,,"{""Q0"":""Luke is hugging Dave""}","<img src=""stim_listA/hug5.gif""</stim_listA>",is hugging,
null,"<div style=""font-size:60px;"">+</div>",,html-keyboard-response,360,1418109,0.0-19.0-0.9,31127,List2A,white,woman,,,,null,,,,
null,"<img src=""stim_listA/talk8.gif""</stim_listA>",,html-keyboard-response,361,1420130,0.0-19.0-1.9,31127,List2A,white,woman,,,,null,,,,
null,are talking to each other,,html-keyboard-response,362,1422150,0.0-19.0-2.9,31127,List2A,white,woman,,,,null,,,,
18451,,,survey-text,363,1440605,0.0-19.0-3.9,31127,List2A,white,woman,,,,,"{""Q0"":""Beth and Jane are talking to each other""}","<img src=""stim_listA/talk8.gif""</stim_listA>",are talking to each other,
null,"<div style=""font-size:60px;"">+</div>",,html-keyboard-response,364,1441110,0.0-19.0-0.10,31127,List2A,white,woman,,,,null,,,,
null,"<img src=""stim_listA/hug8.gif""</stim_listA>",,html-keyboard-response,365,1443130,0.0-19.0-1.10,31127,List2A,white,woman,,,,null,,,,
null,are hugging each other,,html-keyboard-response,366,1445150,0.0-19.0-2.10,31127,List2A,white,woman,,,,null,,,,
9824,,,survey-text,367,1454978,0.0-19.0-3.10,31127,List2A,white,woman,,,,,"{""Q0"":""Kate and Jane are hugging each other""}","<img src=""stim_listA/hug8.gif""</stim_listA>",are hugging each other,
null,"<div style=""font-size:60px;"">+</div>",,html-keyboard-response,368,1455499,0.0-19.0-0.11,31127,List2A,white,woman,,,,null,,,,
null,"<img src=""stim_listA/dance1.gif""</stim_listA>",,html-keyboard-response,369,1457519,0.0-19.0-1.11,31127,List2A,white,woman,,,,null,,,,
null,is dancing with,,html-keyboard-response,370,1459539,0.0-19.0-2.11,31127,List2A,white,woman,,,,null,,,,
11972,,,survey-text,371,1471515,0.0-19.0-3.11,31127,List2A,white,woman,,,,,"{""Q0"":""Jane and Luke are hugging""}","<img src=""stim_listA/dance1.gif""</stim_listA>",is dancing with,
null,"<div style=""font-size:60px;"">+</div>",,html-keyboard-response,372,1472021,0.0-19.0-0.12,31127,List2A,white,woman,,,,null,,,,
null,"<img src=""stim_listA/marry1.gif""</stim_listA>",,html-keyboard-response,373,1474041,0.0-19.0-1.12,31127,List2A,white,woman,,,,null,,,,
null,is marrying,,html-keyboard-response,374,1476061,0.0-19.0-2.12,31127,List2A,white,woman,,,,null,,,,
10439,,,survey-text,375,1486501,0.0-19.0-3.12,31127,List2A,white,woman,,,,,"{""Q0"":""Dave is marrying Ruth""}","<img src=""stim_listA/marry1.gif""</stim_listA>",is marrying,
null,"<div style=""font-size:60px;"">+</div>",,html-keyboard-response,376,1487011,0.0-19.0-0.13,31127,List2A,white,woman,,,,null,,,,
null,"<img src=""stim_listA/shout7.gif""</stim_listA>",,html-keyboard-response,377,1489031,0.0-19.0-1.13,31127,List2A,white,woman,,,,null,,,,
null,is shouting at,,html-keyboard-response,378,1491051,0.0-19.0-2.13,31127,List2A,white,woman,,,,null,,,,
5955,,,survey-text,379,1497008,0.0-19.0-3.13,31127,List2A,white,woman,,,,,"{""Q0"":""Beth is shouting at Ruth""}","<img src=""stim_listA/shout7.gif""</stim_listA>",is shouting at,
null,"<div style=""font-size:60px;"">+</div>",,html-keyboard-response,380,1497510,0.0-19.0-0.14,31127,List2A,white,woman,,,,null,,,,
null,"<img src=""stim_listA/marry3.gif""</stim_listA>",,html-keyboard-response,381,1499531,0.0-19.0-1.14,31127,List2A,white,woman,,,,null,,,,
null,is marrying,,html-keyboard-response,382,1501540,0.0-19.0-2.14,31127,List2A,white,woman,,,,null,,,,
12147,,,survey-text,383,1513688,0.0-19.0-3.14,31127,List2A,white,woman,,,,,"{""Q0"":""Mike is marrying Beth""}","<img src=""stim_listA/marry3.gif""</stim_listA>",is marrying,
null,"<div style=""font-size:60px;"">+</div>",,html-keyboard-response,384,1514200,0.0-19.0-0.15,31127,List2A,white,woman,,,,null,,,,
null,"<img src=""stim_listA/meet7.gif""</stim_listA>",,html-keyboard-response,385,1516222,0.0-19.0-1.15,31127,List2A,white,woman,,,,null,,,,
null,is meeting,,html-keyboard-response,386,1518241,0.0-19.0-2.15,31127,List2A,white,woman,,,,null,,,,
6455,,,survey-text,387,1524699,0.0-19.0-3.15,31127,List2A,white,woman,,,,,"{""Q0"":""Kate is meeting Jane""}","<img src=""stim_listA/meet7.gif""</stim_listA>",is meeting,
null,"<div style=""font-size:60px;"">+</div>",,html-keyboard-response,388,1525220,0.0-19.0-0.16,31127,List2A,white,woman,,,,null,,,,
null,"<img src=""stim_listA/meet3.gif""</stim_listA>",,html-keyboard-response,389,1527242,0.0-19.0-1.16,31127,List2A,white,woman,,,,null,,,,
null,is meeting,,html-keyboard-response,390,1529261,0.0-19.0-2.16,31127,List2A,white,woman,,,,null,,,,
9872,,,survey-text,391,1539135,0.0-19.0-3.16,31127,List2A,white,woman,,,,,"{""Q0"":""Kate is meeting Mike""}","<img src=""stim_listA/meet3.gif""</stim_listA>",is meeting,
null,"<div style=""font-size:60px;"">+</div>",,html-keyboard-response,392,1539652,0.0-19.0-0.17,31127,List2A,white,woman,,,,null,,,,
null,"<img src=""stim_listA/dance5.gif""</stim_listA>",,html-keyboard-response,393,1541664,0.0-19.0-1.17,31127,List2A,white,woman,,,,null,,,,
null,is dancing with,,html-keyboard-response,394,1543671,0.0-19.0-2.17,31127,List2A,white,woman,,,,null,,,,
6002,,,survey-text,395,1549676,0.0-19.0-3.17,31127,List2A,white,woman,,,,,"{""Q0"":""Luke is dancing with Mike""}","<img src=""stim_listA/dance5.gif""</stim_listA>",is dancing with,
null,"<div style=""font-size:60px;"">+</div>",,html-keyboard-response,396,1550190,0.0-19.0-0.18,31127,List2A,white,woman,,,,null,,,,
null,"<img src=""stim_listA/marry8.gif""</stim_listA>",,html-keyboard-response,397,1552191,0.0-19.0-1.18,31127,List2A,white,woman,,,,null,,,,
null,are marrying each other,,html-keyboard-response,398,1554200,0.0-19.0-2.18,31127,List2A,white,woman,,,,null,,,,
7785,,,survey-text,399,1561986,0.0-19.0-3.18,31127,List2A,white,woman,,,,,"{""Q0"":""Kate and Jane are marrying eachtoher""}","<img src=""stim_listA/marry8.gif""</stim_listA>",are marrying each other,
null,"<div style=""font-size:60px;"">+</div>",,html-keyboard-response,400,1562491,0.0-19.0-0.19,31127,List2A,white,woman,,,,null,,,,
null,"<img src=""stim_listA/fight5.gif""</stim_listA>",,html-keyboard-response,401,1564501,0.0-19.0-1.19,31127,List2A,white,woman,,,,null,,,,
null,is fighting,,html-keyboard-response,402,1566522,0.0-19.0-2.19,31127,List2A,white,woman,,,,null,,,,
7686,,,survey-text,403,1574209,0.0-19.0-3.19,31127,List2A,white,woman,,,,,"{""Q0"":""Dave is fighting Mike""}","<img src=""stim_listA/fight5.gif""</stim_listA>",is fighting,
1082,<p>Thank you for completing that task.</p><p>The final part of this session is a short questionnaire.</p><p>Press Continue.</p>,0,html-button-response,404,1575292,0.0-20.0,31127,List2A,white,woman,,,,,,,,
33294,,,survey-text,405,1609599,0.0-21.0,31127,List2A,white,woman,,,,,"{""Q0"":""23"",""Q1"":""English"",""Q2"":""English"",""Q3"":""United Kingdom"",""Q4"":""White British"",""Q5"":""Female""}",,,demographics
31902,,,survey-likert,406,1641513,0.0-22.0,31127,List2A,white,woman,,,,,"{""Q0"":3,""Q1"":3,""Q2"":3,""Q3"":3,""Q4"":3,""Q5"":3,""Q6"":3,""Q7"":3,""Q8"":3,""Q9"":3,""Q10"":3,""Q11"":3,""Q12"":3,""Q13"":3}",,,likert_race
51742,,,survey-likert,407,1693289,0.0-23.0,31127,List2A,white,woman,,,,,"{""Q0"":6,""Q1"":6,""Q2"":6,""Q3"":6,""Q4"":6,""Q5"":1,""Q6"":6,""Q7"":4,""Q8"":6,""Q9"":6,""Q10"":1,""Q11"":2,""Q12"":4,""Q13"":3}",,,likert_gender
3931,,,survey-text,408,1697252,0.0-24.0,31127,List2A,white,woman,,,,,"{""Q0"":""ccc""}",,,worker_id
2340,,,external-html,409,1699726,0.0-25.0,31127,List2A,white,woman,debrief.html,,,,,,,
