rt,stimulus,button_pressed,trial_type,trial_index,time_elapsed,internal_node_id,subject,list,ppt_race,ppt_gender,url,first_guess,correct,key_press,responses,image_type,phrase_type,test_part
2742,Welcome to the experiment. Press Continue to begin.,0,html-button-response,0,2835,0.0-0.0,3154,List1B,black,man,,,,,,,,
11850,,,external-html,1,15859,0.0-1.0,3154,List1B,black,man,consent.html,,,,,,,
166505,"<p>On the next page, you will see portraits of 8 people and their names.</p><p>Your first task is to take a few minutes to memorise the names of these people.</p><p>You will have to recall their names during the rest of the experiment, so it is</p><p>essential that you try to memorise these people and their names as best as you can.</p><br><p><strong>You will then be tested on your memory of these names and portraits.</strong></p><br><p>The experiment will start after you have completed this memory test.</p><br><p>Ready?</p>",0,html-button-response,2,182368,0.0-2.0,3154,List1B,black,man,,,,,,,,
17322,"<img src='img/portrait_matrix_list1.JPG' style='width:900px;height:500px;''></img><p>If you have memorised all the portraits and names and are ready to start, press Continue.</p><p><strong>Please note: Your memory of these faces will be tested 4 times during this experiment.</strong></p>",0,html-button-response,3,200690,0.0-3.0-0.0,3154,List1B,black,man,,,,,,,,
5213,"<img src=""portrait/BW2.jpg""style=""width:400px;height:400px;""></img>",2,html-button-response,4,206905,0.0-3.0-1.0,3154,List1B,black,man,,TRUE,2,,,,,
null,CORRECT,,html-keyboard-response,5,208407,0.0-3.0-2.0-0.0,3154,List1B,black,man,,,,null,,,,
5985,"<img src=""portrait/WM2.jpg""style=""width:400px;height:400px;""></img>",7,html-button-response,6,214394,0.0-3.0-4.0,3154,List1B,black,man,,TRUE,7,,,,,
null,CORRECT,,html-keyboard-response,7,215895,0.0-3.0-5.0-0.0,3154,List1B,black,man,,,,null,,,,
4548,"<img src=""portrait/WW1.jpg""style=""width:400px;height:400px;""></img>",1,html-button-response,8,220444,0.0-3.0-7.0,3154,List1B,black,man,,TRUE,1,,,,,
null,CORRECT,,html-keyboard-response,9,221944,0.0-3.0-8.0-0.0,3154,List1B,black,man,,,,null,,,,
1354,"<img src=""portrait/WM1.jpg""style=""width:400px;height:400px;""></img>",4,html-button-response,10,223300,0.0-3.0-10.0,3154,List1B,black,man,,TRUE,6,,,,,
3288,"<img src=""portrait/WM1.jpg""style=""width:400px;height:400px;""></img>",6,html-button-response,11,227590,0.0-3.0-12.0-0.0,3154,List1B,black,man,,FALSE,6,,,,,
null,CORRECT,,html-keyboard-response,12,229092,0.0-3.0-12.0-1.0-0.0,3154,List1B,black,man,,,,null,,,,
4500,"<img src=""portrait/BM2.jpg""style=""width:400px;height:400px;""></img>",5,html-button-response,13,233594,0.0-3.0-13.0,3154,List1B,black,man,,TRUE,5,,,,,
null,CORRECT,,html-keyboard-response,14,235095,0.0-3.0-14.0-0.0,3154,List1B,black,man,,,,null,,,,
4281,"<img src=""portrait/WW2.jpg""style=""width:400px;height:400px;""></img>",3,html-button-response,15,239378,0.0-3.0-16.0,3154,List1B,black,man,,TRUE,3,,,,,
null,CORRECT,,html-keyboard-response,16,240879,0.0-3.0-17.0-0.0,3154,List1B,black,man,,,,null,,,,
117025,"<img src=""portrait/BM1.jpg""style=""width:400px;height:400px;""></img>",4,html-button-response,17,357906,0.0-3.0-19.0,3154,List1B,black,man,,TRUE,4,,,,,
null,CORRECT,,html-keyboard-response,18,359407,0.0-3.0-20.0-0.0,3154,List1B,black,man,,,,null,,,,
5101,"<img src=""portrait/BW1.jpg""style=""width:400px;height:400px;""></img>",0,html-button-response,19,364510,0.0-3.0-22.0,3154,List1B,black,man,,TRUE,0,,,,,
null,CORRECT,,html-keyboard-response,20,366010,0.0-3.0-23.0-0.0,3154,List1B,black,man,,,,null,,,,
1066,<p>You got 7 out of 8 right first time. Press Continue.</p>,0,html-button-response,21,367077,0.0-3.0-25.0,3154,List1B,black,man,,,,,,,,
2028,"As you did not score 100%, the memory game will repeat. Press Continue.",0,html-button-response,22,370107,0.0-3.0-26.0-0.0,3154,List1B,black,man,,,,,,,,
1582,"<img src='img/portrait_matrix_list1.JPG' style='width:900px;height:500px;''></img><p>If you have memorised all the portraits and names and are ready to start, press Continue.</p><p><strong>Please note: Your memory of these faces will be tested 4 times during this experiment.</strong></p>",0,html-button-response,23,372692,0.0-3.1-0.1,3154,List1B,black,man,,,,,,,,
2656,"<img src=""portrait/BW2.jpg""style=""width:400px;height:400px;""></img>",2,html-button-response,24,376350,0.0-3.1-1.1,3154,List1B,black,man,,TRUE,2,,,,,
null,CORRECT,,html-keyboard-response,25,377851,0.0-3.1-2.1-0.1,3154,List1B,black,man,,,,null,,,,
130429,"<img src=""portrait/WM2.jpg""style=""width:400px;height:400px;""></img>",7,html-button-response,26,508283,0.0-3.1-4.1,3154,List1B,black,man,,TRUE,7,,,,,
null,CORRECT,,html-keyboard-response,27,509806,0.0-3.1-5.1-0.1,3154,List1B,black,man,,,,null,,,,
26470,"<img src=""portrait/WW1.jpg""style=""width:400px;height:400px;""></img>",1,html-button-response,28,536278,0.0-3.1-7.1,3154,List1B,black,man,,TRUE,1,,,,,
null,CORRECT,,html-keyboard-response,29,537778,0.0-3.1-8.1-0.1,3154,List1B,black,man,,,,null,,,,
79509,"<img src=""portrait/WM1.jpg""style=""width:400px;height:400px;""></img>",6,html-button-response,30,617289,0.0-3.1-10.1,3154,List1B,black,man,,TRUE,6,,,,,
null,CORRECT,,html-keyboard-response,31,618789,0.0-3.1-11.1-0.1,3154,List1B,black,man,,,,null,,,,
6399,"<img src=""portrait/BM2.jpg""style=""width:400px;height:400px;""></img>",5,html-button-response,32,625190,0.0-3.1-13.1,3154,List1B,black,man,,TRUE,5,,,,,
null,CORRECT,,html-keyboard-response,33,626691,0.0-3.1-14.1-0.1,3154,List1B,black,man,,,,null,,,,
2562,"<img src=""portrait/WW2.jpg""style=""width:400px;height:400px;""></img>",3,html-button-response,34,629255,0.0-3.1-16.1,3154,List1B,black,man,,TRUE,3,,,,,
null,CORRECT,,html-keyboard-response,35,630755,0.0-3.1-17.1-0.1,3154,List1B,black,man,,,,null,,,,
2771,"<img src=""portrait/BM1.jpg""style=""width:400px;height:400px;""></img>",4,html-button-response,36,633528,0.0-3.1-19.1,3154,List1B,black,man,,TRUE,4,,,,,
null,CORRECT,,html-keyboard-response,37,635029,0.0-3.1-20.1-0.1,3154,List1B,black,man,,,,null,,,,
4229,"<img src=""portrait/BW1.jpg""style=""width:400px;height:400px;""></img>",0,html-button-response,38,639258,0.0-3.1-22.1,3154,List1B,black,man,,TRUE,0,,,,,
null,CORRECT,,html-keyboard-response,39,640759,0.0-3.1-23.1-0.1,3154,List1B,black,man,,,,null,,,,
3160,<p>You got 8 out of 8 right first time. Press Continue.</p>,0,html-button-response,40,643920,0.0-3.1-25.1,3154,List1B,black,man,,,,,,,,
14701,"<p>In this experiment, you will view photographs of the people from the memory game interacting.</p><p>By using the <strong>exact</strong> phrase given <i>after</i> the photograph appears and recalling the correct names of the people in the photographs, form a sentence describing the interaction. You do not need to capitalise names.</p><p>Type your answer in the space provided. Please complete every sentence before moving onto the next trial.</p><p>You will only have a few seconds to memorise each given photograph and phrase before you can respond, so try your best to focus.</p><p>An example is given below. Press 'Continue' when you are ready.</p><img src='img/speaking_example_v2.jpg' style='width:800px;height:460px;''></img>",0,html-button-response,41,659624,0.0-4.0,3154,List1B,black,man,,,,,,,,
1894,"<p>Before the experiment starts, you will watch two example trials. Press 'Continue'.</p>",0,html-button-response,42,662520,0.0-5.0,3154,List1B,black,man,,,,,,,,
null,<img src='img/speaking_WW.gif'></img>,,html-keyboard-response,43,665525,0.0-6.0,3154,List1B,black,man,,,,null,,,,
null,<p>is speaking to</p>,,html-keyboard-response,44,667526,0.0-7.0,3154,List1B,black,man,,,,null,,,,
140566,<p><b>Answer:</b> kate is speaking to beth</p>,0,html-button-response,45,808094,0.0-8.0,3154,List1B,black,man,,,,,,,,
null,<img src='img/pointing_BM.gif'></img>,,html-keyboard-response,46,811094,0.0-9.0,3154,List1B,black,man,,,,null,,,,
null,<p>are pointing at each other</p>,,html-keyboard-response,47,813096,0.0-10.0,3154,List1B,black,man,,,,null,,,,
1254,<p><b>Answer:</b> luke and dave are pointing at each other</p>,0,html-button-response,48,814352,0.0-11.0,3154,List1B,black,man,,,,,,,,
9873,"<p>Ready to start the experiment?</p><br><p><strong>Remember to describe the picture using a full sentence,</strong></p><p><strong>that combines the names of the people with the given phrase.</strong></p><p><strong>If you do not do this correctly you will not be paid.</strong></p><p><strong> You do not need to capitalise names or use punctuation.</strong></p><br><p>Press 'Continue' to begin.</p>",0,html-button-response,49,825228,0.0-12.0,3154,List1B,black,man,,,,,,,,
null,"<div style=""font-size:60px;"">+</div>",,html-keyboard-response,50,826729,0.0-13.0-0.0,3154,List1B,black,man,,,,null,,,,
null,"<img src=""stim_listB/fight6.gif""</stim_listB>",,html-keyboard-response,51,828730,0.0-13.0-1.0,3154,List1B,black,man,,,,null,,,,
null,are fighting each other,,html-keyboard-response,52,830730,0.0-13.0-2.0,3154,List1B,black,man,,,,null,,,,
23969,,,survey-text,53,854701,0.0-13.0-3.0,3154,List1B,black,man,,,,,"{""Q0"":""fred and luke are fighting each other""}","<img src=""stim_listB/fight6.gif""</stim_listB>",are fighting each other,
null,"<div style=""font-size:60px;"">+</div>",,html-keyboard-response,54,855204,0.0-13.0-0.1,3154,List1B,black,man,,,,null,,,,
null,"<img src=""stim_listB/dance1.gif""</stim_listB>",,html-keyboard-response,55,857204,0.0-13.0-1.1,3154,List1B,black,man,,,,null,,,,
null,is dancing with,,html-keyboard-response,56,859206,0.0-13.0-2.1,3154,List1B,black,man,,,,null,,,,
18172,,,survey-text,57,877378,0.0-13.0-3.1,3154,List1B,black,man,,,,,"{""Q0"":""kate is dancing with fred""}","<img src=""stim_listB/dance1.gif""</stim_listB>",is dancing with,
null,"<div style=""font-size:60px;"">+</div>",,html-keyboard-response,58,877879,0.0-13.0-0.2,3154,List1B,black,man,,,,null,,,,
null,"<img src=""stim_listB/fight4.gif""</stim_listB>",,html-keyboard-response,59,879883,0.0-13.0-1.2,3154,List1B,black,man,,,,null,,,,
null,are fighting each other,,html-keyboard-response,60,881884,0.0-13.0-2.2,3154,List1B,black,man,,,,null,,,,
23044,,,survey-text,61,904930,0.0-13.0-3.2,3154,List1B,black,man,,,,,"{""Q0"":""luke and ruth are fighting each other""}","<img src=""stim_listB/fight4.gif""</stim_listB>",are fighting each other,
null,"<div style=""font-size:60px;"">+</div>",,html-keyboard-response,62,905431,0.0-13.0-0.3,3154,List1B,black,man,,,,null,,,,
null,"<img src=""stim_listB/argue3.gif""</stim_listB>",,html-keyboard-response,63,907432,0.0-13.0-1.3,3154,List1B,black,man,,,,null,,,,
null,is arguing with,,html-keyboard-response,64,909432,0.0-13.0-2.3,3154,List1B,black,man,,,,null,,,,
16779,,,survey-text,65,926212,0.0-13.0-3.3,3154,List1B,black,man,,,,,"{""Q0"":""jane is aruging with dave""}","<img src=""stim_listB/argue3.gif""</stim_listB>",is arguing with,
null,"<div style=""font-size:60px;"">+</div>",,html-keyboard-response,66,926714,0.0-13.0-0.4,3154,List1B,black,man,,,,null,,,,
null,"<img src=""stim_listB/fight7.gif""</stim_listB>",,html-keyboard-response,67,928715,0.0-13.0-1.4,3154,List1B,black,man,,,,null,,,,
null,is fighting,,html-keyboard-response,68,930715,0.0-13.0-2.4,3154,List1B,black,man,,,,null,,,,
14500,,,survey-text,69,945216,0.0-13.0-3.4,3154,List1B,black,man,,,,,"{""Q0"":""jane is fighting kate""}","<img src=""stim_listB/fight7.gif""</stim_listB>",is fighting,
null,"<div style=""font-size:60px;"">+</div>",,html-keyboard-response,70,945717,0.0-13.0-0.5,3154,List1B,black,man,,,,null,,,,
null,"<img src=""stim_listB/argue8.gif""</stim_listB>",,html-keyboard-response,71,947718,0.0-13.0-1.5,3154,List1B,black,man,,,,null,,,,
null,are arguing with each other,,html-keyboard-response,72,949719,0.0-13.0-2.5,3154,List1B,black,man,,,,null,,,,
20128,,,survey-text,73,969848,0.0-13.0-3.5,3154,List1B,black,man,,,,,"{""Q0"":""jane is arguing with beth""}","<img src=""stim_listB/argue8.gif""</stim_listB>",are arguing with each other,
null,"<div style=""font-size:60px;"">+</div>",,html-keyboard-response,74,970350,0.0-13.0-0.6,3154,List1B,black,man,,,,null,,,,
null,"<img src=""stim_listB/touch4.gif""</stim_listB>",,html-keyboard-response,75,972351,0.0-13.0-1.6,3154,List1B,black,man,,,,null,,,,
null,are touching each other,,html-keyboard-response,76,974351,0.0-13.0-2.6,3154,List1B,black,man,,,,null,,,,
17380,,,survey-text,77,991732,0.0-13.0-3.6,3154,List1B,black,man,,,,,"{""Q0"":""luke and ruth are touching each other""}","<img src=""stim_listB/touch4.gif""</stim_listB>",are touching each other,
null,"<div style=""font-size:60px;"">+</div>",,html-keyboard-response,78,992234,0.0-13.0-0.7,3154,List1B,black,man,,,,null,,,,
null,"<img src=""stim_listB/kiss4.gif""</stim_listB>",,html-keyboard-response,79,994235,0.0-13.0-1.7,3154,List1B,black,man,,,,null,,,,
null,are kissing each other,,html-keyboard-response,80,996235,0.0-13.0-2.7,3154,List1B,black,man,,,,null,,,,
15650,,,survey-text,81,1011886,0.0-13.0-3.7,3154,List1B,black,man,,,,,"{""Q0"":""dave and ruth are kissing each other""}","<img src=""stim_listB/kiss4.gif""</stim_listB>",are kissing each other,
null,"<div style=""font-size:60px;"">+</div>",,html-keyboard-response,82,1012386,0.0-13.0-0.8,3154,List1B,black,man,,,,null,,,,
null,"<img src=""stim_listB/touch1.gif""</stim_listB>",,html-keyboard-response,83,1014387,0.0-13.0-1.8,3154,List1B,black,man,,,,null,,,,
null,is touching,,html-keyboard-response,84,1016388,0.0-13.0-2.8,3154,List1B,black,man,,,,null,,,,
19381,,,survey-text,85,1035770,0.0-13.0-3.8,3154,List1B,black,man,,,,,"{""Q0"":""kate is touching mike""}","<img src=""stim_listB/touch1.gif""</stim_listB>",is touching,
null,"<div style=""font-size:60px;"">+</div>",,html-keyboard-response,86,1036271,0.0-13.0-0.9,3154,List1B,black,man,,,,null,,,,
null,"<img src=""stim_listB/hug1.gif""</stim_listB>",,html-keyboard-response,87,1038272,0.0-13.0-1.9,3154,List1B,black,man,,,,null,,,,
null,is hugging,,html-keyboard-response,88,1040276,0.0-13.0-2.9,3154,List1B,black,man,,,,null,,,,
10433,,,survey-text,89,1050711,0.0-13.0-3.9,3154,List1B,black,man,,,,,"{""Q0"":""beth is hugging fred""}","<img src=""stim_listB/hug1.gif""</stim_listB>",is hugging,
null,"<div style=""font-size:60px;"">+</div>",,html-keyboard-response,90,1051212,0.0-13.0-0.10,3154,List1B,black,man,,,,null,,,,
null,"<img src=""stim_listB/marry4.gif""</stim_listB>",,html-keyboard-response,91,1053213,0.0-13.0-1.10,3154,List1B,black,man,,,,null,,,,
null,are marrying each other,,html-keyboard-response,92,1055213,0.0-13.0-2.10,3154,List1B,black,man,,,,null,,,,
16281,,,survey-text,93,1071497,0.0-13.0-3.10,3154,List1B,black,man,,,,,"{""Q0"":""luke and jane are marrying each other""}","<img src=""stim_listB/marry4.gif""</stim_listB>",are marrying each other,
null,"<div style=""font-size:60px;"">+</div>",,html-keyboard-response,94,1071998,0.0-13.0-0.11,3154,List1B,black,man,,,,null,,,,
null,"<img src=""stim_listB/talk7.gif""</stim_listB>",,html-keyboard-response,95,1074000,0.0-13.0-1.11,3154,List1B,black,man,,,,null,,,,
null,is talking to,,html-keyboard-response,96,1076001,0.0-13.0-2.11,3154,List1B,black,man,,,,null,,,,
11392,,,survey-text,97,1087395,0.0-13.0-3.11,3154,List1B,black,man,,,,,"{""Q0"":""jane is talking to beth""}","<img src=""stim_listB/talk7.gif""</stim_listB>",is talking to,
null,"<div style=""font-size:60px;"">+</div>",,html-keyboard-response,98,1087896,0.0-13.0-0.12,3154,List1B,black,man,,,,null,,,,
null,"<img src=""stim_listB/touch5.gif""</stim_listB>",,html-keyboard-response,99,1089897,0.0-13.0-1.12,3154,List1B,black,man,,,,null,,,,
null,is touching,,html-keyboard-response,100,1091898,0.0-13.0-2.12,3154,List1B,black,man,,,,null,,,,
8325,,,survey-text,101,1100224,0.0-13.0-3.12,3154,List1B,black,man,,,,,"{""Q0"":""dave is touching mike""}","<img src=""stim_listB/touch5.gif""</stim_listB>",is touching,
null,"<div style=""font-size:60px;"">+</div>",,html-keyboard-response,102,1100725,0.0-13.0-0.13,3154,List1B,black,man,,,,null,,,,
null,"<img src=""stim_listB/meet4.gif""</stim_listB>",,html-keyboard-response,103,1102727,0.0-13.0-1.13,3154,List1B,black,man,,,,null,,,,
null,are meeting each other,,html-keyboard-response,104,1104728,0.0-13.0-2.13,3154,List1B,black,man,,,,null,,,,
14724,,,survey-text,105,1119452,0.0-13.0-3.13,3154,List1B,black,man,,,,,"{""Q0"":""luke and ruth are meeting each other""}","<img src=""stim_listB/meet4.gif""</stim_listB>",are meeting each other,
null,"<div style=""font-size:60px;"">+</div>",,html-keyboard-response,106,1119953,0.0-13.0-0.14,3154,List1B,black,man,,,,null,,,,
null,"<img src=""stim_listB/dance7.gif""</stim_listB>",,html-keyboard-response,107,1121954,0.0-13.0-1.14,3154,List1B,black,man,,,,null,,,,
null,is dancing with,,html-keyboard-response,108,1123955,0.0-13.0-2.14,3154,List1B,black,man,,,,null,,,,
13324,,,survey-text,109,1137280,0.0-13.0-3.14,3154,List1B,black,man,,,,,"{""Q0"":""jane is dancing with beth""}","<img src=""stim_listB/dance7.gif""</stim_listB>",is dancing with,
null,"<div style=""font-size:60px;"">+</div>",,html-keyboard-response,110,1137782,0.0-13.0-0.15,3154,List1B,black,man,,,,null,,,,
null,"<img src=""stim_listB/hug6.gif""</stim_listB>",,html-keyboard-response,111,1139783,0.0-13.0-1.15,3154,List1B,black,man,,,,null,,,,
null,are hugging each other,,html-keyboard-response,112,1141783,0.0-13.0-2.15,3154,List1B,black,man,,,,null,,,,
12684,,,survey-text,113,1154468,0.0-13.0-3.15,3154,List1B,black,man,,,,,"{""Q0"":""mike and dave are hugging each other""}","<img src=""stim_listB/hug6.gif""</stim_listB>",are hugging each other,
null,"<div style=""font-size:60px;"">+</div>",,html-keyboard-response,114,1154969,0.0-13.0-0.16,3154,List1B,black,man,,,,null,,,,
null,"<img src=""stim_listB/marry8.gif""</stim_listB>",,html-keyboard-response,115,1156970,0.0-13.0-1.16,3154,List1B,black,man,,,,null,,,,
null,are marrying each other,,html-keyboard-response,116,1158971,0.0-13.0-2.16,3154,List1B,black,man,,,,null,,,,
17432,,,survey-text,117,1176404,0.0-13.0-3.16,3154,List1B,black,man,,,,,"{""Q0"":""beth and ruth are marrying each other""}","<img src=""stim_listB/marry8.gif""</stim_listB>",are marrying each other,
null,"<div style=""font-size:60px;"">+</div>",,html-keyboard-response,118,1176906,0.0-13.0-0.17,3154,List1B,black,man,,,,null,,,,
null,"<img src=""stim_listB/hug8.gif""</stim_listB>",,html-keyboard-response,119,1178907,0.0-13.0-1.17,3154,List1B,black,man,,,,null,,,,
null,are hugging each other,,html-keyboard-response,120,1180907,0.0-13.0-2.17,3154,List1B,black,man,,,,null,,,,
14941,,,survey-text,121,1195850,0.0-13.0-3.17,3154,List1B,black,man,,,,,"{""Q0"":""kate and jane are hugging each other""}","<img src=""stim_listB/hug8.gif""</stim_listB>",are hugging each other,
null,"<div style=""font-size:60px;"">+</div>",,html-keyboard-response,122,1196351,0.0-13.0-0.18,3154,List1B,black,man,,,,null,,,,
null,"<img src=""stim_listB/kiss3.gif""</stim_listB>",,html-keyboard-response,123,1198353,0.0-13.0-1.18,3154,List1B,black,man,,,,null,,,,
null,is kissing,,html-keyboard-response,124,1200354,0.0-13.0-2.18,3154,List1B,black,man,,,,null,,,,
11360,,,survey-text,125,1211716,0.0-13.0-3.18,3154,List1B,black,man,,,,,"{""Q0"":""luke is kissing ruth""}","<img src=""stim_listB/kiss3.gif""</stim_listB>",is kissing,
null,"<div style=""font-size:60px;"">+</div>",,html-keyboard-response,126,1212217,0.0-13.0-0.19,3154,List1B,black,man,,,,null,,,,
null,"<img src=""stim_listB/fight8.gif""</stim_listB>",,html-keyboard-response,127,1214218,0.0-13.0-1.19,3154,List1B,black,man,,,,null,,,,
null,are fighting each other,,html-keyboard-response,128,1216219,0.0-13.0-2.19,3154,List1B,black,man,,,,null,,,,
16038,,,survey-text,129,1232260,0.0-13.0-3.19,3154,List1B,black,man,,,,,"{""Q0"":""beth and ruth are fighting each other""}","<img src=""stim_listB/fight8.gif""</stim_listB>",are fighting each other,
5618,"<img src='img/portrait_matrix_list1.JPG' style='width:900px;height:500px;''></img><p>If you have memorised all the portraits and names and are ready to start, press Continue.</p><p><strong>Please note: Your memory of these faces will be tested 4 times during this experiment.</strong></p>",0,html-button-response,130,1237880,0.0-14.0-0.0,3154,List1B,black,man,,,,,,,,
4722,"<img src=""portrait/BW1.jpg""style=""width:400px;height:400px;""></img>",0,html-button-response,131,1243605,0.0-14.0-1.0,3154,List1B,black,man,,TRUE,0,,,,,
null,CORRECT,,html-keyboard-response,132,1245106,0.0-14.0-2.0-0.0,3154,List1B,black,man,,,,null,,,,
6121,"<img src=""portrait/BM2.jpg""style=""width:400px;height:400px;""></img>",5,html-button-response,133,1251229,0.0-14.0-4.0,3154,List1B,black,man,,TRUE,5,,,,,
null,CORRECT,,html-keyboard-response,134,1252730,0.0-14.0-5.0-0.0,3154,List1B,black,man,,,,null,,,,
9995,"<img src=""portrait/WM1.jpg""style=""width:400px;height:400px;""></img>",6,html-button-response,135,1262727,0.0-14.0-7.0,3154,List1B,black,man,,TRUE,6,,,,,
null,CORRECT,,html-keyboard-response,136,1264230,0.0-14.0-8.0-0.0,3154,List1B,black,man,,,,null,,,,
3055,"<img src=""portrait/BM1.jpg""style=""width:400px;height:400px;""></img>",4,html-button-response,137,1267289,0.0-14.0-10.0,3154,List1B,black,man,,TRUE,4,,,,,
null,CORRECT,,html-keyboard-response,138,1268789,0.0-14.0-11.0-0.0,3154,List1B,black,man,,,,null,,,,
6392,"<img src=""portrait/BW2.jpg""style=""width:400px;height:400px;""></img>",2,html-button-response,139,1275183,0.0-14.0-13.0,3154,List1B,black,man,,TRUE,2,,,,,
null,CORRECT,,html-keyboard-response,140,1276684,0.0-14.0-14.0-0.0,3154,List1B,black,man,,,,null,,,,
2013,"<img src=""portrait/WM2.jpg""style=""width:400px;height:400px;""></img>",7,html-button-response,141,1278699,0.0-14.0-16.0,3154,List1B,black,man,,TRUE,7,,,,,
null,CORRECT,,html-keyboard-response,142,1280200,0.0-14.0-17.0-0.0,3154,List1B,black,man,,,,null,,,,
3305,"<img src=""portrait/WW1.jpg""style=""width:400px;height:400px;""></img>",1,html-button-response,143,1283507,0.0-14.0-19.0,3154,List1B,black,man,,TRUE,1,,,,,
null,CORRECT,,html-keyboard-response,144,1285008,0.0-14.0-20.0-0.0,3154,List1B,black,man,,,,null,,,,
4785,"<img src=""portrait/WW2.jpg""style=""width:400px;height:400px;""></img>",3,html-button-response,145,1289797,0.0-14.0-22.0,3154,List1B,black,man,,TRUE,3,,,,,
null,CORRECT,,html-keyboard-response,146,1291297,0.0-14.0-23.0-0.0,3154,List1B,black,man,,,,null,,,,
1168,<p>You got 8 out of 8 right first time. Press Continue.</p>,0,html-button-response,147,1292467,0.0-14.0-25.0,3154,List1B,black,man,,,,,,,,
null,"<div style=""font-size:60px;"">+</div>",,html-keyboard-response,148,1293968,0.0-15.0-0.0,3154,List1B,black,man,,,,null,,,,
null,"<img src=""stim_listB/argue7.gif""</stim_listB>",,html-keyboard-response,149,1295970,0.0-15.0-1.0,3154,List1B,black,man,,,,null,,,,
null,is arguing with,,html-keyboard-response,150,1297970,0.0-15.0-2.0,3154,List1B,black,man,,,,null,,,,
16201,,,survey-text,151,1314172,0.0-15.0-3.0,3154,List1B,black,man,,,,,"{""Q0"":""kate is arguing with ruth""}","<img src=""stim_listB/argue7.gif""</stim_listB>",is arguing with,
null,"<div style=""font-size:60px;"">+</div>",,html-keyboard-response,152,1314673,0.0-15.0-0.1,3154,List1B,black,man,,,,null,,,,
null,"<img src=""stim_listB/shout3.gif""</stim_listB>",,html-keyboard-response,153,1316675,0.0-15.0-1.1,3154,List1B,black,man,,,,null,,,,
null,is shouting at,,html-keyboard-response,154,1318675,0.0-15.0-2.1,3154,List1B,black,man,,,,null,,,,
10371,,,survey-text,155,1329048,0.0-15.0-3.1,3154,List1B,black,man,,,,,"{""Q0"":""ruth is shouting at luke""}","<img src=""stim_listB/shout3.gif""</stim_listB>",is shouting at,
null,"<div style=""font-size:60px;"">+</div>",,html-keyboard-response,156,1329549,0.0-15.0-0.2,3154,List1B,black,man,,,,null,,,,
null,"<img src=""stim_listB/touch6.gif""</stim_listB>",,html-keyboard-response,157,1331550,0.0-15.0-1.2,3154,List1B,black,man,,,,null,,,,
null,are touching each other,,html-keyboard-response,158,1333551,0.0-15.0-2.2,3154,List1B,black,man,,,,null,,,,
10853,,,survey-text,159,1344405,0.0-15.0-3.2,3154,List1B,black,man,,,,,"{""Q0"":""fred and luke are touching each other""}","<img src=""stim_listB/touch6.gif""</stim_listB>",are touching each other,
null,"<div style=""font-size:60px;"">+</div>",,html-keyboard-response,160,1344905,0.0-15.0-0.3,3154,List1B,black,man,,,,null,,,,
null,"<img src=""stim_listB/dance4.gif""</stim_listB>",,html-keyboard-response,161,1346906,0.0-15.0-1.3,3154,List1B,black,man,,,,null,,,,
null,are dancing with each other,,html-keyboard-response,162,1348906,0.0-15.0-2.3,3154,List1B,black,man,,,,null,,,,
12356,,,survey-text,163,1361264,0.0-15.0-3.3,3154,List1B,black,man,,,,,"{""Q0"":""dave and ruth are dancing with each other""}","<img src=""stim_listB/dance4.gif""</stim_listB>",are dancing with each other,
null,"<div style=""font-size:60px;"">+</div>",,html-keyboard-response,164,1361766,0.0-15.0-0.4,3154,List1B,black,man,,,,null,,,,
null,"<img src=""stim_listB/dance2.gif""</stim_listB>",,html-keyboard-response,165,1363767,0.0-15.0-1.4,3154,List1B,black,man,,,,null,,,,
null,are dancing with each other,,html-keyboard-response,166,1365790,0.0-15.0-2.4,3154,List1B,black,man,,,,null,,,,
10082,,,survey-text,167,1375874,0.0-15.0-3.4,3154,List1B,black,man,,,,,"{""Q0"":""mike and beth are dancing with each other""}","<img src=""stim_listB/dance2.gif""</stim_listB>",are dancing with each other,
null,"<div style=""font-size:60px;"">+</div>",,html-keyboard-response,168,1376376,0.0-15.0-0.5,3154,List1B,black,man,,,,null,,,,
null,"<img src=""stim_listB/argue4.gif""</stim_listB>",,html-keyboard-response,169,1378377,0.0-15.0-1.5,3154,List1B,black,man,,,,null,,,,
null,are arguing with each other,,html-keyboard-response,170,1380377,0.0-15.0-2.5,3154,List1B,black,man,,,,null,,,,
14892,,,survey-text,171,1395271,0.0-15.0-3.5,3154,List1B,black,man,,,,,"{""Q0"":""luke and jane are arguing with each other""}","<img src=""stim_listB/argue4.gif""</stim_listB>",are arguing with each other,
null,"<div style=""font-size:60px;"">+</div>",,html-keyboard-response,172,1395772,0.0-15.0-0.6,3154,List1B,black,man,,,,null,,,,
null,"<img src=""stim_listB/talk8.gif""</stim_listB>",,html-keyboard-response,173,1397773,0.0-15.0-1.6,3154,List1B,black,man,,,,null,,,,
null,are talking to each other,,html-keyboard-response,174,1399774,0.0-15.0-2.6,3154,List1B,black,man,,,,null,,,,
13983,,,survey-text,175,1413758,0.0-15.0-3.6,3154,List1B,black,man,,,,,"{""Q0"":""kate and beth are talking to each other""}","<img src=""stim_listB/talk8.gif""</stim_listB>",are talking to each other,
null,"<div style=""font-size:60px;"">+</div>",,html-keyboard-response,176,1414259,0.0-15.0-0.7,3154,List1B,black,man,,,,null,,,,
null,"<img src=""stim_listB/kiss1.gif""</stim_listB>",,html-keyboard-response,177,1416261,0.0-15.0-1.7,3154,List1B,black,man,,,,null,,,,
null,is kissing,,html-keyboard-response,178,1418262,0.0-15.0-2.7,3154,List1B,black,man,,,,null,,,,
22026,,,survey-text,179,1440290,0.0-15.0-3.7,3154,List1B,black,man,,,,,"{""Q0"":""fred and beth are kissing each other""}","<img src=""stim_listB/kiss1.gif""</stim_listB>",is kissing,
null,"<div style=""font-size:60px;"">+</div>",,html-keyboard-response,180,1440791,0.0-15.0-0.8,3154,List1B,black,man,,,,null,,,,
null,"<img src=""stim_listB/touch7.gif""</stim_listB>",,html-keyboard-response,181,1442793,0.0-15.0-1.8,3154,List1B,black,man,,,,null,,,,
null,is touching,,html-keyboard-response,182,1444794,0.0-15.0-2.8,3154,List1B,black,man,,,,null,,,,
10067,,,survey-text,183,1454862,0.0-15.0-3.8,3154,List1B,black,man,,,,,"{""Q0"":""kate is touching jane""}","<img src=""stim_listB/touch7.gif""</stim_listB>",is touching,
null,"<div style=""font-size:60px;"">+</div>",,html-keyboard-response,184,1455364,0.0-15.0-0.9,3154,List1B,black,man,,,,null,,,,
null,"<img src=""stim_listB/kiss8.gif""</stim_listB>",,html-keyboard-response,185,1457365,0.0-15.0-1.9,3154,List1B,black,man,,,,null,,,,
null,are kissing each other,,html-keyboard-response,186,1459366,0.0-15.0-2.9,3154,List1B,black,man,,,,null,,,,
11389,,,survey-text,187,1470757,0.0-15.0-3.9,3154,List1B,black,man,,,,,"{""Q0"":""kate and jane are kissing each other""}","<img src=""stim_listB/kiss8.gif""</stim_listB>",are kissing each other,
null,"<div style=""font-size:60px;"">+</div>",,html-keyboard-response,188,1471260,0.0-15.0-0.10,3154,List1B,black,man,,,,null,,,,
null,"<img src=""stim_listB/shout6.gif""</stim_listB>",,html-keyboard-response,189,1473262,0.0-15.0-1.10,3154,List1B,black,man,,,,null,,,,
null,are shouting at each other,,html-keyboard-response,190,1475262,0.0-15.0-2.10,3154,List1B,black,man,,,,null,,,,
10812,,,survey-text,191,1486076,0.0-15.0-3.10,3154,List1B,black,man,,,,,"{""Q0"":""mike and dave are shouting at each other""}","<img src=""stim_listB/shout6.gif""</stim_listB>",are shouting at each other,
null,"<div style=""font-size:60px;"">+</div>",,html-keyboard-response,192,1486577,0.0-15.0-0.11,3154,List1B,black,man,,,,null,,,,
null,"<img src=""stim_listB/marry6.gif""</stim_listB>",,html-keyboard-response,193,1488578,0.0-15.0-1.11,3154,List1B,black,man,,,,null,,,,
null,are marrying each other,,html-keyboard-response,194,1490579,0.0-15.0-2.11,3154,List1B,black,man,,,,null,,,,
10208,,,survey-text,195,1500788,0.0-15.0-3.11,3154,List1B,black,man,,,,,"{""Q0"":""fred and dave are marrying each other""}","<img src=""stim_listB/marry6.gif""</stim_listB>",are marrying each other,
null,"<div style=""font-size:60px;"">+</div>",,html-keyboard-response,196,1501290,0.0-15.0-0.12,3154,List1B,black,man,,,,null,,,,
null,"<img src=""stim_listB/marry1.gif""</stim_listB>",,html-keyboard-response,197,1503291,0.0-15.0-1.12,3154,List1B,black,man,,,,null,,,,
null,is marrying,,html-keyboard-response,198,1505292,0.0-15.0-2.12,3154,List1B,black,man,,,,null,,,,
11703,,,survey-text,199,1516996,0.0-15.0-3.12,3154,List1B,black,man,,,,,"{""Q0"":""beth is marrying mike""}","<img src=""stim_listB/marry1.gif""</stim_listB>",is marrying,
null,"<div style=""font-size:60px;"">+</div>",,html-keyboard-response,200,1517497,0.0-15.0-0.13,3154,List1B,black,man,,,,null,,,,
null,"<img src=""stim_listB/kiss5.gif""</stim_listB>",,html-keyboard-response,201,1519499,0.0-15.0-1.13,3154,List1B,black,man,,,,null,,,,
null,is kissing,,html-keyboard-response,202,1521500,0.0-15.0-2.13,3154,List1B,black,man,,,,null,,,,
8536,,,survey-text,203,1530037,0.0-15.0-3.13,3154,List1B,black,man,,,,,"{""Q0"":""luke is kissing fred""}","<img src=""stim_listB/kiss5.gif""</stim_listB>",is kissing,
null,"<div style=""font-size:60px;"">+</div>",,html-keyboard-response,204,1530538,0.0-15.0-0.14,3154,List1B,black,man,,,,null,,,,
null,"<img src=""stim_listB/meet6.gif""</stim_listB>",,html-keyboard-response,205,1532540,0.0-15.0-1.14,3154,List1B,black,man,,,,null,,,,
null,are meeting each other,,html-keyboard-response,206,1534540,0.0-15.0-2.14,3154,List1B,black,man,,,,null,,,,
9434,,,survey-text,207,1543976,0.0-15.0-3.14,3154,List1B,black,man,,,,,"{""Q0"":""fred and luke are meeting each other""}","<img src=""stim_listB/meet6.gif""</stim_listB>",are meeting each other,
null,"<div style=""font-size:60px;"">+</div>",,html-keyboard-response,208,1544478,0.0-15.0-0.15,3154,List1B,black,man,,,,null,,,,
null,"<img src=""stim_listB/shout5.gif""</stim_listB>",,html-keyboard-response,209,1546480,0.0-15.0-1.15,3154,List1B,black,man,,,,null,,,,
null,is shouting at,,html-keyboard-response,210,1548480,0.0-15.0-2.15,3154,List1B,black,man,,,,null,,,,
10705,,,survey-text,211,1559187,0.0-15.0-3.15,3154,List1B,black,man,,,,,"{""Q0"":""fred is shouting at luke""}","<img src=""stim_listB/shout5.gif""</stim_listB>",is shouting at,
null,"<div style=""font-size:60px;"">+</div>",,html-keyboard-response,212,1559688,0.0-15.0-0.16,3154,List1B,black,man,,,,null,,,,
null,"<img src=""stim_listB/dance8.gif""</stim_listB>",,html-keyboard-response,213,1561689,0.0-15.0-1.16,3154,List1B,black,man,,,,null,,,,
null,are dancing with each other,,html-keyboard-response,214,1563690,0.0-15.0-2.16,3154,List1B,black,man,,,,null,,,,
10843,,,survey-text,215,1574534,0.0-15.0-3.16,3154,List1B,black,man,,,,,"{""Q0"":""kate and ruth are dancing""}","<img src=""stim_listB/dance8.gif""</stim_listB>",are dancing with each other,
null,"<div style=""font-size:60px;"">+</div>",,html-keyboard-response,216,1575035,0.0-15.0-0.17,3154,List1B,black,man,,,,null,,,,
null,"<img src=""stim_listB/touch3.gif""</stim_listB>",,html-keyboard-response,217,1577036,0.0-15.0-1.17,3154,List1B,black,man,,,,null,,,,
null,is touching,,html-keyboard-response,218,1579037,0.0-15.0-2.17,3154,List1B,black,man,,,,null,,,,
7793,,,survey-text,219,1586832,0.0-15.0-3.17,3154,List1B,black,man,,,,,"{""Q0"":""jane is touching dave""}","<img src=""stim_listB/touch3.gif""</stim_listB>",is touching,
null,"<div style=""font-size:60px;"">+</div>",,html-keyboard-response,220,1587333,0.0-15.0-0.18,3154,List1B,black,man,,,,null,,,,
null,"<img src=""stim_listB/talk1.gif""</stim_listB>",,html-keyboard-response,221,1589334,0.0-15.0-1.18,3154,List1B,black,man,,,,null,,,,
null,is talking to,,html-keyboard-response,222,1591335,0.0-15.0-2.18,3154,List1B,black,man,,,,null,,,,
6556,,,survey-text,223,1597892,0.0-15.0-3.18,3154,List1B,black,man,,,,,"{""Q0"":""kate is talking to fred""}","<img src=""stim_listB/talk1.gif""</stim_listB>",is talking to,
null,"<div style=""font-size:60px;"">+</div>",,html-keyboard-response,224,1598394,0.0-15.0-0.19,3154,List1B,black,man,,,,null,,,,
null,"<img src=""stim_listB/shout7.gif""</stim_listB>",,html-keyboard-response,225,1600396,0.0-15.0-1.19,3154,List1B,black,man,,,,null,,,,
null,is shouting at,,html-keyboard-response,226,1602396,0.0-15.0-2.19,3154,List1B,black,man,,,,null,,,,
7941,,,survey-text,227,1610339,0.0-15.0-3.19,3154,List1B,black,man,,,,,"{""Q0"":""ruth is shouting at beth""}","<img src=""stim_listB/shout7.gif""</stim_listB>",is shouting at,
4971,"<img src='img/portrait_matrix_list1.JPG' style='width:900px;height:500px;''></img><p>If you have memorised all the portraits and names and are ready to start, press Continue.</p><p><strong>Please note: Your memory of these faces will be tested 4 times during this experiment.</strong></p>",0,html-button-response,228,1615313,0.0-16.0-0.0,3154,List1B,black,man,,,,,,,,
5209,"<img src=""portrait/BM2.jpg""style=""width:400px;height:400px;""></img>",5,html-button-response,229,1621524,0.0-16.0-1.0,3154,List1B,black,man,,TRUE,5,,,,,
null,CORRECT,,html-keyboard-response,230,1623026,0.0-16.0-2.0-0.0,3154,List1B,black,man,,,,null,,,,
2929,"<img src=""portrait/WW2.jpg""style=""width:400px;height:400px;""></img>",3,html-button-response,231,1625961,0.0-16.0-4.0,3154,List1B,black,man,,TRUE,3,,,,,
null,CORRECT,,html-keyboard-response,232,1627461,0.0-16.0-5.0-0.0,3154,List1B,black,man,,,,null,,,,
5128,"<img src=""portrait/WM1.jpg""style=""width:400px;height:400px;""></img>",6,html-button-response,233,1632590,0.0-16.0-7.0,3154,List1B,black,man,,TRUE,6,,,,,
null,CORRECT,,html-keyboard-response,234,1634092,0.0-16.0-8.0-0.0,3154,List1B,black,man,,,,null,,,,
3463,"<img src=""portrait/WM2.jpg""style=""width:400px;height:400px;""></img>",7,html-button-response,235,1637557,0.0-16.0-10.0,3154,List1B,black,man,,TRUE,7,,,,,
null,CORRECT,,html-keyboard-response,236,1639057,0.0-16.0-11.0-0.0,3154,List1B,black,man,,,,null,,,,
3932,"<img src=""portrait/BW1.jpg""style=""width:400px;height:400px;""></img>",0,html-button-response,237,1642990,0.0-16.0-13.0,3154,List1B,black,man,,TRUE,0,,,,,
null,CORRECT,,html-keyboard-response,238,1644493,0.0-16.0-14.0-0.0,3154,List1B,black,man,,,,null,,,,
3772,"<img src=""portrait/WW1.jpg""style=""width:400px;height:400px;""></img>",1,html-button-response,239,1648267,0.0-16.0-16.0,3154,List1B,black,man,,TRUE,1,,,,,
null,CORRECT,,html-keyboard-response,240,1649768,0.0-16.0-17.0-0.0,3154,List1B,black,man,,,,null,,,,
2163,"<img src=""portrait/BM1.jpg""style=""width:400px;height:400px;""></img>",4,html-button-response,241,1651933,0.0-16.0-19.0,3154,List1B,black,man,,TRUE,4,,,,,
null,CORRECT,,html-keyboard-response,242,1653434,0.0-16.0-20.0-0.0,3154,List1B,black,man,,,,null,,,,
3648,"<img src=""portrait/BW2.jpg""style=""width:400px;height:400px;""></img>",2,html-button-response,243,1657084,0.0-16.0-22.0,3154,List1B,black,man,,TRUE,2,,,,,
null,CORRECT,,html-keyboard-response,244,1658586,0.0-16.0-23.0-0.0,3154,List1B,black,man,,,,null,,,,
1043,<p>You got 8 out of 8 right first time. Press Continue.</p>,0,html-button-response,245,1659630,0.0-16.0-25.0,3154,List1B,black,man,,,,,,,,
null,"<div style=""font-size:60px;"">+</div>",,html-keyboard-response,246,1661131,0.0-17.0-0.0,3154,List1B,black,man,,,,null,,,,
null,"<img src=""stim_listB/meet2.gif""</stim_listB>",,html-keyboard-response,247,1663133,0.0-17.0-1.0,3154,List1B,black,man,,,,null,,,,
null,are meeting each other,,html-keyboard-response,248,1665137,0.0-17.0-2.0,3154,List1B,black,man,,,,null,,,,
10214,,,survey-text,249,1675352,0.0-17.0-3.0,3154,List1B,black,man,,,,,"{""Q0"":""fred and beth are meeting each other""}","<img src=""stim_listB/meet2.gif""</stim_listB>",are meeting each other,
null,"<div style=""font-size:60px;"">+</div>",,html-keyboard-response,250,1675854,0.0-17.0-0.1,3154,List1B,black,man,,,,null,,,,
null,"<img src=""stim_listB/meet7.gif""</stim_listB>",,html-keyboard-response,251,1677856,0.0-17.0-1.1,3154,List1B,black,man,,,,null,,,,
null,is meeting,,html-keyboard-response,252,1679857,0.0-17.0-2.1,3154,List1B,black,man,,,,null,,,,
4786,,,survey-text,253,1684644,0.0-17.0-3.1,3154,List1B,black,man,,,,,"{""Q0"":""jane is meeting kate""}","<img src=""stim_listB/meet7.gif""</stim_listB>",is meeting,
null,"<div style=""font-size:60px;"">+</div>",,html-keyboard-response,254,1685145,0.0-17.0-0.2,3154,List1B,black,man,,,,null,,,,
null,"<img src=""stim_listB/meet1.gif""</stim_listB>",,html-keyboard-response,255,1687146,0.0-17.0-1.2,3154,List1B,black,man,,,,null,,,,
null,is meeting,,html-keyboard-response,256,1689147,0.0-17.0-2.2,3154,List1B,black,man,,,,null,,,,
5107,,,survey-text,257,1694256,0.0-17.0-3.2,3154,List1B,black,man,,,,,"{""Q0"":""kate is meeting mike""}","<img src=""stim_listB/meet1.gif""</stim_listB>",is meeting,
null,"<div style=""font-size:60px;"">+</div>",,html-keyboard-response,258,1694756,0.0-17.0-0.3,3154,List1B,black,man,,,,null,,,,
null,"<img src=""stim_listB/fight2.gif""</stim_listB>",,html-keyboard-response,259,1696757,0.0-17.0-1.3,3154,List1B,black,man,,,,null,,,,
null,are fighting each other,,html-keyboard-response,260,1698758,0.0-17.0-2.3,3154,List1B,black,man,,,,null,,,,
10470,,,survey-text,261,1709230,0.0-17.0-3.3,3154,List1B,black,man,,,,,"{""Q0"":""fred and beth are fighting each other""}","<img src=""stim_listB/fight2.gif""</stim_listB>",are fighting each other,
null,"<div style=""font-size:60px;"">+</div>",,html-keyboard-response,262,1709732,0.0-17.0-0.4,3154,List1B,black,man,,,,null,,,,
null,"<img src=""stim_listB/argue6.gif""</stim_listB>",,html-keyboard-response,263,1711734,0.0-17.0-1.4,3154,List1B,black,man,,,,null,,,,
null,are arguing with each other,,html-keyboard-response,264,1713735,0.0-17.0-2.4,3154,List1B,black,man,,,,null,,,,
8492,,,survey-text,265,1722228,0.0-17.0-3.4,3154,List1B,black,man,,,,,"{""Q0"":""fred and dave are arguing with each other""}","<img src=""stim_listB/argue6.gif""</stim_listB>",are arguing with each other,
null,"<div style=""font-size:60px;"">+</div>",,html-keyboard-response,266,1722729,0.0-17.0-0.5,3154,List1B,black,man,,,,null,,,,
null,"<img src=""stim_listB/kiss2.gif""</stim_listB>",,html-keyboard-response,267,1724731,0.0-17.0-1.5,3154,List1B,black,man,,,,null,,,,
null,are kissing each other,,html-keyboard-response,268,1726732,0.0-17.0-2.5,3154,List1B,black,man,,,,null,,,,
9370,,,survey-text,269,1736104,0.0-17.0-3.5,3154,List1B,black,man,,,,,"{""Q0"":""mike and kate are kissing each other""}","<img src=""stim_listB/kiss2.gif""</stim_listB>",are kissing each other,
null,"<div style=""font-size:60px;"">+</div>",,html-keyboard-response,270,1736606,0.0-17.0-0.6,3154,List1B,black,man,,,,null,,,,
null,"<img src=""stim_listB/marry5.gif""</stim_listB>",,html-keyboard-response,271,1738607,0.0-17.0-1.6,3154,List1B,black,man,,,,null,,,,
null,is marrying,,html-keyboard-response,272,1740607,0.0-17.0-2.6,3154,List1B,black,man,,,,null,,,,
7155,,,survey-text,273,1747764,0.0-17.0-3.6,3154,List1B,black,man,,,,,"{""Q0"":""luke is marrying mike""}","<img src=""stim_listB/marry5.gif""</stim_listB>",is marrying,
null,"<div style=""font-size:60px;"">+</div>",,html-keyboard-response,274,1748265,0.0-17.0-0.7,3154,List1B,black,man,,,,null,,,,
null,"<img src=""stim_listB/talk4.gif""</stim_listB>",,html-keyboard-response,275,1750266,0.0-17.0-1.7,3154,List1B,black,man,,,,null,,,,
null,are talking to each other,,html-keyboard-response,276,1752267,0.0-17.0-2.7,3154,List1B,black,man,,,,null,,,,
13185,,,survey-text,277,1765454,0.0-17.0-3.7,3154,List1B,black,man,,,,,"{""Q0"":""dave and rruth are talking to each other""}","<img src=""stim_listB/talk4.gif""</stim_listB>",are talking to each other,
null,"<div style=""font-size:60px;"">+</div>",,html-keyboard-response,278,1765955,0.0-17.0-0.8,3154,List1B,black,man,,,,null,,,,
null,"<img src=""stim_listB/talk3.gif""</stim_listB>",,html-keyboard-response,279,1767957,0.0-17.0-1.8,3154,List1B,black,man,,,,null,,,,
null,is talking to,,html-keyboard-response,280,1769958,0.0-17.0-2.8,3154,List1B,black,man,,,,null,,,,
6175,,,survey-text,281,1776135,0.0-17.0-3.8,3154,List1B,black,man,,,,,"{""Q0"":""luke is talking to jane""}","<img src=""stim_listB/talk3.gif""</stim_listB>",is talking to,
null,"<div style=""font-size:60px;"">+</div>",,html-keyboard-response,282,1776636,0.0-17.0-0.9,3154,List1B,black,man,,,,null,,,,
null,"<img src=""stim_listB/hug3.gif""</stim_listB>",,html-keyboard-response,283,1778637,0.0-17.0-1.9,3154,List1B,black,man,,,,null,,,,
null,is hugging,,html-keyboard-response,284,1780637,0.0-17.0-2.9,3154,List1B,black,man,,,,null,,,,
8128,,,survey-text,285,1788766,0.0-17.0-3.9,3154,List1B,black,man,,,,,"{""Q0"":""ruth is hugging luke""}","<img src=""stim_listB/hug3.gif""</stim_listB>",is hugging,
null,"<div style=""font-size:60px;"">+</div>",,html-keyboard-response,286,1789267,0.0-17.0-0.10,3154,List1B,black,man,,,,null,,,,
null,"<img src=""stim_listB/talk2.gif""</stim_listB>",,html-keyboard-response,287,1791268,0.0-17.0-1.10,3154,List1B,black,man,,,,null,,,,
null,are talking to each other,,html-keyboard-response,288,1793269,0.0-17.0-2.10,3154,List1B,black,man,,,,null,,,,
15710,,,survey-text,289,1808980,0.0-17.0-3.10,3154,List1B,black,man,,,,,"{""Q0"":""mike and kate are talking to each other""}","<img src=""stim_listB/talk2.gif""</stim_listB>",are talking to each other,
null,"<div style=""font-size:60px;"">+</div>",,html-keyboard-response,290,1809482,0.0-17.0-0.11,3154,List1B,black,man,,,,null,,,,
null,"<img src=""stim_listB/meet3.gif""</stim_listB>",,html-keyboard-response,291,1811483,0.0-17.0-1.11,3154,List1B,black,man,,,,null,,,,
null,is meeting,,html-keyboard-response,292,1813484,0.0-17.0-2.11,3154,List1B,black,man,,,,null,,,,
7223,,,survey-text,293,1820709,0.0-17.0-3.11,3154,List1B,black,man,,,,,"{""Q0"":""jane is meeting dave""}","<img src=""stim_listB/meet3.gif""</stim_listB>",is meeting,
null,"<div style=""font-size:60px;"">+</div>",,html-keyboard-response,294,1821209,0.0-17.0-0.12,3154,List1B,black,man,,,,null,,,,
null,"<img src=""stim_listB/talk5.gif""</stim_listB>",,html-keyboard-response,295,1823210,0.0-17.0-1.12,3154,List1B,black,man,,,,null,,,,
null,is talking to,,html-keyboard-response,296,1825211,0.0-17.0-2.12,3154,List1B,black,man,,,,null,,,,
5981,,,survey-text,297,1831194,0.0-17.0-3.12,3154,List1B,black,man,,,,,"{""Q0"":""dave is talking to fred""}","<img src=""stim_listB/talk5.gif""</stim_listB>",is talking to,
null,"<div style=""font-size:60px;"">+</div>",,html-keyboard-response,298,1831695,0.0-17.0-0.13,3154,List1B,black,man,,,,null,,,,
null,"<img src=""stim_listB/talk6.gif""</stim_listB>",,html-keyboard-response,299,1833696,0.0-17.0-1.13,3154,List1B,black,man,,,,null,,,,
null,are talking to each other,,html-keyboard-response,300,1835696,0.0-17.0-2.13,3154,List1B,black,man,,,,null,,,,
8637,,,survey-text,301,1844334,0.0-17.0-3.13,3154,List1B,black,man,,,,,"{""Q0"":""mike and luke are talking to each other""}","<img src=""stim_listB/talk6.gif""</stim_listB>",are talking to each other,
null,"<div style=""font-size:60px;"">+</div>",,html-keyboard-response,302,1844836,0.0-17.0-0.14,3154,List1B,black,man,,,,null,,,,
null,"<img src=""stim_listB/marry7.gif""</stim_listB>",,html-keyboard-response,303,1846839,0.0-17.0-1.14,3154,List1B,black,man,,,,null,,,,
null,is marrying,,html-keyboard-response,304,1848840,0.0-17.0-2.14,3154,List1B,black,man,,,,null,,,,
12305,,,survey-text,305,1861146,0.0-17.0-3.14,3154,List1B,black,man,,,,,"{""Q0"":""ruth is marrying kate""}","<img src=""stim_listB/marry7.gif""</stim_listB>",is marrying,
null,"<div style=""font-size:60px;"">+</div>",,html-keyboard-response,306,1861647,0.0-17.0-0.15,3154,List1B,black,man,,,,null,,,,
null,"<img src=""stim_listB/fight5.gif""</stim_listB>",,html-keyboard-response,307,1863648,0.0-17.0-1.15,3154,List1B,black,man,,,,null,,,,
null,is fighting,,html-keyboard-response,308,1865650,0.0-17.0-2.15,3154,List1B,black,man,,,,null,,,,
6032,,,survey-text,309,1871684,0.0-17.0-3.15,3154,List1B,black,man,,,,,"{""Q0"":""dave is fighting mike""}","<img src=""stim_listB/fight5.gif""</stim_listB>",is fighting,
null,"<div style=""font-size:60px;"">+</div>",,html-keyboard-response,310,1872185,0.0-17.0-0.16,3154,List1B,black,man,,,,null,,,,
null,"<img src=""stim_listB/argue1.gif""</stim_listB>",,html-keyboard-response,311,1874186,0.0-17.0-1.16,3154,List1B,black,man,,,,null,,,,
null,is arguing with,,html-keyboard-response,312,1876187,0.0-17.0-2.16,3154,List1B,black,man,,,,null,,,,
10807,,,survey-text,313,1886995,0.0-17.0-3.16,3154,List1B,black,man,,,,,"{""Q0"":""beth is arguing with mike""}","<img src=""stim_listB/argue1.gif""</stim_listB>",is arguing with,
null,"<div style=""font-size:60px;"">+</div>",,html-keyboard-response,314,1887496,0.0-17.0-0.17,3154,List1B,black,man,,,,null,,,,
null,"<img src=""stim_listB/shout2.gif""</stim_listB>",,html-keyboard-response,315,1889497,0.0-17.0-1.17,3154,List1B,black,man,,,,null,,,,
null,are shouting at each other,,html-keyboard-response,316,1891498,0.0-17.0-2.17,3154,List1B,black,man,,,,null,,,,
13887,,,survey-text,317,1905387,0.0-17.0-3.17,3154,List1B,black,man,,,,,"{""Q0"":""mike and kate are shouting at each other""}","<img src=""stim_listB/shout2.gif""</stim_listB>",are shouting at each other,
null,"<div style=""font-size:60px;"">+</div>",,html-keyboard-response,318,1905888,0.0-17.0-0.18,3154,List1B,black,man,,,,null,,,,
null,"<img src=""stim_listB/hug5.gif""</stim_listB>",,html-keyboard-response,319,1907889,0.0-17.0-1.18,3154,List1B,black,man,,,,null,,,,
null,is hugging,,html-keyboard-response,320,1909891,0.0-17.0-2.18,3154,List1B,black,man,,,,null,,,,
6299,,,survey-text,321,1916190,0.0-17.0-3.18,3154,List1B,black,man,,,,,"{""Q0"":""luke is hugging fred""}","<img src=""stim_listB/hug5.gif""</stim_listB>",is hugging,
null,"<div style=""font-size:60px;"">+</div>",,html-keyboard-response,322,1916691,0.0-17.0-0.19,3154,List1B,black,man,,,,null,,,,
null,"<img src=""stim_listB/fight1.gif""</stim_listB>",,html-keyboard-response,323,1918693,0.0-17.0-1.19,3154,List1B,black,man,,,,null,,,,
null,is fighting,,html-keyboard-response,324,1920693,0.0-17.0-2.19,3154,List1B,black,man,,,,null,,,,
5000,,,survey-text,325,1925694,0.0-17.0-3.19,3154,List1B,black,man,,,,,"{""Q0"":""kate is fighting mike""}","<img src=""stim_listB/fight1.gif""</stim_listB>",is fighting,
2192,"<img src='img/portrait_matrix_list1.JPG' style='width:900px;height:500px;''></img><p>If you have memorised all the portraits and names and are ready to start, press Continue.</p><p><strong>Please note: Your memory of these faces will be tested 4 times during this experiment.</strong></p>",0,html-button-response,326,1927888,0.0-18.0-0.0,3154,List1B,black,man,,,,,,,,
1380,"<img src=""portrait/WM2.jpg""style=""width:400px;height:400px;""></img>",7,html-button-response,327,1930271,0.0-18.0-1.0,3154,List1B,black,man,,TRUE,7,,,,,
null,CORRECT,,html-keyboard-response,328,1931771,0.0-18.0-2.0-0.0,3154,List1B,black,man,,,,null,,,,
4529,"<img src=""portrait/WW1.jpg""style=""width:400px;height:400px;""></img>",1,html-button-response,329,1936302,0.0-18.0-4.0,3154,List1B,black,man,,TRUE,1,,,,,
null,CORRECT,,html-keyboard-response,330,1937802,0.0-18.0-5.0-0.0,3154,List1B,black,man,,,,null,,,,
3884,"<img src=""portrait/BW1.jpg""style=""width:400px;height:400px;""></img>",0,html-button-response,331,1941688,0.0-18.0-7.0,3154,List1B,black,man,,TRUE,0,,,,,
null,CORRECT,,html-keyboard-response,332,1943189,0.0-18.0-8.0-0.0,3154,List1B,black,man,,,,null,,,,
3642,"<img src=""portrait/BW2.jpg""style=""width:400px;height:400px;""></img>",2,html-button-response,333,1946833,0.0-18.0-10.0,3154,List1B,black,man,,TRUE,2,,,,,
null,CORRECT,,html-keyboard-response,334,1948336,0.0-18.0-11.0-0.0,3154,List1B,black,man,,,,null,,,,
2100,"<img src=""portrait/WW2.jpg""style=""width:400px;height:400px;""></img>",3,html-button-response,335,1950438,0.0-18.0-13.0,3154,List1B,black,man,,TRUE,3,,,,,
null,CORRECT,,html-keyboard-response,336,1951940,0.0-18.0-14.0-0.0,3154,List1B,black,man,,,,null,,,,
2129,"<img src=""portrait/WM1.jpg""style=""width:400px;height:400px;""></img>",6,html-button-response,337,1954071,0.0-18.0-16.0,3154,List1B,black,man,,TRUE,6,,,,,
null,CORRECT,,html-keyboard-response,338,1955572,0.0-18.0-17.0-0.0,3154,List1B,black,man,,,,null,,,,
1496,"<img src=""portrait/BM1.jpg""style=""width:400px;height:400px;""></img>",4,html-button-response,339,1957069,0.0-18.0-19.0,3154,List1B,black,man,,TRUE,4,,,,,
null,CORRECT,,html-keyboard-response,340,1958570,0.0-18.0-20.0-0.0,3154,List1B,black,man,,,,null,,,,
1088,"<img src=""portrait/BM2.jpg""style=""width:400px;height:400px;""></img>",5,html-button-response,341,1959661,0.0-18.0-22.0,3154,List1B,black,man,,TRUE,5,,,,,
null,CORRECT,,html-keyboard-response,342,1961161,0.0-18.0-23.0-0.0,3154,List1B,black,man,,,,null,,,,
981,<p>You got 8 out of 8 right first time. Press Continue.</p>,0,html-button-response,343,1962143,0.0-18.0-25.0,3154,List1B,black,man,,,,,,,,
null,"<div style=""font-size:60px;"">+</div>",,html-keyboard-response,344,1963644,0.0-19.0-0.0,3154,List1B,black,man,,,,null,,,,
null,"<img src=""stim_listB/marry2.gif""</stim_listB>",,html-keyboard-response,345,1965646,0.0-19.0-1.0,3154,List1B,black,man,,,,null,,,,
null,are marrying each other,,html-keyboard-response,346,1967647,0.0-19.0-2.0,3154,List1B,black,man,,,,null,,,,
13947,,,survey-text,347,1981595,0.0-19.0-3.0,3154,List1B,black,man,,,,,"{""Q0"":""kate and fred are marrying each other""}","<img src=""stim_listB/marry2.gif""</stim_listB>",are marrying each other,
null,"<div style=""font-size:60px;"">+</div>",,html-keyboard-response,348,1982096,0.0-19.0-0.1,3154,List1B,black,man,,,,null,,,,
null,"<img src=""stim_listB/marry3.gif""</stim_listB>",,html-keyboard-response,349,1984098,0.0-19.0-1.1,3154,List1B,black,man,,,,null,,,,
null,is marrying,,html-keyboard-response,350,1986099,0.0-19.0-2.1,3154,List1B,black,man,,,,null,,,,
10062,,,survey-text,351,1996163,0.0-19.0-3.1,3154,List1B,black,man,,,,,"{""Q0"":""ruth is marrying luke""}","<img src=""stim_listB/marry3.gif""</stim_listB>",is marrying,
null,"<div style=""font-size:60px;"">+</div>",,html-keyboard-response,352,1996664,0.0-19.0-0.2,3154,List1B,black,man,,,,null,,,,
null,"<img src=""stim_listB/hug7.gif""</stim_listB>",,html-keyboard-response,353,1998665,0.0-19.0-1.2,3154,List1B,black,man,,,,null,,,,
null,is hugging,,html-keyboard-response,354,2000665,0.0-19.0-2.2,3154,List1B,black,man,,,,null,,,,
6821,,,survey-text,355,2007486,0.0-19.0-3.2,3154,List1B,black,man,,,,,"{""Q0"":""ruth is hugging beth""}","<img src=""stim_listB/hug7.gif""</stim_listB>",is hugging,
null,"<div style=""font-size:60px;"">+</div>",,html-keyboard-response,356,2007987,0.0-19.0-0.3,3154,List1B,black,man,,,,null,,,,
null,"<img src=""stim_listB/fight3.gif""</stim_listB>",,html-keyboard-response,357,2009988,0.0-19.0-1.3,3154,List1B,black,man,,,,null,,,,
null,is fighting,,html-keyboard-response,358,2011988,0.0-19.0-2.3,3154,List1B,black,man,,,,null,,,,
5203,,,survey-text,359,2017192,0.0-19.0-3.3,3154,List1B,black,man,,,,,"{""Q0"":""jane is fighting dave""}","<img src=""stim_listB/fight3.gif""</stim_listB>",is fighting,
null,"<div style=""font-size:60px;"">+</div>",,html-keyboard-response,360,2017693,0.0-19.0-0.4,3154,List1B,black,man,,,,null,,,,
null,"<img src=""stim_listB/argue5.gif""</stim_listB>",,html-keyboard-response,361,2019694,0.0-19.0-1.4,3154,List1B,black,man,,,,null,,,,
null,is arguing with,,html-keyboard-response,362,2021695,0.0-19.0-2.4,3154,List1B,black,man,,,,null,,,,
6153,,,survey-text,363,2027849,0.0-19.0-3.4,3154,List1B,black,man,,,,,"{""Q0"":""luke is arguing with mike""}","<img src=""stim_listB/argue5.gif""</stim_listB>",is arguing with,
null,"<div style=""font-size:60px;"">+</div>",,html-keyboard-response,364,2028351,0.0-19.0-0.5,3154,List1B,black,man,,,,null,,,,
null,"<img src=""stim_listB/dance3.gif""</stim_listB>",,html-keyboard-response,365,2030352,0.0-19.0-1.5,3154,List1B,black,man,,,,null,,,,
null,is dancing with,,html-keyboard-response,366,2032355,0.0-19.0-2.5,3154,List1B,black,man,,,,null,,,,
10443,,,survey-text,367,2042800,0.0-19.0-3.5,3154,List1B,black,man,,,,,"{""Q0"":""jane is dancing with luke""}","<img src=""stim_listB/dance3.gif""</stim_listB>",is dancing with,
null,"<div style=""font-size:60px;"">+</div>",,html-keyboard-response,368,2043301,0.0-19.0-0.6,3154,List1B,black,man,,,,null,,,,
null,"<img src=""stim_listB/dance6.gif""</stim_listB>",,html-keyboard-response,369,2045302,0.0-19.0-1.6,3154,List1B,black,man,,,,null,,,,
null,are dancing with each other,,html-keyboard-response,370,2047303,0.0-19.0-2.6,3154,List1B,black,man,,,,null,,,,
10498,,,survey-text,371,2057803,0.0-19.0-3.6,3154,List1B,black,man,,,,,"{""Q0"":""mike and luke are dancing with each other""}","<img src=""stim_listB/dance6.gif""</stim_listB>",are dancing with each other,
null,"<div style=""font-size:60px;"">+</div>",,html-keyboard-response,372,2058303,0.0-19.0-0.7,3154,List1B,black,man,,,,null,,,,
null,"<img src=""stim_listB/meet5.gif""</stim_listB>",,html-keyboard-response,373,2060304,0.0-19.0-1.7,3154,List1B,black,man,,,,null,,,,
null,is meeting,,html-keyboard-response,374,2062305,0.0-19.0-2.7,3154,List1B,black,man,,,,null,,,,
6050,,,survey-text,375,2068357,0.0-19.0-3.7,3154,List1B,black,man,,,,,"{""Q0"":""dave is meeting mike""}","<img src=""stim_listB/meet5.gif""</stim_listB>",is meeting,
null,"<div style=""font-size:60px;"">+</div>",,html-keyboard-response,376,2068858,0.0-19.0-0.8,3154,List1B,black,man,,,,null,,,,
null,"<img src=""stim_listB/kiss7.gif""</stim_listB>",,html-keyboard-response,377,2070859,0.0-19.0-1.8,3154,List1B,black,man,,,,null,,,,
null,is kissing,,html-keyboard-response,378,2072859,0.0-19.0-2.8,3154,List1B,black,man,,,,null,,,,
10324,,,survey-text,379,2083184,0.0-19.0-3.8,3154,List1B,black,man,,,,,"{""Q0"":""ruth is kissing beth""}","<img src=""stim_listB/kiss7.gif""</stim_listB>",is kissing,
null,"<div style=""font-size:60px;"">+</div>",,html-keyboard-response,380,2083685,0.0-19.0-0.9,3154,List1B,black,man,,,,null,,,,
null,"<img src=""stim_listB/shout8.gif""</stim_listB>",,html-keyboard-response,381,2085686,0.0-19.0-1.9,3154,List1B,black,man,,,,null,,,,
null,are shouting at each other,,html-keyboard-response,382,2087687,0.0-19.0-2.9,3154,List1B,black,man,,,,null,,,,
10122,,,survey-text,383,2097811,0.0-19.0-3.9,3154,List1B,black,man,,,,,"{""Q0"":""kate and jane are shouting at each other""}","<img src=""stim_listB/shout8.gif""</stim_listB>",are shouting at each other,
null,"<div style=""font-size:60px;"">+</div>",,html-keyboard-response,384,2098312,0.0-19.0-0.10,3154,List1B,black,man,,,,null,,,,
null,"<img src=""stim_listB/touch2.gif""</stim_listB>",,html-keyboard-response,385,2100313,0.0-19.0-1.10,3154,List1B,black,man,,,,null,,,,
null,are touching each other,,html-keyboard-response,386,2102313,0.0-19.0-2.10,3154,List1B,black,man,,,,null,,,,
16127,,,survey-text,387,2118442,0.0-19.0-3.10,3154,List1B,black,man,,,,,"{""Q0"":""fred and kate are touching each other""}","<img src=""stim_listB/touch2.gif""</stim_listB>",are touching each other,
null,"<div style=""font-size:60px;"">+</div>",,html-keyboard-response,388,2118943,0.0-19.0-0.11,3154,List1B,black,man,,,,null,,,,
null,"<img src=""stim_listB/kiss6.gif""</stim_listB>",,html-keyboard-response,389,2120945,0.0-19.0-1.11,3154,List1B,black,man,,,,null,,,,
null,are kissing each other,,html-keyboard-response,390,2122946,0.0-19.0-2.11,3154,List1B,black,man,,,,null,,,,
12128,,,survey-text,391,2135076,0.0-19.0-3.11,3154,List1B,black,man,,,,,"{""Q0"":""mike and dave are kissing each other""}","<img src=""stim_listB/kiss6.gif""</stim_listB>",are kissing each other,
null,"<div style=""font-size:60px;"">+</div>",,html-keyboard-response,392,2135577,0.0-19.0-0.12,3154,List1B,black,man,,,,null,,,,
null,"<img src=""stim_listB/dance5.gif""</stim_listB>",,html-keyboard-response,393,2137578,0.0-19.0-1.12,3154,List1B,black,man,,,,null,,,,
null,is dancing with,,html-keyboard-response,394,2139580,0.0-19.0-2.12,3154,List1B,black,man,,,,null,,,,
10302,,,survey-text,395,2149882,0.0-19.0-3.12,3154,List1B,black,man,,,,,"{""Q0"":""dave is dancing with fred""}","<img src=""stim_listB/dance5.gif""</stim_listB>",is dancing with,
null,"<div style=""font-size:60px;"">+</div>",,html-keyboard-response,396,2150383,0.0-19.0-0.13,3154,List1B,black,man,,,,null,,,,
null,"<img src=""stim_listB/shout1.gif""</stim_listB>",,html-keyboard-response,397,2152384,0.0-19.0-1.13,3154,List1B,black,man,,,,null,,,,
null,is shouting at,,html-keyboard-response,398,2154385,0.0-19.0-2.13,3154,List1B,black,man,,,,null,,,,
5069,,,survey-text,399,2159456,0.0-19.0-3.13,3154,List1B,black,man,,,,,"{""Q0"":""beth is shouting at fred""}","<img src=""stim_listB/shout1.gif""</stim_listB>",is shouting at,
null,"<div style=""font-size:60px;"">+</div>",,html-keyboard-response,400,2159958,0.0-19.0-0.14,3154,List1B,black,man,,,,null,,,,
null,"<img src=""stim_listB/touch8.gif""</stim_listB>",,html-keyboard-response,401,2161959,0.0-19.0-1.14,3154,List1B,black,man,,,,null,,,,
null,are touching each other,,html-keyboard-response,402,2163959,0.0-19.0-2.14,3154,List1B,black,man,,,,null,,,,
9725,,,survey-text,403,2173686,0.0-19.0-3.14,3154,List1B,black,man,,,,,"{""Q0"":""beth and ruth are touching each other""}","<img src=""stim_listB/touch8.gif""</stim_listB>",are touching each other,
null,"<div style=""font-size:60px;"">+</div>",,html-keyboard-response,404,2174187,0.0-19.0-0.15,3154,List1B,black,man,,,,null,,,,
null,"<img src=""stim_listB/argue2.gif""</stim_listB>",,html-keyboard-response,405,2176189,0.0-19.0-1.15,3154,List1B,black,man,,,,null,,,,
null,are arguing with each other,,html-keyboard-response,406,2178189,0.0-19.0-2.15,3154,List1B,black,man,,,,null,,,,
16369,,,survey-text,407,2194560,0.0-19.0-3.15,3154,List1B,black,man,,,,,"{""Q0"":""fred and kate are arguing with each other""}","<img src=""stim_listB/argue2.gif""</stim_listB>",are arguing with each other,
null,"<div style=""font-size:60px;"">+</div>",,html-keyboard-response,408,2195062,0.0-19.0-0.16,3154,List1B,black,man,,,,null,,,,
null,"<img src=""stim_listB/shout4.gif""</stim_listB>",,html-keyboard-response,409,2197063,0.0-19.0-1.16,3154,List1B,black,man,,,,null,,,,
null,are shouting at each other,,html-keyboard-response,410,2199065,0.0-19.0-2.16,3154,List1B,black,man,,,,null,,,,
17908,,,survey-text,411,2216975,0.0-19.0-3.16,3154,List1B,black,man,,,,,"{""Q0"":""dave and jane are shouting at each other""}","<img src=""stim_listB/shout4.gif""</stim_listB>",are shouting at each other,
null,"<div style=""font-size:60px;"">+</div>",,html-keyboard-response,412,2217475,0.0-19.0-0.17,3154,List1B,black,man,,,,null,,,,
null,"<img src=""stim_listB/hug4.gif""</stim_listB>",,html-keyboard-response,413,2219477,0.0-19.0-1.17,3154,List1B,black,man,,,,null,,,,
null,are hugging each other,,html-keyboard-response,414,2221478,0.0-19.0-2.17,3154,List1B,black,man,,,,null,,,,
10085,,,survey-text,415,2231565,0.0-19.0-3.17,3154,List1B,black,man,,,,,"{""Q0"":""dave and jane are hugging each other""}","<img src=""stim_listB/hug4.gif""</stim_listB>",are hugging each other,
null,"<div style=""font-size:60px;"">+</div>",,html-keyboard-response,416,2232067,0.0-19.0-0.18,3154,List1B,black,man,,,,null,,,,
null,"<img src=""stim_listB/hug2.gif""</stim_listB>",,html-keyboard-response,417,2234068,0.0-19.0-1.18,3154,List1B,black,man,,,,null,,,,
null,are hugging each other,,html-keyboard-response,418,2236068,0.0-19.0-2.18,3154,List1B,black,man,,,,null,,,,
18207,,,survey-text,419,2254276,0.0-19.0-3.18,3154,List1B,black,man,,,,,"{""Q0"":""kate and mike are hugging each other""}","<img src=""stim_listB/hug2.gif""</stim_listB>",are hugging each other,
null,"<div style=""font-size:60px;"">+</div>",,html-keyboard-response,420,2254778,0.0-19.0-0.19,3154,List1B,black,man,,,,null,,,,
null,"<img src=""stim_listB/meet8.gif""</stim_listB>",,html-keyboard-response,421,2256779,0.0-19.0-1.19,3154,List1B,black,man,,,,null,,,,
null,are meeting each other,,html-keyboard-response,422,2258780,0.0-19.0-2.19,3154,List1B,black,man,,,,null,,,,
12941,,,survey-text,423,2271722,0.0-19.0-3.19,3154,List1B,black,man,,,,,"{""Q0"":""beth and ruth are meeting each other""}","<img src=""stim_listB/meet8.gif""</stim_listB>",are meeting each other,
2271,<p>Thank you for completing that task.</p><p>The final part of this session is a short questionnaire.</p><p>Press Continue.</p>,0,html-button-response,424,2273994,0.0-20.0,3154,List1B,black,man,,,,,,,,
28378,,,survey-text,425,2303375,0.0-21.0,3154,List1B,black,man,,,,,"{""Q0"":""30"",""Q1"":""English"",""Q2"":""English"",""Q3"":""United States"",""Q4"":""Black/African American"",""Q5"":""Male""}",,,demographics
35622,,,survey-likert,426,2339017,0.0-22.0,3154,List1B,black,man,,,,,"{""Q0"":6,""Q1"":5,""Q2"":6,""Q3"":6,""Q4"":6,""Q5"":4,""Q6"":4,""Q7"":6,""Q8"":6,""Q9"":6,""Q10"":6,""Q11"":4,""Q12"":5,""Q13"":6}",,,likert_race
33998,,,survey-likert,427,2373027,0.0-23.0,3154,List1B,black,man,,,,,"{""Q0"":6,""Q1"":6,""Q2"":6,""Q3"":6,""Q4"":6,""Q5"":6,""Q6"":6,""Q7"":2,""Q8"":2,""Q9"":1,""Q10"":4,""Q11"":5,""Q12"":5,""Q13"":6}",,,likert_gender
13849,,,survey-text,428,2386884,0.0-24.0,3154,List1B,black,man,,,,,"{""Q0"":""ccc""}",,,worker_id
18824,,,external-html,429,2405996,0.0-25.0,3154,List1B,black,man,debrief.html,,,,,,,
