rt,stimulus,button_pressed,trial_type,trial_index,time_elapsed,internal_node_id,subject,list,ppt_race,ppt_gender,url,first_guess,correct,key_press,responses,image_type,phrase_type,test_part
1951,Welcome to the experiment. Press Continue to begin.,0,html-button-response,0,1955,0.0-0.0,32165,List2A,white,man,,,,,,,,
13063,,,external-html,1,16058,0.0-1.0,32165,List2A,white,man,consent.html,,,,,,,
16259,"<p>On the next page, you will see portraits of 8 people and their names.</p><p>Your first task is to take a few minutes to memorise the names of these people.</p><p>You will have to recall their names during the rest of the experiment, so it is</p><p>essential that you try to memorise these people and their names as best as you can.</p><br><p><strong>You will then be tested on your memory of these names and portraits.</strong></p><br><p>The experiment will start after you have completed this memory test.</p><br><p>Ready?</p>",0,html-button-response,2,32319,0.0-2.0,32165,List2A,white,man,,,,,,,,
48639,"<img src='img/portrait_matrix_list2.JPG' style='width:900px;height:500px;''></img><p>If you have memorised all the portraits and names and are ready to start, press Continue.</p><p><strong>Please note: Your memory of these faces will be tested 4 times during this experiment.</strong></p>",0,html-button-response,3,81960,0.0-3.0-0.0,32165,List2A,white,man,,,,,,,,
5767,"<img src=""portrait/WW2.jpg""style=""width:400px;height:400px;""></img>",3,html-button-response,4,88730,0.0-3.0-1.0,32165,List2A,white,man,,TRUE,3,,,,,
null,CORRECT,,html-keyboard-response,5,90237,0.0-3.0-2.0-0.0,32165,List2A,white,man,,,,null,,,,
5921,"<img src=""portrait/BM2.jpg""style=""width:400px;height:400px;""></img>",5,html-button-response,6,96160,0.0-3.0-4.0,32165,List2A,white,man,,TRUE,5,,,,,
null,CORRECT,,html-keyboard-response,7,97663,0.0-3.0-5.0-0.0,32165,List2A,white,man,,,,null,,,,
9861,"<img src=""portrait/WW1.jpg""style=""width:400px;height:400px;""></img>",1,html-button-response,8,107526,0.0-3.0-7.0,32165,List2A,white,man,,TRUE,1,,,,,
null,CORRECT,,html-keyboard-response,9,109027,0.0-3.0-8.0-0.0,32165,List2A,white,man,,,,null,,,,
2597,"<img src=""portrait/WM2.jpg""style=""width:400px;height:400px;""></img>",7,html-button-response,10,111626,0.0-3.0-10.0,32165,List2A,white,man,,TRUE,7,,,,,
null,CORRECT,,html-keyboard-response,11,113128,0.0-3.0-11.0-0.0,32165,List2A,white,man,,,,null,,,,
5688,"<img src=""portrait/BW1.jpg""style=""width:400px;height:400px;""></img>",0,html-button-response,12,118817,0.0-3.0-13.0,32165,List2A,white,man,,TRUE,0,,,,,
null,CORRECT,,html-keyboard-response,13,120319,0.0-3.0-14.0-0.0,32165,List2A,white,man,,,,null,,,,
3643,"<img src=""portrait/WM1.jpg""style=""width:400px;height:400px;""></img>",6,html-button-response,14,123965,0.0-3.0-16.0,32165,List2A,white,man,,TRUE,6,,,,,
null,CORRECT,,html-keyboard-response,15,125469,0.0-3.0-17.0-0.0,32165,List2A,white,man,,,,null,,,,
7317,"<img src=""portrait/BW2.jpg""style=""width:400px;height:400px;""></img>",2,html-button-response,16,132787,0.0-3.0-19.0,32165,List2A,white,man,,TRUE,2,,,,,
null,CORRECT,,html-keyboard-response,17,134289,0.0-3.0-20.0-0.0,32165,List2A,white,man,,,,null,,,,
3002,"<img src=""portrait/BM1.jpg""style=""width:400px;height:400px;""></img>",4,html-button-response,18,137292,0.0-3.0-22.0,32165,List2A,white,man,,TRUE,4,,,,,
null,CORRECT,,html-keyboard-response,19,138794,0.0-3.0-23.0-0.0,32165,List2A,white,man,,,,null,,,,
2300,<p>You got 8 out of 8 right first time. Press Continue.</p>,0,html-button-response,20,141097,0.0-3.0-25.0,32165,List2A,white,man,,,,,,,,
82956,"<p>In this experiment, you will view photographs of the people from the memory game interacting.</p><p>By using the <strong>exact</strong> phrase given <i>after</i> the photograph appears and recalling the correct names of the people in the photographs, form a sentence describing the interaction. You do not need to capitalise names.</p><p>Type your answer in the space provided. Please complete every sentence before moving onto the next trial.</p><p>You will only have a few seconds to memorise each given photograph and phrase before you can respond, so try your best to focus.</p><p>An example is given below. Press 'Continue' when you are ready.</p><img src='img/speaking_example_v2.jpg' style='width:800px;height:460px;''></img>",0,html-button-response,21,225056,0.0-4.0,32165,List2A,white,man,,,,,,,,
2677,"<p>Before the experiment starts, you will watch two example trials. Press 'Continue'.</p>",0,html-button-response,22,228736,0.0-5.0,32165,List2A,white,man,,,,,,,,
null,<img src='img/speaking_WW.gif'></img>,,html-keyboard-response,23,231741,0.0-6.0,32165,List2A,white,man,,,,null,,,,
null,<p>is speaking to</p>,,html-keyboard-response,24,233744,0.0-7.0,32165,List2A,white,man,,,,null,,,,
3833,<p><b>Answer:</b> jane is speaking to ruth</p>,0,html-button-response,25,237580,0.0-8.0,32165,List2A,white,man,,,,,,,,
null,<img src='img/pointing_BM.gif'></img>,,html-keyboard-response,26,240583,0.0-9.0,32165,List2A,white,man,,,,null,,,,
null,<p>are pointing at each other</p>,,html-keyboard-response,27,242586,0.0-10.0,32165,List2A,white,man,,,,null,,,,
4499,<p><b>Answer:</b> fred and mike are pointing at each other</p>,0,html-button-response,28,247086,0.0-11.0,32165,List2A,white,man,,,,,,,,
13953,"<p>Ready to start the experiment?</p><br><p><strong>Remember to describe the picture using a full sentence,</strong></p><p><strong>that combines the names of the people with the given phrase.</strong></p><p><strong>If you do not do this correctly you will not be paid.</strong></p><p><strong> You do not need to capitalise names or use punctuation.</strong></p><br><p>Press 'Continue' to begin.</p>",0,html-button-response,29,262042,0.0-12.0,32165,List2A,white,man,,,,,,,,
null,"<div style=""font-size:60px;"">+</div>",,html-keyboard-response,30,263546,0.0-13.0-0.0,32165,List2A,white,man,,,,null,,,,
null,"<img src=""stim_listA/dance2.gif""</stim_listA>",,html-keyboard-response,31,265551,0.0-13.0-1.0,32165,List2A,white,man,,,,null,,,,
null,are dancing with each other,,html-keyboard-response,32,267554,0.0-13.0-2.0,32165,List2A,white,man,,,,null,,,,
22092,,,survey-text,33,289648,0.0-13.0-3.0,32165,List2A,white,man,,,,,"{""Q0"":""Dave and jane are dancing with each other""}","<img src=""stim_listA/dance2.gif""</stim_listA>",are dancing with each other,
null,"<div style=""font-size:60px;"">+</div>",,html-keyboard-response,34,290151,0.0-13.0-0.1,32165,List2A,white,man,,,,null,,,,
null,"<img src=""stim_listA/shout6.gif""</stim_listA>",,html-keyboard-response,35,292153,0.0-13.0-1.1,32165,List2A,white,man,,,,null,,,,
null,are shouting at each other,,html-keyboard-response,36,294154,0.0-13.0-2.1,32165,List2A,white,man,,,,null,,,,
27796,,,survey-text,37,321952,0.0-13.0-3.1,32165,List2A,white,man,,,,,"{""Q0"":""dave and mike are shouting at each other""}","<img src=""stim_listA/shout6.gif""</stim_listA>",are shouting at each other,
null,"<div style=""font-size:60px;"">+</div>",,html-keyboard-response,38,322453,0.0-13.0-0.2,32165,List2A,white,man,,,,null,,,,
null,"<img src=""stim_listA/dance7.gif""</stim_listA>",,html-keyboard-response,39,324455,0.0-13.0-1.2,32165,List2A,white,man,,,,null,,,,
null,is dancing with,,html-keyboard-response,40,326455,0.0-13.0-2.2,32165,List2A,white,man,,,,null,,,,
37742,,,survey-text,41,364199,0.0-13.0-3.2,32165,List2A,white,man,,,,,"{""Q0"":""ruth is dancing with kate""}","<img src=""stim_listA/dance7.gif""</stim_listA>",is dancing with,
null,"<div style=""font-size:60px;"">+</div>",,html-keyboard-response,42,364701,0.0-13.0-0.3,32165,List2A,white,man,,,,null,,,,
null,"<img src=""stim_listA/touch4.gif""</stim_listA>",,html-keyboard-response,43,366703,0.0-13.0-1.3,32165,List2A,white,man,,,,null,,,,
null,are touching each other,,html-keyboard-response,44,368706,0.0-13.0-2.3,32165,List2A,white,man,,,,null,,,,
25934,,,survey-text,45,394642,0.0-13.0-3.3,32165,List2A,white,man,,,,,"{""Q0"":""fred and jane are touching each other""}","<img src=""stim_listA/touch4.gif""</stim_listA>",are touching each other,
null,"<div style=""font-size:60px;"">+</div>",,html-keyboard-response,46,395143,0.0-13.0-0.4,32165,List2A,white,man,,,,null,,,,
null,"<img src=""stim_listA/shout1.gif""</stim_listA>",,html-keyboard-response,47,397145,0.0-13.0-1.4,32165,List2A,white,man,,,,null,,,,
null,is shouting at,,html-keyboard-response,48,399147,0.0-13.0-2.4,32165,List2A,white,man,,,,null,,,,
27501,,,survey-text,49,426650,0.0-13.0-3.4,32165,List2A,white,man,,,,,"{""Q0"":""Luke is shouting at ruth""}","<img src=""stim_listA/shout1.gif""</stim_listA>",is shouting at,
null,"<div style=""font-size:60px;"">+</div>",,html-keyboard-response,50,427151,0.0-13.0-0.5,32165,List2A,white,man,,,,null,,,,
null,"<img src=""stim_listA/kiss7.gif""</stim_listA>",,html-keyboard-response,51,429154,0.0-13.0-1.5,32165,List2A,white,man,,,,null,,,,
null,is kissing,,html-keyboard-response,52,431156,0.0-13.0-2.5,32165,List2A,white,man,,,,null,,,,
28987,,,survey-text,53,460143,0.0-13.0-3.5,32165,List2A,white,man,,,,,"{""Q0"":""beth is kissing jane""}","<img src=""stim_listA/kiss7.gif""</stim_listA>",is kissing,
null,"<div style=""font-size:60px;"">+</div>",,html-keyboard-response,54,460646,0.0-13.0-0.6,32165,List2A,white,man,,,,null,,,,
null,"<img src=""stim_listA/talk5.gif""</stim_listA>",,html-keyboard-response,55,462649,0.0-13.0-1.6,32165,List2A,white,man,,,,null,,,,
null,is talking to,,html-keyboard-response,56,464650,0.0-13.0-2.6,32165,List2A,white,man,,,,null,,,,
22131,,,survey-text,57,486782,0.0-13.0-3.6,32165,List2A,white,man,,,,,"{""Q0"":""luke is talking to mike""}","<img src=""stim_listA/talk5.gif""</stim_listA>",is talking to,
null,"<div style=""font-size:60px;"">+</div>",,html-keyboard-response,58,487283,0.0-13.0-0.7,32165,List2A,white,man,,,,null,,,,
null,"<img src=""stim_listA/dance8.gif""</stim_listA>",,html-keyboard-response,59,489286,0.0-13.0-1.7,32165,List2A,white,man,,,,null,,,,
null,are dancing with each other,,html-keyboard-response,60,491288,0.0-13.0-2.7,32165,List2A,white,man,,,,null,,,,
36746,,,survey-text,61,528035,0.0-13.0-3.7,32165,List2A,white,man,,,,,"{""Q0"":""beth and jane are dancing with each other""}","<img src=""stim_listA/dance8.gif""</stim_listA>",are dancing with each other,
null,"<div style=""font-size:60px;"">+</div>",,html-keyboard-response,62,528536,0.0-13.0-0.8,32165,List2A,white,man,,,,null,,,,
null,"<img src=""stim_listA/argue7.gif""</stim_listA>",,html-keyboard-response,63,530538,0.0-13.0-1.8,32165,List2A,white,man,,,,null,,,,
null,is arguing with,,html-keyboard-response,64,532540,0.0-13.0-2.8,32165,List2A,white,man,,,,null,,,,
40473,,,survey-text,65,573014,0.0-13.0-3.8,32165,List2A,white,man,,,,,"{""Q0"":""beth is arguing with jane""}","<img src=""stim_listA/argue7.gif""</stim_listA>",is arguing with,
null,"<div style=""font-size:60px;"">+</div>",,html-keyboard-response,66,573518,0.0-13.0-0.9,32165,List2A,white,man,,,,null,,,,
null,"<img src=""stim_listA/fight5.gif""</stim_listA>",,html-keyboard-response,67,575521,0.0-13.0-1.9,32165,List2A,white,man,,,,null,,,,
null,is fighting,,html-keyboard-response,68,577523,0.0-13.0-2.9,32165,List2A,white,man,,,,null,,,,
36329,,,survey-text,69,613853,0.0-13.0-3.9,32165,List2A,white,man,,,,,"{""Q0"":""dave is fighting with mike""}","<img src=""stim_listA/fight5.gif""</stim_listA>",is fighting,
null,"<div style=""font-size:60px;"">+</div>",,html-keyboard-response,70,614355,0.0-13.0-0.10,32165,List2A,white,man,,,,null,,,,
null,"<img src=""stim_listA/meet1.gif""</stim_listA>",,html-keyboard-response,71,616358,0.0-13.0-1.10,32165,List2A,white,man,,,,null,,,,
null,is meeting,,html-keyboard-response,72,618360,0.0-13.0-2.10,32165,List2A,white,man,,,,null,,,,
27231,,,survey-text,73,645591,0.0-13.0-3.10,32165,List2A,white,man,,,,,"{""Q0"":""dave is meeting jane""}","<img src=""stim_listA/meet1.gif""</stim_listA>",is meeting,
null,"<div style=""font-size:60px;"">+</div>",,html-keyboard-response,74,646092,0.0-13.0-0.11,32165,List2A,white,man,,,,null,,,,
null,"<img src=""stim_listA/dance4.gif""</stim_listA>",,html-keyboard-response,75,648095,0.0-13.0-1.11,32165,List2A,white,man,,,,null,,,,
null,are dancing with each other,,html-keyboard-response,76,650097,0.0-13.0-2.11,32165,List2A,white,man,,,,null,,,,
33126,,,survey-text,77,683224,0.0-13.0-3.11,32165,List2A,white,man,,,,,"{""Q0"":""mike and kate are dancing with each other""}","<img src=""stim_listA/dance4.gif""</stim_listA>",are dancing with each other,
null,"<div style=""font-size:60px;"">+</div>",,html-keyboard-response,78,683726,0.0-13.0-0.12,32165,List2A,white,man,,,,null,,,,
null,"<img src=""stim_listA/fight7.gif""</stim_listA>",,html-keyboard-response,79,685729,0.0-13.0-1.12,32165,List2A,white,man,,,,null,,,,
null,is fighting,,html-keyboard-response,80,687732,0.0-13.0-2.12,32165,List2A,white,man,,,,null,,,,
30316,,,survey-text,81,718048,0.0-13.0-3.12,32165,List2A,white,man,,,,,"{""Q0"":""kate is fighting fred""}","<img src=""stim_listA/fight7.gif""</stim_listA>",is fighting,
null,"<div style=""font-size:60px;"">+</div>",,html-keyboard-response,82,718549,0.0-13.0-0.13,32165,List2A,white,man,,,,null,,,,
null,"<img src=""stim_listA/kiss6.gif""</stim_listA>",,html-keyboard-response,83,720553,0.0-13.0-1.13,32165,List2A,white,man,,,,null,,,,
null,are kissing each other,,html-keyboard-response,84,722554,0.0-13.0-2.13,32165,List2A,white,man,,,,null,,,,
47492,,,survey-text,85,770046,0.0-13.0-3.13,32165,List2A,white,man,,,,,"{""Q0"":""Dave and mike are kissing""}","<img src=""stim_listA/kiss6.gif""</stim_listA>",are kissing each other,
null,"<div style=""font-size:60px;"">+</div>",,html-keyboard-response,86,770548,0.0-13.0-0.14,32165,List2A,white,man,,,,null,,,,
null,"<img src=""stim_listA/meet5.gif""</stim_listA>",,html-keyboard-response,87,772550,0.0-13.0-1.14,32165,List2A,white,man,,,,null,,,,
null,is meeting,,html-keyboard-response,88,774552,0.0-13.0-2.14,32165,List2A,white,man,,,,null,,,,
17129,,,survey-text,89,791682,0.0-13.0-3.14,32165,List2A,white,man,,,,,"{""Q0"":""Dave is meeting mike""}","<img src=""stim_listA/meet5.gif""</stim_listA>",is meeting,
null,"<div style=""font-size:60px;"">+</div>",,html-keyboard-response,90,792183,0.0-13.0-0.15,32165,List2A,white,man,,,,null,,,,
null,"<img src=""stim_listA/touch5.gif""</stim_listA>",,html-keyboard-response,91,794185,0.0-13.0-1.15,32165,List2A,white,man,,,,null,,,,
null,is touching,,html-keyboard-response,92,796186,0.0-13.0-2.15,32165,List2A,white,man,,,,null,,,,
16340,,,survey-text,93,812526,0.0-13.0-3.15,32165,List2A,white,man,,,,,"{""Q0"":""Dave is touching mike""}","<img src=""stim_listA/touch5.gif""</stim_listA>",is touching,
null,"<div style=""font-size:60px;"">+</div>",,html-keyboard-response,94,813028,0.0-13.0-0.16,32165,List2A,white,man,,,,null,,,,
null,"<img src=""stim_listA/marry1.gif""</stim_listA>",,html-keyboard-response,95,815031,0.0-13.0-1.16,32165,List2A,white,man,,,,null,,,,
null,is marrying,,html-keyboard-response,96,817033,0.0-13.0-2.16,32165,List2A,white,man,,,,null,,,,
30302,,,survey-text,97,847335,0.0-13.0-3.16,32165,List2A,white,man,,,,,"{""Q0"":""dave is marrying ruth""}","<img src=""stim_listA/marry1.gif""</stim_listA>",is marrying,
null,"<div style=""font-size:60px;"">+</div>",,html-keyboard-response,98,847838,0.0-13.0-0.17,32165,List2A,white,man,,,,null,,,,
null,"<img src=""stim_listA/marry5.gif""</stim_listA>",,html-keyboard-response,99,849839,0.0-13.0-1.17,32165,List2A,white,man,,,,null,,,,
null,is marrying,,html-keyboard-response,100,851840,0.0-13.0-2.17,32165,List2A,white,man,,,,null,,,,
32215,,,survey-text,101,884057,0.0-13.0-3.17,32165,List2A,white,man,,,,,"{""Q0"":""Dave is marrying fred""}","<img src=""stim_listA/marry5.gif""</stim_listA>",is marrying,
null,"<div style=""font-size:60px;"">+</div>",,html-keyboard-response,102,884560,0.0-13.0-0.18,32165,List2A,white,man,,,,null,,,,
null,"<img src=""stim_listA/marry6.gif""</stim_listA>",,html-keyboard-response,103,886561,0.0-13.0-1.18,32165,List2A,white,man,,,,null,,,,
null,are marrying each other,,html-keyboard-response,104,888564,0.0-13.0-2.18,32165,List2A,white,man,,,,null,,,,
35578,,,survey-text,105,924142,0.0-13.0-3.18,32165,List2A,white,man,,,,,"{""Q0"":""luke and mike are marrying each other ""}","<img src=""stim_listA/marry6.gif""</stim_listA>",are marrying each other,
null,"<div style=""font-size:60px;"">+</div>",,html-keyboard-response,106,924643,0.0-13.0-0.19,32165,List2A,white,man,,,,null,,,,
null,"<img src=""stim_listA/touch8.gif""</stim_listA>",,html-keyboard-response,107,926645,0.0-13.0-1.19,32165,List2A,white,man,,,,null,,,,
null,are touching each other,,html-keyboard-response,108,928646,0.0-13.0-2.19,32165,List2A,white,man,,,,null,,,,
38705,,,survey-text,109,967352,0.0-13.0-3.19,32165,List2A,white,man,,,,,"{""Q0"":""beth and kate are touching each other""}","<img src=""stim_listA/touch8.gif""</stim_listA>",are touching each other,
37757,"<img src='img/portrait_matrix_list2.JPG' style='width:900px;height:500px;''></img><p>If you have memorised all the portraits and names and are ready to start, press Continue.</p><p><strong>Please note: Your memory of these faces will be tested 4 times during this experiment.</strong></p>",0,html-button-response,110,1005111,0.0-14.0-0.0,32165,List2A,white,man,,,,,,,,
20238,"<img src=""portrait/BW2.jpg""style=""width:400px;height:400px;""></img>",2,html-button-response,111,1026352,0.0-14.0-1.0,32165,List2A,white,man,,TRUE,2,,,,,
null,CORRECT,,html-keyboard-response,112,1027854,0.0-14.0-2.0-0.0,32165,List2A,white,man,,,,null,,,,
2289,"<img src=""portrait/WW2.jpg""style=""width:400px;height:400px;""></img>",3,html-button-response,113,1030145,0.0-14.0-4.0,32165,List2A,white,man,,TRUE,3,,,,,
null,CORRECT,,html-keyboard-response,114,1031647,0.0-14.0-5.0-0.0,32165,List2A,white,man,,,,null,,,,
3149,"<img src=""portrait/WM1.jpg""style=""width:400px;height:400px;""></img>",6,html-button-response,115,1034797,0.0-14.0-7.0,32165,List2A,white,man,,TRUE,6,,,,,
null,CORRECT,,html-keyboard-response,116,1036298,0.0-14.0-8.0-0.0,32165,List2A,white,man,,,,null,,,,
11057,"<img src=""portrait/WW1.jpg""style=""width:400px;height:400px;""></img>",1,html-button-response,117,1047357,0.0-14.0-10.0,32165,List2A,white,man,,TRUE,1,,,,,
null,CORRECT,,html-keyboard-response,118,1048861,0.0-14.0-11.0-0.0,32165,List2A,white,man,,,,null,,,,
2932,"<img src=""portrait/BM1.jpg""style=""width:400px;height:400px;""></img>",4,html-button-response,119,1051795,0.0-14.0-13.0,32165,List2A,white,man,,TRUE,4,,,,,
null,CORRECT,,html-keyboard-response,120,1053298,0.0-14.0-14.0-0.0,32165,List2A,white,man,,,,null,,,,
8815,"<img src=""portrait/BW1.jpg""style=""width:400px;height:400px;""></img>",0,html-button-response,121,1062114,0.0-14.0-16.0,32165,List2A,white,man,,TRUE,0,,,,,
null,CORRECT,,html-keyboard-response,122,1063616,0.0-14.0-17.0-0.0,32165,List2A,white,man,,,,null,,,,
2541,"<img src=""portrait/BM2.jpg""style=""width:400px;height:400px;""></img>",5,html-button-response,123,1066158,0.0-14.0-19.0,32165,List2A,white,man,,TRUE,5,,,,,
null,CORRECT,,html-keyboard-response,124,1067661,0.0-14.0-20.0-0.0,32165,List2A,white,man,,,,null,,,,
1866,"<img src=""portrait/WM2.jpg""style=""width:400px;height:400px;""></img>",7,html-button-response,125,1069529,0.0-14.0-22.0,32165,List2A,white,man,,TRUE,7,,,,,
null,CORRECT,,html-keyboard-response,126,1071032,0.0-14.0-23.0-0.0,32165,List2A,white,man,,,,null,,,,
1905,<p>You got 8 out of 8 right first time. Press Continue.</p>,0,html-button-response,127,1072938,0.0-14.0-25.0,32165,List2A,white,man,,,,,,,,
null,"<div style=""font-size:60px;"">+</div>",,html-keyboard-response,128,1074443,0.0-15.0-0.0,32165,List2A,white,man,,,,null,,,,
null,"<img src=""stim_listA/dance3.gif""</stim_listA>",,html-keyboard-response,129,1076444,0.0-15.0-1.0,32165,List2A,white,man,,,,null,,,,
null,is dancing with,,html-keyboard-response,130,1078446,0.0-15.0-2.0,32165,List2A,white,man,,,,null,,,,
30153,,,survey-text,131,1108600,0.0-15.0-3.0,32165,List2A,white,man,,,,,"{""Q0"":""mike is dancing with kate""}","<img src=""stim_listA/dance3.gif""</stim_listA>",is dancing with,
null,"<div style=""font-size:60px;"">+</div>",,html-keyboard-response,132,1109102,0.0-15.0-0.1,32165,List2A,white,man,,,,null,,,,
null,"<img src=""stim_listA/kiss5.gif""</stim_listA>",,html-keyboard-response,133,1111103,0.0-15.0-1.1,32165,List2A,white,man,,,,null,,,,
null,is kissing,,html-keyboard-response,134,1113104,0.0-15.0-2.1,32165,List2A,white,man,,,,null,,,,
11254,,,survey-text,135,1124360,0.0-15.0-3.1,32165,List2A,white,man,,,,,"{""Q0"":""luke is kissing fred""}","<img src=""stim_listA/kiss5.gif""</stim_listA>",is kissing,
null,"<div style=""font-size:60px;"">+</div>",,html-keyboard-response,136,1124861,0.0-15.0-0.2,32165,List2A,white,man,,,,null,,,,
null,"<img src=""stim_listA/hug7.gif""</stim_listA>",,html-keyboard-response,137,1126864,0.0-15.0-1.2,32165,List2A,white,man,,,,null,,,,
null,is hugging,,html-keyboard-response,138,1128866,0.0-15.0-2.2,32165,List2A,white,man,,,,null,,,,
20707,,,survey-text,139,1149573,0.0-15.0-3.2,32165,List2A,white,man,,,,,"{""Q0"":""beth is hugging jane""}","<img src=""stim_listA/hug7.gif""</stim_listA>",is hugging,
null,"<div style=""font-size:60px;"">+</div>",,html-keyboard-response,140,1150075,0.0-15.0-0.3,32165,List2A,white,man,,,,null,,,,
null,"<img src=""stim_listA/fight4.gif""</stim_listA>",,html-keyboard-response,141,1152076,0.0-15.0-1.3,32165,List2A,white,man,,,,null,,,,
null,are fighting each other,,html-keyboard-response,142,1154079,0.0-15.0-2.3,32165,List2A,white,man,,,,null,,,,
23356,,,survey-text,143,1177436,0.0-15.0-3.3,32165,List2A,white,man,,,,,"{""Q0"":""fred and beth are fighting each other""}","<img src=""stim_listA/fight4.gif""</stim_listA>",are fighting each other,
null,"<div style=""font-size:60px;"">+</div>",,html-keyboard-response,144,1177936,0.0-15.0-0.4,32165,List2A,white,man,,,,null,,,,
null,"<img src=""stim_listA/kiss1.gif""</stim_listA>",,html-keyboard-response,145,1179938,0.0-15.0-1.4,32165,List2A,white,man,,,,null,,,,
null,is kissing,,html-keyboard-response,146,1181941,0.0-15.0-2.4,32165,List2A,white,man,,,,null,,,,
21217,,,survey-text,147,1203159,0.0-15.0-3.4,32165,List2A,white,man,,,,,"{""Q0"":""luke is kissing ruth""}","<img src=""stim_listA/kiss1.gif""</stim_listA>",is kissing,
null,"<div style=""font-size:60px;"">+</div>",,html-keyboard-response,148,1203660,0.0-15.0-0.5,32165,List2A,white,man,,,,null,,,,
null,"<img src=""stim_listA/hug8.gif""</stim_listA>",,html-keyboard-response,149,1205662,0.0-15.0-1.5,32165,List2A,white,man,,,,null,,,,
null,are hugging each other,,html-keyboard-response,150,1207664,0.0-15.0-2.5,32165,List2A,white,man,,,,null,,,,
26433,,,survey-text,151,1234099,0.0-15.0-3.5,32165,List2A,white,man,,,,,"{""Q0"":""jane and kate are hugging each other ""}","<img src=""stim_listA/hug8.gif""</stim_listA>",are hugging each other,
null,"<div style=""font-size:60px;"">+</div>",,html-keyboard-response,152,1234600,0.0-15.0-0.6,32165,List2A,white,man,,,,null,,,,
null,"<img src=""stim_listA/meet2.gif""</stim_listA>",,html-keyboard-response,153,1236603,0.0-15.0-1.6,32165,List2A,white,man,,,,null,,,,
null,are meeting each other,,html-keyboard-response,154,1238604,0.0-15.0-2.6,32165,List2A,white,man,,,,null,,,,
24092,,,survey-text,155,1262698,0.0-15.0-3.6,32165,List2A,white,man,,,,,"{""Q0"":""luke and ruth are meeting each other""}","<img src=""stim_listA/meet2.gif""</stim_listA>",are meeting each other,
null,"<div style=""font-size:60px;"">+</div>",,html-keyboard-response,156,1263199,0.0-15.0-0.7,32165,List2A,white,man,,,,null,,,,
null,"<img src=""stim_listA/shout5.gif""</stim_listA>",,html-keyboard-response,157,1265202,0.0-15.0-1.7,32165,List2A,white,man,,,,null,,,,
null,is shouting at,,html-keyboard-response,158,1267203,0.0-15.0-2.7,32165,List2A,white,man,,,,null,,,,
13289,,,survey-text,159,1280494,0.0-15.0-3.7,32165,List2A,white,man,,,,,"{""Q0"":""luke is shouting at fred""}","<img src=""stim_listA/shout5.gif""</stim_listA>",is shouting at,
null,"<div style=""font-size:60px;"">+</div>",,html-keyboard-response,160,1280997,0.0-15.0-0.8,32165,List2A,white,man,,,,null,,,,
null,"<img src=""stim_listA/marry7.gif""</stim_listA>",,html-keyboard-response,161,1282998,0.0-15.0-1.8,32165,List2A,white,man,,,,null,,,,
null,is marrying,,html-keyboard-response,162,1284999,0.0-15.0-2.8,32165,List2A,white,man,,,,null,,,,
26713,,,survey-text,163,1311713,0.0-15.0-3.8,32165,List2A,white,man,,,,,"{""Q0"":""jane is marrying beth""}","<img src=""stim_listA/marry7.gif""</stim_listA>",is marrying,
null,"<div style=""font-size:60px;"">+</div>",,html-keyboard-response,164,1312215,0.0-15.0-0.9,32165,List2A,white,man,,,,null,,,,
null,"<img src=""stim_listA/meet7.gif""</stim_listA>",,html-keyboard-response,165,1314217,0.0-15.0-1.9,32165,List2A,white,man,,,,null,,,,
null,is meeting,,html-keyboard-response,166,1316219,0.0-15.0-2.9,32165,List2A,white,man,,,,null,,,,
28419,,,survey-text,167,1344639,0.0-15.0-3.9,32165,List2A,white,man,,,,,"{""Q0"":""jane is meeting kate""}","<img src=""stim_listA/meet7.gif""</stim_listA>",is meeting,
null,"<div style=""font-size:60px;"">+</div>",,html-keyboard-response,168,1345140,0.0-15.0-0.10,32165,List2A,white,man,,,,null,,,,
null,"<img src=""stim_listA/hug1.gif""</stim_listA>",,html-keyboard-response,169,1347143,0.0-15.0-1.10,32165,List2A,white,man,,,,null,,,,
null,is hugging,,html-keyboard-response,170,1349144,0.0-15.0-2.10,32165,List2A,white,man,,,,null,,,,
24920,,,survey-text,171,1374065,0.0-15.0-3.10,32165,List2A,white,man,,,,,"{""Q0"":""luke is hugging ruth""}","<img src=""stim_listA/hug1.gif""</stim_listA>",is hugging,
null,"<div style=""font-size:60px;"">+</div>",,html-keyboard-response,172,1374568,0.0-15.0-0.11,32165,List2A,white,man,,,,null,,,,
null,"<img src=""stim_listA/shout2.gif""</stim_listA>",,html-keyboard-response,173,1376570,0.0-15.0-1.11,32165,List2A,white,man,,,,null,,,,
null,are shouting at each other,,html-keyboard-response,174,1378572,0.0-15.0-2.11,32165,List2A,white,man,,,,null,,,,
27991,,,survey-text,175,1406564,0.0-15.0-3.11,32165,List2A,white,man,,,,,"{""Q0"":""dave and jane are shouting at each other""}","<img src=""stim_listA/shout2.gif""</stim_listA>",are shouting at each other,
null,"<div style=""font-size:60px;"">+</div>",,html-keyboard-response,176,1407065,0.0-15.0-0.12,32165,List2A,white,man,,,,null,,,,
null,"<img src=""stim_listA/hug4.gif""</stim_listA>",,html-keyboard-response,177,1409069,0.0-15.0-1.12,32165,List2A,white,man,,,,null,,,,
null,are hugging each other,,html-keyboard-response,178,1411070,0.0-15.0-2.12,32165,List2A,white,man,,,,null,,,,
34571,,,survey-text,179,1445644,0.0-15.0-3.12,32165,List2A,white,man,,,,,"{""Q0"":""mike and kate are hugging each other""}","<img src=""stim_listA/hug4.gif""</stim_listA>",are hugging each other,
null,"<div style=""font-size:60px;"">+</div>",,html-keyboard-response,180,1446147,0.0-15.0-0.13,32165,List2A,white,man,,,,null,,,,
null,"<img src=""stim_listA/argue6.gif""</stim_listA>",,html-keyboard-response,181,1448148,0.0-15.0-1.13,32165,List2A,white,man,,,,null,,,,
null,are arguing with each other,,html-keyboard-response,182,1450150,0.0-15.0-2.13,32165,List2A,white,man,,,,null,,,,
30135,,,survey-text,183,1480285,0.0-15.0-3.13,32165,List2A,white,man,,,,,"{""Q0"":""mike and luke are arguing with each other""}","<img src=""stim_listA/argue6.gif""</stim_listA>",are arguing with each other,
null,"<div style=""font-size:60px;"">+</div>",,html-keyboard-response,184,1480786,0.0-15.0-0.14,32165,List2A,white,man,,,,null,,,,
null,"<img src=""stim_listA/touch2.gif""</stim_listA>",,html-keyboard-response,185,1482789,0.0-15.0-1.14,32165,List2A,white,man,,,,null,,,,
null,are touching each other,,html-keyboard-response,186,1484791,0.0-15.0-2.14,32165,List2A,white,man,,,,null,,,,
26920,,,survey-text,187,1511711,0.0-15.0-3.14,32165,List2A,white,man,,,,,"{""Q0"":""luke and ruth are touching each other ""}","<img src=""stim_listA/touch2.gif""</stim_listA>",are touching each other,
null,"<div style=""font-size:60px;"">+</div>",,html-keyboard-response,188,1512212,0.0-15.0-0.15,32165,List2A,white,man,,,,null,,,,
null,"<img src=""stim_listA/hug5.gif""</stim_listA>",,html-keyboard-response,189,1514215,0.0-15.0-1.15,32165,List2A,white,man,,,,null,,,,
null,is hugging,,html-keyboard-response,190,1516216,0.0-15.0-2.15,32165,List2A,white,man,,,,null,,,,
13161,,,survey-text,191,1529379,0.0-15.0-3.15,32165,List2A,white,man,,,,,"{""Q0"":""Fred is hugging luke""}","<img src=""stim_listA/hug5.gif""</stim_listA>",is hugging,
null,"<div style=""font-size:60px;"">+</div>",,html-keyboard-response,192,1529880,0.0-15.0-0.16,32165,List2A,white,man,,,,null,,,,
null,"<img src=""stim_listA/argue1.gif""</stim_listA>",,html-keyboard-response,193,1531882,0.0-15.0-1.16,32165,List2A,white,man,,,,null,,,,
null,is arguing with,,html-keyboard-response,194,1533883,0.0-15.0-2.16,32165,List2A,white,man,,,,null,,,,
25694,,,survey-text,195,1559578,0.0-15.0-3.16,32165,List2A,white,man,,,,,"{""Q0"":""dave is arguing with ruth""}","<img src=""stim_listA/argue1.gif""</stim_listA>",is arguing with,
null,"<div style=""font-size:60px;"">+</div>",,html-keyboard-response,196,1560079,0.0-15.0-0.17,32165,List2A,white,man,,,,null,,,,
null,"<img src=""stim_listA/shout8.gif""</stim_listA>",,html-keyboard-response,197,1562082,0.0-15.0-1.17,32165,List2A,white,man,,,,null,,,,
null,are shouting at each other,,html-keyboard-response,198,1564083,0.0-15.0-2.17,32165,List2A,white,man,,,,null,,,,
24892,,,survey-text,199,1588976,0.0-15.0-3.17,32165,List2A,white,man,,,,,"{""Q0"":""kate and jane are shouting at each other ""}","<img src=""stim_listA/shout8.gif""</stim_listA>",are shouting at each other,
null,"<div style=""font-size:60px;"">+</div>",,html-keyboard-response,200,1589477,0.0-15.0-0.18,32165,List2A,white,man,,,,null,,,,
null,"<img src=""stim_listA/talk4.gif""</stim_listA>",,html-keyboard-response,201,1591480,0.0-15.0-1.18,32165,List2A,white,man,,,,null,,,,
null,are talking to each other,,html-keyboard-response,202,1593481,0.0-15.0-2.18,32165,List2A,white,man,,,,null,,,,
30537,,,survey-text,203,1624020,0.0-15.0-3.18,32165,List2A,white,man,,,,,"{""Q0"":""mike and beth are talking to each other""}","<img src=""stim_listA/talk4.gif""</stim_listA>",are talking to each other,
null,"<div style=""font-size:60px;"">+</div>",,html-keyboard-response,204,1624520,0.0-15.0-0.19,32165,List2A,white,man,,,,null,,,,
null,"<img src=""stim_listA/talk7.gif""</stim_listA>",,html-keyboard-response,205,1626522,0.0-15.0-1.19,32165,List2A,white,man,,,,null,,,,
null,is talking to,,html-keyboard-response,206,1628523,0.0-15.0-2.19,32165,List2A,white,man,,,,null,,,,
24857,,,survey-text,207,1653382,0.0-15.0-3.19,32165,List2A,white,man,,,,,"{""Q0"":""ruth is talking to kate""}","<img src=""stim_listA/talk7.gif""</stim_listA>",is talking to,
11292,"<img src='img/portrait_matrix_list2.JPG' style='width:900px;height:500px;''></img><p>If you have memorised all the portraits and names and are ready to start, press Continue.</p><p><strong>Please note: Your memory of these faces will be tested 4 times during this experiment.</strong></p>",0,html-button-response,208,1664675,0.0-16.0-0.0,32165,List2A,white,man,,,,,,,,
8998,"<img src=""portrait/BW1.jpg""style=""width:400px;height:400px;""></img>",0,html-button-response,209,1674675,0.0-16.0-1.0,32165,List2A,white,man,,TRUE,0,,,,,
null,CORRECT,,html-keyboard-response,210,1676178,0.0-16.0-2.0-0.0,32165,List2A,white,man,,,,null,,,,
2711,"<img src=""portrait/WM1.jpg""style=""width:400px;height:400px;""></img>",6,html-button-response,211,1678891,0.0-16.0-4.0,32165,List2A,white,man,,TRUE,6,,,,,
null,CORRECT,,html-keyboard-response,212,1680392,0.0-16.0-5.0-0.0,32165,List2A,white,man,,,,null,,,,
2167,"<img src=""portrait/BM2.jpg""style=""width:400px;height:400px;""></img>",5,html-button-response,213,1682560,0.0-16.0-7.0,32165,List2A,white,man,,TRUE,5,,,,,
null,CORRECT,,html-keyboard-response,214,1684063,0.0-16.0-8.0-0.0,32165,List2A,white,man,,,,null,,,,
8838,"<img src=""portrait/BW2.jpg""style=""width:400px;height:400px;""></img>",2,html-button-response,215,1692902,0.0-16.0-10.0,32165,List2A,white,man,,TRUE,2,,,,,
null,CORRECT,,html-keyboard-response,216,1694406,0.0-16.0-11.0-0.0,32165,List2A,white,man,,,,null,,,,
2291,"<img src=""portrait/BM1.jpg""style=""width:400px;height:400px;""></img>",4,html-button-response,217,1696699,0.0-16.0-13.0,32165,List2A,white,man,,TRUE,4,,,,,
null,CORRECT,,html-keyboard-response,218,1698203,0.0-16.0-14.0-0.0,32165,List2A,white,man,,,,null,,,,
6153,"<img src=""portrait/WW2.jpg""style=""width:400px;height:400px;""></img>",3,html-button-response,219,1704358,0.0-16.0-16.0,32165,List2A,white,man,,TRUE,3,,,,,
null,CORRECT,,html-keyboard-response,220,1705860,0.0-16.0-17.0-0.0,32165,List2A,white,man,,,,null,,,,
1723,"<img src=""portrait/WM2.jpg""style=""width:400px;height:400px;""></img>",7,html-button-response,221,1707584,0.0-16.0-19.0,32165,List2A,white,man,,TRUE,7,,,,,
null,CORRECT,,html-keyboard-response,222,1709087,0.0-16.0-20.0-0.0,32165,List2A,white,man,,,,null,,,,
7652,"<img src=""portrait/WW1.jpg""style=""width:400px;height:400px;""></img>",1,html-button-response,223,1716740,0.0-16.0-22.0,32165,List2A,white,man,,TRUE,1,,,,,
null,CORRECT,,html-keyboard-response,224,1718244,0.0-16.0-23.0-0.0,32165,List2A,white,man,,,,null,,,,
1924,<p>You got 8 out of 8 right first time. Press Continue.</p>,0,html-button-response,225,1720170,0.0-16.0-25.0,32165,List2A,white,man,,,,,,,,
null,"<div style=""font-size:60px;"">+</div>",,html-keyboard-response,226,1721672,0.0-17.0-0.0,32165,List2A,white,man,,,,null,,,,
null,"<img src=""stim_listA/shout4.gif""</stim_listA>",,html-keyboard-response,227,1723674,0.0-17.0-1.0,32165,List2A,white,man,,,,null,,,,
null,are shouting at each other,,html-keyboard-response,228,1725675,0.0-17.0-2.0,32165,List2A,white,man,,,,null,,,,
23260,,,survey-text,229,1748936,0.0-17.0-3.0,32165,List2A,white,man,,,,,"{""Q0"":""mike and kate are shouting at each other""}","<img src=""stim_listA/shout4.gif""</stim_listA>",are shouting at each other,
null,"<div style=""font-size:60px;"">+</div>",,html-keyboard-response,230,1749438,0.0-17.0-0.1,32165,List2A,white,man,,,,null,,,,
null,"<img src=""stim_listA/marry2.gif""</stim_listA>",,html-keyboard-response,231,1751441,0.0-17.0-1.1,32165,List2A,white,man,,,,null,,,,
null,are marrying each other,,html-keyboard-response,232,1753443,0.0-17.0-2.1,32165,List2A,white,man,,,,null,,,,
22679,,,survey-text,233,1776124,0.0-17.0-3.1,32165,List2A,white,man,,,,,"{""Q0"":""luke and jane are marrying each other""}","<img src=""stim_listA/marry2.gif""</stim_listA>",are marrying each other,
null,"<div style=""font-size:60px;"">+</div>",,html-keyboard-response,234,1776625,0.0-17.0-0.2,32165,List2A,white,man,,,,null,,,,
null,"<img src=""stim_listA/touch1.gif""</stim_listA>",,html-keyboard-response,235,1778628,0.0-17.0-1.2,32165,List2A,white,man,,,,null,,,,
null,is touching,,html-keyboard-response,236,1780630,0.0-17.0-2.2,32165,List2A,white,man,,,,null,,,,
11033,,,survey-text,237,1791663,0.0-17.0-3.2,32165,List2A,white,man,,,,,"{""Q0"":""dave is touching jane""}","<img src=""stim_listA/touch1.gif""</stim_listA>",is touching,
null,"<div style=""font-size:60px;"">+</div>",,html-keyboard-response,238,1792165,0.0-17.0-0.3,32165,List2A,white,man,,,,null,,,,
null,"<img src=""stim_listA/fight8.gif""</stim_listA>",,html-keyboard-response,239,1794168,0.0-17.0-1.3,32165,List2A,white,man,,,,null,,,,
null,are fighting each other,,html-keyboard-response,240,1796170,0.0-17.0-2.3,32165,List2A,white,man,,,,null,,,,
33647,,,survey-text,241,1829817,0.0-17.0-3.3,32165,List2A,white,man,,,,,"{""Q0"":""jane and beth are fighting each other ""}","<img src=""stim_listA/fight8.gif""</stim_listA>",are fighting each other,
null,"<div style=""font-size:60px;"">+</div>",,html-keyboard-response,242,1830318,0.0-17.0-0.4,32165,List2A,white,man,,,,null,,,,
null,"<img src=""stim_listA/meet3.gif""</stim_listA>",,html-keyboard-response,243,1832319,0.0-17.0-1.4,32165,List2A,white,man,,,,null,,,,
null,is meeting,,html-keyboard-response,244,1834321,0.0-17.0-2.4,32165,List2A,white,man,,,,null,,,,
16181,,,survey-text,245,1850502,0.0-17.0-3.4,32165,List2A,white,man,,,,,"{""Q0"":""mike is meeting kate""}","<img src=""stim_listA/meet3.gif""</stim_listA>",is meeting,
null,"<div style=""font-size:60px;"">+</div>",,html-keyboard-response,246,1851004,0.0-17.0-0.5,32165,List2A,white,man,,,,null,,,,
null,"<img src=""stim_listA/meet8.gif""</stim_listA>",,html-keyboard-response,247,1853007,0.0-17.0-1.5,32165,List2A,white,man,,,,null,,,,
null,are meeting each other,,html-keyboard-response,248,1855009,0.0-17.0-2.5,32165,List2A,white,man,,,,null,,,,
23790,,,survey-text,249,1878800,0.0-17.0-3.5,32165,List2A,white,man,,,,,"{""Q0"":""beth and ruth are meeting each other""}","<img src=""stim_listA/meet8.gif""</stim_listA>",are meeting each other,
null,"<div style=""font-size:60px;"">+</div>",,html-keyboard-response,250,1879301,0.0-17.0-0.6,32165,List2A,white,man,,,,null,,,,
null,"<img src=""stim_listA/kiss2.gif""</stim_listA>",,html-keyboard-response,251,1881306,0.0-17.0-1.6,32165,List2A,white,man,,,,null,,,,
null,are kissing each other,,html-keyboard-response,252,1883307,0.0-17.0-2.6,32165,List2A,white,man,,,,null,,,,
13727,,,survey-text,253,1897036,0.0-17.0-3.6,32165,List2A,white,man,,,,,"{""Q0"":""dave and jane are kissing each other""}","<img src=""stim_listA/kiss2.gif""</stim_listA>",are kissing each other,
null,"<div style=""font-size:60px;"">+</div>",,html-keyboard-response,254,1897537,0.0-17.0-0.7,32165,List2A,white,man,,,,null,,,,
null,"<img src=""stim_listA/argue8.gif""</stim_listA>",,html-keyboard-response,255,1899540,0.0-17.0-1.7,32165,List2A,white,man,,,,null,,,,
null,are arguing with each other,,html-keyboard-response,256,1901541,0.0-17.0-2.7,32165,List2A,white,man,,,,null,,,,
26909,,,survey-text,257,1928450,0.0-17.0-3.7,32165,List2A,white,man,,,,,"{""Q0"":""kate and ruth are arguing withe each other""}","<img src=""stim_listA/argue8.gif""</stim_listA>",are arguing with each other,
null,"<div style=""font-size:60px;"">+</div>",,html-keyboard-response,258,1928952,0.0-17.0-0.8,32165,List2A,white,man,,,,null,,,,
null,"<img src=""stim_listA/touch6.gif""</stim_listA>",,html-keyboard-response,259,1930954,0.0-17.0-1.8,32165,List2A,white,man,,,,null,,,,
null,are touching each other,,html-keyboard-response,260,1932955,0.0-17.0-2.8,32165,List2A,white,man,,,,null,,,,
20710,,,survey-text,261,1953666,0.0-17.0-3.8,32165,List2A,white,man,,,,,"{""Q0"":""fred and luke are touching each other""}","<img src=""stim_listA/touch6.gif""</stim_listA>",are touching each other,
null,"<div style=""font-size:60px;"">+</div>",,html-keyboard-response,262,1954167,0.0-17.0-0.9,32165,List2A,white,man,,,,null,,,,
null,"<img src=""stim_listA/meet6.gif""</stim_listA>",,html-keyboard-response,263,1956169,0.0-17.0-1.9,32165,List2A,white,man,,,,null,,,,
null,are meeting each other,,html-keyboard-response,264,1958171,0.0-17.0-2.9,32165,List2A,white,man,,,,null,,,,
12838,,,survey-text,265,1971010,0.0-17.0-3.9,32165,List2A,white,man,,,,,"{""Q0"":""fred and luke are meeting each other""}","<img src=""stim_listA/meet6.gif""</stim_listA>",are meeting each other,
null,"<div style=""font-size:60px;"">+</div>",,html-keyboard-response,266,1971511,0.0-17.0-0.10,32165,List2A,white,man,,,,null,,,,
null,"<img src=""stim_listA/marry3.gif""</stim_listA>",,html-keyboard-response,267,1973514,0.0-17.0-1.10,32165,List2A,white,man,,,,null,,,,
null,is marrying,,html-keyboard-response,268,1975515,0.0-17.0-2.10,32165,List2A,white,man,,,,null,,,,
14593,,,survey-text,269,1990109,0.0-17.0-3.10,32165,List2A,white,man,,,,,"{""Q0"":""mike is marrying beth""}","<img src=""stim_listA/marry3.gif""</stim_listA>",is marrying,
null,"<div style=""font-size:60px;"">+</div>",,html-keyboard-response,270,1990610,0.0-17.0-0.11,32165,List2A,white,man,,,,null,,,,
null,"<img src=""stim_listA/dance6.gif""</stim_listA>",,html-keyboard-response,271,1992612,0.0-17.0-1.11,32165,List2A,white,man,,,,null,,,,
null,are dancing with each other,,html-keyboard-response,272,1994613,0.0-17.0-2.11,32165,List2A,white,man,,,,null,,,,
18655,,,survey-text,273,2013270,0.0-17.0-3.11,32165,List2A,white,man,,,,,"{""Q0"":""fred and dave are dancing with each other""}","<img src=""stim_listA/dance6.gif""</stim_listA>",are dancing with each other,
null,"<div style=""font-size:60px;"">+</div>",,html-keyboard-response,274,2013771,0.0-17.0-0.12,32165,List2A,white,man,,,,null,,,,
null,"<img src=""stim_listA/kiss4.gif""</stim_listA>",,html-keyboard-response,275,2015774,0.0-17.0-1.12,32165,List2A,white,man,,,,null,,,,
null,are kissing each other,,html-keyboard-response,276,2017776,0.0-17.0-2.12,32165,List2A,white,man,,,,null,,,,
22558,,,survey-text,277,2040335,0.0-17.0-3.12,32165,List2A,white,man,,,,,"{""Q0"":""mike and kate are kissing each other""}","<img src=""stim_listA/kiss4.gif""</stim_listA>",are kissing each other,
null,"<div style=""font-size:60px;"">+</div>",,html-keyboard-response,278,2040835,0.0-17.0-0.13,32165,List2A,white,man,,,,null,,,,
null,"<img src=""stim_listA/touch7.gif""</stim_listA>",,html-keyboard-response,279,2042837,0.0-17.0-1.13,32165,List2A,white,man,,,,null,,,,
null,is touching,,html-keyboard-response,280,2044838,0.0-17.0-2.13,32165,List2A,white,man,,,,null,,,,
14988,,,survey-text,281,2059826,0.0-17.0-3.13,32165,List2A,white,man,,,,,"{""Q0"":""kate is touching jane""}","<img src=""stim_listA/touch7.gif""</stim_listA>",is touching,
null,"<div style=""font-size:60px;"">+</div>",,html-keyboard-response,282,2060327,0.0-17.0-0.14,32165,List2A,white,man,,,,null,,,,
null,"<img src=""stim_listA/touch3.gif""</stim_listA>",,html-keyboard-response,283,2062330,0.0-17.0-1.14,32165,List2A,white,man,,,,null,,,,
null,is touching,,html-keyboard-response,284,2064331,0.0-17.0-2.14,32165,List2A,white,man,,,,null,,,,
13795,,,survey-text,285,2078128,0.0-17.0-3.14,32165,List2A,white,man,,,,,"{""Q0"":""mike is touching kate""}","<img src=""stim_listA/touch3.gif""</stim_listA>",is touching,
null,"<div style=""font-size:60px;"">+</div>",,html-keyboard-response,286,2078630,0.0-17.0-0.15,32165,List2A,white,man,,,,null,,,,
null,"<img src=""stim_listA/talk2.gif""</stim_listA>",,html-keyboard-response,287,2080631,0.0-17.0-1.15,32165,List2A,white,man,,,,null,,,,
null,are talking to each other,,html-keyboard-response,288,2082633,0.0-17.0-2.15,32165,List2A,white,man,,,,null,,,,
22642,,,survey-text,289,2105276,0.0-17.0-3.15,32165,List2A,white,man,,,,,"{""Q0"":""dave and ruth are talking to each other""}","<img src=""stim_listA/talk2.gif""</stim_listA>",are talking to each other,
null,"<div style=""font-size:60px;"">+</div>",,html-keyboard-response,290,2105777,0.0-17.0-0.16,32165,List2A,white,man,,,,null,,,,
null,"<img src=""stim_listA/talk8.gif""</stim_listA>",,html-keyboard-response,291,2107778,0.0-17.0-1.16,32165,List2A,white,man,,,,null,,,,
null,are talking to each other,,html-keyboard-response,292,2109779,0.0-17.0-2.16,32165,List2A,white,man,,,,null,,,,
29423,,,survey-text,293,2139204,0.0-17.0-3.16,32165,List2A,white,man,,,,,"{""Q0"":""jane and kate are talking to each other""}","<img src=""stim_listA/talk8.gif""</stim_listA>",are talking to each other,
null,"<div style=""font-size:60px;"">+</div>",,html-keyboard-response,294,2139707,0.0-17.0-0.17,32165,List2A,white,man,,,,null,,,,
null,"<img src=""stim_listA/shout3.gif""</stim_listA>",,html-keyboard-response,295,2141709,0.0-17.0-1.17,32165,List2A,white,man,,,,null,,,,
null,is shouting at,,html-keyboard-response,296,2143710,0.0-17.0-2.17,32165,List2A,white,man,,,,null,,,,
15381,,,survey-text,297,2159093,0.0-17.0-3.17,32165,List2A,white,man,,,,,"{""Q0"":""fred is shouting at beth""}","<img src=""stim_listA/shout3.gif""</stim_listA>",is shouting at,
null,"<div style=""font-size:60px;"">+</div>",,html-keyboard-response,298,2159594,0.0-17.0-0.18,32165,List2A,white,man,,,,null,,,,
null,"<img src=""stim_listA/fight1.gif""</stim_listA>",,html-keyboard-response,299,2161596,0.0-17.0-1.18,32165,List2A,white,man,,,,null,,,,
null,is fighting,,html-keyboard-response,300,2163598,0.0-17.0-2.18,32165,List2A,white,man,,,,null,,,,
14309,,,survey-text,301,2177909,0.0-17.0-3.18,32165,List2A,white,man,,,,,"{""Q0"":""dave is fighting jane""}","<img src=""stim_listA/fight1.gif""</stim_listA>",is fighting,
null,"<div style=""font-size:60px;"">+</div>",,html-keyboard-response,302,2178410,0.0-17.0-0.19,32165,List2A,white,man,,,,null,,,,
null,"<img src=""stim_listA/meet4.gif""</stim_listA>",,html-keyboard-response,303,2180413,0.0-17.0-1.19,32165,List2A,white,man,,,,null,,,,
null,are meeting each other,,html-keyboard-response,304,2182415,0.0-17.0-2.19,32165,List2A,white,man,,,,null,,,,
20555,,,survey-text,305,2202971,0.0-17.0-3.19,32165,List2A,white,man,,,,,"{""Q0"":""fred and beth are meeting each other""}","<img src=""stim_listA/meet4.gif""</stim_listA>",are meeting each other,
11516,"<img src='img/portrait_matrix_list2.JPG' style='width:900px;height:500px;''></img><p>If you have memorised all the portraits and names and are ready to start, press Continue.</p><p><strong>Please note: Your memory of these faces will be tested 4 times during this experiment.</strong></p>",0,html-button-response,306,2214489,0.0-18.0-0.0,32165,List2A,white,man,,,,,,,,
2762,"<img src=""portrait/WM1.jpg""style=""width:400px;height:400px;""></img>",6,html-button-response,307,2218252,0.0-18.0-1.0,32165,List2A,white,man,,TRUE,6,,,,,
null,CORRECT,,html-keyboard-response,308,2219755,0.0-18.0-2.0-0.0,32165,List2A,white,man,,,,null,,,,
8041,"<img src=""portrait/BW2.jpg""style=""width:400px;height:400px;""></img>",2,html-button-response,309,2227798,0.0-18.0-4.0,32165,List2A,white,man,,TRUE,2,,,,,
null,CORRECT,,html-keyboard-response,310,2229300,0.0-18.0-5.0-0.0,32165,List2A,white,man,,,,null,,,,
1642,"<img src=""portrait/WM2.jpg""style=""width:400px;height:400px;""></img>",7,html-button-response,311,2230943,0.0-18.0-7.0,32165,List2A,white,man,,TRUE,7,,,,,
null,CORRECT,,html-keyboard-response,312,2232445,0.0-18.0-8.0-0.0,32165,List2A,white,man,,,,null,,,,
2428,"<img src=""portrait/BM1.jpg""style=""width:400px;height:400px;""></img>",4,html-button-response,313,2234874,0.0-18.0-10.0,32165,List2A,white,man,,TRUE,4,,,,,
null,CORRECT,,html-keyboard-response,314,2236376,0.0-18.0-11.0-0.0,32165,List2A,white,man,,,,null,,,,
6861,"<img src=""portrait/WW2.jpg""style=""width:400px;height:400px;""></img>",3,html-button-response,315,2243239,0.0-18.0-13.0,32165,List2A,white,man,,TRUE,3,,,,,
null,CORRECT,,html-keyboard-response,316,2244744,0.0-18.0-14.0-0.0,32165,List2A,white,man,,,,null,,,,
3636,"<img src=""portrait/BM2.jpg""style=""width:400px;height:400px;""></img>",5,html-button-response,317,2248382,0.0-18.0-16.0,32165,List2A,white,man,,TRUE,5,,,,,
null,CORRECT,,html-keyboard-response,318,2249884,0.0-18.0-17.0-0.0,32165,List2A,white,man,,,,null,,,,
13439,"<img src=""portrait/BW1.jpg""style=""width:400px;height:400px;""></img>",0,html-button-response,319,2263324,0.0-18.0-19.0,32165,List2A,white,man,,TRUE,0,,,,,
null,CORRECT,,html-keyboard-response,320,2264827,0.0-18.0-20.0-0.0,32165,List2A,white,man,,,,null,,,,
12527,"<img src=""portrait/WW1.jpg""style=""width:400px;height:400px;""></img>",1,html-button-response,321,2277354,0.0-18.0-22.0,32165,List2A,white,man,,TRUE,1,,,,,
null,CORRECT,,html-keyboard-response,322,2278857,0.0-18.0-23.0-0.0,32165,List2A,white,man,,,,null,,,,
1687,<p>You got 8 out of 8 right first time. Press Continue.</p>,0,html-button-response,323,2280546,0.0-18.0-25.0,32165,List2A,white,man,,,,,,,,
null,"<div style=""font-size:60px;"">+</div>",,html-keyboard-response,324,2282051,0.0-19.0-0.0,32165,List2A,white,man,,,,null,,,,
null,"<img src=""stim_listA/hug2.gif""</stim_listA>",,html-keyboard-response,325,2284054,0.0-19.0-1.0,32165,List2A,white,man,,,,null,,,,
null,are hugging each other,,html-keyboard-response,326,2286055,0.0-19.0-2.0,32165,List2A,white,man,,,,null,,,,
17592,,,survey-text,327,2303648,0.0-19.0-3.0,32165,List2A,white,man,,,,,"{""Q0"":""dave and jane are hugging each other""}","<img src=""stim_listA/hug2.gif""</stim_listA>",are hugging each other,
null,"<div style=""font-size:60px;"">+</div>",,html-keyboard-response,328,2304149,0.0-19.0-0.1,32165,List2A,white,man,,,,null,,,,
null,"<img src=""stim_listA/fight2.gif""</stim_listA>",,html-keyboard-response,329,2306152,0.0-19.0-1.1,32165,List2A,white,man,,,,null,,,,
null,are fighting each other,,html-keyboard-response,330,2308154,0.0-19.0-2.1,32165,List2A,white,man,,,,null,,,,
30664,,,survey-text,331,2338819,0.0-19.0-3.1,32165,List2A,white,man,,,,,"{""Q0"":""luke and jane are fighting each other ""}","<img src=""stim_listA/fight2.gif""</stim_listA>",are fighting each other,
null,"<div style=""font-size:60px;"">+</div>",,html-keyboard-response,332,2339321,0.0-19.0-0.2,32165,List2A,white,man,,,,null,,,,
null,"<img src=""stim_listA/shout7.gif""</stim_listA>",,html-keyboard-response,333,2341324,0.0-19.0-1.2,32165,List2A,white,man,,,,null,,,,
null,is shouting at,,html-keyboard-response,334,2343325,0.0-19.0-2.2,32165,List2A,white,man,,,,null,,,,
36390,,,survey-text,335,2379717,0.0-19.0-3.2,32165,List2A,white,man,,,,,"{""Q0"":""beth is shouting at jane""}","<img src=""stim_listA/shout7.gif""</stim_listA>",is shouting at,
null,"<div style=""font-size:60px;"">+</div>",,html-keyboard-response,336,2380218,0.0-19.0-0.3,32165,List2A,white,man,,,,null,,,,
null,"<img src=""stim_listA/marry4.gif""</stim_listA>",,html-keyboard-response,337,2382223,0.0-19.0-1.3,32165,List2A,white,man,,,,null,,,,
null,are marrying each other,,html-keyboard-response,338,2384224,0.0-19.0-2.3,32165,List2A,white,man,,,,null,,,,
26971,,,survey-text,339,2411197,0.0-19.0-3.3,32165,List2A,white,man,,,,,"{""Q0"":""fred and kate are marrying each other""}","<img src=""stim_listA/marry4.gif""</stim_listA>",are marrying each other,
null,"<div style=""font-size:60px;"">+</div>",,html-keyboard-response,340,2411698,0.0-19.0-0.4,32165,List2A,white,man,,,,null,,,,
null,"<img src=""stim_listA/marry8.gif""</stim_listA>",,html-keyboard-response,341,2413709,0.0-19.0-1.4,32165,List2A,white,man,,,,null,,,,
null,are marrying each other,,html-keyboard-response,342,2415710,0.0-19.0-2.4,32165,List2A,white,man,,,,null,,,,
26825,,,survey-text,343,2442536,0.0-19.0-3.4,32165,List2A,white,man,,,,,"{""Q0"":""kate and ruth are marrying each other ""}","<img src=""stim_listA/marry8.gif""</stim_listA>",are marrying each other,
null,"<div style=""font-size:60px;"">+</div>",,html-keyboard-response,344,2443038,0.0-19.0-0.5,32165,List2A,white,man,,,,null,,,,
null,"<img src=""stim_listA/argue3.gif""</stim_listA>",,html-keyboard-response,345,2445041,0.0-19.0-1.5,32165,List2A,white,man,,,,null,,,,
null,is arguing with,,html-keyboard-response,346,2447043,0.0-19.0-2.5,32165,List2A,white,man,,,,null,,,,
22590,,,survey-text,347,2469634,0.0-19.0-3.5,32165,List2A,white,man,,,,,"{""Q0"":""mike is arguing with beth""}","<img src=""stim_listA/argue3.gif""</stim_listA>",is arguing with,
null,"<div style=""font-size:60px;"">+</div>",,html-keyboard-response,348,2470135,0.0-19.0-0.6,32165,List2A,white,man,,,,null,,,,
null,"<img src=""stim_listA/hug6.gif""</stim_listA>",,html-keyboard-response,349,2472137,0.0-19.0-1.6,32165,List2A,white,man,,,,null,,,,
null,are hugging each other,,html-keyboard-response,350,2474138,0.0-19.0-2.6,32165,List2A,white,man,,,,null,,,,
14106,,,survey-text,351,2488245,0.0-19.0-3.6,32165,List2A,white,man,,,,,"{""Q0"":""dave and mike are hugging each other ""}","<img src=""stim_listA/hug6.gif""</stim_listA>",are hugging each other,
null,"<div style=""font-size:60px;"">+</div>",,html-keyboard-response,352,2488747,0.0-19.0-0.7,32165,List2A,white,man,,,,null,,,,
null,"<img src=""stim_listA/dance1.gif""</stim_listA>",,html-keyboard-response,353,2490750,0.0-19.0-1.7,32165,List2A,white,man,,,,null,,,,
null,is dancing with,,html-keyboard-response,354,2492753,0.0-19.0-2.7,32165,List2A,white,man,,,,null,,,,
9177,,,survey-text,355,2501931,0.0-19.0-3.7,32165,List2A,white,man,,,,,"{""Q0"":""luke is dancing with jane""}","<img src=""stim_listA/dance1.gif""</stim_listA>",is dancing with,
null,"<div style=""font-size:60px;"">+</div>",,html-keyboard-response,356,2502432,0.0-19.0-0.8,32165,List2A,white,man,,,,null,,,,
null,"<img src=""stim_listA/kiss3.gif""</stim_listA>",,html-keyboard-response,357,2504434,0.0-19.0-1.8,32165,List2A,white,man,,,,null,,,,
null,is kissing,,html-keyboard-response,358,2506436,0.0-19.0-2.8,32165,List2A,white,man,,,,null,,,,
16210,,,survey-text,359,2522647,0.0-19.0-3.8,32165,List2A,white,man,,,,,"{""Q0"":""fred is kissing beth""}","<img src=""stim_listA/kiss3.gif""</stim_listA>",is kissing,
null,"<div style=""font-size:60px;"">+</div>",,html-keyboard-response,360,2523148,0.0-19.0-0.9,32165,List2A,white,man,,,,null,,,,
null,"<img src=""stim_listA/talk6.gif""</stim_listA>",,html-keyboard-response,361,2525152,0.0-19.0-1.9,32165,List2A,white,man,,,,null,,,,
null,are talking to each other,,html-keyboard-response,362,2527154,0.0-19.0-2.9,32165,List2A,white,man,,,,null,,,,
12899,,,survey-text,363,2540054,0.0-19.0-3.9,32165,List2A,white,man,,,,,"{""Q0"":""dave and fred are talking to each other""}","<img src=""stim_listA/talk6.gif""</stim_listA>",are talking to each other,
null,"<div style=""font-size:60px;"">+</div>",,html-keyboard-response,364,2540556,0.0-19.0-0.10,32165,List2A,white,man,,,,null,,,,
null,"<img src=""stim_listA/argue4.gif""</stim_listA>",,html-keyboard-response,365,2542558,0.0-19.0-1.10,32165,List2A,white,man,,,,null,,,,
null,are arguing with each other,,html-keyboard-response,366,2544561,0.0-19.0-2.10,32165,List2A,white,man,,,,null,,,,
19299,,,survey-text,367,2563860,0.0-19.0-3.10,32165,List2A,white,man,,,,,"{""Q0"":""fred and kate are arguing with each other""}","<img src=""stim_listA/argue4.gif""</stim_listA>",are arguing with each other,
null,"<div style=""font-size:60px;"">+</div>",,html-keyboard-response,368,2564363,0.0-19.0-0.11,32165,List2A,white,man,,,,null,,,,
null,"<img src=""stim_listA/argue5.gif""</stim_listA>",,html-keyboard-response,369,2566364,0.0-19.0-1.11,32165,List2A,white,man,,,,null,,,,
null,is arguing with,,html-keyboard-response,370,2568367,0.0-19.0-2.11,32165,List2A,white,man,,,,null,,,,
15930,,,survey-text,371,2584299,0.0-19.0-3.11,32165,List2A,white,man,,,,,"{""Q0"":""fred is arguing with dave""}","<img src=""stim_listA/argue5.gif""</stim_listA>",is arguing with,
null,"<div style=""font-size:60px;"">+</div>",,html-keyboard-response,372,2584800,0.0-19.0-0.12,32165,List2A,white,man,,,,null,,,,
null,"<img src=""stim_listA/fight3.gif""</stim_listA>",,html-keyboard-response,373,2586803,0.0-19.0-1.12,32165,List2A,white,man,,,,null,,,,
null,is fighting,,html-keyboard-response,374,2588807,0.0-19.0-2.12,32165,List2A,white,man,,,,null,,,,
14896,,,survey-text,375,2603704,0.0-19.0-3.12,32165,List2A,white,man,,,,,"{""Q0"":""mike is fighting kate""}","<img src=""stim_listA/fight3.gif""</stim_listA>",is fighting,
null,"<div style=""font-size:60px;"">+</div>",,html-keyboard-response,376,2604205,0.0-19.0-0.13,32165,List2A,white,man,,,,null,,,,
null,"<img src=""stim_listA/hug3.gif""</stim_listA>",,html-keyboard-response,377,2606208,0.0-19.0-1.13,32165,List2A,white,man,,,,null,,,,
null,is hugging,,html-keyboard-response,378,2608211,0.0-19.0-2.13,32165,List2A,white,man,,,,null,,,,
13444,,,survey-text,379,2621655,0.0-19.0-3.13,32165,List2A,white,man,,,,,"{""Q0"":""fred is hugging beth""}","<img src=""stim_listA/hug3.gif""</stim_listA>",is hugging,
null,"<div style=""font-size:60px;"">+</div>",,html-keyboard-response,380,2622156,0.0-19.0-0.14,32165,List2A,white,man,,,,null,,,,
null,"<img src=""stim_listA/kiss8.gif""</stim_listA>",,html-keyboard-response,381,2624159,0.0-19.0-1.14,32165,List2A,white,man,,,,null,,,,
null,are kissing each other,,html-keyboard-response,382,2626160,0.0-19.0-2.14,32165,List2A,white,man,,,,null,,,,
24966,,,survey-text,383,2651128,0.0-19.0-3.14,32165,List2A,white,man,,,,,"{""Q0"":""kate and jane are kissing each other ""}","<img src=""stim_listA/kiss8.gif""</stim_listA>",are kissing each other,
null,"<div style=""font-size:60px;"">+</div>",,html-keyboard-response,384,2651629,0.0-19.0-0.15,32165,List2A,white,man,,,,null,,,,
null,"<img src=""stim_listA/fight6.gif""</stim_listA>",,html-keyboard-response,385,2653631,0.0-19.0-1.15,32165,List2A,white,man,,,,null,,,,
null,are fighting each other,,html-keyboard-response,386,2655633,0.0-19.0-2.15,32165,List2A,white,man,,,,null,,,,
17431,,,survey-text,387,2673065,0.0-19.0-3.15,32165,List2A,white,man,,,,,"{""Q0"":""luke and fred are fighting each other""}","<img src=""stim_listA/fight6.gif""</stim_listA>",are fighting each other,
null,"<div style=""font-size:60px;"">+</div>",,html-keyboard-response,388,2673567,0.0-19.0-0.16,32165,List2A,white,man,,,,null,,,,
null,"<img src=""stim_listA/argue2.gif""</stim_listA>",,html-keyboard-response,389,2675570,0.0-19.0-1.16,32165,List2A,white,man,,,,null,,,,
null,are arguing with each other,,html-keyboard-response,390,2677572,0.0-19.0-2.16,32165,List2A,white,man,,,,null,,,,
15551,,,survey-text,391,2693123,0.0-19.0-3.16,32165,List2A,white,man,,,,,"{""Q0"":""luke and jane are arguing with each other ""}","<img src=""stim_listA/argue2.gif""</stim_listA>",are arguing with each other,
null,"<div style=""font-size:60px;"">+</div>",,html-keyboard-response,392,2693624,0.0-19.0-0.17,32165,List2A,white,man,,,,null,,,,
null,"<img src=""stim_listA/talk3.gif""</stim_listA>",,html-keyboard-response,393,2695626,0.0-19.0-1.17,32165,List2A,white,man,,,,null,,,,
null,is talking to,,html-keyboard-response,394,2697629,0.0-19.0-2.17,32165,List2A,white,man,,,,null,,,,
13822,,,survey-text,395,2711451,0.0-19.0-3.17,32165,List2A,white,man,,,,,"{""Q0"":""fred is talking to kate""}","<img src=""stim_listA/talk3.gif""</stim_listA>",is talking to,
null,"<div style=""font-size:60px;"">+</div>",,html-keyboard-response,396,2711953,0.0-19.0-0.18,32165,List2A,white,man,,,,null,,,,
null,"<img src=""stim_listA/dance5.gif""</stim_listA>",,html-keyboard-response,397,2713955,0.0-19.0-1.18,32165,List2A,white,man,,,,null,,,,
null,is dancing with,,html-keyboard-response,398,2715956,0.0-19.0-2.18,32165,List2A,white,man,,,,null,,,,
9519,,,survey-text,399,2725478,0.0-19.0-3.18,32165,List2A,white,man,,,,,"{""Q0"":""mike is dancing with luke""}","<img src=""stim_listA/dance5.gif""</stim_listA>",is dancing with,
null,"<div style=""font-size:60px;"">+</div>",,html-keyboard-response,400,2725979,0.0-19.0-0.19,32165,List2A,white,man,,,,null,,,,
null,"<img src=""stim_listA/talk1.gif""</stim_listA>",,html-keyboard-response,401,2727981,0.0-19.0-1.19,32165,List2A,white,man,,,,null,,,,
null,is talking to,,html-keyboard-response,402,2729982,0.0-19.0-2.19,32165,List2A,white,man,,,,null,,,,
9815,,,survey-text,403,2739798,0.0-19.0-3.19,32165,List2A,white,man,,,,,"{""Q0"":""luke is talking to jane""}","<img src=""stim_listA/talk1.gif""</stim_listA>",is talking to,
2508,<p>Thank you for completing that task.</p><p>The final part of this session is a short questionnaire.</p><p>Press Continue.</p>,0,html-button-response,404,2742307,0.0-20.0,32165,List2A,white,man,,,,,,,,
38918,,,survey-text,405,2782227,0.0-21.0,32165,List2A,white,man,,,,,"{""Q0"":""70"",""Q1"":""English"",""Q2"":""English"",""Q3"":""UK"",""Q4"":""White caucasian"",""Q5"":""Male""}",,,demographics
66596,,,survey-likert,406,2848831,0.0-22.0,32165,List2A,white,man,,,,,"{""Q0"":3,""Q1"":1,""Q2"":0,""Q3"":3,""Q4"":3,""Q5"":4,""Q6"":3,""Q7"":1,""Q8"":3,""Q9"":3,""Q10"":1,""Q11"":5,""Q12"":4,""Q13"":1}",,,likert_race
65070,,,survey-likert,407,2913906,0.0-23.0,32165,List2A,white,man,,,,,"{""Q0"":5,""Q1"":5,""Q2"":4,""Q3"":6,""Q4"":2,""Q5"":4,""Q6"":5,""Q7"":3,""Q8"":5,""Q9"":4,""Q10"":1,""Q11"":0,""Q12"":5,""Q13"":1}",,,likert_gender
20343,,,survey-text,408,2934250,0.0-24.0,32165,List2A,white,man,,,,,"{""Q0"":""ccc""}",,,worker_id
30969,,,external-html,409,2965298,0.0-25.0,32165,List2A,white,man,debrief.html,,,,,,,
