rt,stimulus,button_pressed,trial_type,trial_index,time_elapsed,internal_node_id,subject,list,ppt_race,ppt_gender,url,first_guess,correct,key_press,responses,image_type,phrase_type,test_part
1686,Welcome to the experiment. Press Continue to begin.,0,html-button-response,0,1689,0.0-0.0,32729,List1A,white,man,,,,,,,,
24343,,,external-html,1,27360,0.0-1.0,32729,List1A,white,man,consent.html,,,,,,,
11516,"<p>On the next page, you will see portraits of 8 people and their names.</p><p>Your first task is to take a few minutes to memorise the names of these people.</p><p>You will have to recall their names during the rest of the experiment, so it is</p><p>essential that you try to memorise these people and their names as best as you can.</p><br><p><strong>You will then be tested on your memory of these names and portraits.</strong></p><br><p>The experiment will start after you have completed this memory test.</p><br><p>Ready?</p>",0,html-button-response,2,38878,0.0-2.0,32729,List1A,white,man,,,,,,,,
46043,"<img src='img/portrait_matrix_list1.JPG' style='width:900px;height:500px;''></img><p>If you have memorised all the portraits and names and are ready to start, press Continue.</p><p><strong>Please note: Your memory of these faces will be tested 4 times during this experiment.</strong></p>",0,html-button-response,3,85925,0.0-3.0-0.0,32729,List1A,white,man,,,,,,,,
10102,"<img src=""portrait/BW1.jpg""style=""width:400px;height:400px;""></img>",0,html-button-response,4,97039,0.0-3.0-1.0,32729,List1A,white,man,,TRUE,0,,,,,
null,CORRECT,,html-keyboard-response,5,98555,0.0-3.0-2.0-0.0,32729,List1A,white,man,,,,null,,,,
2861,"<img src=""portrait/WM2.jpg""style=""width:400px;height:400px;""></img>",7,html-button-response,6,101418,0.0-3.0-4.0,32729,List1A,white,man,,TRUE,7,,,,,
null,CORRECT,,html-keyboard-response,7,102934,0.0-3.0-5.0-0.0,32729,List1A,white,man,,,,null,,,,
5541,"<img src=""portrait/BM1.jpg""style=""width:400px;height:400px;""></img>",4,html-button-response,8,108477,0.0-3.0-7.0,32729,List1A,white,man,,TRUE,4,,,,,
null,CORRECT,,html-keyboard-response,9,109994,0.0-3.0-8.0-0.0,32729,List1A,white,man,,,,null,,,,
2588,"<img src=""portrait/BM2.jpg""style=""width:400px;height:400px;""></img>",5,html-button-response,10,112583,0.0-3.0-10.0,32729,List1A,white,man,,TRUE,5,,,,,
null,CORRECT,,html-keyboard-response,11,114093,0.0-3.0-11.0-0.0,32729,List1A,white,man,,,,null,,,,
2987,"<img src=""portrait/BW2.jpg""style=""width:400px;height:400px;""></img>",2,html-button-response,12,117082,0.0-3.0-13.0,32729,List1A,white,man,,TRUE,2,,,,,
null,CORRECT,,html-keyboard-response,13,118593,0.0-3.0-14.0-0.0,32729,List1A,white,man,,,,null,,,,
3620,"<img src=""portrait/WW1.jpg""style=""width:400px;height:400px;""></img>",1,html-button-response,14,122216,0.0-3.0-16.0,32729,List1A,white,man,,TRUE,1,,,,,
null,CORRECT,,html-keyboard-response,15,123734,0.0-3.0-17.0-0.0,32729,List1A,white,man,,,,null,,,,
5661,"<img src=""portrait/WW2.jpg""style=""width:400px;height:400px;""></img>",3,html-button-response,16,129396,0.0-3.0-19.0,32729,List1A,white,man,,TRUE,3,,,,,
null,CORRECT,,html-keyboard-response,17,130914,0.0-3.0-20.0-0.0,32729,List1A,white,man,,,,null,,,,
3848,"<img src=""portrait/WM1.jpg""style=""width:400px;height:400px;""></img>",6,html-button-response,18,134764,0.0-3.0-22.0,32729,List1A,white,man,,TRUE,6,,,,,
null,CORRECT,,html-keyboard-response,19,136283,0.0-3.0-23.0-0.0,32729,List1A,white,man,,,,null,,,,
1951,<p>You got 8 out of 8 right first time. Press Continue.</p>,0,html-button-response,20,138235,0.0-3.0-25.0,32729,List1A,white,man,,,,,,,,
31584,"<p>In this experiment, you will view photographs of the people from the memory game interacting.</p><p>By using the <strong>exact</strong> phrase given <i>after</i> the photograph appears and recalling the correct names of the people in the photographs, form a sentence describing the interaction. You do not need to capitalise names.</p><p>Type your answer in the space provided. Please complete every sentence before moving onto the next trial.</p><p>You will only have a few seconds to memorise each given photograph and phrase before you can respond, so try your best to focus.</p><p>An example is given below. Press 'Continue' when you are ready.</p><img src='img/speaking_example_v2.jpg' style='width:800px;height:460px;''></img>",0,html-button-response,21,170831,0.0-4.0,32729,List1A,white,man,,,,,,,,
2506,"<p>Before the experiment starts, you will watch two example trials. Press 'Continue'.</p>",0,html-button-response,22,174343,0.0-5.0,32729,List1A,white,man,,,,,,,,
null,<img src='img/speaking_WW.gif'></img>,,html-keyboard-response,23,177356,0.0-6.0,32729,List1A,white,man,,,,null,,,,
null,<p>is speaking to</p>,,html-keyboard-response,24,179367,0.0-7.0,32729,List1A,white,man,,,,null,,,,
4314,<p><b>Answer:</b> kate is speaking to beth</p>,0,html-button-response,25,183681,0.0-8.0,32729,List1A,white,man,,,,,,,,
null,<img src='img/pointing_BM.gif'></img>,,html-keyboard-response,26,186696,0.0-9.0,32729,List1A,white,man,,,,null,,,,
null,<p>are pointing at each other</p>,,html-keyboard-response,27,188707,0.0-10.0,32729,List1A,white,man,,,,null,,,,
2864,<p><b>Answer:</b> luke and dave are pointing at each other</p>,0,html-button-response,28,191571,0.0-11.0,32729,List1A,white,man,,,,,,,,
18583,"<p>Ready to start the experiment?</p><br><p><strong>Remember to describe the picture using a full sentence,</strong></p><p><strong>that combines the names of the people with the given phrase.</strong></p><p><strong>If you do not do this correctly you will not be paid.</strong></p><p><strong> You do not need to capitalise names or use punctuation.</strong></p><br><p>Press 'Continue' to begin.</p>",0,html-button-response,29,211159,0.0-12.0,32729,List1A,white,man,,,,,,,,
null,"<div style=""font-size:60px;"">+</div>",,html-keyboard-response,30,212679,0.0-13.0-0.0,32729,List1A,white,man,,,,null,,,,
null,"<img src=""stim_listA/meet6.gif""</stim_listA>",,html-keyboard-response,31,214689,0.0-13.0-1.0,32729,List1A,white,man,,,,null,,,,
null,are meeting each other,,html-keyboard-response,32,216700,0.0-13.0-2.0,32729,List1A,white,man,,,,null,,,,
21564,,,survey-text,33,238265,0.0-13.0-3.0,32729,List1A,white,man,,,,,"{""Q0"":""Fred and Luke are meeting each other""}","<img src=""stim_listA/meet6.gif""</stim_listA>",are meeting each other,
null,"<div style=""font-size:60px;"">+</div>",,html-keyboard-response,34,238769,0.0-13.0-0.1,32729,List1A,white,man,,,,null,,,,
null,"<img src=""stim_listA/hug8.gif""</stim_listA>",,html-keyboard-response,35,240779,0.0-13.0-1.1,32729,List1A,white,man,,,,null,,,,
null,are hugging each other,,html-keyboard-response,36,242789,0.0-13.0-2.1,32729,List1A,white,man,,,,null,,,,
10261,,,survey-text,37,253052,0.0-13.0-3.1,32729,List1A,white,man,,,,,"{""Q0"":""Kate and Jane are hugging each other""}","<img src=""stim_listA/hug8.gif""</stim_listA>",are hugging each other,
null,"<div style=""font-size:60px;"">+</div>",,html-keyboard-response,38,253557,0.0-13.0-0.2,32729,List1A,white,man,,,,null,,,,
null,"<img src=""stim_listA/meet7.gif""</stim_listA>",,html-keyboard-response,39,255559,0.0-13.0-1.2,32729,List1A,white,man,,,,null,,,,
null,is meeting,,html-keyboard-response,40,257569,0.0-13.0-2.2,32729,List1A,white,man,,,,null,,,,
5881,,,survey-text,41,263452,0.0-13.0-3.2,32729,List1A,white,man,,,,,"{""Q0"":""Kate is meeting Jane""}","<img src=""stim_listA/meet7.gif""</stim_listA>",is meeting,
null,"<div style=""font-size:60px;"">+</div>",,html-keyboard-response,42,263962,0.0-13.0-0.3,32729,List1A,white,man,,,,null,,,,
null,"<img src=""stim_listA/touch1.gif""</stim_listA>",,html-keyboard-response,43,265972,0.0-13.0-1.3,32729,List1A,white,man,,,,null,,,,
null,is touching,,html-keyboard-response,44,267982,0.0-13.0-2.3,32729,List1A,white,man,,,,null,,,,
8014,,,survey-text,45,275997,0.0-13.0-3.3,32729,List1A,white,man,,,,,"{""Q0"":""Mike is touching Kate""}","<img src=""stim_listA/touch1.gif""</stim_listA>",is touching,
null,"<div style=""font-size:60px;"">+</div>",,html-keyboard-response,46,276502,0.0-13.0-0.4,32729,List1A,white,man,,,,null,,,,
null,"<img src=""stim_listA/touch3.gif""</stim_listA>",,html-keyboard-response,47,278512,0.0-13.0-1.4,32729,List1A,white,man,,,,null,,,,
null,is touching,,html-keyboard-response,48,280522,0.0-13.0-2.4,32729,List1A,white,man,,,,null,,,,
7461,,,survey-text,49,287984,0.0-13.0-3.4,32729,List1A,white,man,,,,,"{""Q0"":""Jane is touching Dave""}","<img src=""stim_listA/touch3.gif""</stim_listA>",is touching,
null,"<div style=""font-size:60px;"">+</div>",,html-keyboard-response,50,288492,0.0-13.0-0.5,32729,List1A,white,man,,,,null,,,,
null,"<img src=""stim_listA/argue6.gif""</stim_listA>",,html-keyboard-response,51,290501,0.0-13.0-1.5,32729,List1A,white,man,,,,null,,,,
null,are arguing with each other,,html-keyboard-response,52,292504,0.0-13.0-2.5,32729,List1A,white,man,,,,null,,,,
8308,,,survey-text,53,300814,0.0-13.0-3.5,32729,List1A,white,man,,,,,"{""Q0"":""Fred and Dave are arguing with each other""}","<img src=""stim_listA/argue6.gif""</stim_listA>",are arguing with each other,
null,"<div style=""font-size:60px;"">+</div>",,html-keyboard-response,54,301323,0.0-13.0-0.6,32729,List1A,white,man,,,,null,,,,
null,"<img src=""stim_listA/shout1.gif""</stim_listA>",,html-keyboard-response,55,303325,0.0-13.0-1.6,32729,List1A,white,man,,,,null,,,,
null,is shouting at,,html-keyboard-response,56,305334,0.0-13.0-2.6,32729,List1A,white,man,,,,null,,,,
15611,,,survey-text,57,320947,0.0-13.0-3.6,32729,List1A,white,man,,,,,"{""Q0"":""Fred is shouting at Beth""}","<img src=""stim_listA/shout1.gif""</stim_listA>",is shouting at,
null,"<div style=""font-size:60px;"">+</div>",,html-keyboard-response,58,321454,0.0-13.0-0.7,32729,List1A,white,man,,,,null,,,,
null,"<img src=""stim_listA/shout6.gif""</stim_listA>",,html-keyboard-response,59,323465,0.0-13.0-1.7,32729,List1A,white,man,,,,null,,,,
null,are shouting at each other,,html-keyboard-response,60,325472,0.0-13.0-2.7,32729,List1A,white,man,,,,null,,,,
8362,,,survey-text,61,333835,0.0-13.0-3.7,32729,List1A,white,man,,,,,"{""Q0"":""Dave and Mike are shouting at each other""}","<img src=""stim_listA/shout6.gif""</stim_listA>",are shouting at each other,
null,"<div style=""font-size:60px;"">+</div>",,html-keyboard-response,62,334344,0.0-13.0-0.8,32729,List1A,white,man,,,,null,,,,
null,"<img src=""stim_listA/shout2.gif""</stim_listA>",,html-keyboard-response,63,336354,0.0-13.0-1.8,32729,List1A,white,man,,,,null,,,,
null,are shouting at each other,,html-keyboard-response,64,338365,0.0-13.0-2.8,32729,List1A,white,man,,,,null,,,,
7890,,,survey-text,65,346255,0.0-13.0-3.8,32729,List1A,white,man,,,,,"{""Q0"":""Mike and Kate are shouting at each other""}","<img src=""stim_listA/shout2.gif""</stim_listA>",are shouting at each other,
null,"<div style=""font-size:60px;"">+</div>",,html-keyboard-response,66,346765,0.0-13.0-0.9,32729,List1A,white,man,,,,null,,,,
null,"<img src=""stim_listA/dance2.gif""</stim_listA>",,html-keyboard-response,67,348774,0.0-13.0-1.9,32729,List1A,white,man,,,,null,,,,
null,are dancing with each other,,html-keyboard-response,68,350785,0.0-13.0-2.9,32729,List1A,white,man,,,,null,,,,
7908,,,survey-text,69,358693,0.0-13.0-3.9,32729,List1A,white,man,,,,,"{""Q0"":""Mike and Beth are dancing with each other""}","<img src=""stim_listA/dance2.gif""</stim_listA>",are dancing with each other,
null,"<div style=""font-size:60px;"">+</div>",,html-keyboard-response,70,359198,0.0-13.0-0.10,32729,List1A,white,man,,,,null,,,,
null,"<img src=""stim_listA/dance8.gif""</stim_listA>",,html-keyboard-response,71,361207,0.0-13.0-1.10,32729,List1A,white,man,,,,null,,,,
null,are dancing with each other,,html-keyboard-response,72,363217,0.0-13.0-2.10,32729,List1A,white,man,,,,null,,,,
24516,,,survey-text,73,387735,0.0-13.0-3.10,32729,List1A,white,man,,,,,"{""Q0"":""Kate and Jane are dancing with each other""}","<img src=""stim_listA/dance8.gif""</stim_listA>",are dancing with each other,
null,"<div style=""font-size:60px;"">+</div>",,html-keyboard-response,74,388237,0.0-13.0-0.11,32729,List1A,white,man,,,,null,,,,
null,"<img src=""stim_listA/talk6.gif""</stim_listA>",,html-keyboard-response,75,390247,0.0-13.0-1.11,32729,List1A,white,man,,,,null,,,,
null,are talking to each other,,html-keyboard-response,76,392253,0.0-13.0-2.11,32729,List1A,white,man,,,,null,,,,
6878,,,survey-text,77,399134,0.0-13.0-3.11,32729,List1A,white,man,,,,,"{""Q0"":""Mike and Luke are talking to each other""}","<img src=""stim_listA/talk6.gif""</stim_listA>",are talking to each other,
null,"<div style=""font-size:60px;"">+</div>",,html-keyboard-response,78,399637,0.0-13.0-0.12,32729,List1A,white,man,,,,null,,,,
null,"<img src=""stim_listA/marry4.gif""</stim_listA>",,html-keyboard-response,79,401647,0.0-13.0-1.12,32729,List1A,white,man,,,,null,,,,
null,are marrying each other,,html-keyboard-response,80,403654,0.0-13.0-2.12,32729,List1A,white,man,,,,null,,,,
6321,,,survey-text,81,409975,0.0-13.0-3.12,32729,List1A,white,man,,,,,"{""Q0"":""Ruth and Luke are marrying each other""}","<img src=""stim_listA/marry4.gif""</stim_listA>",are marrying each other,
null,"<div style=""font-size:60px;"">+</div>",,html-keyboard-response,82,410477,0.0-13.0-0.13,32729,List1A,white,man,,,,null,,,,
null,"<img src=""stim_listA/marry3.gif""</stim_listA>",,html-keyboard-response,83,412480,0.0-13.0-1.13,32729,List1A,white,man,,,,null,,,,
null,is marrying,,html-keyboard-response,84,414487,0.0-13.0-2.13,32729,List1A,white,man,,,,null,,,,
6070,,,survey-text,85,420557,0.0-13.0-3.13,32729,List1A,white,man,,,,,"{""Q0"":""Dave is marrying Jane""}","<img src=""stim_listA/marry3.gif""</stim_listA>",is marrying,
null,"<div style=""font-size:60px;"">+</div>",,html-keyboard-response,86,421060,0.0-13.0-0.14,32729,List1A,white,man,,,,null,,,,
null,"<img src=""stim_listA/kiss2.gif""</stim_listA>",,html-keyboard-response,87,423070,0.0-13.0-1.14,32729,List1A,white,man,,,,null,,,,
null,are kissing each other,,html-keyboard-response,88,425080,0.0-13.0-2.14,32729,List1A,white,man,,,,null,,,,
6667,,,survey-text,89,431748,0.0-13.0-3.14,32729,List1A,white,man,,,,,"{""Q0"":""Mike and Kate are kissing each other""}","<img src=""stim_listA/kiss2.gif""</stim_listA>",are kissing each other,
null,"<div style=""font-size:60px;"">+</div>",,html-keyboard-response,90,432250,0.0-13.0-0.15,32729,List1A,white,man,,,,null,,,,
null,"<img src=""stim_listA/fight5.gif""</stim_listA>",,html-keyboard-response,91,434260,0.0-13.0-1.15,32729,List1A,white,man,,,,null,,,,
null,is fighting,,html-keyboard-response,92,436270,0.0-13.0-2.15,32729,List1A,white,man,,,,null,,,,
5915,,,survey-text,93,442186,0.0-13.0-3.15,32729,List1A,white,man,,,,,"{""Q0"":""Mike is fighting Dave""}","<img src=""stim_listA/fight5.gif""</stim_listA>",is fighting,
null,"<div style=""font-size:60px;"">+</div>",,html-keyboard-response,94,442690,0.0-13.0-0.16,32729,List1A,white,man,,,,null,,,,
null,"<img src=""stim_listA/kiss1.gif""</stim_listA>",,html-keyboard-response,95,444700,0.0-13.0-1.16,32729,List1A,white,man,,,,null,,,,
null,is kissing,,html-keyboard-response,96,446710,0.0-13.0-2.16,32729,List1A,white,man,,,,null,,,,
8669,,,survey-text,97,455379,0.0-13.0-3.16,32729,List1A,white,man,,,,,"{""Q0"":""Fred is kissing Beth""}","<img src=""stim_listA/kiss1.gif""</stim_listA>",is kissing,
null,"<div style=""font-size:60px;"">+</div>",,html-keyboard-response,98,455890,0.0-13.0-0.17,32729,List1A,white,man,,,,null,,,,
null,"<img src=""stim_listA/kiss5.gif""</stim_listA>",,html-keyboard-response,99,457900,0.0-13.0-1.17,32729,List1A,white,man,,,,null,,,,
null,is kissing,,html-keyboard-response,100,459903,0.0-13.0-2.17,32729,List1A,white,man,,,,null,,,,
4876,,,survey-text,101,464780,0.0-13.0-3.17,32729,List1A,white,man,,,,,"{""Q0"":""Fred is kissing Luke""}","<img src=""stim_listA/kiss5.gif""</stim_listA>",is kissing,
null,"<div style=""font-size:60px;"">+</div>",,html-keyboard-response,102,465290,0.0-13.0-0.18,32729,List1A,white,man,,,,null,,,,
null,"<img src=""stim_listA/fight1.gif""</stim_listA>",,html-keyboard-response,103,467300,0.0-13.0-1.18,32729,List1A,white,man,,,,null,,,,
null,is fighting,,html-keyboard-response,104,469309,0.0-13.0-2.18,32729,List1A,white,man,,,,null,,,,
5466,,,survey-text,105,474777,0.0-13.0-3.18,32729,List1A,white,man,,,,,"{""Q0"":""Mike is fighting Kate""}","<img src=""stim_listA/fight1.gif""</stim_listA>",is fighting,
null,"<div style=""font-size:60px;"">+</div>",,html-keyboard-response,106,475283,0.0-13.0-0.19,32729,List1A,white,man,,,,null,,,,
null,"<img src=""stim_listA/meet8.gif""</stim_listA>",,html-keyboard-response,107,477292,0.0-13.0-1.19,32729,List1A,white,man,,,,null,,,,
null,are meeting each other,,html-keyboard-response,108,479302,0.0-13.0-2.19,32729,List1A,white,man,,,,null,,,,
9918,,,survey-text,109,489220,0.0-13.0-3.19,32729,List1A,white,man,,,,,"{""Q0"":""Ruth and Beth are meeting each other""}","<img src=""stim_listA/meet8.gif""</stim_listA>",are meeting each other,
14728,"<img src='img/portrait_matrix_list1.JPG' style='width:900px;height:500px;''></img><p>If you have memorised all the portraits and names and are ready to start, press Continue.</p><p><strong>Please note: Your memory of these faces will be tested 4 times during this experiment.</strong></p>",0,html-button-response,110,503950,0.0-14.0-0.0,32729,List1A,white,man,,,,,,,,
1996,"<img src=""portrait/BW2.jpg""style=""width:400px;height:400px;""></img>",2,html-button-response,111,506953,0.0-14.0-1.0,32729,List1A,white,man,,TRUE,2,,,,,
null,CORRECT,,html-keyboard-response,112,508466,0.0-14.0-2.0-0.0,32729,List1A,white,man,,,,null,,,,
2500,"<img src=""portrait/BM1.jpg""style=""width:400px;height:400px;""></img>",4,html-button-response,113,510966,0.0-14.0-4.0,32729,List1A,white,man,,TRUE,4,,,,,
null,CORRECT,,html-keyboard-response,114,512476,0.0-14.0-5.0-0.0,32729,List1A,white,man,,,,null,,,,
1667,"<img src=""portrait/BW1.jpg""style=""width:400px;height:400px;""></img>",0,html-button-response,115,514145,0.0-14.0-7.0,32729,List1A,white,man,,TRUE,0,,,,,
null,CORRECT,,html-keyboard-response,116,515656,0.0-14.0-8.0-0.0,32729,List1A,white,man,,,,null,,,,
1882,"<img src=""portrait/WM1.jpg""style=""width:400px;height:400px;""></img>",6,html-button-response,117,517539,0.0-14.0-10.0,32729,List1A,white,man,,TRUE,6,,,,,
null,CORRECT,,html-keyboard-response,118,519056,0.0-14.0-11.0-0.0,32729,List1A,white,man,,,,null,,,,
1461,"<img src=""portrait/WW1.jpg""style=""width:400px;height:400px;""></img>",1,html-button-response,119,520519,0.0-14.0-13.0,32729,List1A,white,man,,TRUE,1,,,,,
null,CORRECT,,html-keyboard-response,120,522035,0.0-14.0-14.0-0.0,32729,List1A,white,man,,,,null,,,,
1223,"<img src=""portrait/WW2.jpg""style=""width:400px;height:400px;""></img>",3,html-button-response,121,523259,0.0-14.0-16.0,32729,List1A,white,man,,TRUE,3,,,,,
null,CORRECT,,html-keyboard-response,122,524776,0.0-14.0-17.0-0.0,32729,List1A,white,man,,,,null,,,,
1837,"<img src=""portrait/BM2.jpg""style=""width:400px;height:400px;""></img>",5,html-button-response,123,526614,0.0-14.0-19.0,32729,List1A,white,man,,TRUE,5,,,,,
null,CORRECT,,html-keyboard-response,124,528126,0.0-14.0-20.0-0.0,32729,List1A,white,man,,,,null,,,,
1518,"<img src=""portrait/WM2.jpg""style=""width:400px;height:400px;""></img>",7,html-button-response,125,529645,0.0-14.0-22.0,32729,List1A,white,man,,TRUE,7,,,,,
null,CORRECT,,html-keyboard-response,126,531156,0.0-14.0-23.0-0.0,32729,List1A,white,man,,,,null,,,,
854,<p>You got 8 out of 8 right first time. Press Continue.</p>,0,html-button-response,127,532014,0.0-14.0-25.0,32729,List1A,white,man,,,,,,,,
null,"<div style=""font-size:60px;"">+</div>",,html-keyboard-response,128,533526,0.0-15.0-0.0,32729,List1A,white,man,,,,null,,,,
null,"<img src=""stim_listA/fight3.gif""</stim_listA>",,html-keyboard-response,129,535535,0.0-15.0-1.0,32729,List1A,white,man,,,,null,,,,
null,is fighting,,html-keyboard-response,130,537545,0.0-15.0-2.0,32729,List1A,white,man,,,,null,,,,
8765,,,survey-text,131,546311,0.0-15.0-3.0,32729,List1A,white,man,,,,,"{""Q0"":""Dave is fighting Jane""}","<img src=""stim_listA/fight3.gif""</stim_listA>",is fighting,
null,"<div style=""font-size:60px;"">+</div>",,html-keyboard-response,132,546815,0.0-15.0-0.1,32729,List1A,white,man,,,,null,,,,
null,"<img src=""stim_listA/argue2.gif""</stim_listA>",,html-keyboard-response,133,548825,0.0-15.0-1.1,32729,List1A,white,man,,,,null,,,,
null,are arguing with each other,,html-keyboard-response,134,550835,0.0-15.0-2.1,32729,List1A,white,man,,,,null,,,,
11858,,,survey-text,135,562694,0.0-15.0-3.1,32729,List1A,white,man,,,,,"{""Q0"":""Kate and Fred are arguing with each other""}","<img src=""stim_listA/argue2.gif""</stim_listA>",are arguing with each other,
null,"<div style=""font-size:60px;"">+</div>",,html-keyboard-response,136,563198,0.0-15.0-0.2,32729,List1A,white,man,,,,null,,,,
null,"<img src=""stim_listA/kiss7.gif""</stim_listA>",,html-keyboard-response,137,565209,0.0-15.0-1.2,32729,List1A,white,man,,,,null,,,,
null,is kissing,,html-keyboard-response,138,567217,0.0-15.0-2.2,32729,List1A,white,man,,,,null,,,,
4745,,,survey-text,139,571962,0.0-15.0-3.2,32729,List1A,white,man,,,,,"{""Q0"":""Ruth is kissing Beth""}","<img src=""stim_listA/kiss7.gif""</stim_listA>",is kissing,
null,"<div style=""font-size:60px;"">+</div>",,html-keyboard-response,140,572466,0.0-15.0-0.3,32729,List1A,white,man,,,,null,,,,
null,"<img src=""stim_listA/hug4.gif""</stim_listA>",,html-keyboard-response,141,574468,0.0-15.0-1.3,32729,List1A,white,man,,,,null,,,,
null,are hugging each other,,html-keyboard-response,142,576478,0.0-15.0-2.3,32729,List1A,white,man,,,,null,,,,
7589,,,survey-text,143,584069,0.0-15.0-3.3,32729,List1A,white,man,,,,,"{""Q0"":""Jane and Dave are hugging each other""}","<img src=""stim_listA/hug4.gif""</stim_listA>",are hugging each other,
null,"<div style=""font-size:60px;"">+</div>",,html-keyboard-response,144,584578,0.0-15.0-0.4,32729,List1A,white,man,,,,null,,,,
null,"<img src=""stim_listA/talk7.gif""</stim_listA>",,html-keyboard-response,145,586588,0.0-15.0-1.4,32729,List1A,white,man,,,,null,,,,
null,is talking to,,html-keyboard-response,146,588598,0.0-15.0-2.4,32729,List1A,white,man,,,,null,,,,
5164,,,survey-text,147,593763,0.0-15.0-3.4,32729,List1A,white,man,,,,,"{""Q0"":""Beth is talking to Jane""}","<img src=""stim_listA/talk7.gif""</stim_listA>",is talking to,
null,"<div style=""font-size:60px;"">+</div>",,html-keyboard-response,148,594267,0.0-15.0-0.5,32729,List1A,white,man,,,,null,,,,
null,"<img src=""stim_listA/fight2.gif""</stim_listA>",,html-keyboard-response,149,596278,0.0-15.0-1.5,32729,List1A,white,man,,,,null,,,,
null,are fighting each other,,html-keyboard-response,150,598282,0.0-15.0-2.5,32729,List1A,white,man,,,,null,,,,
8876,,,survey-text,151,607160,0.0-15.0-3.5,32729,List1A,white,man,,,,,"{""Q0"":""Fred and Beth are fighting each other""}","<img src=""stim_listA/fight2.gif""</stim_listA>",are fighting each other,
null,"<div style=""font-size:60px;"">+</div>",,html-keyboard-response,152,607666,0.0-15.0-0.6,32729,List1A,white,man,,,,null,,,,
null,"<img src=""stim_listA/kiss4.gif""</stim_listA>",,html-keyboard-response,153,609668,0.0-15.0-1.6,32729,List1A,white,man,,,,null,,,,
null,are kissing each other,,html-keyboard-response,154,611678,0.0-15.0-2.6,32729,List1A,white,man,,,,null,,,,
6415,,,survey-text,155,618093,0.0-15.0-3.6,32729,List1A,white,man,,,,,"{""Q0"":""Dave and Jane are kissing each other""}","<img src=""stim_listA/kiss4.gif""</stim_listA>",are kissing each other,
null,"<div style=""font-size:60px;"">+</div>",,html-keyboard-response,156,618598,0.0-15.0-0.7,32729,List1A,white,man,,,,null,,,,
null,"<img src=""stim_listA/shout7.gif""</stim_listA>",,html-keyboard-response,157,620608,0.0-15.0-1.7,32729,List1A,white,man,,,,null,,,,
null,is shouting at,,html-keyboard-response,158,622610,0.0-15.0-2.7,32729,List1A,white,man,,,,null,,,,
6703,,,survey-text,159,629314,0.0-15.0-3.7,32729,List1A,white,man,,,,,"{""Q0"":""Beth is shouting at Ruth""}","<img src=""stim_listA/shout7.gif""</stim_listA>",is shouting at,
null,"<div style=""font-size:60px;"">+</div>",,html-keyboard-response,160,629821,0.0-15.0-0.8,32729,List1A,white,man,,,,null,,,,
null,"<img src=""stim_listA/touch5.gif""</stim_listA>",,html-keyboard-response,161,631831,0.0-15.0-1.8,32729,List1A,white,man,,,,null,,,,
null,is touching,,html-keyboard-response,162,633840,0.0-15.0-2.8,32729,List1A,white,man,,,,null,,,,
4382,,,survey-text,163,638224,0.0-15.0-3.8,32729,List1A,white,man,,,,,"{""Q0"":""Mike is touching Dave""}","<img src=""stim_listA/touch5.gif""</stim_listA>",is touching,
null,"<div style=""font-size:60px;"">+</div>",,html-keyboard-response,164,638730,0.0-15.0-0.9,32729,List1A,white,man,,,,null,,,,
null,"<img src=""stim_listA/shout8.gif""</stim_listA>",,html-keyboard-response,165,640740,0.0-15.0-1.9,32729,List1A,white,man,,,,null,,,,
null,are shouting at each other,,html-keyboard-response,166,642751,0.0-15.0-2.9,32729,List1A,white,man,,,,null,,,,
8995,,,survey-text,167,651747,0.0-15.0-3.9,32729,List1A,white,man,,,,,"{""Q0"":""Jane and Kate are shouting at each other""}","<img src=""stim_listA/shout8.gif""</stim_listA>",are shouting at each other,
null,"<div style=""font-size:60px;"">+</div>",,html-keyboard-response,168,652251,0.0-15.0-0.10,32729,List1A,white,man,,,,null,,,,
null,"<img src=""stim_listA/touch6.gif""</stim_listA>",,html-keyboard-response,169,654254,0.0-15.0-1.10,32729,List1A,white,man,,,,null,,,,
null,are touching each other,,html-keyboard-response,170,656264,0.0-15.0-2.10,32729,List1A,white,man,,,,null,,,,
6903,,,survey-text,171,663168,0.0-15.0-3.10,32729,List1A,white,man,,,,,"{""Q0"":""Fred and Luke are touching each other""}","<img src=""stim_listA/touch6.gif""</stim_listA>",are touching each other,
null,"<div style=""font-size:60px;"">+</div>",,html-keyboard-response,172,663674,0.0-15.0-0.11,32729,List1A,white,man,,,,null,,,,
null,"<img src=""stim_listA/talk1.gif""</stim_listA>",,html-keyboard-response,173,665684,0.0-15.0-1.11,32729,List1A,white,man,,,,null,,,,
null,is talking to,,html-keyboard-response,174,667694,0.0-15.0-2.11,32729,List1A,white,man,,,,null,,,,
4715,,,survey-text,175,672410,0.0-15.0-3.11,32729,List1A,white,man,,,,,"{""Q0"":""Fred is talking to Kate""}","<img src=""stim_listA/talk1.gif""</stim_listA>",is talking to,
null,"<div style=""font-size:60px;"">+</div>",,html-keyboard-response,176,672913,0.0-15.0-0.12,32729,List1A,white,man,,,,null,,,,
null,"<img src=""stim_listA/argue8.gif""</stim_listA>",,html-keyboard-response,177,674924,0.0-15.0-1.12,32729,List1A,white,man,,,,null,,,,
null,are arguing with each other,,html-keyboard-response,178,676931,0.0-15.0-2.12,32729,List1A,white,man,,,,null,,,,
9867,,,survey-text,179,686798,0.0-15.0-3.12,32729,List1A,white,man,,,,,"{""Q0"":""Beth and Jane are arguing with each other""}","<img src=""stim_listA/argue8.gif""</stim_listA>",are arguing with each other,
null,"<div style=""font-size:60px;"">+</div>",,html-keyboard-response,180,687304,0.0-15.0-0.13,32729,List1A,white,man,,,,null,,,,
null,"<img src=""stim_listA/marry7.gif""</stim_listA>",,html-keyboard-response,181,689314,0.0-15.0-1.13,32729,List1A,white,man,,,,null,,,,
null,is marrying,,html-keyboard-response,182,691323,0.0-15.0-2.13,32729,List1A,white,man,,,,null,,,,
4649,,,survey-text,183,695974,0.0-15.0-3.13,32729,List1A,white,man,,,,,"{""Q0"":""Kate is marrying Ruth""}","<img src=""stim_listA/marry7.gif""</stim_listA>",is marrying,
null,"<div style=""font-size:60px;"">+</div>",,html-keyboard-response,184,696484,0.0-15.0-0.14,32729,List1A,white,man,,,,null,,,,
null,"<img src=""stim_listA/talk3.gif""</stim_listA>",,html-keyboard-response,185,698494,0.0-15.0-1.14,32729,List1A,white,man,,,,null,,,,
null,is talking to,,html-keyboard-response,186,700497,0.0-15.0-2.14,32729,List1A,white,man,,,,null,,,,
5992,,,survey-text,187,706489,0.0-15.0-3.14,32729,List1A,white,man,,,,,"{""Q0"":""Jane is talking to Luke""}","<img src=""stim_listA/talk3.gif""</stim_listA>",is talking to,
null,"<div style=""font-size:60px;"">+</div>",,html-keyboard-response,188,706993,0.0-15.0-0.15,32729,List1A,white,man,,,,null,,,,
null,"<img src=""stim_listA/hug1.gif""</stim_listA>",,html-keyboard-response,189,709003,0.0-15.0-1.15,32729,List1A,white,man,,,,null,,,,
null,is hugging,,html-keyboard-response,190,711013,0.0-15.0-2.15,32729,List1A,white,man,,,,null,,,,
5142,,,survey-text,191,716155,0.0-15.0-3.15,32729,List1A,white,man,,,,,"{""Q0"":""Fred is hugging Beth""}","<img src=""stim_listA/hug1.gif""</stim_listA>",is hugging,
null,"<div style=""font-size:60px;"">+</div>",,html-keyboard-response,192,716656,0.0-15.0-0.16,32729,List1A,white,man,,,,null,,,,
null,"<img src=""stim_listA/argue5.gif""</stim_listA>",,html-keyboard-response,193,718667,0.0-15.0-1.16,32729,List1A,white,man,,,,null,,,,
null,is arguing with,,html-keyboard-response,194,720676,0.0-15.0-2.16,32729,List1A,white,man,,,,null,,,,
6680,,,survey-text,195,727359,0.0-15.0-3.16,32729,List1A,white,man,,,,,"{""Q0"":""Mike is arguing with Luke""}","<img src=""stim_listA/argue5.gif""</stim_listA>",is arguing with,
null,"<div style=""font-size:60px;"">+</div>",,html-keyboard-response,196,727866,0.0-15.0-0.17,32729,List1A,white,man,,,,null,,,,
null,"<img src=""stim_listA/meet4.gif""</stim_listA>",,html-keyboard-response,197,729876,0.0-15.0-1.17,32729,List1A,white,man,,,,null,,,,
null,are meeting each other,,html-keyboard-response,198,731886,0.0-15.0-2.17,32729,List1A,white,man,,,,null,,,,
7481,,,survey-text,199,739368,0.0-15.0-3.17,32729,List1A,white,man,,,,,"{""Q0"":""Ruth and Luke are meeting each other""}","<img src=""stim_listA/meet4.gif""</stim_listA>",are meeting each other,
null,"<div style=""font-size:60px;"">+</div>",,html-keyboard-response,200,739876,0.0-15.0-0.18,32729,List1A,white,man,,,,null,,,,
null,"<img src=""stim_listA/touch8.gif""</stim_listA>",,html-keyboard-response,201,741886,0.0-15.0-1.18,32729,List1A,white,man,,,,null,,,,
null,are touching each other,,html-keyboard-response,202,743895,0.0-15.0-2.18,32729,List1A,white,man,,,,null,,,,
6154,,,survey-text,203,750051,0.0-15.0-3.18,32729,List1A,white,man,,,,,"{""Q0"":""Ruth and Beth are touching each other""}","<img src=""stim_listA/touch8.gif""</stim_listA>",are touching each other,
null,"<div style=""font-size:60px;"">+</div>",,html-keyboard-response,204,750556,0.0-15.0-0.19,32729,List1A,white,man,,,,null,,,,
null,"<img src=""stim_listA/talk2.gif""</stim_listA>",,html-keyboard-response,205,752566,0.0-15.0-1.19,32729,List1A,white,man,,,,null,,,,
null,are talking to each other,,html-keyboard-response,206,754576,0.0-15.0-2.19,32729,List1A,white,man,,,,null,,,,
10799,,,survey-text,207,765377,0.0-15.0-3.19,32729,List1A,white,man,,,,,"{""Q0"":""Beth and Mike are talking to each other""}","<img src=""stim_listA/talk2.gif""</stim_listA>",are talking to each other,
4576,"<img src='img/portrait_matrix_list1.JPG' style='width:900px;height:500px;''></img><p>If you have memorised all the portraits and names and are ready to start, press Continue.</p><p><strong>Please note: Your memory of these faces will be tested 4 times during this experiment.</strong></p>",0,html-button-response,208,769955,0.0-16.0-0.0,32729,List1A,white,man,,,,,,,,
1172,"<img src=""portrait/WM2.jpg""style=""width:400px;height:400px;""></img>",7,html-button-response,209,772130,0.0-16.0-1.0,32729,List1A,white,man,,TRUE,7,,,,,
null,CORRECT,,html-keyboard-response,210,773649,0.0-16.0-2.0-0.0,32729,List1A,white,man,,,,null,,,,
1316,"<img src=""portrait/WW2.jpg""style=""width:400px;height:400px;""></img>",3,html-button-response,211,774966,0.0-16.0-4.0,32729,List1A,white,man,,TRUE,3,,,,,
null,CORRECT,,html-keyboard-response,212,776479,0.0-16.0-5.0-0.0,32729,List1A,white,man,,,,null,,,,
1442,"<img src=""portrait/WW1.jpg""style=""width:400px;height:400px;""></img>",1,html-button-response,213,777923,0.0-16.0-7.0,32729,List1A,white,man,,TRUE,1,,,,,
null,CORRECT,,html-keyboard-response,214,779439,0.0-16.0-8.0-0.0,32729,List1A,white,man,,,,null,,,,
1121,"<img src=""portrait/BM1.jpg""style=""width:400px;height:400px;""></img>",4,html-button-response,215,780562,0.0-16.0-10.0,32729,List1A,white,man,,TRUE,4,,,,,
null,CORRECT,,html-keyboard-response,216,782079,0.0-16.0-11.0-0.0,32729,List1A,white,man,,,,null,,,,
1887,"<img src=""portrait/WM1.jpg""style=""width:400px;height:400px;""></img>",6,html-button-response,217,783967,0.0-16.0-13.0,32729,List1A,white,man,,TRUE,6,,,,,
null,CORRECT,,html-keyboard-response,218,785479,0.0-16.0-14.0-0.0,32729,List1A,white,man,,,,null,,,,
1299,"<img src=""portrait/BW2.jpg""style=""width:400px;height:400px;""></img>",2,html-button-response,219,786779,0.0-16.0-16.0,32729,List1A,white,man,,TRUE,2,,,,,
null,CORRECT,,html-keyboard-response,220,788299,0.0-16.0-17.0-0.0,32729,List1A,white,man,,,,null,,,,
1574,"<img src=""portrait/BM2.jpg""style=""width:400px;height:400px;""></img>",5,html-button-response,221,789875,0.0-16.0-19.0,32729,List1A,white,man,,TRUE,5,,,,,
null,CORRECT,,html-keyboard-response,222,791389,0.0-16.0-20.0-0.0,32729,List1A,white,man,,,,null,,,,
1543,"<img src=""portrait/BW1.jpg""style=""width:400px;height:400px;""></img>",0,html-button-response,223,792933,0.0-16.0-22.0,32729,List1A,white,man,,TRUE,0,,,,,
null,CORRECT,,html-keyboard-response,224,794445,0.0-16.0-23.0-0.0,32729,List1A,white,man,,,,null,,,,
1347,<p>You got 8 out of 8 right first time. Press Continue.</p>,0,html-button-response,225,795793,0.0-16.0-25.0,32729,List1A,white,man,,,,,,,,
null,"<div style=""font-size:60px;"">+</div>",,html-keyboard-response,226,797309,0.0-17.0-0.0,32729,List1A,white,man,,,,null,,,,
null,"<img src=""stim_listA/argue7.gif""</stim_listA>",,html-keyboard-response,227,799318,0.0-17.0-1.0,32729,List1A,white,man,,,,null,,,,
null,is arguing with,,html-keyboard-response,228,801329,0.0-17.0-2.0,32729,List1A,white,man,,,,null,,,,
5788,,,survey-text,229,807118,0.0-17.0-3.0,32729,List1A,white,man,,,,,"{""Q0"":""Ruth is arguing with Kate""}","<img src=""stim_listA/argue7.gif""</stim_listA>",is arguing with,
null,"<div style=""font-size:60px;"">+</div>",,html-keyboard-response,230,807628,0.0-17.0-0.1,32729,List1A,white,man,,,,null,,,,
null,"<img src=""stim_listA/kiss3.gif""</stim_listA>",,html-keyboard-response,231,809637,0.0-17.0-1.1,32729,List1A,white,man,,,,null,,,,
null,is kissing,,html-keyboard-response,232,811648,0.0-17.0-2.1,32729,List1A,white,man,,,,null,,,,
5291,,,survey-text,233,816939,0.0-17.0-3.1,32729,List1A,white,man,,,,,"{""Q0"":""Ruth is kissing Luke""}","<img src=""stim_listA/kiss3.gif""</stim_listA>",is kissing,
null,"<div style=""font-size:60px;"">+</div>",,html-keyboard-response,234,817448,0.0-17.0-0.2,32729,List1A,white,man,,,,null,,,,
null,"<img src=""stim_listA/fight4.gif""</stim_listA>",,html-keyboard-response,235,819458,0.0-17.0-1.2,32729,List1A,white,man,,,,null,,,,
null,are fighting each other,,html-keyboard-response,236,821461,0.0-17.0-2.2,32729,List1A,white,man,,,,null,,,,
6656,,,survey-text,237,828118,0.0-17.0-3.2,32729,List1A,white,man,,,,,"{""Q0"":""Ruth and Luke are fighting each other""}","<img src=""stim_listA/fight4.gif""</stim_listA>",are fighting each other,
null,"<div style=""font-size:60px;"">+</div>",,html-keyboard-response,238,828628,0.0-17.0-0.3,32729,List1A,white,man,,,,null,,,,
null,"<img src=""stim_listA/kiss6.gif""</stim_listA>",,html-keyboard-response,239,830637,0.0-17.0-1.3,32729,List1A,white,man,,,,null,,,,
null,are kissing each other,,html-keyboard-response,240,832642,0.0-17.0-2.3,32729,List1A,white,man,,,,null,,,,
6553,,,survey-text,241,839195,0.0-17.0-3.3,32729,List1A,white,man,,,,,"{""Q0"":""Dave and Mike are kissing each other""}","<img src=""stim_listA/kiss6.gif""</stim_listA>",are kissing each other,
null,"<div style=""font-size:60px;"">+</div>",,html-keyboard-response,242,839701,0.0-17.0-0.4,32729,List1A,white,man,,,,null,,,,
null,"<img src=""stim_listA/kiss8.gif""</stim_listA>",,html-keyboard-response,243,841711,0.0-17.0-1.4,32729,List1A,white,man,,,,null,,,,
null,are kissing each other,,html-keyboard-response,244,843721,0.0-17.0-2.4,32729,List1A,white,man,,,,null,,,,
6632,,,survey-text,245,850354,0.0-17.0-3.4,32729,List1A,white,man,,,,,"{""Q0"":""Jane and Kate are kissing each other""}","<img src=""stim_listA/kiss8.gif""</stim_listA>",are kissing each other,
null,"<div style=""font-size:60px;"">+</div>",,html-keyboard-response,246,850862,0.0-17.0-0.5,32729,List1A,white,man,,,,null,,,,
null,"<img src=""stim_listA/dance1.gif""</stim_listA>",,html-keyboard-response,247,852872,0.0-17.0-1.5,32729,List1A,white,man,,,,null,,,,
null,is dancing with,,html-keyboard-response,248,854877,0.0-17.0-2.5,32729,List1A,white,man,,,,null,,,,
5348,,,survey-text,249,860226,0.0-17.0-3.5,32729,List1A,white,man,,,,,"{""Q0"":""Fred is dancing with Kate""}","<img src=""stim_listA/dance1.gif""</stim_listA>",is dancing with,
null,"<div style=""font-size:60px;"">+</div>",,html-keyboard-response,250,860734,0.0-17.0-0.6,32729,List1A,white,man,,,,null,,,,
null,"<img src=""stim_listA/dance7.gif""</stim_listA>",,html-keyboard-response,251,862745,0.0-17.0-1.6,32729,List1A,white,man,,,,null,,,,
null,is dancing with,,html-keyboard-response,252,864755,0.0-17.0-2.6,32729,List1A,white,man,,,,null,,,,
5276,,,survey-text,253,870032,0.0-17.0-3.6,32729,List1A,white,man,,,,,"{""Q0"":""Beth is dancing with Jane""}","<img src=""stim_listA/dance7.gif""</stim_listA>",is dancing with,
null,"<div style=""font-size:60px;"">+</div>",,html-keyboard-response,254,870535,0.0-17.0-0.7,32729,List1A,white,man,,,,null,,,,
null,"<img src=""stim_listA/argue1.gif""</stim_listA>",,html-keyboard-response,255,872545,0.0-17.0-1.7,32729,List1A,white,man,,,,null,,,,
null,is arguing with,,html-keyboard-response,256,874556,0.0-17.0-2.7,32729,List1A,white,man,,,,null,,,,
6221,,,survey-text,257,880777,0.0-17.0-3.7,32729,List1A,white,man,,,,,"{""Q0"":""Mike is arguing with Beth""}","<img src=""stim_listA/argue1.gif""</stim_listA>",is arguing with,
null,"<div style=""font-size:60px;"">+</div>",,html-keyboard-response,258,881286,0.0-17.0-0.8,32729,List1A,white,man,,,,null,,,,
null,"<img src=""stim_listA/hug3.gif""</stim_listA>",,html-keyboard-response,259,883295,0.0-17.0-1.8,32729,List1A,white,man,,,,null,,,,
null,is hugging,,html-keyboard-response,260,885305,0.0-17.0-2.8,32729,List1A,white,man,,,,null,,,,
5101,,,survey-text,261,890407,0.0-17.0-3.8,32729,List1A,white,man,,,,,"{""Q0"":""Ruth is hugging Luke""}","<img src=""stim_listA/hug3.gif""</stim_listA>",is hugging,
null,"<div style=""font-size:60px;"">+</div>",,html-keyboard-response,262,890916,0.0-17.0-0.9,32729,List1A,white,man,,,,null,,,,
null,"<img src=""stim_listA/shout5.gif""</stim_listA>",,html-keyboard-response,263,892918,0.0-17.0-1.9,32729,List1A,white,man,,,,null,,,,
null,is shouting at,,html-keyboard-response,264,894925,0.0-17.0-2.9,32729,List1A,white,man,,,,null,,,,
5889,,,survey-text,265,900815,0.0-17.0-3.9,32729,List1A,white,man,,,,,"{""Q0"":""Fred is shouting at Luke""}","<img src=""stim_listA/shout5.gif""</stim_listA>",is shouting at,
null,"<div style=""font-size:60px;"">+</div>",,html-keyboard-response,266,901318,0.0-17.0-0.10,32729,List1A,white,man,,,,null,,,,
null,"<img src=""stim_listA/meet5.gif""</stim_listA>",,html-keyboard-response,267,903328,0.0-17.0-1.10,32729,List1A,white,man,,,,null,,,,
null,is meeting,,html-keyboard-response,268,905338,0.0-17.0-2.10,32729,List1A,white,man,,,,null,,,,
6596,,,survey-text,269,911934,0.0-17.0-3.10,32729,List1A,white,man,,,,,"{""Q0"":""Dave is meeting Mike""}","<img src=""stim_listA/meet5.gif""</stim_listA>",is meeting,
null,"<div style=""font-size:60px;"">+</div>",,html-keyboard-response,270,912439,0.0-17.0-0.11,32729,List1A,white,man,,,,null,,,,
null,"<img src=""stim_listA/marry1.gif""</stim_listA>",,html-keyboard-response,271,914448,0.0-17.0-1.11,32729,List1A,white,man,,,,null,,,,
null,is marrying,,html-keyboard-response,272,916458,0.0-17.0-2.11,32729,List1A,white,man,,,,null,,,,
5826,,,survey-text,273,922284,0.0-17.0-3.11,32729,List1A,white,man,,,,,"{""Q0"":""Mike is marrying Beth""}","<img src=""stim_listA/marry1.gif""</stim_listA>",is marrying,
null,"<div style=""font-size:60px;"">+</div>",,html-keyboard-response,274,922793,0.0-17.0-0.12,32729,List1A,white,man,,,,null,,,,
null,"<img src=""stim_listA/meet2.gif""</stim_listA>",,html-keyboard-response,275,924803,0.0-17.0-1.12,32729,List1A,white,man,,,,null,,,,
null,are meeting each other,,html-keyboard-response,276,926808,0.0-17.0-2.12,32729,List1A,white,man,,,,null,,,,
5729,,,survey-text,277,932537,0.0-17.0-3.12,32729,List1A,white,man,,,,,"{""Q0"":""Fred and Beth are meeting each other""}","<img src=""stim_listA/meet2.gif""</stim_listA>",are meeting each other,
null,"<div style=""font-size:60px;"">+</div>",,html-keyboard-response,278,933043,0.0-17.0-0.13,32729,List1A,white,man,,,,null,,,,
null,"<img src=""stim_listA/shout3.gif""</stim_listA>",,html-keyboard-response,279,935053,0.0-17.0-1.13,32729,List1A,white,man,,,,null,,,,
null,is shouting at,,html-keyboard-response,280,937063,0.0-17.0-2.13,32729,List1A,white,man,,,,null,,,,
6178,,,survey-text,281,943244,0.0-17.0-3.13,32729,List1A,white,man,,,,,"{""Q0"":""Luke is shouting at Ruth""}","<img src=""stim_listA/shout3.gif""</stim_listA>",is shouting at,
null,"<div style=""font-size:60px;"">+</div>",,html-keyboard-response,282,943753,0.0-17.0-0.14,32729,List1A,white,man,,,,null,,,,
null,"<img src=""stim_listA/hug7.gif""</stim_listA>",,html-keyboard-response,283,945763,0.0-17.0-1.14,32729,List1A,white,man,,,,null,,,,
null,is hugging,,html-keyboard-response,284,947773,0.0-17.0-2.14,32729,List1A,white,man,,,,null,,,,
4639,,,survey-text,285,952413,0.0-17.0-3.14,32729,List1A,white,man,,,,,"{""Q0"":""Ruth is hugging Beth""}","<img src=""stim_listA/hug7.gif""</stim_listA>",is hugging,
null,"<div style=""font-size:60px;"">+</div>",,html-keyboard-response,286,952916,0.0-17.0-0.15,32729,List1A,white,man,,,,null,,,,
null,"<img src=""stim_listA/touch7.gif""</stim_listA>",,html-keyboard-response,287,954926,0.0-17.0-1.15,32729,List1A,white,man,,,,null,,,,
null,is touching,,html-keyboard-response,288,956936,0.0-17.0-2.15,32729,List1A,white,man,,,,null,,,,
4890,,,survey-text,289,961826,0.0-17.0-3.15,32729,List1A,white,man,,,,,"{""Q0"":""Jane is touching Kate""}","<img src=""stim_listA/touch7.gif""</stim_listA>",is touching,
null,"<div style=""font-size:60px;"">+</div>",,html-keyboard-response,290,962336,0.0-17.0-0.16,32729,List1A,white,man,,,,null,,,,
null,"<img src=""stim_listA/hug2.gif""</stim_listA>",,html-keyboard-response,291,964346,0.0-17.0-1.16,32729,List1A,white,man,,,,null,,,,
null,are hugging each other,,html-keyboard-response,292,966356,0.0-17.0-2.16,32729,List1A,white,man,,,,null,,,,
9559,,,survey-text,293,975917,0.0-17.0-3.16,32729,List1A,white,man,,,,,"{""Q0"":""Kate and Mike are hugging each other""}","<img src=""stim_listA/hug2.gif""</stim_listA>",are hugging each other,
null,"<div style=""font-size:60px;"">+</div>",,html-keyboard-response,294,976426,0.0-17.0-0.17,32729,List1A,white,man,,,,null,,,,
null,"<img src=""stim_listA/dance3.gif""</stim_listA>",,html-keyboard-response,295,978436,0.0-17.0-1.17,32729,List1A,white,man,,,,null,,,,
null,is dancing with,,html-keyboard-response,296,980445,0.0-17.0-2.17,32729,List1A,white,man,,,,null,,,,
4764,,,survey-text,297,985211,0.0-17.0-3.17,32729,List1A,white,man,,,,,"{""Q0"":""Luke is dancing with Jane""}","<img src=""stim_listA/dance3.gif""</stim_listA>",is dancing with,
null,"<div style=""font-size:60px;"">+</div>",,html-keyboard-response,298,985719,0.0-17.0-0.18,32729,List1A,white,man,,,,null,,,,
null,"<img src=""stim_listA/shout4.gif""</stim_listA>",,html-keyboard-response,299,987728,0.0-17.0-1.18,32729,List1A,white,man,,,,null,,,,
null,are shouting at each other,,html-keyboard-response,300,989739,0.0-17.0-2.18,32729,List1A,white,man,,,,null,,,,
6973,,,survey-text,301,996714,0.0-17.0-3.18,32729,List1A,white,man,,,,,"{""Q0"":""Dave and Jane are shouting at each other""}","<img src=""stim_listA/shout4.gif""</stim_listA>",are shouting at each other,
null,"<div style=""font-size:60px;"">+</div>",,html-keyboard-response,302,997219,0.0-17.0-0.19,32729,List1A,white,man,,,,null,,,,
null,"<img src=""stim_listA/touch4.gif""</stim_listA>",,html-keyboard-response,303,999228,0.0-17.0-1.19,32729,List1A,white,man,,,,null,,,,
null,are touching each other,,html-keyboard-response,304,1001239,0.0-17.0-2.19,32729,List1A,white,man,,,,null,,,,
7155,,,survey-text,305,1008394,0.0-17.0-3.19,32729,List1A,white,man,,,,,"{""Q0"":""Luke and Ruth are touching each other""}","<img src=""stim_listA/touch4.gif""</stim_listA>",are touching each other,
3940,"<img src='img/portrait_matrix_list1.JPG' style='width:900px;height:500px;''></img><p>If you have memorised all the portraits and names and are ready to start, press Continue.</p><p><strong>Please note: Your memory of these faces will be tested 4 times during this experiment.</strong></p>",0,html-button-response,306,1012337,0.0-18.0-0.0,32729,List1A,white,man,,,,,,,,
1390,"<img src=""portrait/BM2.jpg""style=""width:400px;height:400px;""></img>",5,html-button-response,307,1014730,0.0-18.0-1.0,32729,List1A,white,man,,TRUE,5,,,,,
null,CORRECT,,html-keyboard-response,308,1016239,0.0-18.0-2.0-0.0,32729,List1A,white,man,,,,null,,,,
1511,"<img src=""portrait/WW2.jpg""style=""width:400px;height:400px;""></img>",3,html-button-response,309,1017751,0.0-18.0-4.0,32729,List1A,white,man,,TRUE,3,,,,,
null,CORRECT,,html-keyboard-response,310,1019258,0.0-18.0-5.0-0.0,32729,List1A,white,man,,,,null,,,,
1827,"<img src=""portrait/BM1.jpg""style=""width:400px;height:400px;""></img>",4,html-button-response,311,1021086,0.0-18.0-7.0,32729,List1A,white,man,,TRUE,4,,,,,
null,CORRECT,,html-keyboard-response,312,1022599,0.0-18.0-8.0-0.0,32729,List1A,white,man,,,,null,,,,
1116,"<img src=""portrait/WM2.jpg""style=""width:400px;height:400px;""></img>",7,html-button-response,313,1023716,0.0-18.0-10.0,32729,List1A,white,man,,TRUE,7,,,,,
null,CORRECT,,html-keyboard-response,314,1025228,0.0-18.0-11.0-0.0,32729,List1A,white,man,,,,null,,,,
1610,"<img src=""portrait/WM1.jpg""style=""width:400px;height:400px;""></img>",6,html-button-response,315,1026840,0.0-18.0-13.0,32729,List1A,white,man,,TRUE,6,,,,,
null,CORRECT,,html-keyboard-response,316,1028358,0.0-18.0-14.0-0.0,32729,List1A,white,man,,,,null,,,,
1382,"<img src=""portrait/BW1.jpg""style=""width:400px;height:400px;""></img>",0,html-button-response,317,1029743,0.0-18.0-16.0,32729,List1A,white,man,,TRUE,0,,,,,
null,CORRECT,,html-keyboard-response,318,1031259,0.0-18.0-17.0-0.0,32729,List1A,white,man,,,,null,,,,
1316,"<img src=""portrait/WW1.jpg""style=""width:400px;height:400px;""></img>",1,html-button-response,319,1032577,0.0-18.0-19.0,32729,List1A,white,man,,TRUE,1,,,,,
null,CORRECT,,html-keyboard-response,320,1034089,0.0-18.0-20.0-0.0,32729,List1A,white,man,,,,null,,,,
1056,"<img src=""portrait/BW2.jpg""style=""width:400px;height:400px;""></img>",2,html-button-response,321,1035145,0.0-18.0-22.0,32729,List1A,white,man,,TRUE,2,,,,,
null,CORRECT,,html-keyboard-response,322,1036659,0.0-18.0-23.0-0.0,32729,List1A,white,man,,,,null,,,,
976,<p>You got 8 out of 8 right first time. Press Continue.</p>,0,html-button-response,323,1037637,0.0-18.0-25.0,32729,List1A,white,man,,,,,,,,
null,"<div style=""font-size:60px;"">+</div>",,html-keyboard-response,324,1039158,0.0-19.0-0.0,32729,List1A,white,man,,,,null,,,,
null,"<img src=""stim_listA/argue3.gif""</stim_listA>",,html-keyboard-response,325,1041168,0.0-19.0-1.0,32729,List1A,white,man,,,,null,,,,
null,is arguing with,,html-keyboard-response,326,1043172,0.0-19.0-2.0,32729,List1A,white,man,,,,null,,,,
5864,,,survey-text,327,1049036,0.0-19.0-3.0,32729,List1A,white,man,,,,,"{""Q0"":""Dave is arguing with Ruth""}","<img src=""stim_listA/argue3.gif""</stim_listA>",is arguing with,
null,"<div style=""font-size:60px;"">+</div>",,html-keyboard-response,328,1049541,0.0-19.0-0.1,32729,List1A,white,man,,,,null,,,,
null,"<img src=""stim_listA/talk5.gif""</stim_listA>",,html-keyboard-response,329,1051551,0.0-19.0-1.1,32729,List1A,white,man,,,,null,,,,
null,is talking to,,html-keyboard-response,330,1053554,0.0-19.0-2.1,32729,List1A,white,man,,,,null,,,,
4672,,,survey-text,331,1058228,0.0-19.0-3.1,32729,List1A,white,man,,,,,"{""Q0"":""Dave is talking to Fred""}","<img src=""stim_listA/talk5.gif""</stim_listA>",is talking to,
null,"<div style=""font-size:60px;"">+</div>",,html-keyboard-response,332,1058731,0.0-19.0-0.2,32729,List1A,white,man,,,,null,,,,
null,"<img src=""stim_listA/marry2.gif""</stim_listA>",,html-keyboard-response,333,1060742,0.0-19.0-1.2,32729,List1A,white,man,,,,null,,,,
null,are marrying each other,,html-keyboard-response,334,1062751,0.0-19.0-2.2,32729,List1A,white,man,,,,null,,,,
6893,,,survey-text,335,1069645,0.0-19.0-3.2,32729,List1A,white,man,,,,,"{""Q0"":""Fred and Kate are marrying each other""}","<img src=""stim_listA/marry2.gif""</stim_listA>",are marrying each other,
null,"<div style=""font-size:60px;"">+</div>",,html-keyboard-response,336,1070151,0.0-19.0-0.3,32729,List1A,white,man,,,,null,,,,
null,"<img src=""stim_listA/fight7.gif""</stim_listA>",,html-keyboard-response,337,1072161,0.0-19.0-1.3,32729,List1A,white,man,,,,null,,,,
null,is fighting,,html-keyboard-response,338,1074164,0.0-19.0-2.3,32729,List1A,white,man,,,,null,,,,
4253,,,survey-text,339,1078419,0.0-19.0-3.3,32729,List1A,white,man,,,,,"{""Q0"":""Kate is fighting Jane""}","<img src=""stim_listA/fight7.gif""</stim_listA>",is fighting,
null,"<div style=""font-size:60px;"">+</div>",,html-keyboard-response,340,1078924,0.0-19.0-0.4,32729,List1A,white,man,,,,null,,,,
null,"<img src=""stim_listA/talk4.gif""</stim_listA>",,html-keyboard-response,341,1080934,0.0-19.0-1.4,32729,List1A,white,man,,,,null,,,,
null,are talking to each other,,html-keyboard-response,342,1082937,0.0-19.0-2.4,32729,List1A,white,man,,,,null,,,,
8069,,,survey-text,343,1091008,0.0-19.0-3.4,32729,List1A,white,man,,,,,"{""Q0"":""Ruth and Dave are talking to each other""}","<img src=""stim_listA/talk4.gif""</stim_listA>",are talking to each other,
null,"<div style=""font-size:60px;"">+</div>",,html-keyboard-response,344,1091514,0.0-19.0-0.5,32729,List1A,white,man,,,,null,,,,
null,"<img src=""stim_listA/marry6.gif""</stim_listA>",,html-keyboard-response,345,1093524,0.0-19.0-1.5,32729,List1A,white,man,,,,null,,,,
null,are marrying each other,,html-keyboard-response,346,1095534,0.0-19.0-2.5,32729,List1A,white,man,,,,null,,,,
6382,,,survey-text,347,1101916,0.0-19.0-3.5,32729,List1A,white,man,,,,,"{""Q0"":""Dave and Fred are marrying each other""}","<img src=""stim_listA/marry6.gif""</stim_listA>",are marrying each other,
null,"<div style=""font-size:60px;"">+</div>",,html-keyboard-response,348,1102424,0.0-19.0-0.6,32729,List1A,white,man,,,,null,,,,
null,"<img src=""stim_listA/dance5.gif""</stim_listA>",,html-keyboard-response,349,1104434,0.0-19.0-1.6,32729,List1A,white,man,,,,null,,,,
null,is dancing with,,html-keyboard-response,350,1106437,0.0-19.0-2.6,32729,List1A,white,man,,,,null,,,,
4566,,,survey-text,351,1111005,0.0-19.0-3.6,32729,List1A,white,man,,,,,"{""Q0"":""Dave is dancing with Fred""}","<img src=""stim_listA/dance5.gif""</stim_listA>",is dancing with,
null,"<div style=""font-size:60px;"">+</div>",,html-keyboard-response,352,1111514,0.0-19.0-0.7,32729,List1A,white,man,,,,null,,,,
null,"<img src=""stim_listA/talk8.gif""</stim_listA>",,html-keyboard-response,353,1113524,0.0-19.0-1.7,32729,List1A,white,man,,,,null,,,,
null,are talking to each other,,html-keyboard-response,354,1115534,0.0-19.0-2.7,32729,List1A,white,man,,,,null,,,,
7407,,,survey-text,355,1122942,0.0-19.0-3.7,32729,List1A,white,man,,,,,"{""Q0"":""Ruth and Kate are talking to each other""}","<img src=""stim_listA/talk8.gif""</stim_listA>",are talking to each other,
null,"<div style=""font-size:60px;"">+</div>",,html-keyboard-response,356,1123444,0.0-19.0-0.8,32729,List1A,white,man,,,,null,,,,
null,"<img src=""stim_listA/fight6.gif""</stim_listA>",,html-keyboard-response,357,1125454,0.0-19.0-1.8,32729,List1A,white,man,,,,null,,,,
null,are fighting each other,,html-keyboard-response,358,1127464,0.0-19.0-2.8,32729,List1A,white,man,,,,null,,,,
7728,,,survey-text,359,1135193,0.0-19.0-3.8,32729,List1A,white,man,,,,,"{""Q0"":""Luke and Fred are fighting with each other""}","<img src=""stim_listA/fight6.gif""</stim_listA>",are fighting each other,
null,"<div style=""font-size:60px;"">+</div>",,html-keyboard-response,360,1135697,0.0-19.0-0.9,32729,List1A,white,man,,,,null,,,,
null,"<img src=""stim_listA/argue4.gif""</stim_listA>",,html-keyboard-response,361,1137707,0.0-19.0-1.9,32729,List1A,white,man,,,,null,,,,
null,are arguing with each other,,html-keyboard-response,362,1139716,0.0-19.0-2.9,32729,List1A,white,man,,,,null,,,,
8864,,,survey-text,363,1148581,0.0-19.0-3.9,32729,List1A,white,man,,,,,"{""Q0"":""Luke and Jane are arguing with each other""}","<img src=""stim_listA/argue4.gif""</stim_listA>",are arguing with each other,
null,"<div style=""font-size:60px;"">+</div>",,html-keyboard-response,364,1149086,0.0-19.0-0.10,32729,List1A,white,man,,,,null,,,,
null,"<img src=""stim_listA/fight8.gif""</stim_listA>",,html-keyboard-response,365,1151097,0.0-19.0-1.10,32729,List1A,white,man,,,,null,,,,
null,are fighting each other,,html-keyboard-response,366,1153107,0.0-19.0-2.10,32729,List1A,white,man,,,,null,,,,
7756,,,survey-text,367,1160864,0.0-19.0-3.10,32729,List1A,white,man,,,,,"{""Q0"":""Ruth and Beth are fighting each other""}","<img src=""stim_listA/fight8.gif""</stim_listA>",are fighting each other,
null,"<div style=""font-size:60px;"">+</div>",,html-keyboard-response,368,1161367,0.0-19.0-0.11,32729,List1A,white,man,,,,null,,,,
null,"<img src=""stim_listA/meet1.gif""</stim_listA>",,html-keyboard-response,369,1163376,0.0-19.0-1.11,32729,List1A,white,man,,,,null,,,,
null,is meeting,,html-keyboard-response,370,1165386,0.0-19.0-2.11,32729,List1A,white,man,,,,null,,,,
5013,,,survey-text,371,1170400,0.0-19.0-3.11,32729,List1A,white,man,,,,,"{""Q0"":""Mike is meeting Kate""}","<img src=""stim_listA/meet1.gif""</stim_listA>",is meeting,
null,"<div style=""font-size:60px;"">+</div>",,html-keyboard-response,372,1170902,0.0-19.0-0.12,32729,List1A,white,man,,,,null,,,,
null,"<img src=""stim_listA/meet3.gif""</stim_listA>",,html-keyboard-response,373,1172906,0.0-19.0-1.12,32729,List1A,white,man,,,,null,,,,
null,is meeting,,html-keyboard-response,374,1174916,0.0-19.0-2.12,32729,List1A,white,man,,,,null,,,,
4777,,,survey-text,375,1179693,0.0-19.0-3.12,32729,List1A,white,man,,,,,"{""Q0"":""Dave is meeting Jane""}","<img src=""stim_listA/meet3.gif""</stim_listA>",is meeting,
null,"<div style=""font-size:60px;"">+</div>",,html-keyboard-response,376,1180197,0.0-19.0-0.13,32729,List1A,white,man,,,,null,,,,
null,"<img src=""stim_listA/marry5.gif""</stim_listA>",,html-keyboard-response,377,1182207,0.0-19.0-1.13,32729,List1A,white,man,,,,null,,,,
null,is marrying,,html-keyboard-response,378,1184216,0.0-19.0-2.13,32729,List1A,white,man,,,,null,,,,
4912,,,survey-text,379,1189129,0.0-19.0-3.13,32729,List1A,white,man,,,,,"{""Q0"":""Mike is marrying Luke""}","<img src=""stim_listA/marry5.gif""</stim_listA>",is marrying,
null,"<div style=""font-size:60px;"">+</div>",,html-keyboard-response,380,1189631,0.0-19.0-0.14,32729,List1A,white,man,,,,null,,,,
null,"<img src=""stim_listA/touch2.gif""</stim_listA>",,html-keyboard-response,381,1191637,0.0-19.0-1.14,32729,List1A,white,man,,,,null,,,,
null,are touching each other,,html-keyboard-response,382,1193640,0.0-19.0-2.14,32729,List1A,white,man,,,,null,,,,
7892,,,survey-text,383,1201532,0.0-19.0-3.14,32729,List1A,white,man,,,,,"{""Q0"":""Beth and Fred are touching each other""}","<img src=""stim_listA/touch2.gif""</stim_listA>",are touching each other,
null,"<div style=""font-size:60px;"">+</div>",,html-keyboard-response,384,1202040,0.0-19.0-0.15,32729,List1A,white,man,,,,null,,,,
null,"<img src=""stim_listA/marry8.gif""</stim_listA>",,html-keyboard-response,385,1204050,0.0-19.0-1.15,32729,List1A,white,man,,,,null,,,,
null,are marrying each other,,html-keyboard-response,386,1206059,0.0-19.0-2.15,32729,List1A,white,man,,,,null,,,,
6824,,,survey-text,387,1212884,0.0-19.0-3.15,32729,List1A,white,man,,,,,"{""Q0"":""Jane and Beth are marrying each other""}","<img src=""stim_listA/marry8.gif""</stim_listA>",are marrying each other,
null,"<div style=""font-size:60px;"">+</div>",,html-keyboard-response,388,1213389,0.0-19.0-0.16,32729,List1A,white,man,,,,null,,,,
null,"<img src=""stim_listA/dance6.gif""</stim_listA>",,html-keyboard-response,389,1215399,0.0-19.0-1.16,32729,List1A,white,man,,,,null,,,,
null,are dancing with each other,,html-keyboard-response,390,1217402,0.0-19.0-2.16,32729,List1A,white,man,,,,null,,,,
7535,,,survey-text,391,1224937,0.0-19.0-3.16,32729,List1A,white,man,,,,,"{""Q0"":""Mike and Luke are dancing with each other""}","<img src=""stim_listA/dance6.gif""</stim_listA>",are dancing with each other,
null,"<div style=""font-size:60px;"">+</div>",,html-keyboard-response,392,1225439,0.0-19.0-0.17,32729,List1A,white,man,,,,null,,,,
null,"<img src=""stim_listA/hug6.gif""</stim_listA>",,html-keyboard-response,393,1227449,0.0-19.0-1.17,32729,List1A,white,man,,,,null,,,,
null,are hugging each other,,html-keyboard-response,394,1229451,0.0-19.0-2.17,32729,List1A,white,man,,,,null,,,,
7538,,,survey-text,395,1236989,0.0-19.0-3.17,32729,List1A,white,man,,,,,"{""Q0"":""Dave and Mike are hugging each other""}","<img src=""stim_listA/hug6.gif""</stim_listA>",are hugging each other,
null,"<div style=""font-size:60px;"">+</div>",,html-keyboard-response,396,1237500,0.0-19.0-0.18,32729,List1A,white,man,,,,null,,,,
null,"<img src=""stim_listA/dance4.gif""</stim_listA>",,html-keyboard-response,397,1239509,0.0-19.0-1.18,32729,List1A,white,man,,,,null,,,,
null,are dancing with each other,,html-keyboard-response,398,1241520,0.0-19.0-2.18,32729,List1A,white,man,,,,null,,,,
8890,,,survey-text,399,1250411,0.0-19.0-3.18,32729,List1A,white,man,,,,,"{""Q0"":""Dave and Ruth are dancing with each other""}","<img src=""stim_listA/dance4.gif""</stim_listA>",are dancing with each other,
null,"<div style=""font-size:60px;"">+</div>",,html-keyboard-response,400,1250919,0.0-19.0-0.19,32729,List1A,white,man,,,,null,,,,
null,"<img src=""stim_listA/hug5.gif""</stim_listA>",,html-keyboard-response,401,1252922,0.0-19.0-1.19,32729,List1A,white,man,,,,null,,,,
null,is hugging,,html-keyboard-response,402,1254932,0.0-19.0-2.19,32729,List1A,white,man,,,,null,,,,
9005,,,survey-text,403,1263938,0.0-19.0-3.19,32729,List1A,white,man,,,,,"{""Q0"":""Fred is hugging Luke""}","<img src=""stim_listA/hug5.gif""</stim_listA>",is hugging,
2386,<p>Thank you for completing that task.</p><p>The final part of this session is a short questionnaire.</p><p>Press Continue.</p>,0,html-button-response,404,1266324,0.0-20.0,32729,List1A,white,man,,,,,,,,
22022,,,survey-text,405,1289356,0.0-21.0,32729,List1A,white,man,,,,,"{""Q0"":""33"",""Q1"":""English"",""Q2"":""English"",""Q3"":""Australia"",""Q4"":""Caucasian"",""Q5"":""Male""}",,,demographics
51649,,,survey-likert,406,1341011,0.0-22.0,32729,List1A,white,man,,,,,"{""Q0"":1,""Q1"":1,""Q2"":1,""Q3"":3,""Q4"":3,""Q5"":5,""Q6"":3,""Q7"":0,""Q8"":0,""Q9"":0,""Q10"":5,""Q11"":5,""Q12"":1,""Q13"":1}",,,likert_race
45554,,,survey-likert,407,1386572,0.0-23.0,32729,List1A,white,man,,,,,"{""Q0"":1,""Q1"":1,""Q2"":3,""Q3"":5,""Q4"":1,""Q5"":5,""Q6"":1,""Q7"":1,""Q8"":0,""Q9"":0,""Q10"":3,""Q11"":3,""Q12"":1,""Q13"":1}",,,likert_gender
6855,,,survey-text,408,1393429,0.0-24.0,32729,List1A,white,man,,,,,"{""Q0"":""ccc""}",,,worker_id
32505,,,external-html,409,1426564,0.0-25.0,32729,List1A,white,man,debrief.html,,,,,,,
