rt,stimulus,button_pressed,trial_type,trial_index,time_elapsed,internal_node_id,subject,list,ppt_race,ppt_gender,url,first_guess,correct,key_press,responses,image_type,phrase_type,test_part
7354,Welcome to the experiment. Press Continue to begin.,0,html-button-response,0,7359,0.0-0.0,32823,List2A,white,woman,,,,,,,,
77986,,,external-html,1,86419,0.0-1.0,32823,List2A,white,woman,consent.html,,,,,,,
15389,"<p>On the next page, you will see portraits of 8 people and their names.</p><p>Your first task is to take a few minutes to memorise the names of these people.</p><p>You will have to recall their names during the rest of the experiment, so it is</p><p>essential that you try to memorise these people and their names as best as you can.</p><br><p><strong>You will then be tested on your memory of these names and portraits.</strong></p><br><p>The experiment will start after you have completed this memory test.</p><br><p>Ready?</p>",0,html-button-response,2,101813,0.0-2.0,32823,List2A,white,woman,,,,,,,,
78195,"<img src='img/portrait_matrix_list2.JPG' style='width:900px;height:500px;''></img><p>If you have memorised all the portraits and names and are ready to start, press Continue.</p><p><strong>Please note: Your memory of these faces will be tested 4 times during this experiment.</strong></p>",0,html-button-response,3,181014,0.0-3.0-0.0,32823,List2A,white,woman,,,,,,,,
18440,"<img src=""portrait/BW1.jpg""style=""width:400px;height:400px;""></img>",0,html-button-response,4,200461,0.0-3.0-1.0,32823,List2A,white,woman,,TRUE,0,,,,,
null,CORRECT,,html-keyboard-response,5,201972,0.0-3.0-2.0-0.0,32823,List2A,white,woman,,,,null,,,,
4298,"<img src=""portrait/BW2.jpg""style=""width:400px;height:400px;""></img>",2,html-button-response,6,206277,0.0-3.0-4.0,32823,List2A,white,woman,,TRUE,2,,,,,
null,CORRECT,,html-keyboard-response,7,207781,0.0-3.0-5.0-0.0,32823,List2A,white,woman,,,,null,,,,
3401,"<img src=""portrait/WW2.jpg""style=""width:400px;height:400px;""></img>",3,html-button-response,8,211188,0.0-3.0-7.0,32823,List2A,white,woman,,TRUE,3,,,,,
null,CORRECT,,html-keyboard-response,9,212693,0.0-3.0-8.0-0.0,32823,List2A,white,woman,,,,null,,,,
3005,"<img src=""portrait/BM2.jpg""style=""width:400px;height:400px;""></img>",5,html-button-response,10,215704,0.0-3.0-10.0,32823,List2A,white,woman,,TRUE,5,,,,,
null,CORRECT,,html-keyboard-response,11,217208,0.0-3.0-11.0-0.0,32823,List2A,white,woman,,,,null,,,,
3203,"<img src=""portrait/WM1.jpg""style=""width:400px;height:400px;""></img>",6,html-button-response,12,220417,0.0-3.0-13.0,32823,List2A,white,woman,,TRUE,6,,,,,
null,CORRECT,,html-keyboard-response,13,221921,0.0-3.0-14.0-0.0,32823,List2A,white,woman,,,,null,,,,
3253,"<img src=""portrait/WM2.jpg""style=""width:400px;height:400px;""></img>",7,html-button-response,14,225184,0.0-3.0-16.0,32823,List2A,white,woman,,TRUE,7,,,,,
null,CORRECT,,html-keyboard-response,15,226689,0.0-3.0-17.0-0.0,32823,List2A,white,woman,,,,null,,,,
5762,"<img src=""portrait/BM1.jpg""style=""width:400px;height:400px;""></img>",4,html-button-response,16,232458,0.0-3.0-19.0,32823,List2A,white,woman,,TRUE,4,,,,,
null,CORRECT,,html-keyboard-response,17,233963,0.0-3.0-20.0-0.0,32823,List2A,white,woman,,,,null,,,,
4399,"<img src=""portrait/WW1.jpg""style=""width:400px;height:400px;""></img>",1,html-button-response,18,238368,0.0-3.0-22.0,32823,List2A,white,woman,,TRUE,1,,,,,
null,CORRECT,,html-keyboard-response,19,239873,0.0-3.0-23.0-0.0,32823,List2A,white,woman,,,,null,,,,
2107,<p>You got 8 out of 8 right first time. Press Continue.</p>,0,html-button-response,20,241985,0.0-3.0-25.0,32823,List2A,white,woman,,,,,,,,
44741,"<p>In this experiment, you will view photographs of the people from the memory game interacting.</p><p>By using the <strong>exact</strong> phrase given <i>after</i> the photograph appears and recalling the correct names of the people in the photographs, form a sentence describing the interaction. You do not need to capitalise names.</p><p>Type your answer in the space provided. Please complete every sentence before moving onto the next trial.</p><p>You will only have a few seconds to memorise each given photograph and phrase before you can respond, so try your best to focus.</p><p>An example is given below. Press 'Continue' when you are ready.</p><img src='img/speaking_example_v2.jpg' style='width:800px;height:460px;''></img>",0,html-button-response,21,287734,0.0-4.0,32823,List2A,white,woman,,,,,,,,
4002,"<p>Before the experiment starts, you will watch two example trials. Press 'Continue'.</p>",0,html-button-response,22,292740,0.0-5.0,32823,List2A,white,woman,,,,,,,,
null,<img src='img/speaking_WW.gif'></img>,,html-keyboard-response,23,295746,0.0-6.0,32823,List2A,white,woman,,,,null,,,,
null,<p>is speaking to</p>,,html-keyboard-response,24,297750,0.0-7.0,32823,List2A,white,woman,,,,null,,,,
10314,<p><b>Answer:</b> jane is speaking to ruth</p>,0,html-button-response,25,308068,0.0-8.0,32823,List2A,white,woman,,,,,,,,
null,<img src='img/pointing_BM.gif'></img>,,html-keyboard-response,26,311073,0.0-9.0,32823,List2A,white,woman,,,,null,,,,
null,<p>are pointing at each other</p>,,html-keyboard-response,27,313077,0.0-10.0,32823,List2A,white,woman,,,,null,,,,
6965,<p><b>Answer:</b> fred and mike are pointing at each other</p>,0,html-button-response,28,320046,0.0-11.0,32823,List2A,white,woman,,,,,,,,
11296,"<p>Ready to start the experiment?</p><br><p><strong>Remember to describe the picture using a full sentence,</strong></p><p><strong>that combines the names of the people with the given phrase.</strong></p><p><strong>If you do not do this correctly you will not be paid.</strong></p><p><strong> You do not need to capitalise names or use punctuation.</strong></p><br><p>Press 'Continue' to begin.</p>",0,html-button-response,29,332346,0.0-12.0,32823,List2A,white,woman,,,,,,,,
null,"<div style=""font-size:60px;"">+</div>",,html-keyboard-response,30,333851,0.0-13.0-0.0,32823,List2A,white,woman,,,,null,,,,
null,"<img src=""stim_listA/talk8.gif""</stim_listA>",,html-keyboard-response,31,335858,0.0-13.0-1.0,32823,List2A,white,woman,,,,null,,,,
null,are talking to each other,,html-keyboard-response,32,337862,0.0-13.0-2.0,32823,List2A,white,woman,,,,null,,,,
16093,,,survey-text,33,353958,0.0-13.0-3.0,32823,List2A,white,woman,,,,,"{""Q0"":""Beth and Jane are speaking to eachother ""}","<img src=""stim_listA/talk8.gif""</stim_listA>",are talking to each other,
null,"<div style=""font-size:60px;"">+</div>",,html-keyboard-response,34,354462,0.0-13.0-0.1,32823,List2A,white,woman,,,,null,,,,
null,"<img src=""stim_listA/argue3.gif""</stim_listA>",,html-keyboard-response,35,356467,0.0-13.0-1.1,32823,List2A,white,woman,,,,null,,,,
null,is arguing with,,html-keyboard-response,36,358471,0.0-13.0-2.1,32823,List2A,white,woman,,,,null,,,,
11094,,,survey-text,37,369569,0.0-13.0-3.1,32823,List2A,white,woman,,,,,"{""Q0"":""Beth is arguing with mike""}","<img src=""stim_listA/argue3.gif""</stim_listA>",is arguing with,
null,"<div style=""font-size:60px;"">+</div>",,html-keyboard-response,38,370073,0.0-13.0-0.2,32823,List2A,white,woman,,,,null,,,,
null,"<img src=""stim_listA/hug7.gif""</stim_listA>",,html-keyboard-response,39,372078,0.0-13.0-1.2,32823,List2A,white,woman,,,,null,,,,
null,is hugging,,html-keyboard-response,40,374082,0.0-13.0-2.2,32823,List2A,white,woman,,,,null,,,,
11293,,,survey-text,41,385379,0.0-13.0-3.2,32823,List2A,white,woman,,,,,"{""Q0"":""Beth is hugging Ruth ""}","<img src=""stim_listA/hug7.gif""</stim_listA>",is hugging,
null,"<div style=""font-size:60px;"">+</div>",,html-keyboard-response,42,385882,0.0-13.0-0.3,32823,List2A,white,woman,,,,null,,,,
null,"<img src=""stim_listA/argue1.gif""</stim_listA>",,html-keyboard-response,43,387888,0.0-13.0-1.3,32823,List2A,white,woman,,,,null,,,,
null,is arguing with,,html-keyboard-response,44,389893,0.0-13.0-2.3,32823,List2A,white,woman,,,,null,,,,
13764,,,survey-text,45,403661,0.0-13.0-3.3,32823,List2A,white,woman,,,,,"{""Q0"":""Ruth is pointing at dave""}","<img src=""stim_listA/argue1.gif""</stim_listA>",is arguing with,
null,"<div style=""font-size:60px;"">+</div>",,html-keyboard-response,46,404164,0.0-13.0-0.4,32823,List2A,white,woman,,,,null,,,,
null,"<img src=""stim_listA/marry8.gif""</stim_listA>",,html-keyboard-response,47,406172,0.0-13.0-1.4,32823,List2A,white,woman,,,,null,,,,
null,are marrying each other,,html-keyboard-response,48,408177,0.0-13.0-2.4,32823,List2A,white,woman,,,,null,,,,
17429,,,survey-text,49,425610,0.0-13.0-3.4,32823,List2A,white,woman,,,,,"{""Q0"":""Ruth and Kate are marrying eachother""}","<img src=""stim_listA/marry8.gif""</stim_listA>",are marrying each other,
null,"<div style=""font-size:60px;"">+</div>",,html-keyboard-response,50,426113,0.0-13.0-0.5,32823,List2A,white,woman,,,,null,,,,
null,"<img src=""stim_listA/touch6.gif""</stim_listA>",,html-keyboard-response,51,428118,0.0-13.0-1.5,32823,List2A,white,woman,,,,null,,,,
null,are touching each other,,html-keyboard-response,52,430121,0.0-13.0-2.5,32823,List2A,white,woman,,,,null,,,,
14519,,,survey-text,53,444644,0.0-13.0-3.5,32823,List2A,white,woman,,,,,"{""Q0"":""Fred and Luke are touching eachother""}","<img src=""stim_listA/touch6.gif""</stim_listA>",are touching each other,
null,"<div style=""font-size:60px;"">+</div>",,html-keyboard-response,54,445148,0.0-13.0-0.6,32823,List2A,white,woman,,,,null,,,,
null,"<img src=""stim_listA/talk6.gif""</stim_listA>",,html-keyboard-response,55,447153,0.0-13.0-1.6,32823,List2A,white,woman,,,,null,,,,
null,are talking to each other,,html-keyboard-response,56,449157,0.0-13.0-2.6,32823,List2A,white,woman,,,,null,,,,
15222,,,survey-text,57,464383,0.0-13.0-3.6,32823,List2A,white,woman,,,,,"{""Q0"":""Fred and Dave are talking to eachother ""}","<img src=""stim_listA/talk6.gif""</stim_listA>",are talking to each other,
null,"<div style=""font-size:60px;"">+</div>",,html-keyboard-response,58,464887,0.0-13.0-0.7,32823,List2A,white,woman,,,,null,,,,
null,"<img src=""stim_listA/shout6.gif""</stim_listA>",,html-keyboard-response,59,466891,0.0-13.0-1.7,32823,List2A,white,woman,,,,null,,,,
null,are shouting at each other,,html-keyboard-response,60,468901,0.0-13.0-2.7,32823,List2A,white,woman,,,,null,,,,
11950,,,survey-text,61,480855,0.0-13.0-3.7,32823,List2A,white,woman,,,,,"{""Q0"":""Dave and mike are shouting at eachother ""}","<img src=""stim_listA/shout6.gif""</stim_listA>",are shouting at each other,
null,"<div style=""font-size:60px;"">+</div>",,html-keyboard-response,62,481358,0.0-13.0-0.8,32823,List2A,white,woman,,,,null,,,,
null,"<img src=""stim_listA/hug2.gif""</stim_listA>",,html-keyboard-response,63,483365,0.0-13.0-1.8,32823,List2A,white,woman,,,,null,,,,
null,are hugging each other,,html-keyboard-response,64,485369,0.0-13.0-2.8,32823,List2A,white,woman,,,,null,,,,
11458,,,survey-text,65,496830,0.0-13.0-3.8,32823,List2A,white,woman,,,,,"{""Q0"":""Dave and Jane are hugging eachother ""}","<img src=""stim_listA/hug2.gif""</stim_listA>",are hugging each other,
null,"<div style=""font-size:60px;"">+</div>",,html-keyboard-response,66,497334,0.0-13.0-0.9,32823,List2A,white,woman,,,,null,,,,
null,"<img src=""stim_listA/hug3.gif""</stim_listA>",,html-keyboard-response,67,499340,0.0-13.0-1.9,32823,List2A,white,woman,,,,null,,,,
null,is hugging,,html-keyboard-response,68,501344,0.0-13.0-2.9,32823,List2A,white,woman,,,,null,,,,
16543,,,survey-text,69,517890,0.0-13.0-3.9,32823,List2A,white,woman,,,,,"{""Q0"":""Beth is hugging Fred ""}","<img src=""stim_listA/hug3.gif""</stim_listA>",is hugging,
null,"<div style=""font-size:60px;"">+</div>",,html-keyboard-response,70,518392,0.0-13.0-0.10,32823,List2A,white,woman,,,,null,,,,
null,"<img src=""stim_listA/shout1.gif""</stim_listA>",,html-keyboard-response,71,520395,0.0-13.0-1.10,32823,List2A,white,woman,,,,null,,,,
null,is shouting at,,html-keyboard-response,72,522400,0.0-13.0-2.10,32823,List2A,white,woman,,,,null,,,,
10783,,,survey-text,73,533187,0.0-13.0-3.10,32823,List2A,white,woman,,,,,"{""Q0"":""Ruth is shouting at Luke ""}","<img src=""stim_listA/shout1.gif""</stim_listA>",is shouting at,
null,"<div style=""font-size:60px;"">+</div>",,html-keyboard-response,74,533690,0.0-13.0-0.11,32823,List2A,white,woman,,,,null,,,,
null,"<img src=""stim_listA/marry3.gif""</stim_listA>",,html-keyboard-response,75,535694,0.0-13.0-1.11,32823,List2A,white,woman,,,,null,,,,
null,is marrying,,html-keyboard-response,76,537698,0.0-13.0-2.11,32823,List2A,white,woman,,,,null,,,,
9124,,,survey-text,77,546826,0.0-13.0-3.11,32823,List2A,white,woman,,,,,"{""Q0"":""Beth is marrying mike ""}","<img src=""stim_listA/marry3.gif""</stim_listA>",is marrying,
null,"<div style=""font-size:60px;"">+</div>",,html-keyboard-response,78,547330,0.0-13.0-0.12,32823,List2A,white,woman,,,,null,,,,
null,"<img src=""stim_listA/fight2.gif""</stim_listA>",,html-keyboard-response,79,549334,0.0-13.0-1.12,32823,List2A,white,woman,,,,null,,,,
null,are fighting each other,,html-keyboard-response,80,551338,0.0-13.0-2.12,32823,List2A,white,woman,,,,null,,,,
13383,,,survey-text,81,564725,0.0-13.0-3.12,32823,List2A,white,woman,,,,,"{""Q0"":""Ruth and Luke are fighting eachother ""}","<img src=""stim_listA/fight2.gif""</stim_listA>",are fighting each other,
null,"<div style=""font-size:60px;"">+</div>",,html-keyboard-response,82,565229,0.0-13.0-0.13,32823,List2A,white,woman,,,,null,,,,
null,"<img src=""stim_listA/argue8.gif""</stim_listA>",,html-keyboard-response,83,567235,0.0-13.0-1.13,32823,List2A,white,woman,,,,null,,,,
null,are arguing with each other,,html-keyboard-response,84,569240,0.0-13.0-2.13,32823,List2A,white,woman,,,,null,,,,
17811,,,survey-text,85,587054,0.0-13.0-3.13,32823,List2A,white,woman,,,,,"{""Q0"":""Ruth and Kate are arguing with eachother ""}","<img src=""stim_listA/argue8.gif""</stim_listA>",are arguing with each other,
null,"<div style=""font-size:60px;"">+</div>",,html-keyboard-response,86,587559,0.0-13.0-0.14,32823,List2A,white,woman,,,,null,,,,
null,"<img src=""stim_listA/argue6.gif""</stim_listA>",,html-keyboard-response,87,589566,0.0-13.0-1.14,32823,List2A,white,woman,,,,null,,,,
null,are arguing with each other,,html-keyboard-response,88,591571,0.0-13.0-2.14,32823,List2A,white,woman,,,,null,,,,
15543,,,survey-text,89,607118,0.0-13.0-3.14,32823,List2A,white,woman,,,,,"{""Q0"":""Mike and Luke are arguing with each other""}","<img src=""stim_listA/argue6.gif""</stim_listA>",are arguing with each other,
null,"<div style=""font-size:60px;"">+</div>",,html-keyboard-response,90,607621,0.0-13.0-0.15,32823,List2A,white,woman,,,,null,,,,
null,"<img src=""stim_listA/kiss8.gif""</stim_listA>",,html-keyboard-response,91,609627,0.0-13.0-1.15,32823,List2A,white,woman,,,,null,,,,
null,are kissing each other,,html-keyboard-response,92,611632,0.0-13.0-2.15,32823,List2A,white,woman,,,,null,,,,
12843,,,survey-text,93,624479,0.0-13.0-3.15,32823,List2A,white,woman,,,,,"{""Q0"":""Jane and Kate are kissing each other ""}","<img src=""stim_listA/kiss8.gif""</stim_listA>",are kissing each other,
null,"<div style=""font-size:60px;"">+</div>",,html-keyboard-response,94,624983,0.0-13.0-0.16,32823,List2A,white,woman,,,,null,,,,
null,"<img src=""stim_listA/kiss3.gif""</stim_listA>",,html-keyboard-response,95,626989,0.0-13.0-1.16,32823,List2A,white,woman,,,,null,,,,
null,is kissing,,html-keyboard-response,96,628993,0.0-13.0-2.16,32823,List2A,white,woman,,,,null,,,,
11140,,,survey-text,97,640137,0.0-13.0-3.16,32823,List2A,white,woman,,,,,"{""Q0"":""Beth is kissing Fred ""}","<img src=""stim_listA/kiss3.gif""</stim_listA>",is kissing,
null,"<div style=""font-size:60px;"">+</div>",,html-keyboard-response,98,640640,0.0-13.0-0.17,32823,List2A,white,woman,,,,null,,,,
null,"<img src=""stim_listA/dance8.gif""</stim_listA>",,html-keyboard-response,99,642646,0.0-13.0-1.17,32823,List2A,white,woman,,,,null,,,,
null,are dancing with each other,,html-keyboard-response,100,644651,0.0-13.0-2.17,32823,List2A,white,woman,,,,null,,,,
12885,,,survey-text,101,657540,0.0-13.0-3.17,32823,List2A,white,woman,,,,,"{""Q0"":""Beth and Jane are dancing with eachother ""}","<img src=""stim_listA/dance8.gif""</stim_listA>",are dancing with each other,
null,"<div style=""font-size:60px;"">+</div>",,html-keyboard-response,102,658044,0.0-13.0-0.18,32823,List2A,white,woman,,,,null,,,,
null,"<img src=""stim_listA/kiss5.gif""</stim_listA>",,html-keyboard-response,103,660049,0.0-13.0-1.18,32823,List2A,white,woman,,,,null,,,,
null,is kissing,,html-keyboard-response,104,662055,0.0-13.0-2.18,32823,List2A,white,woman,,,,null,,,,
8207,,,survey-text,105,670266,0.0-13.0-3.18,32823,List2A,white,woman,,,,,"{""Q0"":""Fred is kissing Luke ""}","<img src=""stim_listA/kiss5.gif""</stim_listA>",is kissing,
null,"<div style=""font-size:60px;"">+</div>",,html-keyboard-response,106,670770,0.0-13.0-0.19,32823,List2A,white,woman,,,,null,,,,
null,"<img src=""stim_listA/dance1.gif""</stim_listA>",,html-keyboard-response,107,672777,0.0-13.0-1.19,32823,List2A,white,woman,,,,null,,,,
null,is dancing with,,html-keyboard-response,108,674782,0.0-13.0-2.19,32823,List2A,white,woman,,,,null,,,,
8813,,,survey-text,109,683599,0.0-13.0-3.19,32823,List2A,white,woman,,,,,"{""Q0"":""Luke is dancing with Jane ""}","<img src=""stim_listA/dance1.gif""</stim_listA>",is dancing with,
15553,"<img src='img/portrait_matrix_list2.JPG' style='width:900px;height:500px;''></img><p>If you have memorised all the portraits and names and are ready to start, press Continue.</p><p><strong>Please note: Your memory of these faces will be tested 4 times during this experiment.</strong></p>",0,html-button-response,110,699156,0.0-14.0-0.0,32823,List2A,white,woman,,,,,,,,
4087,"<img src=""portrait/BW2.jpg""style=""width:400px;height:400px;""></img>",2,html-button-response,111,704248,0.0-14.0-1.0,32823,List2A,white,woman,,TRUE,2,,,,,
null,CORRECT,,html-keyboard-response,112,705753,0.0-14.0-2.0-0.0,32823,List2A,white,woman,,,,null,,,,
2204,"<img src=""portrait/WM1.jpg""style=""width:400px;height:400px;""></img>",6,html-button-response,113,707966,0.0-14.0-4.0,32823,List2A,white,woman,,TRUE,6,,,,,
null,CORRECT,,html-keyboard-response,114,709471,0.0-14.0-5.0-0.0,32823,List2A,white,woman,,,,null,,,,
4947,"<img src=""portrait/BW1.jpg""style=""width:400px;height:400px;""></img>",0,html-button-response,115,714425,0.0-14.0-7.0,32823,List2A,white,woman,,TRUE,0,,,,,
null,CORRECT,,html-keyboard-response,116,715930,0.0-14.0-8.0-0.0,32823,List2A,white,woman,,,,null,,,,
2080,"<img src=""portrait/BM2.jpg""style=""width:400px;height:400px;""></img>",5,html-button-response,117,718019,0.0-14.0-10.0,32823,List2A,white,woman,,TRUE,5,,,,,
null,CORRECT,,html-keyboard-response,118,719522,0.0-14.0-11.0-0.0,32823,List2A,white,woman,,,,null,,,,
2639,"<img src=""portrait/WW1.jpg""style=""width:400px;height:400px;""></img>",1,html-button-response,119,722170,0.0-14.0-13.0,32823,List2A,white,woman,,TRUE,1,,,,,
null,CORRECT,,html-keyboard-response,120,723675,0.0-14.0-14.0-0.0,32823,List2A,white,woman,,,,null,,,,
2113,"<img src=""portrait/BM1.jpg""style=""width:400px;height:400px;""></img>",4,html-button-response,121,725797,0.0-14.0-16.0,32823,List2A,white,woman,,TRUE,4,,,,,
null,CORRECT,,html-keyboard-response,122,727301,0.0-14.0-17.0-0.0,32823,List2A,white,woman,,,,null,,,,
4510,"<img src=""portrait/WW2.jpg""style=""width:400px;height:400px;""></img>",3,html-button-response,123,731822,0.0-14.0-19.0,32823,List2A,white,woman,,TRUE,3,,,,,
null,CORRECT,,html-keyboard-response,124,733327,0.0-14.0-20.0-0.0,32823,List2A,white,woman,,,,null,,,,
2440,"<img src=""portrait/WM2.jpg""style=""width:400px;height:400px;""></img>",7,html-button-response,125,735775,0.0-14.0-22.0,32823,List2A,white,woman,,TRUE,7,,,,,
null,CORRECT,,html-keyboard-response,126,737280,0.0-14.0-23.0-0.0,32823,List2A,white,woman,,,,null,,,,
5751,<p>You got 8 out of 8 right first time. Press Continue.</p>,0,html-button-response,127,743037,0.0-14.0-25.0,32823,List2A,white,woman,,,,,,,,
null,"<div style=""font-size:60px;"">+</div>",,html-keyboard-response,128,744543,0.0-15.0-0.0,32823,List2A,white,woman,,,,null,,,,
null,"<img src=""stim_listA/marry4.gif""</stim_listA>",,html-keyboard-response,129,746549,0.0-15.0-1.0,32823,List2A,white,woman,,,,null,,,,
null,are marrying each other,,html-keyboard-response,130,748554,0.0-15.0-2.0,32823,List2A,white,woman,,,,null,,,,
13629,,,survey-text,131,762187,0.0-15.0-3.0,32823,List2A,white,woman,,,,,"{""Q0"":""Kate and Fred are marrying each other ""}","<img src=""stim_listA/marry4.gif""</stim_listA>",are marrying each other,
null,"<div style=""font-size:60px;"">+</div>",,html-keyboard-response,132,762689,0.0-15.0-0.1,32823,List2A,white,woman,,,,null,,,,
null,"<img src=""stim_listA/marry1.gif""</stim_listA>",,html-keyboard-response,133,764694,0.0-15.0-1.1,32823,List2A,white,woman,,,,null,,,,
null,is marrying,,html-keyboard-response,134,766698,0.0-15.0-2.1,32823,List2A,white,woman,,,,null,,,,
12469,,,survey-text,135,779172,0.0-15.0-3.1,32823,List2A,white,woman,,,,,"{""Q0"":""Ruth is marrying Luke ""}","<img src=""stim_listA/marry1.gif""</stim_listA>",is marrying,
null,"<div style=""font-size:60px;"">+</div>",,html-keyboard-response,136,779676,0.0-15.0-0.2,32823,List2A,white,woman,,,,null,,,,
null,"<img src=""stim_listA/hug4.gif""</stim_listA>",,html-keyboard-response,137,781680,0.0-15.0-1.2,32823,List2A,white,woman,,,,null,,,,
null,are hugging each other,,html-keyboard-response,138,783684,0.0-15.0-2.2,32823,List2A,white,woman,,,,null,,,,
11557,,,survey-text,139,795245,0.0-15.0-3.2,32823,List2A,white,woman,,,,,"{""Q0"":""Mike and Kate are hugging eachother ""}","<img src=""stim_listA/hug4.gif""</stim_listA>",are hugging each other,
null,"<div style=""font-size:60px;"">+</div>",,html-keyboard-response,140,795748,0.0-15.0-0.3,32823,List2A,white,woman,,,,null,,,,
null,"<img src=""stim_listA/kiss4.gif""</stim_listA>",,html-keyboard-response,141,797751,0.0-15.0-1.3,32823,List2A,white,woman,,,,null,,,,
null,are kissing each other,,html-keyboard-response,142,799756,0.0-15.0-2.3,32823,List2A,white,woman,,,,null,,,,
13319,,,survey-text,143,813081,0.0-15.0-3.3,32823,List2A,white,woman,,,,,"{""Q0"":""Mike and kate are kissing eachother ""}","<img src=""stim_listA/kiss4.gif""</stim_listA>",are kissing each other,
null,"<div style=""font-size:60px;"">+</div>",,html-keyboard-response,144,813585,0.0-15.0-0.4,32823,List2A,white,woman,,,,null,,,,
null,"<img src=""stim_listA/meet7.gif""</stim_listA>",,html-keyboard-response,145,815592,0.0-15.0-1.4,32823,List2A,white,woman,,,,null,,,,
null,is meeting,,html-keyboard-response,146,817597,0.0-15.0-2.4,32823,List2A,white,woman,,,,null,,,,
9118,,,survey-text,147,826720,0.0-15.0-3.4,32823,List2A,white,woman,,,,,"{""Q0"":""Kate is meeting Jane ""}","<img src=""stim_listA/meet7.gif""</stim_listA>",is meeting,
null,"<div style=""font-size:60px;"">+</div>",,html-keyboard-response,148,827224,0.0-15.0-0.5,32823,List2A,white,woman,,,,null,,,,
null,"<img src=""stim_listA/marry5.gif""</stim_listA>",,html-keyboard-response,149,829230,0.0-15.0-1.5,32823,List2A,white,woman,,,,null,,,,
null,is marrying,,html-keyboard-response,150,831233,0.0-15.0-2.5,32823,List2A,white,woman,,,,null,,,,
11464,,,survey-text,151,842701,0.0-15.0-3.5,32823,List2A,white,woman,,,,,"{""Q0"":""Luke is marrying Fred ""}","<img src=""stim_listA/marry5.gif""</stim_listA>",is marrying,
null,"<div style=""font-size:60px;"">+</div>",,html-keyboard-response,152,843205,0.0-15.0-0.6,32823,List2A,white,woman,,,,null,,,,
null,"<img src=""stim_listA/shout4.gif""</stim_listA>",,html-keyboard-response,153,845209,0.0-15.0-1.6,32823,List2A,white,woman,,,,null,,,,
null,are shouting at each other,,html-keyboard-response,154,847214,0.0-15.0-2.6,32823,List2A,white,woman,,,,null,,,,
12517,,,survey-text,155,859735,0.0-15.0-3.6,32823,List2A,white,woman,,,,,"{""Q0"":""Kate and mike are shouting at eachother ""}","<img src=""stim_listA/shout4.gif""</stim_listA>",are shouting at each other,
null,"<div style=""font-size:60px;"">+</div>",,html-keyboard-response,156,860238,0.0-15.0-0.7,32823,List2A,white,woman,,,,null,,,,
null,"<img src=""stim_listA/meet5.gif""</stim_listA>",,html-keyboard-response,157,862242,0.0-15.0-1.7,32823,List2A,white,woman,,,,null,,,,
null,is meeting,,html-keyboard-response,158,864247,0.0-15.0-2.7,32823,List2A,white,woman,,,,null,,,,
12032,,,survey-text,159,876283,0.0-15.0-3.7,32823,List2A,white,woman,,,,,"{""Q0"":""Dave is meeting mike ""}","<img src=""stim_listA/meet5.gif""</stim_listA>",is meeting,
null,"<div style=""font-size:60px;"">+</div>",,html-keyboard-response,160,876787,0.0-15.0-0.8,32823,List2A,white,woman,,,,null,,,,
null,"<img src=""stim_listA/hug1.gif""</stim_listA>",,html-keyboard-response,161,878792,0.0-15.0-1.8,32823,List2A,white,woman,,,,null,,,,
null,is hugging,,html-keyboard-response,162,880796,0.0-15.0-2.8,32823,List2A,white,woman,,,,null,,,,
8019,,,survey-text,163,888820,0.0-15.0-3.8,32823,List2A,white,woman,,,,,"{""Q0"":""Luke is hugging ruth""}","<img src=""stim_listA/hug1.gif""</stim_listA>",is hugging,
null,"<div style=""font-size:60px;"">+</div>",,html-keyboard-response,164,889324,0.0-15.0-0.9,32823,List2A,white,woman,,,,null,,,,
null,"<img src=""stim_listA/dance2.gif""</stim_listA>",,html-keyboard-response,165,891332,0.0-15.0-1.9,32823,List2A,white,woman,,,,null,,,,
null,are dancing with each other,,html-keyboard-response,166,893337,0.0-15.0-2.9,32823,List2A,white,woman,,,,null,,,,
12346,,,survey-text,167,905689,0.0-15.0-3.9,32823,List2A,white,woman,,,,,"{""Q0"":""Ruth and Dave are dancing with each other ""}","<img src=""stim_listA/dance2.gif""</stim_listA>",are dancing with each other,
null,"<div style=""font-size:60px;"">+</div>",,html-keyboard-response,168,906194,0.0-15.0-0.10,32823,List2A,white,woman,,,,null,,,,
null,"<img src=""stim_listA/kiss2.gif""</stim_listA>",,html-keyboard-response,169,908197,0.0-15.0-1.10,32823,List2A,white,woman,,,,null,,,,
null,are kissing each other,,html-keyboard-response,170,910212,0.0-15.0-2.10,32823,List2A,white,woman,,,,null,,,,
10826,,,survey-text,171,921043,0.0-15.0-3.10,32823,List2A,white,woman,,,,,"{""Q0"":""Dave and Jane are kissing eachother ""}","<img src=""stim_listA/kiss2.gif""</stim_listA>",are kissing each other,
null,"<div style=""font-size:60px;"">+</div>",,html-keyboard-response,172,921547,0.0-15.0-0.11,32823,List2A,white,woman,,,,null,,,,
null,"<img src=""stim_listA/shout7.gif""</stim_listA>",,html-keyboard-response,173,923551,0.0-15.0-1.11,32823,List2A,white,woman,,,,null,,,,
null,is shouting at,,html-keyboard-response,174,925556,0.0-15.0-2.11,32823,List2A,white,woman,,,,null,,,,
9374,,,survey-text,175,934937,0.0-15.0-3.11,32823,List2A,white,woman,,,,,"{""Q0"":""Ruth is shouting at Beth ""}","<img src=""stim_listA/shout7.gif""</stim_listA>",is shouting at,
null,"<div style=""font-size:60px;"">+</div>",,html-keyboard-response,176,935443,0.0-15.0-0.12,32823,List2A,white,woman,,,,null,,,,
null,"<img src=""stim_listA/meet4.gif""</stim_listA>",,html-keyboard-response,177,937447,0.0-15.0-1.12,32823,List2A,white,woman,,,,null,,,,
null,are meeting each other,,html-keyboard-response,178,939452,0.0-15.0-2.12,32823,List2A,white,woman,,,,null,,,,
12963,,,survey-text,179,952419,0.0-15.0-3.12,32823,List2A,white,woman,,,,,"{""Q0"":""Beth and Fred are meeting eachother ""}","<img src=""stim_listA/meet4.gif""</stim_listA>",are meeting each other,
null,"<div style=""font-size:60px;"">+</div>",,html-keyboard-response,180,952924,0.0-15.0-0.13,32823,List2A,white,woman,,,,null,,,,
null,"<img src=""stim_listA/kiss6.gif""</stim_listA>",,html-keyboard-response,181,954930,0.0-15.0-1.13,32823,List2A,white,woman,,,,null,,,,
null,are kissing each other,,html-keyboard-response,182,956935,0.0-15.0-2.13,32823,List2A,white,woman,,,,null,,,,
11064,,,survey-text,183,968003,0.0-15.0-3.13,32823,List2A,white,woman,,,,,"{""Q0"":""Dave and mike are kissing eachother ""}","<img src=""stim_listA/kiss6.gif""</stim_listA>",are kissing each other,
null,"<div style=""font-size:60px;"">+</div>",,html-keyboard-response,184,968506,0.0-15.0-0.14,32823,List2A,white,woman,,,,null,,,,
null,"<img src=""stim_listA/meet6.gif""</stim_listA>",,html-keyboard-response,185,970512,0.0-15.0-1.14,32823,List2A,white,woman,,,,null,,,,
null,are meeting each other,,html-keyboard-response,186,972516,0.0-15.0-2.14,32823,List2A,white,woman,,,,null,,,,
11208,,,survey-text,187,983728,0.0-15.0-3.14,32823,List2A,white,woman,,,,,"{""Q0"":""Luke and Fred are meeting eachother ""}","<img src=""stim_listA/meet6.gif""</stim_listA>",are meeting each other,
null,"<div style=""font-size:60px;"">+</div>",,html-keyboard-response,188,984232,0.0-15.0-0.15,32823,List2A,white,woman,,,,null,,,,
null,"<img src=""stim_listA/marry6.gif""</stim_listA>",,html-keyboard-response,189,986238,0.0-15.0-1.15,32823,List2A,white,woman,,,,null,,,,
null,are marrying each other,,html-keyboard-response,190,988242,0.0-15.0-2.15,32823,List2A,white,woman,,,,null,,,,
15238,,,survey-text,191,1003483,0.0-15.0-3.15,32823,List2A,white,woman,,,,,"{""Q0"":""Luke and mike are marrying eachother ""}","<img src=""stim_listA/marry6.gif""</stim_listA>",are marrying each other,
null,"<div style=""font-size:60px;"">+</div>",,html-keyboard-response,192,1003986,0.0-15.0-0.16,32823,List2A,white,woman,,,,null,,,,
null,"<img src=""stim_listA/meet8.gif""</stim_listA>",,html-keyboard-response,193,1005992,0.0-15.0-1.16,32823,List2A,white,woman,,,,null,,,,
null,are meeting each other,,html-keyboard-response,194,1007996,0.0-15.0-2.16,32823,List2A,white,woman,,,,null,,,,
12164,,,survey-text,195,1020165,0.0-15.0-3.16,32823,List2A,white,woman,,,,,"{""Q0"":""Beth and Ruth are meeting eachother ""}","<img src=""stim_listA/meet8.gif""</stim_listA>",are meeting each other,
null,"<div style=""font-size:60px;"">+</div>",,html-keyboard-response,196,1020669,0.0-15.0-0.17,32823,List2A,white,woman,,,,null,,,,
null,"<img src=""stim_listA/hug6.gif""</stim_listA>",,html-keyboard-response,197,1022674,0.0-15.0-1.17,32823,List2A,white,woman,,,,null,,,,
null,are hugging each other,,html-keyboard-response,198,1024678,0.0-15.0-2.17,32823,List2A,white,woman,,,,null,,,,
10720,,,survey-text,199,1035403,0.0-15.0-3.17,32823,List2A,white,woman,,,,,"{""Q0"":""Dave and mike are hugging each other ""}","<img src=""stim_listA/hug6.gif""</stim_listA>",are hugging each other,
null,"<div style=""font-size:60px;"">+</div>",,html-keyboard-response,200,1035907,0.0-15.0-0.18,32823,List2A,white,woman,,,,null,,,,
null,"<img src=""stim_listA/argue5.gif""</stim_listA>",,html-keyboard-response,201,1037913,0.0-15.0-1.18,32823,List2A,white,woman,,,,null,,,,
null,is arguing with,,html-keyboard-response,202,1039918,0.0-15.0-2.18,32823,List2A,white,woman,,,,null,,,,
9132,,,survey-text,203,1049056,0.0-15.0-3.18,32823,List2A,white,woman,,,,,"{""Q0"":""Dave is arguing with Fred ""}","<img src=""stim_listA/argue5.gif""</stim_listA>",is arguing with,
null,"<div style=""font-size:60px;"">+</div>",,html-keyboard-response,204,1049560,0.0-15.0-0.19,32823,List2A,white,woman,,,,null,,,,
null,"<img src=""stim_listA/argue2.gif""</stim_listA>",,html-keyboard-response,205,1051567,0.0-15.0-1.19,32823,List2A,white,woman,,,,null,,,,
null,are arguing with each other,,html-keyboard-response,206,1053571,0.0-15.0-2.19,32823,List2A,white,woman,,,,null,,,,
12916,,,survey-text,207,1066490,0.0-15.0-3.19,32823,List2A,white,woman,,,,,"{""Q0"":""Luke and Jane are arguing with each other ""}","<img src=""stim_listA/argue2.gif""</stim_listA>",are arguing with each other,
10440,"<img src='img/portrait_matrix_list2.JPG' style='width:900px;height:500px;''></img><p>If you have memorised all the portraits and names and are ready to start, press Continue.</p><p><strong>Please note: Your memory of these faces will be tested 4 times during this experiment.</strong></p>",0,html-button-response,208,1076936,0.0-16.0-0.0,32823,List2A,white,woman,,,,,,,,
2503,"<img src=""portrait/WW2.jpg""style=""width:400px;height:400px;""></img>",3,html-button-response,209,1080448,0.0-16.0-1.0,32823,List2A,white,woman,,TRUE,3,,,,,
null,CORRECT,,html-keyboard-response,210,1081952,0.0-16.0-2.0-0.0,32823,List2A,white,woman,,,,null,,,,
3050,"<img src=""portrait/BW1.jpg""style=""width:400px;height:400px;""></img>",0,html-button-response,211,1085013,0.0-16.0-4.0,32823,List2A,white,woman,,TRUE,0,,,,,
null,CORRECT,,html-keyboard-response,212,1086518,0.0-16.0-5.0-0.0,32823,List2A,white,woman,,,,null,,,,
2414,"<img src=""portrait/BM2.jpg""style=""width:400px;height:400px;""></img>",5,html-button-response,213,1088942,0.0-16.0-7.0,32823,List2A,white,woman,,TRUE,5,,,,,
null,CORRECT,,html-keyboard-response,214,1090446,0.0-16.0-8.0-0.0,32823,List2A,white,woman,,,,null,,,,
1500,"<img src=""portrait/WM1.jpg""style=""width:400px;height:400px;""></img>",6,html-button-response,215,1091952,0.0-16.0-10.0,32823,List2A,white,woman,,TRUE,6,,,,,
null,CORRECT,,html-keyboard-response,216,1093456,0.0-16.0-11.0-0.0,32823,List2A,white,woman,,,,null,,,,
3139,"<img src=""portrait/WW1.jpg""style=""width:400px;height:400px;""></img>",1,html-button-response,217,1096606,0.0-16.0-13.0,32823,List2A,white,woman,,TRUE,1,,,,,
null,CORRECT,,html-keyboard-response,218,1098111,0.0-16.0-14.0-0.0,32823,List2A,white,woman,,,,null,,,,
1672,"<img src=""portrait/BM1.jpg""style=""width:400px;height:400px;""></img>",4,html-button-response,219,1099791,0.0-16.0-16.0,32823,List2A,white,woman,,TRUE,4,,,,,
null,CORRECT,,html-keyboard-response,220,1101296,0.0-16.0-17.0-0.0,32823,List2A,white,woman,,,,null,,,,
4592,"<img src=""portrait/BW2.jpg""style=""width:400px;height:400px;""></img>",2,html-button-response,221,1105898,0.0-16.0-19.0,32823,List2A,white,woman,,TRUE,2,,,,,
null,CORRECT,,html-keyboard-response,222,1107403,0.0-16.0-20.0-0.0,32823,List2A,white,woman,,,,null,,,,
1376,"<img src=""portrait/WM2.jpg""style=""width:400px;height:400px;""></img>",7,html-button-response,223,1108789,0.0-16.0-22.0,32823,List2A,white,woman,,TRUE,7,,,,,
null,CORRECT,,html-keyboard-response,224,1110294,0.0-16.0-23.0-0.0,32823,List2A,white,woman,,,,null,,,,
2438,<p>You got 8 out of 8 right first time. Press Continue.</p>,0,html-button-response,225,1112738,0.0-16.0-25.0,32823,List2A,white,woman,,,,,,,,
null,"<div style=""font-size:60px;"">+</div>",,html-keyboard-response,226,1114247,0.0-17.0-0.0,32823,List2A,white,woman,,,,null,,,,
null,"<img src=""stim_listA/fight6.gif""</stim_listA>",,html-keyboard-response,227,1116253,0.0-17.0-1.0,32823,List2A,white,woman,,,,null,,,,
null,are fighting each other,,html-keyboard-response,228,1118257,0.0-17.0-2.0,32823,List2A,white,woman,,,,null,,,,
11498,,,survey-text,229,1129759,0.0-17.0-3.0,32823,List2A,white,woman,,,,,"{""Q0"":""Luke and Fred are fighting eachother ""}","<img src=""stim_listA/fight6.gif""</stim_listA>",are fighting each other,
null,"<div style=""font-size:60px;"">+</div>",,html-keyboard-response,230,1130263,0.0-17.0-0.1,32823,List2A,white,woman,,,,null,,,,
null,"<img src=""stim_listA/shout3.gif""</stim_listA>",,html-keyboard-response,231,1132268,0.0-17.0-1.1,32823,List2A,white,woman,,,,null,,,,
null,is shouting at,,html-keyboard-response,232,1134273,0.0-17.0-2.1,32823,List2A,white,woman,,,,null,,,,
21460,,,survey-text,233,1155738,0.0-17.0-3.1,32823,List2A,white,woman,,,,,"{""Q0"":""Beth and Fred are shouting at eachother ""}","<img src=""stim_listA/shout3.gif""</stim_listA>",is shouting at,
null,"<div style=""font-size:60px;"">+</div>",,html-keyboard-response,234,1156241,0.0-17.0-0.2,32823,List2A,white,woman,,,,null,,,,
null,"<img src=""stim_listA/hug5.gif""</stim_listA>",,html-keyboard-response,235,1158248,0.0-17.0-1.2,32823,List2A,white,woman,,,,null,,,,
null,is hugging,,html-keyboard-response,236,1160253,0.0-17.0-2.2,32823,List2A,white,woman,,,,null,,,,
7819,,,survey-text,237,1168076,0.0-17.0-3.2,32823,List2A,white,woman,,,,,"{""Q0"":""Luke is hugging Fred ""}","<img src=""stim_listA/hug5.gif""</stim_listA>",is hugging,
null,"<div style=""font-size:60px;"">+</div>",,html-keyboard-response,238,1168580,0.0-17.0-0.3,32823,List2A,white,woman,,,,null,,,,
null,"<img src=""stim_listA/fight8.gif""</stim_listA>",,html-keyboard-response,239,1170584,0.0-17.0-1.3,32823,List2A,white,woman,,,,null,,,,
null,are fighting each other,,html-keyboard-response,240,1172588,0.0-17.0-2.3,32823,List2A,white,woman,,,,null,,,,
11375,,,survey-text,241,1183966,0.0-17.0-3.3,32823,List2A,white,woman,,,,,"{""Q0"":""Ruth and Beth are fighting each other ""}","<img src=""stim_listA/fight8.gif""</stim_listA>",are fighting each other,
null,"<div style=""font-size:60px;"">+</div>",,html-keyboard-response,242,1184470,0.0-17.0-0.4,32823,List2A,white,woman,,,,null,,,,
null,"<img src=""stim_listA/meet3.gif""</stim_listA>",,html-keyboard-response,243,1186475,0.0-17.0-1.4,32823,List2A,white,woman,,,,null,,,,
null,is meeting,,html-keyboard-response,244,1188480,0.0-17.0-2.4,32823,List2A,white,woman,,,,null,,,,
11961,,,survey-text,245,1200444,0.0-17.0-3.4,32823,List2A,white,woman,,,,,"{""Q0"":""Mike and Kate are meeting eachother ""}","<img src=""stim_listA/meet3.gif""</stim_listA>",is meeting,
null,"<div style=""font-size:60px;"">+</div>",,html-keyboard-response,246,1200947,0.0-17.0-0.5,32823,List2A,white,woman,,,,null,,,,
null,"<img src=""stim_listA/touch4.gif""</stim_listA>",,html-keyboard-response,247,1202953,0.0-17.0-1.5,32823,List2A,white,woman,,,,null,,,,
null,are touching each other,,html-keyboard-response,248,1204957,0.0-17.0-2.5,32823,List2A,white,woman,,,,null,,,,
8148,,,survey-text,249,1213110,0.0-17.0-3.5,32823,List2A,white,woman,,,,,"{""Q0"":""Beth and Fred are touching each other""}","<img src=""stim_listA/touch4.gif""</stim_listA>",are touching each other,
null,"<div style=""font-size:60px;"">+</div>",,html-keyboard-response,250,1213613,0.0-17.0-0.6,32823,List2A,white,woman,,,,null,,,,
null,"<img src=""stim_listA/fight1.gif""</stim_listA>",,html-keyboard-response,251,1215617,0.0-17.0-1.6,32823,List2A,white,woman,,,,null,,,,
null,is fighting,,html-keyboard-response,252,1217621,0.0-17.0-2.6,32823,List2A,white,woman,,,,null,,,,
6432,,,survey-text,253,1224058,0.0-17.0-3.6,32823,List2A,white,woman,,,,,"{""Q0"":""Jane is fighting Dave ""}","<img src=""stim_listA/fight1.gif""</stim_listA>",is fighting,
null,"<div style=""font-size:60px;"">+</div>",,html-keyboard-response,254,1224561,0.0-17.0-0.7,32823,List2A,white,woman,,,,null,,,,
null,"<img src=""stim_listA/talk2.gif""</stim_listA>",,html-keyboard-response,255,1226567,0.0-17.0-1.7,32823,List2A,white,woman,,,,null,,,,
null,are talking to each other,,html-keyboard-response,256,1228572,0.0-17.0-2.7,32823,List2A,white,woman,,,,null,,,,
8591,,,survey-text,257,1237167,0.0-17.0-3.7,32823,List2A,white,woman,,,,,"{""Q0"":""Ruth and Dave are talking to eachother ""}","<img src=""stim_listA/talk2.gif""</stim_listA>",are talking to each other,
null,"<div style=""font-size:60px;"">+</div>",,html-keyboard-response,258,1237670,0.0-17.0-0.8,32823,List2A,white,woman,,,,null,,,,
null,"<img src=""stim_listA/fight7.gif""</stim_listA>",,html-keyboard-response,259,1239675,0.0-17.0-1.8,32823,List2A,white,woman,,,,null,,,,
null,is fighting,,html-keyboard-response,260,1241680,0.0-17.0-2.8,32823,List2A,white,woman,,,,null,,,,
7001,,,survey-text,261,1248685,0.0-17.0-3.8,32823,List2A,white,woman,,,,,"{""Q0"":""Jane is fighting Kate ""}","<img src=""stim_listA/fight7.gif""</stim_listA>",is fighting,
null,"<div style=""font-size:60px;"">+</div>",,html-keyboard-response,262,1249189,0.0-17.0-0.9,32823,List2A,white,woman,,,,null,,,,
null,"<img src=""stim_listA/fight4.gif""</stim_listA>",,html-keyboard-response,263,1251193,0.0-17.0-1.9,32823,List2A,white,woman,,,,null,,,,
null,are fighting each other,,html-keyboard-response,264,1253198,0.0-17.0-2.9,32823,List2A,white,woman,,,,null,,,,
8601,,,survey-text,265,1261803,0.0-17.0-3.9,32823,List2A,white,woman,,,,,"{""Q0"":""Beth and Fred are fighting eachother ""}","<img src=""stim_listA/fight4.gif""</stim_listA>",are fighting each other,
null,"<div style=""font-size:60px;"">+</div>",,html-keyboard-response,266,1262307,0.0-17.0-0.10,32823,List2A,white,woman,,,,null,,,,
null,"<img src=""stim_listA/argue4.gif""</stim_listA>",,html-keyboard-response,267,1264313,0.0-17.0-1.10,32823,List2A,white,woman,,,,null,,,,
null,are arguing with each other,,html-keyboard-response,268,1266318,0.0-17.0-2.10,32823,List2A,white,woman,,,,null,,,,
8415,,,survey-text,269,1274736,0.0-17.0-3.10,32823,List2A,white,woman,,,,,"{""Q0"":""Kate and Fred are arguing with each other""}","<img src=""stim_listA/argue4.gif""</stim_listA>",are arguing with each other,
null,"<div style=""font-size:60px;"">+</div>",,html-keyboard-response,270,1275240,0.0-17.0-0.11,32823,List2A,white,woman,,,,null,,,,
null,"<img src=""stim_listA/talk3.gif""</stim_listA>",,html-keyboard-response,271,1277246,0.0-17.0-1.11,32823,List2A,white,woman,,,,null,,,,
null,is talking to,,html-keyboard-response,272,1279250,0.0-17.0-2.11,32823,List2A,white,woman,,,,null,,,,
9587,,,survey-text,273,1288842,0.0-17.0-3.11,32823,List2A,white,woman,,,,,"{""Q0"":""Kate is talking to Fred ""}","<img src=""stim_listA/talk3.gif""</stim_listA>",is talking to,
null,"<div style=""font-size:60px;"">+</div>",,html-keyboard-response,274,1289346,0.0-17.0-0.12,32823,List2A,white,woman,,,,null,,,,
null,"<img src=""stim_listA/argue7.gif""</stim_listA>",,html-keyboard-response,275,1291351,0.0-17.0-1.12,32823,List2A,white,woman,,,,null,,,,
null,is arguing with,,html-keyboard-response,276,1293356,0.0-17.0-2.12,32823,List2A,white,woman,,,,null,,,,
6447,,,survey-text,277,1299807,0.0-17.0-3.12,32823,List2A,white,woman,,,,,"{""Q0"":""Jane is arguing with Beth ""}","<img src=""stim_listA/argue7.gif""</stim_listA>",is arguing with,
null,"<div style=""font-size:60px;"">+</div>",,html-keyboard-response,278,1300311,0.0-17.0-0.13,32823,List2A,white,woman,,,,null,,,,
null,"<img src=""stim_listA/talk4.gif""</stim_listA>",,html-keyboard-response,279,1302317,0.0-17.0-1.13,32823,List2A,white,woman,,,,null,,,,
null,are talking to each other,,html-keyboard-response,280,1304321,0.0-17.0-2.13,32823,List2A,white,woman,,,,null,,,,
7749,,,survey-text,281,1312074,0.0-17.0-3.13,32823,List2A,white,woman,,,,,"{""Q0"":""Beth and mike are talking to each other ""}","<img src=""stim_listA/talk4.gif""</stim_listA>",are talking to each other,
null,"<div style=""font-size:60px;"">+</div>",,html-keyboard-response,282,1312578,0.0-17.0-0.14,32823,List2A,white,woman,,,,null,,,,
null,"<img src=""stim_listA/dance3.gif""</stim_listA>",,html-keyboard-response,283,1314583,0.0-17.0-1.14,32823,List2A,white,woman,,,,null,,,,
null,is dancing with,,html-keyboard-response,284,1316587,0.0-17.0-2.14,32823,List2A,white,woman,,,,null,,,,
5780,,,survey-text,285,1322371,0.0-17.0-3.14,32823,List2A,white,woman,,,,,"{""Q0"":""Kate is dancing with Fred ""}","<img src=""stim_listA/dance3.gif""</stim_listA>",is dancing with,
null,"<div style=""font-size:60px;"">+</div>",,html-keyboard-response,286,1322875,0.0-17.0-0.15,32823,List2A,white,woman,,,,null,,,,
null,"<img src=""stim_listA/touch5.gif""</stim_listA>",,html-keyboard-response,287,1324881,0.0-17.0-1.15,32823,List2A,white,woman,,,,null,,,,
null,is touching,,html-keyboard-response,288,1326885,0.0-17.0-2.15,32823,List2A,white,woman,,,,null,,,,
5675,,,survey-text,289,1332565,0.0-17.0-3.15,32823,List2A,white,woman,,,,,"{""Q0"":""Dave is touching mike ""}","<img src=""stim_listA/touch5.gif""</stim_listA>",is touching,
null,"<div style=""font-size:60px;"">+</div>",,html-keyboard-response,290,1333069,0.0-17.0-0.16,32823,List2A,white,woman,,,,null,,,,
null,"<img src=""stim_listA/touch7.gif""</stim_listA>",,html-keyboard-response,291,1335076,0.0-17.0-1.16,32823,List2A,white,woman,,,,null,,,,
null,is touching,,html-keyboard-response,292,1337081,0.0-17.0-2.16,32823,List2A,white,woman,,,,null,,,,
6676,,,survey-text,293,1343761,0.0-17.0-3.16,32823,List2A,white,woman,,,,,"{""Q0"":""Jane is touching Kate ""}","<img src=""stim_listA/touch7.gif""</stim_listA>",is touching,
null,"<div style=""font-size:60px;"">+</div>",,html-keyboard-response,294,1344265,0.0-17.0-0.17,32823,List2A,white,woman,,,,null,,,,
null,"<img src=""stim_listA/dance6.gif""</stim_listA>",,html-keyboard-response,295,1346269,0.0-17.0-1.17,32823,List2A,white,woman,,,,null,,,,
null,are dancing with each other,,html-keyboard-response,296,1348273,0.0-17.0-2.17,32823,List2A,white,woman,,,,null,,,,
8362,,,survey-text,297,1356639,0.0-17.0-3.17,32823,List2A,white,woman,,,,,"{""Q0"":""Fred and Dave are dancing with each other ""}","<img src=""stim_listA/dance6.gif""</stim_listA>",are dancing with each other,
null,"<div style=""font-size:60px;"">+</div>",,html-keyboard-response,298,1357143,0.0-17.0-0.18,32823,List2A,white,woman,,,,null,,,,
null,"<img src=""stim_listA/touch3.gif""</stim_listA>",,html-keyboard-response,299,1359147,0.0-17.0-1.18,32823,List2A,white,woman,,,,null,,,,
null,is touching,,html-keyboard-response,300,1361152,0.0-17.0-2.18,32823,List2A,white,woman,,,,null,,,,
5326,,,survey-text,301,1366482,0.0-17.0-3.18,32823,List2A,white,woman,,,,,"{""Q0"":""Kate is touching mike ""}","<img src=""stim_listA/touch3.gif""</stim_listA>",is touching,
null,"<div style=""font-size:60px;"">+</div>",,html-keyboard-response,302,1366985,0.0-17.0-0.19,32823,List2A,white,woman,,,,null,,,,
null,"<img src=""stim_listA/kiss7.gif""</stim_listA>",,html-keyboard-response,303,1368992,0.0-17.0-1.19,32823,List2A,white,woman,,,,null,,,,
null,is kissing,,html-keyboard-response,304,1370996,0.0-17.0-2.19,32823,List2A,white,woman,,,,null,,,,
10179,,,survey-text,305,1381180,0.0-17.0-3.19,32823,List2A,white,woman,,,,,"{""Q0"":""Ruth is kissing Beth ""}","<img src=""stim_listA/kiss7.gif""</stim_listA>",is kissing,
7342,"<img src='img/portrait_matrix_list2.JPG' style='width:900px;height:500px;''></img><p>If you have memorised all the portraits and names and are ready to start, press Continue.</p><p><strong>Please note: Your memory of these faces will be tested 4 times during this experiment.</strong></p>",0,html-button-response,306,1388527,0.0-18.0-0.0,32823,List2A,white,woman,,,,,,,,
2015,"<img src=""portrait/WW1.jpg""style=""width:400px;height:400px;""></img>",1,html-button-response,307,1391553,0.0-18.0-1.0,32823,List2A,white,woman,,TRUE,1,,,,,
null,CORRECT,,html-keyboard-response,308,1393059,0.0-18.0-2.0-0.0,32823,List2A,white,woman,,,,null,,,,
2330,"<img src=""portrait/WW2.jpg""style=""width:400px;height:400px;""></img>",3,html-button-response,309,1395399,0.0-18.0-4.0,32823,List2A,white,woman,,TRUE,3,,,,,
null,CORRECT,,html-keyboard-response,310,1396903,0.0-18.0-5.0-0.0,32823,List2A,white,woman,,,,null,,,,
1855,"<img src=""portrait/WM2.jpg""style=""width:400px;height:400px;""></img>",7,html-button-response,311,1398770,0.0-18.0-7.0,32823,List2A,white,woman,,TRUE,7,,,,,
null,CORRECT,,html-keyboard-response,312,1400275,0.0-18.0-8.0-0.0,32823,List2A,white,woman,,,,null,,,,
1613,"<img src=""portrait/BM2.jpg""style=""width:400px;height:400px;""></img>",5,html-button-response,313,1401897,0.0-18.0-10.0,32823,List2A,white,woman,,TRUE,5,,,,,
null,CORRECT,,html-keyboard-response,314,1403402,0.0-18.0-11.0-0.0,32823,List2A,white,woman,,,,null,,,,
1352,"<img src=""portrait/WM1.jpg""style=""width:400px;height:400px;""></img>",6,html-button-response,315,1404764,0.0-18.0-13.0,32823,List2A,white,woman,,TRUE,6,,,,,
null,CORRECT,,html-keyboard-response,316,1406270,0.0-18.0-14.0-0.0,32823,List2A,white,woman,,,,null,,,,
2175,"<img src=""portrait/BM1.jpg""style=""width:400px;height:400px;""></img>",4,html-button-response,317,1408455,0.0-18.0-16.0,32823,List2A,white,woman,,TRUE,4,,,,,
null,CORRECT,,html-keyboard-response,318,1409959,0.0-18.0-17.0-0.0,32823,List2A,white,woman,,,,null,,,,
2137,"<img src=""portrait/BW2.jpg""style=""width:400px;height:400px;""></img>",3,html-button-response,319,1412108,0.0-18.0-19.0,32823,List2A,white,woman,,TRUE,2,,,,,
6576,"<img src=""portrait/BW2.jpg""style=""width:400px;height:400px;""></img>",2,html-button-response,320,1419696,0.0-18.0-21.0-0.0,32823,List2A,white,woman,,FALSE,2,,,,,
null,CORRECT,,html-keyboard-response,321,1421202,0.0-18.0-21.0-1.0-0.0,32823,List2A,white,woman,,,,null,,,,
2499,"<img src=""portrait/BW1.jpg""style=""width:400px;height:400px;""></img>",0,html-button-response,322,1423712,0.0-18.0-22.0,32823,List2A,white,woman,,TRUE,0,,,,,
null,CORRECT,,html-keyboard-response,323,1425218,0.0-18.0-23.0-0.0,32823,List2A,white,woman,,,,null,,,,
1613,<p>You got 7 out of 8 right first time. Press Continue.</p>,0,html-button-response,324,1426837,0.0-18.0-25.0,32823,List2A,white,woman,,,,,,,,
8425,"As you did not score 100%, the memory game will repeat. Press Continue.",0,html-button-response,325,1436268,0.0-18.0-26.0-0.0,32823,List2A,white,woman,,,,,,,,
7109,"<img src='img/portrait_matrix_list2.JPG' style='width:900px;height:500px;''></img><p>If you have memorised all the portraits and names and are ready to start, press Continue.</p><p><strong>Please note: Your memory of these faces will be tested 4 times during this experiment.</strong></p>",0,html-button-response,326,1444385,0.0-18.1-0.1,32823,List2A,white,woman,,,,,,,,
2097,"<img src=""portrait/WW1.jpg""style=""width:400px;height:400px;""></img>",1,html-button-response,327,1447489,0.0-18.1-1.1,32823,List2A,white,woman,,TRUE,1,,,,,
null,CORRECT,,html-keyboard-response,328,1448994,0.0-18.1-2.1-0.1,32823,List2A,white,woman,,,,null,,,,
1577,"<img src=""portrait/WW2.jpg""style=""width:400px;height:400px;""></img>",3,html-button-response,329,1450578,0.0-18.1-4.1,32823,List2A,white,woman,,TRUE,3,,,,,
null,CORRECT,,html-keyboard-response,330,1452083,0.0-18.1-5.1-0.1,32823,List2A,white,woman,,,,null,,,,
1289,"<img src=""portrait/WM2.jpg""style=""width:400px;height:400px;""></img>",7,html-button-response,331,1453378,0.0-18.1-7.1,32823,List2A,white,woman,,TRUE,7,,,,,
null,CORRECT,,html-keyboard-response,332,1454882,0.0-18.1-8.1-0.1,32823,List2A,white,woman,,,,null,,,,
1438,"<img src=""portrait/BM2.jpg""style=""width:400px;height:400px;""></img>",5,html-button-response,333,1456325,0.0-18.1-10.1,32823,List2A,white,woman,,TRUE,5,,,,,
null,CORRECT,,html-keyboard-response,334,1457830,0.0-18.1-11.1-0.1,32823,List2A,white,woman,,,,null,,,,
1371,"<img src=""portrait/WM1.jpg""style=""width:400px;height:400px;""></img>",6,html-button-response,335,1459208,0.0-18.1-13.1,32823,List2A,white,woman,,TRUE,6,,,,,
null,CORRECT,,html-keyboard-response,336,1460713,0.0-18.1-14.1-0.1,32823,List2A,white,woman,,,,null,,,,
2172,"<img src=""portrait/BM1.jpg""style=""width:400px;height:400px;""></img>",4,html-button-response,337,1462892,0.0-18.1-16.1,32823,List2A,white,woman,,TRUE,4,,,,,
null,CORRECT,,html-keyboard-response,338,1464397,0.0-18.1-17.1-0.1,32823,List2A,white,woman,,,,null,,,,
1766,"<img src=""portrait/BW2.jpg""style=""width:400px;height:400px;""></img>",2,html-button-response,339,1466171,0.0-18.1-19.1,32823,List2A,white,woman,,TRUE,2,,,,,
null,CORRECT,,html-keyboard-response,340,1467675,0.0-18.1-20.1-0.1,32823,List2A,white,woman,,,,null,,,,
2157,"<img src=""portrait/BW1.jpg""style=""width:400px;height:400px;""></img>",0,html-button-response,341,1469840,0.0-18.1-22.1,32823,List2A,white,woman,,TRUE,0,,,,,
null,CORRECT,,html-keyboard-response,342,1471344,0.0-18.1-23.1-0.1,32823,List2A,white,woman,,,,null,,,,
1700,<p>You got 8 out of 8 right first time. Press Continue.</p>,0,html-button-response,343,1473053,0.0-18.1-25.1,32823,List2A,white,woman,,,,,,,,
null,"<div style=""font-size:60px;"">+</div>",,html-keyboard-response,344,1474561,0.0-19.0-0.0,32823,List2A,white,woman,,,,null,,,,
null,"<img src=""stim_listA/talk7.gif""</stim_listA>",,html-keyboard-response,345,1476568,0.0-19.0-1.0,32823,List2A,white,woman,,,,null,,,,
null,is talking to,,html-keyboard-response,346,1478573,0.0-19.0-2.0,32823,List2A,white,woman,,,,null,,,,
8588,,,survey-text,347,1487164,0.0-19.0-3.0,32823,List2A,white,woman,,,,,"{""Q0"":""Kate is talking to Ruth ""}","<img src=""stim_listA/talk7.gif""</stim_listA>",is talking to,
null,"<div style=""font-size:60px;"">+</div>",,html-keyboard-response,348,1487667,0.0-19.0-0.1,32823,List2A,white,woman,,,,null,,,,
null,"<img src=""stim_listA/marry7.gif""</stim_listA>",,html-keyboard-response,349,1489690,0.0-19.0-1.1,32823,List2A,white,woman,,,,null,,,,
null,is marrying,,html-keyboard-response,350,1491693,0.0-19.0-2.1,32823,List2A,white,woman,,,,null,,,,
7065,,,survey-text,351,1498764,0.0-19.0-3.1,32823,List2A,white,woman,,,,,"{""Q0"":""Beth is marrying Jane ""}","<img src=""stim_listA/marry7.gif""</stim_listA>",is marrying,
null,"<div style=""font-size:60px;"">+</div>",,html-keyboard-response,352,1499267,0.0-19.0-0.2,32823,List2A,white,woman,,,,null,,,,
null,"<img src=""stim_listA/dance7.gif""</stim_listA>",,html-keyboard-response,353,1501274,0.0-19.0-1.2,32823,List2A,white,woman,,,,null,,,,
null,is dancing with,,html-keyboard-response,354,1503279,0.0-19.0-2.2,32823,List2A,white,woman,,,,null,,,,
7513,,,survey-text,355,1510796,0.0-19.0-3.2,32823,List2A,white,woman,,,,,"{""Q0"":""Kate is dancing with Ruth ""}","<img src=""stim_listA/dance7.gif""</stim_listA>",is dancing with,
null,"<div style=""font-size:60px;"">+</div>",,html-keyboard-response,356,1511299,0.0-19.0-0.3,32823,List2A,white,woman,,,,null,,,,
null,"<img src=""stim_listA/fight5.gif""</stim_listA>",,html-keyboard-response,357,1513303,0.0-19.0-1.3,32823,List2A,white,woman,,,,null,,,,
null,is fighting,,html-keyboard-response,358,1515308,0.0-19.0-2.3,32823,List2A,white,woman,,,,null,,,,
5710,,,survey-text,359,1521022,0.0-19.0-3.3,32823,List2A,white,woman,,,,,"{""Q0"":""Dave is fighting mike ""}","<img src=""stim_listA/fight5.gif""</stim_listA>",is fighting,
null,"<div style=""font-size:60px;"">+</div>",,html-keyboard-response,360,1521525,0.0-19.0-0.4,32823,List2A,white,woman,,,,null,,,,
null,"<img src=""stim_listA/touch2.gif""</stim_listA>",,html-keyboard-response,361,1523530,0.0-19.0-1.4,32823,List2A,white,woman,,,,null,,,,
null,are touching each other,,html-keyboard-response,362,1525535,0.0-19.0-2.4,32823,List2A,white,woman,,,,null,,,,
7910,,,survey-text,363,1533449,0.0-19.0-3.4,32823,List2A,white,woman,,,,,"{""Q0"":""Ruth and Luke are touching each other ""}","<img src=""stim_listA/touch2.gif""</stim_listA>",are touching each other,
null,"<div style=""font-size:60px;"">+</div>",,html-keyboard-response,364,1533952,0.0-19.0-0.5,32823,List2A,white,woman,,,,null,,,,
null,"<img src=""stim_listA/shout2.gif""</stim_listA>",,html-keyboard-response,365,1535956,0.0-19.0-1.5,32823,List2A,white,woman,,,,null,,,,
null,are shouting at each other,,html-keyboard-response,366,1537959,0.0-19.0-2.5,32823,List2A,white,woman,,,,null,,,,
8604,,,survey-text,367,1546565,0.0-19.0-3.5,32823,List2A,white,woman,,,,,"{""Q0"":""Jane and Dave are shouting at each other ""}","<img src=""stim_listA/shout2.gif""</stim_listA>",are shouting at each other,
null,"<div style=""font-size:60px;"">+</div>",,html-keyboard-response,368,1547070,0.0-19.0-0.6,32823,List2A,white,woman,,,,null,,,,
null,"<img src=""stim_listA/dance4.gif""</stim_listA>",,html-keyboard-response,369,1549074,0.0-19.0-1.6,32823,List2A,white,woman,,,,null,,,,
null,are dancing with each other,,html-keyboard-response,370,1551078,0.0-19.0-2.6,32823,List2A,white,woman,,,,null,,,,
8300,,,survey-text,371,1559383,0.0-19.0-3.6,32823,List2A,white,woman,,,,,"{""Q0"":""Beth and mike are dancing with each other ""}","<img src=""stim_listA/dance4.gif""</stim_listA>",are dancing with each other,
null,"<div style=""font-size:60px;"">+</div>",,html-keyboard-response,372,1559887,0.0-19.0-0.7,32823,List2A,white,woman,,,,null,,,,
null,"<img src=""stim_listA/meet2.gif""</stim_listA>",,html-keyboard-response,373,1561893,0.0-19.0-1.7,32823,List2A,white,woman,,,,null,,,,
null,are meeting each other,,html-keyboard-response,374,1563898,0.0-19.0-2.7,32823,List2A,white,woman,,,,null,,,,
9479,,,survey-text,375,1573381,0.0-19.0-3.7,32823,List2A,white,woman,,,,,"{""Q0"":""Ruth and Luke are meeting each other ""}","<img src=""stim_listA/meet2.gif""</stim_listA>",are meeting each other,
null,"<div style=""font-size:60px;"">+</div>",,html-keyboard-response,376,1573885,0.0-19.0-0.8,32823,List2A,white,woman,,,,null,,,,
null,"<img src=""stim_listA/hug8.gif""</stim_listA>",,html-keyboard-response,377,1575890,0.0-19.0-1.8,32823,List2A,white,woman,,,,null,,,,
null,are hugging each other,,html-keyboard-response,378,1577895,0.0-19.0-2.8,32823,List2A,white,woman,,,,null,,,,
9964,,,survey-text,379,1587862,0.0-19.0-3.8,32823,List2A,white,woman,,,,,"{""Q0"":""Kate and Jane are hugging each other ""}","<img src=""stim_listA/hug8.gif""</stim_listA>",are hugging each other,
null,"<div style=""font-size:60px;"">+</div>",,html-keyboard-response,380,1588364,0.0-19.0-0.9,32823,List2A,white,woman,,,,null,,,,
null,"<img src=""stim_listA/marry2.gif""</stim_listA>",,html-keyboard-response,381,1590369,0.0-19.0-1.9,32823,List2A,white,woman,,,,null,,,,
null,are marrying each other,,html-keyboard-response,382,1592375,0.0-19.0-2.9,32823,List2A,white,woman,,,,null,,,,
7234,,,survey-text,383,1599614,0.0-19.0-3.9,32823,List2A,white,woman,,,,,"{""Q0"":""Luke and Jane are marrying each other ""}","<img src=""stim_listA/marry2.gif""</stim_listA>",are marrying each other,
null,"<div style=""font-size:60px;"">+</div>",,html-keyboard-response,384,1600118,0.0-19.0-0.10,32823,List2A,white,woman,,,,null,,,,
null,"<img src=""stim_listA/shout5.gif""</stim_listA>",,html-keyboard-response,385,1602122,0.0-19.0-1.10,32823,List2A,white,woman,,,,null,,,,
null,is shouting at,,html-keyboard-response,386,1604127,0.0-19.0-2.10,32823,List2A,white,woman,,,,null,,,,
5911,,,survey-text,387,1610041,0.0-19.0-3.10,32823,List2A,white,woman,,,,,"{""Q0"":""Luke is shouting at Fred ""}","<img src=""stim_listA/shout5.gif""</stim_listA>",is shouting at,
null,"<div style=""font-size:60px;"">+</div>",,html-keyboard-response,388,1610545,0.0-19.0-0.11,32823,List2A,white,woman,,,,null,,,,
null,"<img src=""stim_listA/touch8.gif""</stim_listA>",,html-keyboard-response,389,1612551,0.0-19.0-1.11,32823,List2A,white,woman,,,,null,,,,
null,are touching each other,,html-keyboard-response,390,1614556,0.0-19.0-2.11,32823,List2A,white,woman,,,,null,,,,
7508,,,survey-text,391,1622068,0.0-19.0-3.11,32823,List2A,white,woman,,,,,"{""Q0"":""Beth and Ruth are touching each other ""}","<img src=""stim_listA/touch8.gif""</stim_listA>",are touching each other,
null,"<div style=""font-size:60px;"">+</div>",,html-keyboard-response,392,1622571,0.0-19.0-0.12,32823,List2A,white,woman,,,,null,,,,
null,"<img src=""stim_listA/kiss1.gif""</stim_listA>",,html-keyboard-response,393,1624577,0.0-19.0-1.12,32823,List2A,white,woman,,,,null,,,,
null,is kissing,,html-keyboard-response,394,1626581,0.0-19.0-2.12,32823,List2A,white,woman,,,,null,,,,
5659,,,survey-text,395,1632245,0.0-19.0-3.12,32823,List2A,white,woman,,,,,"{""Q0"":""Luke is kissing Ruth ""}","<img src=""stim_listA/kiss1.gif""</stim_listA>",is kissing,
null,"<div style=""font-size:60px;"">+</div>",,html-keyboard-response,396,1632749,0.0-19.0-0.13,32823,List2A,white,woman,,,,null,,,,
null,"<img src=""stim_listA/meet1.gif""</stim_listA>",,html-keyboard-response,397,1634754,0.0-19.0-1.13,32823,List2A,white,woman,,,,null,,,,
null,is meeting,,html-keyboard-response,398,1636759,0.0-19.0-2.13,32823,List2A,white,woman,,,,null,,,,
5040,,,survey-text,399,1641802,0.0-19.0-3.13,32823,List2A,white,woman,,,,,"{""Q0"":""Jane is meeting Dave ""}","<img src=""stim_listA/meet1.gif""</stim_listA>",is meeting,
null,"<div style=""font-size:60px;"">+</div>",,html-keyboard-response,400,1642306,0.0-19.0-0.14,32823,List2A,white,woman,,,,null,,,,
null,"<img src=""stim_listA/dance5.gif""</stim_listA>",,html-keyboard-response,401,1644311,0.0-19.0-1.14,32823,List2A,white,woman,,,,null,,,,
null,is dancing with,,html-keyboard-response,402,1646316,0.0-19.0-2.14,32823,List2A,white,woman,,,,null,,,,
6821,,,survey-text,403,1653142,0.0-19.0-3.14,32823,List2A,white,woman,,,,,"{""Q0"":""Mike is dancing with Luke ""}","<img src=""stim_listA/dance5.gif""</stim_listA>",is dancing with,
null,"<div style=""font-size:60px;"">+</div>",,html-keyboard-response,404,1653646,0.0-19.0-0.15,32823,List2A,white,woman,,,,null,,,,
null,"<img src=""stim_listA/touch1.gif""</stim_listA>",,html-keyboard-response,405,1655651,0.0-19.0-1.15,32823,List2A,white,woman,,,,null,,,,
null,is touching,,html-keyboard-response,406,1657656,0.0-19.0-2.15,32823,List2A,white,woman,,,,null,,,,
6331,,,survey-text,407,1663992,0.0-19.0-3.15,32823,List2A,white,woman,,,,,"{""Q0"":""Jane is touching Dave ""}","<img src=""stim_listA/touch1.gif""</stim_listA>",is touching,
null,"<div style=""font-size:60px;"">+</div>",,html-keyboard-response,408,1664495,0.0-19.0-0.16,32823,List2A,white,woman,,,,null,,,,
null,"<img src=""stim_listA/shout8.gif""</stim_listA>",,html-keyboard-response,409,1666501,0.0-19.0-1.16,32823,List2A,white,woman,,,,null,,,,
null,are shouting at each other,,html-keyboard-response,410,1668506,0.0-19.0-2.16,32823,List2A,white,woman,,,,null,,,,
7965,,,survey-text,411,1676475,0.0-19.0-3.16,32823,List2A,white,woman,,,,,"{""Q0"":""Kate and Jane are shouting at each other ""}","<img src=""stim_listA/shout8.gif""</stim_listA>",are shouting at each other,
null,"<div style=""font-size:60px;"">+</div>",,html-keyboard-response,412,1676979,0.0-19.0-0.17,32823,List2A,white,woman,,,,null,,,,
null,"<img src=""stim_listA/talk1.gif""</stim_listA>",,html-keyboard-response,413,1678986,0.0-19.0-1.17,32823,List2A,white,woman,,,,null,,,,
null,is talking to,,html-keyboard-response,414,1680991,0.0-19.0-2.17,32823,List2A,white,woman,,,,null,,,,
5445,,,survey-text,415,1686440,0.0-19.0-3.17,32823,List2A,white,woman,,,,,"{""Q0"":""Luke is talking to Jane ""}","<img src=""stim_listA/talk1.gif""</stim_listA>",is talking to,
null,"<div style=""font-size:60px;"">+</div>",,html-keyboard-response,416,1686944,0.0-19.0-0.18,32823,List2A,white,woman,,,,null,,,,
null,"<img src=""stim_listA/fight3.gif""</stim_listA>",,html-keyboard-response,417,1688951,0.0-19.0-1.18,32823,List2A,white,woman,,,,null,,,,
null,is fighting,,html-keyboard-response,418,1690956,0.0-19.0-2.18,32823,List2A,white,woman,,,,null,,,,
13225,,,survey-text,419,1704185,0.0-19.0-3.18,32823,List2A,white,woman,,,,,"{""Q0"":""Kate is fighting mike""}","<img src=""stim_listA/fight3.gif""</stim_listA>",is fighting,
null,"<div style=""font-size:60px;"">+</div>",,html-keyboard-response,420,1704689,0.0-19.0-0.19,32823,List2A,white,woman,,,,null,,,,
null,"<img src=""stim_listA/talk5.gif""</stim_listA>",,html-keyboard-response,421,1706693,0.0-19.0-1.19,32823,List2A,white,woman,,,,null,,,,
null,is talking to,,html-keyboard-response,422,1708698,0.0-19.0-2.19,32823,List2A,white,woman,,,,null,,,,
5508,,,survey-text,423,1714211,0.0-19.0-3.19,32823,List2A,white,woman,,,,,"{""Q0"":""Luke is talking to mike ""}","<img src=""stim_listA/talk5.gif""</stim_listA>",is talking to,
4555,<p>Thank you for completing that task.</p><p>The final part of this session is a short questionnaire.</p><p>Press Continue.</p>,0,html-button-response,424,1718769,0.0-20.0,32823,List2A,white,woman,,,,,,,,
30524,,,survey-text,425,1750301,0.0-21.0,32823,List2A,white,woman,,,,,"{""Q0"":""28"",""Q1"":""English"",""Q2"":""English"",""Q3"":""England "",""Q4"":""White"",""Q5"":""Female""}",,,demographics
100525,,,survey-likert,426,1850848,0.0-22.0,32823,List2A,white,woman,,,,,"{""Q0"":4,""Q1"":3,""Q2"":2,""Q3"":3,""Q4"":3,""Q5"":3,""Q6"":3,""Q7"":2,""Q8"":4,""Q9"":3,""Q10"":2,""Q11"":2,""Q12"":0,""Q13"":0}",,,likert_race
57997,,,survey-likert,427,1908857,0.0-23.0,32823,List2A,white,woman,,,,,"{""Q0"":3,""Q1"":3,""Q2"":3,""Q3"":5,""Q4"":5,""Q5"":5,""Q6"":5,""Q7"":1,""Q8"":5,""Q9"":5,""Q10"":3,""Q11"":2,""Q12"":2,""Q13"":0}",,,likert_gender
40838,,,survey-text,428,1949699,0.0-24.0,32823,List2A,white,woman,,,,,"{""Q0"":""ccc""}",,,worker_id
23715,,,external-html,429,1973504,0.0-25.0,32823,List2A,white,woman,debrief.html,,,,,,,
