rt,stimulus,button_pressed,trial_type,trial_index,time_elapsed,internal_node_id,subject,list,ppt_race,ppt_gender,url,first_guess,correct,key_press,responses,image_type,phrase_type,test_part
3228,Welcome to the experiment. Press Continue to begin.,0,html-button-response,0,3233,0.0-0.0,33348,List2A,white,woman,,,,,,,,
64653,,,external-html,1,68933,0.0-1.0,33348,List2A,white,woman,consent.html,,,,,,,
16772,"<p>On the next page, you will see portraits of 8 people and their names.</p><p>Your first task is to take a few minutes to memorise the names of these people.</p><p>You will have to recall their names during the rest of the experiment, so it is</p><p>essential that you try to memorise these people and their names as best as you can.</p><br><p><strong>You will then be tested on your memory of these names and portraits.</strong></p><br><p>The experiment will start after you have completed this memory test.</p><br><p>Ready?</p>",0,html-button-response,2,85706,0.0-2.0,33348,List2A,white,woman,,,,,,,,
51982,"<img src='img/portrait_matrix_list2.JPG' style='width:900px;height:500px;''></img><p>If you have memorised all the portraits and names and are ready to start, press Continue.</p><p><strong>Please note: Your memory of these faces will be tested 4 times during this experiment.</strong></p>",0,html-button-response,3,138694,0.0-3.0-0.0,33348,List2A,white,woman,,,,,,,,
3137,"<img src=""portrait/BM2.jpg""style=""width:400px;height:400px;""></img>",5,html-button-response,4,142834,0.0-3.0-1.0,33348,List2A,white,woman,,TRUE,5,,,,,
null,CORRECT,,html-keyboard-response,5,144345,0.0-3.0-2.0-0.0,33348,List2A,white,woman,,,,null,,,,
6397,"<img src=""portrait/BW2.jpg""style=""width:400px;height:400px;""></img>",2,html-button-response,6,150743,0.0-3.0-4.0,33348,List2A,white,woman,,TRUE,2,,,,,
null,CORRECT,,html-keyboard-response,7,152254,0.0-3.0-5.0-0.0,33348,List2A,white,woman,,,,null,,,,
2661,"<img src=""portrait/WM2.jpg""style=""width:400px;height:400px;""></img>",7,html-button-response,8,154916,0.0-3.0-7.0,33348,List2A,white,woman,,TRUE,7,,,,,
null,CORRECT,,html-keyboard-response,9,156425,0.0-3.0-8.0-0.0,33348,List2A,white,woman,,,,null,,,,
3126,"<img src=""portrait/WW1.jpg""style=""width:400px;height:400px;""></img>",1,html-button-response,10,159551,0.0-3.0-10.0,33348,List2A,white,woman,,TRUE,1,,,,,
null,CORRECT,,html-keyboard-response,11,161058,0.0-3.0-11.0-0.0,33348,List2A,white,woman,,,,null,,,,
2058,"<img src=""portrait/WW2.jpg""style=""width:400px;height:400px;""></img>",3,html-button-response,12,163117,0.0-3.0-13.0,33348,List2A,white,woman,,TRUE,3,,,,,
null,CORRECT,,html-keyboard-response,13,164629,0.0-3.0-14.0-0.0,33348,List2A,white,woman,,,,null,,,,
2200,"<img src=""portrait/BW1.jpg""style=""width:400px;height:400px;""></img>",0,html-button-response,14,166830,0.0-3.0-16.0,33348,List2A,white,woman,,TRUE,0,,,,,
null,CORRECT,,html-keyboard-response,15,168337,0.0-3.0-17.0-0.0,33348,List2A,white,woman,,,,null,,,,
8820,"<img src=""portrait/BM1.jpg""style=""width:400px;height:400px;""></img>",4,html-button-response,16,177157,0.0-3.0-19.0,33348,List2A,white,woman,,TRUE,4,,,,,
null,CORRECT,,html-keyboard-response,17,178664,0.0-3.0-20.0-0.0,33348,List2A,white,woman,,,,null,,,,
2082,"<img src=""portrait/WM1.jpg""style=""width:400px;height:400px;""></img>",6,html-button-response,18,180747,0.0-3.0-22.0,33348,List2A,white,woman,,TRUE,6,,,,,
null,CORRECT,,html-keyboard-response,19,182250,0.0-3.0-23.0-0.0,33348,List2A,white,woman,,,,null,,,,
2117,<p>You got 8 out of 8 right first time. Press Continue.</p>,0,html-button-response,20,184369,0.0-3.0-25.0,33348,List2A,white,woman,,,,,,,,
35401,"<p>In this experiment, you will view photographs of the people from the memory game interacting.</p><p>By using the <strong>exact</strong> phrase given <i>after</i> the photograph appears and recalling the correct names of the people in the photographs, form a sentence describing the interaction. You do not need to capitalise names.</p><p>Type your answer in the space provided. Please complete every sentence before moving onto the next trial.</p><p>You will only have a few seconds to memorise each given photograph and phrase before you can respond, so try your best to focus.</p><p>An example is given below. Press 'Continue' when you are ready.</p><img src='img/speaking_example_v2.jpg' style='width:800px;height:460px;''></img>",0,html-button-response,21,220774,0.0-4.0,33348,List2A,white,woman,,,,,,,,
3156,"<p>Before the experiment starts, you will watch two example trials. Press 'Continue'.</p>",0,html-button-response,22,224936,0.0-5.0,33348,List2A,white,woman,,,,,,,,
null,<img src='img/speaking_WW.gif'></img>,,html-keyboard-response,23,227939,0.0-6.0,33348,List2A,white,woman,,,,null,,,,
null,<p>is speaking to</p>,,html-keyboard-response,24,229943,0.0-7.0,33348,List2A,white,woman,,,,null,,,,
3700,<p><b>Answer:</b> jane is speaking to ruth</p>,0,html-button-response,25,233644,0.0-8.0,33348,List2A,white,woman,,,,,,,,
null,<img src='img/pointing_BM.gif'></img>,,html-keyboard-response,26,236655,0.0-9.0,33348,List2A,white,woman,,,,null,,,,
null,<p>are pointing at each other</p>,,html-keyboard-response,27,238655,0.0-10.0,33348,List2A,white,woman,,,,null,,,,
9106,<p><b>Answer:</b> fred and mike are pointing at each other</p>,0,html-button-response,28,247763,0.0-11.0,33348,List2A,white,woman,,,,,,,,
142185,"<p>Ready to start the experiment?</p><br><p><strong>Remember to describe the picture using a full sentence,</strong></p><p><strong>that combines the names of the people with the given phrase.</strong></p><p><strong>If you do not do this correctly you will not be paid.</strong></p><p><strong> You do not need to capitalise names or use punctuation.</strong></p><br><p>Press 'Continue' to begin.</p>",0,html-button-response,29,390953,0.0-12.0,33348,List2A,white,woman,,,,,,,,
null,"<div style=""font-size:60px;"">+</div>",,html-keyboard-response,30,392462,0.0-13.0-0.0,33348,List2A,white,woman,,,,null,,,,
null,"<img src=""stim_listA/shout8.gif""</stim_listA>",,html-keyboard-response,31,394467,0.0-13.0-1.0,33348,List2A,white,woman,,,,null,,,,
null,are shouting at each other,,html-keyboard-response,32,396469,0.0-13.0-2.0,33348,List2A,white,woman,,,,null,,,,
21608,,,survey-text,33,418077,0.0-13.0-3.0,33348,List2A,white,woman,,,,,"{""Q0"":""Jane and Kate are shouting at each other""}","<img src=""stim_listA/shout8.gif""</stim_listA>",are shouting at each other,
null,"<div style=""font-size:60px;"">+</div>",,html-keyboard-response,34,418579,0.0-13.0-0.1,33348,List2A,white,woman,,,,null,,,,
null,"<img src=""stim_listA/hug5.gif""</stim_listA>",,html-keyboard-response,35,420585,0.0-13.0-1.1,33348,List2A,white,woman,,,,null,,,,
null,is hugging,,html-keyboard-response,36,422591,0.0-13.0-2.1,33348,List2A,white,woman,,,,null,,,,
13069,,,survey-text,37,435661,0.0-13.0-3.1,33348,List2A,white,woman,,,,,"{""Q0"":""Luke is hugging Fred""}","<img src=""stim_listA/hug5.gif""</stim_listA>",is hugging,
null,"<div style=""font-size:60px;"">+</div>",,html-keyboard-response,38,436162,0.0-13.0-0.2,33348,List2A,white,woman,,,,null,,,,
null,"<img src=""stim_listA/meet8.gif""</stim_listA>",,html-keyboard-response,39,438165,0.0-13.0-1.2,33348,List2A,white,woman,,,,null,,,,
null,are meeting each other,,html-keyboard-response,40,440171,0.0-13.0-2.2,33348,List2A,white,woman,,,,null,,,,
18270,,,survey-text,41,458442,0.0-13.0-3.2,33348,List2A,white,woman,,,,,"{""Q0"":""Dave and Mike are meeting each other""}","<img src=""stim_listA/meet8.gif""</stim_listA>",are meeting each other,
null,"<div style=""font-size:60px;"">+</div>",,html-keyboard-response,42,458946,0.0-13.0-0.3,33348,List2A,white,woman,,,,null,,,,
null,"<img src=""stim_listA/touch2.gif""</stim_listA>",,html-keyboard-response,43,460948,0.0-13.0-1.3,33348,List2A,white,woman,,,,null,,,,
null,are touching each other,,html-keyboard-response,44,462953,0.0-13.0-2.3,33348,List2A,white,woman,,,,null,,,,
12588,,,survey-text,45,475542,0.0-13.0-3.3,33348,List2A,white,woman,,,,,"{""Q0"":""Luke and Ruth are touching each other""}","<img src=""stim_listA/touch2.gif""</stim_listA>",are touching each other,
null,"<div style=""font-size:60px;"">+</div>",,html-keyboard-response,46,476047,0.0-13.0-0.4,33348,List2A,white,woman,,,,null,,,,
null,"<img src=""stim_listA/hug2.gif""</stim_listA>",,html-keyboard-response,47,478049,0.0-13.0-1.4,33348,List2A,white,woman,,,,null,,,,
null,are hugging each other,,html-keyboard-response,48,480055,0.0-13.0-2.4,33348,List2A,white,woman,,,,null,,,,
12799,,,survey-text,49,492856,0.0-13.0-3.4,33348,List2A,white,woman,,,,,"{""Q0"":""Jane and Dave are hugging each other""}","<img src=""stim_listA/hug2.gif""</stim_listA>",are hugging each other,
null,"<div style=""font-size:60px;"">+</div>",,html-keyboard-response,50,493362,0.0-13.0-0.5,33348,List2A,white,woman,,,,null,,,,
null,"<img src=""stim_listA/argue1.gif""</stim_listA>",,html-keyboard-response,51,495362,0.0-13.0-1.5,33348,List2A,white,woman,,,,null,,,,
null,is arguing with,,html-keyboard-response,52,497368,0.0-13.0-2.5,33348,List2A,white,woman,,,,null,,,,
8177,,,survey-text,53,505546,0.0-13.0-3.5,33348,List2A,white,woman,,,,,"{""Q0"":""Ruth is arguing with Dave""}","<img src=""stim_listA/argue1.gif""</stim_listA>",is arguing with,
null,"<div style=""font-size:60px;"">+</div>",,html-keyboard-response,54,506052,0.0-13.0-0.6,33348,List2A,white,woman,,,,null,,,,
null,"<img src=""stim_listA/kiss5.gif""</stim_listA>",,html-keyboard-response,55,508057,0.0-13.0-1.6,33348,List2A,white,woman,,,,null,,,,
null,is kissing,,html-keyboard-response,56,510062,0.0-13.0-2.6,33348,List2A,white,woman,,,,null,,,,
10321,,,survey-text,57,520384,0.0-13.0-3.6,33348,List2A,white,woman,,,,,"{""Q0"":""Luke is kissing Fred""}","<img src=""stim_listA/kiss5.gif""</stim_listA>",is kissing,
null,"<div style=""font-size:60px;"">+</div>",,html-keyboard-response,58,520888,0.0-13.0-0.7,33348,List2A,white,woman,,,,null,,,,
null,"<img src=""stim_listA/touch7.gif""</stim_listA>",,html-keyboard-response,59,522891,0.0-13.0-1.7,33348,List2A,white,woman,,,,null,,,,
null,is touching,,html-keyboard-response,60,524893,0.0-13.0-2.7,33348,List2A,white,woman,,,,null,,,,
15245,,,survey-text,61,540139,0.0-13.0-3.7,33348,List2A,white,woman,,,,,"{""Q0"":""Jane is touching Kate""}","<img src=""stim_listA/touch7.gif""</stim_listA>",is touching,
null,"<div style=""font-size:60px;"">+</div>",,html-keyboard-response,62,540642,0.0-13.0-0.8,33348,List2A,white,woman,,,,null,,,,
null,"<img src=""stim_listA/touch8.gif""</stim_listA>",,html-keyboard-response,63,542645,0.0-13.0-1.8,33348,List2A,white,woman,,,,null,,,,
null,are touching each other,,html-keyboard-response,64,544648,0.0-13.0-2.8,33348,List2A,white,woman,,,,null,,,,
13683,,,survey-text,65,558331,0.0-13.0-3.8,33348,List2A,white,woman,,,,,"{""Q0"":""Beth and Ruth are touching each other""}","<img src=""stim_listA/touch8.gif""</stim_listA>",are touching each other,
null,"<div style=""font-size:60px;"">+</div>",,html-keyboard-response,66,558834,0.0-13.0-0.9,33348,List2A,white,woman,,,,null,,,,
null,"<img src=""stim_listA/argue6.gif""</stim_listA>",,html-keyboard-response,67,560840,0.0-13.0-1.9,33348,List2A,white,woman,,,,null,,,,
null,are arguing with each other,,html-keyboard-response,68,562845,0.0-13.0-2.9,33348,List2A,white,woman,,,,null,,,,
12361,,,survey-text,69,575206,0.0-13.0-3.9,33348,List2A,white,woman,,,,,"{""Q0"":""Mike and Luke are arguing with each other""}","<img src=""stim_listA/argue6.gif""</stim_listA>",are arguing with each other,
null,"<div style=""font-size:60px;"">+</div>",,html-keyboard-response,70,575708,0.0-13.0-0.10,33348,List2A,white,woman,,,,null,,,,
null,"<img src=""stim_listA/kiss8.gif""</stim_listA>",,html-keyboard-response,71,577712,0.0-13.0-1.10,33348,List2A,white,woman,,,,null,,,,
null,are kissing each other,,html-keyboard-response,72,579718,0.0-13.0-2.10,33348,List2A,white,woman,,,,null,,,,
9145,,,survey-text,73,588863,0.0-13.0-3.10,33348,List2A,white,woman,,,,,"{""Q0"":""Jane adn Kate are kissing each other""}","<img src=""stim_listA/kiss8.gif""</stim_listA>",are kissing each other,
null,"<div style=""font-size:60px;"">+</div>",,html-keyboard-response,74,589366,0.0-13.0-0.11,33348,List2A,white,woman,,,,null,,,,
null,"<img src=""stim_listA/shout7.gif""</stim_listA>",,html-keyboard-response,75,591372,0.0-13.0-1.11,33348,List2A,white,woman,,,,null,,,,
null,is shouting at,,html-keyboard-response,76,593374,0.0-13.0-2.11,33348,List2A,white,woman,,,,null,,,,
10587,,,survey-text,77,603961,0.0-13.0-3.11,33348,List2A,white,woman,,,,,"{""Q0"":""Ruth is shouting at beth""}","<img src=""stim_listA/shout7.gif""</stim_listA>",is shouting at,
null,"<div style=""font-size:60px;"">+</div>",,html-keyboard-response,78,604465,0.0-13.0-0.12,33348,List2A,white,woman,,,,null,,,,
null,"<img src=""stim_listA/fight7.gif""</stim_listA>",,html-keyboard-response,79,606467,0.0-13.0-1.12,33348,List2A,white,woman,,,,null,,,,
null,is fighting,,html-keyboard-response,80,608470,0.0-13.0-2.12,33348,List2A,white,woman,,,,null,,,,
7281,,,survey-text,81,615751,0.0-13.0-3.12,33348,List2A,white,woman,,,,,"{""Q0"":""Jane is fighting kate""}","<img src=""stim_listA/fight7.gif""</stim_listA>",is fighting,
null,"<div style=""font-size:60px;"">+</div>",,html-keyboard-response,82,616255,0.0-13.0-0.13,33348,List2A,white,woman,,,,null,,,,
null,"<img src=""stim_listA/kiss7.gif""</stim_listA>",,html-keyboard-response,83,618261,0.0-13.0-1.13,33348,List2A,white,woman,,,,null,,,,
null,is kissing,,html-keyboard-response,84,620266,0.0-13.0-2.13,33348,List2A,white,woman,,,,null,,,,
9221,,,survey-text,85,629488,0.0-13.0-3.13,33348,List2A,white,woman,,,,,"{""Q0"":""Beth is kissing kate""}","<img src=""stim_listA/kiss7.gif""</stim_listA>",is kissing,
null,"<div style=""font-size:60px;"">+</div>",,html-keyboard-response,86,629994,0.0-13.0-0.14,33348,List2A,white,woman,,,,null,,,,
null,"<img src=""stim_listA/shout3.gif""</stim_listA>",,html-keyboard-response,87,632000,0.0-13.0-1.14,33348,List2A,white,woman,,,,null,,,,
null,is shouting at,,html-keyboard-response,88,634005,0.0-13.0-2.14,33348,List2A,white,woman,,,,null,,,,
9162,,,survey-text,89,643167,0.0-13.0-3.14,33348,List2A,white,woman,,,,,"{""Q0"":""Beth is shouting at fred""}","<img src=""stim_listA/shout3.gif""</stim_listA>",is shouting at,
null,"<div style=""font-size:60px;"">+</div>",,html-keyboard-response,90,643670,0.0-13.0-0.15,33348,List2A,white,woman,,,,null,,,,
null,"<img src=""stim_listA/kiss4.gif""</stim_listA>",,html-keyboard-response,91,645676,0.0-13.0-1.15,33348,List2A,white,woman,,,,null,,,,
null,are kissing each other,,html-keyboard-response,92,647677,0.0-13.0-2.15,33348,List2A,white,woman,,,,null,,,,
9034,,,survey-text,93,656712,0.0-13.0-3.15,33348,List2A,white,woman,,,,,"{""Q0"":""Mike and kate are kissing each other""}","<img src=""stim_listA/kiss4.gif""</stim_listA>",are kissing each other,
null,"<div style=""font-size:60px;"">+</div>",,html-keyboard-response,94,657213,0.0-13.0-0.16,33348,List2A,white,woman,,,,null,,,,
null,"<img src=""stim_listA/talk4.gif""</stim_listA>",,html-keyboard-response,95,659214,0.0-13.0-1.16,33348,List2A,white,woman,,,,null,,,,
null,are talking to each other,,html-keyboard-response,96,661215,0.0-13.0-2.16,33348,List2A,white,woman,,,,null,,,,
15206,,,survey-text,97,676422,0.0-13.0-3.16,33348,List2A,white,woman,,,,,"{""Q0"":""Fred and Ruth are talking to each other""}","<img src=""stim_listA/talk4.gif""</stim_listA>",are talking to each other,
null,"<div style=""font-size:60px;"">+</div>",,html-keyboard-response,98,676926,0.0-13.0-0.17,33348,List2A,white,woman,,,,null,,,,
null,"<img src=""stim_listA/shout4.gif""</stim_listA>",,html-keyboard-response,99,678932,0.0-13.0-1.17,33348,List2A,white,woman,,,,null,,,,
null,are shouting at each other,,html-keyboard-response,100,680938,0.0-13.0-2.17,33348,List2A,white,woman,,,,null,,,,
8838,,,survey-text,101,689776,0.0-13.0-3.17,33348,List2A,white,woman,,,,,"{""Q0"":""Mike and kate are shouting at each other""}","<img src=""stim_listA/shout4.gif""</stim_listA>",are shouting at each other,
null,"<div style=""font-size:60px;"">+</div>",,html-keyboard-response,102,690278,0.0-13.0-0.18,33348,List2A,white,woman,,,,null,,,,
null,"<img src=""stim_listA/talk3.gif""</stim_listA>",,html-keyboard-response,103,692280,0.0-13.0-1.18,33348,List2A,white,woman,,,,null,,,,
null,is talking to,,html-keyboard-response,104,694282,0.0-13.0-2.18,33348,List2A,white,woman,,,,null,,,,
6463,,,survey-text,105,700745,0.0-13.0-3.18,33348,List2A,white,woman,,,,,"{""Q0"":""fred is talking to kate""}","<img src=""stim_listA/talk3.gif""</stim_listA>",is talking to,
null,"<div style=""font-size:60px;"">+</div>",,html-keyboard-response,106,701249,0.0-13.0-0.19,33348,List2A,white,woman,,,,null,,,,
null,"<img src=""stim_listA/hug4.gif""</stim_listA>",,html-keyboard-response,107,703251,0.0-13.0-1.19,33348,List2A,white,woman,,,,null,,,,
null,are hugging each other,,html-keyboard-response,108,705251,0.0-13.0-2.19,33348,List2A,white,woman,,,,null,,,,
12480,,,survey-text,109,717732,0.0-13.0-3.19,33348,List2A,white,woman,,,,,"{""Q0"":""Kate and mike are hugging each other""}","<img src=""stim_listA/hug4.gif""</stim_listA>",are hugging each other,
11497,"<img src='img/portrait_matrix_list2.JPG' style='width:900px;height:500px;''></img><p>If you have memorised all the portraits and names and are ready to start, press Continue.</p><p><strong>Please note: Your memory of these faces will be tested 4 times during this experiment.</strong></p>",0,html-button-response,110,729230,0.0-14.0-0.0,33348,List2A,white,woman,,,,,,,,
5495,"<img src=""portrait/WM1.jpg""style=""width:400px;height:400px;""></img>",6,html-button-response,111,735733,0.0-14.0-1.0,33348,List2A,white,woman,,TRUE,6,,,,,
null,CORRECT,,html-keyboard-response,112,737243,0.0-14.0-2.0-0.0,33348,List2A,white,woman,,,,null,,,,
2145,"<img src=""portrait/WM2.jpg""style=""width:400px;height:400px;""></img>",7,html-button-response,113,739389,0.0-14.0-4.0,33348,List2A,white,woman,,TRUE,7,,,,,
null,CORRECT,,html-keyboard-response,114,740895,0.0-14.0-5.0-0.0,33348,List2A,white,woman,,,,null,,,,
2037,"<img src=""portrait/WW1.jpg""style=""width:400px;height:400px;""></img>",1,html-button-response,115,742933,0.0-14.0-7.0,33348,List2A,white,woman,,TRUE,1,,,,,
null,CORRECT,,html-keyboard-response,116,744441,0.0-14.0-8.0-0.0,33348,List2A,white,woman,,,,null,,,,
3328,"<img src=""portrait/BM2.jpg""style=""width:400px;height:400px;""></img>",5,html-button-response,117,747770,0.0-14.0-10.0,33348,List2A,white,woman,,TRUE,5,,,,,
null,CORRECT,,html-keyboard-response,118,749276,0.0-14.0-11.0-0.0,33348,List2A,white,woman,,,,null,,,,
1666,"<img src=""portrait/WW2.jpg""style=""width:400px;height:400px;""></img>",3,html-button-response,119,750943,0.0-14.0-13.0,33348,List2A,white,woman,,TRUE,3,,,,,
null,CORRECT,,html-keyboard-response,120,752452,0.0-14.0-14.0-0.0,33348,List2A,white,woman,,,,null,,,,
5837,"<img src=""portrait/BM1.jpg""style=""width:400px;height:400px;""></img>",4,html-button-response,121,758289,0.0-14.0-16.0,33348,List2A,white,woman,,TRUE,4,,,,,
null,CORRECT,,html-keyboard-response,122,759792,0.0-14.0-17.0-0.0,33348,List2A,white,woman,,,,null,,,,
3379,"<img src=""portrait/BW2.jpg""style=""width:400px;height:400px;""></img>",2,html-button-response,123,763171,0.0-14.0-19.0,33348,List2A,white,woman,,TRUE,2,,,,,
null,CORRECT,,html-keyboard-response,124,764682,0.0-14.0-20.0-0.0,33348,List2A,white,woman,,,,null,,,,
2224,"<img src=""portrait/BW1.jpg""style=""width:400px;height:400px;""></img>",0,html-button-response,125,766906,0.0-14.0-22.0,33348,List2A,white,woman,,TRUE,0,,,,,
null,CORRECT,,html-keyboard-response,126,768415,0.0-14.0-23.0-0.0,33348,List2A,white,woman,,,,null,,,,
1900,<p>You got 8 out of 8 right first time. Press Continue.</p>,0,html-button-response,127,770315,0.0-14.0-25.0,33348,List2A,white,woman,,,,,,,,
null,"<div style=""font-size:60px;"">+</div>",,html-keyboard-response,128,771822,0.0-15.0-0.0,33348,List2A,white,woman,,,,null,,,,
null,"<img src=""stim_listA/meet5.gif""</stim_listA>",,html-keyboard-response,129,773828,0.0-15.0-1.0,33348,List2A,white,woman,,,,null,,,,
null,is meeting,,html-keyboard-response,130,775833,0.0-15.0-2.0,33348,List2A,white,woman,,,,null,,,,
10254,,,survey-text,131,786088,0.0-15.0-3.0,33348,List2A,white,woman,,,,,"{""Q0"":""Dave is meeting mike""}","<img src=""stim_listA/meet5.gif""</stim_listA>",is meeting,
null,"<div style=""font-size:60px;"">+</div>",,html-keyboard-response,132,786593,0.0-15.0-0.1,33348,List2A,white,woman,,,,null,,,,
null,"<img src=""stim_listA/dance8.gif""</stim_listA>",,html-keyboard-response,133,788597,0.0-15.0-1.1,33348,List2A,white,woman,,,,null,,,,
null,are dancing with each other,,html-keyboard-response,134,790603,0.0-15.0-2.1,33348,List2A,white,woman,,,,null,,,,
9727,,,survey-text,135,800330,0.0-15.0-3.1,33348,List2A,white,woman,,,,,"{""Q0"":""beth and jane are dancing with each other""}","<img src=""stim_listA/dance8.gif""</stim_listA>",are dancing with each other,
null,"<div style=""font-size:60px;"">+</div>",,html-keyboard-response,136,800832,0.0-15.0-0.2,33348,List2A,white,woman,,,,null,,,,
null,"<img src=""stim_listA/dance1.gif""</stim_listA>",,html-keyboard-response,137,802838,0.0-15.0-1.2,33348,List2A,white,woman,,,,null,,,,
null,is dancing with,,html-keyboard-response,138,804840,0.0-15.0-2.2,33348,List2A,white,woman,,,,null,,,,
6391,,,survey-text,139,811231,0.0-15.0-3.2,33348,List2A,white,woman,,,,,"{""Q0"":""luke is dancing with jane""}","<img src=""stim_listA/dance1.gif""</stim_listA>",is dancing with,
null,"<div style=""font-size:60px;"">+</div>",,html-keyboard-response,140,811733,0.0-15.0-0.3,33348,List2A,white,woman,,,,null,,,,
null,"<img src=""stim_listA/argue2.gif""</stim_listA>",,html-keyboard-response,141,813739,0.0-15.0-1.3,33348,List2A,white,woman,,,,null,,,,
null,are arguing with each other,,html-keyboard-response,142,815740,0.0-15.0-2.3,33348,List2A,white,woman,,,,null,,,,
8956,,,survey-text,143,824698,0.0-15.0-3.3,33348,List2A,white,woman,,,,,"{""Q0"":""luke and jane are arguing with each other""}","<img src=""stim_listA/argue2.gif""</stim_listA>",are arguing with each other,
null,"<div style=""font-size:60px;"">+</div>",,html-keyboard-response,144,825204,0.0-15.0-0.4,33348,List2A,white,woman,,,,null,,,,
null,"<img src=""stim_listA/marry8.gif""</stim_listA>",,html-keyboard-response,145,827205,0.0-15.0-1.4,33348,List2A,white,woman,,,,null,,,,
null,are marrying each other,,html-keyboard-response,146,829208,0.0-15.0-2.4,33348,List2A,white,woman,,,,null,,,,
10846,,,survey-text,147,840054,0.0-15.0-3.4,33348,List2A,white,woman,,,,,"{""Q0"":""ruth and Kate are marrying each other""}","<img src=""stim_listA/marry8.gif""</stim_listA>",are marrying each other,
null,"<div style=""font-size:60px;"">+</div>",,html-keyboard-response,148,840560,0.0-15.0-0.5,33348,List2A,white,woman,,,,null,,,,
null,"<img src=""stim_listA/fight8.gif""</stim_listA>",,html-keyboard-response,149,842564,0.0-15.0-1.5,33348,List2A,white,woman,,,,null,,,,
null,are fighting each other,,html-keyboard-response,150,844567,0.0-15.0-2.5,33348,List2A,white,woman,,,,null,,,,
11641,,,survey-text,151,856209,0.0-15.0-3.5,33348,List2A,white,woman,,,,,"{""Q0"":""beth and ruth are fighting each other""}","<img src=""stim_listA/fight8.gif""</stim_listA>",are fighting each other,
null,"<div style=""font-size:60px;"">+</div>",,html-keyboard-response,152,856710,0.0-15.0-0.6,33348,List2A,white,woman,,,,null,,,,
null,"<img src=""stim_listA/shout1.gif""</stim_listA>",,html-keyboard-response,153,858713,0.0-15.0-1.6,33348,List2A,white,woman,,,,null,,,,
null,is shouting at,,html-keyboard-response,154,860714,0.0-15.0-2.6,33348,List2A,white,woman,,,,null,,,,
6114,,,survey-text,155,866829,0.0-15.0-3.6,33348,List2A,white,woman,,,,,"{""Q0"":""ruth is shouting at luke""}","<img src=""stim_listA/shout1.gif""</stim_listA>",is shouting at,
null,"<div style=""font-size:60px;"">+</div>",,html-keyboard-response,156,867335,0.0-15.0-0.7,33348,List2A,white,woman,,,,null,,,,
null,"<img src=""stim_listA/kiss1.gif""</stim_listA>",,html-keyboard-response,157,869341,0.0-15.0-1.7,33348,List2A,white,woman,,,,null,,,,
null,is kissing,,html-keyboard-response,158,871345,0.0-15.0-2.7,33348,List2A,white,woman,,,,null,,,,
6036,,,survey-text,159,877381,0.0-15.0-3.7,33348,List2A,white,woman,,,,,"{""Q0"":""luke is kissing ruth""}","<img src=""stim_listA/kiss1.gif""</stim_listA>",is kissing,
null,"<div style=""font-size:60px;"">+</div>",,html-keyboard-response,160,877882,0.0-15.0-0.8,33348,List2A,white,woman,,,,null,,,,
null,"<img src=""stim_listA/dance3.gif""</stim_listA>",,html-keyboard-response,161,879883,0.0-15.0-1.8,33348,List2A,white,woman,,,,null,,,,
null,is dancing with,,html-keyboard-response,162,881885,0.0-15.0-2.8,33348,List2A,white,woman,,,,null,,,,
6654,,,survey-text,163,888542,0.0-15.0-3.8,33348,List2A,white,woman,,,,,"{""Q0"":""kate is dancing with fred""}","<img src=""stim_listA/dance3.gif""</stim_listA>",is dancing with,
null,"<div style=""font-size:60px;"">+</div>",,html-keyboard-response,164,889043,0.0-15.0-0.9,33348,List2A,white,woman,,,,null,,,,
null,"<img src=""stim_listA/marry3.gif""</stim_listA>",,html-keyboard-response,165,891046,0.0-15.0-1.9,33348,List2A,white,woman,,,,null,,,,
null,is marrying,,html-keyboard-response,166,893050,0.0-15.0-2.9,33348,List2A,white,woman,,,,null,,,,
7461,,,survey-text,167,900512,0.0-15.0-3.9,33348,List2A,white,woman,,,,,"{""Q0"":""jane is marrying mike""}","<img src=""stim_listA/marry3.gif""</stim_listA>",is marrying,
null,"<div style=""font-size:60px;"">+</div>",,html-keyboard-response,168,901013,0.0-15.0-0.10,33348,List2A,white,woman,,,,null,,,,
null,"<img src=""stim_listA/dance4.gif""</stim_listA>",,html-keyboard-response,169,903018,0.0-15.0-1.10,33348,List2A,white,woman,,,,null,,,,
null,are dancing with each other,,html-keyboard-response,170,905020,0.0-15.0-2.10,33348,List2A,white,woman,,,,null,,,,
9227,,,survey-text,171,914248,0.0-15.0-3.10,33348,List2A,white,woman,,,,,"{""Q0"":""beth and mike are dancing with each other""}","<img src=""stim_listA/dance4.gif""</stim_listA>",are dancing with each other,
null,"<div style=""font-size:60px;"">+</div>",,html-keyboard-response,172,914754,0.0-15.0-0.11,33348,List2A,white,woman,,,,null,,,,
null,"<img src=""stim_listA/fight1.gif""</stim_listA>",,html-keyboard-response,173,916755,0.0-15.0-1.11,33348,List2A,white,woman,,,,null,,,,
null,is fighting,,html-keyboard-response,174,918760,0.0-15.0-2.11,33348,List2A,white,woman,,,,null,,,,
6253,,,survey-text,175,925014,0.0-15.0-3.11,33348,List2A,white,woman,,,,,"{""Q0"":""fred is fighting jane""}","<img src=""stim_listA/fight1.gif""</stim_listA>",is fighting,
null,"<div style=""font-size:60px;"">+</div>",,html-keyboard-response,176,925518,0.0-15.0-0.12,33348,List2A,white,woman,,,,null,,,,
null,"<img src=""stim_listA/fight4.gif""</stim_listA>",,html-keyboard-response,177,927523,0.0-15.0-1.12,33348,List2A,white,woman,,,,null,,,,
null,are fighting each other,,html-keyboard-response,178,929524,0.0-15.0-2.12,33348,List2A,white,woman,,,,null,,,,
7571,,,survey-text,179,937097,0.0-15.0-3.12,33348,List2A,white,woman,,,,,"{""Q0"":""beth and mike are fighting each other""}","<img src=""stim_listA/fight4.gif""</stim_listA>",are fighting each other,
null,"<div style=""font-size:60px;"">+</div>",,html-keyboard-response,180,937600,0.0-15.0-0.13,33348,List2A,white,woman,,,,null,,,,
null,"<img src=""stim_listA/marry1.gif""</stim_listA>",,html-keyboard-response,181,939606,0.0-15.0-1.13,33348,List2A,white,woman,,,,null,,,,
null,is marrying,,html-keyboard-response,182,941612,0.0-15.0-2.13,33348,List2A,white,woman,,,,null,,,,
5778,,,survey-text,183,947391,0.0-15.0-3.13,33348,List2A,white,woman,,,,,"{""Q0"":""fred is marrying ruth""}","<img src=""stim_listA/marry1.gif""</stim_listA>",is marrying,
null,"<div style=""font-size:60px;"">+</div>",,html-keyboard-response,184,947892,0.0-15.0-0.14,33348,List2A,white,woman,,,,null,,,,
null,"<img src=""stim_listA/fight3.gif""</stim_listA>",,html-keyboard-response,185,949894,0.0-15.0-1.14,33348,List2A,white,woman,,,,null,,,,
null,is fighting,,html-keyboard-response,186,951895,0.0-15.0-2.14,33348,List2A,white,woman,,,,null,,,,
5822,,,survey-text,187,957718,0.0-15.0-3.14,33348,List2A,white,woman,,,,,"{""Q0"":""mike is fighting kate""}","<img src=""stim_listA/fight3.gif""</stim_listA>",is fighting,
null,"<div style=""font-size:60px;"">+</div>",,html-keyboard-response,188,958223,0.0-15.0-0.15,33348,List2A,white,woman,,,,null,,,,
null,"<img src=""stim_listA/meet1.gif""</stim_listA>",,html-keyboard-response,189,960227,0.0-15.0-1.15,33348,List2A,white,woman,,,,null,,,,
null,is meeting,,html-keyboard-response,190,962228,0.0-15.0-2.15,33348,List2A,white,woman,,,,null,,,,
7358,,,survey-text,191,969587,0.0-15.0-3.15,33348,List2A,white,woman,,,,,"{""Q0"":""jane is meeting Dave""}","<img src=""stim_listA/meet1.gif""</stim_listA>",is meeting,
null,"<div style=""font-size:60px;"">+</div>",,html-keyboard-response,192,970090,0.0-15.0-0.16,33348,List2A,white,woman,,,,null,,,,
null,"<img src=""stim_listA/meet6.gif""</stim_listA>",,html-keyboard-response,193,972092,0.0-15.0-1.16,33348,List2A,white,woman,,,,null,,,,
null,are meeting each other,,html-keyboard-response,194,974094,0.0-15.0-2.16,33348,List2A,white,woman,,,,null,,,,
7935,,,survey-text,195,982029,0.0-15.0-3.16,33348,List2A,white,woman,,,,,"{""Q0"":""fred and luke are meeting each other""}","<img src=""stim_listA/meet6.gif""</stim_listA>",are meeting each other,
null,"<div style=""font-size:60px;"">+</div>",,html-keyboard-response,196,982535,0.0-15.0-0.17,33348,List2A,white,woman,,,,null,,,,
null,"<img src=""stim_listA/kiss6.gif""</stim_listA>",,html-keyboard-response,197,984537,0.0-15.0-1.17,33348,List2A,white,woman,,,,null,,,,
null,are kissing each other,,html-keyboard-response,198,986539,0.0-15.0-2.17,33348,List2A,white,woman,,,,null,,,,
8854,,,survey-text,199,995394,0.0-15.0-3.17,33348,List2A,white,woman,,,,,"{""Q0"":""mike and dave are kissing each other""}","<img src=""stim_listA/kiss6.gif""</stim_listA>",are kissing each other,
null,"<div style=""font-size:60px;"">+</div>",,html-keyboard-response,200,995897,0.0-15.0-0.18,33348,List2A,white,woman,,,,null,,,,
null,"<img src=""stim_listA/meet7.gif""</stim_listA>",,html-keyboard-response,201,997900,0.0-15.0-1.18,33348,List2A,white,woman,,,,null,,,,
null,is meeting,,html-keyboard-response,202,999904,0.0-15.0-2.18,33348,List2A,white,woman,,,,null,,,,
5288,,,survey-text,203,1005193,0.0-15.0-3.18,33348,List2A,white,woman,,,,,"{""Q0"":""jane is meeting kate""}","<img src=""stim_listA/meet7.gif""</stim_listA>",is meeting,
null,"<div style=""font-size:60px;"">+</div>",,html-keyboard-response,204,1005694,0.0-15.0-0.19,33348,List2A,white,woman,,,,null,,,,
null,"<img src=""stim_listA/dance7.gif""</stim_listA>",,html-keyboard-response,205,1007698,0.0-15.0-1.19,33348,List2A,white,woman,,,,null,,,,
null,is dancing with,,html-keyboard-response,206,1009700,0.0-15.0-2.19,33348,List2A,white,woman,,,,null,,,,
10737,,,survey-text,207,1020437,0.0-15.0-3.19,33348,List2A,white,woman,,,,,"{""Q0"":""ruth is dancing with kate""}","<img src=""stim_listA/dance7.gif""</stim_listA>",is dancing with,
19675,"<img src='img/portrait_matrix_list2.JPG' style='width:900px;height:500px;''></img><p>If you have memorised all the portraits and names and are ready to start, press Continue.</p><p><strong>Please note: Your memory of these faces will be tested 4 times during this experiment.</strong></p>",0,html-button-response,208,1040113,0.0-16.0-0.0,33348,List2A,white,woman,,,,,,,,
4169,"<img src=""portrait/BW1.jpg""style=""width:400px;height:400px;""></img>",0,html-button-response,209,1045288,0.0-16.0-1.0,33348,List2A,white,woman,,TRUE,0,,,,,
null,CORRECT,,html-keyboard-response,210,1046795,0.0-16.0-2.0-0.0,33348,List2A,white,woman,,,,null,,,,
2598,"<img src=""portrait/BM1.jpg""style=""width:400px;height:400px;""></img>",4,html-button-response,211,1049395,0.0-16.0-4.0,33348,List2A,white,woman,,TRUE,4,,,,,
null,CORRECT,,html-keyboard-response,212,1050903,0.0-16.0-5.0-0.0,33348,List2A,white,woman,,,,null,,,,
1921,"<img src=""portrait/WM2.jpg""style=""width:400px;height:400px;""></img>",7,html-button-response,213,1052826,0.0-16.0-7.0,33348,List2A,white,woman,,TRUE,7,,,,,
null,CORRECT,,html-keyboard-response,214,1054332,0.0-16.0-8.0-0.0,33348,List2A,white,woman,,,,null,,,,
1980,"<img src=""portrait/WW1.jpg""style=""width:400px;height:400px;""></img>",1,html-button-response,215,1056313,0.0-16.0-10.0,33348,List2A,white,woman,,TRUE,1,,,,,
null,CORRECT,,html-keyboard-response,216,1057820,0.0-16.0-11.0-0.0,33348,List2A,white,woman,,,,null,,,,
1698,"<img src=""portrait/WW2.jpg""style=""width:400px;height:400px;""></img>",3,html-button-response,217,1059520,0.0-16.0-13.0,33348,List2A,white,woman,,TRUE,3,,,,,
null,CORRECT,,html-keyboard-response,218,1061027,0.0-16.0-14.0-0.0,33348,List2A,white,woman,,,,null,,,,
1878,"<img src=""portrait/WM1.jpg""style=""width:400px;height:400px;""></img>",6,html-button-response,219,1062906,0.0-16.0-16.0,33348,List2A,white,woman,,TRUE,6,,,,,
null,CORRECT,,html-keyboard-response,220,1064416,0.0-16.0-17.0-0.0,33348,List2A,white,woman,,,,null,,,,
3416,"<img src=""portrait/BW2.jpg""style=""width:400px;height:400px;""></img>",2,html-button-response,221,1067834,0.0-16.0-19.0,33348,List2A,white,woman,,TRUE,2,,,,,
null,CORRECT,,html-keyboard-response,222,1069339,0.0-16.0-20.0-0.0,33348,List2A,white,woman,,,,null,,,,
1542,"<img src=""portrait/BM2.jpg""style=""width:400px;height:400px;""></img>",5,html-button-response,223,1070882,0.0-16.0-22.0,33348,List2A,white,woman,,TRUE,5,,,,,
null,CORRECT,,html-keyboard-response,224,1072391,0.0-16.0-23.0-0.0,33348,List2A,white,woman,,,,null,,,,
8053,<p>You got 8 out of 8 right first time. Press Continue.</p>,0,html-button-response,225,1080445,0.0-16.0-25.0,33348,List2A,white,woman,,,,,,,,
null,"<div style=""font-size:60px;"">+</div>",,html-keyboard-response,226,1081954,0.0-17.0-0.0,33348,List2A,white,woman,,,,null,,,,
null,"<img src=""stim_listA/marry4.gif""</stim_listA>",,html-keyboard-response,227,1083955,0.0-17.0-1.0,33348,List2A,white,woman,,,,null,,,,
null,are marrying each other,,html-keyboard-response,228,1085958,0.0-17.0-2.0,33348,List2A,white,woman,,,,null,,,,
12272,,,survey-text,229,1098231,0.0-17.0-3.0,33348,List2A,white,woman,,,,,"{""Q0"":""mike and kate are marrying each other""}","<img src=""stim_listA/marry4.gif""</stim_listA>",are marrying each other,
null,"<div style=""font-size:60px;"">+</div>",,html-keyboard-response,230,1098737,0.0-17.0-0.1,33348,List2A,white,woman,,,,null,,,,
null,"<img src=""stim_listA/shout6.gif""</stim_listA>",,html-keyboard-response,231,1100737,0.0-17.0-1.1,33348,List2A,white,woman,,,,null,,,,
null,are shouting at each other,,html-keyboard-response,232,1102739,0.0-17.0-2.1,33348,List2A,white,woman,,,,null,,,,
8282,,,survey-text,233,1111022,0.0-17.0-3.1,33348,List2A,white,woman,,,,,"{""Q0"":""mike and dave are shouting at each other""}","<img src=""stim_listA/shout6.gif""</stim_listA>",are shouting at each other,
null,"<div style=""font-size:60px;"">+</div>",,html-keyboard-response,234,1111528,0.0-17.0-0.2,33348,List2A,white,woman,,,,null,,,,
null,"<img src=""stim_listA/talk2.gif""</stim_listA>",,html-keyboard-response,235,1113530,0.0-17.0-1.2,33348,List2A,white,woman,,,,null,,,,
null,are talking to each other,,html-keyboard-response,236,1115535,0.0-17.0-2.2,33348,List2A,white,woman,,,,null,,,,
10202,,,survey-text,237,1125737,0.0-17.0-3.2,33348,List2A,white,woman,,,,,"{""Q0"":""ruth and dave are talking to each other""}","<img src=""stim_listA/talk2.gif""</stim_listA>",are talking to each other,
null,"<div style=""font-size:60px;"">+</div>",,html-keyboard-response,238,1126243,0.0-17.0-0.3,33348,List2A,white,woman,,,,null,,,,
null,"<img src=""stim_listA/marry6.gif""</stim_listA>",,html-keyboard-response,239,1128245,0.0-17.0-1.3,33348,List2A,white,woman,,,,null,,,,
null,are marrying each other,,html-keyboard-response,240,1130247,0.0-17.0-2.3,33348,List2A,white,woman,,,,null,,,,
9158,,,survey-text,241,1139406,0.0-17.0-3.3,33348,List2A,white,woman,,,,,"{""Q0"":""mike and luke are marrying each toher""}","<img src=""stim_listA/marry6.gif""</stim_listA>",are marrying each other,
null,"<div style=""font-size:60px;"">+</div>",,html-keyboard-response,242,1139912,0.0-17.0-0.4,33348,List2A,white,woman,,,,null,,,,
null,"<img src=""stim_listA/hug8.gif""</stim_listA>",,html-keyboard-response,243,1141918,0.0-17.0-1.4,33348,List2A,white,woman,,,,null,,,,
null,are hugging each other,,html-keyboard-response,244,1143919,0.0-17.0-2.4,33348,List2A,white,woman,,,,null,,,,
17829,,,survey-text,245,1161749,0.0-17.0-3.4,33348,List2A,white,woman,,,,,"{""Q0"":""jane and kate are hugging each other""}","<img src=""stim_listA/hug8.gif""</stim_listA>",are hugging each other,
null,"<div style=""font-size:60px;"">+</div>",,html-keyboard-response,246,1162253,0.0-17.0-0.5,33348,List2A,white,woman,,,,null,,,,
null,"<img src=""stim_listA/meet3.gif""</stim_listA>",,html-keyboard-response,247,1164258,0.0-17.0-1.5,33348,List2A,white,woman,,,,null,,,,
null,is meeting,,html-keyboard-response,248,1166264,0.0-17.0-2.5,33348,List2A,white,woman,,,,null,,,,
8039,,,survey-text,249,1174304,0.0-17.0-3.5,33348,List2A,white,woman,,,,,"{""Q0"":""mike is meeting kate""}","<img src=""stim_listA/meet3.gif""</stim_listA>",is meeting,
null,"<div style=""font-size:60px;"">+</div>",,html-keyboard-response,250,1174806,0.0-17.0-0.6,33348,List2A,white,woman,,,,null,,,,
null,"<img src=""stim_listA/touch4.gif""</stim_listA>",,html-keyboard-response,251,1176808,0.0-17.0-1.6,33348,List2A,white,woman,,,,null,,,,
null,are touching each other,,html-keyboard-response,252,1178809,0.0-17.0-2.6,33348,List2A,white,woman,,,,null,,,,
8431,,,survey-text,253,1187241,0.0-17.0-3.6,33348,List2A,white,woman,,,,,"{""Q0"":""beth and fred are touching each other""}","<img src=""stim_listA/touch4.gif""</stim_listA>",are touching each other,
null,"<div style=""font-size:60px;"">+</div>",,html-keyboard-response,254,1187747,0.0-17.0-0.7,33348,List2A,white,woman,,,,null,,,,
null,"<img src=""stim_listA/hug7.gif""</stim_listA>",,html-keyboard-response,255,1189748,0.0-17.0-1.7,33348,List2A,white,woman,,,,null,,,,
null,is hugging,,html-keyboard-response,256,1191750,0.0-17.0-2.7,33348,List2A,white,woman,,,,null,,,,
6458,,,survey-text,257,1198210,0.0-17.0-3.7,33348,List2A,white,woman,,,,,"{""Q0"":""ruth is hugging beth""}","<img src=""stim_listA/hug7.gif""</stim_listA>",is hugging,
null,"<div style=""font-size:60px;"">+</div>",,html-keyboard-response,258,1198716,0.0-17.0-0.8,33348,List2A,white,woman,,,,null,,,,
null,"<img src=""stim_listA/talk1.gif""</stim_listA>",,html-keyboard-response,259,1200718,0.0-17.0-1.8,33348,List2A,white,woman,,,,null,,,,
null,is talking to,,html-keyboard-response,260,1202720,0.0-17.0-2.8,33348,List2A,white,woman,,,,null,,,,
8955,,,survey-text,261,1211676,0.0-17.0-3.8,33348,List2A,white,woman,,,,,"{""Q0"":""luke is talking to jane""}","<img src=""stim_listA/talk1.gif""</stim_listA>",is talking to,
null,"<div style=""font-size:60px;"">+</div>",,html-keyboard-response,262,1212181,0.0-17.0-0.9,33348,List2A,white,woman,,,,null,,,,
null,"<img src=""stim_listA/touch6.gif""</stim_listA>",,html-keyboard-response,263,1214187,0.0-17.0-1.9,33348,List2A,white,woman,,,,null,,,,
null,are touching each other,,html-keyboard-response,264,1216189,0.0-17.0-2.9,33348,List2A,white,woman,,,,null,,,,
8199,,,survey-text,265,1224389,0.0-17.0-3.9,33348,List2A,white,woman,,,,,"{""Q0"":""fred and luke are touching each other""}","<img src=""stim_listA/touch6.gif""</stim_listA>",are touching each other,
null,"<div style=""font-size:60px;"">+</div>",,html-keyboard-response,266,1224893,0.0-17.0-0.10,33348,List2A,white,woman,,,,null,,,,
null,"<img src=""stim_listA/hug1.gif""</stim_listA>",,html-keyboard-response,267,1226899,0.0-17.0-1.10,33348,List2A,white,woman,,,,null,,,,
null,is hugging,,html-keyboard-response,268,1228903,0.0-17.0-2.10,33348,List2A,white,woman,,,,null,,,,
8512,,,survey-text,269,1237416,0.0-17.0-3.10,33348,List2A,white,woman,,,,,"{""Q0"":""luke is hugging ruth""}","<img src=""stim_listA/hug1.gif""</stim_listA>",is hugging,
null,"<div style=""font-size:60px;"">+</div>",,html-keyboard-response,270,1237921,0.0-17.0-0.11,33348,List2A,white,woman,,,,null,,,,
null,"<img src=""stim_listA/fight5.gif""</stim_listA>",,html-keyboard-response,271,1239923,0.0-17.0-1.11,33348,List2A,white,woman,,,,null,,,,
null,is fighting,,html-keyboard-response,272,1241925,0.0-17.0-2.11,33348,List2A,white,woman,,,,null,,,,
10250,,,survey-text,273,1252176,0.0-17.0-3.11,33348,List2A,white,woman,,,,,"{""Q0"":""mike is fighting dave""}","<img src=""stim_listA/fight5.gif""</stim_listA>",is fighting,
null,"<div style=""font-size:60px;"">+</div>",,html-keyboard-response,274,1252681,0.0-17.0-0.12,33348,List2A,white,woman,,,,null,,,,
null,"<img src=""stim_listA/shout5.gif""</stim_listA>",,html-keyboard-response,275,1254684,0.0-17.0-1.12,33348,List2A,white,woman,,,,null,,,,
null,is shouting at,,html-keyboard-response,276,1256687,0.0-17.0-2.12,33348,List2A,white,woman,,,,null,,,,
8910,,,survey-text,277,1265597,0.0-17.0-3.12,33348,List2A,white,woman,,,,,"{""Q0"":""luke is shouting at fred""}","<img src=""stim_listA/shout5.gif""</stim_listA>",is shouting at,
null,"<div style=""font-size:60px;"">+</div>",,html-keyboard-response,278,1266103,0.0-17.0-0.13,33348,List2A,white,woman,,,,null,,,,
null,"<img src=""stim_listA/fight6.gif""</stim_listA>",,html-keyboard-response,279,1268105,0.0-17.0-1.13,33348,List2A,white,woman,,,,null,,,,
null,are fighting each other,,html-keyboard-response,280,1270106,0.0-17.0-2.13,33348,List2A,white,woman,,,,null,,,,
9441,,,survey-text,281,1279547,0.0-17.0-3.13,33348,List2A,white,woman,,,,,"{""Q0"":""luke and fred are fighting each other""}","<img src=""stim_listA/fight6.gif""</stim_listA>",are fighting each other,
null,"<div style=""font-size:60px;"">+</div>",,html-keyboard-response,282,1280053,0.0-17.0-0.14,33348,List2A,white,woman,,,,null,,,,
null,"<img src=""stim_listA/touch5.gif""</stim_listA>",,html-keyboard-response,283,1282059,0.0-17.0-1.14,33348,List2A,white,woman,,,,null,,,,
null,is touching,,html-keyboard-response,284,1284060,0.0-17.0-2.14,33348,List2A,white,woman,,,,null,,,,
5736,,,survey-text,285,1289796,0.0-17.0-3.14,33348,List2A,white,woman,,,,,"{""Q0"":""dave is touching mike""}","<img src=""stim_listA/touch5.gif""</stim_listA>",is touching,
null,"<div style=""font-size:60px;"">+</div>",,html-keyboard-response,286,1290302,0.0-17.0-0.15,33348,List2A,white,woman,,,,null,,,,
null,"<img src=""stim_listA/meet2.gif""</stim_listA>",,html-keyboard-response,287,1292306,0.0-17.0-1.15,33348,List2A,white,woman,,,,null,,,,
null,are meeting each other,,html-keyboard-response,288,1294306,0.0-17.0-2.15,33348,List2A,white,woman,,,,null,,,,
8393,,,survey-text,289,1302700,0.0-17.0-3.15,33348,List2A,white,woman,,,,,"{""Q0"":""ruth and luke are meeting each other""}","<img src=""stim_listA/meet2.gif""</stim_listA>",are meeting each other,
null,"<div style=""font-size:60px;"">+</div>",,html-keyboard-response,290,1303206,0.0-17.0-0.16,33348,List2A,white,woman,,,,null,,,,
null,"<img src=""stim_listA/dance6.gif""</stim_listA>",,html-keyboard-response,291,1305208,0.0-17.0-1.16,33348,List2A,white,woman,,,,null,,,,
null,are dancing with each other,,html-keyboard-response,292,1307209,0.0-17.0-2.16,33348,List2A,white,woman,,,,null,,,,
11622,,,survey-text,293,1318833,0.0-17.0-3.16,33348,List2A,white,woman,,,,,"{""Q0"":""fred and dave are dancing with each other""}","<img src=""stim_listA/dance6.gif""</stim_listA>",are dancing with each other,
null,"<div style=""font-size:60px;"">+</div>",,html-keyboard-response,294,1319338,0.0-17.0-0.17,33348,List2A,white,woman,,,,null,,,,
null,"<img src=""stim_listA/meet4.gif""</stim_listA>",,html-keyboard-response,295,1321344,0.0-17.0-1.17,33348,List2A,white,woman,,,,null,,,,
null,are meeting each other,,html-keyboard-response,296,1323349,0.0-17.0-2.17,33348,List2A,white,woman,,,,null,,,,
11795,,,survey-text,297,1335145,0.0-17.0-3.17,33348,List2A,white,woman,,,,,"{""Q0"":""beth and fred are meeting each other""}","<img src=""stim_listA/meet4.gif""</stim_listA>",are meeting each other,
null,"<div style=""font-size:60px;"">+</div>",,html-keyboard-response,298,1335649,0.0-17.0-0.18,33348,List2A,white,woman,,,,null,,,,
null,"<img src=""stim_listA/marry2.gif""</stim_listA>",,html-keyboard-response,299,1337652,0.0-17.0-1.18,33348,List2A,white,woman,,,,null,,,,
null,are marrying each other,,html-keyboard-response,300,1339654,0.0-17.0-2.18,33348,List2A,white,woman,,,,null,,,,
8485,,,survey-text,301,1348139,0.0-17.0-3.18,33348,List2A,white,woman,,,,,"{""Q0"":""jane and luke are marrying each toher""}","<img src=""stim_listA/marry2.gif""</stim_listA>",are marrying each other,
null,"<div style=""font-size:60px;"">+</div>",,html-keyboard-response,302,1348643,0.0-17.0-0.19,33348,List2A,white,woman,,,,null,,,,
null,"<img src=""stim_listA/argue7.gif""</stim_listA>",,html-keyboard-response,303,1350648,0.0-17.0-1.19,33348,List2A,white,woman,,,,null,,,,
null,is arguing with,,html-keyboard-response,304,1352650,0.0-17.0-2.19,33348,List2A,white,woman,,,,null,,,,
9135,,,survey-text,305,1361785,0.0-17.0-3.19,33348,List2A,white,woman,,,,,"{""Q0"":""beth is arguing with jane""}","<img src=""stim_listA/argue7.gif""</stim_listA>",is arguing with,
81865,"<img src='img/portrait_matrix_list2.JPG' style='width:900px;height:500px;''></img><p>If you have memorised all the portraits and names and are ready to start, press Continue.</p><p><strong>Please note: Your memory of these faces will be tested 4 times during this experiment.</strong></p>",0,html-button-response,306,1443652,0.0-18.0-0.0,33348,List2A,white,woman,,,,,,,,
2999,"<img src=""portrait/WW2.jpg""style=""width:400px;height:400px;""></img>",3,html-button-response,307,1447657,0.0-18.0-1.0,33348,List2A,white,woman,,TRUE,3,,,,,
null,CORRECT,,html-keyboard-response,308,1449166,0.0-18.0-2.0-0.0,33348,List2A,white,woman,,,,null,,,,
2472,"<img src=""portrait/WM1.jpg""style=""width:400px;height:400px;""></img>",6,html-button-response,309,1451639,0.0-18.0-4.0,33348,List2A,white,woman,,TRUE,6,,,,,
null,CORRECT,,html-keyboard-response,310,1453149,0.0-18.0-5.0-0.0,33348,List2A,white,woman,,,,null,,,,
1876,"<img src=""portrait/BW1.jpg""style=""width:400px;height:400px;""></img>",0,html-button-response,311,1455025,0.0-18.0-7.0,33348,List2A,white,woman,,TRUE,0,,,,,
null,CORRECT,,html-keyboard-response,312,1456536,0.0-18.0-8.0-0.0,33348,List2A,white,woman,,,,null,,,,
2459,"<img src=""portrait/WM2.jpg""style=""width:400px;height:400px;""></img>",7,html-button-response,313,1458997,0.0-18.0-10.0,33348,List2A,white,woman,,TRUE,7,,,,,
null,CORRECT,,html-keyboard-response,314,1460502,0.0-18.0-11.0-0.0,33348,List2A,white,woman,,,,null,,,,
3568,"<img src=""portrait/BM1.jpg""style=""width:400px;height:400px;""></img>",4,html-button-response,315,1464071,0.0-18.0-13.0,33348,List2A,white,woman,,TRUE,4,,,,,
null,CORRECT,,html-keyboard-response,316,1465581,0.0-18.0-14.0-0.0,33348,List2A,white,woman,,,,null,,,,
2111,"<img src=""portrait/WW1.jpg""style=""width:400px;height:400px;""></img>",1,html-button-response,317,1467694,0.0-18.0-16.0,33348,List2A,white,woman,,TRUE,1,,,,,
null,CORRECT,,html-keyboard-response,318,1469205,0.0-18.0-17.0-0.0,33348,List2A,white,woman,,,,null,,,,
5418,"<img src=""portrait/BW2.jpg""style=""width:400px;height:400px;""></img>",2,html-button-response,319,1474625,0.0-18.0-19.0,33348,List2A,white,woman,,TRUE,2,,,,,
null,CORRECT,,html-keyboard-response,320,1476130,0.0-18.0-20.0-0.0,33348,List2A,white,woman,,,,null,,,,
1891,"<img src=""portrait/BM2.jpg""style=""width:400px;height:400px;""></img>",5,html-button-response,321,1478022,0.0-18.0-22.0,33348,List2A,white,woman,,TRUE,5,,,,,
null,CORRECT,,html-keyboard-response,322,1479526,0.0-18.0-23.0-0.0,33348,List2A,white,woman,,,,null,,,,
3568,<p>You got 8 out of 8 right first time. Press Continue.</p>,0,html-button-response,323,1483096,0.0-18.0-25.0,33348,List2A,white,woman,,,,,,,,
null,"<div style=""font-size:60px;"">+</div>",,html-keyboard-response,324,1484606,0.0-19.0-0.0,33348,List2A,white,woman,,,,null,,,,
null,"<img src=""stim_listA/hug3.gif""</stim_listA>",,html-keyboard-response,325,1486612,0.0-19.0-1.0,33348,List2A,white,woman,,,,null,,,,
null,is hugging,,html-keyboard-response,326,1488618,0.0-19.0-2.0,33348,List2A,white,woman,,,,null,,,,
8574,,,survey-text,327,1497192,0.0-19.0-3.0,33348,List2A,white,woman,,,,,"{""Q0"":""beth is hugging Fred""}","<img src=""stim_listA/hug3.gif""</stim_listA>",is hugging,
null,"<div style=""font-size:60px;"">+</div>",,html-keyboard-response,328,1497697,0.0-19.0-0.1,33348,List2A,white,woman,,,,null,,,,
null,"<img src=""stim_listA/marry5.gif""</stim_listA>",,html-keyboard-response,329,1499700,0.0-19.0-1.1,33348,List2A,white,woman,,,,null,,,,
null,is marrying,,html-keyboard-response,330,1501701,0.0-19.0-2.1,33348,List2A,white,woman,,,,null,,,,
7944,,,survey-text,331,1509646,0.0-19.0-3.1,33348,List2A,white,woman,,,,,"{""Q0"":""fred is marrying dave""}","<img src=""stim_listA/marry5.gif""</stim_listA>",is marrying,
null,"<div style=""font-size:60px;"">+</div>",,html-keyboard-response,332,1510148,0.0-19.0-0.2,33348,List2A,white,woman,,,,null,,,,
null,"<img src=""stim_listA/argue4.gif""</stim_listA>",,html-keyboard-response,333,1512150,0.0-19.0-1.2,33348,List2A,white,woman,,,,null,,,,
null,are arguing with each other,,html-keyboard-response,334,1514156,0.0-19.0-2.2,33348,List2A,white,woman,,,,null,,,,
9237,,,survey-text,335,1523394,0.0-19.0-3.2,33348,List2A,white,woman,,,,,"{""Q0"":""fred and kate are arguing with each other""}","<img src=""stim_listA/argue4.gif""</stim_listA>",are arguing with each other,
null,"<div style=""font-size:60px;"">+</div>",,html-keyboard-response,336,1523900,0.0-19.0-0.3,33348,List2A,white,woman,,,,null,,,,
null,"<img src=""stim_listA/talk6.gif""</stim_listA>",,html-keyboard-response,337,1525902,0.0-19.0-1.3,33348,List2A,white,woman,,,,null,,,,
null,are talking to each other,,html-keyboard-response,338,1527904,0.0-19.0-2.3,33348,List2A,white,woman,,,,null,,,,
8596,,,survey-text,339,1536500,0.0-19.0-3.3,33348,List2A,white,woman,,,,,"{""Q0"":""fred and dave are talking to each other""}","<img src=""stim_listA/talk6.gif""</stim_listA>",are talking to each other,
null,"<div style=""font-size:60px;"">+</div>",,html-keyboard-response,340,1537006,0.0-19.0-0.4,33348,List2A,white,woman,,,,null,,,,
null,"<img src=""stim_listA/talk5.gif""</stim_listA>",,html-keyboard-response,341,1539012,0.0-19.0-1.4,33348,List2A,white,woman,,,,null,,,,
null,is talking to,,html-keyboard-response,342,1541018,0.0-19.0-2.4,33348,List2A,white,woman,,,,null,,,,
7081,,,survey-text,343,1548099,0.0-19.0-3.4,33348,List2A,white,woman,,,,,"{""Q0"":""luke is talking to mike""}","<img src=""stim_listA/talk5.gif""</stim_listA>",is talking to,
null,"<div style=""font-size:60px;"">+</div>",,html-keyboard-response,344,1548605,0.0-19.0-0.5,33348,List2A,white,woman,,,,null,,,,
null,"<img src=""stim_listA/argue3.gif""</stim_listA>",,html-keyboard-response,345,1550611,0.0-19.0-1.5,33348,List2A,white,woman,,,,null,,,,
null,is arguing with,,html-keyboard-response,346,1552616,0.0-19.0-2.5,33348,List2A,white,woman,,,,null,,,,
11299,,,survey-text,347,1563917,0.0-19.0-3.5,33348,List2A,white,woman,,,,,"{""Q0"":""beth is arguing with mike""}","<img src=""stim_listA/argue3.gif""</stim_listA>",is arguing with,
null,"<div style=""font-size:60px;"">+</div>",,html-keyboard-response,348,1564422,0.0-19.0-0.6,33348,List2A,white,woman,,,,null,,,,
null,"<img src=""stim_listA/shout2.gif""</stim_listA>",,html-keyboard-response,349,1566424,0.0-19.0-1.6,33348,List2A,white,woman,,,,null,,,,
null,are shouting at each other,,html-keyboard-response,350,1568427,0.0-19.0-2.6,33348,List2A,white,woman,,,,null,,,,
12466,,,survey-text,351,1580893,0.0-19.0-3.6,33348,List2A,white,woman,,,,,"{""Q0"":""jane and dave are shouting at each other""}","<img src=""stim_listA/shout2.gif""</stim_listA>",are shouting at each other,
null,"<div style=""font-size:60px;"">+</div>",,html-keyboard-response,352,1581395,0.0-19.0-0.7,33348,List2A,white,woman,,,,null,,,,
null,"<img src=""stim_listA/talk8.gif""</stim_listA>",,html-keyboard-response,353,1583398,0.0-19.0-1.7,33348,List2A,white,woman,,,,null,,,,
null,are talking to each other,,html-keyboard-response,354,1585400,0.0-19.0-2.7,33348,List2A,white,woman,,,,null,,,,
11287,,,survey-text,355,1596688,0.0-19.0-3.7,33348,List2A,white,woman,,,,,"{""Q0"":""jane and beth are talking to each other""}","<img src=""stim_listA/talk8.gif""</stim_listA>",are talking to each other,
null,"<div style=""font-size:60px;"">+</div>",,html-keyboard-response,356,1597190,0.0-19.0-0.8,33348,List2A,white,woman,,,,null,,,,
null,"<img src=""stim_listA/dance5.gif""</stim_listA>",,html-keyboard-response,357,1599193,0.0-19.0-1.8,33348,List2A,white,woman,,,,null,,,,
null,is dancing with,,html-keyboard-response,358,1601195,0.0-19.0-2.8,33348,List2A,white,woman,,,,null,,,,
8035,,,survey-text,359,1609232,0.0-19.0-3.8,33348,List2A,white,woman,,,,,"{""Q0"":""luke is dancing with mike""}","<img src=""stim_listA/dance5.gif""</stim_listA>",is dancing with,
null,"<div style=""font-size:60px;"">+</div>",,html-keyboard-response,360,1609738,0.0-19.0-0.9,33348,List2A,white,woman,,,,null,,,,
null,"<img src=""stim_listA/fight2.gif""</stim_listA>",,html-keyboard-response,361,1611739,0.0-19.0-1.9,33348,List2A,white,woman,,,,null,,,,
null,are fighting each other,,html-keyboard-response,362,1613741,0.0-19.0-2.9,33348,List2A,white,woman,,,,null,,,,
8978,,,survey-text,363,1622721,0.0-19.0-3.9,33348,List2A,white,woman,,,,,"{""Q0"":""ruth and luke are fighting each other""}","<img src=""stim_listA/fight2.gif""</stim_listA>",are fighting each other,
null,"<div style=""font-size:60px;"">+</div>",,html-keyboard-response,364,1623227,0.0-19.0-0.10,33348,List2A,white,woman,,,,null,,,,
null,"<img src=""stim_listA/marry7.gif""</stim_listA>",,html-keyboard-response,365,1625227,0.0-19.0-1.10,33348,List2A,white,woman,,,,null,,,,
null,is marrying,,html-keyboard-response,366,1627231,0.0-19.0-2.10,33348,List2A,white,woman,,,,null,,,,
6143,,,survey-text,367,1633375,0.0-19.0-3.10,33348,List2A,white,woman,,,,,"{""Q0"":""jane is marrying beth""}","<img src=""stim_listA/marry7.gif""</stim_listA>",is marrying,
null,"<div style=""font-size:60px;"">+</div>",,html-keyboard-response,368,1633879,0.0-19.0-0.11,33348,List2A,white,woman,,,,null,,,,
null,"<img src=""stim_listA/argue5.gif""</stim_listA>",,html-keyboard-response,369,1635879,0.0-19.0-1.11,33348,List2A,white,woman,,,,null,,,,
null,is arguing with,,html-keyboard-response,370,1637881,0.0-19.0-2.11,33348,List2A,white,woman,,,,null,,,,
6630,,,survey-text,371,1644512,0.0-19.0-3.11,33348,List2A,white,woman,,,,,"{""Q0"":""fred is arguing with dave""}","<img src=""stim_listA/argue5.gif""</stim_listA>",is arguing with,
null,"<div style=""font-size:60px;"">+</div>",,html-keyboard-response,372,1645018,0.0-19.0-0.12,33348,List2A,white,woman,,,,null,,,,
null,"<img src=""stim_listA/kiss2.gif""</stim_listA>",,html-keyboard-response,373,1647024,0.0-19.0-1.12,33348,List2A,white,woman,,,,null,,,,
null,are kissing each other,,html-keyboard-response,374,1649025,0.0-19.0-2.12,33348,List2A,white,woman,,,,null,,,,
8255,,,survey-text,375,1657281,0.0-19.0-3.12,33348,List2A,white,woman,,,,,"{""Q0"":""luke and kate are kissing each other""}","<img src=""stim_listA/kiss2.gif""</stim_listA>",are kissing each other,
null,"<div style=""font-size:60px;"">+</div>",,html-keyboard-response,376,1657787,0.0-19.0-0.13,33348,List2A,white,woman,,,,null,,,,
null,"<img src=""stim_listA/talk7.gif""</stim_listA>",,html-keyboard-response,377,1659788,0.0-19.0-1.13,33348,List2A,white,woman,,,,null,,,,
null,is talking to,,html-keyboard-response,378,1661790,0.0-19.0-2.13,33348,List2A,white,woman,,,,null,,,,
9170,,,survey-text,379,1670961,0.0-19.0-3.13,33348,List2A,white,woman,,,,,"{""Q0"":""ruth is talking to kate""}","<img src=""stim_listA/talk7.gif""</stim_listA>",is talking to,
null,"<div style=""font-size:60px;"">+</div>",,html-keyboard-response,380,1671463,0.0-19.0-0.14,33348,List2A,white,woman,,,,null,,,,
null,"<img src=""stim_listA/dance2.gif""</stim_listA>",,html-keyboard-response,381,1673468,0.0-19.0-1.14,33348,List2A,white,woman,,,,null,,,,
null,are dancing with each other,,html-keyboard-response,382,1675473,0.0-19.0-2.14,33348,List2A,white,woman,,,,null,,,,
30013,,,survey-text,383,1705487,0.0-19.0-3.14,33348,List2A,white,woman,,,,,"{""Q0"":""ruth and dave are dancing with each other""}","<img src=""stim_listA/dance2.gif""</stim_listA>",are dancing with each other,
null,"<div style=""font-size:60px;"">+</div>",,html-keyboard-response,384,1705993,0.0-19.0-0.15,33348,List2A,white,woman,,,,null,,,,
null,"<img src=""stim_listA/kiss3.gif""</stim_listA>",,html-keyboard-response,385,1707995,0.0-19.0-1.15,33348,List2A,white,woman,,,,null,,,,
null,is kissing,,html-keyboard-response,386,1710000,0.0-19.0-2.15,33348,List2A,white,woman,,,,null,,,,
121926,,,survey-text,387,1831926,0.0-19.0-3.15,33348,List2A,white,woman,,,,,"{""Q0"":""beth is kissing fred""}","<img src=""stim_listA/kiss3.gif""</stim_listA>",is kissing,
null,"<div style=""font-size:60px;"">+</div>",,html-keyboard-response,388,1832428,0.0-19.0-0.16,33348,List2A,white,woman,,,,null,,,,
null,"<img src=""stim_listA/hug6.gif""</stim_listA>",,html-keyboard-response,389,1834431,0.0-19.0-1.16,33348,List2A,white,woman,,,,null,,,,
null,are hugging each other,,html-keyboard-response,390,1836433,0.0-19.0-2.16,33348,List2A,white,woman,,,,null,,,,
8734,,,survey-text,391,1845168,0.0-19.0-3.16,33348,List2A,white,woman,,,,,"{""Q0"":""mike and dave are hugging each other""}","<img src=""stim_listA/hug6.gif""</stim_listA>",are hugging each other,
null,"<div style=""font-size:60px;"">+</div>",,html-keyboard-response,392,1845669,0.0-19.0-0.17,33348,List2A,white,woman,,,,null,,,,
null,"<img src=""stim_listA/argue8.gif""</stim_listA>",,html-keyboard-response,393,1847670,0.0-19.0-1.17,33348,List2A,white,woman,,,,null,,,,
null,are arguing with each other,,html-keyboard-response,394,1849671,0.0-19.0-2.17,33348,List2A,white,woman,,,,null,,,,
9378,,,survey-text,395,1859050,0.0-19.0-3.17,33348,List2A,white,woman,,,,,"{""Q0"":""ruth and kate are arguing with each other""}","<img src=""stim_listA/argue8.gif""</stim_listA>",are arguing with each other,
null,"<div style=""font-size:60px;"">+</div>",,html-keyboard-response,396,1859553,0.0-19.0-0.18,33348,List2A,white,woman,,,,null,,,,
null,"<img src=""stim_listA/touch1.gif""</stim_listA>",,html-keyboard-response,397,1861559,0.0-19.0-1.18,33348,List2A,white,woman,,,,null,,,,
null,is touching,,html-keyboard-response,398,1863560,0.0-19.0-2.18,33348,List2A,white,woman,,,,null,,,,
7110,,,survey-text,399,1870672,0.0-19.0-3.18,33348,List2A,white,woman,,,,,"{""Q0"":""dave is touching jane""}","<img src=""stim_listA/touch1.gif""</stim_listA>",is touching,
null,"<div style=""font-size:60px;"">+</div>",,html-keyboard-response,400,1871175,0.0-19.0-0.19,33348,List2A,white,woman,,,,null,,,,
null,"<img src=""stim_listA/touch3.gif""</stim_listA>",,html-keyboard-response,401,1873180,0.0-19.0-1.19,33348,List2A,white,woman,,,,null,,,,
null,is touching,,html-keyboard-response,402,1875181,0.0-19.0-2.19,33348,List2A,white,woman,,,,null,,,,
5997,,,survey-text,403,1881179,0.0-19.0-3.19,33348,List2A,white,woman,,,,,"{""Q0"":""mike is touching kate""}","<img src=""stim_listA/touch3.gif""</stim_listA>",is touching,
2935,<p>Thank you for completing that task.</p><p>The final part of this session is a short questionnaire.</p><p>Press Continue.</p>,0,html-button-response,404,1884115,0.0-20.0,33348,List2A,white,woman,,,,,,,,
30618,,,survey-text,405,1915740,0.0-21.0,33348,List2A,white,woman,,,,,"{""Q0"":""46"",""Q1"":""English"",""Q2"":""English"",""Q3"":""England"",""Q4"":""White"",""Q5"":""Female""}",,,demographics
59950,,,survey-likert,406,1975694,0.0-22.0,33348,List2A,white,woman,,,,,"{""Q0"":3,""Q1"":3,""Q2"":3,""Q3"":3,""Q4"":3,""Q5"":3,""Q6"":3,""Q7"":4,""Q8"":4,""Q9"":4,""Q10"":4,""Q11"":1,""Q12"":1,""Q13"":0}",,,likert_race
82267,,,survey-likert,407,2057965,0.0-23.0,33348,List2A,white,woman,,,,,"{""Q0"":4,""Q1"":4,""Q2"":3,""Q3"":6,""Q4"":4,""Q5"":6,""Q6"":5,""Q7"":4,""Q8"":6,""Q9"":6,""Q10"":4,""Q11"":3,""Q12"":2,""Q13"":0}",,,likert_gender
6105,,,survey-text,408,2064071,0.0-24.0,33348,List2A,white,woman,,,,,"{""Q0"":""ccc""}",,,worker_id
34727,,,external-html,409,2098913,0.0-25.0,33348,List2A,white,woman,debrief.html,,,,,,,
