rt,stimulus,button_pressed,trial_type,trial_index,time_elapsed,internal_node_id,subject,list,ppt_race,ppt_gender,url,first_guess,correct,key_press,responses,image_type,phrase_type,test_part
73062,Welcome to the experiment. Press Continue to begin.,0,html-button-response,0,73137,0.0-0.0,33733,List1A,black,man,,,,,,,,
16573,,,external-html,1,91332,0.0-1.0,33733,List1A,black,man,consent.html,,,,,,,
103864,"<p>On the next page, you will see portraits of 8 people and their names.</p><p>Your first task is to take a few minutes to memorise the names of these people.</p><p>You will have to recall their names during the rest of the experiment, so it is</p><p>essential that you try to memorise these people and their names as best as you can.</p><br><p><strong>You will then be tested on your memory of these names and portraits.</strong></p><br><p>The experiment will start after you have completed this memory test.</p><br><p>Ready?</p>",0,html-button-response,2,195203,0.0-2.0,33733,List1A,black,man,,,,,,,,
21340,"<img src='img/portrait_matrix_list1.JPG' style='width:900px;height:500px;''></img><p>If you have memorised all the portraits and names and are ready to start, press Continue.</p><p><strong>Please note: Your memory of these faces will be tested 4 times during this experiment.</strong></p>",0,html-button-response,3,217552,0.0-3.0-0.0,33733,List1A,black,man,,,,,,,,
5664,"<img src=""portrait/WW2.jpg""style=""width:400px;height:400px;""></img>",3,html-button-response,4,224238,0.0-3.0-1.0,33733,List1A,black,man,,TRUE,3,,,,,
null,CORRECT,,html-keyboard-response,5,225887,0.0-3.0-2.0-0.0,33733,List1A,black,man,,,,null,,,,
7081,"<img src=""portrait/BW1.jpg""style=""width:400px;height:400px;""></img>",0,html-button-response,6,232975,0.0-3.0-4.0,33733,List1A,black,man,,TRUE,0,,,,,
null,CORRECT,,html-keyboard-response,7,234562,0.0-3.0-5.0-0.0,33733,List1A,black,man,,,,null,,,,
5133,"<img src=""portrait/WM2.jpg""style=""width:400px;height:400px;""></img>",7,html-button-response,8,239701,0.0-3.0-7.0,33733,List1A,black,man,,TRUE,7,,,,,
null,CORRECT,,html-keyboard-response,9,241287,0.0-3.0-8.0-0.0,33733,List1A,black,man,,,,null,,,,
5699,"<img src=""portrait/WW1.jpg""style=""width:400px;height:400px;""></img>",1,html-button-response,10,246991,0.0-3.0-10.0,33733,List1A,black,man,,TRUE,1,,,,,
null,CORRECT,,html-keyboard-response,11,248534,0.0-3.0-11.0-0.0,33733,List1A,black,man,,,,null,,,,
4131,"<img src=""portrait/BM1.jpg""style=""width:400px;height:400px;""></img>",4,html-button-response,12,252670,0.0-3.0-13.0,33733,List1A,black,man,,TRUE,4,,,,,
null,CORRECT,,html-keyboard-response,13,254256,0.0-3.0-14.0-0.0,33733,List1A,black,man,,,,null,,,,
5163,"<img src=""portrait/WM1.jpg""style=""width:400px;height:400px;""></img>",6,html-button-response,14,259430,0.0-3.0-16.0,33733,List1A,black,man,,TRUE,6,,,,,
null,CORRECT,,html-keyboard-response,15,260972,0.0-3.0-17.0-0.0,33733,List1A,black,man,,,,null,,,,
5955,"<img src=""portrait/BM2.jpg""style=""width:400px;height:400px;""></img>",5,html-button-response,16,266933,0.0-3.0-19.0,33733,List1A,black,man,,TRUE,5,,,,,
null,CORRECT,,html-keyboard-response,17,268477,0.0-3.0-20.0-0.0,33733,List1A,black,man,,,,null,,,,
4004,"<img src=""portrait/BW2.jpg""style=""width:400px;height:400px;""></img>",2,html-button-response,18,272517,0.0-3.0-22.0,33733,List1A,black,man,,TRUE,2,,,,,
null,CORRECT,,html-keyboard-response,19,274102,0.0-3.0-23.0-0.0,33733,List1A,black,man,,,,null,,,,
1853,<p>You got 8 out of 8 right first time. Press Continue.</p>,0,html-button-response,20,275979,0.0-3.0-25.0,33733,List1A,black,man,,,,,,,,
33464,"<p>In this experiment, you will view photographs of the people from the memory game interacting.</p><p>By using the <strong>exact</strong> phrase given <i>after</i> the photograph appears and recalling the correct names of the people in the photographs, form a sentence describing the interaction. You do not need to capitalise names.</p><p>Type your answer in the space provided. Please complete every sentence before moving onto the next trial.</p><p>You will only have a few seconds to memorise each given photograph and phrase before you can respond, so try your best to focus.</p><p>An example is given below. Press 'Continue' when you are ready.</p><img src='img/speaking_example_v2.jpg' style='width:800px;height:460px;''></img>",0,html-button-response,21,310455,0.0-4.0,33733,List1A,black,man,,,,,,,,
3986,"<p>Before the experiment starts, you will watch two example trials. Press 'Continue'.</p>",0,html-button-response,22,315487,0.0-5.0,33733,List1A,black,man,,,,,,,,
null,<img src='img/speaking_WW.gif'></img>,,html-keyboard-response,23,318562,0.0-6.0,33733,List1A,black,man,,,,null,,,,
null,<p>is speaking to</p>,,html-keyboard-response,24,320575,0.0-7.0,33733,List1A,black,man,,,,null,,,,
1898,<p><b>Answer:</b> kate is speaking to beth</p>,0,html-button-response,25,322477,0.0-8.0,33733,List1A,black,man,,,,,,,,
null,<img src='img/pointing_BM.gif'></img>,,html-keyboard-response,26,325521,0.0-9.0,33733,List1A,black,man,,,,null,,,,
null,<p>are pointing at each other</p>,,html-keyboard-response,27,327544,0.0-10.0,33733,List1A,black,man,,,,null,,,,
1677,<p><b>Answer:</b> luke and dave are pointing at each other</p>,0,html-button-response,28,329226,0.0-11.0,33733,List1A,black,man,,,,,,,,
22140,"<p>Ready to start the experiment?</p><br><p><strong>Remember to describe the picture using a full sentence,</strong></p><p><strong>that combines the names of the people with the given phrase.</strong></p><p><strong>If you do not do this correctly you will not be paid.</strong></p><p><strong> You do not need to capitalise names or use punctuation.</strong></p><br><p>Press 'Continue' to begin.</p>",0,html-button-response,29,352376,0.0-12.0,33733,List1A,black,man,,,,,,,,
null,"<div style=""font-size:60px;"">+</div>",,html-keyboard-response,30,353954,0.0-13.0-0.0,33733,List1A,black,man,,,,null,,,,
null,"<img src=""stim_listA/kiss1.gif""</stim_listA>",,html-keyboard-response,31,356003,0.0-13.0-1.0,33733,List1A,black,man,,,,null,,,,
null,is kissing,,html-keyboard-response,32,358027,0.0-13.0-2.0,33733,List1A,black,man,,,,null,,,,
28429,,,survey-text,33,386462,0.0-13.0-3.0,33733,List1A,black,man,,,,,"{""Q0"":""fred is kissing kate""}","<img src=""stim_listA/kiss1.gif""</stim_listA>",is kissing,
null,"<div style=""font-size:60px;"">+</div>",,html-keyboard-response,34,386971,0.0-13.0-0.1,33733,List1A,black,man,,,,null,,,,
null,"<img src=""stim_listA/talk2.gif""</stim_listA>",,html-keyboard-response,35,388974,0.0-13.0-1.1,33733,List1A,black,man,,,,null,,,,
null,are talking to each other,,html-keyboard-response,36,390977,0.0-13.0-2.1,33733,List1A,black,man,,,,null,,,,
16545,,,survey-text,37,407531,0.0-13.0-3.1,33733,List1A,black,man,,,,,"{""Q0"":""mike is pointing to beth""}","<img src=""stim_listA/talk2.gif""</stim_listA>",are talking to each other,
null,"<div style=""font-size:60px;"">+</div>",,html-keyboard-response,38,408079,0.0-13.0-0.2,33733,List1A,black,man,,,,null,,,,
null,"<img src=""stim_listA/marry2.gif""</stim_listA>",,html-keyboard-response,39,410121,0.0-13.0-1.2,33733,List1A,black,man,,,,null,,,,
null,are marrying each other,,html-keyboard-response,40,412129,0.0-13.0-2.2,33733,List1A,black,man,,,,null,,,,
14614,,,survey-text,41,426749,0.0-13.0-3.2,33733,List1A,black,man,,,,,"{""Q0"":""kate is marrying fred""}","<img src=""stim_listA/marry2.gif""</stim_listA>",are marrying each other,
null,"<div style=""font-size:60px;"">+</div>",,html-keyboard-response,42,427256,0.0-13.0-0.3,33733,List1A,black,man,,,,null,,,,
null,"<img src=""stim_listA/fight2.gif""</stim_listA>",,html-keyboard-response,43,429305,0.0-13.0-1.3,33733,List1A,black,man,,,,null,,,,
null,are fighting each other,,html-keyboard-response,44,431316,0.0-13.0-2.3,33733,List1A,black,man,,,,null,,,,
13419,,,survey-text,45,444739,0.0-13.0-3.3,33733,List1A,black,man,,,,,"{""Q0"":""fred is fighting beth""}","<img src=""stim_listA/fight2.gif""</stim_listA>",are fighting each other,
null,"<div style=""font-size:60px;"">+</div>",,html-keyboard-response,46,445286,0.0-13.0-0.4,33733,List1A,black,man,,,,null,,,,
null,"<img src=""stim_listA/shout3.gif""</stim_listA>",,html-keyboard-response,47,447303,0.0-13.0-1.4,33733,List1A,black,man,,,,null,,,,
null,is shouting at,,html-keyboard-response,48,449312,0.0-13.0-2.4,33733,List1A,black,man,,,,null,,,,
15670,,,survey-text,49,464986,0.0-13.0-3.4,33733,List1A,black,man,,,,,"{""Q0"":""luke is shouting at jane""}","<img src=""stim_listA/shout3.gif""</stim_listA>",is shouting at,
null,"<div style=""font-size:60px;"">+</div>",,html-keyboard-response,50,465505,0.0-13.0-0.5,33733,List1A,black,man,,,,null,,,,
null,"<img src=""stim_listA/talk6.gif""</stim_listA>",,html-keyboard-response,51,467553,0.0-13.0-1.5,33733,List1A,black,man,,,,null,,,,
null,are talking to each other,,html-keyboard-response,52,469558,0.0-13.0-2.5,33733,List1A,black,man,,,,null,,,,
21032,,,survey-text,53,490676,0.0-13.0-3.5,33733,List1A,black,man,,,,,"{""Q0"":""mike is talking to luke""}","<img src=""stim_listA/talk6.gif""</stim_listA>",are talking to each other,
null,"<div style=""font-size:60px;"">+</div>",,html-keyboard-response,54,491181,0.0-13.0-0.6,33733,List1A,black,man,,,,null,,,,
null,"<img src=""stim_listA/talk8.gif""</stim_listA>",,html-keyboard-response,55,493273,0.0-13.0-1.6,33733,List1A,black,man,,,,null,,,,
null,are talking to each other,,html-keyboard-response,56,495283,0.0-13.0-2.6,33733,List1A,black,man,,,,null,,,,
11513,,,survey-text,57,506799,0.0-13.0-3.6,33733,List1A,black,man,,,,,"{""Q0"":""ruth is talking to kate""}","<img src=""stim_listA/talk8.gif""</stim_listA>",are talking to each other,
null,"<div style=""font-size:60px;"">+</div>",,html-keyboard-response,58,507346,0.0-13.0-0.7,33733,List1A,black,man,,,,null,,,,
null,"<img src=""stim_listA/shout5.gif""</stim_listA>",,html-keyboard-response,59,509414,0.0-13.0-1.7,33733,List1A,black,man,,,,null,,,,
null,is shouting at,,html-keyboard-response,60,511455,0.0-13.0-2.7,33733,List1A,black,man,,,,null,,,,
10665,,,survey-text,61,522125,0.0-13.0-3.7,33733,List1A,black,man,,,,,"{""Q0"":""mike is shouting at luke""}","<img src=""stim_listA/shout5.gif""</stim_listA>",is shouting at,
null,"<div style=""font-size:60px;"">+</div>",,html-keyboard-response,62,522662,0.0-13.0-0.8,33733,List1A,black,man,,,,null,,,,
null,"<img src=""stim_listA/fight4.gif""</stim_listA>",,html-keyboard-response,63,524710,0.0-13.0-1.8,33733,List1A,black,man,,,,null,,,,
null,are fighting each other,,html-keyboard-response,64,526712,0.0-13.0-2.8,33733,List1A,black,man,,,,null,,,,
15803,,,survey-text,65,542518,0.0-13.0-3.8,33733,List1A,black,man,,,,,"{""Q0"":""ruth is fighting luke""}","<img src=""stim_listA/fight4.gif""</stim_listA>",are fighting each other,
null,"<div style=""font-size:60px;"">+</div>",,html-keyboard-response,66,543055,0.0-13.0-0.9,33733,List1A,black,man,,,,null,,,,
null,"<img src=""stim_listA/dance2.gif""</stim_listA>",,html-keyboard-response,67,545103,0.0-13.0-1.9,33733,List1A,black,man,,,,null,,,,
null,are dancing with each other,,html-keyboard-response,68,547107,0.0-13.0-2.9,33733,List1A,black,man,,,,null,,,,
18048,,,survey-text,69,565159,0.0-13.0-3.9,33733,List1A,black,man,,,,,"{""Q0"":""beth is dancing with luke""}","<img src=""stim_listA/dance2.gif""</stim_listA>",are dancing with each other,
null,"<div style=""font-size:60px;"">+</div>",,html-keyboard-response,70,565662,0.0-13.0-0.10,33733,List1A,black,man,,,,null,,,,
null,"<img src=""stim_listA/fight6.gif""</stim_listA>",,html-keyboard-response,71,567669,0.0-13.0-1.10,33733,List1A,black,man,,,,null,,,,
null,are fighting each other,,html-keyboard-response,72,569705,0.0-13.0-2.10,33733,List1A,black,man,,,,null,,,,
20326,,,survey-text,73,590044,0.0-13.0-3.10,33733,List1A,black,man,,,,,"{""Q0"":""luke is fighting mike""}","<img src=""stim_listA/fight6.gif""</stim_listA>",are fighting each other,
null,"<div style=""font-size:60px;"">+</div>",,html-keyboard-response,74,590581,0.0-13.0-0.11,33733,List1A,black,man,,,,null,,,,
null,"<img src=""stim_listA/hug5.gif""</stim_listA>",,html-keyboard-response,75,592644,0.0-13.0-1.11,33733,List1A,black,man,,,,null,,,,
null,is hugging,,html-keyboard-response,76,594646,0.0-13.0-2.11,33733,List1A,black,man,,,,null,,,,
8558,,,survey-text,77,603207,0.0-13.0-3.11,33733,List1A,black,man,,,,,"{""Q0"":""fred is hugging luke""}","<img src=""stim_listA/hug5.gif""</stim_listA>",is hugging,
null,"<div style=""font-size:60px;"">+</div>",,html-keyboard-response,78,603765,0.0-13.0-0.12,33733,List1A,black,man,,,,null,,,,
null,"<img src=""stim_listA/kiss5.gif""</stim_listA>",,html-keyboard-response,79,605865,0.0-13.0-1.12,33733,List1A,black,man,,,,null,,,,
null,is kissing,,html-keyboard-response,80,607911,0.0-13.0-2.12,33733,List1A,black,man,,,,null,,,,
7766,,,survey-text,81,615686,0.0-13.0-3.12,33733,List1A,black,man,,,,,"{""Q0"":""fred is kissing luke""}","<img src=""stim_listA/kiss5.gif""</stim_listA>",is kissing,
null,"<div style=""font-size:60px;"">+</div>",,html-keyboard-response,82,616201,0.0-13.0-0.13,33733,List1A,black,man,,,,null,,,,
null,"<img src=""stim_listA/dance5.gif""</stim_listA>",,html-keyboard-response,83,618233,0.0-13.0-1.13,33733,List1A,black,man,,,,null,,,,
null,is dancing with,,html-keyboard-response,84,620255,0.0-13.0-2.13,33733,List1A,black,man,,,,null,,,,
10679,,,survey-text,85,630937,0.0-13.0-3.13,33733,List1A,black,man,,,,,"{""Q0"":""fred is dancing with dave""}","<img src=""stim_listA/dance5.gif""</stim_listA>",is dancing with,
null,"<div style=""font-size:60px;"">+</div>",,html-keyboard-response,86,631464,0.0-13.0-0.14,33733,List1A,black,man,,,,null,,,,
null,"<img src=""stim_listA/touch5.gif""</stim_listA>",,html-keyboard-response,87,633520,0.0-13.0-1.14,33733,List1A,black,man,,,,null,,,,
null,is touching,,html-keyboard-response,88,635534,0.0-13.0-2.14,33733,List1A,black,man,,,,null,,,,
24796,,,survey-text,89,660334,0.0-13.0-3.14,33733,List1A,black,man,,,,,"{""Q0"":""fred is touching dave""}","<img src=""stim_listA/touch5.gif""</stim_listA>",is touching,
null,"<div style=""font-size:60px;"">+</div>",,html-keyboard-response,90,660885,0.0-13.0-0.15,33733,List1A,black,man,,,,null,,,,
null,"<img src=""stim_listA/kiss3.gif""</stim_listA>",,html-keyboard-response,91,662907,0.0-13.0-1.15,33733,List1A,black,man,,,,null,,,,
null,is kissing,,html-keyboard-response,92,664912,0.0-13.0-2.15,33733,List1A,black,man,,,,null,,,,
10274,,,survey-text,93,675217,0.0-13.0-3.15,33733,List1A,black,man,,,,,"{""Q0"":""ruth is kissing luke""}","<img src=""stim_listA/kiss3.gif""</stim_listA>",is kissing,
null,"<div style=""font-size:60px;"">+</div>",,html-keyboard-response,94,675796,0.0-13.0-0.16,33733,List1A,black,man,,,,null,,,,
null,"<img src=""stim_listA/kiss8.gif""</stim_listA>",,html-keyboard-response,95,677836,0.0-13.0-1.16,33733,List1A,black,man,,,,null,,,,
null,are kissing each other,,html-keyboard-response,96,679865,0.0-13.0-2.16,33733,List1A,black,man,,,,null,,,,
8248,,,survey-text,97,688117,0.0-13.0-3.16,33733,List1A,black,man,,,,,"{""Q0"":""kate is kissing jane""}","<img src=""stim_listA/kiss8.gif""</stim_listA>",are kissing each other,
null,"<div style=""font-size:60px;"">+</div>",,html-keyboard-response,98,688627,0.0-13.0-0.17,33733,List1A,black,man,,,,null,,,,
null,"<img src=""stim_listA/argue3.gif""</stim_listA>",,html-keyboard-response,99,690682,0.0-13.0-1.17,33733,List1A,black,man,,,,null,,,,
null,is arguing with,,html-keyboard-response,100,692697,0.0-13.0-2.17,33733,List1A,black,man,,,,null,,,,
14555,,,survey-text,101,707270,0.0-13.0-3.17,33733,List1A,black,man,,,,,"{""Q0"":""ruth is arguing with dave""}","<img src=""stim_listA/argue3.gif""</stim_listA>",is arguing with,
null,"<div style=""font-size:60px;"">+</div>",,html-keyboard-response,102,707781,0.0-13.0-0.18,33733,List1A,black,man,,,,null,,,,
null,"<img src=""stim_listA/argue8.gif""</stim_listA>",,html-keyboard-response,103,709806,0.0-13.0-1.18,33733,List1A,black,man,,,,null,,,,
null,are arguing with each other,,html-keyboard-response,104,711841,0.0-13.0-2.18,33733,List1A,black,man,,,,null,,,,
20233,,,survey-text,105,732098,0.0-13.0-3.18,33733,List1A,black,man,,,,,"{""Q0"":""jane and beth is arguing with each other""}","<img src=""stim_listA/argue8.gif""</stim_listA>",are arguing with each other,
null,"<div style=""font-size:60px;"">+</div>",,html-keyboard-response,106,732604,0.0-13.0-0.19,33733,List1A,black,man,,,,null,,,,
null,"<img src=""stim_listA/touch7.gif""</stim_listA>",,html-keyboard-response,107,734677,0.0-13.0-1.19,33733,List1A,black,man,,,,null,,,,
null,is touching,,html-keyboard-response,108,736712,0.0-13.0-2.19,33733,List1A,black,man,,,,null,,,,
8499,,,survey-text,109,745233,0.0-13.0-3.19,33733,List1A,black,man,,,,,"{""Q0"":""jane is touching kate""}","<img src=""stim_listA/touch7.gif""</stim_listA>",is touching,
8448,"<img src='img/portrait_matrix_list1.JPG' style='width:900px;height:500px;''></img><p>If you have memorised all the portraits and names and are ready to start, press Continue.</p><p><strong>Please note: Your memory of these faces will be tested 4 times during this experiment.</strong></p>",0,html-button-response,110,753685,0.0-14.0-0.0,33733,List1A,black,man,,,,,,,,
3815,"<img src=""portrait/BM1.jpg""style=""width:400px;height:400px;""></img>",4,html-button-response,111,758527,0.0-14.0-1.0,33733,List1A,black,man,,TRUE,4,,,,,
null,CORRECT,,html-keyboard-response,112,760070,0.0-14.0-2.0-0.0,33733,List1A,black,man,,,,null,,,,
6328,"<img src=""portrait/BM2.jpg""style=""width:400px;height:400px;""></img>",5,html-button-response,113,766405,0.0-14.0-4.0,33733,List1A,black,man,,TRUE,5,,,,,
null,CORRECT,,html-keyboard-response,114,768020,0.0-14.0-5.0-0.0,33733,List1A,black,man,,,,null,,,,
5582,"<img src=""portrait/WW1.jpg""style=""width:400px;height:400px;""></img>",1,html-button-response,115,773607,0.0-14.0-7.0,33733,List1A,black,man,,TRUE,1,,,,,
null,CORRECT,,html-keyboard-response,116,775128,0.0-14.0-8.0-0.0,33733,List1A,black,man,,,,null,,,,
2996,"<img src=""portrait/WM1.jpg""style=""width:400px;height:400px;""></img>",6,html-button-response,117,778151,0.0-14.0-10.0,33733,List1A,black,man,,TRUE,6,,,,,
null,CORRECT,,html-keyboard-response,118,779658,0.0-14.0-11.0-0.0,33733,List1A,black,man,,,,null,,,,
1984,"<img src=""portrait/WW2.jpg""style=""width:400px;height:400px;""></img>",3,html-button-response,119,781654,0.0-14.0-13.0,33733,List1A,black,man,,TRUE,3,,,,,
null,CORRECT,,html-keyboard-response,120,783246,0.0-14.0-14.0-0.0,33733,List1A,black,man,,,,null,,,,
4405,"<img src=""portrait/WM2.jpg""style=""width:400px;height:400px;""></img>",7,html-button-response,121,787658,0.0-14.0-16.0,33733,List1A,black,man,,TRUE,7,,,,,
null,CORRECT,,html-keyboard-response,122,789195,0.0-14.0-17.0-0.0,33733,List1A,black,man,,,,null,,,,
2869,"<img src=""portrait/BW1.jpg""style=""width:400px;height:400px;""></img>",0,html-button-response,123,792070,0.0-14.0-19.0,33733,List1A,black,man,,TRUE,0,,,,,
null,CORRECT,,html-keyboard-response,124,793629,0.0-14.0-20.0-0.0,33733,List1A,black,man,,,,null,,,,
1482,"<img src=""portrait/BW2.jpg""style=""width:400px;height:400px;""></img>",2,html-button-response,125,795116,0.0-14.0-22.0,33733,List1A,black,man,,TRUE,2,,,,,
null,CORRECT,,html-keyboard-response,126,796699,0.0-14.0-23.0-0.0,33733,List1A,black,man,,,,null,,,,
1728,<p>You got 8 out of 8 right first time. Press Continue.</p>,0,html-button-response,127,798433,0.0-14.0-25.0,33733,List1A,black,man,,,,,,,,
null,"<div style=""font-size:60px;"">+</div>",,html-keyboard-response,128,800013,0.0-15.0-0.0,33733,List1A,black,man,,,,null,,,,
null,"<img src=""stim_listA/marry1.gif""</stim_listA>",,html-keyboard-response,129,802071,0.0-15.0-1.0,33733,List1A,black,man,,,,null,,,,
null,is marrying,,html-keyboard-response,130,804122,0.0-15.0-2.0,33733,List1A,black,man,,,,null,,,,
10494,,,survey-text,131,814620,0.0-15.0-3.0,33733,List1A,black,man,,,,,"{""Q0"":""beth is marrying mike""}","<img src=""stim_listA/marry1.gif""</stim_listA>",is marrying,
null,"<div style=""font-size:60px;"">+</div>",,html-keyboard-response,132,815135,0.0-15.0-0.1,33733,List1A,black,man,,,,null,,,,
null,"<img src=""stim_listA/fight5.gif""</stim_listA>",,html-keyboard-response,133,817158,0.0-15.0-1.1,33733,List1A,black,man,,,,null,,,,
null,is fighting,,html-keyboard-response,134,819159,0.0-15.0-2.1,33733,List1A,black,man,,,,null,,,,
13333,,,survey-text,135,832518,0.0-15.0-3.1,33733,List1A,black,man,,,,,"{""Q0"":""mike is fighting dave""}","<img src=""stim_listA/fight5.gif""</stim_listA>",is fighting,
null,"<div style=""font-size:60px;"">+</div>",,html-keyboard-response,136,833023,0.0-15.0-0.2,33733,List1A,black,man,,,,null,,,,
null,"<img src=""stim_listA/marry6.gif""</stim_listA>",,html-keyboard-response,137,835042,0.0-15.0-1.2,33733,List1A,black,man,,,,null,,,,
null,are marrying each other,,html-keyboard-response,138,837078,0.0-15.0-2.2,33733,List1A,black,man,,,,null,,,,
16022,,,survey-text,139,853104,0.0-15.0-3.2,33733,List1A,black,man,,,,,"{""Q0"":""dave and mike are marrying each other""}","<img src=""stim_listA/marry6.gif""</stim_listA>",are marrying each other,
null,"<div style=""font-size:60px;"">+</div>",,html-keyboard-response,140,853635,0.0-15.0-0.3,33733,List1A,black,man,,,,null,,,,
null,"<img src=""stim_listA/talk5.gif""</stim_listA>",,html-keyboard-response,141,855685,0.0-15.0-1.3,33733,List1A,black,man,,,,null,,,,
null,is talking to,,html-keyboard-response,142,857696,0.0-15.0-2.3,33733,List1A,black,man,,,,null,,,,
9584,,,survey-text,143,867283,0.0-15.0-3.3,33733,List1A,black,man,,,,,"{""Q0"":""dave is talking to fred""}","<img src=""stim_listA/talk5.gif""</stim_listA>",is talking to,
null,"<div style=""font-size:60px;"">+</div>",,html-keyboard-response,144,867785,0.0-15.0-0.4,33733,List1A,black,man,,,,null,,,,
null,"<img src=""stim_listA/dance8.gif""</stim_listA>",,html-keyboard-response,145,869796,0.0-15.0-1.4,33733,List1A,black,man,,,,null,,,,
null,are dancing with each other,,html-keyboard-response,146,871834,0.0-15.0-2.4,33733,List1A,black,man,,,,null,,,,
9452,,,survey-text,147,881289,0.0-15.0-3.4,33733,List1A,black,man,,,,,"{""Q0"":""ruth and kate are dancing with each other""}","<img src=""stim_listA/dance8.gif""</stim_listA>",are dancing with each other,
null,"<div style=""font-size:60px;"">+</div>",,html-keyboard-response,148,881803,0.0-15.0-0.5,33733,List1A,black,man,,,,null,,,,
null,"<img src=""stim_listA/shout2.gif""</stim_listA>",,html-keyboard-response,149,883851,0.0-15.0-1.5,33733,List1A,black,man,,,,null,,,,
null,are shouting at each other,,html-keyboard-response,150,885901,0.0-15.0-2.5,33733,List1A,black,man,,,,null,,,,
10047,,,survey-text,151,895953,0.0-15.0-3.5,33733,List1A,black,man,,,,,"{""Q0"":""kate and mike are shouting at each other""}","<img src=""stim_listA/shout2.gif""</stim_listA>",are shouting at each other,
null,"<div style=""font-size:60px;"">+</div>",,html-keyboard-response,152,896493,0.0-15.0-0.6,33733,List1A,black,man,,,,null,,,,
null,"<img src=""stim_listA/fight8.gif""</stim_listA>",,html-keyboard-response,153,898500,0.0-15.0-1.6,33733,List1A,black,man,,,,null,,,,
null,are fighting each other,,html-keyboard-response,154,900526,0.0-15.0-2.6,33733,List1A,black,man,,,,null,,,,
18852,,,survey-text,155,919415,0.0-15.0-3.6,33733,List1A,black,man,,,,,"{""Q0"":""kate and beth are fighting each other""}","<img src=""stim_listA/fight8.gif""</stim_listA>",are fighting each other,
null,"<div style=""font-size:60px;"">+</div>",,html-keyboard-response,156,919921,0.0-15.0-0.7,33733,List1A,black,man,,,,null,,,,
null,"<img src=""stim_listA/fight7.gif""</stim_listA>",,html-keyboard-response,157,921936,0.0-15.0-1.7,33733,List1A,black,man,,,,null,,,,
null,is fighting,,html-keyboard-response,158,923960,0.0-15.0-2.7,33733,List1A,black,man,,,,null,,,,
10720,,,survey-text,159,934703,0.0-15.0-3.7,33733,List1A,black,man,,,,,"{""Q0"":""kate is fighting jane""}","<img src=""stim_listA/fight7.gif""</stim_listA>",is fighting,
null,"<div style=""font-size:60px;"">+</div>",,html-keyboard-response,160,935227,0.0-15.0-0.8,33733,List1A,black,man,,,,null,,,,
null,"<img src=""stim_listA/meet1.gif""</stim_listA>",,html-keyboard-response,161,937262,0.0-15.0-1.8,33733,List1A,black,man,,,,null,,,,
null,is meeting,,html-keyboard-response,162,939313,0.0-15.0-2.8,33733,List1A,black,man,,,,null,,,,
7783,,,survey-text,163,947100,0.0-15.0-3.8,33733,List1A,black,man,,,,,"{""Q0"":""kate is meeting mike""}","<img src=""stim_listA/meet1.gif""</stim_listA>",is meeting,
null,"<div style=""font-size:60px;"">+</div>",,html-keyboard-response,164,947611,0.0-15.0-0.9,33733,List1A,black,man,,,,null,,,,
null,"<img src=""stim_listA/shout1.gif""</stim_listA>",,html-keyboard-response,165,949687,0.0-15.0-1.9,33733,List1A,black,man,,,,null,,,,
null,is shouting at,,html-keyboard-response,166,951733,0.0-15.0-2.9,33733,List1A,black,man,,,,null,,,,
8259,,,survey-text,167,960011,0.0-15.0-3.9,33733,List1A,black,man,,,,,"{""Q0"":""fred is shouting at kate""}","<img src=""stim_listA/shout1.gif""</stim_listA>",is shouting at,
null,"<div style=""font-size:60px;"">+</div>",,html-keyboard-response,168,960558,0.0-15.0-0.10,33733,List1A,black,man,,,,null,,,,
null,"<img src=""stim_listA/talk4.gif""</stim_listA>",,html-keyboard-response,169,962612,0.0-15.0-1.10,33733,List1A,black,man,,,,null,,,,
null,are talking to each other,,html-keyboard-response,170,964659,0.0-15.0-2.10,33733,List1A,black,man,,,,null,,,,
15469,,,survey-text,171,980131,0.0-15.0-3.10,33733,List1A,black,man,,,,,"{""Q0"":""ruth and dave are talking to each other""}","<img src=""stim_listA/talk4.gif""</stim_listA>",are talking to each other,
null,"<div style=""font-size:60px;"">+</div>",,html-keyboard-response,172,980689,0.0-15.0-0.11,33733,List1A,black,man,,,,null,,,,
null,"<img src=""stim_listA/argue5.gif""</stim_listA>",,html-keyboard-response,173,982791,0.0-15.0-1.11,33733,List1A,black,man,,,,null,,,,
null,is arguing with,,html-keyboard-response,174,984862,0.0-15.0-2.11,33733,List1A,black,man,,,,null,,,,
9674,,,survey-text,175,994539,0.0-15.0-3.11,33733,List1A,black,man,,,,,"{""Q0"":""mike is arguing with luke""}","<img src=""stim_listA/argue5.gif""</stim_listA>",is arguing with,
null,"<div style=""font-size:60px;"">+</div>",,html-keyboard-response,176,995041,0.0-15.0-0.12,33733,List1A,black,man,,,,null,,,,
null,"<img src=""stim_listA/talk3.gif""</stim_listA>",,html-keyboard-response,177,997060,0.0-15.0-1.12,33733,List1A,black,man,,,,null,,,,
null,is talking to,,html-keyboard-response,178,999070,0.0-15.0-2.12,33733,List1A,black,man,,,,null,,,,
8532,,,survey-text,179,1007605,0.0-15.0-3.12,33733,List1A,black,man,,,,,"{""Q0"":""luke is talking to jane""}","<img src=""stim_listA/talk3.gif""</stim_listA>",is talking to,
null,"<div style=""font-size:60px;"">+</div>",,html-keyboard-response,180,1008145,0.0-15.0-0.13,33733,List1A,black,man,,,,null,,,,
null,"<img src=""stim_listA/hug2.gif""</stim_listA>",,html-keyboard-response,181,1010212,0.0-15.0-1.13,33733,List1A,black,man,,,,null,,,,
null,are hugging each other,,html-keyboard-response,182,1012216,0.0-15.0-2.13,33733,List1A,black,man,,,,null,,,,
15758,,,survey-text,183,1027978,0.0-15.0-3.13,33733,List1A,black,man,,,,,"{""Q0"":""mike and kate are hugging each other""}","<img src=""stim_listA/hug2.gif""</stim_listA>",are hugging each other,
null,"<div style=""font-size:60px;"">+</div>",,html-keyboard-response,184,1028495,0.0-15.0-0.14,33733,List1A,black,man,,,,null,,,,
null,"<img src=""stim_listA/argue6.gif""</stim_listA>",,html-keyboard-response,185,1030532,0.0-15.0-1.14,33733,List1A,black,man,,,,null,,,,
null,are arguing with each other,,html-keyboard-response,186,1032541,0.0-15.0-2.14,33733,List1A,black,man,,,,null,,,,
15216,,,survey-text,187,1047759,0.0-15.0-3.14,33733,List1A,black,man,,,,,"{""Q0"":""fred and dave are arguing with each other""}","<img src=""stim_listA/argue6.gif""</stim_listA>",are arguing with each other,
null,"<div style=""font-size:60px;"">+</div>",,html-keyboard-response,188,1048278,0.0-15.0-0.15,33733,List1A,black,man,,,,null,,,,
null,"<img src=""stim_listA/hug1.gif""</stim_listA>",,html-keyboard-response,189,1050285,0.0-15.0-1.15,33733,List1A,black,man,,,,null,,,,
null,is hugging,,html-keyboard-response,190,1052407,0.0-15.0-2.15,33733,List1A,black,man,,,,null,,,,
7918,,,survey-text,191,1060329,0.0-15.0-3.15,33733,List1A,black,man,,,,,"{""Q0"":""fred is hugging beth""}","<img src=""stim_listA/hug1.gif""</stim_listA>",is hugging,
null,"<div style=""font-size:60px;"">+</div>",,html-keyboard-response,192,1060839,0.0-15.0-0.16,33733,List1A,black,man,,,,null,,,,
null,"<img src=""stim_listA/dance6.gif""</stim_listA>",,html-keyboard-response,193,1062889,0.0-15.0-1.16,33733,List1A,black,man,,,,null,,,,
null,are dancing with each other,,html-keyboard-response,194,1064894,0.0-15.0-2.16,33733,List1A,black,man,,,,null,,,,
9549,,,survey-text,195,1074472,0.0-15.0-3.16,33733,List1A,black,man,,,,,"{""Q0"":""luke and mike are dancing with each other""}","<img src=""stim_listA/dance6.gif""</stim_listA>",are dancing with each other,
null,"<div style=""font-size:60px;"">+</div>",,html-keyboard-response,196,1075031,0.0-15.0-0.17,33733,List1A,black,man,,,,null,,,,
null,"<img src=""stim_listA/argue2.gif""</stim_listA>",,html-keyboard-response,197,1077107,0.0-15.0-1.17,33733,List1A,black,man,,,,null,,,,
null,are arguing with each other,,html-keyboard-response,198,1079158,0.0-15.0-2.17,33733,List1A,black,man,,,,null,,,,
17842,,,survey-text,199,1097004,0.0-15.0-3.17,33733,List1A,black,man,,,,,"{""Q0"":""fred and kate are agruing with other""}","<img src=""stim_listA/argue2.gif""</stim_listA>",are arguing with each other,
null,"<div style=""font-size:60px;"">+</div>",,html-keyboard-response,200,1097518,0.0-15.0-0.18,33733,List1A,black,man,,,,null,,,,
null,"<img src=""stim_listA/kiss6.gif""</stim_listA>",,html-keyboard-response,201,1099581,0.0-15.0-1.18,33733,List1A,black,man,,,,null,,,,
null,are kissing each other,,html-keyboard-response,202,1101610,0.0-15.0-2.18,33733,List1A,black,man,,,,null,,,,
10158,,,survey-text,203,1111772,0.0-15.0-3.18,33733,List1A,black,man,,,,,"{""Q0"":""dave and mike are kissing each other""}","<img src=""stim_listA/kiss6.gif""</stim_listA>",are kissing each other,
null,"<div style=""font-size:60px;"">+</div>",,html-keyboard-response,204,1112310,0.0-15.0-0.19,33733,List1A,black,man,,,,null,,,,
null,"<img src=""stim_listA/meet5.gif""</stim_listA>",,html-keyboard-response,205,1114378,0.0-15.0-1.19,33733,List1A,black,man,,,,null,,,,
null,is meeting,,html-keyboard-response,206,1116430,0.0-15.0-2.19,33733,List1A,black,man,,,,null,,,,
6897,,,survey-text,207,1123341,0.0-15.0-3.19,33733,List1A,black,man,,,,,"{""Q0"":""fred is meeting dave""}","<img src=""stim_listA/meet5.gif""</stim_listA>",is meeting,
6234,"<img src='img/portrait_matrix_list1.JPG' style='width:900px;height:500px;''></img><p>If you have memorised all the portraits and names and are ready to start, press Continue.</p><p><strong>Please note: Your memory of these faces will be tested 4 times during this experiment.</strong></p>",0,html-button-response,208,1129579,0.0-16.0-0.0,33733,List1A,black,man,,,,,,,,
3442,"<img src=""portrait/BW1.jpg""style=""width:400px;height:400px;""></img>",0,html-button-response,209,1134045,0.0-16.0-1.0,33733,List1A,black,man,,TRUE,0,,,,,
null,CORRECT,,html-keyboard-response,210,1135641,0.0-16.0-2.0-0.0,33733,List1A,black,man,,,,null,,,,
4618,"<img src=""portrait/WW1.jpg""style=""width:400px;height:400px;""></img>",1,html-button-response,211,1140264,0.0-16.0-4.0,33733,List1A,black,man,,TRUE,1,,,,,
null,CORRECT,,html-keyboard-response,212,1141821,0.0-16.0-5.0-0.0,33733,List1A,black,man,,,,null,,,,
4436,"<img src=""portrait/BM2.jpg""style=""width:400px;height:400px;""></img>",5,html-button-response,213,1146289,0.0-16.0-7.0,33733,List1A,black,man,,TRUE,5,,,,,
null,CORRECT,,html-keyboard-response,214,1147891,0.0-16.0-8.0-0.0,33733,List1A,black,man,,,,null,,,,
2203,"<img src=""portrait/WM2.jpg""style=""width:400px;height:400px;""></img>",7,html-button-response,215,1150130,0.0-16.0-10.0,33733,List1A,black,man,,TRUE,7,,,,,
null,CORRECT,,html-keyboard-response,216,1151704,0.0-16.0-11.0-0.0,33733,List1A,black,man,,,,null,,,,
2770,"<img src=""portrait/BW2.jpg""style=""width:400px;height:400px;""></img>",2,html-button-response,217,1154499,0.0-16.0-13.0,33733,List1A,black,man,,TRUE,2,,,,,
null,CORRECT,,html-keyboard-response,218,1156011,0.0-16.0-14.0-0.0,33733,List1A,black,man,,,,null,,,,
2288,"<img src=""portrait/WW2.jpg""style=""width:400px;height:400px;""></img>",3,html-button-response,219,1158307,0.0-16.0-16.0,33733,List1A,black,man,,TRUE,3,,,,,
null,CORRECT,,html-keyboard-response,220,1159992,0.0-16.0-17.0-0.0,33733,List1A,black,man,,,,null,,,,
2263,"<img src=""portrait/BM1.jpg""style=""width:400px;height:400px;""></img>",4,html-button-response,221,1162261,0.0-16.0-19.0,33733,List1A,black,man,,TRUE,4,,,,,
null,CORRECT,,html-keyboard-response,222,1163844,0.0-16.0-20.0-0.0,33733,List1A,black,man,,,,null,,,,
3523,"<img src=""portrait/WM1.jpg""style=""width:400px;height:400px;""></img>",6,html-button-response,223,1167396,0.0-16.0-22.0,33733,List1A,black,man,,TRUE,6,,,,,
null,CORRECT,,html-keyboard-response,224,1168947,0.0-16.0-23.0-0.0,33733,List1A,black,man,,,,null,,,,
2307,<p>You got 8 out of 8 right first time. Press Continue.</p>,0,html-button-response,225,1171261,0.0-16.0-25.0,33733,List1A,black,man,,,,,,,,
null,"<div style=""font-size:60px;"">+</div>",,html-keyboard-response,226,1172841,0.0-17.0-0.0,33733,List1A,black,man,,,,null,,,,
null,"<img src=""stim_listA/meet4.gif""</stim_listA>",,html-keyboard-response,227,1174913,0.0-17.0-1.0,33733,List1A,black,man,,,,null,,,,
null,are meeting each other,,html-keyboard-response,228,1176928,0.0-17.0-2.0,33733,List1A,black,man,,,,null,,,,
15766,,,survey-text,229,1192698,0.0-17.0-3.0,33733,List1A,black,man,,,,,"{""Q0"":""ruth and luke are meeting each other""}","<img src=""stim_listA/meet4.gif""</stim_listA>",are meeting each other,
null,"<div style=""font-size:60px;"">+</div>",,html-keyboard-response,230,1193264,0.0-17.0-0.1,33733,List1A,black,man,,,,null,,,,
null,"<img src=""stim_listA/talk7.gif""</stim_listA>",,html-keyboard-response,231,1195340,0.0-17.0-1.1,33733,List1A,black,man,,,,null,,,,
null,is talking to,,html-keyboard-response,232,1197374,0.0-17.0-2.1,33733,List1A,black,man,,,,null,,,,
28252,,,survey-text,233,1225630,0.0-17.0-3.1,33733,List1A,black,man,,,,,"{""Q0"":""jane is talking to kate""}","<img src=""stim_listA/talk7.gif""</stim_listA>",is talking to,
null,"<div style=""font-size:60px;"">+</div>",,html-keyboard-response,234,1226216,0.0-17.0-0.2,33733,List1A,black,man,,,,null,,,,
null,"<img src=""stim_listA/shout6.gif""</stim_listA>",,html-keyboard-response,235,1228270,0.0-17.0-1.2,33733,List1A,black,man,,,,null,,,,
null,are shouting at each other,,html-keyboard-response,236,1230294,0.0-17.0-2.2,33733,List1A,black,man,,,,null,,,,
13406,,,survey-text,237,1243703,0.0-17.0-3.2,33733,List1A,black,man,,,,,"{""Q0"":""dave and mike are shouting at each other""}","<img src=""stim_listA/shout6.gif""</stim_listA>",are shouting at each other,
null,"<div style=""font-size:60px;"">+</div>",,html-keyboard-response,238,1244245,0.0-17.0-0.3,33733,List1A,black,man,,,,null,,,,
null,"<img src=""stim_listA/dance3.gif""</stim_listA>",,html-keyboard-response,239,1246281,0.0-17.0-1.3,33733,List1A,black,man,,,,null,,,,
null,is dancing with,,html-keyboard-response,240,1248287,0.0-17.0-2.3,33733,List1A,black,man,,,,null,,,,
9069,,,survey-text,241,1257368,0.0-17.0-3.3,33733,List1A,black,man,,,,,"{""Q0"":""luke is dancing with jane""}","<img src=""stim_listA/dance3.gif""</stim_listA>",is dancing with,
null,"<div style=""font-size:60px;"">+</div>",,html-keyboard-response,242,1257876,0.0-17.0-0.4,33733,List1A,black,man,,,,null,,,,
null,"<img src=""stim_listA/kiss2.gif""</stim_listA>",,html-keyboard-response,243,1259885,0.0-17.0-1.4,33733,List1A,black,man,,,,null,,,,
null,are kissing each other,,html-keyboard-response,244,1261909,0.0-17.0-2.4,33733,List1A,black,man,,,,null,,,,
14843,,,survey-text,245,1276755,0.0-17.0-3.4,33733,List1A,black,man,,,,,"{""Q0"":""mike and kate are kissing each other""}","<img src=""stim_listA/kiss2.gif""</stim_listA>",are kissing each other,
null,"<div style=""font-size:60px;"">+</div>",,html-keyboard-response,246,1277263,0.0-17.0-0.5,33733,List1A,black,man,,,,null,,,,
null,"<img src=""stim_listA/shout4.gif""</stim_listA>",,html-keyboard-response,247,1279270,0.0-17.0-1.5,33733,List1A,black,man,,,,null,,,,
null,are shouting at each other,,html-keyboard-response,248,1281287,0.0-17.0-2.5,33733,List1A,black,man,,,,null,,,,
11522,,,survey-text,249,1292812,0.0-17.0-3.5,33733,List1A,black,man,,,,,"{""Q0"":""dave and jane are shouting at each other""}","<img src=""stim_listA/shout4.gif""</stim_listA>",are shouting at each other,
null,"<div style=""font-size:60px;"">+</div>",,html-keyboard-response,250,1293354,0.0-17.0-0.6,33733,List1A,black,man,,,,null,,,,
null,"<img src=""stim_listA/touch6.gif""</stim_listA>",,html-keyboard-response,251,1295401,0.0-17.0-1.6,33733,List1A,black,man,,,,null,,,,
null,are touching each other,,html-keyboard-response,252,1297434,0.0-17.0-2.6,33733,List1A,black,man,,,,null,,,,
32301,,,survey-text,253,1329739,0.0-17.0-3.6,33733,List1A,black,man,,,,,"{""Q0"":""fred is touching luke""}","<img src=""stim_listA/touch6.gif""</stim_listA>",are touching each other,
null,"<div style=""font-size:60px;"">+</div>",,html-keyboard-response,254,1330354,0.0-17.0-0.7,33733,List1A,black,man,,,,null,,,,
null,"<img src=""stim_listA/shout8.gif""</stim_listA>",,html-keyboard-response,255,1332368,0.0-17.0-1.7,33733,List1A,black,man,,,,null,,,,
null,are shouting at each other,,html-keyboard-response,256,1334429,0.0-17.0-2.7,33733,List1A,black,man,,,,null,,,,
14994,,,survey-text,257,1349426,0.0-17.0-3.7,33733,List1A,black,man,,,,,"{""Q0"":""kate and jane are shouting at each other""}","<img src=""stim_listA/shout8.gif""</stim_listA>",are shouting at each other,
null,"<div style=""font-size:60px;"">+</div>",,html-keyboard-response,258,1349992,0.0-17.0-0.8,33733,List1A,black,man,,,,null,,,,
null,"<img src=""stim_listA/touch2.gif""</stim_listA>",,html-keyboard-response,259,1352000,0.0-17.0-1.8,33733,List1A,black,man,,,,null,,,,
null,are touching each other,,html-keyboard-response,260,1354010,0.0-17.0-2.8,33733,List1A,black,man,,,,null,,,,
22320,,,survey-text,261,1376334,0.0-17.0-3.8,33733,List1A,black,man,,,,,"{""Q0"":""beth and mike are talking to each other""}","<img src=""stim_listA/touch2.gif""</stim_listA>",are touching each other,
null,"<div style=""font-size:60px;"">+</div>",,html-keyboard-response,262,1376855,0.0-17.0-0.9,33733,List1A,black,man,,,,null,,,,
null,"<img src=""stim_listA/touch4.gif""</stim_listA>",,html-keyboard-response,263,1378881,0.0-17.0-1.9,33733,List1A,black,man,,,,null,,,,
null,are touching each other,,html-keyboard-response,264,1380942,0.0-17.0-2.9,33733,List1A,black,man,,,,null,,,,
15050,,,survey-text,265,1395995,0.0-17.0-3.9,33733,List1A,black,man,,,,,"{""Q0"":""luke and ruth are touching each other""}","<img src=""stim_listA/touch4.gif""</stim_listA>",are touching each other,
null,"<div style=""font-size:60px;"">+</div>",,html-keyboard-response,266,1396502,0.0-17.0-0.10,33733,List1A,black,man,,,,null,,,,
null,"<img src=""stim_listA/kiss4.gif""</stim_listA>",,html-keyboard-response,267,1398549,0.0-17.0-1.10,33733,List1A,black,man,,,,null,,,,
null,are kissing each other,,html-keyboard-response,268,1400570,0.0-17.0-2.10,33733,List1A,black,man,,,,null,,,,
18559,,,survey-text,269,1419132,0.0-17.0-3.10,33733,List1A,black,man,,,,,"{""Q0"":""dave and jane are kissing each other""}","<img src=""stim_listA/kiss4.gif""</stim_listA>",are kissing each other,
null,"<div style=""font-size:60px;"">+</div>",,html-keyboard-response,270,1419641,0.0-17.0-0.11,33733,List1A,black,man,,,,null,,,,
null,"<img src=""stim_listA/touch1.gif""</stim_listA>",,html-keyboard-response,271,1421716,0.0-17.0-1.11,33733,List1A,black,man,,,,null,,,,
null,is touching,,html-keyboard-response,272,1423735,0.0-17.0-2.11,33733,List1A,black,man,,,,null,,,,
10043,,,survey-text,273,1433781,0.0-17.0-3.11,33733,List1A,black,man,,,,,"{""Q0"":""mike is touching kate""}","<img src=""stim_listA/touch1.gif""</stim_listA>",is touching,
null,"<div style=""font-size:60px;"">+</div>",,html-keyboard-response,274,1434300,0.0-17.0-0.12,33733,List1A,black,man,,,,null,,,,
null,"<img src=""stim_listA/dance4.gif""</stim_listA>",,html-keyboard-response,275,1436359,0.0-17.0-1.12,33733,List1A,black,man,,,,null,,,,
null,are dancing with each other,,html-keyboard-response,276,1438363,0.0-17.0-2.12,33733,List1A,black,man,,,,null,,,,
14720,,,survey-text,277,1453087,0.0-17.0-3.12,33733,List1A,black,man,,,,,"{""Q0"":""dave and ruth are dancing with each other""}","<img src=""stim_listA/dance4.gif""</stim_listA>",are dancing with each other,
null,"<div style=""font-size:60px;"">+</div>",,html-keyboard-response,278,1453590,0.0-17.0-0.13,33733,List1A,black,man,,,,null,,,,
null,"<img src=""stim_listA/fight1.gif""</stim_listA>",,html-keyboard-response,279,1455665,0.0-17.0-1.13,33733,List1A,black,man,,,,null,,,,
null,is fighting,,html-keyboard-response,280,1457670,0.0-17.0-2.13,33733,List1A,black,man,,,,null,,,,
7170,,,survey-text,281,1464844,0.0-17.0-3.13,33733,List1A,black,man,,,,,"{""Q0"":""mike is fighting kate""}","<img src=""stim_listA/fight1.gif""</stim_listA>",is fighting,
null,"<div style=""font-size:60px;"">+</div>",,html-keyboard-response,282,1465357,0.0-17.0-0.14,33733,List1A,black,man,,,,null,,,,
null,"<img src=""stim_listA/meet7.gif""</stim_listA>",,html-keyboard-response,283,1467465,0.0-17.0-1.14,33733,List1A,black,man,,,,null,,,,
null,is meeting,,html-keyboard-response,284,1469501,0.0-17.0-2.14,33733,List1A,black,man,,,,null,,,,
6053,,,survey-text,285,1475557,0.0-17.0-3.14,33733,List1A,black,man,,,,,"{""Q0"":""kate is meeting jane""}","<img src=""stim_listA/meet7.gif""</stim_listA>",is meeting,
null,"<div style=""font-size:60px;"">+</div>",,html-keyboard-response,286,1476061,0.0-17.0-0.15,33733,List1A,black,man,,,,null,,,,
null,"<img src=""stim_listA/marry8.gif""</stim_listA>",,html-keyboard-response,287,1478209,0.0-17.0-1.15,33733,List1A,black,man,,,,null,,,,
null,are marrying each other,,html-keyboard-response,288,1480259,0.0-17.0-2.15,33733,List1A,black,man,,,,null,,,,
10530,,,survey-text,289,1490810,0.0-17.0-3.15,33733,List1A,black,man,,,,,"{""Q0"":""jane and beth are marrying each other""}","<img src=""stim_listA/marry8.gif""</stim_listA>",are marrying each other,
null,"<div style=""font-size:60px;"">+</div>",,html-keyboard-response,290,1491400,0.0-17.0-0.16,33733,List1A,black,man,,,,null,,,,
null,"<img src=""stim_listA/meet3.gif""</stim_listA>",,html-keyboard-response,291,1493473,0.0-17.0-1.16,33733,List1A,black,man,,,,null,,,,
null,is meeting,,html-keyboard-response,292,1495527,0.0-17.0-2.16,33733,List1A,black,man,,,,null,,,,
7442,,,survey-text,293,1502973,0.0-17.0-3.16,33733,List1A,black,man,,,,,"{""Q0"":""dave is meeting jane""}","<img src=""stim_listA/meet3.gif""</stim_listA>",is meeting,
null,"<div style=""font-size:60px;"">+</div>",,html-keyboard-response,294,1503528,0.0-17.0-0.17,33733,List1A,black,man,,,,null,,,,
null,"<img src=""stim_listA/hug4.gif""</stim_listA>",,html-keyboard-response,295,1505540,0.0-17.0-1.17,33733,List1A,black,man,,,,null,,,,
null,are hugging each other,,html-keyboard-response,296,1507578,0.0-17.0-2.17,33733,List1A,black,man,,,,null,,,,
10478,,,survey-text,297,1518063,0.0-17.0-3.17,33733,List1A,black,man,,,,,"{""Q0"":""dave and jane are hugging each other""}","<img src=""stim_listA/hug4.gif""</stim_listA>",are hugging each other,
null,"<div style=""font-size:60px;"">+</div>",,html-keyboard-response,298,1518591,0.0-17.0-0.18,33733,List1A,black,man,,,,null,,,,
null,"<img src=""stim_listA/dance7.gif""</stim_listA>",,html-keyboard-response,299,1520626,0.0-17.0-1.18,33733,List1A,black,man,,,,null,,,,
null,is dancing with,,html-keyboard-response,300,1522637,0.0-17.0-2.18,33733,List1A,black,man,,,,null,,,,
6817,,,survey-text,301,1529458,0.0-17.0-3.18,33733,List1A,black,man,,,,,"{""Q0"":""beth is dancing with jane""}","<img src=""stim_listA/dance7.gif""</stim_listA>",is dancing with,
null,"<div style=""font-size:60px;"">+</div>",,html-keyboard-response,302,1529961,0.0-17.0-0.19,33733,List1A,black,man,,,,null,,,,
null,"<img src=""stim_listA/meet8.gif""</stim_listA>",,html-keyboard-response,303,1532014,0.0-17.0-1.19,33733,List1A,black,man,,,,null,,,,
null,are meeting each other,,html-keyboard-response,304,1534038,0.0-17.0-2.19,33733,List1A,black,man,,,,null,,,,
8741,,,survey-text,305,1542790,0.0-17.0-3.19,33733,List1A,black,man,,,,,"{""Q0"":""ruth and beth are meeting each other""}","<img src=""stim_listA/meet8.gif""</stim_listA>",are meeting each other,
2164,"<img src='img/portrait_matrix_list1.JPG' style='width:900px;height:500px;''></img><p>If you have memorised all the portraits and names and are ready to start, press Continue.</p><p><strong>Please note: Your memory of these faces will be tested 4 times during this experiment.</strong></p>",0,html-button-response,306,1544959,0.0-18.0-0.0,33733,List1A,black,man,,,,,,,,
3453,"<img src=""portrait/BW1.jpg""style=""width:400px;height:400px;""></img>",0,html-button-response,307,1549440,0.0-18.0-1.0,33733,List1A,black,man,,TRUE,0,,,,,
null,CORRECT,,html-keyboard-response,308,1550942,0.0-18.0-2.0-0.0,33733,List1A,black,man,,,,null,,,,
2403,"<img src=""portrait/WM2.jpg""style=""width:400px;height:400px;""></img>",7,html-button-response,309,1553350,0.0-18.0-4.0,33733,List1A,black,man,,TRUE,7,,,,,
null,CORRECT,,html-keyboard-response,310,1554920,0.0-18.0-5.0-0.0,33733,List1A,black,man,,,,null,,,,
2920,"<img src=""portrait/WW1.jpg""style=""width:400px;height:400px;""></img>",1,html-button-response,311,1557862,0.0-18.0-7.0,33733,List1A,black,man,,TRUE,1,,,,,
null,CORRECT,,html-keyboard-response,312,1559456,0.0-18.0-8.0-0.0,33733,List1A,black,man,,,,null,,,,
2552,"<img src=""portrait/BM2.jpg""style=""width:400px;height:400px;""></img>",5,html-button-response,313,1562077,0.0-18.0-10.0,33733,List1A,black,man,,TRUE,5,,,,,
null,CORRECT,,html-keyboard-response,314,1563610,0.0-18.0-11.0-0.0,33733,List1A,black,man,,,,null,,,,
2057,"<img src=""portrait/WW2.jpg""style=""width:400px;height:400px;""></img>",3,html-button-response,315,1565673,0.0-18.0-13.0,33733,List1A,black,man,,TRUE,3,,,,,
null,CORRECT,,html-keyboard-response,316,1567225,0.0-18.0-14.0-0.0,33733,List1A,black,man,,,,null,,,,
2502,"<img src=""portrait/BW2.jpg""style=""width:400px;height:400px;""></img>",2,html-button-response,317,1569734,0.0-18.0-16.0,33733,List1A,black,man,,TRUE,2,,,,,
null,CORRECT,,html-keyboard-response,318,1571300,0.0-18.0-17.0-0.0,33733,List1A,black,man,,,,null,,,,
3078,"<img src=""portrait/BM1.jpg""style=""width:400px;height:400px;""></img>",4,html-button-response,319,1574391,0.0-18.0-19.0,33733,List1A,black,man,,TRUE,4,,,,,
null,CORRECT,,html-keyboard-response,320,1576174,0.0-18.0-20.0-0.0,33733,List1A,black,man,,,,null,,,,
4255,"<img src=""portrait/WM1.jpg""style=""width:400px;height:400px;""></img>",6,html-button-response,321,1580473,0.0-18.0-22.0,33733,List1A,black,man,,TRUE,6,,,,,
null,CORRECT,,html-keyboard-response,322,1582023,0.0-18.0-23.0-0.0,33733,List1A,black,man,,,,null,,,,
2101,<p>You got 8 out of 8 right first time. Press Continue.</p>,0,html-button-response,323,1584146,0.0-18.0-25.0,33733,List1A,black,man,,,,,,,,
null,"<div style=""font-size:60px;"">+</div>",,html-keyboard-response,324,1585666,0.0-19.0-0.0,33733,List1A,black,man,,,,null,,,,
null,"<img src=""stim_listA/marry5.gif""</stim_listA>",,html-keyboard-response,325,1587673,0.0-19.0-1.0,33733,List1A,black,man,,,,null,,,,
null,is marrying,,html-keyboard-response,326,1589693,0.0-19.0-2.0,33733,List1A,black,man,,,,null,,,,
9403,,,survey-text,327,1599117,0.0-19.0-3.0,33733,List1A,black,man,,,,,"{""Q0"":""mike is marrying luke""}","<img src=""stim_listA/marry5.gif""</stim_listA>",is marrying,
null,"<div style=""font-size:60px;"">+</div>",,html-keyboard-response,328,1599628,0.0-19.0-0.1,33733,List1A,black,man,,,,null,,,,
null,"<img src=""stim_listA/meet6.gif""</stim_listA>",,html-keyboard-response,329,1601637,0.0-19.0-1.1,33733,List1A,black,man,,,,null,,,,
null,are meeting each other,,html-keyboard-response,330,1603667,0.0-19.0-2.1,33733,List1A,black,man,,,,null,,,,
9983,,,survey-text,331,1613653,0.0-19.0-3.1,33733,List1A,black,man,,,,,"{""Q0"":""luke and fred are meeting each other""}","<img src=""stim_listA/meet6.gif""</stim_listA>",are meeting each other,
null,"<div style=""font-size:60px;"">+</div>",,html-keyboard-response,332,1614155,0.0-19.0-0.2,33733,List1A,black,man,,,,null,,,,
null,"<img src=""stim_listA/dance1.gif""</stim_listA>",,html-keyboard-response,333,1616176,0.0-19.0-1.2,33733,List1A,black,man,,,,null,,,,
null,is dancing with,,html-keyboard-response,334,1618181,0.0-19.0-2.2,33733,List1A,black,man,,,,null,,,,
6663,,,survey-text,335,1624848,0.0-19.0-3.2,33733,List1A,black,man,,,,,"{""Q0"":""fred is dancing with kate""}","<img src=""stim_listA/dance1.gif""</stim_listA>",is dancing with,
null,"<div style=""font-size:60px;"">+</div>",,html-keyboard-response,336,1625386,0.0-19.0-0.3,33733,List1A,black,man,,,,null,,,,
null,"<img src=""stim_listA/marry3.gif""</stim_listA>",,html-keyboard-response,337,1627462,0.0-19.0-1.3,33733,List1A,black,man,,,,null,,,,
null,is marrying,,html-keyboard-response,338,1629464,0.0-19.0-2.3,33733,List1A,black,man,,,,null,,,,
9023,,,survey-text,339,1638491,0.0-19.0-3.3,33733,List1A,black,man,,,,,"{""Q0"":""dave is marrying ruth""}","<img src=""stim_listA/marry3.gif""</stim_listA>",is marrying,
null,"<div style=""font-size:60px;"">+</div>",,html-keyboard-response,340,1639003,0.0-19.0-0.4,33733,List1A,black,man,,,,null,,,,
null,"<img src=""stim_listA/argue4.gif""</stim_listA>",,html-keyboard-response,341,1641054,0.0-19.0-1.4,33733,List1A,black,man,,,,null,,,,
null,are arguing with each other,,html-keyboard-response,342,1643069,0.0-19.0-2.4,33733,List1A,black,man,,,,null,,,,
12245,,,survey-text,343,1655331,0.0-19.0-3.4,33733,List1A,black,man,,,,,"{""Q0"":""jane and luke are arguing with each other""}","<img src=""stim_listA/argue4.gif""</stim_listA>",are arguing with each other,
null,"<div style=""font-size:60px;"">+</div>",,html-keyboard-response,344,1655833,0.0-19.0-0.5,33733,List1A,black,man,,,,null,,,,
null,"<img src=""stim_listA/shout7.gif""</stim_listA>",,html-keyboard-response,345,1657841,0.0-19.0-1.5,33733,List1A,black,man,,,,null,,,,
null,is shouting at,,html-keyboard-response,346,1659851,0.0-19.0-2.5,33733,List1A,black,man,,,,null,,,,
19185,,,survey-text,347,1679113,0.0-19.0-3.5,33733,List1A,black,man,,,,,"{""Q0"":""ruth is shouting at beth""}","<img src=""stim_listA/shout7.gif""</stim_listA>",is shouting at,
null,"<div style=""font-size:60px;"">+</div>",,html-keyboard-response,348,1679686,0.0-19.0-0.6,33733,List1A,black,man,,,,null,,,,
null,"<img src=""stim_listA/hug6.gif""</stim_listA>",,html-keyboard-response,349,1681735,0.0-19.0-1.6,33733,List1A,black,man,,,,null,,,,
null,are hugging each other,,html-keyboard-response,350,1683767,0.0-19.0-2.6,33733,List1A,black,man,,,,null,,,,
7969,,,survey-text,351,1691740,0.0-19.0-3.6,33733,List1A,black,man,,,,,"{""Q0"":""dave and mike are hugging each other""}","<img src=""stim_listA/hug6.gif""</stim_listA>",are hugging each other,
null,"<div style=""font-size:60px;"">+</div>",,html-keyboard-response,352,1692242,0.0-19.0-0.7,33733,List1A,black,man,,,,null,,,,
null,"<img src=""stim_listA/marry7.gif""</stim_listA>",,html-keyboard-response,353,1694277,0.0-19.0-1.7,33733,List1A,black,man,,,,null,,,,
null,is marrying,,html-keyboard-response,354,1696318,0.0-19.0-2.7,33733,List1A,black,man,,,,null,,,,
12636,,,survey-text,355,1708960,0.0-19.0-3.7,33733,List1A,black,man,,,,,"{""Q0"":""kate is marrying ruth ""}","<img src=""stim_listA/marry7.gif""</stim_listA>",is marrying,
null,"<div style=""font-size:60px;"">+</div>",,html-keyboard-response,356,1709464,0.0-19.0-0.8,33733,List1A,black,man,,,,null,,,,
null,"<img src=""stim_listA/kiss7.gif""</stim_listA>",,html-keyboard-response,357,1711490,0.0-19.0-1.8,33733,List1A,black,man,,,,null,,,,
null,is kissing,,html-keyboard-response,358,1713506,0.0-19.0-2.8,33733,List1A,black,man,,,,null,,,,
7154,,,survey-text,359,1720664,0.0-19.0-3.8,33733,List1A,black,man,,,,,"{""Q0"":""ruth is kissing beth""}","<img src=""stim_listA/kiss7.gif""</stim_listA>",is kissing,
null,"<div style=""font-size:60px;"">+</div>",,html-keyboard-response,360,1721189,0.0-19.0-0.9,33733,List1A,black,man,,,,null,,,,
null,"<img src=""stim_listA/touch8.gif""</stim_listA>",,html-keyboard-response,361,1723216,0.0-19.0-1.9,33733,List1A,black,man,,,,null,,,,
null,are touching each other,,html-keyboard-response,362,1725230,0.0-19.0-2.9,33733,List1A,black,man,,,,null,,,,
12406,,,survey-text,363,1737646,0.0-19.0-3.9,33733,List1A,black,man,,,,,"{""Q0"":""beth and ruth are touching each other""}","<img src=""stim_listA/touch8.gif""</stim_listA>",are touching each other,
null,"<div style=""font-size:60px;"">+</div>",,html-keyboard-response,364,1738250,0.0-19.0-0.10,33733,List1A,black,man,,,,null,,,,
null,"<img src=""stim_listA/fight3.gif""</stim_listA>",,html-keyboard-response,365,1740284,0.0-19.0-1.10,33733,List1A,black,man,,,,null,,,,
null,is fighting,,html-keyboard-response,366,1742319,0.0-19.0-2.10,33733,List1A,black,man,,,,null,,,,
7400,,,survey-text,367,1749723,0.0-19.0-3.10,33733,List1A,black,man,,,,,"{""Q0"":""dave is fighting jane""}","<img src=""stim_listA/fight3.gif""</stim_listA>",is fighting,
null,"<div style=""font-size:60px;"">+</div>",,html-keyboard-response,368,1750250,0.0-19.0-0.11,33733,List1A,black,man,,,,null,,,,
null,"<img src=""stim_listA/meet2.gif""</stim_listA>",,html-keyboard-response,369,1752312,0.0-19.0-1.11,33733,List1A,black,man,,,,null,,,,
null,are meeting each other,,html-keyboard-response,370,1754320,0.0-19.0-2.11,33733,List1A,black,man,,,,null,,,,
14273,,,survey-text,371,1768608,0.0-19.0-3.11,33733,List1A,black,man,,,,,"{""Q0"":""beth and fred are meeting each other""}","<img src=""stim_listA/meet2.gif""</stim_listA>",are meeting each other,
null,"<div style=""font-size:60px;"">+</div>",,html-keyboard-response,372,1769134,0.0-19.0-0.12,33733,List1A,black,man,,,,null,,,,
null,"<img src=""stim_listA/hug8.gif""</stim_listA>",,html-keyboard-response,373,1771210,0.0-19.0-1.12,33733,List1A,black,man,,,,null,,,,
null,are hugging each other,,html-keyboard-response,374,1773227,0.0-19.0-2.12,33733,List1A,black,man,,,,null,,,,
9892,,,survey-text,375,1783127,0.0-19.0-3.12,33733,List1A,black,man,,,,,"{""Q0"":""jane and kate is hugging each other""}","<img src=""stim_listA/hug8.gif""</stim_listA>",are hugging each other,
null,"<div style=""font-size:60px;"">+</div>",,html-keyboard-response,376,1783658,0.0-19.0-0.13,33733,List1A,black,man,,,,null,,,,
null,"<img src=""stim_listA/touch3.gif""</stim_listA>",,html-keyboard-response,377,1785691,0.0-19.0-1.13,33733,List1A,black,man,,,,null,,,,
null,is touching,,html-keyboard-response,378,1787695,0.0-19.0-2.13,33733,List1A,black,man,,,,null,,,,
11073,,,survey-text,379,1798791,0.0-19.0-3.13,33733,List1A,black,man,,,,,"{""Q0"":""dave is touching jane""}","<img src=""stim_listA/touch3.gif""</stim_listA>",is touching,
null,"<div style=""font-size:60px;"">+</div>",,html-keyboard-response,380,1799326,0.0-19.0-0.14,33733,List1A,black,man,,,,null,,,,
null,"<img src=""stim_listA/hug3.gif""</stim_listA>",,html-keyboard-response,381,1801402,0.0-19.0-1.14,33733,List1A,black,man,,,,null,,,,
null,is hugging,,html-keyboard-response,382,1803417,0.0-19.0-2.14,33733,List1A,black,man,,,,null,,,,
11695,,,survey-text,383,1815118,0.0-19.0-3.14,33733,List1A,black,man,,,,,"{""Q0"":""luke is hugging ruth""}","<img src=""stim_listA/hug3.gif""</stim_listA>",is hugging,
null,"<div style=""font-size:60px;"">+</div>",,html-keyboard-response,384,1815620,0.0-19.0-0.15,33733,List1A,black,man,,,,null,,,,
null,"<img src=""stim_listA/argue1.gif""</stim_listA>",,html-keyboard-response,385,1817648,0.0-19.0-1.15,33733,List1A,black,man,,,,null,,,,
null,is arguing with,,html-keyboard-response,386,1819691,0.0-19.0-2.15,33733,List1A,black,man,,,,null,,,,
10995,,,survey-text,387,1830691,0.0-19.0-3.15,33733,List1A,black,man,,,,,"{""Q0"":""mike is arguing with beth""}","<img src=""stim_listA/argue1.gif""</stim_listA>",is arguing with,
null,"<div style=""font-size:60px;"">+</div>",,html-keyboard-response,388,1831221,0.0-19.0-0.16,33733,List1A,black,man,,,,null,,,,
null,"<img src=""stim_listA/hug7.gif""</stim_listA>",,html-keyboard-response,389,1833262,0.0-19.0-1.16,33733,List1A,black,man,,,,null,,,,
null,is hugging,,html-keyboard-response,390,1835266,0.0-19.0-2.16,33733,List1A,black,man,,,,null,,,,
8330,,,survey-text,391,1843600,0.0-19.0-3.16,33733,List1A,black,man,,,,,"{""Q0"":""beth is hugging ruth""}","<img src=""stim_listA/hug7.gif""</stim_listA>",is hugging,
null,"<div style=""font-size:60px;"">+</div>",,html-keyboard-response,392,1844145,0.0-19.0-0.17,33733,List1A,black,man,,,,null,,,,
null,"<img src=""stim_listA/argue7.gif""</stim_listA>",,html-keyboard-response,393,1846161,0.0-19.0-1.17,33733,List1A,black,man,,,,null,,,,
null,is arguing with,,html-keyboard-response,394,1848177,0.0-19.0-2.17,33733,List1A,black,man,,,,null,,,,
7634,,,survey-text,395,1855819,0.0-19.0-3.17,33733,List1A,black,man,,,,,"{""Q0"":""ruth is arguing with kate""}","<img src=""stim_listA/argue7.gif""</stim_listA>",is arguing with,
null,"<div style=""font-size:60px;"">+</div>",,html-keyboard-response,396,1856325,0.0-19.0-0.18,33733,List1A,black,man,,,,null,,,,
null,"<img src=""stim_listA/talk1.gif""</stim_listA>",,html-keyboard-response,397,1858360,0.0-19.0-1.18,33733,List1A,black,man,,,,null,,,,
null,is talking to,,html-keyboard-response,398,1860398,0.0-19.0-2.18,33733,List1A,black,man,,,,null,,,,
10731,,,survey-text,399,1871133,0.0-19.0-3.18,33733,List1A,black,man,,,,,"{""Q0"":""fred is talking to kate""}","<img src=""stim_listA/talk1.gif""</stim_listA>",is talking to,
null,"<div style=""font-size:60px;"">+</div>",,html-keyboard-response,400,1871685,0.0-19.0-0.19,33733,List1A,black,man,,,,null,,,,
null,"<img src=""stim_listA/marry4.gif""</stim_listA>",,html-keyboard-response,401,1873733,0.0-19.0-1.19,33733,List1A,black,man,,,,null,,,,
null,are marrying each other,,html-keyboard-response,402,1875781,0.0-19.0-2.19,33733,List1A,black,man,,,,null,,,,
15561,,,survey-text,403,1891345,0.0-19.0-3.19,33733,List1A,black,man,,,,,"{""Q0"":""jane and luke are marrying each other""}","<img src=""stim_listA/marry4.gif""</stim_listA>",are marrying each other,
2097,<p>Thank you for completing that task.</p><p>The final part of this session is a short questionnaire.</p><p>Press Continue.</p>,0,html-button-response,404,1893446,0.0-20.0,33733,List1A,black,man,,,,,,,,
33301,,,survey-text,405,1927762,0.0-21.0,33733,List1A,black,man,,,,,"{""Q0"":""18"",""Q1"":""English"",""Q2"":""English"",""Q3"":""United Kingdom"",""Q4"":""African"",""Q5"":""Male""}",,,demographics
65532,,,survey-likert,406,1993328,0.0-22.0,33733,List1A,black,man,,,,,"{""Q0"":5,""Q1"":5,""Q2"":5,""Q3"":6,""Q4"":6,""Q5"":5,""Q6"":5,""Q7"":3,""Q8"":3,""Q9"":4,""Q10"":4,""Q11"":4,""Q12"":4,""Q13"":1}",,,likert_race
60595,,,survey-likert,407,2053969,0.0-23.0,33733,List1A,black,man,,,,,"{""Q0"":5,""Q1"":5,""Q2"":6,""Q3"":6,""Q4"":6,""Q5"":5,""Q6"":5,""Q7"":4,""Q8"":6,""Q9"":3,""Q10"":6,""Q11"":0,""Q12"":2,""Q13"":0}",,,likert_gender
11537,,,survey-text,408,2065515,0.0-24.0,33733,List1A,black,man,,,,,"{""Q0"":""ccc""}",,,worker_id
36704,,,external-html,409,2102717,0.0-25.0,33733,List1A,black,man,debrief.html,,,,,,,
