rt,stimulus,button_pressed,trial_type,trial_index,time_elapsed,internal_node_id,subject,list,ppt_race,ppt_gender,url,first_guess,correct,key_press,responses,image_type,phrase_type,test_part
2108,Welcome to the experiment. Press Continue to begin.,0,html-button-response,0,2117,0.0-0.0,35141,List1B,white,woman,,,,,,,,
38732,,,external-html,1,41933,0.0-1.0,35141,List1B,white,woman,consent.html,,,,,,,
12914,"<p>On the next page, you will see portraits of 8 people and their names.</p><p>Your first task is to take a few minutes to memorise the names of these people.</p><p>You will have to recall their names during the rest of the experiment, so it is</p><p>essential that you try to memorise these people and their names as best as you can.</p><br><p><strong>You will then be tested on your memory of these names and portraits.</strong></p><br><p>The experiment will start after you have completed this memory test.</p><br><p>Ready?</p>",0,html-button-response,2,54852,0.0-2.0,35141,List1B,white,woman,,,,,,,,
169915,"<img src='img/portrait_matrix_list1.JPG' style='width:900px;height:500px;''></img><p>If you have memorised all the portraits and names and are ready to start, press Continue.</p><p><strong>Please note: Your memory of these faces will be tested 4 times during this experiment.</strong></p>",0,html-button-response,3,225807,0.0-3.0-0.0,35141,List1B,white,woman,,,,,,,,
4800,"<img src=""portrait/BW1.jpg""style=""width:400px;height:400px;""></img>",0,html-button-response,4,231629,0.0-3.0-1.0,35141,List1B,white,woman,,TRUE,0,,,,,
null,CORRECT,,html-keyboard-response,5,233156,0.0-3.0-2.0-0.0,35141,List1B,white,woman,,,,null,,,,
4374,"<img src=""portrait/WM1.jpg""style=""width:400px;height:400px;""></img>",6,html-button-response,6,237541,0.0-3.0-4.0,35141,List1B,white,woman,,TRUE,6,,,,,
null,CORRECT,,html-keyboard-response,7,239084,0.0-3.0-5.0-0.0,35141,List1B,white,woman,,,,null,,,,
7618,"<img src=""portrait/BM2.jpg""style=""width:400px;height:400px;""></img>",5,html-button-response,8,246708,0.0-3.0-7.0,35141,List1B,white,woman,,TRUE,5,,,,,
null,CORRECT,,html-keyboard-response,9,248248,0.0-3.0-8.0-0.0,35141,List1B,white,woman,,,,null,,,,
4662,"<img src=""portrait/BW2.jpg""style=""width:400px;height:400px;""></img>",2,html-button-response,10,252917,0.0-3.0-10.0,35141,List1B,white,woman,,TRUE,2,,,,,
null,CORRECT,,html-keyboard-response,11,254445,0.0-3.0-11.0-0.0,35141,List1B,white,woman,,,,null,,,,
4177,"<img src=""portrait/WW1.jpg""style=""width:400px;height:400px;""></img>",1,html-button-response,12,258628,0.0-3.0-13.0,35141,List1B,white,woman,,TRUE,1,,,,,
null,CORRECT,,html-keyboard-response,13,260156,0.0-3.0-14.0-0.0,35141,List1B,white,woman,,,,null,,,,
6254,"<img src=""portrait/WW2.jpg""style=""width:400px;height:400px;""></img>",3,html-button-response,14,266421,0.0-3.0-16.0,35141,List1B,white,woman,,TRUE,3,,,,,
null,CORRECT,,html-keyboard-response,15,267960,0.0-3.0-17.0-0.0,35141,List1B,white,woman,,,,null,,,,
3701,"<img src=""portrait/WM2.jpg""style=""width:400px;height:400px;""></img>",7,html-button-response,16,271669,0.0-3.0-19.0,35141,List1B,white,woman,,TRUE,7,,,,,
null,CORRECT,,html-keyboard-response,17,273183,0.0-3.0-20.0-0.0,35141,List1B,white,woman,,,,null,,,,
6230,"<img src=""portrait/BM1.jpg""style=""width:400px;height:400px;""></img>",4,html-button-response,18,279421,0.0-3.0-22.0,35141,List1B,white,woman,,TRUE,4,,,,,
null,CORRECT,,html-keyboard-response,19,280955,0.0-3.0-23.0-0.0,35141,List1B,white,woman,,,,null,,,,
1916,<p>You got 8 out of 8 right first time. Press Continue.</p>,0,html-button-response,20,282877,0.0-3.0-25.0,35141,List1B,white,woman,,,,,,,,
31049,"<p>In this experiment, you will view photographs of the people from the memory game interacting.</p><p>By using the <strong>exact</strong> phrase given <i>after</i> the photograph appears and recalling the correct names of the people in the photographs, form a sentence describing the interaction. You do not need to capitalise names.</p><p>Type your answer in the space provided. Please complete every sentence before moving onto the next trial.</p><p>You will only have a few seconds to memorise each given photograph and phrase before you can respond, so try your best to focus.</p><p>An example is given below. Press 'Continue' when you are ready.</p><img src='img/speaking_example_v2.jpg' style='width:800px;height:460px;''></img>",0,html-button-response,21,314959,0.0-4.0,35141,List1B,white,woman,,,,,,,,
4632,"<p>Before the experiment starts, you will watch two example trials. Press 'Continue'.</p>",0,html-button-response,22,320609,0.0-5.0,35141,List1B,white,woman,,,,,,,,
null,<img src='img/speaking_WW.gif'></img>,,html-keyboard-response,23,323635,0.0-6.0,35141,List1B,white,woman,,,,null,,,,
null,<p>is speaking to</p>,,html-keyboard-response,24,325654,0.0-7.0,35141,List1B,white,woman,,,,null,,,,
3668,<p><b>Answer:</b> kate is speaking to beth</p>,0,html-button-response,25,329325,0.0-8.0,35141,List1B,white,woman,,,,,,,,
null,<img src='img/pointing_BM.gif'></img>,,html-keyboard-response,26,332371,0.0-9.0,35141,List1B,white,woman,,,,null,,,,
null,<p>are pointing at each other</p>,,html-keyboard-response,27,334385,0.0-10.0,35141,List1B,white,woman,,,,null,,,,
3303,<p><b>Answer:</b> luke and dave are pointing at each other</p>,0,html-button-response,28,337694,0.0-11.0,35141,List1B,white,woman,,,,,,,,
9131,"<p>Ready to start the experiment?</p><br><p><strong>Remember to describe the picture using a full sentence,</strong></p><p><strong>that combines the names of the people with the given phrase.</strong></p><p><strong>If you do not do this correctly you will not be paid.</strong></p><p><strong> You do not need to capitalise names or use punctuation.</strong></p><br><p>Press 'Continue' to begin.</p>",0,html-button-response,29,347854,0.0-12.0,35141,List1B,white,woman,,,,,,,,
null,"<div style=""font-size:60px;"">+</div>",,html-keyboard-response,30,349396,0.0-13.0-0.0,35141,List1B,white,woman,,,,null,,,,
null,"<img src=""stim_listB/argue5.gif""</stim_listB>",,html-keyboard-response,31,351415,0.0-13.0-1.0,35141,List1B,white,woman,,,,null,,,,
null,is arguing with,,html-keyboard-response,32,353436,0.0-13.0-2.0,35141,List1B,white,woman,,,,null,,,,
22676,,,survey-text,33,376120,0.0-13.0-3.0,35141,List1B,white,woman,,,,,"{""Q0"":""mike and luke are arguing with each other""}","<img src=""stim_listB/argue5.gif""</stim_listB>",is arguing with,
null,"<div style=""font-size:60px;"">+</div>",,html-keyboard-response,34,376645,0.0-13.0-0.1,35141,List1B,white,woman,,,,null,,,,
null,"<img src=""stim_listB/dance7.gif""</stim_listB>",,html-keyboard-response,35,378665,0.0-13.0-1.1,35141,List1B,white,woman,,,,null,,,,
null,is dancing with,,html-keyboard-response,36,380685,0.0-13.0-2.1,35141,List1B,white,woman,,,,null,,,,
23504,,,survey-text,37,404198,0.0-13.0-3.1,35141,List1B,white,woman,,,,,"{""Q0"":""jane and beth are dancing with each other""}","<img src=""stim_listB/dance7.gif""</stim_listB>",is dancing with,
null,"<div style=""font-size:60px;"">+</div>",,html-keyboard-response,38,404702,0.0-13.0-0.2,35141,List1B,white,woman,,,,null,,,,
null,"<img src=""stim_listB/shout4.gif""</stim_listB>",,html-keyboard-response,39,406725,0.0-13.0-1.2,35141,List1B,white,woman,,,,null,,,,
null,are shouting at each other,,html-keyboard-response,40,408745,0.0-13.0-2.2,35141,List1B,white,woman,,,,null,,,,
25302,,,survey-text,41,434055,0.0-13.0-3.2,35141,List1B,white,woman,,,,,"{""Q0"":""ruth and dave are shouting at each other""}","<img src=""stim_listB/shout4.gif""</stim_listB>",are shouting at each other,
null,"<div style=""font-size:60px;"">+</div>",,html-keyboard-response,42,434576,0.0-13.0-0.3,35141,List1B,white,woman,,,,null,,,,
null,"<img src=""stim_listB/fight3.gif""</stim_listB>",,html-keyboard-response,43,436596,0.0-13.0-1.3,35141,List1B,white,woman,,,,null,,,,
null,is fighting,,html-keyboard-response,44,438605,0.0-13.0-2.3,35141,List1B,white,woman,,,,null,,,,
16445,,,survey-text,45,455053,0.0-13.0-3.3,35141,List1B,white,woman,,,,,"{""Q0"":""dave and jane is fighting""}","<img src=""stim_listB/fight3.gif""</stim_listB>",is fighting,
null,"<div style=""font-size:60px;"">+</div>",,html-keyboard-response,46,455565,0.0-13.0-0.4,35141,List1B,white,woman,,,,null,,,,
null,"<img src=""stim_listB/dance6.gif""</stim_listB>",,html-keyboard-response,47,457584,0.0-13.0-1.4,35141,List1B,white,woman,,,,null,,,,
null,are dancing with each other,,html-keyboard-response,48,459603,0.0-13.0-2.4,35141,List1B,white,woman,,,,null,,,,
20516,,,survey-text,49,480125,0.0-13.0-3.4,35141,List1B,white,woman,,,,,"{""Q0"":""mike and luke are dancing with each other""}","<img src=""stim_listB/dance6.gif""</stim_listB>",are dancing with each other,
null,"<div style=""font-size:60px;"">+</div>",,html-keyboard-response,50,480647,0.0-13.0-0.5,35141,List1B,white,woman,,,,null,,,,
null,"<img src=""stim_listB/talk8.gif""</stim_listB>",,html-keyboard-response,51,482674,0.0-13.0-1.5,35141,List1B,white,woman,,,,null,,,,
null,are talking to each other,,html-keyboard-response,52,484695,0.0-13.0-2.5,35141,List1B,white,woman,,,,null,,,,
24378,,,survey-text,53,509079,0.0-13.0-3.5,35141,List1B,white,woman,,,,,"{""Q0"":""kate and ruth are talking to each other""}","<img src=""stim_listB/talk8.gif""</stim_listB>",are talking to each other,
null,"<div style=""font-size:60px;"">+</div>",,html-keyboard-response,54,509585,0.0-13.0-0.6,35141,List1B,white,woman,,,,null,,,,
null,"<img src=""stim_listB/marry6.gif""</stim_listB>",,html-keyboard-response,55,511603,0.0-13.0-1.6,35141,List1B,white,woman,,,,null,,,,
null,are marrying each other,,html-keyboard-response,56,513624,0.0-13.0-2.6,35141,List1B,white,woman,,,,null,,,,
20550,,,survey-text,57,534180,0.0-13.0-3.6,35141,List1B,white,woman,,,,,"{""Q0"":""fred and dave are marrying each other""}","<img src=""stim_listB/marry6.gif""</stim_listB>",are marrying each other,
null,"<div style=""font-size:60px;"">+</div>",,html-keyboard-response,58,534685,0.0-13.0-0.7,35141,List1B,white,woman,,,,null,,,,
null,"<img src=""stim_listB/hug7.gif""</stim_listB>",,html-keyboard-response,59,536704,0.0-13.0-1.7,35141,List1B,white,woman,,,,null,,,,
null,is hugging,,html-keyboard-response,60,538714,0.0-13.0-2.7,35141,List1B,white,woman,,,,null,,,,
23048,,,survey-text,61,561766,0.0-13.0-3.7,35141,List1B,white,woman,,,,,"{""Q0"":""ruth and beth is hugging""}","<img src=""stim_listB/hug7.gif""</stim_listB>",is hugging,
null,"<div style=""font-size:60px;"">+</div>",,html-keyboard-response,62,562277,0.0-13.0-0.8,35141,List1B,white,woman,,,,null,,,,
null,"<img src=""stim_listB/touch3.gif""</stim_listB>",,html-keyboard-response,63,564295,0.0-13.0-1.8,35141,List1B,white,woman,,,,null,,,,
null,is touching,,html-keyboard-response,64,566314,0.0-13.0-2.8,35141,List1B,white,woman,,,,null,,,,
18721,,,survey-text,65,585046,0.0-13.0-3.8,35141,List1B,white,woman,,,,,"{""Q0"":""jane and dave is touching""}","<img src=""stim_listB/touch3.gif""</stim_listB>",is touching,
null,"<div style=""font-size:60px;"">+</div>",,html-keyboard-response,66,585565,0.0-13.0-0.9,35141,List1B,white,woman,,,,null,,,,
null,"<img src=""stim_listB/hug8.gif""</stim_listB>",,html-keyboard-response,67,587586,0.0-13.0-1.9,35141,List1B,white,woman,,,,null,,,,
null,are hugging each other,,html-keyboard-response,68,589594,0.0-13.0-2.9,35141,List1B,white,woman,,,,null,,,,
26740,,,survey-text,69,616342,0.0-13.0-3.9,35141,List1B,white,woman,,,,,"{""Q0"":""kate and jane are hugging each other""}","<img src=""stim_listB/hug8.gif""</stim_listB>",are hugging each other,
null,"<div style=""font-size:60px;"">+</div>",,html-keyboard-response,70,616845,0.0-13.0-0.10,35141,List1B,white,woman,,,,null,,,,
null,"<img src=""stim_listB/shout5.gif""</stim_listB>",,html-keyboard-response,71,618854,0.0-13.0-1.10,35141,List1B,white,woman,,,,null,,,,
null,is shouting at,,html-keyboard-response,72,620872,0.0-13.0-2.10,35141,List1B,white,woman,,,,null,,,,
24450,,,survey-text,73,645326,0.0-13.0-3.10,35141,List1B,white,woman,,,,,"{""Q0"":""luke is shouting at fred""}","<img src=""stim_listB/shout5.gif""</stim_listB>",is shouting at,
null,"<div style=""font-size:60px;"">+</div>",,html-keyboard-response,74,645845,0.0-13.0-0.11,35141,List1B,white,woman,,,,null,,,,
null,"<img src=""stim_listB/marry8.gif""</stim_listB>",,html-keyboard-response,75,647867,0.0-13.0-1.11,35141,List1B,white,woman,,,,null,,,,
null,are marrying each other,,html-keyboard-response,76,649885,0.0-13.0-2.11,35141,List1B,white,woman,,,,null,,,,
18800,,,survey-text,77,668692,0.0-13.0-3.11,35141,List1B,white,woman,,,,,"{""Q0"":""jane and beth are marrying each other""}","<img src=""stim_listB/marry8.gif""</stim_listB>",are marrying each other,
null,"<div style=""font-size:60px;"">+</div>",,html-keyboard-response,78,669206,0.0-13.0-0.12,35141,List1B,white,woman,,,,null,,,,
null,"<img src=""stim_listB/dance1.gif""</stim_listB>",,html-keyboard-response,79,671225,0.0-13.0-1.12,35141,List1B,white,woman,,,,null,,,,
null,is dancing with,,html-keyboard-response,80,673244,0.0-13.0-2.12,35141,List1B,white,woman,,,,null,,,,
15114,,,survey-text,81,688364,0.0-13.0-3.12,35141,List1B,white,woman,,,,,"{""Q0"":""fred is dancing with kate""}","<img src=""stim_listB/dance1.gif""</stim_listB>",is dancing with,
null,"<div style=""font-size:60px;"">+</div>",,html-keyboard-response,82,688885,0.0-13.0-0.13,35141,List1B,white,woman,,,,null,,,,
null,"<img src=""stim_listB/kiss5.gif""</stim_listB>",,html-keyboard-response,83,690906,0.0-13.0-1.13,35141,List1B,white,woman,,,,null,,,,
null,is kissing,,html-keyboard-response,84,692925,0.0-13.0-2.13,35141,List1B,white,woman,,,,null,,,,
22295,,,survey-text,85,715223,0.0-13.0-3.13,35141,List1B,white,woman,,,,,"{""Q0"":""fred is kissing luke""}","<img src=""stim_listB/kiss5.gif""</stim_listB>",is kissing,
null,"<div style=""font-size:60px;"">+</div>",,html-keyboard-response,86,715744,0.0-13.0-0.14,35141,List1B,white,woman,,,,null,,,,
null,"<img src=""stim_listB/dance2.gif""</stim_listB>",,html-keyboard-response,87,717755,0.0-13.0-1.14,35141,List1B,white,woman,,,,null,,,,
null,are dancing with each other,,html-keyboard-response,88,719775,0.0-13.0-2.14,35141,List1B,white,woman,,,,null,,,,
19230,,,survey-text,89,739013,0.0-13.0-3.14,35141,List1B,white,woman,,,,,"{""Q0"":""mike and beth are dancing with each other""}","<img src=""stim_listB/dance2.gif""</stim_listB>",are dancing with each other,
null,"<div style=""font-size:60px;"">+</div>",,html-keyboard-response,90,739527,0.0-13.0-0.15,35141,List1B,white,woman,,,,null,,,,
null,"<img src=""stim_listB/meet2.gif""</stim_listB>",,html-keyboard-response,91,741544,0.0-13.0-1.15,35141,List1B,white,woman,,,,null,,,,
null,are meeting each other,,html-keyboard-response,92,743566,0.0-13.0-2.15,35141,List1B,white,woman,,,,null,,,,
12098,,,survey-text,93,755668,0.0-13.0-3.15,35141,List1B,white,woman,,,,,"{""Q0"":""fred and beth are meeting each other""}","<img src=""stim_listB/meet2.gif""</stim_listB>",are meeting each other,
null,"<div style=""font-size:60px;"">+</div>",,html-keyboard-response,94,756180,0.0-13.0-0.16,35141,List1B,white,woman,,,,null,,,,
null,"<img src=""stim_listB/shout1.gif""</stim_listB>",,html-keyboard-response,95,758208,0.0-13.0-1.16,35141,List1B,white,woman,,,,null,,,,
null,is shouting at,,html-keyboard-response,96,760234,0.0-13.0-2.16,35141,List1B,white,woman,,,,null,,,,
10038,,,survey-text,97,770278,0.0-13.0-3.16,35141,List1B,white,woman,,,,,"{""Q0"":""fred is shouting at beth""}","<img src=""stim_listB/shout1.gif""</stim_listB>",is shouting at,
null,"<div style=""font-size:60px;"">+</div>",,html-keyboard-response,98,770796,0.0-13.0-0.17,35141,List1B,white,woman,,,,null,,,,
null,"<img src=""stim_listB/dance3.gif""</stim_listB>",,html-keyboard-response,99,772814,0.0-13.0-1.17,35141,List1B,white,woman,,,,null,,,,
null,is dancing with,,html-keyboard-response,100,774835,0.0-13.0-2.17,35141,List1B,white,woman,,,,null,,,,
21618,,,survey-text,101,796460,0.0-13.0-3.17,35141,List1B,white,woman,,,,,"{""Q0"":""luke is dancing with jane""}","<img src=""stim_listB/dance3.gif""</stim_listB>",is dancing with,
null,"<div style=""font-size:60px;"">+</div>",,html-keyboard-response,102,796976,0.0-13.0-0.18,35141,List1B,white,woman,,,,null,,,,
null,"<img src=""stim_listB/meet1.gif""</stim_listB>",,html-keyboard-response,103,798994,0.0-13.0-1.18,35141,List1B,white,woman,,,,null,,,,
null,is meeting,,html-keyboard-response,104,801005,0.0-13.0-2.18,35141,List1B,white,woman,,,,null,,,,
12885,,,survey-text,105,813896,0.0-13.0-3.18,35141,List1B,white,woman,,,,,"{""Q0"":""kate is meeting mike""}","<img src=""stim_listB/meet1.gif""</stim_listB>",is meeting,
null,"<div style=""font-size:60px;"">+</div>",,html-keyboard-response,106,814404,0.0-13.0-0.19,35141,List1B,white,woman,,,,null,,,,
null,"<img src=""stim_listB/marry3.gif""</stim_listB>",,html-keyboard-response,107,816415,0.0-13.0-1.19,35141,List1B,white,woman,,,,null,,,,
null,is marrying,,html-keyboard-response,108,818434,0.0-13.0-2.19,35141,List1B,white,woman,,,,null,,,,
17455,,,survey-text,109,835893,0.0-13.0-3.19,35141,List1B,white,woman,,,,,"{""Q0"":""ruth is marrying dave""}","<img src=""stim_listB/marry3.gif""</stim_listB>",is marrying,
8204,"<img src='img/portrait_matrix_list1.JPG' style='width:900px;height:500px;''></img><p>If you have memorised all the portraits and names and are ready to start, press Continue.</p><p><strong>Please note: Your memory of these faces will be tested 4 times during this experiment.</strong></p>",0,html-button-response,110,844102,0.0-14.0-0.0,35141,List1B,white,woman,,,,,,,,
4251,"<img src=""portrait/BM1.jpg""style=""width:400px;height:400px;""></img>",4,html-button-response,111,849382,0.0-14.0-1.0,35141,List1B,white,woman,,TRUE,4,,,,,
null,CORRECT,,html-keyboard-response,112,850917,0.0-14.0-2.0-0.0,35141,List1B,white,woman,,,,null,,,,
2281,"<img src=""portrait/WW1.jpg""style=""width:400px;height:400px;""></img>",1,html-button-response,113,853205,0.0-14.0-4.0,35141,List1B,white,woman,,TRUE,1,,,,,
null,CORRECT,,html-keyboard-response,114,854744,0.0-14.0-5.0-0.0,35141,List1B,white,woman,,,,null,,,,
2112,"<img src=""portrait/BW1.jpg""style=""width:400px;height:400px;""></img>",0,html-button-response,115,856862,0.0-14.0-7.0,35141,List1B,white,woman,,TRUE,0,,,,,
null,CORRECT,,html-keyboard-response,116,858386,0.0-14.0-8.0-0.0,35141,List1B,white,woman,,,,null,,,,
2180,"<img src=""portrait/WM1.jpg""style=""width:400px;height:400px;""></img>",6,html-button-response,117,860573,0.0-14.0-10.0,35141,List1B,white,woman,,TRUE,6,,,,,
null,CORRECT,,html-keyboard-response,118,862104,0.0-14.0-11.0-0.0,35141,List1B,white,woman,,,,null,,,,
3322,"<img src=""portrait/BW2.jpg""style=""width:400px;height:400px;""></img>",2,html-button-response,119,865439,0.0-14.0-13.0,35141,List1B,white,woman,,TRUE,2,,,,,
null,CORRECT,,html-keyboard-response,120,866980,0.0-14.0-14.0-0.0,35141,List1B,white,woman,,,,null,,,,
2099,"<img src=""portrait/BM2.jpg""style=""width:400px;height:400px;""></img>",5,html-button-response,121,869101,0.0-14.0-16.0,35141,List1B,white,woman,,TRUE,5,,,,,
null,CORRECT,,html-keyboard-response,122,870624,0.0-14.0-17.0-0.0,35141,List1B,white,woman,,,,null,,,,
1842,"<img src=""portrait/WM2.jpg""style=""width:400px;height:400px;""></img>",7,html-button-response,123,872478,0.0-14.0-19.0,35141,List1B,white,woman,,TRUE,7,,,,,
null,CORRECT,,html-keyboard-response,124,874007,0.0-14.0-20.0-0.0,35141,List1B,white,woman,,,,null,,,,
4245,"<img src=""portrait/WW2.jpg""style=""width:400px;height:400px;""></img>",3,html-button-response,125,878253,0.0-14.0-22.0,35141,List1B,white,woman,,TRUE,3,,,,,
null,CORRECT,,html-keyboard-response,126,879785,0.0-14.0-23.0-0.0,35141,List1B,white,woman,,,,null,,,,
1588,<p>You got 8 out of 8 right first time. Press Continue.</p>,0,html-button-response,127,881381,0.0-14.0-25.0,35141,List1B,white,woman,,,,,,,,
null,"<div style=""font-size:60px;"">+</div>",,html-keyboard-response,128,882896,0.0-15.0-0.0,35141,List1B,white,woman,,,,null,,,,
null,"<img src=""stim_listB/marry1.gif""</stim_listB>",,html-keyboard-response,129,884903,0.0-15.0-1.0,35141,List1B,white,woman,,,,null,,,,
null,is marrying,,html-keyboard-response,130,886927,0.0-15.0-2.0,35141,List1B,white,woman,,,,null,,,,
10217,,,survey-text,131,897148,0.0-15.0-3.0,35141,List1B,white,woman,,,,,"{""Q0"":""mike is marrying beth""}","<img src=""stim_listB/marry1.gif""</stim_listB>",is marrying,
null,"<div style=""font-size:60px;"">+</div>",,html-keyboard-response,132,897656,0.0-15.0-0.1,35141,List1B,white,woman,,,,null,,,,
null,"<img src=""stim_listB/fight2.gif""</stim_listB>",,html-keyboard-response,133,899665,0.0-15.0-1.1,35141,List1B,white,woman,,,,null,,,,
null,are fighting each other,,html-keyboard-response,134,901685,0.0-15.0-2.1,35141,List1B,white,woman,,,,null,,,,
11491,,,survey-text,135,913182,0.0-15.0-3.1,35141,List1B,white,woman,,,,,"{""Q0"":""fred and beth are fighting each other""}","<img src=""stim_listB/fight2.gif""</stim_listB>",are fighting each other,
null,"<div style=""font-size:60px;"">+</div>",,html-keyboard-response,136,913704,0.0-15.0-0.2,35141,List1B,white,woman,,,,null,,,,
null,"<img src=""stim_listB/argue6.gif""</stim_listB>",,html-keyboard-response,137,915714,0.0-15.0-1.2,35141,List1B,white,woman,,,,null,,,,
null,are arguing with each other,,html-keyboard-response,138,917739,0.0-15.0-2.2,35141,List1B,white,woman,,,,null,,,,
10839,,,survey-text,139,928581,0.0-15.0-3.2,35141,List1B,white,woman,,,,,"{""Q0"":""fred and dave are arguing with each other""}","<img src=""stim_listB/argue6.gif""</stim_listB>",are arguing with each other,
null,"<div style=""font-size:60px;"">+</div>",,html-keyboard-response,140,929095,0.0-15.0-0.3,35141,List1B,white,woman,,,,null,,,,
null,"<img src=""stim_listB/argue1.gif""</stim_listB>",,html-keyboard-response,141,931125,0.0-15.0-1.3,35141,List1B,white,woman,,,,null,,,,
null,is arguing with,,html-keyboard-response,142,933135,0.0-15.0-2.3,35141,List1B,white,woman,,,,null,,,,
10104,,,survey-text,143,943245,0.0-15.0-3.3,35141,List1B,white,woman,,,,,"{""Q0"":""beth is arguing with mike""}","<img src=""stim_listB/argue1.gif""</stim_listB>",is arguing with,
null,"<div style=""font-size:60px;"">+</div>",,html-keyboard-response,144,943766,0.0-15.0-0.4,35141,List1B,white,woman,,,,null,,,,
null,"<img src=""stim_listB/argue7.gif""</stim_listB>",,html-keyboard-response,145,945786,0.0-15.0-1.4,35141,List1B,white,woman,,,,null,,,,
null,is arguing with,,html-keyboard-response,146,947805,0.0-15.0-2.4,35141,List1B,white,woman,,,,null,,,,
10587,,,survey-text,147,958397,0.0-15.0-3.4,35141,List1B,white,woman,,,,,"{""Q0"":""kate is arguing with ruth""}","<img src=""stim_listB/argue7.gif""</stim_listB>",is arguing with,
null,"<div style=""font-size:60px;"">+</div>",,html-keyboard-response,148,958915,0.0-15.0-0.5,35141,List1B,white,woman,,,,null,,,,
null,"<img src=""stim_listB/hug6.gif""</stim_listB>",,html-keyboard-response,149,960931,0.0-15.0-1.5,35141,List1B,white,woman,,,,null,,,,
null,are hugging each other,,html-keyboard-response,150,962946,0.0-15.0-2.5,35141,List1B,white,woman,,,,null,,,,
13041,,,survey-text,151,975991,0.0-15.0-3.5,35141,List1B,white,woman,,,,,"{""Q0"":""dave and mike are hugging each other""}","<img src=""stim_listB/hug6.gif""</stim_listB>",are hugging each other,
null,"<div style=""font-size:60px;"">+</div>",,html-keyboard-response,152,976507,0.0-15.0-0.6,35141,List1B,white,woman,,,,null,,,,
null,"<img src=""stim_listB/shout3.gif""</stim_listB>",,html-keyboard-response,153,978525,0.0-15.0-1.6,35141,List1B,white,woman,,,,null,,,,
null,is shouting at,,html-keyboard-response,154,980544,0.0-15.0-2.6,35141,List1B,white,woman,,,,null,,,,
15894,,,survey-text,155,996445,0.0-15.0-3.6,35141,List1B,white,woman,,,,,"{""Q0"":""luke and ruth are shouting at each other""}","<img src=""stim_listB/shout3.gif""</stim_listB>",is shouting at,
null,"<div style=""font-size:60px;"">+</div>",,html-keyboard-response,156,996956,0.0-15.0-0.7,35141,List1B,white,woman,,,,null,,,,
null,"<img src=""stim_listB/argue3.gif""</stim_listB>",,html-keyboard-response,157,998965,0.0-15.0-1.7,35141,List1B,white,woman,,,,null,,,,
null,is arguing with,,html-keyboard-response,158,1000977,0.0-15.0-2.7,35141,List1B,white,woman,,,,null,,,,
16976,,,survey-text,159,1017956,0.0-15.0-3.7,35141,List1B,white,woman,,,,,"{""Q0"":""ruth is arguing with dave""}","<img src=""stim_listB/argue3.gif""</stim_listB>",is arguing with,
null,"<div style=""font-size:60px;"">+</div>",,html-keyboard-response,160,1018467,0.0-15.0-0.8,35141,List1B,white,woman,,,,null,,,,
null,"<img src=""stim_listB/meet6.gif""</stim_listB>",,html-keyboard-response,161,1020477,0.0-15.0-1.8,35141,List1B,white,woman,,,,null,,,,
null,are meeting each other,,html-keyboard-response,162,1022497,0.0-15.0-2.8,35141,List1B,white,woman,,,,null,,,,
12798,,,survey-text,163,1035301,0.0-15.0-3.8,35141,List1B,white,woman,,,,,"{""Q0"":""fred and luke are meething each other""}","<img src=""stim_listB/meet6.gif""</stim_listB>",are meeting each other,
null,"<div style=""font-size:60px;"">+</div>",,html-keyboard-response,164,1035824,0.0-15.0-0.9,35141,List1B,white,woman,,,,null,,,,
null,"<img src=""stim_listB/argue4.gif""</stim_listB>",,html-keyboard-response,165,1037844,0.0-15.0-1.9,35141,List1B,white,woman,,,,null,,,,
null,are arguing with each other,,html-keyboard-response,166,1039866,0.0-15.0-2.9,35141,List1B,white,woman,,,,null,,,,
15995,,,survey-text,167,1055868,0.0-15.0-3.9,35141,List1B,white,woman,,,,,"{""Q0"":""jane and luke are arguing with each other""}","<img src=""stim_listB/argue4.gif""</stim_listB>",are arguing with each other,
null,"<div style=""font-size:60px;"">+</div>",,html-keyboard-response,168,1056386,0.0-15.0-0.10,35141,List1B,white,woman,,,,null,,,,
null,"<img src=""stim_listB/talk2.gif""</stim_listB>",,html-keyboard-response,169,1058405,0.0-15.0-1.10,35141,List1B,white,woman,,,,null,,,,
null,are talking to each other,,html-keyboard-response,170,1060415,0.0-15.0-2.10,35141,List1B,white,woman,,,,null,,,,
14420,,,survey-text,171,1074837,0.0-15.0-3.10,35141,List1B,white,woman,,,,,"{""Q0"":""mike and beth are talking to each other""}","<img src=""stim_listB/talk2.gif""</stim_listB>",are talking to each other,
null,"<div style=""font-size:60px;"">+</div>",,html-keyboard-response,172,1075347,0.0-15.0-0.11,35141,List1B,white,woman,,,,null,,,,
null,"<img src=""stim_listB/kiss8.gif""</stim_listB>",,html-keyboard-response,173,1077374,0.0-15.0-1.11,35141,List1B,white,woman,,,,null,,,,
null,are kissing each other,,html-keyboard-response,174,1079395,0.0-15.0-2.11,35141,List1B,white,woman,,,,null,,,,
11368,,,survey-text,175,1090767,0.0-15.0-3.11,35141,List1B,white,woman,,,,,"{""Q0"":""kate and jane are kissing each other""}","<img src=""stim_listB/kiss8.gif""</stim_listB>",are kissing each other,
null,"<div style=""font-size:60px;"">+</div>",,html-keyboard-response,176,1091287,0.0-15.0-0.12,35141,List1B,white,woman,,,,null,,,,
null,"<img src=""stim_listB/talk5.gif""</stim_listB>",,html-keyboard-response,177,1093301,0.0-15.0-1.12,35141,List1B,white,woman,,,,null,,,,
null,is talking to,,html-keyboard-response,178,1095324,0.0-15.0-2.12,35141,List1B,white,woman,,,,null,,,,
7564,,,survey-text,179,1102892,0.0-15.0-3.12,35141,List1B,white,woman,,,,,"{""Q0"":""dave is talking to fred""}","<img src=""stim_listB/talk5.gif""</stim_listB>",is talking to,
null,"<div style=""font-size:60px;"">+</div>",,html-keyboard-response,180,1103407,0.0-15.0-0.13,35141,List1B,white,woman,,,,null,,,,
null,"<img src=""stim_listB/dance5.gif""</stim_listB>",,html-keyboard-response,181,1105424,0.0-15.0-1.13,35141,List1B,white,woman,,,,null,,,,
null,is dancing with,,html-keyboard-response,182,1107435,0.0-15.0-2.13,35141,List1B,white,woman,,,,null,,,,
9605,,,survey-text,183,1117045,0.0-15.0-3.13,35141,List1B,white,woman,,,,,"{""Q0"":""dave is dancing with fred""}","<img src=""stim_listB/dance5.gif""</stim_listB>",is dancing with,
null,"<div style=""font-size:60px;"">+</div>",,html-keyboard-response,184,1117563,0.0-15.0-0.14,35141,List1B,white,woman,,,,null,,,,
null,"<img src=""stim_listB/marry2.gif""</stim_listB>",,html-keyboard-response,185,1119578,0.0-15.0-1.14,35141,List1B,white,woman,,,,null,,,,
null,are marrying each other,,html-keyboard-response,186,1121595,0.0-15.0-2.14,35141,List1B,white,woman,,,,null,,,,
12453,,,survey-text,187,1134055,0.0-15.0-3.14,35141,List1B,white,woman,,,,,"{""Q0"":""kate and fred are marrying each other""}","<img src=""stim_listB/marry2.gif""</stim_listB>",are marrying each other,
null,"<div style=""font-size:60px;"">+</div>",,html-keyboard-response,188,1134565,0.0-15.0-0.15,35141,List1B,white,woman,,,,null,,,,
null,"<img src=""stim_listB/talk3.gif""</stim_listB>",,html-keyboard-response,189,1136595,0.0-15.0-1.15,35141,List1B,white,woman,,,,null,,,,
null,is talking to,,html-keyboard-response,190,1138606,0.0-15.0-2.15,35141,List1B,white,woman,,,,null,,,,
9633,,,survey-text,191,1148246,0.0-15.0-3.15,35141,List1B,white,woman,,,,,"{""Q0"":""jane is talking to luke""}","<img src=""stim_listB/talk3.gif""</stim_listB>",is talking to,
null,"<div style=""font-size:60px;"">+</div>",,html-keyboard-response,192,1148767,0.0-15.0-0.16,35141,List1B,white,woman,,,,null,,,,
null,"<img src=""stim_listB/touch2.gif""</stim_listB>",,html-keyboard-response,193,1150784,0.0-15.0-1.16,35141,List1B,white,woman,,,,null,,,,
null,are touching each other,,html-keyboard-response,194,1152807,0.0-15.0-2.16,35141,List1B,white,woman,,,,null,,,,
10127,,,survey-text,195,1162941,0.0-15.0-3.16,35141,List1B,white,woman,,,,,"{""Q0"":""fred and beth are touching each other""}","<img src=""stim_listB/touch2.gif""</stim_listB>",are touching each other,
null,"<div style=""font-size:60px;"">+</div>",,html-keyboard-response,196,1163467,0.0-15.0-0.17,35141,List1B,white,woman,,,,null,,,,
null,"<img src=""stim_listB/shout2.gif""</stim_listB>",,html-keyboard-response,197,1165485,0.0-15.0-1.17,35141,List1B,white,woman,,,,null,,,,
null,are shouting at each other,,html-keyboard-response,198,1167495,0.0-15.0-2.17,35141,List1B,white,woman,,,,null,,,,
9609,,,survey-text,199,1177108,0.0-15.0-3.17,35141,List1B,white,woman,,,,,"{""Q0"":""kate and mike are shouting at each other""}","<img src=""stim_listB/shout2.gif""</stim_listB>",are shouting at each other,
null,"<div style=""font-size:60px;"">+</div>",,html-keyboard-response,200,1177615,0.0-15.0-0.18,35141,List1B,white,woman,,,,null,,,,
null,"<img src=""stim_listB/touch4.gif""</stim_listB>",,html-keyboard-response,201,1179637,0.0-15.0-1.18,35141,List1B,white,woman,,,,null,,,,
null,are touching each other,,html-keyboard-response,202,1181644,0.0-15.0-2.18,35141,List1B,white,woman,,,,null,,,,
14495,,,survey-text,203,1196142,0.0-15.0-3.18,35141,List1B,white,woman,,,,,"{""Q0"":""luke and ruth are touching each other""}","<img src=""stim_listB/touch4.gif""</stim_listB>",are touching each other,
null,"<div style=""font-size:60px;"">+</div>",,html-keyboard-response,204,1196655,0.0-15.0-0.19,35141,List1B,white,woman,,,,null,,,,
null,"<img src=""stim_listB/hug5.gif""</stim_listB>",,html-keyboard-response,205,1198676,0.0-15.0-1.19,35141,List1B,white,woman,,,,null,,,,
null,is hugging,,html-keyboard-response,206,1200683,0.0-15.0-2.19,35141,List1B,white,woman,,,,null,,,,
10174,,,survey-text,207,1210861,0.0-15.0-3.19,35141,List1B,white,woman,,,,,"{""Q0"":""fred and luke is hugging""}","<img src=""stim_listB/hug5.gif""</stim_listB>",is hugging,
4123,"<img src='img/portrait_matrix_list1.JPG' style='width:900px;height:500px;''></img><p>If you have memorised all the portraits and names and are ready to start, press Continue.</p><p><strong>Please note: Your memory of these faces will be tested 4 times during this experiment.</strong></p>",0,html-button-response,208,1214990,0.0-16.0-0.0,35141,List1B,white,woman,,,,,,,,
2172,"<img src=""portrait/BW1.jpg""style=""width:400px;height:400px;""></img>",0,html-button-response,209,1218181,0.0-16.0-1.0,35141,List1B,white,woman,,TRUE,0,,,,,
null,CORRECT,,html-keyboard-response,210,1219705,0.0-16.0-2.0-0.0,35141,List1B,white,woman,,,,null,,,,
1857,"<img src=""portrait/BM2.jpg""style=""width:400px;height:400px;""></img>",5,html-button-response,211,1221574,0.0-16.0-4.0,35141,List1B,white,woman,,TRUE,5,,,,,
null,CORRECT,,html-keyboard-response,212,1223106,0.0-16.0-5.0-0.0,35141,List1B,white,woman,,,,null,,,,
1271,"<img src=""portrait/WM2.jpg""style=""width:400px;height:400px;""></img>",7,html-button-response,213,1224391,0.0-16.0-7.0,35141,List1B,white,woman,,TRUE,7,,,,,
null,CORRECT,,html-keyboard-response,214,1225930,0.0-16.0-8.0-0.0,35141,List1B,white,woman,,,,null,,,,
1040,"<img src=""portrait/WM1.jpg""style=""width:400px;height:400px;""></img>",6,html-button-response,215,1226992,0.0-16.0-10.0,35141,List1B,white,woman,,TRUE,6,,,,,
null,CORRECT,,html-keyboard-response,216,1228525,0.0-16.0-11.0-0.0,35141,List1B,white,woman,,,,null,,,,
1606,"<img src=""portrait/WW1.jpg""style=""width:400px;height:400px;""></img>",1,html-button-response,217,1230144,0.0-16.0-13.0,35141,List1B,white,woman,,TRUE,1,,,,,
null,CORRECT,,html-keyboard-response,218,1231675,0.0-16.0-14.0-0.0,35141,List1B,white,woman,,,,null,,,,
1383,"<img src=""portrait/BM1.jpg""style=""width:400px;height:400px;""></img>",4,html-button-response,219,1233062,0.0-16.0-16.0,35141,List1B,white,woman,,TRUE,4,,,,,
null,CORRECT,,html-keyboard-response,220,1234597,0.0-16.0-17.0-0.0,35141,List1B,white,woman,,,,null,,,,
1307,"<img src=""portrait/BW2.jpg""style=""width:400px;height:400px;""></img>",2,html-button-response,221,1235918,0.0-16.0-19.0,35141,List1B,white,woman,,TRUE,2,,,,,
null,CORRECT,,html-keyboard-response,222,1237455,0.0-16.0-20.0-0.0,35141,List1B,white,woman,,,,null,,,,
1439,"<img src=""portrait/WW2.jpg""style=""width:400px;height:400px;""></img>",3,html-button-response,223,1238901,0.0-16.0-22.0,35141,List1B,white,woman,,TRUE,3,,,,,
null,CORRECT,,html-keyboard-response,224,1240429,0.0-16.0-23.0-0.0,35141,List1B,white,woman,,,,null,,,,
1901,<p>You got 8 out of 8 right first time. Press Continue.</p>,0,html-button-response,225,1242340,0.0-16.0-25.0,35141,List1B,white,woman,,,,,,,,
null,"<div style=""font-size:60px;"">+</div>",,html-keyboard-response,226,1243876,0.0-17.0-0.0,35141,List1B,white,woman,,,,null,,,,
null,"<img src=""stim_listB/meet7.gif""</stim_listB>",,html-keyboard-response,227,1245895,0.0-17.0-1.0,35141,List1B,white,woman,,,,null,,,,
null,is meeting,,html-keyboard-response,228,1247914,0.0-17.0-2.0,35141,List1B,white,woman,,,,null,,,,
5762,,,survey-text,229,1253677,0.0-17.0-3.0,35141,List1B,white,woman,,,,,"{""Q0"":""kate is meeting jane""}","<img src=""stim_listB/meet7.gif""</stim_listB>",is meeting,
null,"<div style=""font-size:60px;"">+</div>",,html-keyboard-response,230,1254195,0.0-17.0-0.1,35141,List1B,white,woman,,,,null,,,,
null,"<img src=""stim_listB/touch6.gif""</stim_listB>",,html-keyboard-response,231,1256218,0.0-17.0-1.1,35141,List1B,white,woman,,,,null,,,,
null,are touching each other,,html-keyboard-response,232,1258231,0.0-17.0-2.1,35141,List1B,white,woman,,,,null,,,,
8760,,,survey-text,233,1266997,0.0-17.0-3.1,35141,List1B,white,woman,,,,,"{""Q0"":""fred and luke are touching each other""}","<img src=""stim_listB/touch6.gif""</stim_listB>",are touching each other,
null,"<div style=""font-size:60px;"">+</div>",,html-keyboard-response,234,1267506,0.0-17.0-0.2,35141,List1B,white,woman,,,,null,,,,
null,"<img src=""stim_listB/fight7.gif""</stim_listB>",,html-keyboard-response,235,1269525,0.0-17.0-1.2,35141,List1B,white,woman,,,,null,,,,
null,is fighting,,html-keyboard-response,236,1271536,0.0-17.0-2.2,35141,List1B,white,woman,,,,null,,,,
9274,,,survey-text,237,1280813,0.0-17.0-3.2,35141,List1B,white,woman,,,,,"{""Q0"":""jane is fighting kate""}","<img src=""stim_listB/fight7.gif""</stim_listB>",is fighting,
null,"<div style=""font-size:60px;"">+</div>",,html-keyboard-response,238,1281325,0.0-17.0-0.3,35141,List1B,white,woman,,,,null,,,,
null,"<img src=""stim_listB/touch8.gif""</stim_listB>",,html-keyboard-response,239,1283335,0.0-17.0-1.3,35141,List1B,white,woman,,,,null,,,,
null,are touching each other,,html-keyboard-response,240,1285339,0.0-17.0-2.3,35141,List1B,white,woman,,,,null,,,,
13007,,,survey-text,241,1298351,0.0-17.0-3.3,35141,List1B,white,woman,,,,,"{""Q0"":""ruth and beth are touching each other""}","<img src=""stim_listB/touch8.gif""</stim_listB>",are touching each other,
null,"<div style=""font-size:60px;"">+</div>",,html-keyboard-response,242,1298865,0.0-17.0-0.4,35141,List1B,white,woman,,,,null,,,,
null,"<img src=""stim_listB/touch5.gif""</stim_listB>",,html-keyboard-response,243,1300886,0.0-17.0-1.4,35141,List1B,white,woman,,,,null,,,,
null,is touching,,html-keyboard-response,244,1302905,0.0-17.0-2.4,35141,List1B,white,woman,,,,null,,,,
8237,,,survey-text,245,1311149,0.0-17.0-3.4,35141,List1B,white,woman,,,,,"{""Q0"":""dave is touching mike""}","<img src=""stim_listB/touch5.gif""</stim_listB>",is touching,
null,"<div style=""font-size:60px;"">+</div>",,html-keyboard-response,246,1311666,0.0-17.0-0.5,35141,List1B,white,woman,,,,null,,,,
null,"<img src=""stim_listB/meet4.gif""</stim_listB>",,html-keyboard-response,247,1313686,0.0-17.0-1.5,35141,List1B,white,woman,,,,null,,,,
null,are meeting each other,,html-keyboard-response,248,1315706,0.0-17.0-2.5,35141,List1B,white,woman,,,,null,,,,
14118,,,survey-text,249,1329830,0.0-17.0-3.5,35141,List1B,white,woman,,,,,"{""Q0"":""luke and ruth are meeting each other""}","<img src=""stim_listB/meet4.gif""</stim_listB>",are meeting each other,
null,"<div style=""font-size:60px;"">+</div>",,html-keyboard-response,250,1330349,0.0-17.0-0.6,35141,List1B,white,woman,,,,null,,,,
null,"<img src=""stim_listB/kiss7.gif""</stim_listB>",,html-keyboard-response,251,1332373,0.0-17.0-1.6,35141,List1B,white,woman,,,,null,,,,
null,is kissing,,html-keyboard-response,252,1334386,0.0-17.0-2.6,35141,List1B,white,woman,,,,null,,,,
11161,,,survey-text,253,1345558,0.0-17.0-3.6,35141,List1B,white,woman,,,,,"{""Q0"":""ruth is kissing beth""}","<img src=""stim_listB/kiss7.gif""</stim_listB>",is kissing,
null,"<div style=""font-size:60px;"">+</div>",,html-keyboard-response,254,1346075,0.0-17.0-0.7,35141,List1B,white,woman,,,,null,,,,
null,"<img src=""stim_listB/touch7.gif""</stim_listB>",,html-keyboard-response,255,1348095,0.0-17.0-1.7,35141,List1B,white,woman,,,,null,,,,
null,is touching,,html-keyboard-response,256,1350115,0.0-17.0-2.7,35141,List1B,white,woman,,,,null,,,,
6471,,,survey-text,257,1356589,0.0-17.0-3.7,35141,List1B,white,woman,,,,,"{""Q0"":""jane is touching kate""}","<img src=""stim_listB/touch7.gif""</stim_listB>",is touching,
null,"<div style=""font-size:60px;"">+</div>",,html-keyboard-response,258,1357106,0.0-17.0-0.8,35141,List1B,white,woman,,,,null,,,,
null,"<img src=""stim_listB/fight5.gif""</stim_listB>",,html-keyboard-response,259,1359125,0.0-17.0-1.8,35141,List1B,white,woman,,,,null,,,,
null,is fighting,,html-keyboard-response,260,1361135,0.0-17.0-2.8,35141,List1B,white,woman,,,,null,,,,
9585,,,survey-text,261,1370725,0.0-17.0-3.8,35141,List1B,white,woman,,,,,"{""Q0"":""mike is fighting dave""}","<img src=""stim_listB/fight5.gif""</stim_listB>",is fighting,
null,"<div style=""font-size:60px;"">+</div>",,html-keyboard-response,262,1371245,0.0-17.0-0.9,35141,List1B,white,woman,,,,null,,,,
null,"<img src=""stim_listB/kiss2.gif""</stim_listB>",,html-keyboard-response,263,1373267,0.0-17.0-1.9,35141,List1B,white,woman,,,,null,,,,
null,are kissing each other,,html-keyboard-response,264,1375286,0.0-17.0-2.9,35141,List1B,white,woman,,,,null,,,,
9499,,,survey-text,265,1384791,0.0-17.0-3.9,35141,List1B,white,woman,,,,,"{""Q0"":""mike and kate are kissing each other""}","<img src=""stim_listB/kiss2.gif""</stim_listB>",are kissing each other,
null,"<div style=""font-size:60px;"">+</div>",,html-keyboard-response,266,1385308,0.0-17.0-0.10,35141,List1B,white,woman,,,,null,,,,
null,"<img src=""stim_listB/talk6.gif""</stim_listB>",,html-keyboard-response,267,1387326,0.0-17.0-1.10,35141,List1B,white,woman,,,,null,,,,
null,are talking to each other,,html-keyboard-response,268,1389335,0.0-17.0-2.10,35141,List1B,white,woman,,,,null,,,,
19055,,,survey-text,269,1408398,0.0-17.0-3.10,35141,List1B,white,woman,,,,,"{""Q0"":""mike and luke are talking to each other""}","<img src=""stim_listB/talk6.gif""</stim_listB>",are talking to each other,
null,"<div style=""font-size:60px;"">+</div>",,html-keyboard-response,270,1408902,0.0-17.0-0.11,35141,List1B,white,woman,,,,null,,,,
null,"<img src=""stim_listB/fight6.gif""</stim_listB>",,html-keyboard-response,271,1410926,0.0-17.0-1.11,35141,List1B,white,woman,,,,null,,,,
null,are fighting each other,,html-keyboard-response,272,1412945,0.0-17.0-2.11,35141,List1B,white,woman,,,,null,,,,
12886,,,survey-text,273,1425837,0.0-17.0-3.11,35141,List1B,white,woman,,,,,"{""Q0"":""fred and luke are fighting each other""}","<img src=""stim_listB/fight6.gif""</stim_listB>",are fighting each other,
null,"<div style=""font-size:60px;"">+</div>",,html-keyboard-response,274,1426356,0.0-17.0-0.12,35141,List1B,white,woman,,,,null,,,,
null,"<img src=""stim_listB/touch1.gif""</stim_listB>",,html-keyboard-response,275,1428379,0.0-17.0-1.12,35141,List1B,white,woman,,,,null,,,,
null,is touching,,html-keyboard-response,276,1430395,0.0-17.0-2.12,35141,List1B,white,woman,,,,null,,,,
7548,,,survey-text,277,1437950,0.0-17.0-3.12,35141,List1B,white,woman,,,,,"{""Q0"":""kate is touching mike""}","<img src=""stim_listB/touch1.gif""</stim_listB>",is touching,
null,"<div style=""font-size:60px;"">+</div>",,html-keyboard-response,278,1438455,0.0-17.0-0.13,35141,List1B,white,woman,,,,null,,,,
null,"<img src=""stim_listB/argue2.gif""</stim_listB>",,html-keyboard-response,279,1440476,0.0-17.0-1.13,35141,List1B,white,woman,,,,null,,,,
null,are arguing with each other,,html-keyboard-response,280,1442485,0.0-17.0-2.13,35141,List1B,white,woman,,,,null,,,,
12262,,,survey-text,281,1454749,0.0-17.0-3.13,35141,List1B,white,woman,,,,,"{""Q0"":""kate and fred are arguing with each other""}","<img src=""stim_listB/argue2.gif""</stim_listB>",are arguing with each other,
null,"<div style=""font-size:60px;"">+</div>",,html-keyboard-response,282,1455255,0.0-17.0-0.14,35141,List1B,white,woman,,,,null,,,,
null,"<img src=""stim_listB/hug3.gif""</stim_listB>",,html-keyboard-response,283,1457275,0.0-17.0-1.14,35141,List1B,white,woman,,,,null,,,,
null,is hugging,,html-keyboard-response,284,1459287,0.0-17.0-2.14,35141,List1B,white,woman,,,,null,,,,
8003,,,survey-text,285,1467294,0.0-17.0-3.14,35141,List1B,white,woman,,,,,"{""Q0"":""luke is hugging ruth""}","<img src=""stim_listB/hug3.gif""</stim_listB>",is hugging,
null,"<div style=""font-size:60px;"">+</div>",,html-keyboard-response,286,1467806,0.0-17.0-0.15,35141,List1B,white,woman,,,,null,,,,
null,"<img src=""stim_listB/shout8.gif""</stim_listB>",,html-keyboard-response,287,1469835,0.0-17.0-1.15,35141,List1B,white,woman,,,,null,,,,
null,are shouting at each other,,html-keyboard-response,288,1471854,0.0-17.0-2.15,35141,List1B,white,woman,,,,null,,,,
10748,,,survey-text,289,1482608,0.0-17.0-3.15,35141,List1B,white,woman,,,,,"{""Q0"":""jane and kate are shouting at each other""}","<img src=""stim_listB/shout8.gif""</stim_listB>",are shouting at each other,
null,"<div style=""font-size:60px;"">+</div>",,html-keyboard-response,290,1483125,0.0-17.0-0.16,35141,List1B,white,woman,,,,null,,,,
null,"<img src=""stim_listB/dance8.gif""</stim_listB>",,html-keyboard-response,291,1485145,0.0-17.0-1.16,35141,List1B,white,woman,,,,null,,,,
null,are dancing with each other,,html-keyboard-response,292,1487156,0.0-17.0-2.16,35141,List1B,white,woman,,,,null,,,,
13386,,,survey-text,293,1500550,0.0-17.0-3.16,35141,List1B,white,woman,,,,,"{""Q0"":""ruth and kate are dancing with each other""}","<img src=""stim_listB/dance8.gif""</stim_listB>",are dancing with each other,
null,"<div style=""font-size:60px;"">+</div>",,html-keyboard-response,294,1501056,0.0-17.0-0.17,35141,List1B,white,woman,,,,null,,,,
null,"<img src=""stim_listB/shout7.gif""</stim_listB>",,html-keyboard-response,295,1503075,0.0-17.0-1.17,35141,List1B,white,woman,,,,null,,,,
null,is shouting at,,html-keyboard-response,296,1505095,0.0-17.0-2.17,35141,List1B,white,woman,,,,null,,,,
11091,,,survey-text,297,1516189,0.0-17.0-3.17,35141,List1B,white,woman,,,,,"{""Q0"":""beth is shouting at ruth""}","<img src=""stim_listB/shout7.gif""</stim_listB>",is shouting at,
null,"<div style=""font-size:60px;"">+</div>",,html-keyboard-response,298,1516698,0.0-17.0-0.18,35141,List1B,white,woman,,,,null,,,,
null,"<img src=""stim_listB/kiss6.gif""</stim_listB>",,html-keyboard-response,299,1518716,0.0-17.0-1.18,35141,List1B,white,woman,,,,null,,,,
null,are kissing each other,,html-keyboard-response,300,1520736,0.0-17.0-2.18,35141,List1B,white,woman,,,,null,,,,
16369,,,survey-text,301,1537109,0.0-17.0-3.18,35141,List1B,white,woman,,,,,"{""Q0"":""mike and dave are kissing each other""}","<img src=""stim_listB/kiss6.gif""</stim_listB>",are kissing each other,
null,"<div style=""font-size:60px;"">+</div>",,html-keyboard-response,302,1537615,0.0-17.0-0.19,35141,List1B,white,woman,,,,null,,,,
null,"<img src=""stim_listB/dance4.gif""</stim_listB>",,html-keyboard-response,303,1539641,0.0-17.0-1.19,35141,List1B,white,woman,,,,null,,,,
null,are dancing with each other,,html-keyboard-response,304,1541654,0.0-17.0-2.19,35141,List1B,white,woman,,,,null,,,,
16250,,,survey-text,305,1557910,0.0-17.0-3.19,35141,List1B,white,woman,,,,,"{""Q0"":""dave and ruth are dancing with each other""}","<img src=""stim_listB/dance4.gif""</stim_listB>",are dancing with each other,
2162,"<img src='img/portrait_matrix_list1.JPG' style='width:900px;height:500px;''></img><p>If you have memorised all the portraits and names and are ready to start, press Continue.</p><p><strong>Please note: Your memory of these faces will be tested 4 times during this experiment.</strong></p>",0,html-button-response,306,1560078,0.0-18.0-0.0,35141,List1B,white,woman,,,,,,,,
1700,"<img src=""portrait/BM1.jpg""style=""width:400px;height:400px;""></img>",4,html-button-response,307,1562790,0.0-18.0-1.0,35141,List1B,white,woman,,TRUE,4,,,,,
null,CORRECT,,html-keyboard-response,308,1564326,0.0-18.0-2.0-0.0,35141,List1B,white,woman,,,,null,,,,
1731,"<img src=""portrait/BW1.jpg""style=""width:400px;height:400px;""></img>",0,html-button-response,309,1566070,0.0-18.0-4.0,35141,List1B,white,woman,,TRUE,0,,,,,
null,CORRECT,,html-keyboard-response,310,1567605,0.0-18.0-5.0-0.0,35141,List1B,white,woman,,,,null,,,,
1318,"<img src=""portrait/WW1.jpg""style=""width:400px;height:400px;""></img>",1,html-button-response,311,1568933,0.0-18.0-7.0,35141,List1B,white,woman,,TRUE,1,,,,,
null,CORRECT,,html-keyboard-response,312,1570467,0.0-18.0-8.0-0.0,35141,List1B,white,woman,,,,null,,,,
1435,"<img src=""portrait/WM2.jpg""style=""width:400px;height:400px;""></img>",7,html-button-response,313,1571911,0.0-18.0-10.0,35141,List1B,white,woman,,TRUE,7,,,,,
null,CORRECT,,html-keyboard-response,314,1573436,0.0-18.0-11.0-0.0,35141,List1B,white,woman,,,,null,,,,
1538,"<img src=""portrait/BW2.jpg""style=""width:400px;height:400px;""></img>",2,html-button-response,315,1574982,0.0-18.0-13.0,35141,List1B,white,woman,,TRUE,2,,,,,
null,CORRECT,,html-keyboard-response,316,1576515,0.0-18.0-14.0-0.0,35141,List1B,white,woman,,,,null,,,,
1043,"<img src=""portrait/WW2.jpg""style=""width:400px;height:400px;""></img>",3,html-button-response,317,1577566,0.0-18.0-16.0,35141,List1B,white,woman,,TRUE,3,,,,,
null,CORRECT,,html-keyboard-response,318,1579108,0.0-18.0-17.0-0.0,35141,List1B,white,woman,,,,null,,,,
1402,"<img src=""portrait/BM2.jpg""style=""width:400px;height:400px;""></img>",5,html-button-response,319,1580518,0.0-18.0-19.0,35141,List1B,white,woman,,TRUE,5,,,,,
null,CORRECT,,html-keyboard-response,320,1582047,0.0-18.0-20.0-0.0,35141,List1B,white,woman,,,,null,,,,
1559,"<img src=""portrait/WM1.jpg""style=""width:400px;height:400px;""></img>",6,html-button-response,321,1583614,0.0-18.0-22.0,35141,List1B,white,woman,,TRUE,6,,,,,
null,CORRECT,,html-keyboard-response,322,1585135,0.0-18.0-23.0-0.0,35141,List1B,white,woman,,,,null,,,,
1545,<p>You got 8 out of 8 right first time. Press Continue.</p>,0,html-button-response,323,1586693,0.0-18.0-25.0,35141,List1B,white,woman,,,,,,,,
null,"<div style=""font-size:60px;"">+</div>",,html-keyboard-response,324,1588226,0.0-19.0-0.0,35141,List1B,white,woman,,,,null,,,,
null,"<img src=""stim_listB/meet8.gif""</stim_listB>",,html-keyboard-response,325,1590245,0.0-19.0-1.0,35141,List1B,white,woman,,,,null,,,,
null,are meeting each other,,html-keyboard-response,326,1592255,0.0-19.0-2.0,35141,List1B,white,woman,,,,null,,,,
11976,,,survey-text,327,1604237,0.0-19.0-3.0,35141,List1B,white,woman,,,,,"{""Q0"":""ruth and beth are meeting each other""}","<img src=""stim_listB/meet8.gif""</stim_listB>",are meeting each other,
null,"<div style=""font-size:60px;"">+</div>",,html-keyboard-response,328,1604755,0.0-19.0-0.1,35141,List1B,white,woman,,,,null,,,,
null,"<img src=""stim_listB/talk1.gif""</stim_listB>",,html-keyboard-response,329,1606775,0.0-19.0-1.1,35141,List1B,white,woman,,,,null,,,,
null,is talking to,,html-keyboard-response,330,1608785,0.0-19.0-2.1,35141,List1B,white,woman,,,,null,,,,
7329,,,survey-text,331,1616117,0.0-19.0-3.1,35141,List1B,white,woman,,,,,"{""Q0"":""kate is talking to fred""}","<img src=""stim_listB/talk1.gif""</stim_listB>",is talking to,
null,"<div style=""font-size:60px;"">+</div>",,html-keyboard-response,332,1616630,0.0-19.0-0.2,35141,List1B,white,woman,,,,null,,,,
null,"<img src=""stim_listB/meet5.gif""</stim_listB>",,html-keyboard-response,333,1618638,0.0-19.0-1.2,35141,List1B,white,woman,,,,null,,,,
null,is meeting,,html-keyboard-response,334,1620645,0.0-19.0-2.2,35141,List1B,white,woman,,,,null,,,,
8032,,,survey-text,335,1628678,0.0-19.0-3.2,35141,List1B,white,woman,,,,,"{""Q0"":""dave is meeting mike""}","<img src=""stim_listB/meet5.gif""</stim_listB>",is meeting,
null,"<div style=""font-size:60px;"">+</div>",,html-keyboard-response,336,1629187,0.0-19.0-0.3,35141,List1B,white,woman,,,,null,,,,
null,"<img src=""stim_listB/marry4.gif""</stim_listB>",,html-keyboard-response,337,1631207,0.0-19.0-1.3,35141,List1B,white,woman,,,,null,,,,
null,are marrying each other,,html-keyboard-response,338,1633215,0.0-19.0-2.3,35141,List1B,white,woman,,,,null,,,,
10780,,,survey-text,339,1643998,0.0-19.0-3.3,35141,List1B,white,woman,,,,,"{""Q0"":""jane and luke are marrying each other""}","<img src=""stim_listB/marry4.gif""</stim_listB>",are marrying each other,
null,"<div style=""font-size:60px;"">+</div>",,html-keyboard-response,340,1644505,0.0-19.0-0.4,35141,List1B,white,woman,,,,null,,,,
null,"<img src=""stim_listB/hug1.gif""</stim_listB>",,html-keyboard-response,341,1646516,0.0-19.0-1.4,35141,List1B,white,woman,,,,null,,,,
null,is hugging,,html-keyboard-response,342,1648530,0.0-19.0-2.4,35141,List1B,white,woman,,,,null,,,,
8908,,,survey-text,343,1657454,0.0-19.0-3.4,35141,List1B,white,woman,,,,,"{""Q0"":""beth is hugging fred""}","<img src=""stim_listB/hug1.gif""</stim_listB>",is hugging,
null,"<div style=""font-size:60px;"">+</div>",,html-keyboard-response,344,1657975,0.0-19.0-0.5,35141,List1B,white,woman,,,,null,,,,
null,"<img src=""stim_listB/marry5.gif""</stim_listB>",,html-keyboard-response,345,1659997,0.0-19.0-1.5,35141,List1B,white,woman,,,,null,,,,
null,is marrying,,html-keyboard-response,346,1662017,0.0-19.0-2.5,35141,List1B,white,woman,,,,null,,,,
6797,,,survey-text,347,1668822,0.0-19.0-3.5,35141,List1B,white,woman,,,,,"{""Q0"":""luke is marrying mike""}","<img src=""stim_listB/marry5.gif""</stim_listB>",is marrying,
null,"<div style=""font-size:60px;"">+</div>",,html-keyboard-response,348,1669331,0.0-19.0-0.6,35141,List1B,white,woman,,,,null,,,,
null,"<img src=""stim_listB/fight4.gif""</stim_listB>",,html-keyboard-response,349,1671356,0.0-19.0-1.6,35141,List1B,white,woman,,,,null,,,,
null,are fighting each other,,html-keyboard-response,350,1673361,0.0-19.0-2.6,35141,List1B,white,woman,,,,null,,,,
9354,,,survey-text,351,1682717,0.0-19.0-3.6,35141,List1B,white,woman,,,,,"{""Q0"":""ruth and luke are fighting each other""}","<img src=""stim_listB/fight4.gif""</stim_listB>",are fighting each other,
null,"<div style=""font-size:60px;"">+</div>",,html-keyboard-response,352,1683226,0.0-19.0-0.7,35141,List1B,white,woman,,,,null,,,,
null,"<img src=""stim_listB/shout6.gif""</stim_listB>",,html-keyboard-response,353,1685246,0.0-19.0-1.7,35141,List1B,white,woman,,,,null,,,,
null,are shouting at each other,,html-keyboard-response,354,1687266,0.0-19.0-2.7,35141,List1B,white,woman,,,,null,,,,
11063,,,survey-text,355,1698333,0.0-19.0-3.7,35141,List1B,white,woman,,,,,"{""Q0"":""dave and mike are shouting at each other""}","<img src=""stim_listB/shout6.gif""</stim_listB>",are shouting at each other,
null,"<div style=""font-size:60px;"">+</div>",,html-keyboard-response,356,1698844,0.0-19.0-0.8,35141,List1B,white,woman,,,,null,,,,
null,"<img src=""stim_listB/kiss4.gif""</stim_listB>",,html-keyboard-response,357,1700865,0.0-19.0-1.8,35141,List1B,white,woman,,,,null,,,,
null,are kissing each other,,html-keyboard-response,358,1702869,0.0-19.0-2.8,35141,List1B,white,woman,,,,null,,,,
12773,,,survey-text,359,1715648,0.0-19.0-3.8,35141,List1B,white,woman,,,,,"{""Q0"":""dave and jane are kissing each other""}","<img src=""stim_listB/kiss4.gif""</stim_listB>",are kissing each other,
null,"<div style=""font-size:60px;"">+</div>",,html-keyboard-response,360,1716156,0.0-19.0-0.9,35141,List1B,white,woman,,,,null,,,,
null,"<img src=""stim_listB/fight8.gif""</stim_listB>",,html-keyboard-response,361,1718175,0.0-19.0-1.9,35141,List1B,white,woman,,,,null,,,,
null,are fighting each other,,html-keyboard-response,362,1720198,0.0-19.0-2.9,35141,List1B,white,woman,,,,null,,,,
10840,,,survey-text,363,1731045,0.0-19.0-3.9,35141,List1B,white,woman,,,,,"{""Q0"":""beth and ruth are fighting each other""}","<img src=""stim_listB/fight8.gif""</stim_listB>",are fighting each other,
null,"<div style=""font-size:60px;"">+</div>",,html-keyboard-response,364,1731561,0.0-19.0-0.10,35141,List1B,white,woman,,,,null,,,,
null,"<img src=""stim_listB/fight1.gif""</stim_listB>",,html-keyboard-response,365,1733585,0.0-19.0-1.10,35141,List1B,white,woman,,,,null,,,,
null,is fighting,,html-keyboard-response,366,1735593,0.0-19.0-2.10,35141,List1B,white,woman,,,,null,,,,
8535,,,survey-text,367,1744133,0.0-19.0-3.10,35141,List1B,white,woman,,,,,"{""Q0"":""mike is fighting kate""}","<img src=""stim_listB/fight1.gif""</stim_listB>",is fighting,
null,"<div style=""font-size:60px;"">+</div>",,html-keyboard-response,368,1744644,0.0-19.0-0.11,35141,List1B,white,woman,,,,null,,,,
null,"<img src=""stim_listB/kiss1.gif""</stim_listB>",,html-keyboard-response,369,1746659,0.0-19.0-1.11,35141,List1B,white,woman,,,,null,,,,
null,is kissing,,html-keyboard-response,370,1748671,0.0-19.0-2.11,35141,List1B,white,woman,,,,null,,,,
7791,,,survey-text,371,1756470,0.0-19.0-3.11,35141,List1B,white,woman,,,,,"{""Q0"":""beth is kissing fred""}","<img src=""stim_listB/kiss1.gif""</stim_listB>",is kissing,
null,"<div style=""font-size:60px;"">+</div>",,html-keyboard-response,372,1756976,0.0-19.0-0.12,35141,List1B,white,woman,,,,null,,,,
null,"<img src=""stim_listB/kiss3.gif""</stim_listB>",,html-keyboard-response,373,1758986,0.0-19.0-1.12,35141,List1B,white,woman,,,,null,,,,
null,is kissing,,html-keyboard-response,374,1761005,0.0-19.0-2.12,35141,List1B,white,woman,,,,null,,,,
6421,,,survey-text,375,1767429,0.0-19.0-3.12,35141,List1B,white,woman,,,,,"{""Q0"":""ruth is kissing luke""}","<img src=""stim_listB/kiss3.gif""</stim_listB>",is kissing,
null,"<div style=""font-size:60px;"">+</div>",,html-keyboard-response,376,1767946,0.0-19.0-0.13,35141,List1B,white,woman,,,,null,,,,
null,"<img src=""stim_listB/argue8.gif""</stim_listB>",,html-keyboard-response,377,1769965,0.0-19.0-1.13,35141,List1B,white,woman,,,,null,,,,
null,are arguing with each other,,html-keyboard-response,378,1771979,0.0-19.0-2.13,35141,List1B,white,woman,,,,null,,,,
12335,,,survey-text,379,1784317,0.0-19.0-3.13,35141,List1B,white,woman,,,,,"{""Q0"":""beth and jane are arguing with each other""}","<img src=""stim_listB/argue8.gif""</stim_listB>",are arguing with each other,
null,"<div style=""font-size:60px;"">+</div>",,html-keyboard-response,380,1784826,0.0-19.0-0.14,35141,List1B,white,woman,,,,null,,,,
null,"<img src=""stim_listB/meet3.gif""</stim_listB>",,html-keyboard-response,381,1786845,0.0-19.0-1.14,35141,List1B,white,woman,,,,null,,,,
null,is meeting,,html-keyboard-response,382,1788866,0.0-19.0-2.14,35141,List1B,white,woman,,,,null,,,,
9990,,,survey-text,383,1798861,0.0-19.0-3.14,35141,List1B,white,woman,,,,,"{""Q0"":""jane is meeting dave""}","<img src=""stim_listB/meet3.gif""</stim_listB>",is meeting,
null,"<div style=""font-size:60px;"">+</div>",,html-keyboard-response,384,1799376,0.0-19.0-0.15,35141,List1B,white,woman,,,,null,,,,
null,"<img src=""stim_listB/talk7.gif""</stim_listB>",,html-keyboard-response,385,1801397,0.0-19.0-1.15,35141,List1B,white,woman,,,,null,,,,
null,is talking to,,html-keyboard-response,386,1803415,0.0-19.0-2.15,35141,List1B,white,woman,,,,null,,,,
7007,,,survey-text,387,1810429,0.0-19.0-3.15,35141,List1B,white,woman,,,,,"{""Q0"":""jane is talking to beth""}","<img src=""stim_listB/talk7.gif""</stim_listB>",is talking to,
null,"<div style=""font-size:60px;"">+</div>",,html-keyboard-response,388,1810945,0.0-19.0-0.16,35141,List1B,white,woman,,,,null,,,,
null,"<img src=""stim_listB/hug2.gif""</stim_listB>",,html-keyboard-response,389,1812967,0.0-19.0-1.16,35141,List1B,white,woman,,,,null,,,,
null,are hugging each other,,html-keyboard-response,390,1814983,0.0-19.0-2.16,35141,List1B,white,woman,,,,null,,,,
10788,,,survey-text,391,1825773,0.0-19.0-3.16,35141,List1B,white,woman,,,,,"{""Q0"":""kate and mike are hugging each other""}","<img src=""stim_listB/hug2.gif""</stim_listB>",are hugging each other,
null,"<div style=""font-size:60px;"">+</div>",,html-keyboard-response,392,1826296,0.0-19.0-0.17,35141,List1B,white,woman,,,,null,,,,
null,"<img src=""stim_listB/hug4.gif""</stim_listB>",,html-keyboard-response,393,1828308,0.0-19.0-1.17,35141,List1B,white,woman,,,,null,,,,
null,are hugging each other,,html-keyboard-response,394,1830327,0.0-19.0-2.17,35141,List1B,white,woman,,,,null,,,,
11604,,,survey-text,395,1841934,0.0-19.0-3.17,35141,List1B,white,woman,,,,,"{""Q0"":""jane and dave are hugging each other""}","<img src=""stim_listB/hug4.gif""</stim_listB>",are hugging each other,
null,"<div style=""font-size:60px;"">+</div>",,html-keyboard-response,396,1842458,0.0-19.0-0.18,35141,List1B,white,woman,,,,null,,,,
null,"<img src=""stim_listB/marry7.gif""</stim_listB>",,html-keyboard-response,397,1844476,0.0-19.0-1.18,35141,List1B,white,woman,,,,null,,,,
null,is marrying,,html-keyboard-response,398,1846495,0.0-19.0-2.18,35141,List1B,white,woman,,,,null,,,,
6111,,,survey-text,399,1852613,0.0-19.0-3.18,35141,List1B,white,woman,,,,,"{""Q0"":""ruth is marrying kate""}","<img src=""stim_listB/marry7.gif""</stim_listB>",is marrying,
null,"<div style=""font-size:60px;"">+</div>",,html-keyboard-response,400,1853126,0.0-19.0-0.19,35141,List1B,white,woman,,,,null,,,,
null,"<img src=""stim_listB/talk4.gif""</stim_listB>",,html-keyboard-response,401,1855146,0.0-19.0-1.19,35141,List1B,white,woman,,,,null,,,,
null,are talking to each other,,html-keyboard-response,402,1857166,0.0-19.0-2.19,35141,List1B,white,woman,,,,null,,,,
15284,,,survey-text,403,1872454,0.0-19.0-3.19,35141,List1B,white,woman,,,,,"{""Q0"":""ruth and dave are talking to each other""}","<img src=""stim_listB/talk4.gif""</stim_listB>",are talking to each other,
2380,<p>Thank you for completing that task.</p><p>The final part of this session is a short questionnaire.</p><p>Press Continue.</p>,0,html-button-response,404,1874838,0.0-20.0,35141,List1B,white,woman,,,,,,,,
28818,,,survey-text,405,1904678,0.0-21.0,35141,List1B,white,woman,,,,,"{""Q0"":""35"",""Q1"":""english"",""Q2"":""english"",""Q3"":""uk"",""Q4"":""white"",""Q5"":""female""}",,,demographics
45409,,,survey-likert,406,1950100,0.0-22.0,35141,List1B,white,woman,,,,,"{""Q0"":3,""Q1"":3,""Q2"":3,""Q3"":4,""Q4"":3,""Q5"":3,""Q6"":3,""Q7"":0,""Q8"":0,""Q9"":0,""Q10"":0,""Q11"":0,""Q12"":0,""Q13"":3}",,,likert_race
45095,,,survey-likert,407,1995211,0.0-23.0,35141,List1B,white,woman,,,,,"{""Q0"":2,""Q1"":4,""Q2"":4,""Q3"":5,""Q4"":6,""Q5"":6,""Q6"":6,""Q7"":6,""Q8"":6,""Q9"":6,""Q10"":6,""Q11"":6,""Q12"":6,""Q13"":6}",,,likert_gender
4452,,,survey-text,408,1999670,0.0-24.0,35141,List1B,white,woman,,,,,"{""Q0"":""ccc""}",,,worker_id
20454,,,external-html,409,2020208,0.0-25.0,35141,List1B,white,woman,debrief.html,,,,,,,
