rt,stimulus,button_pressed,trial_type,trial_index,time_elapsed,internal_node_id,subject,list,ppt_race,ppt_gender,url,first_guess,correct,key_press,responses,image_type,phrase_type,test_part
3117,Welcome to the experiment. Press Continue to begin.,0,html-button-response,0,3159,0.0-0.0,35182,List1A,black,woman,,,,,,,,
8883,,,external-html,1,13202,0.0-1.0,35182,List1A,black,woman,consent.html,,,,,,,
43620,"<p>On the next page, you will see portraits of 8 people and their names.</p><p>Your first task is to take a few minutes to memorise the names of these people.</p><p>You will have to recall their names during the rest of the experiment, so it is</p><p>essential that you try to memorise these people and their names as best as you can.</p><br><p><strong>You will then be tested on your memory of these names and portraits.</strong></p><br><p>The experiment will start after you have completed this memory test.</p><br><p>Ready?</p>",0,html-button-response,2,56825,0.0-2.0,35182,List1A,black,woman,,,,,,,,
84550,"<img src='img/portrait_matrix_list1.JPG' style='width:900px;height:500px;''></img><p>If you have memorised all the portraits and names and are ready to start, press Continue.</p><p><strong>Please note: Your memory of these faces will be tested 4 times during this experiment.</strong></p>",0,html-button-response,3,142378,0.0-3.0-0.0,35182,List1A,black,woman,,,,,,,,
20549,"<img src=""portrait/WW2.jpg""style=""width:400px;height:400px;""></img>",3,html-button-response,4,163932,0.0-3.0-1.0,35182,List1A,black,woman,,TRUE,3,,,,,
null,CORRECT,,html-keyboard-response,5,165438,0.0-3.0-2.0-0.0,35182,List1A,black,woman,,,,null,,,,
5301,"<img src=""portrait/BW2.jpg""style=""width:400px;height:400px;""></img>",2,html-button-response,6,170743,0.0-3.0-4.0,35182,List1A,black,woman,,TRUE,2,,,,,
null,CORRECT,,html-keyboard-response,7,172249,0.0-3.0-5.0-0.0,35182,List1A,black,woman,,,,null,,,,
12513,"<img src=""portrait/WM1.jpg""style=""width:400px;height:400px;""></img>",6,html-button-response,8,184765,0.0-3.0-7.0,35182,List1A,black,woman,,TRUE,6,,,,,
null,CORRECT,,html-keyboard-response,9,186269,0.0-3.0-8.0-0.0,35182,List1A,black,woman,,,,null,,,,
11759,"<img src=""portrait/WW1.jpg""style=""width:400px;height:400px;""></img>",1,html-button-response,10,198032,0.0-3.0-10.0,35182,List1A,black,woman,,TRUE,1,,,,,
null,CORRECT,,html-keyboard-response,11,199534,0.0-3.0-11.0-0.0,35182,List1A,black,woman,,,,null,,,,
7276,"<img src=""portrait/WM2.jpg""style=""width:400px;height:400px;""></img>",7,html-button-response,12,206813,0.0-3.0-13.0,35182,List1A,black,woman,,TRUE,7,,,,,
null,CORRECT,,html-keyboard-response,13,208315,0.0-3.0-14.0-0.0,35182,List1A,black,woman,,,,null,,,,
6486,"<img src=""portrait/BM1.jpg""style=""width:400px;height:400px;""></img>",4,html-button-response,14,214804,0.0-3.0-16.0,35182,List1A,black,woman,,TRUE,4,,,,,
null,CORRECT,,html-keyboard-response,15,216308,0.0-3.0-17.0-0.0,35182,List1A,black,woman,,,,null,,,,
6590,"<img src=""portrait/BM2.jpg""style=""width:400px;height:400px;""></img>",5,html-button-response,16,222900,0.0-3.0-19.0,35182,List1A,black,woman,,TRUE,5,,,,,
null,CORRECT,,html-keyboard-response,17,224404,0.0-3.0-20.0-0.0,35182,List1A,black,woman,,,,null,,,,
10394,"<img src=""portrait/BW1.jpg""style=""width:400px;height:400px;""></img>",0,html-button-response,18,234801,0.0-3.0-22.0,35182,List1A,black,woman,,TRUE,0,,,,,
null,CORRECT,,html-keyboard-response,19,236304,0.0-3.0-23.0-0.0,35182,List1A,black,woman,,,,null,,,,
2627,<p>You got 8 out of 8 right first time. Press Continue.</p>,0,html-button-response,20,238934,0.0-3.0-25.0,35182,List1A,black,woman,,,,,,,,
30239,"<p>In this experiment, you will view photographs of the people from the memory game interacting.</p><p>By using the <strong>exact</strong> phrase given <i>after</i> the photograph appears and recalling the correct names of the people in the photographs, form a sentence describing the interaction. You do not need to capitalise names.</p><p>Type your answer in the space provided. Please complete every sentence before moving onto the next trial.</p><p>You will only have a few seconds to memorise each given photograph and phrase before you can respond, so try your best to focus.</p><p>An example is given below. Press 'Continue' when you are ready.</p><img src='img/speaking_example_v2.jpg' style='width:800px;height:460px;''></img>",0,html-button-response,21,270178,0.0-4.0,35182,List1A,black,woman,,,,,,,,
2212,"<p>Before the experiment starts, you will watch two example trials. Press 'Continue'.</p>",0,html-button-response,22,273392,0.0-5.0,35182,List1A,black,woman,,,,,,,,
null,<img src='img/speaking_WW.gif'></img>,,html-keyboard-response,23,276396,0.0-6.0,35182,List1A,black,woman,,,,null,,,,
null,<p>is speaking to</p>,,html-keyboard-response,24,278397,0.0-7.0,35182,List1A,black,woman,,,,null,,,,
4740,<p><b>Answer:</b> kate is speaking to beth</p>,0,html-button-response,25,283139,0.0-8.0,35182,List1A,black,woman,,,,,,,,
null,<img src='img/pointing_BM.gif'></img>,,html-keyboard-response,26,286141,0.0-9.0,35182,List1A,black,woman,,,,null,,,,
null,<p>are pointing at each other</p>,,html-keyboard-response,27,288142,0.0-10.0,35182,List1A,black,woman,,,,null,,,,
3219,<p><b>Answer:</b> luke and dave are pointing at each other</p>,0,html-button-response,28,291363,0.0-11.0,35182,List1A,black,woman,,,,,,,,
9962,"<p>Ready to start the experiment?</p><br><p><strong>Remember to describe the picture using a full sentence,</strong></p><p><strong> that combines the names of the people with the given phrase.</strong></p><p><strong> You do not need to capitalise names or use punctuation.</strong></p><br><p>Press 'Continue' to begin.</p>",0,html-button-response,29,302328,0.0-12.0,35182,List1A,black,woman,,,,,,,,
null,"<div style=""font-size:60px;"">+</div>",,html-keyboard-response,30,303830,0.0-13.0-0.0,35182,List1A,black,woman,,,,null,,,,
null,"<img src=""stim_listA/marry5.gif""</stim_listA>",,html-keyboard-response,31,305833,0.0-13.0-1.0,35182,List1A,black,woman,,,,null,,,,
null,is marrying,,html-keyboard-response,32,307835,0.0-13.0-2.0,35182,List1A,black,woman,,,,null,,,,
12256,,,survey-text,33,320093,0.0-13.0-3.0,35182,List1A,black,woman,,,,,"{""Q0"":""is marrying""}","<img src=""stim_listA/marry5.gif""</stim_listA>",is marrying,
null,"<div style=""font-size:60px;"">+</div>",,html-keyboard-response,34,320598,0.0-13.0-0.1,35182,List1A,black,woman,,,,null,,,,
null,"<img src=""stim_listA/fight4.gif""</stim_listA>",,html-keyboard-response,35,322600,0.0-13.0-1.1,35182,List1A,black,woman,,,,null,,,,
null,are fighting each other,,html-keyboard-response,36,324602,0.0-13.0-2.1,35182,List1A,black,woman,,,,null,,,,
14646,,,survey-text,37,339250,0.0-13.0-3.1,35182,List1A,black,woman,,,,,"{""Q0"":""are fighting each other""}","<img src=""stim_listA/fight4.gif""</stim_listA>",are fighting each other,
null,"<div style=""font-size:60px;"">+</div>",,html-keyboard-response,38,339753,0.0-13.0-0.2,35182,List1A,black,woman,,,,null,,,,
null,"<img src=""stim_listA/dance2.gif""</stim_listA>",,html-keyboard-response,39,341755,0.0-13.0-1.2,35182,List1A,black,woman,,,,null,,,,
null,are dancing with each other,,html-keyboard-response,40,343757,0.0-13.0-2.2,35182,List1A,black,woman,,,,null,,,,
12527,,,survey-text,41,356285,0.0-13.0-3.2,35182,List1A,black,woman,,,,,"{""Q0"":""are dancing with each other""}","<img src=""stim_listA/dance2.gif""</stim_listA>",are dancing with each other,
null,"<div style=""font-size:60px;"">+</div>",,html-keyboard-response,42,356788,0.0-13.0-0.3,35182,List1A,black,woman,,,,null,,,,
null,"<img src=""stim_listA/argue3.gif""</stim_listA>",,html-keyboard-response,43,358790,0.0-13.0-1.3,35182,List1A,black,woman,,,,null,,,,
null,is arguing with,,html-keyboard-response,44,360792,0.0-13.0-2.3,35182,List1A,black,woman,,,,null,,,,
17510,,,survey-text,45,378303,0.0-13.0-3.3,35182,List1A,black,woman,,,,,"{""Q0"":""is arguing with""}","<img src=""stim_listA/argue3.gif""</stim_listA>",is arguing with,
null,"<div style=""font-size:60px;"">+</div>",,html-keyboard-response,46,378805,0.0-13.0-0.4,35182,List1A,black,woman,,,,null,,,,
null,"<img src=""stim_listA/talk5.gif""</stim_listA>",,html-keyboard-response,47,380808,0.0-13.0-1.4,35182,List1A,black,woman,,,,null,,,,
null,is talking to,,html-keyboard-response,48,382810,0.0-13.0-2.4,35182,List1A,black,woman,,,,null,,,,
7562,,,survey-text,49,390374,0.0-13.0-3.4,35182,List1A,black,woman,,,,,"{""Q0"":""is talk to""}","<img src=""stim_listA/talk5.gif""</stim_listA>",is talking to,
null,"<div style=""font-size:60px;"">+</div>",,html-keyboard-response,50,390876,0.0-13.0-0.5,35182,List1A,black,woman,,,,null,,,,
null,"<img src=""stim_listA/argue5.gif""</stim_listA>",,html-keyboard-response,51,392879,0.0-13.0-1.5,35182,List1A,black,woman,,,,null,,,,
null,is arguing with,,html-keyboard-response,52,394881,0.0-13.0-2.5,35182,List1A,black,woman,,,,null,,,,
9894,,,survey-text,53,404777,0.0-13.0-3.5,35182,List1A,black,woman,,,,,"{""Q0"":""is arguing with""}","<img src=""stim_listA/argue5.gif""</stim_listA>",is arguing with,
null,"<div style=""font-size:60px;"">+</div>",,html-keyboard-response,54,405280,0.0-13.0-0.6,35182,List1A,black,woman,,,,null,,,,
null,"<img src=""stim_listA/fight5.gif""</stim_listA>",,html-keyboard-response,55,407282,0.0-13.0-1.6,35182,List1A,black,woman,,,,null,,,,
null,is fighting,,html-keyboard-response,56,409284,0.0-13.0-2.6,35182,List1A,black,woman,,,,null,,,,
7100,,,survey-text,57,416385,0.0-13.0-3.6,35182,List1A,black,woman,,,,,"{""Q0"":""is fighting""}","<img src=""stim_listA/fight5.gif""</stim_listA>",is fighting,
null,"<div style=""font-size:60px;"">+</div>",,html-keyboard-response,58,416888,0.0-13.0-0.7,35182,List1A,black,woman,,,,null,,,,
null,"<img src=""stim_listA/kiss1.gif""</stim_listA>",,html-keyboard-response,59,418891,0.0-13.0-1.7,35182,List1A,black,woman,,,,null,,,,
null,is kissing,,html-keyboard-response,60,420893,0.0-13.0-2.7,35182,List1A,black,woman,,,,null,,,,
8360,,,survey-text,61,429255,0.0-13.0-3.7,35182,List1A,black,woman,,,,,"{""Q0"":""is kissing""}","<img src=""stim_listA/kiss1.gif""</stim_listA>",is kissing,
null,"<div style=""font-size:60px;"">+</div>",,html-keyboard-response,62,429757,0.0-13.0-0.8,35182,List1A,black,woman,,,,null,,,,
null,"<img src=""stim_listA/argue4.gif""</stim_listA>",,html-keyboard-response,63,431760,0.0-13.0-1.8,35182,List1A,black,woman,,,,null,,,,
null,are arguing with each other,,html-keyboard-response,64,433762,0.0-13.0-2.8,35182,List1A,black,woman,,,,null,,,,
11935,,,survey-text,65,445698,0.0-13.0-3.8,35182,List1A,black,woman,,,,,"{""Q0"":""are arguing with ""}","<img src=""stim_listA/argue4.gif""</stim_listA>",are arguing with each other,
null,"<div style=""font-size:60px;"">+</div>",,html-keyboard-response,66,446205,0.0-13.0-0.9,35182,List1A,black,woman,,,,null,,,,
null,"<img src=""stim_listA/hug7.gif""</stim_listA>",,html-keyboard-response,67,448209,0.0-13.0-1.9,35182,List1A,black,woman,,,,null,,,,
null,is hugging,,html-keyboard-response,68,450211,0.0-13.0-2.9,35182,List1A,black,woman,,,,null,,,,
8217,,,survey-text,69,458430,0.0-13.0-3.9,35182,List1A,black,woman,,,,,"{""Q0"":""is hugging""}","<img src=""stim_listA/hug7.gif""</stim_listA>",is hugging,
null,"<div style=""font-size:60px;"">+</div>",,html-keyboard-response,70,458932,0.0-13.0-0.10,35182,List1A,black,woman,,,,null,,,,
null,"<img src=""stim_listA/talk7.gif""</stim_listA>",,html-keyboard-response,71,460935,0.0-13.0-1.10,35182,List1A,black,woman,,,,null,,,,
null,is talking to,,html-keyboard-response,72,462936,0.0-13.0-2.10,35182,List1A,black,woman,,,,null,,,,
6325,,,survey-text,73,469263,0.0-13.0-3.10,35182,List1A,black,woman,,,,,"{""Q0"":""is talking""}","<img src=""stim_listA/talk7.gif""</stim_listA>",is talking to,
null,"<div style=""font-size:60px;"">+</div>",,html-keyboard-response,74,469765,0.0-13.0-0.11,35182,List1A,black,woman,,,,null,,,,
null,"<img src=""stim_listA/touch2.gif""</stim_listA>",,html-keyboard-response,75,471768,0.0-13.0-1.11,35182,List1A,black,woman,,,,null,,,,
null,are touching each other,,html-keyboard-response,76,473769,0.0-13.0-2.11,35182,List1A,black,woman,,,,null,,,,
13556,,,survey-text,77,487327,0.0-13.0-3.11,35182,List1A,black,woman,,,,,"{""Q0"":""are touching each other""}","<img src=""stim_listA/touch2.gif""</stim_listA>",are touching each other,
null,"<div style=""font-size:60px;"">+</div>",,html-keyboard-response,78,487832,0.0-13.0-0.12,35182,List1A,black,woman,,,,null,,,,
null,"<img src=""stim_listA/kiss5.gif""</stim_listA>",,html-keyboard-response,79,489834,0.0-13.0-1.12,35182,List1A,black,woman,,,,null,,,,
null,is kissing,,html-keyboard-response,80,491836,0.0-13.0-2.12,35182,List1A,black,woman,,,,null,,,,
7439,,,survey-text,81,499277,0.0-13.0-3.12,35182,List1A,black,woman,,,,,"{""Q0"":""is kissing""}","<img src=""stim_listA/kiss5.gif""</stim_listA>",is kissing,
null,"<div style=""font-size:60px;"">+</div>",,html-keyboard-response,82,499779,0.0-13.0-0.13,35182,List1A,black,woman,,,,null,,,,
null,"<img src=""stim_listA/marry8.gif""</stim_listA>",,html-keyboard-response,83,501782,0.0-13.0-1.13,35182,List1A,black,woman,,,,null,,,,
null,are marrying each other,,html-keyboard-response,84,503784,0.0-13.0-2.13,35182,List1A,black,woman,,,,null,,,,
11800,,,survey-text,85,515586,0.0-13.0-3.13,35182,List1A,black,woman,,,,,"{""Q0"":""are marrying each other""}","<img src=""stim_listA/marry8.gif""</stim_listA>",are marrying each other,
null,"<div style=""font-size:60px;"">+</div>",,html-keyboard-response,86,516088,0.0-13.0-0.14,35182,List1A,black,woman,,,,null,,,,
null,"<img src=""stim_listA/dance6.gif""</stim_listA>",,html-keyboard-response,87,518090,0.0-13.0-1.14,35182,List1A,black,woman,,,,null,,,,
null,are dancing with each other,,html-keyboard-response,88,520092,0.0-13.0-2.14,35182,List1A,black,woman,,,,null,,,,
8298,,,survey-text,89,528392,0.0-13.0-3.14,35182,List1A,black,woman,,,,,"{""Q0"":""are dancing""}","<img src=""stim_listA/dance6.gif""</stim_listA>",are dancing with each other,
null,"<div style=""font-size:60px;"">+</div>",,html-keyboard-response,90,528893,0.0-13.0-0.15,35182,List1A,black,woman,,,,null,,,,
null,"<img src=""stim_listA/marry4.gif""</stim_listA>",,html-keyboard-response,91,530896,0.0-13.0-1.15,35182,List1A,black,woman,,,,null,,,,
null,are marrying each other,,html-keyboard-response,92,532898,0.0-13.0-2.15,35182,List1A,black,woman,,,,null,,,,
13169,,,survey-text,93,546068,0.0-13.0-3.15,35182,List1A,black,woman,,,,,"{""Q0"":""""}","<img src=""stim_listA/marry4.gif""</stim_listA>",are marrying each other,
null,"<div style=""font-size:60px;"">+</div>",,html-keyboard-response,94,546570,0.0-13.0-0.16,35182,List1A,black,woman,,,,null,,,,
null,"<img src=""stim_listA/hug2.gif""</stim_listA>",,html-keyboard-response,95,548572,0.0-13.0-1.16,35182,List1A,black,woman,,,,null,,,,
null,are hugging each other,,html-keyboard-response,96,550574,0.0-13.0-2.16,35182,List1A,black,woman,,,,null,,,,
12032,,,survey-text,97,562607,0.0-13.0-3.16,35182,List1A,black,woman,,,,,"{""Q0"":""are hugging each other""}","<img src=""stim_listA/hug2.gif""</stim_listA>",are hugging each other,
null,"<div style=""font-size:60px;"">+</div>",,html-keyboard-response,98,563109,0.0-13.0-0.17,35182,List1A,black,woman,,,,null,,,,
null,"<img src=""stim_listA/kiss2.gif""</stim_listA>",,html-keyboard-response,99,565111,0.0-13.0-1.17,35182,List1A,black,woman,,,,null,,,,
null,are kissing each other,,html-keyboard-response,100,567113,0.0-13.0-2.17,35182,List1A,black,woman,,,,null,,,,
18019,,,survey-text,101,585134,0.0-13.0-3.17,35182,List1A,black,woman,,,,,"{""Q0"":""are kissing each other""}","<img src=""stim_listA/kiss2.gif""</stim_listA>",are kissing each other,
null,"<div style=""font-size:60px;"">+</div>",,html-keyboard-response,102,585636,0.0-13.0-0.18,35182,List1A,black,woman,,,,null,,,,
null,"<img src=""stim_listA/fight2.gif""</stim_listA>",,html-keyboard-response,103,587638,0.0-13.0-1.18,35182,List1A,black,woman,,,,null,,,,
null,are fighting each other,,html-keyboard-response,104,589640,0.0-13.0-2.18,35182,List1A,black,woman,,,,null,,,,
13449,,,survey-text,105,603091,0.0-13.0-3.18,35182,List1A,black,woman,,,,,"{""Q0"":""are fighting each other""}","<img src=""stim_listA/fight2.gif""</stim_listA>",are fighting each other,
null,"<div style=""font-size:60px;"">+</div>",,html-keyboard-response,106,603593,0.0-13.0-0.19,35182,List1A,black,woman,,,,null,,,,
null,"<img src=""stim_listA/dance8.gif""</stim_listA>",,html-keyboard-response,107,605595,0.0-13.0-1.19,35182,List1A,black,woman,,,,null,,,,
null,are dancing with each other,,html-keyboard-response,108,607597,0.0-13.0-2.19,35182,List1A,black,woman,,,,null,,,,
16009,,,survey-text,109,623607,0.0-13.0-3.19,35182,List1A,black,woman,,,,,"{""Q0"":""are dancing with each other""}","<img src=""stim_listA/dance8.gif""</stim_listA>",are dancing with each other,
14488,"<img src='img/portrait_matrix_list1.JPG' style='width:900px;height:500px;''></img><p>If you have memorised all the portraits and names and are ready to start, press Continue.</p><p><strong>Please note: Your memory of these faces will be tested 4 times during this experiment.</strong></p>",0,html-button-response,110,638097,0.0-14.0-0.0,35182,List1A,black,woman,,,,,,,,
8372,"<img src=""portrait/BM2.jpg""style=""width:400px;height:400px;""></img>",5,html-button-response,111,647474,0.0-14.0-1.0,35182,List1A,black,woman,,TRUE,5,,,,,
null,CORRECT,,html-keyboard-response,112,648976,0.0-14.0-2.0-0.0,35182,List1A,black,woman,,,,null,,,,
10384,"<img src=""portrait/BW1.jpg""style=""width:400px;height:400px;""></img>",0,html-button-response,113,659362,0.0-14.0-4.0,35182,List1A,black,woman,,TRUE,0,,,,,
null,CORRECT,,html-keyboard-response,114,660864,0.0-14.0-5.0-0.0,35182,List1A,black,woman,,,,null,,,,
4862,"<img src=""portrait/WM2.jpg""style=""width:400px;height:400px;""></img>",7,html-button-response,115,665729,0.0-14.0-7.0,35182,List1A,black,woman,,TRUE,7,,,,,
null,CORRECT,,html-keyboard-response,116,667231,0.0-14.0-8.0-0.0,35182,List1A,black,woman,,,,null,,,,
3917,"<img src=""portrait/BM1.jpg""style=""width:400px;height:400px;""></img>",4,html-button-response,117,671152,0.0-14.0-10.0,35182,List1A,black,woman,,TRUE,4,,,,,
null,CORRECT,,html-keyboard-response,118,672654,0.0-14.0-11.0-0.0,35182,List1A,black,woman,,,,null,,,,
5085,"<img src=""portrait/WW1.jpg""style=""width:400px;height:400px;""></img>",1,html-button-response,119,677743,0.0-14.0-13.0,35182,List1A,black,woman,,TRUE,1,,,,,
null,CORRECT,,html-keyboard-response,120,679245,0.0-14.0-14.0-0.0,35182,List1A,black,woman,,,,null,,,,
3801,"<img src=""portrait/WW2.jpg""style=""width:400px;height:400px;""></img>",3,html-button-response,121,683049,0.0-14.0-16.0,35182,List1A,black,woman,,TRUE,3,,,,,
null,CORRECT,,html-keyboard-response,122,684552,0.0-14.0-17.0-0.0,35182,List1A,black,woman,,,,null,,,,
7745,"<img src=""portrait/WM1.jpg""style=""width:400px;height:400px;""></img>",6,html-button-response,123,692301,0.0-14.0-19.0,35182,List1A,black,woman,,TRUE,6,,,,,
null,CORRECT,,html-keyboard-response,124,693805,0.0-14.0-20.0-0.0,35182,List1A,black,woman,,,,null,,,,
5114,"<img src=""portrait/BW2.jpg""style=""width:400px;height:400px;""></img>",2,html-button-response,125,698921,0.0-14.0-22.0,35182,List1A,black,woman,,TRUE,2,,,,,
null,CORRECT,,html-keyboard-response,126,700424,0.0-14.0-23.0-0.0,35182,List1A,black,woman,,,,null,,,,
2113,<p>You got 8 out of 8 right first time. Press Continue.</p>,0,html-button-response,127,702539,0.0-14.0-25.0,35182,List1A,black,woman,,,,,,,,
null,"<div style=""font-size:60px;"">+</div>",,html-keyboard-response,128,704042,0.0-15.0-0.0,35182,List1A,black,woman,,,,null,,,,
null,"<img src=""stim_listA/dance3.gif""</stim_listA>",,html-keyboard-response,129,706045,0.0-15.0-1.0,35182,List1A,black,woman,,,,null,,,,
null,is dancing with,,html-keyboard-response,130,708047,0.0-15.0-2.0,35182,List1A,black,woman,,,,null,,,,
29424,,,survey-text,131,737473,0.0-15.0-3.0,35182,List1A,black,woman,,,,,"{""Q0"":""Dave and Jane""}","<img src=""stim_listA/dance3.gif""</stim_listA>",is dancing with,
null,"<div style=""font-size:60px;"">+</div>",,html-keyboard-response,132,737975,0.0-15.0-0.1,35182,List1A,black,woman,,,,null,,,,
null,"<img src=""stim_listA/meet2.gif""</stim_listA>",,html-keyboard-response,133,739977,0.0-15.0-1.1,35182,List1A,black,woman,,,,null,,,,
null,are meeting each other,,html-keyboard-response,134,741979,0.0-15.0-2.1,35182,List1A,black,woman,,,,null,,,,
16660,,,survey-text,135,758641,0.0-15.0-3.1,35182,List1A,black,woman,,,,,"{""Q0"":""Beth and Fred""}","<img src=""stim_listA/meet2.gif""</stim_listA>",are meeting each other,
null,"<div style=""font-size:60px;"">+</div>",,html-keyboard-response,136,759143,0.0-15.0-0.2,35182,List1A,black,woman,,,,null,,,,
null,"<img src=""stim_listA/meet3.gif""</stim_listA>",,html-keyboard-response,137,761145,0.0-15.0-1.2,35182,List1A,black,woman,,,,null,,,,
null,is meeting,,html-keyboard-response,138,763147,0.0-15.0-2.2,35182,List1A,black,woman,,,,null,,,,
24149,,,survey-text,139,787298,0.0-15.0-3.2,35182,List1A,black,woman,,,,,"{""Q0"":""Dave and Jane""}","<img src=""stim_listA/meet3.gif""</stim_listA>",is meeting,
null,"<div style=""font-size:60px;"">+</div>",,html-keyboard-response,140,787800,0.0-15.0-0.3,35182,List1A,black,woman,,,,null,,,,
null,"<img src=""stim_listA/kiss7.gif""</stim_listA>",,html-keyboard-response,141,789803,0.0-15.0-1.3,35182,List1A,black,woman,,,,null,,,,
null,is kissing,,html-keyboard-response,142,791805,0.0-15.0-2.3,35182,List1A,black,woman,,,,null,,,,
17825,,,survey-text,143,809631,0.0-15.0-3.3,35182,List1A,black,woman,,,,,"{""Q0"":""Ruth and Beth""}","<img src=""stim_listA/kiss7.gif""</stim_listA>",is kissing,
null,"<div style=""font-size:60px;"">+</div>",,html-keyboard-response,144,810133,0.0-15.0-0.4,35182,List1A,black,woman,,,,null,,,,
null,"<img src=""stim_listA/hug8.gif""</stim_listA>",,html-keyboard-response,145,812136,0.0-15.0-1.4,35182,List1A,black,woman,,,,null,,,,
null,are hugging each other,,html-keyboard-response,146,814137,0.0-15.0-2.4,35182,List1A,black,woman,,,,null,,,,
25103,,,survey-text,147,839242,0.0-15.0-3.4,35182,List1A,black,woman,,,,,"{""Q0"":""Beth and Jane""}","<img src=""stim_listA/hug8.gif""</stim_listA>",are hugging each other,
null,"<div style=""font-size:60px;"">+</div>",,html-keyboard-response,148,839745,0.0-15.0-0.5,35182,List1A,black,woman,,,,null,,,,
null,"<img src=""stim_listA/meet7.gif""</stim_listA>",,html-keyboard-response,149,841747,0.0-15.0-1.5,35182,List1A,black,woman,,,,null,,,,
null,is meeting,,html-keyboard-response,150,843748,0.0-15.0-2.5,35182,List1A,black,woman,,,,null,,,,
17104,,,survey-text,151,860857,0.0-15.0-3.5,35182,List1A,black,woman,,,,,"{""Q0"":""Jane and Beth""}","<img src=""stim_listA/meet7.gif""</stim_listA>",is meeting,
null,"<div style=""font-size:60px;"">+</div>",,html-keyboard-response,152,861359,0.0-15.0-0.6,35182,List1A,black,woman,,,,null,,,,
null,"<img src=""stim_listA/touch8.gif""</stim_listA>",,html-keyboard-response,153,863361,0.0-15.0-1.6,35182,List1A,black,woman,,,,null,,,,
null,are touching each other,,html-keyboard-response,154,865363,0.0-15.0-2.6,35182,List1A,black,woman,,,,null,,,,
19374,,,survey-text,155,884738,0.0-15.0-3.6,35182,List1A,black,woman,,,,,"{""Q0"":""Ruth and Beth""}","<img src=""stim_listA/touch8.gif""</stim_listA>",are touching each other,
null,"<div style=""font-size:60px;"">+</div>",,html-keyboard-response,156,885241,0.0-15.0-0.7,35182,List1A,black,woman,,,,null,,,,
null,"<img src=""stim_listA/argue2.gif""</stim_listA>",,html-keyboard-response,157,887245,0.0-15.0-1.7,35182,List1A,black,woman,,,,null,,,,
null,are arguing with each other,,html-keyboard-response,158,889246,0.0-15.0-2.7,35182,List1A,black,woman,,,,null,,,,
10760,,,survey-text,159,900008,0.0-15.0-3.7,35182,List1A,black,woman,,,,,"{""Q0"":""Fred and Kate""}","<img src=""stim_listA/argue2.gif""</stim_listA>",are arguing with each other,
null,"<div style=""font-size:60px;"">+</div>",,html-keyboard-response,160,900510,0.0-15.0-0.8,35182,List1A,black,woman,,,,null,,,,
null,"<img src=""stim_listA/hug4.gif""</stim_listA>",,html-keyboard-response,161,902512,0.0-15.0-1.8,35182,List1A,black,woman,,,,null,,,,
null,are hugging each other,,html-keyboard-response,162,904514,0.0-15.0-2.8,35182,List1A,black,woman,,,,null,,,,
11915,,,survey-text,163,916431,0.0-15.0-3.8,35182,List1A,black,woman,,,,,"{""Q0"":""Dave and Jane""}","<img src=""stim_listA/hug4.gif""</stim_listA>",are hugging each other,
null,"<div style=""font-size:60px;"">+</div>",,html-keyboard-response,164,916933,0.0-15.0-0.9,35182,List1A,black,woman,,,,null,,,,
null,"<img src=""stim_listA/marry6.gif""</stim_listA>",,html-keyboard-response,165,918935,0.0-15.0-1.9,35182,List1A,black,woman,,,,null,,,,
null,are marrying each other,,html-keyboard-response,166,920937,0.0-15.0-2.9,35182,List1A,black,woman,,,,null,,,,
9887,,,survey-text,167,930826,0.0-15.0-3.9,35182,List1A,black,woman,,,,,"{""Q0"":""Dave and Fred""}","<img src=""stim_listA/marry6.gif""</stim_listA>",are marrying each other,
null,"<div style=""font-size:60px;"">+</div>",,html-keyboard-response,168,931327,0.0-15.0-0.10,35182,List1A,black,woman,,,,null,,,,
null,"<img src=""stim_listA/talk2.gif""</stim_listA>",,html-keyboard-response,169,933329,0.0-15.0-1.10,35182,List1A,black,woman,,,,null,,,,
null,are talking to each other,,html-keyboard-response,170,935331,0.0-15.0-2.10,35182,List1A,black,woman,,,,null,,,,
15020,,,survey-text,171,950352,0.0-15.0-3.10,35182,List1A,black,woman,,,,,"{""Q0"":""Mike and Beth""}","<img src=""stim_listA/talk2.gif""</stim_listA>",are talking to each other,
null,"<div style=""font-size:60px;"">+</div>",,html-keyboard-response,172,950854,0.0-15.0-0.11,35182,List1A,black,woman,,,,null,,,,
null,"<img src=""stim_listA/argue8.gif""</stim_listA>",,html-keyboard-response,173,952856,0.0-15.0-1.11,35182,List1A,black,woman,,,,null,,,,
null,are arguing with each other,,html-keyboard-response,174,954858,0.0-15.0-2.11,35182,List1A,black,woman,,,,null,,,,
19775,,,survey-text,175,974635,0.0-15.0-3.11,35182,List1A,black,woman,,,,,"{""Q0"":""Jane and Beth""}","<img src=""stim_listA/argue8.gif""</stim_listA>",are arguing with each other,
null,"<div style=""font-size:60px;"">+</div>",,html-keyboard-response,176,975138,0.0-15.0-0.12,35182,List1A,black,woman,,,,null,,,,
null,"<img src=""stim_listA/shout7.gif""</stim_listA>",,html-keyboard-response,177,977141,0.0-15.0-1.12,35182,List1A,black,woman,,,,null,,,,
null,is shouting at,,html-keyboard-response,178,979142,0.0-15.0-2.12,35182,List1A,black,woman,,,,null,,,,
17050,,,survey-text,179,996193,0.0-15.0-3.12,35182,List1A,black,woman,,,,,"{""Q0"":""Beth and Ruth""}","<img src=""stim_listA/shout7.gif""</stim_listA>",is shouting at,
null,"<div style=""font-size:60px;"">+</div>",,html-keyboard-response,180,996695,0.0-15.0-0.13,35182,List1A,black,woman,,,,null,,,,
null,"<img src=""stim_listA/talk4.gif""</stim_listA>",,html-keyboard-response,181,998697,0.0-15.0-1.13,35182,List1A,black,woman,,,,null,,,,
null,are talking to each other,,html-keyboard-response,182,1000699,0.0-15.0-2.13,35182,List1A,black,woman,,,,null,,,,
10372,,,survey-text,183,1011073,0.0-15.0-3.13,35182,List1A,black,woman,,,,,"{""Q0"":""Ruth and Dave""}","<img src=""stim_listA/talk4.gif""</stim_listA>",are talking to each other,
null,"<div style=""font-size:60px;"">+</div>",,html-keyboard-response,184,1011575,0.0-15.0-0.14,35182,List1A,black,woman,,,,null,,,,
null,"<img src=""stim_listA/dance1.gif""</stim_listA>",,html-keyboard-response,185,1013577,0.0-15.0-1.14,35182,List1A,black,woman,,,,null,,,,
null,is dancing with,,html-keyboard-response,186,1015579,0.0-15.0-2.14,35182,List1A,black,woman,,,,null,,,,
11058,,,survey-text,187,1026639,0.0-15.0-3.14,35182,List1A,black,woman,,,,,"{""Q0"":""Fred and Kate""}","<img src=""stim_listA/dance1.gif""</stim_listA>",is dancing with,
null,"<div style=""font-size:60px;"">+</div>",,html-keyboard-response,188,1027141,0.0-15.0-0.15,35182,List1A,black,woman,,,,null,,,,
null,"<img src=""stim_listA/argue1.gif""</stim_listA>",,html-keyboard-response,189,1029143,0.0-15.0-1.15,35182,List1A,black,woman,,,,null,,,,
null,is arguing with,,html-keyboard-response,190,1031145,0.0-15.0-2.15,35182,List1A,black,woman,,,,null,,,,
15674,,,survey-text,191,1046820,0.0-15.0-3.15,35182,List1A,black,woman,,,,,"{""Q0"":""Mike and Beth""}","<img src=""stim_listA/argue1.gif""</stim_listA>",is arguing with,
null,"<div style=""font-size:60px;"">+</div>",,html-keyboard-response,192,1047323,0.0-15.0-0.16,35182,List1A,black,woman,,,,null,,,,
null,"<img src=""stim_listA/touch4.gif""</stim_listA>",,html-keyboard-response,193,1049325,0.0-15.0-1.16,35182,List1A,black,woman,,,,null,,,,
null,are touching each other,,html-keyboard-response,194,1051327,0.0-15.0-2.16,35182,List1A,black,woman,,,,null,,,,
19208,,,survey-text,195,1070537,0.0-15.0-3.16,35182,List1A,black,woman,,,,,"{""Q0"":""Luke and Ruth""}","<img src=""stim_listA/touch4.gif""</stim_listA>",are touching each other,
null,"<div style=""font-size:60px;"">+</div>",,html-keyboard-response,196,1071039,0.0-15.0-0.17,35182,List1A,black,woman,,,,null,,,,
null,"<img src=""stim_listA/hug6.gif""</stim_listA>",,html-keyboard-response,197,1073041,0.0-15.0-1.17,35182,List1A,black,woman,,,,null,,,,
null,are hugging each other,,html-keyboard-response,198,1075043,0.0-15.0-2.17,35182,List1A,black,woman,,,,null,,,,
9827,,,survey-text,199,1084872,0.0-15.0-3.17,35182,List1A,black,woman,,,,,"{""Q0"":""Dave and Mike""}","<img src=""stim_listA/hug6.gif""</stim_listA>",are hugging each other,
null,"<div style=""font-size:60px;"">+</div>",,html-keyboard-response,200,1085374,0.0-15.0-0.18,35182,List1A,black,woman,,,,null,,,,
null,"<img src=""stim_listA/shout1.gif""</stim_listA>",,html-keyboard-response,201,1087377,0.0-15.0-1.18,35182,List1A,black,woman,,,,null,,,,
null,is shouting at,,html-keyboard-response,202,1089380,0.0-15.0-2.18,35182,List1A,black,woman,,,,null,,,,
15014,,,survey-text,203,1104396,0.0-15.0-3.18,35182,List1A,black,woman,,,,,"{""Q0"":""Fred and Beth""}","<img src=""stim_listA/shout1.gif""</stim_listA>",is shouting at,
null,"<div style=""font-size:60px;"">+</div>",,html-keyboard-response,204,1104898,0.0-15.0-0.19,35182,List1A,black,woman,,,,null,,,,
null,"<img src=""stim_listA/shout5.gif""</stim_listA>",,html-keyboard-response,205,1106900,0.0-15.0-1.19,35182,List1A,black,woman,,,,null,,,,
null,is shouting at,,html-keyboard-response,206,1108902,0.0-15.0-2.19,35182,List1A,black,woman,,,,null,,,,
14525,,,survey-text,207,1123429,0.0-15.0-3.19,35182,List1A,black,woman,,,,,"{""Q0"":""Fred and Luke""}","<img src=""stim_listA/shout5.gif""</stim_listA>",is shouting at,
16661,"<img src='img/portrait_matrix_list1.JPG' style='width:900px;height:500px;''></img><p>If you have memorised all the portraits and names and are ready to start, press Continue.</p><p><strong>Please note: Your memory of these faces will be tested 4 times during this experiment.</strong></p>",0,html-button-response,208,1140094,0.0-16.0-0.0,35182,List1A,black,woman,,,,,,,,
9005,"<img src=""portrait/WW2.jpg""style=""width:400px;height:400px;""></img>",3,html-button-response,209,1150103,0.0-16.0-1.0,35182,List1A,black,woman,,TRUE,3,,,,,
null,CORRECT,,html-keyboard-response,210,1151606,0.0-16.0-2.0-0.0,35182,List1A,black,woman,,,,null,,,,
4985,"<img src=""portrait/BW2.jpg""style=""width:400px;height:400px;""></img>",2,html-button-response,211,1156594,0.0-16.0-4.0,35182,List1A,black,woman,,TRUE,2,,,,,
null,CORRECT,,html-keyboard-response,212,1158096,0.0-16.0-5.0-0.0,35182,List1A,black,woman,,,,null,,,,
4161,"<img src=""portrait/BM2.jpg""style=""width:400px;height:400px;""></img>",5,html-button-response,213,1162260,0.0-16.0-7.0,35182,List1A,black,woman,,TRUE,5,,,,,
null,CORRECT,,html-keyboard-response,214,1163763,0.0-16.0-8.0-0.0,35182,List1A,black,woman,,,,null,,,,
4249,"<img src=""portrait/WM2.jpg""style=""width:400px;height:400px;""></img>",7,html-button-response,215,1168015,0.0-16.0-10.0,35182,List1A,black,woman,,TRUE,7,,,,,
null,CORRECT,,html-keyboard-response,216,1169517,0.0-16.0-11.0-0.0,35182,List1A,black,woman,,,,null,,,,
9027,"<img src=""portrait/WW1.jpg""style=""width:400px;height:400px;""></img>",1,html-button-response,217,1178548,0.0-16.0-13.0,35182,List1A,black,woman,,TRUE,1,,,,,
null,CORRECT,,html-keyboard-response,218,1180050,0.0-16.0-14.0-0.0,35182,List1A,black,woman,,,,null,,,,
3297,"<img src=""portrait/WM1.jpg""style=""width:400px;height:400px;""></img>",6,html-button-response,219,1183350,0.0-16.0-16.0,35182,List1A,black,woman,,TRUE,6,,,,,
null,CORRECT,,html-keyboard-response,220,1184852,0.0-16.0-17.0-0.0,35182,List1A,black,woman,,,,null,,,,
3637,"<img src=""portrait/BM1.jpg""style=""width:400px;height:400px;""></img>",5,html-button-response,221,1188493,0.0-16.0-19.0,35182,List1A,black,woman,,TRUE,4,,,,,
8301,"<img src=""portrait/BM1.jpg""style=""width:400px;height:400px;""></img>",4,html-button-response,222,1197800,0.0-16.0-21.0-0.0,35182,List1A,black,woman,,FALSE,4,,,,,
null,CORRECT,,html-keyboard-response,223,1199303,0.0-16.0-21.0-1.0-0.0,35182,List1A,black,woman,,,,null,,,,
13630,"<img src=""portrait/BW1.jpg""style=""width:400px;height:400px;""></img>",0,html-button-response,224,1212937,0.0-16.0-22.0,35182,List1A,black,woman,,TRUE,0,,,,,
null,CORRECT,,html-keyboard-response,225,1214440,0.0-16.0-23.0-0.0,35182,List1A,black,woman,,,,null,,,,
3197,<p>You got 7 out of 8 right first time. Press Continue.</p>,0,html-button-response,226,1217639,0.0-16.0-25.0,35182,List1A,black,woman,,,,,,,,
7112,"As you did not score 100%, the memory game will repeat. Press Continue.",0,html-button-response,227,1225754,0.0-16.0-26.0-0.0,35182,List1A,black,woman,,,,,,,,
3238,"<img src='img/portrait_matrix_list1.JPG' style='width:900px;height:500px;''></img><p>If you have memorised all the portraits and names and are ready to start, press Continue.</p><p><strong>Please note: Your memory of these faces will be tested 4 times during this experiment.</strong></p>",0,html-button-response,228,1229995,0.0-16.1-0.1,35182,List1A,black,woman,,,,,,,,
7153,"<img src=""portrait/WW2.jpg""style=""width:400px;height:400px;""></img>",3,html-button-response,229,1238152,0.0-16.1-1.1,35182,List1A,black,woman,,TRUE,3,,,,,
null,CORRECT,,html-keyboard-response,230,1239655,0.0-16.1-2.1-0.1,35182,List1A,black,woman,,,,null,,,,
4368,"<img src=""portrait/BW2.jpg""style=""width:400px;height:400px;""></img>",2,html-button-response,231,1244026,0.0-16.1-4.1,35182,List1A,black,woman,,TRUE,2,,,,,
null,CORRECT,,html-keyboard-response,232,1245530,0.0-16.1-5.1-0.1,35182,List1A,black,woman,,,,null,,,,
3632,"<img src=""portrait/BM2.jpg""style=""width:400px;height:400px;""></img>",5,html-button-response,233,1249164,0.0-16.1-7.1,35182,List1A,black,woman,,TRUE,5,,,,,
null,CORRECT,,html-keyboard-response,234,1250668,0.0-16.1-8.1-0.1,35182,List1A,black,woman,,,,null,,,,
3833,"<img src=""portrait/WM2.jpg""style=""width:400px;height:400px;""></img>",7,html-button-response,235,1254503,0.0-16.1-10.1,35182,List1A,black,woman,,TRUE,7,,,,,
null,CORRECT,,html-keyboard-response,236,1256006,0.0-16.1-11.1-0.1,35182,List1A,black,woman,,,,null,,,,
4342,"<img src=""portrait/WW1.jpg""style=""width:400px;height:400px;""></img>",1,html-button-response,237,1260350,0.0-16.1-13.1,35182,List1A,black,woman,,TRUE,1,,,,,
null,CORRECT,,html-keyboard-response,238,1261854,0.0-16.1-14.1-0.1,35182,List1A,black,woman,,,,null,,,,
3182,"<img src=""portrait/WM1.jpg""style=""width:400px;height:400px;""></img>",6,html-button-response,239,1265040,0.0-16.1-16.1,35182,List1A,black,woman,,TRUE,6,,,,,
null,CORRECT,,html-keyboard-response,240,1266543,0.0-16.1-17.1-0.1,35182,List1A,black,woman,,,,null,,,,
6727,"<img src=""portrait/BM1.jpg""style=""width:400px;height:400px;""></img>",4,html-button-response,241,1273274,0.0-16.1-19.1,35182,List1A,black,woman,,TRUE,4,,,,,
null,CORRECT,,html-keyboard-response,242,1274776,0.0-16.1-20.1-0.1,35182,List1A,black,woman,,,,null,,,,
5181,"<img src=""portrait/BW1.jpg""style=""width:400px;height:400px;""></img>",0,html-button-response,243,1279960,0.0-16.1-22.1,35182,List1A,black,woman,,TRUE,0,,,,,
null,CORRECT,,html-keyboard-response,244,1281464,0.0-16.1-23.1-0.1,35182,List1A,black,woman,,,,null,,,,
2112,<p>You got 8 out of 8 right first time. Press Continue.</p>,0,html-button-response,245,1283578,0.0-16.1-25.1,35182,List1A,black,woman,,,,,,,,
null,"<div style=""font-size:60px;"">+</div>",,html-keyboard-response,246,1285108,0.0-17.0-0.0,35182,List1A,black,woman,,,,null,,,,
null,"<img src=""stim_listA/meet5.gif""</stim_listA>",,html-keyboard-response,247,1287111,0.0-17.0-1.0,35182,List1A,black,woman,,,,null,,,,
null,is meeting,,html-keyboard-response,248,1289113,0.0-17.0-2.0,35182,List1A,black,woman,,,,null,,,,
16464,,,survey-text,249,1305579,0.0-17.0-3.0,35182,List1A,black,woman,,,,,"{""Q0"":""Dave and Mike""}","<img src=""stim_listA/meet5.gif""</stim_listA>",is meeting,
null,"<div style=""font-size:60px;"">+</div>",,html-keyboard-response,250,1306081,0.0-17.0-0.1,35182,List1A,black,woman,,,,null,,,,
null,"<img src=""stim_listA/dance5.gif""</stim_listA>",,html-keyboard-response,251,1308083,0.0-17.0-1.1,35182,List1A,black,woman,,,,null,,,,
null,is dancing with,,html-keyboard-response,252,1310085,0.0-17.0-2.1,35182,List1A,black,woman,,,,null,,,,
11215,,,survey-text,253,1321302,0.0-17.0-3.1,35182,List1A,black,woman,,,,,"{""Q0"":""Fred and Dave""}","<img src=""stim_listA/dance5.gif""</stim_listA>",is dancing with,
null,"<div style=""font-size:60px;"">+</div>",,html-keyboard-response,254,1321805,0.0-17.0-0.2,35182,List1A,black,woman,,,,null,,,,
null,"<img src=""stim_listA/dance4.gif""</stim_listA>",,html-keyboard-response,255,1323807,0.0-17.0-1.2,35182,List1A,black,woman,,,,null,,,,
null,are dancing with each other,,html-keyboard-response,256,1325808,0.0-17.0-2.2,35182,List1A,black,woman,,,,null,,,,
12174,,,survey-text,257,1337984,0.0-17.0-3.2,35182,List1A,black,woman,,,,,"{""Q0"":""Dave and Ruth""}","<img src=""stim_listA/dance4.gif""</stim_listA>",are dancing with each other,
null,"<div style=""font-size:60px;"">+</div>",,html-keyboard-response,258,1338486,0.0-17.0-0.3,35182,List1A,black,woman,,,,null,,,,
null,"<img src=""stim_listA/shout4.gif""</stim_listA>",,html-keyboard-response,259,1340491,0.0-17.0-1.3,35182,List1A,black,woman,,,,null,,,,
null,are shouting at each other,,html-keyboard-response,260,1342493,0.0-17.0-2.3,35182,List1A,black,woman,,,,null,,,,
9947,,,survey-text,261,1352442,0.0-17.0-3.3,35182,List1A,black,woman,,,,,"{""Q0"":""jane and dave""}","<img src=""stim_listA/shout4.gif""</stim_listA>",are shouting at each other,
null,"<div style=""font-size:60px;"">+</div>",,html-keyboard-response,262,1352943,0.0-17.0-0.4,35182,List1A,black,woman,,,,null,,,,
null,"<img src=""stim_listA/touch5.gif""</stim_listA>",,html-keyboard-response,263,1354947,0.0-17.0-1.4,35182,List1A,black,woman,,,,null,,,,
null,is touching,,html-keyboard-response,264,1356950,0.0-17.0-2.4,35182,List1A,black,woman,,,,null,,,,
9965,,,survey-text,265,1366917,0.0-17.0-3.4,35182,List1A,black,woman,,,,,"{""Q0"":""Mike and Dave""}","<img src=""stim_listA/touch5.gif""</stim_listA>",is touching,
null,"<div style=""font-size:60px;"">+</div>",,html-keyboard-response,266,1367419,0.0-17.0-0.5,35182,List1A,black,woman,,,,null,,,,
null,"<img src=""stim_listA/kiss8.gif""</stim_listA>",,html-keyboard-response,267,1369421,0.0-17.0-1.5,35182,List1A,black,woman,,,,null,,,,
null,are kissing each other,,html-keyboard-response,268,1371423,0.0-17.0-2.5,35182,List1A,black,woman,,,,null,,,,
37484,,,survey-text,269,1408909,0.0-17.0-3.5,35182,List1A,black,woman,,,,,"{""Q0"":""Jane and Kate""}","<img src=""stim_listA/kiss8.gif""</stim_listA>",are kissing each other,
null,"<div style=""font-size:60px;"">+</div>",,html-keyboard-response,270,1409411,0.0-17.0-0.6,35182,List1A,black,woman,,,,null,,,,
null,"<img src=""stim_listA/marry3.gif""</stim_listA>",,html-keyboard-response,271,1411412,0.0-17.0-1.6,35182,List1A,black,woman,,,,null,,,,
null,is marrying,,html-keyboard-response,272,1413414,0.0-17.0-2.6,35182,List1A,black,woman,,,,null,,,,
14705,,,survey-text,273,1428121,0.0-17.0-3.6,35182,List1A,black,woman,,,,,"{""Q0"":""Dave and Ruth""}","<img src=""stim_listA/marry3.gif""</stim_listA>",is marrying,
null,"<div style=""font-size:60px;"">+</div>",,html-keyboard-response,274,1428623,0.0-17.0-0.7,35182,List1A,black,woman,,,,null,,,,
null,"<img src=""stim_listA/talk1.gif""</stim_listA>",,html-keyboard-response,275,1430626,0.0-17.0-1.7,35182,List1A,black,woman,,,,null,,,,
null,is talking to,,html-keyboard-response,276,1432628,0.0-17.0-2.7,35182,List1A,black,woman,,,,null,,,,
16640,,,survey-text,277,1449270,0.0-17.0-3.7,35182,List1A,black,woman,,,,,"{""Q0"":""Fred and Kate""}","<img src=""stim_listA/talk1.gif""</stim_listA>",is talking to,
null,"<div style=""font-size:60px;"">+</div>",,html-keyboard-response,278,1449773,0.0-17.0-0.8,35182,List1A,black,woman,,,,null,,,,
null,"<img src=""stim_listA/shout3.gif""</stim_listA>",,html-keyboard-response,279,1451775,0.0-17.0-1.8,35182,List1A,black,woman,,,,null,,,,
null,is shouting at,,html-keyboard-response,280,1453778,0.0-17.0-2.8,35182,List1A,black,woman,,,,null,,,,
22180,,,survey-text,281,1475960,0.0-17.0-3.8,35182,List1A,black,woman,,,,,"{""Q0"":""Luke and Ruth""}","<img src=""stim_listA/shout3.gif""</stim_listA>",is shouting at,
null,"<div style=""font-size:60px;"">+</div>",,html-keyboard-response,282,1476462,0.0-17.0-0.9,35182,List1A,black,woman,,,,null,,,,
null,"<img src=""stim_listA/kiss3.gif""</stim_listA>",,html-keyboard-response,283,1478465,0.0-17.0-1.9,35182,List1A,black,woman,,,,null,,,,
null,is kissing,,html-keyboard-response,284,1480467,0.0-17.0-2.9,35182,List1A,black,woman,,,,null,,,,
11378,,,survey-text,285,1491847,0.0-17.0-3.9,35182,List1A,black,woman,,,,,"{""Q0"":""Luke and Ruth""}","<img src=""stim_listA/kiss3.gif""</stim_listA>",is kissing,
null,"<div style=""font-size:60px;"">+</div>",,html-keyboard-response,286,1492349,0.0-17.0-0.10,35182,List1A,black,woman,,,,null,,,,
null,"<img src=""stim_listA/talk8.gif""</stim_listA>",,html-keyboard-response,287,1494352,0.0-17.0-1.10,35182,List1A,black,woman,,,,null,,,,
null,are talking to each other,,html-keyboard-response,288,1496354,0.0-17.0-2.10,35182,List1A,black,woman,,,,null,,,,
12386,,,survey-text,289,1508742,0.0-17.0-3.10,35182,List1A,black,woman,,,,,"{""Q0"":""Ruth and Kate""}","<img src=""stim_listA/talk8.gif""</stim_listA>",are talking to each other,
null,"<div style=""font-size:60px;"">+</div>",,html-keyboard-response,290,1509244,0.0-17.0-0.11,35182,List1A,black,woman,,,,null,,,,
null,"<img src=""stim_listA/marry1.gif""</stim_listA>",,html-keyboard-response,291,1511247,0.0-17.0-1.11,35182,List1A,black,woman,,,,null,,,,
null,is marrying,,html-keyboard-response,292,1513249,0.0-17.0-2.11,35182,List1A,black,woman,,,,null,,,,
13146,,,survey-text,293,1526396,0.0-17.0-3.11,35182,List1A,black,woman,,,,,"{""Q0"":""Mike and Beth""}","<img src=""stim_listA/marry1.gif""</stim_listA>",is marrying,
null,"<div style=""font-size:60px;"">+</div>",,html-keyboard-response,294,1526899,0.0-17.0-0.12,35182,List1A,black,woman,,,,null,,,,
null,"<img src=""stim_listA/kiss6.gif""</stim_listA>",,html-keyboard-response,295,1528902,0.0-17.0-1.12,35182,List1A,black,woman,,,,null,,,,
null,are kissing each other,,html-keyboard-response,296,1530903,0.0-17.0-2.12,35182,List1A,black,woman,,,,null,,,,
9029,,,survey-text,297,1539934,0.0-17.0-3.12,35182,List1A,black,woman,,,,,"{""Q0"":""Dave and Mike""}","<img src=""stim_listA/kiss6.gif""</stim_listA>",are kissing each other,
null,"<div style=""font-size:60px;"">+</div>",,html-keyboard-response,298,1540436,0.0-17.0-0.13,35182,List1A,black,woman,,,,null,,,,
null,"<img src=""stim_listA/fight1.gif""</stim_listA>",,html-keyboard-response,299,1542441,0.0-17.0-1.13,35182,List1A,black,woman,,,,null,,,,
null,is fighting,,html-keyboard-response,300,1544444,0.0-17.0-2.13,35182,List1A,black,woman,,,,null,,,,
14137,,,survey-text,301,1558582,0.0-17.0-3.13,35182,List1A,black,woman,,,,,"{""Q0"":""Mike and Kate""}","<img src=""stim_listA/fight1.gif""</stim_listA>",is fighting,
null,"<div style=""font-size:60px;"">+</div>",,html-keyboard-response,302,1559085,0.0-17.0-0.14,35182,List1A,black,woman,,,,null,,,,
null,"<img src=""stim_listA/argue6.gif""</stim_listA>",,html-keyboard-response,303,1561087,0.0-17.0-1.14,35182,List1A,black,woman,,,,null,,,,
null,are arguing with each other,,html-keyboard-response,304,1563089,0.0-17.0-2.14,35182,List1A,black,woman,,,,null,,,,
9958,,,survey-text,305,1573049,0.0-17.0-3.14,35182,List1A,black,woman,,,,,"{""Q0"":""Fred and Dave""}","<img src=""stim_listA/argue6.gif""</stim_listA>",are arguing with each other,
null,"<div style=""font-size:60px;"">+</div>",,html-keyboard-response,306,1573551,0.0-17.0-0.15,35182,List1A,black,woman,,,,null,,,,
null,"<img src=""stim_listA/argue7.gif""</stim_listA>",,html-keyboard-response,307,1575557,0.0-17.0-1.15,35182,List1A,black,woman,,,,null,,,,
null,is arguing with,,html-keyboard-response,308,1577559,0.0-17.0-2.15,35182,List1A,black,woman,,,,null,,,,
14703,,,survey-text,309,1592264,0.0-17.0-3.15,35182,List1A,black,woman,,,,,"{""Q0"":""Ruth and Beth""}","<img src=""stim_listA/argue7.gif""</stim_listA>",is arguing with,
null,"<div style=""font-size:60px;"">+</div>",,html-keyboard-response,310,1592766,0.0-17.0-0.16,35182,List1A,black,woman,,,,null,,,,
null,"<img src=""stim_listA/fight6.gif""</stim_listA>",,html-keyboard-response,311,1594769,0.0-17.0-1.16,35182,List1A,black,woman,,,,null,,,,
null,are fighting each other,,html-keyboard-response,312,1596771,0.0-17.0-2.16,35182,List1A,black,woman,,,,null,,,,
9064,,,survey-text,313,1605837,0.0-17.0-3.16,35182,List1A,black,woman,,,,,"{""Q0"":""Luke and Fred""}","<img src=""stim_listA/fight6.gif""</stim_listA>",are fighting each other,
null,"<div style=""font-size:60px;"">+</div>",,html-keyboard-response,314,1606339,0.0-17.0-0.17,35182,List1A,black,woman,,,,null,,,,
null,"<img src=""stim_listA/marry2.gif""</stim_listA>",,html-keyboard-response,315,1608342,0.0-17.0-1.17,35182,List1A,black,woman,,,,null,,,,
null,are marrying each other,,html-keyboard-response,316,1610344,0.0-17.0-2.17,35182,List1A,black,woman,,,,null,,,,
12700,,,survey-text,317,1623046,0.0-17.0-3.17,35182,List1A,black,woman,,,,,"{""Q0"":""Fred and Kate""}","<img src=""stim_listA/marry2.gif""</stim_listA>",are marrying each other,
null,"<div style=""font-size:60px;"">+</div>",,html-keyboard-response,318,1623549,0.0-17.0-0.18,35182,List1A,black,woman,,,,null,,,,
null,"<img src=""stim_listA/talk6.gif""</stim_listA>",,html-keyboard-response,319,1625552,0.0-17.0-1.18,35182,List1A,black,woman,,,,null,,,,
null,are talking to each other,,html-keyboard-response,320,1627554,0.0-17.0-2.18,35182,List1A,black,woman,,,,null,,,,
12848,,,survey-text,321,1640402,0.0-17.0-3.18,35182,List1A,black,woman,,,,,"{""Q0"":""Mike and Luke""}","<img src=""stim_listA/talk6.gif""</stim_listA>",are talking to each other,
null,"<div style=""font-size:60px;"">+</div>",,html-keyboard-response,322,1640905,0.0-17.0-0.19,35182,List1A,black,woman,,,,null,,,,
null,"<img src=""stim_listA/meet4.gif""</stim_listA>",,html-keyboard-response,323,1642908,0.0-17.0-1.19,35182,List1A,black,woman,,,,null,,,,
null,are meeting each other,,html-keyboard-response,324,1644910,0.0-17.0-2.19,35182,List1A,black,woman,,,,null,,,,
11942,,,survey-text,325,1656854,0.0-17.0-3.19,35182,List1A,black,woman,,,,,"{""Q0"":""Luke and Ruth""}","<img src=""stim_listA/meet4.gif""</stim_listA>",are meeting each other,
11642,"<img src='img/portrait_matrix_list1.JPG' style='width:900px;height:500px;''></img><p>If you have memorised all the portraits and names and are ready to start, press Continue.</p><p><strong>Please note: Your memory of these faces will be tested 4 times during this experiment.</strong></p>",0,html-button-response,326,1668499,0.0-18.0-0.0,35182,List1A,black,woman,,,,,,,,
3721,"<img src=""portrait/BM2.jpg""style=""width:400px;height:400px;""></img>",5,html-button-response,327,1673225,0.0-18.0-1.0,35182,List1A,black,woman,,TRUE,5,,,,,
null,CORRECT,,html-keyboard-response,328,1674728,0.0-18.0-2.0-0.0,35182,List1A,black,woman,,,,null,,,,
6429,"<img src=""portrait/WW1.jpg""style=""width:400px;height:400px;""></img>",1,html-button-response,329,1681160,0.0-18.0-4.0,35182,List1A,black,woman,,TRUE,1,,,,,
null,CORRECT,,html-keyboard-response,330,1682664,0.0-18.0-5.0-0.0,35182,List1A,black,woman,,,,null,,,,
3993,"<img src=""portrait/WM2.jpg""style=""width:400px;height:400px;""></img>",7,html-button-response,331,1686660,0.0-18.0-7.0,35182,List1A,black,woman,,TRUE,7,,,,,
null,CORRECT,,html-keyboard-response,332,1688162,0.0-18.0-8.0-0.0,35182,List1A,black,woman,,,,null,,,,
3522,"<img src=""portrait/BM1.jpg""style=""width:400px;height:400px;""></img>",4,html-button-response,333,1691689,0.0-18.0-10.0,35182,List1A,black,woman,,TRUE,4,,,,,
null,CORRECT,,html-keyboard-response,334,1693193,0.0-18.0-11.0-0.0,35182,List1A,black,woman,,,,null,,,,
2678,"<img src=""portrait/WM1.jpg""style=""width:400px;height:400px;""></img>",6,html-button-response,335,1695874,0.0-18.0-13.0,35182,List1A,black,woman,,TRUE,6,,,,,
null,CORRECT,,html-keyboard-response,336,1697377,0.0-18.0-14.0-0.0,35182,List1A,black,woman,,,,null,,,,
4824,"<img src=""portrait/BW1.jpg""style=""width:400px;height:400px;""></img>",0,html-button-response,337,1702204,0.0-18.0-16.0,35182,List1A,black,woman,,TRUE,0,,,,,
null,CORRECT,,html-keyboard-response,338,1703707,0.0-18.0-17.0-0.0,35182,List1A,black,woman,,,,null,,,,
5532,"<img src=""portrait/BW2.jpg""style=""width:400px;height:400px;""></img>",2,html-button-response,339,1709243,0.0-18.0-19.0,35182,List1A,black,woman,,TRUE,2,,,,,
null,CORRECT,,html-keyboard-response,340,1710746,0.0-18.0-20.0-0.0,35182,List1A,black,woman,,,,null,,,,
5009,"<img src=""portrait/WW2.jpg""style=""width:400px;height:400px;""></img>",3,html-button-response,341,1715758,0.0-18.0-22.0,35182,List1A,black,woman,,TRUE,3,,,,,
null,CORRECT,,html-keyboard-response,342,1717260,0.0-18.0-23.0-0.0,35182,List1A,black,woman,,,,null,,,,
2101,<p>You got 8 out of 8 right first time. Press Continue.</p>,0,html-button-response,343,1719363,0.0-18.0-25.0,35182,List1A,black,woman,,,,,,,,
null,"<div style=""font-size:60px;"">+</div>",,html-keyboard-response,344,1720867,0.0-19.0-0.0,35182,List1A,black,woman,,,,null,,,,
null,"<img src=""stim_listA/meet8.gif""</stim_listA>",,html-keyboard-response,345,1722870,0.0-19.0-1.0,35182,List1A,black,woman,,,,null,,,,
null,are meeting each other,,html-keyboard-response,346,1724872,0.0-19.0-2.0,35182,List1A,black,woman,,,,null,,,,
1164,,,survey-text,347,1726038,0.0-19.0-3.0,35182,List1A,black,woman,,,,,"{""Q0"":""""}","<img src=""stim_listA/meet8.gif""</stim_listA>",are meeting each other,
null,"<div style=""font-size:60px;"">+</div>",,html-keyboard-response,348,1726540,0.0-19.0-0.1,35182,List1A,black,woman,,,,null,,,,
null,"<img src=""stim_listA/fight7.gif""</stim_listA>",,html-keyboard-response,349,1728542,0.0-19.0-1.1,35182,List1A,black,woman,,,,null,,,,
null,is fighting,,html-keyboard-response,350,1730544,0.0-19.0-2.1,35182,List1A,black,woman,,,,null,,,,
4717,,,survey-text,351,1735262,0.0-19.0-3.1,35182,List1A,black,woman,,,,,"{""Q0"":""""}","<img src=""stim_listA/fight7.gif""</stim_listA>",is fighting,
null,"<div style=""font-size:60px;"">+</div>",,html-keyboard-response,352,1735764,0.0-19.0-0.2,35182,List1A,black,woman,,,,null,,,,
null,"<img src=""stim_listA/kiss4.gif""</stim_listA>",,html-keyboard-response,353,1737766,0.0-19.0-1.2,35182,List1A,black,woman,,,,null,,,,
null,are kissing each other,,html-keyboard-response,354,1739768,0.0-19.0-2.2,35182,List1A,black,woman,,,,null,,,,
12896,,,survey-text,355,1752666,0.0-19.0-3.2,35182,List1A,black,woman,,,,,"{""Q0"":""""}","<img src=""stim_listA/kiss4.gif""</stim_listA>",are kissing each other,
null,"<div style=""font-size:60px;"">+</div>",,html-keyboard-response,356,1753168,0.0-19.0-0.3,35182,List1A,black,woman,,,,null,,,,
null,"<img src=""stim_listA/touch1.gif""</stim_listA>",,html-keyboard-response,357,1755175,0.0-19.0-1.3,35182,List1A,black,woman,,,,null,,,,
null,is touching,,html-keyboard-response,358,1757177,0.0-19.0-2.3,35182,List1A,black,woman,,,,null,,,,
18531,,,survey-text,359,1775710,0.0-19.0-3.3,35182,List1A,black,woman,,,,,"{""Q0"":""mike and kate""}","<img src=""stim_listA/touch1.gif""</stim_listA>",is touching,
null,"<div style=""font-size:60px;"">+</div>",,html-keyboard-response,360,1776212,0.0-19.0-0.4,35182,List1A,black,woman,,,,null,,,,
null,"<img src=""stim_listA/touch7.gif""</stim_listA>",,html-keyboard-response,361,1778215,0.0-19.0-1.4,35182,List1A,black,woman,,,,null,,,,
null,is touching,,html-keyboard-response,362,1780217,0.0-19.0-2.4,35182,List1A,black,woman,,,,null,,,,
11262,,,survey-text,363,1791481,0.0-19.0-3.4,35182,List1A,black,woman,,,,,"{""Q0"":""Kate and Jane""}","<img src=""stim_listA/touch7.gif""</stim_listA>",is touching,
null,"<div style=""font-size:60px;"">+</div>",,html-keyboard-response,364,1791983,0.0-19.0-0.5,35182,List1A,black,woman,,,,null,,,,
null,"<img src=""stim_listA/fight3.gif""</stim_listA>",,html-keyboard-response,365,1793985,0.0-19.0-1.5,35182,List1A,black,woman,,,,null,,,,
null,is fighting,,html-keyboard-response,366,1795987,0.0-19.0-2.5,35182,List1A,black,woman,,,,null,,,,
10815,,,survey-text,367,1806804,0.0-19.0-3.5,35182,List1A,black,woman,,,,,"{""Q0"":""Jane and Dave""}","<img src=""stim_listA/fight3.gif""</stim_listA>",is fighting,
null,"<div style=""font-size:60px;"">+</div>",,html-keyboard-response,368,1807307,0.0-19.0-0.6,35182,List1A,black,woman,,,,null,,,,
null,"<img src=""stim_listA/shout2.gif""</stim_listA>",,html-keyboard-response,369,1809310,0.0-19.0-1.6,35182,List1A,black,woman,,,,null,,,,
null,are shouting at each other,,html-keyboard-response,370,1811312,0.0-19.0-2.6,35182,List1A,black,woman,,,,null,,,,
9306,,,survey-text,371,1820620,0.0-19.0-3.6,35182,List1A,black,woman,,,,,"{""Q0"":""Kate and Mike""}","<img src=""stim_listA/shout2.gif""</stim_listA>",are shouting at each other,
null,"<div style=""font-size:60px;"">+</div>",,html-keyboard-response,372,1821122,0.0-19.0-0.7,35182,List1A,black,woman,,,,null,,,,
null,"<img src=""stim_listA/meet1.gif""</stim_listA>",,html-keyboard-response,373,1823125,0.0-19.0-1.7,35182,List1A,black,woman,,,,null,,,,
null,is meeting,,html-keyboard-response,374,1825127,0.0-19.0-2.7,35182,List1A,black,woman,,,,null,,,,
7625,,,survey-text,375,1832753,0.0-19.0-3.7,35182,List1A,black,woman,,,,,"{""Q0"":""Mike and Kate""}","<img src=""stim_listA/meet1.gif""</stim_listA>",is meeting,
null,"<div style=""font-size:60px;"">+</div>",,html-keyboard-response,376,1833256,0.0-19.0-0.8,35182,List1A,black,woman,,,,null,,,,
null,"<img src=""stim_listA/talk3.gif""</stim_listA>",,html-keyboard-response,377,1835258,0.0-19.0-1.8,35182,List1A,black,woman,,,,null,,,,
null,is talking to,,html-keyboard-response,378,1837260,0.0-19.0-2.8,35182,List1A,black,woman,,,,null,,,,
9285,,,survey-text,379,1846547,0.0-19.0-3.8,35182,List1A,black,woman,,,,,"{""Q0"":""Dave and Jane""}","<img src=""stim_listA/talk3.gif""</stim_listA>",is talking to,
null,"<div style=""font-size:60px;"">+</div>",,html-keyboard-response,380,1847049,0.0-19.0-0.9,35182,List1A,black,woman,,,,null,,,,
null,"<img src=""stim_listA/shout6.gif""</stim_listA>",,html-keyboard-response,381,1849051,0.0-19.0-1.9,35182,List1A,black,woman,,,,null,,,,
null,are shouting at each other,,html-keyboard-response,382,1851053,0.0-19.0-2.9,35182,List1A,black,woman,,,,null,,,,
8426,,,survey-text,383,1859481,0.0-19.0-3.9,35182,List1A,black,woman,,,,,"{""Q0"":""Dave and Mike""}","<img src=""stim_listA/shout6.gif""</stim_listA>",are shouting at each other,
null,"<div style=""font-size:60px;"">+</div>",,html-keyboard-response,384,1859982,0.0-19.0-0.10,35182,List1A,black,woman,,,,null,,,,
null,"<img src=""stim_listA/hug1.gif""</stim_listA>",,html-keyboard-response,385,1861985,0.0-19.0-1.10,35182,List1A,black,woman,,,,null,,,,
null,is hugging,,html-keyboard-response,386,1863987,0.0-19.0-2.10,35182,List1A,black,woman,,,,null,,,,
9546,,,survey-text,387,1873535,0.0-19.0-3.10,35182,List1A,black,woman,,,,,"{""Q0"":""Fred and Beth""}","<img src=""stim_listA/hug1.gif""</stim_listA>",is hugging,
null,"<div style=""font-size:60px;"">+</div>",,html-keyboard-response,388,1874038,0.0-19.0-0.11,35182,List1A,black,woman,,,,null,,,,
null,"<img src=""stim_listA/fight8.gif""</stim_listA>",,html-keyboard-response,389,1876043,0.0-19.0-1.11,35182,List1A,black,woman,,,,null,,,,
null,are fighting each other,,html-keyboard-response,390,1878046,0.0-19.0-2.11,35182,List1A,black,woman,,,,null,,,,
14686,,,survey-text,391,1892734,0.0-19.0-3.11,35182,List1A,black,woman,,,,,"{""Q0"":""Ruth and Beth""}","<img src=""stim_listA/fight8.gif""</stim_listA>",are fighting each other,
null,"<div style=""font-size:60px;"">+</div>",,html-keyboard-response,392,1893237,0.0-19.0-0.12,35182,List1A,black,woman,,,,null,,,,
null,"<img src=""stim_listA/hug5.gif""</stim_listA>",,html-keyboard-response,393,1895239,0.0-19.0-1.12,35182,List1A,black,woman,,,,null,,,,
null,is hugging,,html-keyboard-response,394,1897242,0.0-19.0-2.12,35182,List1A,black,woman,,,,null,,,,
12022,,,survey-text,395,1909265,0.0-19.0-3.12,35182,List1A,black,woman,,,,,"{""Q0"":""Fred and Luke""}","<img src=""stim_listA/hug5.gif""</stim_listA>",is hugging,
null,"<div style=""font-size:60px;"">+</div>",,html-keyboard-response,396,1909768,0.0-19.0-0.13,35182,List1A,black,woman,,,,null,,,,
null,"<img src=""stim_listA/touch3.gif""</stim_listA>",,html-keyboard-response,397,1911771,0.0-19.0-1.13,35182,List1A,black,woman,,,,null,,,,
null,is touching,,html-keyboard-response,398,1913773,0.0-19.0-2.13,35182,List1A,black,woman,,,,null,,,,
15780,,,survey-text,399,1929554,0.0-19.0-3.13,35182,List1A,black,woman,,,,,"{""Q0"":""Dave and Jane""}","<img src=""stim_listA/touch3.gif""</stim_listA>",is touching,
null,"<div style=""font-size:60px;"">+</div>",,html-keyboard-response,400,1930056,0.0-19.0-0.14,35182,List1A,black,woman,,,,null,,,,
null,"<img src=""stim_listA/hug3.gif""</stim_listA>",,html-keyboard-response,401,1932059,0.0-19.0-1.14,35182,List1A,black,woman,,,,null,,,,
null,is hugging,,html-keyboard-response,402,1934060,0.0-19.0-2.14,35182,List1A,black,woman,,,,null,,,,
16420,,,survey-text,403,1950482,0.0-19.0-3.14,35182,List1A,black,woman,,,,,"{""Q0"":""Luke and Ruth""}","<img src=""stim_listA/hug3.gif""</stim_listA>",is hugging,
null,"<div style=""font-size:60px;"">+</div>",,html-keyboard-response,404,1950984,0.0-19.0-0.15,35182,List1A,black,woman,,,,null,,,,
null,"<img src=""stim_listA/marry7.gif""</stim_listA>",,html-keyboard-response,405,1952987,0.0-19.0-1.15,35182,List1A,black,woman,,,,null,,,,
null,is marrying,,html-keyboard-response,406,1954989,0.0-19.0-2.15,35182,List1A,black,woman,,,,null,,,,
11181,,,survey-text,407,1966172,0.0-19.0-3.15,35182,List1A,black,woman,,,,,"{""Q0"":""Ruth and Beth""}","<img src=""stim_listA/marry7.gif""</stim_listA>",is marrying,
null,"<div style=""font-size:60px;"">+</div>",,html-keyboard-response,408,1966674,0.0-19.0-0.16,35182,List1A,black,woman,,,,null,,,,
null,"<img src=""stim_listA/dance7.gif""</stim_listA>",,html-keyboard-response,409,1968677,0.0-19.0-1.16,35182,List1A,black,woman,,,,null,,,,
null,is dancing with,,html-keyboard-response,410,1970679,0.0-19.0-2.16,35182,List1A,black,woman,,,,null,,,,
11831,,,survey-text,411,1982512,0.0-19.0-3.16,35182,List1A,black,woman,,,,,"{""Q0"":""Ruth and Jane""}","<img src=""stim_listA/dance7.gif""</stim_listA>",is dancing with,
null,"<div style=""font-size:60px;"">+</div>",,html-keyboard-response,412,1983013,0.0-19.0-0.17,35182,List1A,black,woman,,,,null,,,,
null,"<img src=""stim_listA/meet6.gif""</stim_listA>",,html-keyboard-response,413,1985015,0.0-19.0-1.17,35182,List1A,black,woman,,,,null,,,,
null,are meeting each other,,html-keyboard-response,414,1987017,0.0-19.0-2.17,35182,List1A,black,woman,,,,null,,,,
12294,,,survey-text,415,1999313,0.0-19.0-3.17,35182,List1A,black,woman,,,,,"{""Q0"":""Fred and Luke""}","<img src=""stim_listA/meet6.gif""</stim_listA>",are meeting each other,
null,"<div style=""font-size:60px;"">+</div>",,html-keyboard-response,416,1999815,0.0-19.0-0.18,35182,List1A,black,woman,,,,null,,,,
null,"<img src=""stim_listA/shout8.gif""</stim_listA>",,html-keyboard-response,417,2001818,0.0-19.0-1.18,35182,List1A,black,woman,,,,null,,,,
null,are shouting at each other,,html-keyboard-response,418,2003820,0.0-19.0-2.18,35182,List1A,black,woman,,,,null,,,,
11590,,,survey-text,419,2015412,0.0-19.0-3.18,35182,List1A,black,woman,,,,,"{""Q0"":""Jane and Kate""}","<img src=""stim_listA/shout8.gif""</stim_listA>",are shouting at each other,
null,"<div style=""font-size:60px;"">+</div>",,html-keyboard-response,420,2015914,0.0-19.0-0.19,35182,List1A,black,woman,,,,null,,,,
null,"<img src=""stim_listA/touch6.gif""</stim_listA>",,html-keyboard-response,421,2017917,0.0-19.0-1.19,35182,List1A,black,woman,,,,null,,,,
null,are touching each other,,html-keyboard-response,422,2019918,0.0-19.0-2.19,35182,List1A,black,woman,,,,null,,,,
8774,,,survey-text,423,2028694,0.0-19.0-3.19,35182,List1A,black,woman,,,,,"{""Q0"":""Fred and Luke""}","<img src=""stim_listA/touch6.gif""</stim_listA>",are touching each other,
3491,<p>Thank you for completing that task.</p><p>The final part of this session is a short questionnaire.</p><p>Press Continue.</p>,0,html-button-response,424,2032187,0.0-20.0,35182,List1A,black,woman,,,,,,,,
51126,,,survey-text,425,2084317,0.0-21.0,35182,List1A,black,woman,,,,,"{""Q0"":""54"",""Q1"":""English"",""Q2"":""English"",""Q3"":""United States"",""Q4"":""black"",""Q5"":""female""}",,,demographics
75353,,,survey-likert,426,2159688,0.0-22.0,35182,List1A,black,woman,,,,,"{""Q0"":5,""Q1"":5,""Q2"":5,""Q3"":5,""Q4"":5,""Q5"":5,""Q6"":5,""Q7"":5,""Q8"":5,""Q9"":5,""Q10"":4,""Q11"":4,""Q12"":4,""Q13"":4}",,,likert_race
74426,,,survey-likert,427,2234137,0.0-23.0,35182,List1A,black,woman,,,,,"{""Q0"":5,""Q1"":5,""Q2"":5,""Q3"":5,""Q4"":5,""Q5"":5,""Q6"":5,""Q7"":5,""Q8"":5,""Q9"":5,""Q10"":4,""Q11"":4,""Q12"":4,""Q13"":4}",,,likert_gender
18799,,,survey-text,428,2252949,0.0-24.0,35182,List1A,black,woman,,,,,"{""Q0"":""ccc""}",,,worker_id
5643,,,external-html,429,2259268,0.0-25.0,35182,List1A,black,woman,debrief.html,,,,,,,
