rt,stimulus,button_pressed,trial_type,trial_index,time_elapsed,internal_node_id,subject,list,ppt_race,ppt_gender,url,first_guess,correct,key_press,responses,image_type,phrase_type,test_part
3806,Welcome to the experiment. Press Continue to begin.,0,html-button-response,0,3815,0.0-0.0,36346,List2B,white,man,,,,,,,,
17026,,,external-html,1,21923,0.0-1.0,36346,List2B,white,man,consent.html,,,,,,,
10524,"<p>On the next page, you will see portraits of 8 people and their names.</p><p>Your first task is to take a few minutes to memorise the names of these people.</p><p>You will have to recall their names during the rest of the experiment, so it is</p><p>essential that you try to memorise these people and their names as best as you can.</p><br><p><strong>You will then be tested on your memory of these names and portraits.</strong></p><br><p>The experiment will start after you have completed this memory test.</p><br><p>Ready?</p>",0,html-button-response,2,32456,0.0-2.0,36346,List2B,white,man,,,,,,,,
33296,"<img src='img/portrait_matrix_list2.JPG' style='width:900px;height:500px;''></img><p>If you have memorised all the portraits and names and are ready to start, press Continue.</p><p><strong>Please note: Your memory of these faces will be tested 4 times during this experiment.</strong></p>",0,html-button-response,3,66757,0.0-3.0-0.0,36346,List2B,white,man,,,,,,,,
2478,"<img src=""portrait/WW1.jpg""style=""width:400px;height:400px;""></img>",1,html-button-response,4,70242,0.0-3.0-1.0,36346,List2B,white,man,,TRUE,1,,,,,
null,CORRECT,,html-keyboard-response,5,71751,0.0-3.0-2.0-0.0,36346,List2B,white,man,,,,null,,,,
4121,"<img src=""portrait/BW1.jpg""style=""width:400px;height:400px;""></img>",0,html-button-response,6,75879,0.0-3.0-4.0,36346,List2B,white,man,,TRUE,0,,,,,
null,CORRECT,,html-keyboard-response,7,77384,0.0-3.0-5.0-0.0,36346,List2B,white,man,,,,null,,,,
4424,"<img src=""portrait/BW2.jpg""style=""width:400px;height:400px;""></img>",2,html-button-response,8,81813,0.0-3.0-7.0,36346,List2B,white,man,,TRUE,2,,,,,
null,CORRECT,,html-keyboard-response,9,83318,0.0-3.0-8.0-0.0,36346,List2B,white,man,,,,null,,,,
5980,"<img src=""portrait/WM1.jpg""style=""width:400px;height:400px;""></img>",6,html-button-response,10,89303,0.0-3.0-10.0,36346,List2B,white,man,,TRUE,6,,,,,
null,CORRECT,,html-keyboard-response,11,90808,0.0-3.0-11.0-0.0,36346,List2B,white,man,,,,null,,,,
8705,"<img src=""portrait/WM2.jpg""style=""width:400px;height:400px;""></img>",7,html-button-response,12,99522,0.0-3.0-13.0,36346,List2B,white,man,,TRUE,7,,,,,
null,CORRECT,,html-keyboard-response,13,101027,0.0-3.0-14.0-0.0,36346,List2B,white,man,,,,null,,,,
9626,"<img src=""portrait/BM2.jpg""style=""width:400px;height:400px;""></img>",5,html-button-response,14,110662,0.0-3.0-16.0,36346,List2B,white,man,,TRUE,5,,,,,
null,CORRECT,,html-keyboard-response,15,112166,0.0-3.0-17.0-0.0,36346,List2B,white,man,,,,null,,,,
5492,"<img src=""portrait/WW2.jpg""style=""width:400px;height:400px;""></img>",3,html-button-response,16,117664,0.0-3.0-19.0,36346,List2B,white,man,,TRUE,3,,,,,
null,CORRECT,,html-keyboard-response,17,119168,0.0-3.0-20.0-0.0,36346,List2B,white,man,,,,null,,,,
5597,"<img src=""portrait/BM1.jpg""style=""width:400px;height:400px;""></img>",4,html-button-response,18,124769,0.0-3.0-22.0,36346,List2B,white,man,,TRUE,4,,,,,
null,CORRECT,,html-keyboard-response,19,126274,0.0-3.0-23.0-0.0,36346,List2B,white,man,,,,null,,,,
2789,<p>You got 8 out of 8 right first time. Press Continue.</p>,0,html-button-response,20,129068,0.0-3.0-25.0,36346,List2B,white,man,,,,,,,,
46161,"<p>In this experiment, you will view photographs of the people from the memory game interacting.</p><p>By using the <strong>exact</strong> phrase given <i>after</i> the photograph appears and recalling the correct names of the people in the photographs, form a sentence describing the interaction. You do not need to capitalise names.</p><p>Type your answer in the space provided. Please complete every sentence before moving onto the next trial.</p><p>You will only have a few seconds to memorise each given photograph and phrase before you can respond, so try your best to focus.</p><p>An example is given below. Press 'Continue' when you are ready.</p><img src='img/speaking_example_v2.jpg' style='width:800px;height:460px;''></img>",0,html-button-response,21,176240,0.0-4.0,36346,List2B,white,man,,,,,,,,
3168,"<p>Before the experiment starts, you will watch two example trials. Press 'Continue'.</p>",0,html-button-response,22,180411,0.0-5.0,36346,List2B,white,man,,,,,,,,
null,<img src='img/speaking_WW.gif'></img>,,html-keyboard-response,23,183416,0.0-6.0,36346,List2B,white,man,,,,null,,,,
null,<p>is speaking to</p>,,html-keyboard-response,24,185420,0.0-7.0,36346,List2B,white,man,,,,null,,,,
2406,<p><b>Answer:</b> jane is speaking to ruth</p>,0,html-button-response,25,187830,0.0-8.0,36346,List2B,white,man,,,,,,,,
null,<img src='img/pointing_BM.gif'></img>,,html-keyboard-response,26,190835,0.0-9.0,36346,List2B,white,man,,,,null,,,,
null,<p>are pointing at each other</p>,,html-keyboard-response,27,192838,0.0-10.0,36346,List2B,white,man,,,,null,,,,
4108,<p><b>Answer:</b> fred and mike are pointing at each other</p>,0,html-button-response,28,196950,0.0-11.0,36346,List2B,white,man,,,,,,,,
5016,"<p>Ready to start the experiment?</p><br><p><strong>Remember to describe the picture using a full sentence,</strong></p><p><strong> that combines the names of the people with the given phrase.</strong></p><p><strong> You do not need to capitalise names or use punctuation.</strong></p><br><p>Press 'Continue' to begin.</p>",0,html-button-response,29,202969,0.0-12.0,36346,List2B,white,man,,,,,,,,
null,"<div style=""font-size:60px;"">+</div>",,html-keyboard-response,30,204473,0.0-13.0-0.0,36346,List2B,white,man,,,,null,,,,
null,"<img src=""stim_listB/fight2.gif""</stim_listB>",,html-keyboard-response,31,206480,0.0-13.0-1.0,36346,List2B,white,man,,,,null,,,,
null,are fighting each other,,html-keyboard-response,32,208486,0.0-13.0-2.0,36346,List2B,white,man,,,,null,,,,
14915,,,survey-text,33,223410,0.0-13.0-3.0,36346,List2B,white,man,,,,,"{""Q0"":""Luke and Ruth are fighting eachother""}","<img src=""stim_listB/fight2.gif""</stim_listB>",are fighting each other,
null,"<div style=""font-size:60px;"">+</div>",,html-keyboard-response,34,223916,0.0-13.0-0.1,36346,List2B,white,man,,,,null,,,,
null,"<img src=""stim_listB/meet2.gif""</stim_listB>",,html-keyboard-response,35,225921,0.0-13.0-1.1,36346,List2B,white,man,,,,null,,,,
null,are meeting each other,,html-keyboard-response,36,227925,0.0-13.0-2.1,36346,List2B,white,man,,,,null,,,,
14500,,,survey-text,37,242428,0.0-13.0-3.1,36346,List2B,white,man,,,,,"{""Q0"":""Luke and Ruth are meeting eachother""}","<img src=""stim_listB/meet2.gif""</stim_listB>",are meeting each other,
null,"<div style=""font-size:60px;"">+</div>",,html-keyboard-response,38,242931,0.0-13.0-0.2,36346,List2B,white,man,,,,null,,,,
null,"<img src=""stim_listB/touch4.gif""</stim_listB>",,html-keyboard-response,39,244937,0.0-13.0-1.2,36346,List2B,white,man,,,,null,,,,
null,are touching each other,,html-keyboard-response,40,246941,0.0-13.0-2.2,36346,List2B,white,man,,,,null,,,,
18874,,,survey-text,41,265819,0.0-13.0-3.2,36346,List2B,white,man,,,,,"{""Q0"":""Fred and Beth are high fiving eachother ""}","<img src=""stim_listB/touch4.gif""</stim_listB>",are touching each other,
null,"<div style=""font-size:60px;"">+</div>",,html-keyboard-response,42,266323,0.0-13.0-0.3,36346,List2B,white,man,,,,null,,,,
null,"<img src=""stim_listB/shout2.gif""</stim_listB>",,html-keyboard-response,43,268329,0.0-13.0-1.3,36346,List2B,white,man,,,,null,,,,
null,are shouting at each other,,html-keyboard-response,44,270334,0.0-13.0-2.3,36346,List2B,white,man,,,,null,,,,
10283,,,survey-text,45,280620,0.0-13.0-3.3,36346,List2B,white,man,,,,,"{""Q0"":""Jane and Dave are shouting at eachother""}","<img src=""stim_listB/shout2.gif""</stim_listB>",are shouting at each other,
null,"<div style=""font-size:60px;"">+</div>",,html-keyboard-response,46,281122,0.0-13.0-0.4,36346,List2B,white,man,,,,null,,,,
null,"<img src=""stim_listB/marry3.gif""</stim_listB>",,html-keyboard-response,47,283126,0.0-13.0-1.4,36346,List2B,white,man,,,,null,,,,
null,is marrying,,html-keyboard-response,48,285130,0.0-13.0-2.4,36346,List2B,white,man,,,,null,,,,
7636,,,survey-text,49,292770,0.0-13.0-3.4,36346,List2B,white,man,,,,,"{""Q0"":""Mike is marrying Beth""}","<img src=""stim_listB/marry3.gif""</stim_listB>",is marrying,
null,"<div style=""font-size:60px;"">+</div>",,html-keyboard-response,50,293275,0.0-13.0-0.5,36346,List2B,white,man,,,,null,,,,
null,"<img src=""stim_listB/dance4.gif""</stim_listB>",,html-keyboard-response,51,295280,0.0-13.0-1.5,36346,List2B,white,man,,,,null,,,,
null,are dancing with each other,,html-keyboard-response,52,297284,0.0-13.0-2.5,36346,List2B,white,man,,,,null,,,,
8217,,,survey-text,53,305504,0.0-13.0-3.5,36346,List2B,white,man,,,,,"{""Q0"":""Mike and Beth are dancing with eachother""}","<img src=""stim_listB/dance4.gif""</stim_listB>",are dancing with each other,
null,"<div style=""font-size:60px;"">+</div>",,html-keyboard-response,54,306008,0.0-13.0-0.6,36346,List2B,white,man,,,,null,,,,
null,"<img src=""stim_listB/hug3.gif""</stim_listB>",,html-keyboard-response,55,308014,0.0-13.0-1.6,36346,List2B,white,man,,,,null,,,,
null,is hugging,,html-keyboard-response,56,310018,0.0-13.0-2.6,36346,List2B,white,man,,,,null,,,,
6875,,,survey-text,57,316898,0.0-13.0-3.6,36346,List2B,white,man,,,,,"{""Q0"":""Beth is hugging Fred""}","<img src=""stim_listB/hug3.gif""</stim_listB>",is hugging,
null,"<div style=""font-size:60px;"">+</div>",,html-keyboard-response,58,317402,0.0-13.0-0.7,36346,List2B,white,man,,,,null,,,,
null,"<img src=""stim_listB/kiss8.gif""</stim_listB>",,html-keyboard-response,59,319406,0.0-13.0-1.7,36346,List2B,white,man,,,,null,,,,
null,are kissing each other,,html-keyboard-response,60,321410,0.0-13.0-2.7,36346,List2B,white,man,,,,null,,,,
9768,,,survey-text,61,331182,0.0-13.0-3.7,36346,List2B,white,man,,,,,"{""Q0"":""Jane and Kate are kissing eachother""}","<img src=""stim_listB/kiss8.gif""</stim_listB>",are kissing each other,
null,"<div style=""font-size:60px;"">+</div>",,html-keyboard-response,62,331686,0.0-13.0-0.8,36346,List2B,white,man,,,,null,,,,
null,"<img src=""stim_listB/talk3.gif""</stim_listB>",,html-keyboard-response,63,333692,0.0-13.0-1.8,36346,List2B,white,man,,,,null,,,,
null,is talking to,,html-keyboard-response,64,335697,0.0-13.0-2.8,36346,List2B,white,man,,,,null,,,,
7223,,,survey-text,65,342923,0.0-13.0-3.8,36346,List2B,white,man,,,,,"{""Q0"":""Fred is talking to kate""}","<img src=""stim_listB/talk3.gif""</stim_listB>",is talking to,
null,"<div style=""font-size:60px;"">+</div>",,html-keyboard-response,66,343429,0.0-13.0-0.9,36346,List2B,white,man,,,,null,,,,
null,"<img src=""stim_listB/kiss3.gif""</stim_listB>",,html-keyboard-response,67,345435,0.0-13.0-1.9,36346,List2B,white,man,,,,null,,,,
null,is kissing,,html-keyboard-response,68,347438,0.0-13.0-2.9,36346,List2B,white,man,,,,null,,,,
7080,,,survey-text,69,354521,0.0-13.0-3.9,36346,List2B,white,man,,,,,"{""Q0"":""Fred is kissing beth""}","<img src=""stim_listB/kiss3.gif""</stim_listB>",is kissing,
null,"<div style=""font-size:60px;"">+</div>",,html-keyboard-response,70,355025,0.0-13.0-0.10,36346,List2B,white,man,,,,null,,,,
null,"<img src=""stim_listB/touch3.gif""</stim_listB>",,html-keyboard-response,71,357029,0.0-13.0-1.10,36346,List2B,white,man,,,,null,,,,
null,is touching,,html-keyboard-response,72,359033,0.0-13.0-2.10,36346,List2B,white,man,,,,null,,,,
7327,,,survey-text,73,366363,0.0-13.0-3.10,36346,List2B,white,man,,,,,"{""Q0"":""Mike is touching Kate""}","<img src=""stim_listB/touch3.gif""</stim_listB>",is touching,
null,"<div style=""font-size:60px;"">+</div>",,html-keyboard-response,74,366867,0.0-13.0-0.11,36346,List2B,white,man,,,,null,,,,
null,"<img src=""stim_listB/argue8.gif""</stim_listB>",,html-keyboard-response,75,368869,0.0-13.0-1.11,36346,List2B,white,man,,,,null,,,,
null,are arguing with each other,,html-keyboard-response,76,370873,0.0-13.0-2.11,36346,List2B,white,man,,,,null,,,,
10397,,,survey-text,77,381274,0.0-13.0-3.11,36346,List2B,white,man,,,,,"{""Q0"":""Jane and Kate are arguing with eachother""}","<img src=""stim_listB/argue8.gif""</stim_listB>",are arguing with each other,
null,"<div style=""font-size:60px;"">+</div>",,html-keyboard-response,78,381778,0.0-13.0-0.12,36346,List2B,white,man,,,,null,,,,
null,"<img src=""stim_listB/shout4.gif""</stim_listB>",,html-keyboard-response,79,383784,0.0-13.0-1.12,36346,List2B,white,man,,,,null,,,,
null,are shouting at each other,,html-keyboard-response,80,385788,0.0-13.0-2.12,36346,List2B,white,man,,,,null,,,,
8554,,,survey-text,81,394345,0.0-13.0-3.12,36346,List2B,white,man,,,,,"{""Q0"":""Mike and Kate are shouting at eachother""}","<img src=""stim_listB/shout4.gif""</stim_listB>",are shouting at each other,
null,"<div style=""font-size:60px;"">+</div>",,html-keyboard-response,82,394849,0.0-13.0-0.13,36346,List2B,white,man,,,,null,,,,
null,"<img src=""stim_listB/dance7.gif""</stim_listB>",,html-keyboard-response,83,396855,0.0-13.0-1.13,36346,List2B,white,man,,,,null,,,,
null,is dancing with,,html-keyboard-response,84,398859,0.0-13.0-2.13,36346,List2B,white,man,,,,null,,,,
5637,,,survey-text,85,404499,0.0-13.0-3.13,36346,List2B,white,man,,,,,"{""Q0"":""Kate is dancing with beth""}","<img src=""stim_listB/dance7.gif""</stim_listB>",is dancing with,
null,"<div style=""font-size:60px;"">+</div>",,html-keyboard-response,86,405002,0.0-13.0-0.14,36346,List2B,white,man,,,,null,,,,
null,"<img src=""stim_listB/fight7.gif""</stim_listB>",,html-keyboard-response,87,407007,0.0-13.0-1.14,36346,List2B,white,man,,,,null,,,,
null,is fighting,,html-keyboard-response,88,409011,0.0-13.0-2.14,36346,List2B,white,man,,,,null,,,,
19129,,,survey-text,89,428143,0.0-13.0-3.14,36346,List2B,white,man,,,,,"{""Q0"":""Kate is fighting with Jane""}","<img src=""stim_listB/fight7.gif""</stim_listB>",is fighting,
null,"<div style=""font-size:60px;"">+</div>",,html-keyboard-response,90,428647,0.0-13.0-0.15,36346,List2B,white,man,,,,null,,,,
null,"<img src=""stim_listB/talk1.gif""</stim_listB>",,html-keyboard-response,91,430651,0.0-13.0-1.15,36346,List2B,white,man,,,,null,,,,
null,is talking to,,html-keyboard-response,92,432656,0.0-13.0-2.15,36346,List2B,white,man,,,,null,,,,
5521,,,survey-text,93,438181,0.0-13.0-3.15,36346,List2B,white,man,,,,,"{""Q0"":""Jane is talking to luke""}","<img src=""stim_listB/talk1.gif""</stim_listB>",is talking to,
null,"<div style=""font-size:60px;"">+</div>",,html-keyboard-response,94,438684,0.0-13.0-0.16,36346,List2B,white,man,,,,null,,,,
null,"<img src=""stim_listB/talk4.gif""</stim_listB>",,html-keyboard-response,95,440691,0.0-13.0-1.16,36346,List2B,white,man,,,,null,,,,
null,are talking to each other,,html-keyboard-response,96,442695,0.0-13.0-2.16,36346,List2B,white,man,,,,null,,,,
16390,,,survey-text,97,459089,0.0-13.0-3.16,36346,List2B,white,man,,,,,"{""Q0"":""Fred and Beth are talking to eachother""}","<img src=""stim_listB/talk4.gif""</stim_listB>",are talking to each other,
null,"<div style=""font-size:60px;"">+</div>",,html-keyboard-response,98,459592,0.0-13.0-0.17,36346,List2B,white,man,,,,null,,,,
null,"<img src=""stim_listB/talk7.gif""</stim_listB>",,html-keyboard-response,99,461597,0.0-13.0-1.17,36346,List2B,white,man,,,,null,,,,
null,is talking to,,html-keyboard-response,100,463601,0.0-13.0-2.17,36346,List2B,white,man,,,,null,,,,
5606,,,survey-text,101,469211,0.0-13.0-3.17,36346,List2B,white,man,,,,,"{""Q0"":""Ruth is talking to kate""}","<img src=""stim_listB/talk7.gif""</stim_listB>",is talking to,
null,"<div style=""font-size:60px;"">+</div>",,html-keyboard-response,102,469716,0.0-13.0-0.18,36346,List2B,white,man,,,,null,,,,
null,"<img src=""stim_listB/fight4.gif""</stim_listB>",,html-keyboard-response,103,471720,0.0-13.0-1.18,36346,List2B,white,man,,,,null,,,,
null,are fighting each other,,html-keyboard-response,104,473724,0.0-13.0-2.18,36346,List2B,white,man,,,,null,,,,
11494,,,survey-text,105,485222,0.0-13.0-3.18,36346,List2B,white,man,,,,,"{""Q0"":""Beth and Fred are fighting eachother""}","<img src=""stim_listB/fight4.gif""</stim_listB>",are fighting each other,
null,"<div style=""font-size:60px;"">+</div>",,html-keyboard-response,106,485726,0.0-13.0-0.19,36346,List2B,white,man,,,,null,,,,
null,"<img src=""stim_listB/shout7.gif""</stim_listB>",,html-keyboard-response,107,487731,0.0-13.0-1.19,36346,List2B,white,man,,,,null,,,,
null,is shouting at,,html-keyboard-response,108,489736,0.0-13.0-2.19,36346,List2B,white,man,,,,null,,,,
19641,,,survey-text,109,509380,0.0-13.0-3.19,36346,List2B,white,man,,,,,"{""Q0"":""Ruth is shouting at Beth""}","<img src=""stim_listB/shout7.gif""</stim_listB>",is shouting at,
20732,"<img src='img/portrait_matrix_list2.JPG' style='width:900px;height:500px;''></img><p>If you have memorised all the portraits and names and are ready to start, press Continue.</p><p><strong>Please note: Your memory of these faces will be tested 4 times during this experiment.</strong></p>",0,html-button-response,110,530124,0.0-14.0-0.0,36346,List2B,white,man,,,,,,,,
2494,"<img src=""portrait/WM1.jpg""style=""width:400px;height:400px;""></img>",6,html-button-response,111,533625,0.0-14.0-1.0,36346,List2B,white,man,,TRUE,6,,,,,
null,CORRECT,,html-keyboard-response,112,535130,0.0-14.0-2.0-0.0,36346,List2B,white,man,,,,null,,,,
2740,"<img src=""portrait/WW2.jpg""style=""width:400px;height:400px;""></img>",3,html-button-response,113,537877,0.0-14.0-4.0,36346,List2B,white,man,,TRUE,3,,,,,
null,CORRECT,,html-keyboard-response,114,539382,0.0-14.0-5.0-0.0,36346,List2B,white,man,,,,null,,,,
1607,"<img src=""portrait/WW1.jpg""style=""width:400px;height:400px;""></img>",1,html-button-response,115,540995,0.0-14.0-7.0,36346,List2B,white,man,,TRUE,1,,,,,
null,CORRECT,,html-keyboard-response,116,542500,0.0-14.0-8.0-0.0,36346,List2B,white,man,,,,null,,,,
4488,"<img src=""portrait/BM1.jpg""style=""width:400px;height:400px;""></img>",4,html-button-response,117,546998,0.0-14.0-10.0,36346,List2B,white,man,,TRUE,4,,,,,
null,CORRECT,,html-keyboard-response,118,548502,0.0-14.0-11.0-0.0,36346,List2B,white,man,,,,null,,,,
8442,"<img src=""portrait/BM2.jpg""style=""width:400px;height:400px;""></img>",5,html-button-response,119,556952,0.0-14.0-13.0,36346,List2B,white,man,,TRUE,5,,,,,
null,CORRECT,,html-keyboard-response,120,558457,0.0-14.0-14.0-0.0,36346,List2B,white,man,,,,null,,,,
3893,"<img src=""portrait/BW2.jpg""style=""width:400px;height:400px;""></img>",2,html-button-response,121,562355,0.0-14.0-16.0,36346,List2B,white,man,,TRUE,2,,,,,
null,CORRECT,,html-keyboard-response,122,563866,0.0-14.0-17.0-0.0,36346,List2B,white,man,,,,null,,,,
2565,"<img src=""portrait/WM2.jpg""style=""width:400px;height:400px;""></img>",7,html-button-response,123,566439,0.0-14.0-19.0,36346,List2B,white,man,,TRUE,7,,,,,
null,CORRECT,,html-keyboard-response,124,567944,0.0-14.0-20.0-0.0,36346,List2B,white,man,,,,null,,,,
2611,"<img src=""portrait/BW1.jpg""style=""width:400px;height:400px;""></img>",0,html-button-response,125,570561,0.0-14.0-22.0,36346,List2B,white,man,,TRUE,0,,,,,
null,CORRECT,,html-keyboard-response,126,572065,0.0-14.0-23.0-0.0,36346,List2B,white,man,,,,null,,,,
1804,<p>You got 8 out of 8 right first time. Press Continue.</p>,0,html-button-response,127,573873,0.0-14.0-25.0,36346,List2B,white,man,,,,,,,,
null,"<div style=""font-size:60px;"">+</div>",,html-keyboard-response,128,575378,0.0-15.0-0.0,36346,List2B,white,man,,,,null,,,,
null,"<img src=""stim_listB/talk6.gif""</stim_listB>",,html-keyboard-response,129,577383,0.0-15.0-1.0,36346,List2B,white,man,,,,null,,,,
null,are talking to each other,,html-keyboard-response,130,579388,0.0-15.0-2.0,36346,List2B,white,man,,,,null,,,,
28904,,,survey-text,131,608295,0.0-15.0-3.0,36346,List2B,white,man,,,,,"{""Q0"":""Dave and Fred are talking to eachother""}","<img src=""stim_listB/talk6.gif""</stim_listB>",are talking to each other,
null,"<div style=""font-size:60px;"">+</div>",,html-keyboard-response,132,608798,0.0-15.0-0.1,36346,List2B,white,man,,,,null,,,,
null,"<img src=""stim_listB/talk8.gif""</stim_listB>",,html-keyboard-response,133,610804,0.0-15.0-1.1,36346,List2B,white,man,,,,null,,,,
null,are talking to each other,,html-keyboard-response,134,612809,0.0-15.0-2.1,36346,List2B,white,man,,,,null,,,,
9973,,,survey-text,135,622785,0.0-15.0-3.1,36346,List2B,white,man,,,,,"{""Q0"":""jane and beth are talking to eachother""}","<img src=""stim_listB/talk8.gif""</stim_listB>",are talking to each other,
null,"<div style=""font-size:60px;"">+</div>",,html-keyboard-response,136,623290,0.0-15.0-0.2,36346,List2B,white,man,,,,null,,,,
null,"<img src=""stim_listB/argue5.gif""</stim_listB>",,html-keyboard-response,137,625295,0.0-15.0-1.2,36346,List2B,white,man,,,,null,,,,
null,is arguing with,,html-keyboard-response,138,627299,0.0-15.0-2.2,36346,List2B,white,man,,,,null,,,,
5890,,,survey-text,139,633193,0.0-15.0-3.2,36346,List2B,white,man,,,,,"{""Q0"":""dave is arguing with fred""}","<img src=""stim_listB/argue5.gif""</stim_listB>",is arguing with,
null,"<div style=""font-size:60px;"">+</div>",,html-keyboard-response,140,633699,0.0-15.0-0.3,36346,List2B,white,man,,,,null,,,,
null,"<img src=""stim_listB/shout1.gif""</stim_listB>",,html-keyboard-response,141,635705,0.0-15.0-1.3,36346,List2B,white,man,,,,null,,,,
null,is shouting at,,html-keyboard-response,142,637709,0.0-15.0-2.3,36346,List2B,white,man,,,,null,,,,
8202,,,survey-text,143,645914,0.0-15.0-3.3,36346,List2B,white,man,,,,,"{""Q0"":""ruth is shouting at luke ""}","<img src=""stim_listB/shout1.gif""</stim_listB>",is shouting at,
null,"<div style=""font-size:60px;"">+</div>",,html-keyboard-response,144,646428,0.0-15.0-0.4,36346,List2B,white,man,,,,null,,,,
null,"<img src=""stim_listB/dance6.gif""</stim_listB>",,html-keyboard-response,145,648432,0.0-15.0-1.4,36346,List2B,white,man,,,,null,,,,
null,are dancing with each other,,html-keyboard-response,146,650436,0.0-15.0-2.4,36346,List2B,white,man,,,,null,,,,
7182,,,survey-text,147,657622,0.0-15.0-3.4,36346,List2B,white,man,,,,,"{""Q0"":""fred and dave are dancing with eachother""}","<img src=""stim_listB/dance6.gif""</stim_listB>",are dancing with each other,
null,"<div style=""font-size:60px;"">+</div>",,html-keyboard-response,148,658126,0.0-15.0-0.5,36346,List2B,white,man,,,,null,,,,
null,"<img src=""stim_listB/marry4.gif""</stim_listB>",,html-keyboard-response,149,660131,0.0-15.0-1.5,36346,List2B,white,man,,,,null,,,,
null,are marrying each other,,html-keyboard-response,150,662135,0.0-15.0-2.5,36346,List2B,white,man,,,,null,,,,
9389,,,survey-text,151,671527,0.0-15.0-3.5,36346,List2B,white,man,,,,,"{""Q0"":""kate and fred are marrying eachother""}","<img src=""stim_listB/marry4.gif""</stim_listB>",are marrying each other,
null,"<div style=""font-size:60px;"">+</div>",,html-keyboard-response,152,672050,0.0-15.0-0.6,36346,List2B,white,man,,,,null,,,,
null,"<img src=""stim_listB/touch6.gif""</stim_listB>",,html-keyboard-response,153,674054,0.0-15.0-1.6,36346,List2B,white,man,,,,null,,,,
null,are touching each other,,html-keyboard-response,154,676056,0.0-15.0-2.6,36346,List2B,white,man,,,,null,,,,
10809,,,survey-text,155,686870,0.0-15.0-3.6,36346,List2B,white,man,,,,,"{""Q0"":""luke and fred are touching eachother ""}","<img src=""stim_listB/touch6.gif""</stim_listB>",are touching each other,
null,"<div style=""font-size:60px;"">+</div>",,html-keyboard-response,156,687374,0.0-15.0-0.7,36346,List2B,white,man,,,,null,,,,
null,"<img src=""stim_listB/marry8.gif""</stim_listB>",,html-keyboard-response,157,689380,0.0-15.0-1.7,36346,List2B,white,man,,,,null,,,,
null,are marrying each other,,html-keyboard-response,158,691384,0.0-15.0-2.7,36346,List2B,white,man,,,,null,,,,
10634,,,survey-text,159,702022,0.0-15.0-3.7,36346,List2B,white,man,,,,,"{""Q0"":""kate and ruth are marrying eachother""}","<img src=""stim_listB/marry8.gif""</stim_listB>",are marrying each other,
null,"<div style=""font-size:60px;"">+</div>",,html-keyboard-response,160,702526,0.0-15.0-0.8,36346,List2B,white,man,,,,null,,,,
null,"<img src=""stim_listB/argue7.gif""</stim_listB>",,html-keyboard-response,161,704530,0.0-15.0-1.8,36346,List2B,white,man,,,,null,,,,
null,is arguing with,,html-keyboard-response,162,706534,0.0-15.0-2.8,36346,List2B,white,man,,,,null,,,,
135345,,,survey-text,163,841885,0.0-15.0-3.8,36346,List2B,white,man,,,,,"{""Q0"":""jane is arguing with beth""}","<img src=""stim_listB/argue7.gif""</stim_listB>",is arguing with,
null,"<div style=""font-size:60px;"">+</div>",,html-keyboard-response,164,842400,0.0-15.0-0.9,36346,List2B,white,man,,,,null,,,,
null,"<img src=""stim_listB/kiss5.gif""</stim_listB>",,html-keyboard-response,165,844405,0.0-15.0-1.9,36346,List2B,white,man,,,,null,,,,
null,is kissing,,html-keyboard-response,166,846409,0.0-15.0-2.9,36346,List2B,white,man,,,,null,,,,
8827,,,survey-text,167,855243,0.0-15.0-3.9,36346,List2B,white,man,,,,,"{""Q0"":""luke is kissing fred""}","<img src=""stim_listB/kiss5.gif""</stim_listB>",is kissing,
null,"<div style=""font-size:60px;"">+</div>",,html-keyboard-response,168,855748,0.0-15.0-0.10,36346,List2B,white,man,,,,null,,,,
null,"<img src=""stim_listB/fight6.gif""</stim_listB>",,html-keyboard-response,169,857752,0.0-15.0-1.10,36346,List2B,white,man,,,,null,,,,
null,are fighting each other,,html-keyboard-response,170,859757,0.0-15.0-2.10,36346,List2B,white,man,,,,null,,,,
12407,,,survey-text,171,872168,0.0-15.0-3.10,36346,List2B,white,man,,,,,"{""Q0"":""luke and fred are fighting eachother""}","<img src=""stim_listB/fight6.gif""</stim_listB>",are fighting each other,
null,"<div style=""font-size:60px;"">+</div>",,html-keyboard-response,172,872672,0.0-15.0-0.11,36346,List2B,white,man,,,,null,,,,
null,"<img src=""stim_listB/meet5.gif""</stim_listB>",,html-keyboard-response,173,874678,0.0-15.0-1.11,36346,List2B,white,man,,,,null,,,,
null,is meeting,,html-keyboard-response,174,876683,0.0-15.0-2.11,36346,List2B,white,man,,,,null,,,,
10886,,,survey-text,175,887574,0.0-15.0-3.11,36346,List2B,white,man,,,,,"{""Q0"":""dave is meeting mike""}","<img src=""stim_listB/meet5.gif""</stim_listB>",is meeting,
null,"<div style=""font-size:60px;"">+</div>",,html-keyboard-response,176,888078,0.0-15.0-0.12,36346,List2B,white,man,,,,null,,,,
null,"<img src=""stim_listB/hug4.gif""</stim_listB>",,html-keyboard-response,177,890084,0.0-15.0-1.12,36346,List2B,white,man,,,,null,,,,
null,are hugging each other,,html-keyboard-response,178,892088,0.0-15.0-2.12,36346,List2B,white,man,,,,null,,,,
9439,,,survey-text,179,901531,0.0-15.0-3.12,36346,List2B,white,man,,,,,"{""Q0"":""mike and kate are hugging eachother""}","<img src=""stim_listB/hug4.gif""</stim_listB>",are hugging each other,
null,"<div style=""font-size:60px;"">+</div>",,html-keyboard-response,180,902035,0.0-15.0-0.13,36346,List2B,white,man,,,,null,,,,
null,"<img src=""stim_listB/fight1.gif""</stim_listB>",,html-keyboard-response,181,904041,0.0-15.0-1.13,36346,List2B,white,man,,,,null,,,,
null,is fighting,,html-keyboard-response,182,906044,0.0-15.0-2.13,36346,List2B,white,man,,,,null,,,,
6951,,,survey-text,183,912998,0.0-15.0-3.13,36346,List2B,white,man,,,,,"{""Q0"":""dave is fighting jane""}","<img src=""stim_listB/fight1.gif""</stim_listB>",is fighting,
null,"<div style=""font-size:60px;"">+</div>",,html-keyboard-response,184,913501,0.0-15.0-0.14,36346,List2B,white,man,,,,null,,,,
null,"<img src=""stim_listB/touch7.gif""</stim_listB>",,html-keyboard-response,185,915505,0.0-15.0-1.14,36346,List2B,white,man,,,,null,,,,
null,is touching,,html-keyboard-response,186,917508,0.0-15.0-2.14,36346,List2B,white,man,,,,null,,,,
5239,,,survey-text,187,922751,0.0-15.0-3.14,36346,List2B,white,man,,,,,"{""Q0"":""jane is touching kate""}","<img src=""stim_listB/touch7.gif""</stim_listB>",is touching,
null,"<div style=""font-size:60px;"">+</div>",,html-keyboard-response,188,923256,0.0-15.0-0.15,36346,List2B,white,man,,,,null,,,,
null,"<img src=""stim_listB/touch8.gif""</stim_listB>",,html-keyboard-response,189,925260,0.0-15.0-1.15,36346,List2B,white,man,,,,null,,,,
null,are touching each other,,html-keyboard-response,190,927265,0.0-15.0-2.15,36346,List2B,white,man,,,,null,,,,
8536,,,survey-text,191,935805,0.0-15.0-3.15,36346,List2B,white,man,,,,,"{""Q0"":""ruth and beth are touching eachother""}","<img src=""stim_listB/touch8.gif""</stim_listB>",are touching each other,
null,"<div style=""font-size:60px;"">+</div>",,html-keyboard-response,192,936308,0.0-15.0-0.16,36346,List2B,white,man,,,,null,,,,
null,"<img src=""stim_listB/dance3.gif""</stim_listB>",,html-keyboard-response,193,938311,0.0-15.0-1.16,36346,List2B,white,man,,,,null,,,,
null,is dancing with,,html-keyboard-response,194,940316,0.0-15.0-2.16,36346,List2B,white,man,,,,null,,,,
5344,,,survey-text,195,945663,0.0-15.0-3.16,36346,List2B,white,man,,,,,"{""Q0"":""fred is dancing with kate""}","<img src=""stim_listB/dance3.gif""</stim_listB>",is dancing with,
null,"<div style=""font-size:60px;"">+</div>",,html-keyboard-response,196,946168,0.0-15.0-0.17,36346,List2B,white,man,,,,null,,,,
null,"<img src=""stim_listB/meet3.gif""</stim_listB>",,html-keyboard-response,197,948174,0.0-15.0-1.17,36346,List2B,white,man,,,,null,,,,
null,is meeting,,html-keyboard-response,198,950179,0.0-15.0-2.17,36346,List2B,white,man,,,,null,,,,
5452,,,survey-text,199,955636,0.0-15.0-3.17,36346,List2B,white,man,,,,,"{""Q0"":""kate is meeting mike""}","<img src=""stim_listB/meet3.gif""</stim_listB>",is meeting,
null,"<div style=""font-size:60px;"">+</div>",,html-keyboard-response,200,956142,0.0-15.0-0.18,36346,List2B,white,man,,,,null,,,,
null,"<img src=""stim_listB/marry1.gif""</stim_listB>",,html-keyboard-response,201,958147,0.0-15.0-1.18,36346,List2B,white,man,,,,null,,,,
null,is marrying,,html-keyboard-response,202,960152,0.0-15.0-2.18,36346,List2B,white,man,,,,null,,,,
6603,,,survey-text,203,966758,0.0-15.0-3.18,36346,List2B,white,man,,,,,"{""Q0"":""dave is marrying ruth""}","<img src=""stim_listB/marry1.gif""</stim_listB>",is marrying,
null,"<div style=""font-size:60px;"">+</div>",,html-keyboard-response,204,967263,0.0-15.0-0.19,36346,List2B,white,man,,,,null,,,,
null,"<img src=""stim_listB/kiss1.gif""</stim_listB>",,html-keyboard-response,205,969269,0.0-15.0-1.19,36346,List2B,white,man,,,,null,,,,
null,is kissing,,html-keyboard-response,206,971273,0.0-15.0-2.19,36346,List2B,white,man,,,,null,,,,
5086,,,survey-text,207,976363,0.0-15.0-3.19,36346,List2B,white,man,,,,,"{""Q0"":""luke is kissing ruth""}","<img src=""stim_listB/kiss1.gif""</stim_listB>",is kissing,
403742,"<img src='img/portrait_matrix_list2.JPG' style='width:900px;height:500px;''></img><p>If you have memorised all the portraits and names and are ready to start, press Continue.</p><p><strong>Please note: Your memory of these faces will be tested 4 times during this experiment.</strong></p>",0,html-button-response,208,1380120,0.0-16.0-0.0,36346,List2B,white,man,,,,,,,,
6403,"<img src=""portrait/BM1.jpg""style=""width:400px;height:400px;""></img>",4,html-button-response,209,1387559,0.0-16.0-1.0,36346,List2B,white,man,,TRUE,4,,,,,
null,CORRECT,,html-keyboard-response,210,1389075,0.0-16.0-2.0-0.0,36346,List2B,white,man,,,,null,,,,
3672,"<img src=""portrait/BM2.jpg""style=""width:400px;height:400px;""></img>",5,html-button-response,211,1392757,0.0-16.0-4.0,36346,List2B,white,man,,TRUE,5,,,,,
null,CORRECT,,html-keyboard-response,212,1394262,0.0-16.0-5.0-0.0,36346,List2B,white,man,,,,null,,,,
4605,"<img src=""portrait/WM1.jpg""style=""width:400px;height:400px;""></img>",6,html-button-response,213,1398874,0.0-16.0-7.0,36346,List2B,white,man,,TRUE,6,,,,,
null,CORRECT,,html-keyboard-response,214,1400379,0.0-16.0-8.0-0.0,36346,List2B,white,man,,,,null,,,,
4159,"<img src=""portrait/WM2.jpg""style=""width:400px;height:400px;""></img>",7,html-button-response,215,1404543,0.0-16.0-10.0,36346,List2B,white,man,,TRUE,7,,,,,
null,CORRECT,,html-keyboard-response,216,1406048,0.0-16.0-11.0-0.0,36346,List2B,white,man,,,,null,,,,
3758,"<img src=""portrait/WW1.jpg""style=""width:400px;height:400px;""></img>",1,html-button-response,217,1409812,0.0-16.0-13.0,36346,List2B,white,man,,TRUE,1,,,,,
null,CORRECT,,html-keyboard-response,218,1411318,0.0-16.0-14.0-0.0,36346,List2B,white,man,,,,null,,,,
1904,"<img src=""portrait/WW2.jpg""style=""width:400px;height:400px;""></img>",3,html-button-response,219,1413228,0.0-16.0-16.0,36346,List2B,white,man,,TRUE,3,,,,,
null,CORRECT,,html-keyboard-response,220,1414733,0.0-16.0-17.0-0.0,36346,List2B,white,man,,,,null,,,,
4176,"<img src=""portrait/BW1.jpg""style=""width:400px;height:400px;""></img>",0,html-button-response,221,1418915,0.0-16.0-19.0,36346,List2B,white,man,,TRUE,0,,,,,
null,CORRECT,,html-keyboard-response,222,1420420,0.0-16.0-20.0-0.0,36346,List2B,white,man,,,,null,,,,
4993,"<img src=""portrait/BW2.jpg""style=""width:400px;height:400px;""></img>",2,html-button-response,223,1425418,0.0-16.0-22.0,36346,List2B,white,man,,TRUE,2,,,,,
null,CORRECT,,html-keyboard-response,224,1426923,0.0-16.0-23.0-0.0,36346,List2B,white,man,,,,null,,,,
3157,<p>You got 8 out of 8 right first time. Press Continue.</p>,0,html-button-response,225,1430086,0.0-16.0-25.0,36346,List2B,white,man,,,,,,,,
null,"<div style=""font-size:60px;"">+</div>",,html-keyboard-response,226,1431598,0.0-17.0-0.0,36346,List2B,white,man,,,,null,,,,
null,"<img src=""stim_listB/marry5.gif""</stim_listB>",,html-keyboard-response,227,1433603,0.0-17.0-1.0,36346,List2B,white,man,,,,null,,,,
null,is marrying,,html-keyboard-response,228,1435609,0.0-17.0-2.0,36346,List2B,white,man,,,,null,,,,
9317,,,survey-text,229,1444933,0.0-17.0-3.0,36346,List2B,white,man,,,,,"{""Q0"":""dave is marrying fred""}","<img src=""stim_listB/marry5.gif""</stim_listB>",is marrying,
null,"<div style=""font-size:60px;"">+</div>",,html-keyboard-response,230,1445438,0.0-17.0-0.1,36346,List2B,white,man,,,,null,,,,
null,"<img src=""stim_listB/talk5.gif""</stim_listB>",,html-keyboard-response,231,1447443,0.0-17.0-1.1,36346,List2B,white,man,,,,null,,,,
null,is talking to,,html-keyboard-response,232,1449447,0.0-17.0-2.1,36346,List2B,white,man,,,,null,,,,
17069,,,survey-text,233,1466520,0.0-17.0-3.1,36346,List2B,white,man,,,,,"{""Q0"":""this one froze i am sorry""}","<img src=""stim_listB/talk5.gif""</stim_listB>",is talking to,
null,"<div style=""font-size:60px;"">+</div>",,html-keyboard-response,234,1467024,0.0-17.0-0.2,36346,List2B,white,man,,,,null,,,,
null,"<img src=""stim_listB/hug8.gif""</stim_listB>",,html-keyboard-response,235,1469028,0.0-17.0-1.2,36346,List2B,white,man,,,,null,,,,
null,are hugging each other,,html-keyboard-response,236,1471031,0.0-17.0-2.2,36346,List2B,white,man,,,,null,,,,
7781,,,survey-text,237,1478818,0.0-17.0-3.2,36346,List2B,white,man,,,,,"{""Q0"":""jane and kate are hugging eachother""}","<img src=""stim_listB/hug8.gif""</stim_listB>",are hugging each other,
null,"<div style=""font-size:60px;"">+</div>",,html-keyboard-response,238,1479322,0.0-17.0-0.3,36346,List2B,white,man,,,,null,,,,
null,"<img src=""stim_listB/fight8.gif""</stim_listB>",,html-keyboard-response,239,1481327,0.0-17.0-1.3,36346,List2B,white,man,,,,null,,,,
null,are fighting each other,,html-keyboard-response,240,1483331,0.0-17.0-2.3,36346,List2B,white,man,,,,null,,,,
21239,,,survey-text,241,1504575,0.0-17.0-3.3,36346,List2B,white,man,,,,,"{""Q0"":""ruth and beth are fighting eachother ""}","<img src=""stim_listB/fight8.gif""</stim_listB>",are fighting each other,
null,"<div style=""font-size:60px;"">+</div>",,html-keyboard-response,242,1505080,0.0-17.0-0.4,36346,List2B,white,man,,,,null,,,,
null,"<img src=""stim_listB/meet7.gif""</stim_listB>",,html-keyboard-response,243,1507085,0.0-17.0-1.4,36346,List2B,white,man,,,,null,,,,
null,is meeting,,html-keyboard-response,244,1509089,0.0-17.0-2.4,36346,List2B,white,man,,,,null,,,,
37617,,,survey-text,245,1546710,0.0-17.0-3.4,36346,List2B,white,man,,,,,"{""Q0"":""kate is meeting jane""}","<img src=""stim_listB/meet7.gif""</stim_listB>",is meeting,
null,"<div style=""font-size:60px;"">+</div>",,html-keyboard-response,246,1547215,0.0-17.0-0.5,36346,List2B,white,man,,,,null,,,,
null,"<img src=""stim_listB/argue2.gif""</stim_listB>",,html-keyboard-response,247,1549221,0.0-17.0-1.5,36346,List2B,white,man,,,,null,,,,
null,are arguing with each other,,html-keyboard-response,248,1551225,0.0-17.0-2.5,36346,List2B,white,man,,,,null,,,,
11483,,,survey-text,249,1562713,0.0-17.0-3.5,36346,List2B,white,man,,,,,"{""Q0"":""luke and jane are arguing with eachother""}","<img src=""stim_listB/argue2.gif""</stim_listB>",are arguing with each other,
null,"<div style=""font-size:60px;"">+</div>",,html-keyboard-response,250,1563217,0.0-17.0-0.6,36346,List2B,white,man,,,,null,,,,
null,"<img src=""stim_listB/kiss7.gif""</stim_listB>",,html-keyboard-response,251,1565223,0.0-17.0-1.6,36346,List2B,white,man,,,,null,,,,
null,is kissing,,html-keyboard-response,252,1567227,0.0-17.0-2.6,36346,List2B,white,man,,,,null,,,,
7122,,,survey-text,253,1574354,0.0-17.0-3.6,36346,List2B,white,man,,,,,"{""Q0"":""beth is kissing ruth""}","<img src=""stim_listB/kiss7.gif""</stim_listB>",is kissing,
null,"<div style=""font-size:60px;"">+</div>",,html-keyboard-response,254,1574861,0.0-17.0-0.7,36346,List2B,white,man,,,,null,,,,
null,"<img src=""stim_listB/argue3.gif""</stim_listB>",,html-keyboard-response,255,1576866,0.0-17.0-1.7,36346,List2B,white,man,,,,null,,,,
null,is arguing with,,html-keyboard-response,256,1578870,0.0-17.0-2.7,36346,List2B,white,man,,,,null,,,,
49758,,,survey-text,257,1628632,0.0-17.0-3.7,36346,List2B,white,man,,,,,"{""Q0"":""beth is arguing with mike""}","<img src=""stim_listB/argue3.gif""</stim_listB>",is arguing with,
null,"<div style=""font-size:60px;"">+</div>",,html-keyboard-response,258,1629136,0.0-17.0-0.8,36346,List2B,white,man,,,,null,,,,
null,"<img src=""stim_listB/meet6.gif""</stim_listB>",,html-keyboard-response,259,1631154,0.0-17.0-1.8,36346,List2B,white,man,,,,null,,,,
null,are meeting each other,,html-keyboard-response,260,1633158,0.0-17.0-2.8,36346,List2B,white,man,,,,null,,,,
16109,,,survey-text,261,1649272,0.0-17.0-3.8,36346,List2B,white,man,,,,,"{""Q0"":""luke and mike are meeting eachother""}","<img src=""stim_listB/meet6.gif""</stim_listB>",are meeting each other,
null,"<div style=""font-size:60px;"">+</div>",,html-keyboard-response,262,1649778,0.0-17.0-0.9,36346,List2B,white,man,,,,null,,,,
null,"<img src=""stim_listB/dance5.gif""</stim_listB>",,html-keyboard-response,263,1651783,0.0-17.0-1.9,36346,List2B,white,man,,,,null,,,,
null,is dancing with,,html-keyboard-response,264,1653787,0.0-17.0-2.9,36346,List2B,white,man,,,,null,,,,
8975,,,survey-text,265,1662766,0.0-17.0-3.9,36346,List2B,white,man,,,,,"{""Q0"":""luke is dancing with mike""}","<img src=""stim_listB/dance5.gif""</stim_listB>",is dancing with,
null,"<div style=""font-size:60px;"">+</div>",,html-keyboard-response,266,1663270,0.0-17.0-0.10,36346,List2B,white,man,,,,null,,,,
null,"<img src=""stim_listB/dance1.gif""</stim_listB>",,html-keyboard-response,267,1665275,0.0-17.0-1.10,36346,List2B,white,man,,,,null,,,,
null,is dancing with,,html-keyboard-response,268,1667279,0.0-17.0-2.10,36346,List2B,white,man,,,,null,,,,
6249,,,survey-text,269,1673532,0.0-17.0-3.10,36346,List2B,white,man,,,,,"{""Q0"":""jane is dancing with luke""}","<img src=""stim_listB/dance1.gif""</stim_listB>",is dancing with,
null,"<div style=""font-size:60px;"">+</div>",,html-keyboard-response,270,1674036,0.0-17.0-0.11,36346,List2B,white,man,,,,null,,,,
null,"<img src=""stim_listB/hug5.gif""</stim_listB>",,html-keyboard-response,271,1676040,0.0-17.0-1.11,36346,List2B,white,man,,,,null,,,,
null,is hugging,,html-keyboard-response,272,1678045,0.0-17.0-2.11,36346,List2B,white,man,,,,null,,,,
11028,,,survey-text,273,1689076,0.0-17.0-3.11,36346,List2B,white,man,,,,,"{""Q0"":""fred is hugging luke""}","<img src=""stim_listB/hug5.gif""</stim_listB>",is hugging,
null,"<div style=""font-size:60px;"">+</div>",,html-keyboard-response,274,1689582,0.0-17.0-0.12,36346,List2B,white,man,,,,null,,,,
null,"<img src=""stim_listB/touch5.gif""</stim_listB>",,html-keyboard-response,275,1691587,0.0-17.0-1.12,36346,List2B,white,man,,,,null,,,,
null,is touching,,html-keyboard-response,276,1693591,0.0-17.0-2.12,36346,List2B,white,man,,,,null,,,,
24276,,,survey-text,277,1717871,0.0-17.0-3.12,36346,List2B,white,man,,,,,"{""Q0"":""mike is touching dave""}","<img src=""stim_listB/touch5.gif""</stim_listB>",is touching,
null,"<div style=""font-size:60px;"">+</div>",,html-keyboard-response,278,1718375,0.0-17.0-0.13,36346,List2B,white,man,,,,null,,,,
null,"<img src=""stim_listB/marry2.gif""</stim_listB>",,html-keyboard-response,279,1720382,0.0-17.0-1.13,36346,List2B,white,man,,,,null,,,,
null,are marrying each other,,html-keyboard-response,280,1722386,0.0-17.0-2.13,36346,List2B,white,man,,,,null,,,,
6851,,,survey-text,281,1729243,0.0-17.0-3.13,36346,List2B,white,man,,,,,"{""Q0"":""luke and jane are marrying eachother""}","<img src=""stim_listB/marry2.gif""</stim_listB>",are marrying each other,
null,"<div style=""font-size:60px;"">+</div>",,html-keyboard-response,282,1729747,0.0-17.0-0.14,36346,List2B,white,man,,,,null,,,,
null,"<img src=""stim_listB/shout3.gif""</stim_listB>",,html-keyboard-response,283,1731754,0.0-17.0-1.14,36346,List2B,white,man,,,,null,,,,
null,is shouting at,,html-keyboard-response,284,1733757,0.0-17.0-2.14,36346,List2B,white,man,,,,null,,,,
6530,,,survey-text,285,1740291,0.0-17.0-3.14,36346,List2B,white,man,,,,,"{""Q0"":""fred is shouting at beth""}","<img src=""stim_listB/shout3.gif""</stim_listB>",is shouting at,
null,"<div style=""font-size:60px;"">+</div>",,html-keyboard-response,286,1740795,0.0-17.0-0.15,36346,List2B,white,man,,,,null,,,,
null,"<img src=""stim_listB/argue6.gif""</stim_listB>",,html-keyboard-response,287,1742800,0.0-17.0-1.15,36346,List2B,white,man,,,,null,,,,
null,are arguing with each other,,html-keyboard-response,288,1744804,0.0-17.0-2.15,36346,List2B,white,man,,,,null,,,,
8562,,,survey-text,289,1753369,0.0-17.0-3.15,36346,List2B,white,man,,,,,"{""Q0"":""mike and luke are arguing with eachother ""}","<img src=""stim_listB/argue6.gif""</stim_listB>",are arguing with each other,
null,"<div style=""font-size:60px;"">+</div>",,html-keyboard-response,290,1753873,0.0-17.0-0.16,36346,List2B,white,man,,,,null,,,,
null,"<img src=""stim_listB/fight3.gif""</stim_listB>",,html-keyboard-response,291,1755878,0.0-17.0-1.16,36346,List2B,white,man,,,,null,,,,
null,is fighting,,html-keyboard-response,292,1757882,0.0-17.0-2.16,36346,List2B,white,man,,,,null,,,,
6010,,,survey-text,293,1763896,0.0-17.0-3.16,36346,List2B,white,man,,,,,"{""Q0"":""kate is fighting mike ""}","<img src=""stim_listB/fight3.gif""</stim_listB>",is fighting,
null,"<div style=""font-size:60px;"">+</div>",,html-keyboard-response,294,1764400,0.0-17.0-0.17,36346,List2B,white,man,,,,null,,,,
null,"<img src=""stim_listB/hug1.gif""</stim_listB>",,html-keyboard-response,295,1766405,0.0-17.0-1.17,36346,List2B,white,man,,,,null,,,,
null,is hugging,,html-keyboard-response,296,1768409,0.0-17.0-2.17,36346,List2B,white,man,,,,null,,,,
9952,,,survey-text,297,1778366,0.0-17.0-3.17,36346,List2B,white,man,,,,,"{""Q0"":""luke is hugging ruth ""}","<img src=""stim_listB/hug1.gif""</stim_listB>",is hugging,
null,"<div style=""font-size:60px;"">+</div>",,html-keyboard-response,298,1778870,0.0-17.0-0.18,36346,List2B,white,man,,,,null,,,,
null,"<img src=""stim_listB/meet4.gif""</stim_listB>",,html-keyboard-response,299,1780875,0.0-17.0-1.18,36346,List2B,white,man,,,,null,,,,
null,are meeting each other,,html-keyboard-response,300,1782880,0.0-17.0-2.18,36346,List2B,white,man,,,,null,,,,
8203,,,survey-text,301,1791088,0.0-17.0-3.18,36346,List2B,white,man,,,,,"{""Q0"":""beth and fred are meeting eachother""}","<img src=""stim_listB/meet4.gif""</stim_listB>",are meeting each other,
null,"<div style=""font-size:60px;"">+</div>",,html-keyboard-response,302,1791591,0.0-17.0-0.19,36346,List2B,white,man,,,,null,,,,
null,"<img src=""stim_listB/dance2.gif""</stim_listB>",,html-keyboard-response,303,1793595,0.0-17.0-1.19,36346,List2B,white,man,,,,null,,,,
null,are dancing with each other,,html-keyboard-response,304,1795599,0.0-17.0-2.19,36346,List2B,white,man,,,,null,,,,
11361,,,survey-text,305,1806964,0.0-17.0-3.19,36346,List2B,white,man,,,,,"{""Q0"":""dave and ruth are dancing with eachother""}","<img src=""stim_listB/dance2.gif""</stim_listB>",are dancing with each other,
43453,"<img src='img/portrait_matrix_list2.JPG' style='width:900px;height:500px;''></img><p>If you have memorised all the portraits and names and are ready to start, press Continue.</p><p><strong>Please note: Your memory of these faces will be tested 4 times during this experiment.</strong></p>",0,html-button-response,306,1850431,0.0-18.0-0.0,36346,List2B,white,man,,,,,,,,
3196,"<img src=""portrait/BM2.jpg""style=""width:400px;height:400px;""></img>",5,html-button-response,307,1854635,0.0-18.0-1.0,36346,List2B,white,man,,TRUE,5,,,,,
null,CORRECT,,html-keyboard-response,308,1856140,0.0-18.0-2.0-0.0,36346,List2B,white,man,,,,null,,,,
2056,"<img src=""portrait/BM1.jpg""style=""width:400px;height:400px;""></img>",4,html-button-response,309,1858201,0.0-18.0-4.0,36346,List2B,white,man,,TRUE,4,,,,,
null,CORRECT,,html-keyboard-response,310,1859706,0.0-18.0-5.0-0.0,36346,List2B,white,man,,,,null,,,,
6427,"<img src=""portrait/BW1.jpg""style=""width:400px;height:400px;""></img>",0,html-button-response,311,1866140,0.0-18.0-7.0,36346,List2B,white,man,,TRUE,0,,,,,
null,CORRECT,,html-keyboard-response,312,1867644,0.0-18.0-8.0-0.0,36346,List2B,white,man,,,,null,,,,
1760,"<img src=""portrait/WM2.jpg""style=""width:400px;height:400px;""></img>",7,html-button-response,313,1869410,0.0-18.0-10.0,36346,List2B,white,man,,TRUE,7,,,,,
null,CORRECT,,html-keyboard-response,314,1870915,0.0-18.0-11.0-0.0,36346,List2B,white,man,,,,null,,,,
2374,"<img src=""portrait/WW1.jpg""style=""width:400px;height:400px;""></img>",1,html-button-response,315,1873294,0.0-18.0-13.0,36346,List2B,white,man,,TRUE,1,,,,,
null,CORRECT,,html-keyboard-response,316,1874798,0.0-18.0-14.0-0.0,36346,List2B,white,man,,,,null,,,,
1725,"<img src=""portrait/WW2.jpg""style=""width:400px;height:400px;""></img>",3,html-button-response,317,1876529,0.0-18.0-16.0,36346,List2B,white,man,,TRUE,3,,,,,
null,CORRECT,,html-keyboard-response,318,1878033,0.0-18.0-17.0-0.0,36346,List2B,white,man,,,,null,,,,
3925,"<img src=""portrait/BW2.jpg""style=""width:400px;height:400px;""></img>",2,html-button-response,319,1881963,0.0-18.0-19.0,36346,List2B,white,man,,TRUE,2,,,,,
null,CORRECT,,html-keyboard-response,320,1883468,0.0-18.0-20.0-0.0,36346,List2B,white,man,,,,null,,,,
1994,"<img src=""portrait/WM1.jpg""style=""width:400px;height:400px;""></img>",6,html-button-response,321,1885466,0.0-18.0-22.0,36346,List2B,white,man,,TRUE,6,,,,,
null,CORRECT,,html-keyboard-response,322,1886971,0.0-18.0-23.0-0.0,36346,List2B,white,man,,,,null,,,,
1506,<p>You got 8 out of 8 right first time. Press Continue.</p>,0,html-button-response,323,1888482,0.0-18.0-25.0,36346,List2B,white,man,,,,,,,,
null,"<div style=""font-size:60px;"">+</div>",,html-keyboard-response,324,1889990,0.0-19.0-0.0,36346,List2B,white,man,,,,null,,,,
null,"<img src=""stim_listB/touch1.gif""</stim_listB>",,html-keyboard-response,325,1891996,0.0-19.0-1.0,36346,List2B,white,man,,,,null,,,,
null,is touching,,html-keyboard-response,326,1894000,0.0-19.0-2.0,36346,List2B,white,man,,,,null,,,,
5725,,,survey-text,327,1899729,0.0-19.0-3.0,36346,List2B,white,man,,,,,"{""Q0"":""dave is touching jane""}","<img src=""stim_listB/touch1.gif""</stim_listB>",is touching,
null,"<div style=""font-size:60px;"">+</div>",,html-keyboard-response,328,1900233,0.0-19.0-0.1,36346,List2B,white,man,,,,null,,,,
null,"<img src=""stim_listB/shout5.gif""</stim_listB>",,html-keyboard-response,329,1902238,0.0-19.0-1.1,36346,List2B,white,man,,,,null,,,,
null,is shouting at,,html-keyboard-response,330,1904241,0.0-19.0-2.1,36346,List2B,white,man,,,,null,,,,
11881,,,survey-text,331,1916126,0.0-19.0-3.1,36346,List2B,white,man,,,,,"{""Q0"":""luke is shouting at fred""}","<img src=""stim_listB/shout5.gif""</stim_listB>",is shouting at,
null,"<div style=""font-size:60px;"">+</div>",,html-keyboard-response,332,1916630,0.0-19.0-0.2,36346,List2B,white,man,,,,null,,,,
null,"<img src=""stim_listB/hug7.gif""</stim_listB>",,html-keyboard-response,333,1918633,0.0-19.0-1.2,36346,List2B,white,man,,,,null,,,,
null,is hugging,,html-keyboard-response,334,1920637,0.0-19.0-2.2,36346,List2B,white,man,,,,null,,,,
6055,,,survey-text,335,1926696,0.0-19.0-3.2,36346,List2B,white,man,,,,,"{""Q0"":""ruth is hugging beth""}","<img src=""stim_listB/hug7.gif""</stim_listB>",is hugging,
null,"<div style=""font-size:60px;"">+</div>",,html-keyboard-response,336,1927199,0.0-19.0-0.3,36346,List2B,white,man,,,,null,,,,
null,"<img src=""stim_listB/shout6.gif""</stim_listB>",,html-keyboard-response,337,1929206,0.0-19.0-1.3,36346,List2B,white,man,,,,null,,,,
null,are shouting at each other,,html-keyboard-response,338,1931209,0.0-19.0-2.3,36346,List2B,white,man,,,,null,,,,
10630,,,survey-text,339,1941861,0.0-19.0-3.3,36346,List2B,white,man,,,,,"{""Q0"":""dave is shouting at mike""}","<img src=""stim_listB/shout6.gif""</stim_listB>",are shouting at each other,
null,"<div style=""font-size:60px;"">+</div>",,html-keyboard-response,340,1942368,0.0-19.0-0.4,36346,List2B,white,man,,,,null,,,,
null,"<img src=""stim_listB/argue4.gif""</stim_listB>",,html-keyboard-response,341,1944373,0.0-19.0-1.4,36346,List2B,white,man,,,,null,,,,
null,are arguing with each other,,html-keyboard-response,342,1946376,0.0-19.0-2.4,36346,List2B,white,man,,,,null,,,,
8826,,,survey-text,343,1955205,0.0-19.0-3.4,36346,List2B,white,man,,,,,"{""Q0"":""kate and fred are arguing with eachother""}","<img src=""stim_listB/argue4.gif""</stim_listB>",are arguing with each other,
null,"<div style=""font-size:60px;"">+</div>",,html-keyboard-response,344,1955710,0.0-19.0-0.5,36346,List2B,white,man,,,,null,,,,
null,"<img src=""stim_listB/touch2.gif""</stim_listB>",,html-keyboard-response,345,1957714,0.0-19.0-1.5,36346,List2B,white,man,,,,null,,,,
null,are touching each other,,html-keyboard-response,346,1959717,0.0-19.0-2.5,36346,List2B,white,man,,,,null,,,,
6758,,,survey-text,347,1966480,0.0-19.0-3.5,36346,List2B,white,man,,,,,"{""Q0"":""luke and ruth are touching eachother""}","<img src=""stim_listB/touch2.gif""</stim_listB>",are touching each other,
null,"<div style=""font-size:60px;"">+</div>",,html-keyboard-response,348,1966984,0.0-19.0-0.6,36346,List2B,white,man,,,,null,,,,
null,"<img src=""stim_listB/hug6.gif""</stim_listB>",,html-keyboard-response,349,1968989,0.0-19.0-1.6,36346,List2B,white,man,,,,null,,,,
null,are hugging each other,,html-keyboard-response,350,1970993,0.0-19.0-2.6,36346,List2B,white,man,,,,null,,,,
6769,,,survey-text,351,1977765,0.0-19.0-3.6,36346,List2B,white,man,,,,,"{""Q0"":""mike and dave are hugging eachother""}","<img src=""stim_listB/hug6.gif""</stim_listB>",are hugging each other,
null,"<div style=""font-size:60px;"">+</div>",,html-keyboard-response,352,1978269,0.0-19.0-0.7,36346,List2B,white,man,,,,null,,,,
null,"<img src=""stim_listB/fight5.gif""</stim_listB>",,html-keyboard-response,353,1980273,0.0-19.0-1.7,36346,List2B,white,man,,,,null,,,,
null,is fighting,,html-keyboard-response,354,1982277,0.0-19.0-2.7,36346,List2B,white,man,,,,null,,,,
4751,,,survey-text,355,1987031,0.0-19.0-3.7,36346,List2B,white,man,,,,,"{""Q0"":""mike is fighting dave""}","<img src=""stim_listB/fight5.gif""</stim_listB>",is fighting,
null,"<div style=""font-size:60px;"">+</div>",,html-keyboard-response,356,1987534,0.0-19.0-0.8,36346,List2B,white,man,,,,null,,,,
null,"<img src=""stim_listB/kiss6.gif""</stim_listB>",,html-keyboard-response,357,1989540,0.0-19.0-1.8,36346,List2B,white,man,,,,null,,,,
null,are kissing each other,,html-keyboard-response,358,1991544,0.0-19.0-2.8,36346,List2B,white,man,,,,null,,,,
6124,,,survey-text,359,1997671,0.0-19.0-3.8,36346,List2B,white,man,,,,,"{""Q0"":""mike and dave are kissing eachother""}","<img src=""stim_listB/kiss6.gif""</stim_listB>",are kissing each other,
null,"<div style=""font-size:60px;"">+</div>",,html-keyboard-response,360,1998175,0.0-19.0-0.9,36346,List2B,white,man,,,,null,,,,
null,"<img src=""stim_listB/meet1.gif""</stim_listB>",,html-keyboard-response,361,2000181,0.0-19.0-1.9,36346,List2B,white,man,,,,null,,,,
null,is meeting,,html-keyboard-response,362,2002185,0.0-19.0-2.9,36346,List2B,white,man,,,,null,,,,
4898,,,survey-text,363,2007087,0.0-19.0-3.9,36346,List2B,white,man,,,,,"{""Q0"":""dave is meeting jane""}","<img src=""stim_listB/meet1.gif""</stim_listB>",is meeting,
null,"<div style=""font-size:60px;"">+</div>",,html-keyboard-response,364,2007590,0.0-19.0-0.10,36346,List2B,white,man,,,,null,,,,
null,"<img src=""stim_listB/kiss2.gif""</stim_listB>",,html-keyboard-response,365,2009595,0.0-19.0-1.10,36346,List2B,white,man,,,,null,,,,
null,are kissing each other,,html-keyboard-response,366,2011599,0.0-19.0-2.10,36346,List2B,white,man,,,,null,,,,
62138,,,survey-text,367,2073740,0.0-19.0-3.10,36346,List2B,white,man,,,,,"{""Q0"":""dave and jane are kissing eachother ""}","<img src=""stim_listB/kiss2.gif""</stim_listB>",are kissing each other,
null,"<div style=""font-size:60px;"">+</div>",,html-keyboard-response,368,2074245,0.0-19.0-0.11,36346,List2B,white,man,,,,null,,,,
null,"<img src=""stim_listB/dance8.gif""</stim_listB>",,html-keyboard-response,369,2076250,0.0-19.0-1.11,36346,List2B,white,man,,,,null,,,,
null,are dancing with each other,,html-keyboard-response,370,2078254,0.0-19.0-2.11,36346,List2B,white,man,,,,null,,,,
9572,,,survey-text,371,2087830,0.0-19.0-3.11,36346,List2B,white,man,,,,,"{""Q0"":""beth and jane are dancing with eachother ""}","<img src=""stim_listB/dance8.gif""</stim_listB>",are dancing with each other,
null,"<div style=""font-size:60px;"">+</div>",,html-keyboard-response,372,2088334,0.0-19.0-0.12,36346,List2B,white,man,,,,null,,,,
null,"<img src=""stim_listB/hug2.gif""</stim_listB>",,html-keyboard-response,373,2090340,0.0-19.0-1.12,36346,List2B,white,man,,,,null,,,,
null,are hugging each other,,html-keyboard-response,374,2092344,0.0-19.0-2.12,36346,List2B,white,man,,,,null,,,,
6755,,,survey-text,375,2099103,0.0-19.0-3.12,36346,List2B,white,man,,,,,"{""Q0"":""jane and dave are hugging eachother""}","<img src=""stim_listB/hug2.gif""</stim_listB>",are hugging each other,
null,"<div style=""font-size:60px;"">+</div>",,html-keyboard-response,376,2099608,0.0-19.0-0.13,36346,List2B,white,man,,,,null,,,,
null,"<img src=""stim_listB/marry7.gif""</stim_listB>",,html-keyboard-response,377,2101613,0.0-19.0-1.13,36346,List2B,white,man,,,,null,,,,
null,is marrying,,html-keyboard-response,378,2103615,0.0-19.0-2.13,36346,List2B,white,man,,,,null,,,,
5264,,,survey-text,379,2108883,0.0-19.0-3.13,36346,List2B,white,man,,,,,"{""Q0"":""beth is marrying jane""}","<img src=""stim_listB/marry7.gif""</stim_listB>",is marrying,
null,"<div style=""font-size:60px;"">+</div>",,html-keyboard-response,380,2109386,0.0-19.0-0.14,36346,List2B,white,man,,,,null,,,,
null,"<img src=""stim_listB/marry6.gif""</stim_listB>",,html-keyboard-response,381,2111392,0.0-19.0-1.14,36346,List2B,white,man,,,,null,,,,
null,are marrying each other,,html-keyboard-response,382,2113396,0.0-19.0-2.14,36346,List2B,white,man,,,,null,,,,
9282,,,survey-text,383,2122681,0.0-19.0-3.14,36346,List2B,white,man,,,,,"{""Q0"":""luke and mike are marrying eachother""}","<img src=""stim_listB/marry6.gif""</stim_listB>",are marrying each other,
null,"<div style=""font-size:60px;"">+</div>",,html-keyboard-response,384,2123185,0.0-19.0-0.15,36346,List2B,white,man,,,,null,,,,
null,"<img src=""stim_listB/shout8.gif""</stim_listB>",,html-keyboard-response,385,2125190,0.0-19.0-1.15,36346,List2B,white,man,,,,null,,,,
null,are shouting at each other,,html-keyboard-response,386,2127194,0.0-19.0-2.15,36346,List2B,white,man,,,,null,,,,
8726,,,survey-text,387,2135923,0.0-19.0-3.15,36346,List2B,white,man,,,,,"{""Q0"":""kate and jane are shouting at eachother ""}","<img src=""stim_listB/shout8.gif""</stim_listB>",are shouting at each other,
null,"<div style=""font-size:60px;"">+</div>",,html-keyboard-response,388,2136427,0.0-19.0-0.16,36346,List2B,white,man,,,,null,,,,
null,"<img src=""stim_listB/argue1.gif""</stim_listB>",,html-keyboard-response,389,2138431,0.0-19.0-1.16,36346,List2B,white,man,,,,null,,,,
null,is arguing with,,html-keyboard-response,390,2140433,0.0-19.0-2.16,36346,List2B,white,man,,,,null,,,,
11577,,,survey-text,391,2152013,0.0-19.0-3.16,36346,List2B,white,man,,,,,"{""Q0"":""this one froze too i am sorry""}","<img src=""stim_listB/argue1.gif""</stim_listB>",is arguing with,
null,"<div style=""font-size:60px;"">+</div>",,html-keyboard-response,392,2152517,0.0-19.0-0.17,36346,List2B,white,man,,,,null,,,,
null,"<img src=""stim_listB/meet8.gif""</stim_listB>",,html-keyboard-response,393,2154522,0.0-19.0-1.17,36346,List2B,white,man,,,,null,,,,
null,are meeting each other,,html-keyboard-response,394,2156526,0.0-19.0-2.17,36346,List2B,white,man,,,,null,,,,
9905,,,survey-text,395,2166434,0.0-19.0-3.17,36346,List2B,white,man,,,,,"{""Q0"":""ruth and beth are meeting eachother ""}","<img src=""stim_listB/meet8.gif""</stim_listB>",are meeting each other,
null,"<div style=""font-size:60px;"">+</div>",,html-keyboard-response,396,2166945,0.0-19.0-0.18,36346,List2B,white,man,,,,null,,,,
null,"<img src=""stim_listB/kiss4.gif""</stim_listB>",,html-keyboard-response,397,2168949,0.0-19.0-1.18,36346,List2B,white,man,,,,null,,,,
null,are kissing each other,,html-keyboard-response,398,2170954,0.0-19.0-2.18,36346,List2B,white,man,,,,null,,,,
10220,,,survey-text,399,2181177,0.0-19.0-3.18,36346,List2B,white,man,,,,,"{""Q0"":""kate and mike are kissing eachother""}","<img src=""stim_listB/kiss4.gif""</stim_listB>",are kissing each other,
null,"<div style=""font-size:60px;"">+</div>",,html-keyboard-response,400,2181683,0.0-19.0-0.19,36346,List2B,white,man,,,,null,,,,
null,"<img src=""stim_listB/talk2.gif""</stim_listB>",,html-keyboard-response,401,2183687,0.0-19.0-1.19,36346,List2B,white,man,,,,null,,,,
null,are talking to each other,,html-keyboard-response,402,2185690,0.0-19.0-2.19,36346,List2B,white,man,,,,null,,,,
7189,,,survey-text,403,2192882,0.0-19.0-3.19,36346,List2B,white,man,,,,,"{""Q0"":""ruth and dave are talking to eachother""}","<img src=""stim_listB/talk2.gif""</stim_listB>",are talking to each other,
2225,<p>Thank you for completing that task.</p><p>The final part of this session is a short questionnaire.</p><p>Press Continue.</p>,0,html-button-response,404,2195111,0.0-20.0,36346,List2B,white,man,,,,,,,,
22708,,,survey-text,405,2218828,0.0-21.0,36346,List2B,white,man,,,,,"{""Q0"":""18"",""Q1"":""English"",""Q2"":""English"",""Q3"":""England"",""Q4"":""White British"",""Q5"":""Male""}",,,demographics
51851,,,survey-likert,406,2270726,0.0-22.0,36346,List2B,white,man,,,,,"{""Q0"":4,""Q1"":5,""Q2"":5,""Q3"":5,""Q4"":1,""Q5"":5,""Q6"":5,""Q7"":3,""Q8"":5,""Q9"":4,""Q10"":2,""Q11"":1,""Q12"":3,""Q13"":3}",,,likert_race
40696,,,survey-likert,407,2311444,0.0-23.0,36346,List2B,white,man,,,,,"{""Q0"":5,""Q1"":3,""Q2"":4,""Q3"":5,""Q4"":1,""Q5"":5,""Q6"":3,""Q7"":3,""Q8"":5,""Q9"":5,""Q10"":1,""Q11"":1,""Q12"":1,""Q13"":1}",,,likert_gender
25778,,,survey-text,408,2337231,0.0-24.0,36346,List2B,white,man,,,,,"{""Q0"":""ccc""}",,,worker_id
40430,,,external-html,409,2377944,0.0-25.0,36346,List2B,white,man,debrief.html,,,,,,,
