rt,stimulus,button_pressed,trial_type,trial_index,time_elapsed,internal_node_id,subject,list,ppt_race,ppt_gender,url,first_guess,correct,key_press,responses,image_type,phrase_type,test_part
6766,Welcome to the experiment. Press Continue to begin.,0,html-button-response,0,6773,0.0-0.0,37929,List1B,white,man,,,,,,,,
29601,,,external-html,1,37630,0.0-1.0,37929,List1B,white,man,consent.html,,,,,,,
22189,"<p>On the next page, you will see portraits of 8 people and their names.</p><p>Your first task is to take a few minutes to memorise the names of these people.</p><p>You will have to recall their names during the rest of the experiment, so it is</p><p>essential that you try to memorise these people and their names as best as you can.</p><br><p><strong>You will then be tested on your memory of these names and portraits.</strong></p><br><p>The experiment will start after you have completed this memory test.</p><br><p>Ready?</p>",0,html-button-response,2,59823,0.0-2.0,37929,List1B,white,man,,,,,,,,
66155,"<img src='img/portrait_matrix_list1.JPG' style='width:900px;height:500px;''></img><p>If you have memorised all the portraits and names and are ready to start, press Continue.</p><p><strong>Please note: Your memory of these faces will be tested 4 times during this experiment.</strong></p>",0,html-button-response,3,126982,0.0-3.0-0.0,37929,List1B,white,man,,,,,,,,
13022,"<img src=""portrait/BW1.jpg""style=""width:400px;height:400px;""></img>",0,html-button-response,4,141009,0.0-3.0-1.0,37929,List1B,white,man,,TRUE,0,,,,,
null,CORRECT,,html-keyboard-response,5,142516,0.0-3.0-2.0-0.0,37929,List1B,white,man,,,,null,,,,
2446,"<img src=""portrait/WW2.jpg""style=""width:400px;height:400px;""></img>",3,html-button-response,6,144967,0.0-3.0-4.0,37929,List1B,white,man,,TRUE,3,,,,,
null,CORRECT,,html-keyboard-response,7,146471,0.0-3.0-5.0-0.0,37929,List1B,white,man,,,,null,,,,
2045,"<img src=""portrait/WM2.jpg""style=""width:400px;height:400px;""></img>",7,html-button-response,8,148520,0.0-3.0-7.0,37929,List1B,white,man,,TRUE,7,,,,,
null,CORRECT,,html-keyboard-response,9,150023,0.0-3.0-8.0-0.0,37929,List1B,white,man,,,,null,,,,
6387,"<img src=""portrait/WW1.jpg""style=""width:400px;height:400px;""></img>",1,html-button-response,10,156414,0.0-3.0-10.0,37929,List1B,white,man,,TRUE,1,,,,,
null,CORRECT,,html-keyboard-response,11,157918,0.0-3.0-11.0-0.0,37929,List1B,white,man,,,,null,,,,
3238,"<img src=""portrait/BM1.jpg""style=""width:400px;height:400px;""></img>",4,html-button-response,12,161160,0.0-3.0-13.0,37929,List1B,white,man,,TRUE,4,,,,,
null,CORRECT,,html-keyboard-response,13,162663,0.0-3.0-14.0-0.0,37929,List1B,white,man,,,,null,,,,
2242,"<img src=""portrait/BW2.jpg""style=""width:400px;height:400px;""></img>",2,html-button-response,14,164910,0.0-3.0-16.0,37929,List1B,white,man,,TRUE,2,,,,,
null,CORRECT,,html-keyboard-response,15,166413,0.0-3.0-17.0-0.0,37929,List1B,white,man,,,,null,,,,
4265,"<img src=""portrait/BM2.jpg""style=""width:400px;height:400px;""></img>",5,html-button-response,16,170683,0.0-3.0-19.0,37929,List1B,white,man,,TRUE,5,,,,,
null,CORRECT,,html-keyboard-response,17,172191,0.0-3.0-20.0-0.0,37929,List1B,white,man,,,,null,,,,
4211,"<img src=""portrait/WM1.jpg""style=""width:400px;height:400px;""></img>",6,html-button-response,18,176407,0.0-3.0-22.0,37929,List1B,white,man,,TRUE,6,,,,,
null,CORRECT,,html-keyboard-response,19,177910,0.0-3.0-23.0-0.0,37929,List1B,white,man,,,,null,,,,
2525,<p>You got 8 out of 8 right first time. Press Continue.</p>,0,html-button-response,20,180439,0.0-3.0-25.0,37929,List1B,white,man,,,,,,,,
51317,"<p>In this experiment, you will view photographs of the people from the memory game interacting.</p><p>By using the <strong>exact</strong> phrase given <i>after</i> the photograph appears and recalling the correct names of the people in the photographs, form a sentence describing the interaction. You do not need to capitalise names.</p><p>Type your answer in the space provided. Please complete every sentence before moving onto the next trial.</p><p>You will only have a few seconds to memorise each given photograph and phrase before you can respond, so try your best to focus.</p><p>An example is given below. Press 'Continue' when you are ready.</p><img src='img/speaking_example_v2.jpg' style='width:800px;height:460px;''></img>",0,html-button-response,21,232763,0.0-4.0,37929,List1B,white,man,,,,,,,,
3731,"<p>Before the experiment starts, you will watch two example trials. Press 'Continue'.</p>",0,html-button-response,22,237497,0.0-5.0,37929,List1B,white,man,,,,,,,,
null,<img src='img/speaking_WW.gif'></img>,,html-keyboard-response,23,240500,0.0-6.0,37929,List1B,white,man,,,,null,,,,
null,<p>is speaking to</p>,,html-keyboard-response,24,242502,0.0-7.0,37929,List1B,white,man,,,,null,,,,
3582,<p><b>Answer:</b> kate is speaking to beth</p>,0,html-button-response,25,246087,0.0-8.0,37929,List1B,white,man,,,,,,,,
null,<img src='img/pointing_BM.gif'></img>,,html-keyboard-response,26,249090,0.0-9.0,37929,List1B,white,man,,,,null,,,,
null,<p>are pointing at each other</p>,,html-keyboard-response,27,251093,0.0-10.0,37929,List1B,white,man,,,,null,,,,
4265,<p><b>Answer:</b> luke and dave are pointing at each other</p>,0,html-button-response,28,255361,0.0-11.0,37929,List1B,white,man,,,,,,,,
13930,"<p>Ready to start the experiment?</p><br><p><strong>Remember to describe the picture using a full sentence,</strong></p><p><strong>that combines the names of the people with the given phrase.</strong></p><p><strong>If you do not do this correctly you will not be paid.</strong></p><p><strong> You do not need to capitalise names or use punctuation.</strong></p><br><p>Press 'Continue' to begin.</p>",0,html-button-response,29,270294,0.0-12.0,37929,List1B,white,man,,,,,,,,
null,"<div style=""font-size:60px;"">+</div>",,html-keyboard-response,30,271798,0.0-13.0-0.0,37929,List1B,white,man,,,,null,,,,
null,"<img src=""stim_listB/argue3.gif""</stim_listB>",,html-keyboard-response,31,273802,0.0-13.0-1.0,37929,List1B,white,man,,,,null,,,,
null,is arguing with,,html-keyboard-response,32,275804,0.0-13.0-2.0,37929,List1B,white,man,,,,null,,,,
15039,,,survey-text,33,290848,0.0-13.0-3.0,37929,List1B,white,man,,,,,"{""Q0"":""Dave is arguing with Ruth""}","<img src=""stim_listB/argue3.gif""</stim_listB>",is arguing with,
null,"<div style=""font-size:60px;"">+</div>",,html-keyboard-response,34,291352,0.0-13.0-0.1,37929,List1B,white,man,,,,null,,,,
null,"<img src=""stim_listB/shout5.gif""</stim_listB>",,html-keyboard-response,35,293355,0.0-13.0-1.1,37929,List1B,white,man,,,,null,,,,
null,is shouting at,,html-keyboard-response,36,295358,0.0-13.0-2.1,37929,List1B,white,man,,,,null,,,,
13349,,,survey-text,37,308711,0.0-13.0-3.1,37929,List1B,white,man,,,,,"{""Q0"":""Fred is arguing with Luke""}","<img src=""stim_listB/shout5.gif""</stim_listB>",is shouting at,
null,"<div style=""font-size:60px;"">+</div>",,html-keyboard-response,38,309215,0.0-13.0-0.2,37929,List1B,white,man,,,,null,,,,
null,"<img src=""stim_listB/hug3.gif""</stim_listB>",,html-keyboard-response,39,311218,0.0-13.0-1.2,37929,List1B,white,man,,,,null,,,,
null,is hugging,,html-keyboard-response,40,313221,0.0-13.0-2.2,37929,List1B,white,man,,,,null,,,,
7633,,,survey-text,41,320857,0.0-13.0-3.2,37929,List1B,white,man,,,,,"{""Q0"":""Ruth is hugging Luke""}","<img src=""stim_listB/hug3.gif""</stim_listB>",is hugging,
null,"<div style=""font-size:60px;"">+</div>",,html-keyboard-response,42,321360,0.0-13.0-0.3,37929,List1B,white,man,,,,null,,,,
null,"<img src=""stim_listB/kiss4.gif""</stim_listB>",,html-keyboard-response,43,323363,0.0-13.0-1.3,37929,List1B,white,man,,,,null,,,,
null,are kissing each other,,html-keyboard-response,44,325366,0.0-13.0-2.3,37929,List1B,white,man,,,,null,,,,
14132,,,survey-text,45,339502,0.0-13.0-3.3,37929,List1B,white,man,,,,,"{""Q0"":""Dave and Jane are kissing each other""}","<img src=""stim_listB/kiss4.gif""</stim_listB>",are kissing each other,
null,"<div style=""font-size:60px;"">+</div>",,html-keyboard-response,46,340005,0.0-13.0-0.4,37929,List1B,white,man,,,,null,,,,
null,"<img src=""stim_listB/argue2.gif""</stim_listB>",,html-keyboard-response,47,342009,0.0-13.0-1.4,37929,List1B,white,man,,,,null,,,,
null,are arguing with each other,,html-keyboard-response,48,344011,0.0-13.0-2.4,37929,List1B,white,man,,,,null,,,,
22539,,,survey-text,49,366553,0.0-13.0-3.4,37929,List1B,white,man,,,,,"{""Q0"":""Fred and Kate are arguing with each other""}","<img src=""stim_listB/argue2.gif""</stim_listB>",are arguing with each other,
null,"<div style=""font-size:60px;"">+</div>",,html-keyboard-response,50,367057,0.0-13.0-0.5,37929,List1B,white,man,,,,null,,,,
null,"<img src=""stim_listB/talk6.gif""</stim_listB>",,html-keyboard-response,51,369060,0.0-13.0-1.5,37929,List1B,white,man,,,,null,,,,
null,are talking to each other,,html-keyboard-response,52,371063,0.0-13.0-2.5,37929,List1B,white,man,,,,null,,,,
14127,,,survey-text,53,385193,0.0-13.0-3.5,37929,List1B,white,man,,,,,"{""Q0"":""Luke and Mike are talking to each other""}","<img src=""stim_listB/talk6.gif""</stim_listB>",are talking to each other,
null,"<div style=""font-size:60px;"">+</div>",,html-keyboard-response,54,385696,0.0-13.0-0.6,37929,List1B,white,man,,,,null,,,,
null,"<img src=""stim_listB/marry7.gif""</stim_listB>",,html-keyboard-response,55,387700,0.0-13.0-1.6,37929,List1B,white,man,,,,null,,,,
null,is marrying,,html-keyboard-response,56,389702,0.0-13.0-2.6,37929,List1B,white,man,,,,null,,,,
18881,,,survey-text,57,408586,0.0-13.0-3.6,37929,List1B,white,man,,,,,"{""Q0"":""Kate is marrying Ruth""}","<img src=""stim_listB/marry7.gif""</stim_listB>",is marrying,
null,"<div style=""font-size:60px;"">+</div>",,html-keyboard-response,58,409090,0.0-13.0-0.7,37929,List1B,white,man,,,,null,,,,
null,"<img src=""stim_listB/touch3.gif""</stim_listB>",,html-keyboard-response,59,411093,0.0-13.0-1.7,37929,List1B,white,man,,,,null,,,,
null,is touching,,html-keyboard-response,60,413096,0.0-13.0-2.7,37929,List1B,white,man,,,,null,,,,
8673,,,survey-text,61,421773,0.0-13.0-3.7,37929,List1B,white,man,,,,,"{""Q0"":""Jane is touching Dave""}","<img src=""stim_listB/touch3.gif""</stim_listB>",is touching,
null,"<div style=""font-size:60px;"">+</div>",,html-keyboard-response,62,422277,0.0-13.0-0.8,37929,List1B,white,man,,,,null,,,,
null,"<img src=""stim_listB/kiss5.gif""</stim_listB>",,html-keyboard-response,63,424280,0.0-13.0-1.8,37929,List1B,white,man,,,,null,,,,
null,is kissing,,html-keyboard-response,64,426283,0.0-13.0-2.8,37929,List1B,white,man,,,,null,,,,
8404,,,survey-text,65,434689,0.0-13.0-3.8,37929,List1B,white,man,,,,,"{""Q0"":""Fred is kissing Luke""}","<img src=""stim_listB/kiss5.gif""</stim_listB>",is kissing,
null,"<div style=""font-size:60px;"">+</div>",,html-keyboard-response,66,435197,0.0-13.0-0.9,37929,List1B,white,man,,,,null,,,,
null,"<img src=""stim_listB/talk8.gif""</stim_listB>",,html-keyboard-response,67,437201,0.0-13.0-1.9,37929,List1B,white,man,,,,null,,,,
null,are talking to each other,,html-keyboard-response,68,439203,0.0-13.0-2.9,37929,List1B,white,man,,,,null,,,,
12308,,,survey-text,69,451514,0.0-13.0-3.9,37929,List1B,white,man,,,,,"{""Q0"":""Kate and Ruth are talking to each other""}","<img src=""stim_listB/talk8.gif""</stim_listB>",are talking to each other,
null,"<div style=""font-size:60px;"">+</div>",,html-keyboard-response,70,452017,0.0-13.0-0.10,37929,List1B,white,man,,,,null,,,,
null,"<img src=""stim_listB/argue1.gif""</stim_listB>",,html-keyboard-response,71,454021,0.0-13.0-1.10,37929,List1B,white,man,,,,null,,,,
null,is arguing with,,html-keyboard-response,72,456023,0.0-13.0-2.10,37929,List1B,white,man,,,,null,,,,
9707,,,survey-text,73,465734,0.0-13.0-3.10,37929,List1B,white,man,,,,,"{""Q0"":""Mike is arguing with Beth""}","<img src=""stim_listB/argue1.gif""</stim_listB>",is arguing with,
null,"<div style=""font-size:60px;"">+</div>",,html-keyboard-response,74,466237,0.0-13.0-0.11,37929,List1B,white,man,,,,null,,,,
null,"<img src=""stim_listB/fight3.gif""</stim_listB>",,html-keyboard-response,75,468240,0.0-13.0-1.11,37929,List1B,white,man,,,,null,,,,
null,is fighting,,html-keyboard-response,76,470242,0.0-13.0-2.11,37929,List1B,white,man,,,,null,,,,
8103,,,survey-text,77,478349,0.0-13.0-3.11,37929,List1B,white,man,,,,,"{""Q0"":""Jane is fighting Dave""}","<img src=""stim_listB/fight3.gif""</stim_listB>",is fighting,
null,"<div style=""font-size:60px;"">+</div>",,html-keyboard-response,78,478852,0.0-13.0-0.12,37929,List1B,white,man,,,,null,,,,
null,"<img src=""stim_listB/hug7.gif""</stim_listB>",,html-keyboard-response,79,480855,0.0-13.0-1.12,37929,List1B,white,man,,,,null,,,,
null,is hugging,,html-keyboard-response,80,482858,0.0-13.0-2.12,37929,List1B,white,man,,,,null,,,,
7319,,,survey-text,81,490180,0.0-13.0-3.12,37929,List1B,white,man,,,,,"{""Q0"":""Ruth is hugging Beth""}","<img src=""stim_listB/hug7.gif""</stim_listB>",is hugging,
null,"<div style=""font-size:60px;"">+</div>",,html-keyboard-response,82,490682,0.0-13.0-0.13,37929,List1B,white,man,,,,null,,,,
null,"<img src=""stim_listB/meet1.gif""</stim_listB>",,html-keyboard-response,83,492686,0.0-13.0-1.13,37929,List1B,white,man,,,,null,,,,
null,is meeting,,html-keyboard-response,84,494688,0.0-13.0-2.13,37929,List1B,white,man,,,,null,,,,
7137,,,survey-text,85,501832,0.0-13.0-3.13,37929,List1B,white,man,,,,,"{""Q0"":""Mike is meeting Kate""}","<img src=""stim_listB/meet1.gif""</stim_listB>",is meeting,
null,"<div style=""font-size:60px;"">+</div>",,html-keyboard-response,86,502335,0.0-13.0-0.14,37929,List1B,white,man,,,,null,,,,
null,"<img src=""stim_listB/dance1.gif""</stim_listB>",,html-keyboard-response,87,504338,0.0-13.0-1.14,37929,List1B,white,man,,,,null,,,,
null,is dancing with,,html-keyboard-response,88,506341,0.0-13.0-2.14,37929,List1B,white,man,,,,null,,,,
9625,,,survey-text,89,515968,0.0-13.0-3.14,37929,List1B,white,man,,,,,"{""Q0"":""Fred is dancing with Kate""}","<img src=""stim_listB/dance1.gif""</stim_listB>",is dancing with,
null,"<div style=""font-size:60px;"">+</div>",,html-keyboard-response,90,516471,0.0-13.0-0.15,37929,List1B,white,man,,,,null,,,,
null,"<img src=""stim_listB/touch7.gif""</stim_listB>",,html-keyboard-response,91,518475,0.0-13.0-1.15,37929,List1B,white,man,,,,null,,,,
null,is touching,,html-keyboard-response,92,520477,0.0-13.0-2.15,37929,List1B,white,man,,,,null,,,,
7834,,,survey-text,93,528315,0.0-13.0-3.15,37929,List1B,white,man,,,,,"{""Q0"":""Kate is touching Jane""}","<img src=""stim_listB/touch7.gif""</stim_listB>",is touching,
null,"<div style=""font-size:60px;"">+</div>",,html-keyboard-response,94,528817,0.0-13.0-0.16,37929,List1B,white,man,,,,null,,,,
null,"<img src=""stim_listB/kiss3.gif""</stim_listB>",,html-keyboard-response,95,530821,0.0-13.0-1.16,37929,List1B,white,man,,,,null,,,,
null,is kissing,,html-keyboard-response,96,532823,0.0-13.0-2.16,37929,List1B,white,man,,,,null,,,,
12606,,,survey-text,97,545432,0.0-13.0-3.16,37929,List1B,white,man,,,,,"{""Q0"":""Luke is kissing Ruth""}","<img src=""stim_listB/kiss3.gif""</stim_listB>",is kissing,
null,"<div style=""font-size:60px;"">+</div>",,html-keyboard-response,98,545935,0.0-13.0-0.17,37929,List1B,white,man,,,,null,,,,
null,"<img src=""stim_listB/touch8.gif""</stim_listB>",,html-keyboard-response,99,547939,0.0-13.0-1.17,37929,List1B,white,man,,,,null,,,,
null,are touching each other,,html-keyboard-response,100,549941,0.0-13.0-2.17,37929,List1B,white,man,,,,null,,,,
11260,,,survey-text,101,561204,0.0-13.0-3.17,37929,List1B,white,man,,,,,"{""Q0"":""Ruth and Beth are touching each other""}","<img src=""stim_listB/touch8.gif""</stim_listB>",are touching each other,
null,"<div style=""font-size:60px;"">+</div>",,html-keyboard-response,102,561707,0.0-13.0-0.18,37929,List1B,white,man,,,,null,,,,
null,"<img src=""stim_listB/fight5.gif""</stim_listB>",,html-keyboard-response,103,563710,0.0-13.0-1.18,37929,List1B,white,man,,,,null,,,,
null,is fighting,,html-keyboard-response,104,565713,0.0-13.0-2.18,37929,List1B,white,man,,,,null,,,,
7401,,,survey-text,105,573117,0.0-13.0-3.18,37929,List1B,white,man,,,,,"{""Q0"":""Dave is fighting Mike""}","<img src=""stim_listB/fight5.gif""</stim_listB>",is fighting,
null,"<div style=""font-size:60px;"">+</div>",,html-keyboard-response,106,573620,0.0-13.0-0.19,37929,List1B,white,man,,,,null,,,,
null,"<img src=""stim_listB/argue6.gif""</stim_listB>",,html-keyboard-response,107,575623,0.0-13.0-1.19,37929,List1B,white,man,,,,null,,,,
null,are arguing with each other,,html-keyboard-response,108,577626,0.0-13.0-2.19,37929,List1B,white,man,,,,null,,,,
13225,,,survey-text,109,590853,0.0-13.0-3.19,37929,List1B,white,man,,,,,"{""Q0"":""Dave and Fred are arguing with each other""}","<img src=""stim_listB/argue6.gif""</stim_listB>",are arguing with each other,
6964,"<img src='img/portrait_matrix_list1.JPG' style='width:900px;height:500px;''></img><p>If you have memorised all the portraits and names and are ready to start, press Continue.</p><p><strong>Please note: Your memory of these faces will be tested 4 times during this experiment.</strong></p>",0,html-button-response,110,597822,0.0-14.0-0.0,37929,List1B,white,man,,,,,,,,
5671,"<img src=""portrait/BM2.jpg""style=""width:400px;height:400px;""></img>",5,html-button-response,111,604498,0.0-14.0-1.0,37929,List1B,white,man,,TRUE,5,,,,,
null,CORRECT,,html-keyboard-response,112,606002,0.0-14.0-2.0-0.0,37929,List1B,white,man,,,,null,,,,
2702,"<img src=""portrait/BW1.jpg""style=""width:400px;height:400px;""></img>",0,html-button-response,113,608708,0.0-14.0-4.0,37929,List1B,white,man,,TRUE,0,,,,,
null,CORRECT,,html-keyboard-response,114,610212,0.0-14.0-5.0-0.0,37929,List1B,white,man,,,,null,,,,
2000,"<img src=""portrait/BW2.jpg""style=""width:400px;height:400px;""></img>",2,html-button-response,115,612216,0.0-14.0-7.0,37929,List1B,white,man,,TRUE,2,,,,,
null,CORRECT,,html-keyboard-response,116,613720,0.0-14.0-8.0-0.0,37929,List1B,white,man,,,,null,,,,
2350,"<img src=""portrait/WM1.jpg""style=""width:400px;height:400px;""></img>",6,html-button-response,117,616075,0.0-14.0-10.0,37929,List1B,white,man,,TRUE,6,,,,,
null,CORRECT,,html-keyboard-response,118,617579,0.0-14.0-11.0-0.0,37929,List1B,white,man,,,,null,,,,
1617,"<img src=""portrait/WM2.jpg""style=""width:400px;height:400px;""></img>",7,html-button-response,119,619200,0.0-14.0-13.0,37929,List1B,white,man,,TRUE,7,,,,,
null,CORRECT,,html-keyboard-response,120,620704,0.0-14.0-14.0-0.0,37929,List1B,white,man,,,,null,,,,
2353,"<img src=""portrait/BM1.jpg""style=""width:400px;height:400px;""></img>",4,html-button-response,121,623061,0.0-14.0-16.0,37929,List1B,white,man,,TRUE,4,,,,,
null,CORRECT,,html-keyboard-response,122,624565,0.0-14.0-17.0-0.0,37929,List1B,white,man,,,,null,,,,
4154,"<img src=""portrait/WW1.jpg""style=""width:400px;height:400px;""></img>",1,html-button-response,123,628724,0.0-14.0-19.0,37929,List1B,white,man,,TRUE,1,,,,,
null,CORRECT,,html-keyboard-response,124,630227,0.0-14.0-20.0-0.0,37929,List1B,white,man,,,,null,,,,
1591,"<img src=""portrait/WW2.jpg""style=""width:400px;height:400px;""></img>",3,html-button-response,125,631824,0.0-14.0-22.0,37929,List1B,white,man,,TRUE,3,,,,,
null,CORRECT,,html-keyboard-response,126,633328,0.0-14.0-23.0-0.0,37929,List1B,white,man,,,,null,,,,
3254,<p>You got 8 out of 8 right first time. Press Continue.</p>,0,html-button-response,127,636586,0.0-14.0-25.0,37929,List1B,white,man,,,,,,,,
null,"<div style=""font-size:60px;"">+</div>",,html-keyboard-response,128,638090,0.0-15.0-0.0,37929,List1B,white,man,,,,null,,,,
null,"<img src=""stim_listB/hug6.gif""</stim_listB>",,html-keyboard-response,129,640093,0.0-15.0-1.0,37929,List1B,white,man,,,,null,,,,
null,are hugging each other,,html-keyboard-response,130,642096,0.0-15.0-2.0,37929,List1B,white,man,,,,null,,,,
18069,,,survey-text,131,660168,0.0-15.0-3.0,37929,List1B,white,man,,,,,"{""Q0"":""Dave and Mike are hugging each other""}","<img src=""stim_listB/hug6.gif""</stim_listB>",are hugging each other,
null,"<div style=""font-size:60px;"">+</div>",,html-keyboard-response,132,660671,0.0-15.0-0.1,37929,List1B,white,man,,,,null,,,,
null,"<img src=""stim_listB/argue5.gif""</stim_listB>",,html-keyboard-response,133,662674,0.0-15.0-1.1,37929,List1B,white,man,,,,null,,,,
null,is arguing with,,html-keyboard-response,134,664677,0.0-15.0-2.1,37929,List1B,white,man,,,,null,,,,
7210,,,survey-text,135,671889,0.0-15.0-3.1,37929,List1B,white,man,,,,,"{""Q0"":""Mike is arguing with Luke""}","<img src=""stim_listB/argue5.gif""</stim_listB>",is arguing with,
null,"<div style=""font-size:60px;"">+</div>",,html-keyboard-response,136,672392,0.0-15.0-0.2,37929,List1B,white,man,,,,null,,,,
null,"<img src=""stim_listB/meet4.gif""</stim_listB>",,html-keyboard-response,137,674396,0.0-15.0-1.2,37929,List1B,white,man,,,,null,,,,
null,are meeting each other,,html-keyboard-response,138,676399,0.0-15.0-2.2,37929,List1B,white,man,,,,null,,,,
14594,,,survey-text,139,690996,0.0-15.0-3.2,37929,List1B,white,man,,,,,"{""Q0"":""Luke and Ruth are meeting each other""}","<img src=""stim_listB/meet4.gif""</stim_listB>",are meeting each other,
null,"<div style=""font-size:60px;"">+</div>",,html-keyboard-response,140,691499,0.0-15.0-0.3,37929,List1B,white,man,,,,null,,,,
null,"<img src=""stim_listB/talk2.gif""</stim_listB>",,html-keyboard-response,141,693503,0.0-15.0-1.3,37929,List1B,white,man,,,,null,,,,
null,are talking to each other,,html-keyboard-response,142,695505,0.0-15.0-2.3,37929,List1B,white,man,,,,null,,,,
12662,,,survey-text,143,708171,0.0-15.0-3.3,37929,List1B,white,man,,,,,"{""Q0"":""Mike and Beth are talking to each other""}","<img src=""stim_listB/talk2.gif""</stim_listB>",are talking to each other,
null,"<div style=""font-size:60px;"">+</div>",,html-keyboard-response,144,708674,0.0-15.0-0.4,37929,List1B,white,man,,,,null,,,,
null,"<img src=""stim_listB/hug1.gif""</stim_listB>",,html-keyboard-response,145,710677,0.0-15.0-1.4,37929,List1B,white,man,,,,null,,,,
null,is hugging,,html-keyboard-response,146,712680,0.0-15.0-2.4,37929,List1B,white,man,,,,null,,,,
18047,,,survey-text,147,730730,0.0-15.0-3.4,37929,List1B,white,man,,,,,"{""Q0"":""Fred is hugging Beth""}","<img src=""stim_listB/hug1.gif""</stim_listB>",is hugging,
null,"<div style=""font-size:60px;"">+</div>",,html-keyboard-response,148,731233,0.0-15.0-0.5,37929,List1B,white,man,,,,null,,,,
null,"<img src=""stim_listB/touch2.gif""</stim_listB>",,html-keyboard-response,149,733237,0.0-15.0-1.5,37929,List1B,white,man,,,,null,,,,
null,are touching each other,,html-keyboard-response,150,735239,0.0-15.0-2.5,37929,List1B,white,man,,,,null,,,,
11358,,,survey-text,151,746601,0.0-15.0-3.5,37929,List1B,white,man,,,,,"{""Q0"":""Beth and Fred are touching each other""}","<img src=""stim_listB/touch2.gif""</stim_listB>",are touching each other,
null,"<div style=""font-size:60px;"">+</div>",,html-keyboard-response,152,747104,0.0-15.0-0.6,37929,List1B,white,man,,,,null,,,,
null,"<img src=""stim_listB/hug4.gif""</stim_listB>",,html-keyboard-response,153,749107,0.0-15.0-1.6,37929,List1B,white,man,,,,null,,,,
null,are hugging each other,,html-keyboard-response,154,751110,0.0-15.0-2.6,37929,List1B,white,man,,,,null,,,,
10092,,,survey-text,155,761204,0.0-15.0-3.6,37929,List1B,white,man,,,,,"{""Q0"":""Dave and Jane are hugging each other""}","<img src=""stim_listB/hug4.gif""</stim_listB>",are hugging each other,
null,"<div style=""font-size:60px;"">+</div>",,html-keyboard-response,156,761707,0.0-15.0-0.7,37929,List1B,white,man,,,,null,,,,
null,"<img src=""stim_listB/talk7.gif""</stim_listB>",,html-keyboard-response,157,763711,0.0-15.0-1.7,37929,List1B,white,man,,,,null,,,,
null,is talking to,,html-keyboard-response,158,765713,0.0-15.0-2.7,37929,List1B,white,man,,,,null,,,,
7928,,,survey-text,159,773644,0.0-15.0-3.7,37929,List1B,white,man,,,,,"{""Q0"":""Jane is talking to Beth""}","<img src=""stim_listB/talk7.gif""</stim_listB>",is talking to,
null,"<div style=""font-size:60px;"">+</div>",,html-keyboard-response,160,774147,0.0-15.0-0.8,37929,List1B,white,man,,,,null,,,,
null,"<img src=""stim_listB/shout3.gif""</stim_listB>",,html-keyboard-response,161,776150,0.0-15.0-1.8,37929,List1B,white,man,,,,null,,,,
null,is shouting at,,html-keyboard-response,162,778153,0.0-15.0-2.8,37929,List1B,white,man,,,,null,,,,
10341,,,survey-text,163,788497,0.0-15.0-3.8,37929,List1B,white,man,,,,,"{""Q0"":""Ruth is shouting at Luke""}","<img src=""stim_listB/shout3.gif""</stim_listB>",is shouting at,
null,"<div style=""font-size:60px;"">+</div>",,html-keyboard-response,164,789000,0.0-15.0-0.9,37929,List1B,white,man,,,,null,,,,
null,"<img src=""stim_listB/shout4.gif""</stim_listB>",,html-keyboard-response,165,791004,0.0-15.0-1.9,37929,List1B,white,man,,,,null,,,,
null,are shouting at each other,,html-keyboard-response,166,793006,0.0-15.0-2.9,37929,List1B,white,man,,,,null,,,,
10550,,,survey-text,167,803560,0.0-15.0-3.9,37929,List1B,white,man,,,,,"{""Q0"":""Dave and Jane are shouting at each other""}","<img src=""stim_listB/shout4.gif""</stim_listB>",are shouting at each other,
null,"<div style=""font-size:60px;"">+</div>",,html-keyboard-response,168,804063,0.0-15.0-0.10,37929,List1B,white,man,,,,null,,,,
null,"<img src=""stim_listB/fight1.gif""</stim_listB>",,html-keyboard-response,169,806066,0.0-15.0-1.10,37929,List1B,white,man,,,,null,,,,
null,is fighting,,html-keyboard-response,170,808068,0.0-15.0-2.10,37929,List1B,white,man,,,,null,,,,
7850,,,survey-text,171,815923,0.0-15.0-3.10,37929,List1B,white,man,,,,,"{""Q0"":""Kate is fighting Mike""}","<img src=""stim_listB/fight1.gif""</stim_listB>",is fighting,
null,"<div style=""font-size:60px;"">+</div>",,html-keyboard-response,172,816427,0.0-15.0-0.11,37929,List1B,white,man,,,,null,,,,
null,"<img src=""stim_listB/dance3.gif""</stim_listB>",,html-keyboard-response,173,818431,0.0-15.0-1.11,37929,List1B,white,man,,,,null,,,,
null,is dancing with,,html-keyboard-response,174,820433,0.0-15.0-2.11,37929,List1B,white,man,,,,null,,,,
7266,,,survey-text,175,827702,0.0-15.0-3.11,37929,List1B,white,man,,,,,"{""Q0"":""Luke is dancing with Jane""}","<img src=""stim_listB/dance3.gif""</stim_listB>",is dancing with,
null,"<div style=""font-size:60px;"">+</div>",,html-keyboard-response,176,828205,0.0-15.0-0.12,37929,List1B,white,man,,,,null,,,,
null,"<img src=""stim_listB/dance5.gif""</stim_listB>",,html-keyboard-response,177,830209,0.0-15.0-1.12,37929,List1B,white,man,,,,null,,,,
null,is dancing with,,html-keyboard-response,178,832212,0.0-15.0-2.12,37929,List1B,white,man,,,,null,,,,
8296,,,survey-text,179,840511,0.0-15.0-3.12,37929,List1B,white,man,,,,,"{""Q0"":""Fred is dancing with Dave""}","<img src=""stim_listB/dance5.gif""</stim_listB>",is dancing with,
null,"<div style=""font-size:60px;"">+</div>",,html-keyboard-response,180,841013,0.0-15.0-0.13,37929,List1B,white,man,,,,null,,,,
null,"<img src=""stim_listB/argue8.gif""</stim_listB>",,html-keyboard-response,181,843017,0.0-15.0-1.13,37929,List1B,white,man,,,,null,,,,
null,are arguing with each other,,html-keyboard-response,182,845020,0.0-15.0-2.13,37929,List1B,white,man,,,,null,,,,
10649,,,survey-text,183,855672,0.0-15.0-3.13,37929,List1B,white,man,,,,,"{""Q0"":""Beth and Jane are arguing with each other""}","<img src=""stim_listB/argue8.gif""</stim_listB>",are arguing with each other,
null,"<div style=""font-size:60px;"">+</div>",,html-keyboard-response,184,856175,0.0-15.0-0.14,37929,List1B,white,man,,,,null,,,,
null,"<img src=""stim_listB/shout8.gif""</stim_listB>",,html-keyboard-response,185,858179,0.0-15.0-1.14,37929,List1B,white,man,,,,null,,,,
null,are shouting at each other,,html-keyboard-response,186,860181,0.0-15.0-2.14,37929,List1B,white,man,,,,null,,,,
8870,,,survey-text,187,869055,0.0-15.0-3.14,37929,List1B,white,man,,,,,"{""Q0"":""Kate and Jane are shouting at each other""}","<img src=""stim_listB/shout8.gif""</stim_listB>",are shouting at each other,
null,"<div style=""font-size:60px;"">+</div>",,html-keyboard-response,188,869558,0.0-15.0-0.15,37929,List1B,white,man,,,,null,,,,
null,"<img src=""stim_listB/kiss6.gif""</stim_listB>",,html-keyboard-response,189,871562,0.0-15.0-1.15,37929,List1B,white,man,,,,null,,,,
null,are kissing each other,,html-keyboard-response,190,873564,0.0-15.0-2.15,37929,List1B,white,man,,,,null,,,,
9065,,,survey-text,191,882632,0.0-15.0-3.15,37929,List1B,white,man,,,,,"{""Q0"":""Dave and Mike are kissing each other""}","<img src=""stim_listB/kiss6.gif""</stim_listB>",are kissing each other,
null,"<div style=""font-size:60px;"">+</div>",,html-keyboard-response,192,883135,0.0-15.0-0.16,37929,List1B,white,man,,,,null,,,,
null,"<img src=""stim_listB/dance7.gif""</stim_listB>",,html-keyboard-response,193,885139,0.0-15.0-1.16,37929,List1B,white,man,,,,null,,,,
null,is dancing with,,html-keyboard-response,194,887141,0.0-15.0-2.16,37929,List1B,white,man,,,,null,,,,
9045,,,survey-text,195,896190,0.0-15.0-3.16,37929,List1B,white,man,,,,,"{""Q0"":""Jane is dancing with Beth""}","<img src=""stim_listB/dance7.gif""</stim_listB>",is dancing with,
null,"<div style=""font-size:60px;"">+</div>",,html-keyboard-response,196,896693,0.0-15.0-0.17,37929,List1B,white,man,,,,null,,,,
null,"<img src=""stim_listB/fight7.gif""</stim_listB>",,html-keyboard-response,197,898697,0.0-15.0-1.17,37929,List1B,white,man,,,,null,,,,
null,is fighting,,html-keyboard-response,198,900699,0.0-15.0-2.17,37929,List1B,white,man,,,,null,,,,
6313,,,survey-text,199,907016,0.0-15.0-3.17,37929,List1B,white,man,,,,,"{""Q0"":""Kate is fighting Jane""}","<img src=""stim_listB/fight7.gif""</stim_listB>",is fighting,
null,"<div style=""font-size:60px;"">+</div>",,html-keyboard-response,200,907519,0.0-15.0-0.18,37929,List1B,white,man,,,,null,,,,
null,"<img src=""stim_listB/marry4.gif""</stim_listB>",,html-keyboard-response,201,909522,0.0-15.0-1.18,37929,List1B,white,man,,,,null,,,,
null,are marrying each other,,html-keyboard-response,202,911525,0.0-15.0-2.18,37929,List1B,white,man,,,,null,,,,
10459,,,survey-text,203,921986,0.0-15.0-3.18,37929,List1B,white,man,,,,,"{""Q0"":""Luke and Jane are marrying each other""}","<img src=""stim_listB/marry4.gif""</stim_listB>",are marrying each other,
null,"<div style=""font-size:60px;"">+</div>",,html-keyboard-response,204,922489,0.0-15.0-0.19,37929,List1B,white,man,,,,null,,,,
null,"<img src=""stim_listB/touch1.gif""</stim_listB>",,html-keyboard-response,205,924493,0.0-15.0-1.19,37929,List1B,white,man,,,,null,,,,
null,is touching,,html-keyboard-response,206,926495,0.0-15.0-2.19,37929,List1B,white,man,,,,null,,,,
7417,,,survey-text,207,933916,0.0-15.0-3.19,37929,List1B,white,man,,,,,"{""Q0"":""Kate is touching Mike""}","<img src=""stim_listB/touch1.gif""</stim_listB>",is touching,
5637,"<img src='img/portrait_matrix_list1.JPG' style='width:900px;height:500px;''></img><p>If you have memorised all the portraits and names and are ready to start, press Continue.</p><p><strong>Please note: Your memory of these faces will be tested 4 times during this experiment.</strong></p>",0,html-button-response,208,939557,0.0-16.0-0.0,37929,List1B,white,man,,,,,,,,
2210,"<img src=""portrait/BW2.jpg""style=""width:400px;height:400px;""></img>",2,html-button-response,209,942773,0.0-16.0-1.0,37929,List1B,white,man,,TRUE,2,,,,,
null,CORRECT,,html-keyboard-response,210,944277,0.0-16.0-2.0-0.0,37929,List1B,white,man,,,,null,,,,
1676,"<img src=""portrait/WM2.jpg""style=""width:400px;height:400px;""></img>",7,html-button-response,211,945958,0.0-16.0-4.0,37929,List1B,white,man,,TRUE,7,,,,,
null,CORRECT,,html-keyboard-response,212,947461,0.0-16.0-5.0-0.0,37929,List1B,white,man,,,,null,,,,
2109,"<img src=""portrait/WM1.jpg""style=""width:400px;height:400px;""></img>",6,html-button-response,213,949575,0.0-16.0-7.0,37929,List1B,white,man,,TRUE,6,,,,,
null,CORRECT,,html-keyboard-response,214,951078,0.0-16.0-8.0-0.0,37929,List1B,white,man,,,,null,,,,
1766,"<img src=""portrait/WW2.jpg""style=""width:400px;height:400px;""></img>",3,html-button-response,215,952850,0.0-16.0-10.0,37929,List1B,white,man,,TRUE,3,,,,,
null,CORRECT,,html-keyboard-response,216,954354,0.0-16.0-11.0-0.0,37929,List1B,white,man,,,,null,,,,
1916,"<img src=""portrait/BW1.jpg""style=""width:400px;height:400px;""></img>",0,html-button-response,217,956274,0.0-16.0-13.0,37929,List1B,white,man,,TRUE,0,,,,,
null,CORRECT,,html-keyboard-response,218,957778,0.0-16.0-14.0-0.0,37929,List1B,white,man,,,,null,,,,
2126,"<img src=""portrait/BM1.jpg""style=""width:400px;height:400px;""></img>",4,html-button-response,219,959908,0.0-16.0-16.0,37929,List1B,white,man,,TRUE,4,,,,,
null,CORRECT,,html-keyboard-response,220,961412,0.0-16.0-17.0-0.0,37929,List1B,white,man,,,,null,,,,
1650,"<img src=""portrait/WW1.jpg""style=""width:400px;height:400px;""></img>",1,html-button-response,221,963066,0.0-16.0-19.0,37929,List1B,white,man,,TRUE,1,,,,,
null,CORRECT,,html-keyboard-response,222,964569,0.0-16.0-20.0-0.0,37929,List1B,white,man,,,,null,,,,
2486,"<img src=""portrait/BM2.jpg""style=""width:400px;height:400px;""></img>",5,html-button-response,223,967059,0.0-16.0-22.0,37929,List1B,white,man,,TRUE,5,,,,,
null,CORRECT,,html-keyboard-response,224,968563,0.0-16.0-23.0-0.0,37929,List1B,white,man,,,,null,,,,
1482,<p>You got 8 out of 8 right first time. Press Continue.</p>,0,html-button-response,225,970049,0.0-16.0-25.0,37929,List1B,white,man,,,,,,,,
null,"<div style=""font-size:60px;"">+</div>",,html-keyboard-response,226,971554,0.0-17.0-0.0,37929,List1B,white,man,,,,null,,,,
null,"<img src=""stim_listB/touch4.gif""</stim_listB>",,html-keyboard-response,227,973557,0.0-17.0-1.0,37929,List1B,white,man,,,,null,,,,
null,are touching each other,,html-keyboard-response,228,975560,0.0-17.0-2.0,37929,List1B,white,man,,,,null,,,,
9841,,,survey-text,229,985404,0.0-17.0-3.0,37929,List1B,white,man,,,,,"{""Q0"":""Luke and Ruth are touching each other""}","<img src=""stim_listB/touch4.gif""</stim_listB>",are touching each other,
null,"<div style=""font-size:60px;"">+</div>",,html-keyboard-response,230,985907,0.0-17.0-0.1,37929,List1B,white,man,,,,null,,,,
null,"<img src=""stim_listB/dance2.gif""</stim_listB>",,html-keyboard-response,231,987911,0.0-17.0-1.1,37929,List1B,white,man,,,,null,,,,
null,are dancing with each other,,html-keyboard-response,232,989913,0.0-17.0-2.1,37929,List1B,white,man,,,,null,,,,
14559,,,survey-text,233,1004476,0.0-17.0-3.1,37929,List1B,white,man,,,,,"{""Q0"":""Mike and Beth are dancing with each other""}","<img src=""stim_listB/dance2.gif""</stim_listB>",are dancing with each other,
null,"<div style=""font-size:60px;"">+</div>",,html-keyboard-response,234,1004979,0.0-17.0-0.2,37929,List1B,white,man,,,,null,,,,
null,"<img src=""stim_listB/hug5.gif""</stim_listB>",,html-keyboard-response,235,1006982,0.0-17.0-1.2,37929,List1B,white,man,,,,null,,,,
null,is hugging,,html-keyboard-response,236,1008985,0.0-17.0-2.2,37929,List1B,white,man,,,,null,,,,
7802,,,survey-text,237,1016790,0.0-17.0-3.2,37929,List1B,white,man,,,,,"{""Q0"":""Fred is hugging Luke""}","<img src=""stim_listB/hug5.gif""</stim_listB>",is hugging,
null,"<div style=""font-size:60px;"">+</div>",,html-keyboard-response,238,1017293,0.0-17.0-0.3,37929,List1B,white,man,,,,null,,,,
null,"<img src=""stim_listB/talk3.gif""</stim_listB>",,html-keyboard-response,239,1019297,0.0-17.0-1.3,37929,List1B,white,man,,,,null,,,,
null,is talking to,,html-keyboard-response,240,1021299,0.0-17.0-2.3,37929,List1B,white,man,,,,null,,,,
7291,,,survey-text,241,1028594,0.0-17.0-3.3,37929,List1B,white,man,,,,,"{""Q0"":""Luke is talking to Jane""}","<img src=""stim_listB/talk3.gif""</stim_listB>",is talking to,
null,"<div style=""font-size:60px;"">+</div>",,html-keyboard-response,242,1029097,0.0-17.0-0.4,37929,List1B,white,man,,,,null,,,,
null,"<img src=""stim_listB/fight8.gif""</stim_listB>",,html-keyboard-response,243,1031100,0.0-17.0-1.4,37929,List1B,white,man,,,,null,,,,
null,are fighting each other,,html-keyboard-response,244,1033103,0.0-17.0-2.4,37929,List1B,white,man,,,,null,,,,
10735,,,survey-text,245,1043840,0.0-17.0-3.4,37929,List1B,white,man,,,,,"{""Q0"":""Beth and Ruth are fighting each other""}","<img src=""stim_listB/fight8.gif""</stim_listB>",are fighting each other,
null,"<div style=""font-size:60px;"">+</div>",,html-keyboard-response,246,1044343,0.0-17.0-0.5,37929,List1B,white,man,,,,null,,,,
null,"<img src=""stim_listB/meet6.gif""</stim_listB>",,html-keyboard-response,247,1046347,0.0-17.0-1.5,37929,List1B,white,man,,,,null,,,,
null,are meeting each other,,html-keyboard-response,248,1048349,0.0-17.0-2.5,37929,List1B,white,man,,,,null,,,,
8163,,,survey-text,249,1056515,0.0-17.0-3.5,37929,List1B,white,man,,,,,"{""Q0"":""Luke and Fred are meeting each other""}","<img src=""stim_listB/meet6.gif""</stim_listB>",are meeting each other,
null,"<div style=""font-size:60px;"">+</div>",,html-keyboard-response,250,1057018,0.0-17.0-0.6,37929,List1B,white,man,,,,null,,,,
null,"<img src=""stim_listB/fight2.gif""</stim_listB>",,html-keyboard-response,251,1059022,0.0-17.0-1.6,37929,List1B,white,man,,,,null,,,,
null,are fighting each other,,html-keyboard-response,252,1061024,0.0-17.0-2.6,37929,List1B,white,man,,,,null,,,,
8292,,,survey-text,253,1069319,0.0-17.0-3.6,37929,List1B,white,man,,,,,"{""Q0"":""Fred and Beth are fighting each other""}","<img src=""stim_listB/fight2.gif""</stim_listB>",are fighting each other,
null,"<div style=""font-size:60px;"">+</div>",,html-keyboard-response,254,1069823,0.0-17.0-0.7,37929,List1B,white,man,,,,null,,,,
null,"<img src=""stim_listB/argue4.gif""</stim_listB>",,html-keyboard-response,255,1071826,0.0-17.0-1.7,37929,List1B,white,man,,,,null,,,,
null,are arguing with each other,,html-keyboard-response,256,1073828,0.0-17.0-2.7,37929,List1B,white,man,,,,null,,,,
12949,,,survey-text,257,1086781,0.0-17.0-3.7,37929,List1B,white,man,,,,,"{""Q0"":""Jane and Luke are arguing with each other""}","<img src=""stim_listB/argue4.gif""</stim_listB>",are arguing with each other,
null,"<div style=""font-size:60px;"">+</div>",,html-keyboard-response,258,1087284,0.0-17.0-0.8,37929,List1B,white,man,,,,null,,,,
null,"<img src=""stim_listB/dance4.gif""</stim_listB>",,html-keyboard-response,259,1089287,0.0-17.0-1.8,37929,List1B,white,man,,,,null,,,,
null,are dancing with each other,,html-keyboard-response,260,1091290,0.0-17.0-2.8,37929,List1B,white,man,,,,null,,,,
9565,,,survey-text,261,1100859,0.0-17.0-3.8,37929,List1B,white,man,,,,,"{""Q0"":""Dave and Ruth are dancing with each other""}","<img src=""stim_listB/dance4.gif""</stim_listB>",are dancing with each other,
null,"<div style=""font-size:60px;"">+</div>",,html-keyboard-response,262,1101362,0.0-17.0-0.9,37929,List1B,white,man,,,,null,,,,
null,"<img src=""stim_listB/meet5.gif""</stim_listB>",,html-keyboard-response,263,1103366,0.0-17.0-1.9,37929,List1B,white,man,,,,null,,,,
null,is meeting,,html-keyboard-response,264,1105368,0.0-17.0-2.9,37929,List1B,white,man,,,,null,,,,
6205,,,survey-text,265,1111576,0.0-17.0-3.9,37929,List1B,white,man,,,,,"{""Q0"":""Dave is meeting Mike""}","<img src=""stim_listB/meet5.gif""</stim_listB>",is meeting,
null,"<div style=""font-size:60px;"">+</div>",,html-keyboard-response,266,1112080,0.0-17.0-0.10,37929,List1B,white,man,,,,null,,,,
null,"<img src=""stim_listB/kiss7.gif""</stim_listB>",,html-keyboard-response,267,1114083,0.0-17.0-1.10,37929,List1B,white,man,,,,null,,,,
null,is kissing,,html-keyboard-response,268,1116086,0.0-17.0-2.10,37929,List1B,white,man,,,,null,,,,
6124,,,survey-text,269,1122213,0.0-17.0-3.10,37929,List1B,white,man,,,,,"{""Q0"":""Ruth is kissing Beth""}","<img src=""stim_listB/kiss7.gif""</stim_listB>",is kissing,
null,"<div style=""font-size:60px;"">+</div>",,html-keyboard-response,270,1122716,0.0-17.0-0.11,37929,List1B,white,man,,,,null,,,,
null,"<img src=""stim_listB/dance6.gif""</stim_listB>",,html-keyboard-response,271,1124720,0.0-17.0-1.11,37929,List1B,white,man,,,,null,,,,
null,are dancing with each other,,html-keyboard-response,272,1126722,0.0-17.0-2.11,37929,List1B,white,man,,,,null,,,,
9479,,,survey-text,273,1136204,0.0-17.0-3.11,37929,List1B,white,man,,,,,"{""Q0"":""Mike and Luke are dancing with each other""}","<img src=""stim_listB/dance6.gif""</stim_listB>",are dancing with each other,
null,"<div style=""font-size:60px;"">+</div>",,html-keyboard-response,274,1136707,0.0-17.0-0.12,37929,List1B,white,man,,,,null,,,,
null,"<img src=""stim_listB/meet2.gif""</stim_listB>",,html-keyboard-response,275,1138711,0.0-17.0-1.12,37929,List1B,white,man,,,,null,,,,
null,are meeting each other,,html-keyboard-response,276,1140713,0.0-17.0-2.12,37929,List1B,white,man,,,,null,,,,
8278,,,survey-text,277,1148994,0.0-17.0-3.12,37929,List1B,white,man,,,,,"{""Q0"":""Fred and Beth are meeting each other""}","<img src=""stim_listB/meet2.gif""</stim_listB>",are meeting each other,
null,"<div style=""font-size:60px;"">+</div>",,html-keyboard-response,278,1149497,0.0-17.0-0.13,37929,List1B,white,man,,,,null,,,,
null,"<img src=""stim_listB/marry8.gif""</stim_listB>",,html-keyboard-response,279,1151501,0.0-17.0-1.13,37929,List1B,white,man,,,,null,,,,
null,are marrying each other,,html-keyboard-response,280,1153506,0.0-17.0-2.13,37929,List1B,white,man,,,,null,,,,
8470,,,survey-text,281,1161978,0.0-17.0-3.13,37929,List1B,white,man,,,,,"{""Q0"":""Beth and Jane are marrying each other""}","<img src=""stim_listB/marry8.gif""</stim_listB>",are marrying each other,
null,"<div style=""font-size:60px;"">+</div>",,html-keyboard-response,282,1162481,0.0-17.0-0.14,37929,List1B,white,man,,,,null,,,,
null,"<img src=""stim_listB/argue7.gif""</stim_listB>",,html-keyboard-response,283,1164485,0.0-17.0-1.14,37929,List1B,white,man,,,,null,,,,
null,is arguing with,,html-keyboard-response,284,1166488,0.0-17.0-2.14,37929,List1B,white,man,,,,null,,,,
7976,,,survey-text,285,1174466,0.0-17.0-3.14,37929,List1B,white,man,,,,,"{""Q0"":""Kate is arguing with Ruth""}","<img src=""stim_listB/argue7.gif""</stim_listB>",is arguing with,
null,"<div style=""font-size:60px;"">+</div>",,html-keyboard-response,286,1174969,0.0-17.0-0.15,37929,List1B,white,man,,,,null,,,,
null,"<img src=""stim_listB/meet3.gif""</stim_listB>",,html-keyboard-response,287,1176973,0.0-17.0-1.15,37929,List1B,white,man,,,,null,,,,
null,is meeting,,html-keyboard-response,288,1178976,0.0-17.0-2.15,37929,List1B,white,man,,,,null,,,,
6748,,,survey-text,289,1185727,0.0-17.0-3.15,37929,List1B,white,man,,,,,"{""Q0"":""Jane is meeting Dave""}","<img src=""stim_listB/meet3.gif""</stim_listB>",is meeting,
null,"<div style=""font-size:60px;"">+</div>",,html-keyboard-response,290,1186230,0.0-17.0-0.16,37929,List1B,white,man,,,,null,,,,
null,"<img src=""stim_listB/shout7.gif""</stim_listB>",,html-keyboard-response,291,1188233,0.0-17.0-1.16,37929,List1B,white,man,,,,null,,,,
null,is shouting at,,html-keyboard-response,292,1190236,0.0-17.0-2.16,37929,List1B,white,man,,,,null,,,,
7068,,,survey-text,293,1197308,0.0-17.0-3.16,37929,List1B,white,man,,,,,"{""Q0"":""Ruth is shouting at Beth""}","<img src=""stim_listB/shout7.gif""</stim_listB>",is shouting at,
null,"<div style=""font-size:60px;"">+</div>",,html-keyboard-response,294,1197811,0.0-17.0-0.17,37929,List1B,white,man,,,,null,,,,
null,"<img src=""stim_listB/marry3.gif""</stim_listB>",,html-keyboard-response,295,1199815,0.0-17.0-1.17,37929,List1B,white,man,,,,null,,,,
null,is marrying,,html-keyboard-response,296,1201818,0.0-17.0-2.17,37929,List1B,white,man,,,,null,,,,
6280,,,survey-text,297,1208101,0.0-17.0-3.17,37929,List1B,white,man,,,,,"{""Q0"":""Dave is marrying Ruth""}","<img src=""stim_listB/marry3.gif""</stim_listB>",is marrying,
null,"<div style=""font-size:60px;"">+</div>",,html-keyboard-response,298,1208605,0.0-17.0-0.18,37929,List1B,white,man,,,,null,,,,
null,"<img src=""stim_listB/marry2.gif""</stim_listB>",,html-keyboard-response,299,1210608,0.0-17.0-1.18,37929,List1B,white,man,,,,null,,,,
null,are marrying each other,,html-keyboard-response,300,1212611,0.0-17.0-2.18,37929,List1B,white,man,,,,null,,,,
8970,,,survey-text,301,1221584,0.0-17.0-3.18,37929,List1B,white,man,,,,,"{""Q0"":""Fred and Kate are marrying each other""}","<img src=""stim_listB/marry2.gif""</stim_listB>",are marrying each other,
null,"<div style=""font-size:60px;"">+</div>",,html-keyboard-response,302,1222087,0.0-17.0-0.19,37929,List1B,white,man,,,,null,,,,
null,"<img src=""stim_listB/talk4.gif""</stim_listB>",,html-keyboard-response,303,1224091,0.0-17.0-1.19,37929,List1B,white,man,,,,null,,,,
null,are talking to each other,,html-keyboard-response,304,1226093,0.0-17.0-2.19,37929,List1B,white,man,,,,null,,,,
9756,,,survey-text,305,1235852,0.0-17.0-3.19,37929,List1B,white,man,,,,,"{""Q0"":""Ruth and Dave are talking to each other""}","<img src=""stim_listB/talk4.gif""</stim_listB>",are talking to each other,
6795,"<img src='img/portrait_matrix_list1.JPG' style='width:900px;height:500px;''></img><p>If you have memorised all the portraits and names and are ready to start, press Continue.</p><p><strong>Please note: Your memory of these faces will be tested 4 times during this experiment.</strong></p>",0,html-button-response,306,1242652,0.0-18.0-0.0,37929,List1B,white,man,,,,,,,,
6114,"<img src=""portrait/WW1.jpg""style=""width:400px;height:400px;""></img>",1,html-button-response,307,1249773,0.0-18.0-1.0,37929,List1B,white,man,,TRUE,1,,,,,
null,CORRECT,,html-keyboard-response,308,1251277,0.0-18.0-2.0-0.0,37929,List1B,white,man,,,,null,,,,
1614,"<img src=""portrait/BW1.jpg""style=""width:400px;height:400px;""></img>",0,html-button-response,309,1252896,0.0-18.0-4.0,37929,List1B,white,man,,TRUE,0,,,,,
null,CORRECT,,html-keyboard-response,310,1254400,0.0-18.0-5.0-0.0,37929,List1B,white,man,,,,null,,,,
1565,"<img src=""portrait/BM2.jpg""style=""width:400px;height:400px;""></img>",5,html-button-response,311,1255971,0.0-18.0-7.0,37929,List1B,white,man,,TRUE,5,,,,,
null,CORRECT,,html-keyboard-response,312,1257475,0.0-18.0-8.0-0.0,37929,List1B,white,man,,,,null,,,,
1848,"<img src=""portrait/BW2.jpg""style=""width:400px;height:400px;""></img>",2,html-button-response,313,1259328,0.0-18.0-10.0,37929,List1B,white,man,,TRUE,2,,,,,
null,CORRECT,,html-keyboard-response,314,1260832,0.0-18.0-11.0-0.0,37929,List1B,white,man,,,,null,,,,
1339,"<img src=""portrait/WW2.jpg""style=""width:400px;height:400px;""></img>",3,html-button-response,315,1262177,0.0-18.0-13.0,37929,List1B,white,man,,TRUE,3,,,,,
null,CORRECT,,html-keyboard-response,316,1263681,0.0-18.0-14.0-0.0,37929,List1B,white,man,,,,null,,,,
1343,"<img src=""portrait/WM2.jpg""style=""width:400px;height:400px;""></img>",7,html-button-response,317,1265030,0.0-18.0-16.0,37929,List1B,white,man,,TRUE,7,,,,,
null,CORRECT,,html-keyboard-response,318,1266533,0.0-18.0-17.0-0.0,37929,List1B,white,man,,,,null,,,,
1729,"<img src=""portrait/WM1.jpg""style=""width:400px;height:400px;""></img>",6,html-button-response,319,1268268,0.0-18.0-19.0,37929,List1B,white,man,,TRUE,6,,,,,
null,CORRECT,,html-keyboard-response,320,1269772,0.0-18.0-20.0-0.0,37929,List1B,white,man,,,,null,,,,
1406,"<img src=""portrait/BM1.jpg""style=""width:400px;height:400px;""></img>",4,html-button-response,321,1271183,0.0-18.0-22.0,37929,List1B,white,man,,TRUE,4,,,,,
null,CORRECT,,html-keyboard-response,322,1272687,0.0-18.0-23.0-0.0,37929,List1B,white,man,,,,null,,,,
1740,<p>You got 8 out of 8 right first time. Press Continue.</p>,0,html-button-response,323,1274432,0.0-18.0-25.0,37929,List1B,white,man,,,,,,,,
null,"<div style=""font-size:60px;"">+</div>",,html-keyboard-response,324,1275938,0.0-19.0-0.0,37929,List1B,white,man,,,,null,,,,
null,"<img src=""stim_listB/hug2.gif""</stim_listB>",,html-keyboard-response,325,1277941,0.0-19.0-1.0,37929,List1B,white,man,,,,null,,,,
null,are hugging each other,,html-keyboard-response,326,1279944,0.0-19.0-2.0,37929,List1B,white,man,,,,null,,,,
9606,,,survey-text,327,1289554,0.0-19.0-3.0,37929,List1B,white,man,,,,,"{""Q0"":""Mike and Kate are hugging each other""}","<img src=""stim_listB/hug2.gif""</stim_listB>",are hugging each other,
null,"<div style=""font-size:60px;"">+</div>",,html-keyboard-response,328,1290057,0.0-19.0-0.1,37929,List1B,white,man,,,,null,,,,
null,"<img src=""stim_listB/fight4.gif""</stim_listB>",,html-keyboard-response,329,1292061,0.0-19.0-1.1,37929,List1B,white,man,,,,null,,,,
null,are fighting each other,,html-keyboard-response,330,1294063,0.0-19.0-2.1,37929,List1B,white,man,,,,null,,,,
7515,,,survey-text,331,1301581,0.0-19.0-3.1,37929,List1B,white,man,,,,,"{""Q0"":""Luke and Ruth are fighting each other""}","<img src=""stim_listB/fight4.gif""</stim_listB>",are fighting each other,
null,"<div style=""font-size:60px;"">+</div>",,html-keyboard-response,332,1302084,0.0-19.0-0.2,37929,List1B,white,man,,,,null,,,,
null,"<img src=""stim_listB/fight6.gif""</stim_listB>",,html-keyboard-response,333,1304088,0.0-19.0-1.2,37929,List1B,white,man,,,,null,,,,
null,are fighting each other,,html-keyboard-response,334,1306091,0.0-19.0-2.2,37929,List1B,white,man,,,,null,,,,
7730,,,survey-text,335,1313824,0.0-19.0-3.2,37929,List1B,white,man,,,,,"{""Q0"":""Fred and Luke are fighting each other""}","<img src=""stim_listB/fight6.gif""</stim_listB>",are fighting each other,
null,"<div style=""font-size:60px;"">+</div>",,html-keyboard-response,336,1314328,0.0-19.0-0.3,37929,List1B,white,man,,,,null,,,,
null,"<img src=""stim_listB/kiss2.gif""</stim_listB>",,html-keyboard-response,337,1316332,0.0-19.0-1.3,37929,List1B,white,man,,,,null,,,,
null,are kissing each other,,html-keyboard-response,338,1318335,0.0-19.0-2.3,37929,List1B,white,man,,,,null,,,,
7504,,,survey-text,339,1325843,0.0-19.0-3.3,37929,List1B,white,man,,,,,"{""Q0"":""Kate and Mike are kissing each other""}","<img src=""stim_listB/kiss2.gif""</stim_listB>",are kissing each other,
null,"<div style=""font-size:60px;"">+</div>",,html-keyboard-response,340,1326346,0.0-19.0-0.4,37929,List1B,white,man,,,,null,,,,
null,"<img src=""stim_listB/talk5.gif""</stim_listB>",,html-keyboard-response,341,1328349,0.0-19.0-1.4,37929,List1B,white,man,,,,null,,,,
null,is talking to,,html-keyboard-response,342,1330352,0.0-19.0-2.4,37929,List1B,white,man,,,,null,,,,
6892,,,survey-text,343,1337248,0.0-19.0-3.4,37929,List1B,white,man,,,,,"{""Q0"":""Dave is talking to Fred""}","<img src=""stim_listB/talk5.gif""</stim_listB>",is talking to,
null,"<div style=""font-size:60px;"">+</div>",,html-keyboard-response,344,1337751,0.0-19.0-0.5,37929,List1B,white,man,,,,null,,,,
null,"<img src=""stim_listB/hug8.gif""</stim_listB>",,html-keyboard-response,345,1339755,0.0-19.0-1.5,37929,List1B,white,man,,,,null,,,,
null,are hugging each other,,html-keyboard-response,346,1341757,0.0-19.0-2.5,37929,List1B,white,man,,,,null,,,,
12270,,,survey-text,347,1354031,0.0-19.0-3.5,37929,List1B,white,man,,,,,"{""Q0"":""Kate and Jane are hugging each other""}","<img src=""stim_listB/hug8.gif""</stim_listB>",are hugging each other,
null,"<div style=""font-size:60px;"">+</div>",,html-keyboard-response,348,1354534,0.0-19.0-0.6,37929,List1B,white,man,,,,null,,,,
null,"<img src=""stim_listB/meet8.gif""</stim_listB>",,html-keyboard-response,349,1356538,0.0-19.0-1.6,37929,List1B,white,man,,,,null,,,,
null,are meeting each other,,html-keyboard-response,350,1358541,0.0-19.0-2.6,37929,List1B,white,man,,,,null,,,,
7515,,,survey-text,351,1366060,0.0-19.0-3.6,37929,List1B,white,man,,,,,"{""Q0"":""Ruth and Beth are meeting each other""}","<img src=""stim_listB/meet8.gif""</stim_listB>",are meeting each other,
null,"<div style=""font-size:60px;"">+</div>",,html-keyboard-response,352,1366563,0.0-19.0-0.7,37929,List1B,white,man,,,,null,,,,
null,"<img src=""stim_listB/shout6.gif""</stim_listB>",,html-keyboard-response,353,1368566,0.0-19.0-1.7,37929,List1B,white,man,,,,null,,,,
null,are shouting at each other,,html-keyboard-response,354,1370569,0.0-19.0-2.7,37929,List1B,white,man,,,,null,,,,
8671,,,survey-text,355,1379244,0.0-19.0-3.7,37929,List1B,white,man,,,,,"{""Q0"":""Mike and Dave are shouting at each other""}","<img src=""stim_listB/shout6.gif""</stim_listB>",are shouting at each other,
null,"<div style=""font-size:60px;"">+</div>",,html-keyboard-response,356,1379747,0.0-19.0-0.8,37929,List1B,white,man,,,,null,,,,
null,"<img src=""stim_listB/talk1.gif""</stim_listB>",,html-keyboard-response,357,1381751,0.0-19.0-1.8,37929,List1B,white,man,,,,null,,,,
null,is talking to,,html-keyboard-response,358,1383753,0.0-19.0-2.8,37929,List1B,white,man,,,,null,,,,
6565,,,survey-text,359,1390321,0.0-19.0-3.8,37929,List1B,white,man,,,,,"{""Q0"":""Kate is talking to Fred""}","<img src=""stim_listB/talk1.gif""</stim_listB>",is talking to,
null,"<div style=""font-size:60px;"">+</div>",,html-keyboard-response,360,1390825,0.0-19.0-0.9,37929,List1B,white,man,,,,null,,,,
null,"<img src=""stim_listB/marry1.gif""</stim_listB>",,html-keyboard-response,361,1392828,0.0-19.0-1.9,37929,List1B,white,man,,,,null,,,,
null,is marrying,,html-keyboard-response,362,1394831,0.0-19.0-2.9,37929,List1B,white,man,,,,null,,,,
7591,,,survey-text,363,1402425,0.0-19.0-3.9,37929,List1B,white,man,,,,,"{""Q0"":""Mike is marrying Beth""}","<img src=""stim_listB/marry1.gif""</stim_listB>",is marrying,
null,"<div style=""font-size:60px;"">+</div>",,html-keyboard-response,364,1402929,0.0-19.0-0.10,37929,List1B,white,man,,,,null,,,,
null,"<img src=""stim_listB/shout2.gif""</stim_listB>",,html-keyboard-response,365,1404933,0.0-19.0-1.10,37929,List1B,white,man,,,,null,,,,
null,are shouting at each other,,html-keyboard-response,366,1406935,0.0-19.0-2.10,37929,List1B,white,man,,,,null,,,,
9189,,,survey-text,367,1416128,0.0-19.0-3.10,37929,List1B,white,man,,,,,"{""Q0"":""Kate and Mike are shouting at each other""}","<img src=""stim_listB/shout2.gif""</stim_listB>",are shouting at each other,
null,"<div style=""font-size:60px;"">+</div>",,html-keyboard-response,368,1416631,0.0-19.0-0.11,37929,List1B,white,man,,,,null,,,,
null,"<img src=""stim_listB/touch5.gif""</stim_listB>",,html-keyboard-response,369,1418635,0.0-19.0-1.11,37929,List1B,white,man,,,,null,,,,
null,is touching,,html-keyboard-response,370,1420638,0.0-19.0-2.11,37929,List1B,white,man,,,,null,,,,
6570,,,survey-text,371,1427212,0.0-19.0-3.11,37929,List1B,white,man,,,,,"{""Q0"":""Mike is touching Dave""}","<img src=""stim_listB/touch5.gif""</stim_listB>",is touching,
null,"<div style=""font-size:60px;"">+</div>",,html-keyboard-response,372,1427715,0.0-19.0-0.12,37929,List1B,white,man,,,,null,,,,
null,"<img src=""stim_listB/dance8.gif""</stim_listB>",,html-keyboard-response,373,1429719,0.0-19.0-1.12,37929,List1B,white,man,,,,null,,,,
null,are dancing with each other,,html-keyboard-response,374,1431722,0.0-19.0-2.12,37929,List1B,white,man,,,,null,,,,
9171,,,survey-text,375,1440897,0.0-19.0-3.12,37929,List1B,white,man,,,,,"{""Q0"":""Kate and Ruth are dancing with each other""}","<img src=""stim_listB/dance8.gif""</stim_listB>",are dancing with each other,
null,"<div style=""font-size:60px;"">+</div>",,html-keyboard-response,376,1441400,0.0-19.0-0.13,37929,List1B,white,man,,,,null,,,,
null,"<img src=""stim_listB/marry6.gif""</stim_listB>",,html-keyboard-response,377,1443404,0.0-19.0-1.13,37929,List1B,white,man,,,,null,,,,
null,are marrying each other,,html-keyboard-response,378,1445407,0.0-19.0-2.13,37929,List1B,white,man,,,,null,,,,
7835,,,survey-text,379,1453244,0.0-19.0-3.13,37929,List1B,white,man,,,,,"{""Q0"":""Fred and Dave are marrying each other""}","<img src=""stim_listB/marry6.gif""</stim_listB>",are marrying each other,
null,"<div style=""font-size:60px;"">+</div>",,html-keyboard-response,380,1453748,0.0-19.0-0.14,37929,List1B,white,man,,,,null,,,,
null,"<img src=""stim_listB/touch6.gif""</stim_listB>",,html-keyboard-response,381,1455751,0.0-19.0-1.14,37929,List1B,white,man,,,,null,,,,
null,are touching each other,,html-keyboard-response,382,1457754,0.0-19.0-2.14,37929,List1B,white,man,,,,null,,,,
7458,,,survey-text,383,1465216,0.0-19.0-3.14,37929,List1B,white,man,,,,,"{""Q0"":""Fred and Luke are touching each other""}","<img src=""stim_listB/touch6.gif""</stim_listB>",are touching each other,
null,"<div style=""font-size:60px;"">+</div>",,html-keyboard-response,384,1465719,0.0-19.0-0.15,37929,List1B,white,man,,,,null,,,,
null,"<img src=""stim_listB/meet7.gif""</stim_listB>",,html-keyboard-response,385,1467723,0.0-19.0-1.15,37929,List1B,white,man,,,,null,,,,
null,is meeting,,html-keyboard-response,386,1469726,0.0-19.0-2.15,37929,List1B,white,man,,,,null,,,,
5471,,,survey-text,387,1475199,0.0-19.0-3.15,37929,List1B,white,man,,,,,"{""Q0"":""Jane is meeting Kate""}","<img src=""stim_listB/meet7.gif""</stim_listB>",is meeting,
null,"<div style=""font-size:60px;"">+</div>",,html-keyboard-response,388,1475703,0.0-19.0-0.16,37929,List1B,white,man,,,,null,,,,
null,"<img src=""stim_listB/kiss8.gif""</stim_listB>",,html-keyboard-response,389,1477707,0.0-19.0-1.16,37929,List1B,white,man,,,,null,,,,
null,are kissing each other,,html-keyboard-response,390,1479709,0.0-19.0-2.16,37929,List1B,white,man,,,,null,,,,
10315,,,survey-text,391,1490028,0.0-19.0-3.16,37929,List1B,white,man,,,,,"{""Q0"":""Kate and Jane are kissing each other""}","<img src=""stim_listB/kiss8.gif""</stim_listB>",are kissing each other,
null,"<div style=""font-size:60px;"">+</div>",,html-keyboard-response,392,1490531,0.0-19.0-0.17,37929,List1B,white,man,,,,null,,,,
null,"<img src=""stim_listB/kiss1.gif""</stim_listB>",,html-keyboard-response,393,1492535,0.0-19.0-1.17,37929,List1B,white,man,,,,null,,,,
null,is kissing,,html-keyboard-response,394,1494538,0.0-19.0-2.17,37929,List1B,white,man,,,,null,,,,
6113,,,survey-text,395,1500654,0.0-19.0-3.17,37929,List1B,white,man,,,,,"{""Q0"":""Beth is kissing Fred""}","<img src=""stim_listB/kiss1.gif""</stim_listB>",is kissing,
null,"<div style=""font-size:60px;"">+</div>",,html-keyboard-response,396,1501158,0.0-19.0-0.18,37929,List1B,white,man,,,,null,,,,
null,"<img src=""stim_listB/marry5.gif""</stim_listB>",,html-keyboard-response,397,1503161,0.0-19.0-1.18,37929,List1B,white,man,,,,null,,,,
null,is marrying,,html-keyboard-response,398,1505164,0.0-19.0-2.18,37929,List1B,white,man,,,,null,,,,
7867,,,survey-text,399,1513035,0.0-19.0-3.18,37929,List1B,white,man,,,,,"{""Q0"":""Luke is marrying Mike""}","<img src=""stim_listB/marry5.gif""</stim_listB>",is marrying,
null,"<div style=""font-size:60px;"">+</div>",,html-keyboard-response,400,1513538,0.0-19.0-0.19,37929,List1B,white,man,,,,null,,,,
null,"<img src=""stim_listB/shout1.gif""</stim_listB>",,html-keyboard-response,401,1515542,0.0-19.0-1.19,37929,List1B,white,man,,,,null,,,,
null,is shouting at,,html-keyboard-response,402,1517545,0.0-19.0-2.19,37929,List1B,white,man,,,,null,,,,
8570,,,survey-text,403,1526119,0.0-19.0-3.19,37929,List1B,white,man,,,,,"{""Q0"":""Beth is shouting at Fred""}","<img src=""stim_listB/shout1.gif""</stim_listB>",is shouting at,
3672,<p>Thank you for completing that task.</p><p>The final part of this session is a short questionnaire.</p><p>Press Continue.</p>,0,html-button-response,404,1529794,0.0-20.0,37929,List1B,white,man,,,,,,,,
26345,,,survey-text,405,1557146,0.0-21.0,37929,List1B,white,man,,,,,"{""Q0"":""34"",""Q1"":""English"",""Q2"":""English"",""Q3"":""United Kingdom"",""Q4"":""White British"",""Q5"":""Male""}",,,demographics
93903,,,survey-likert,406,1651077,0.0-22.0,37929,List1B,white,man,,,,,"{""Q0"":3,""Q1"":1,""Q2"":1,""Q3"":3,""Q4"":3,""Q5"":3,""Q6"":2,""Q7"":0,""Q8"":0,""Q9"":0,""Q10"":3,""Q11"":1,""Q12"":3,""Q13"":0}",,,likert_race
79905,,,survey-likert,407,1731005,0.0-23.0,37929,List1B,white,man,,,,,"{""Q0"":3,""Q1"":2,""Q2"":1,""Q3"":5,""Q4"":3,""Q5"":5,""Q6"":3,""Q7"":1,""Q8"":5,""Q9"":3,""Q10"":2,""Q11"":2,""Q12"":0,""Q13"":0}",,,likert_gender
5918,,,survey-text,408,1736929,0.0-24.0,37929,List1B,white,man,,,,,"{""Q0"":""ccc""}",,,worker_id
39427,,,external-html,409,1776491,0.0-25.0,37929,List1B,white,man,debrief.html,,,,,,,
