rt,stimulus,button_pressed,trial_type,trial_index,time_elapsed,internal_node_id,subject,list,ppt_race,ppt_gender,url,first_guess,correct,key_press,responses,image_type,phrase_type,test_part
3455,Welcome to the experiment. Press Continue to begin.,0,html-button-response,0,3458,0.0-0.0,3908,List1A,black,woman,,,,,,,,
53820,,,external-html,1,58326,0.0-1.0,3908,List1A,black,woman,consent.html,,,,,,,
17381,"<p>On the next page, you will see portraits of 8 people and their names.</p><p>Your first task is to take a few minutes to memorise the names of these people.</p><p>You will have to recall their names during the rest of the experiment, so it is</p><p>essential that you try to memorise these people and their names as best as you can.</p><br><p><strong>You will then be tested on your memory of these names and portraits.</strong></p><br><p>The experiment will start after you have completed this memory test.</p><br><p>Ready?</p>",0,html-button-response,2,75712,0.0-2.0,3908,List1A,black,woman,,,,,,,,
43992,"<img src='img/portrait_matrix_list1.JPG' style='width:900px;height:500px;''></img><p>If you have memorised all the portraits and names and are ready to start, press Continue.</p><p><strong>Please note: Your memory of these faces will be tested 4 times during this experiment.</strong></p>",0,html-button-response,3,120709,0.0-3.0-0.0,3908,List1A,black,woman,,,,,,,,
4273,"<img src=""portrait/WW2.jpg""style=""width:400px;height:400px;""></img>",1,html-button-response,4,125986,0.0-3.0-1.0,3908,List1A,black,woman,,TRUE,3,,,,,
1863,"<img src=""portrait/WW2.jpg""style=""width:400px;height:400px;""></img>",1,html-button-response,5,128854,0.0-3.0-3.0-0.0,3908,List1A,black,woman,,FALSE,3,,,,,
null,INCORRECT,,html-keyboard-response,6,130359,0.0-3.0-3.0-2.0-0.0,3908,List1A,black,woman,,,,null,,,,
5428,"<img src=""portrait/BW1.jpg""style=""width:400px;height:400px;""></img>",2,html-button-response,7,135794,0.0-3.0-4.0,3908,List1A,black,woman,,TRUE,0,,,,,
5557,"<img src=""portrait/BW1.jpg""style=""width:400px;height:400px;""></img>",0,html-button-response,8,142355,0.0-3.0-6.0-0.0,3908,List1A,black,woman,,FALSE,0,,,,,
null,CORRECT,,html-keyboard-response,9,143858,0.0-3.0-6.0-1.0-0.0,3908,List1A,black,woman,,,,null,,,,
2429,"<img src=""portrait/WM2.jpg""style=""width:400px;height:400px;""></img>",7,html-button-response,10,146291,0.0-3.0-7.0,3908,List1A,black,woman,,TRUE,7,,,,,
null,CORRECT,,html-keyboard-response,11,147794,0.0-3.0-8.0-0.0,3908,List1A,black,woman,,,,null,,,,
2193,"<img src=""portrait/BM1.jpg""style=""width:400px;height:400px;""></img>",4,html-button-response,12,149989,0.0-3.0-10.0,3908,List1A,black,woman,,TRUE,4,,,,,
null,CORRECT,,html-keyboard-response,13,151491,0.0-3.0-11.0-0.0,3908,List1A,black,woman,,,,null,,,,
4525,"<img src=""portrait/BW2.jpg""style=""width:400px;height:400px;""></img>",2,html-button-response,14,156020,0.0-3.0-13.0,3908,List1A,black,woman,,TRUE,2,,,,,
null,CORRECT,,html-keyboard-response,15,157524,0.0-3.0-14.0-0.0,3908,List1A,black,woman,,,,null,,,,
3363,"<img src=""portrait/WW1.jpg""style=""width:400px;height:400px;""></img>",1,html-button-response,16,160891,0.0-3.0-16.0,3908,List1A,black,woman,,TRUE,1,,,,,
null,CORRECT,,html-keyboard-response,17,162393,0.0-3.0-17.0-0.0,3908,List1A,black,woman,,,,null,,,,
5335,"<img src=""portrait/WM1.jpg""style=""width:400px;height:400px;""></img>",6,html-button-response,18,167732,0.0-3.0-19.0,3908,List1A,black,woman,,TRUE,6,,,,,
null,CORRECT,,html-keyboard-response,19,169235,0.0-3.0-20.0-0.0,3908,List1A,black,woman,,,,null,,,,
2928,"<img src=""portrait/BM2.jpg""style=""width:400px;height:400px;""></img>",4,html-button-response,20,172166,0.0-3.0-22.0,3908,List1A,black,woman,,TRUE,5,,,,,
3979,"<img src=""portrait/BM2.jpg""style=""width:400px;height:400px;""></img>",5,html-button-response,21,177149,0.0-3.0-24.0-0.0,3908,List1A,black,woman,,FALSE,5,,,,,
null,CORRECT,,html-keyboard-response,22,178653,0.0-3.0-24.0-1.0-0.0,3908,List1A,black,woman,,,,null,,,,
2853,<p>You got 5 out of 8 right first time. Press Continue.</p>,0,html-button-response,23,181509,0.0-3.0-25.0,3908,List1A,black,woman,,,,,,,,
3790,"As you did not score 100%, the memory game will repeat. Press Continue.",0,html-button-response,24,186303,0.0-3.0-26.0-0.0,3908,List1A,black,woman,,,,,,,,
44598,"<img src='img/portrait_matrix_list1.JPG' style='width:900px;height:500px;''></img><p>If you have memorised all the portraits and names and are ready to start, press Continue.</p><p><strong>Please note: Your memory of these faces will be tested 4 times during this experiment.</strong></p>",0,html-button-response,25,231906,0.0-3.1-0.1,3908,List1A,black,woman,,,,,,,,
1853,"<img src=""portrait/WW2.jpg""style=""width:400px;height:400px;""></img>",3,html-button-response,26,234763,0.0-3.1-1.1,3908,List1A,black,woman,,TRUE,3,,,,,
null,CORRECT,,html-keyboard-response,27,236265,0.0-3.1-2.1-0.1,3908,List1A,black,woman,,,,null,,,,
8141,"<img src=""portrait/BW1.jpg""style=""width:400px;height:400px;""></img>",0,html-button-response,28,244409,0.0-3.1-4.1,3908,List1A,black,woman,,TRUE,0,,,,,
null,CORRECT,,html-keyboard-response,29,245912,0.0-3.1-5.1-0.1,3908,List1A,black,woman,,,,null,,,,
10371,"<img src=""portrait/WM2.jpg""style=""width:400px;height:400px;""></img>",7,html-button-response,30,256286,0.0-3.1-7.1,3908,List1A,black,woman,,TRUE,7,,,,,
null,CORRECT,,html-keyboard-response,31,257789,0.0-3.1-8.1-0.1,3908,List1A,black,woman,,,,null,,,,
2081,"<img src=""portrait/BM1.jpg""style=""width:400px;height:400px;""></img>",4,html-button-response,32,259872,0.0-3.1-10.1,3908,List1A,black,woman,,TRUE,4,,,,,
null,CORRECT,,html-keyboard-response,33,261376,0.0-3.1-11.1-0.1,3908,List1A,black,woman,,,,null,,,,
10334,"<img src=""portrait/BW2.jpg""style=""width:400px;height:400px;""></img>",2,html-button-response,34,271714,0.0-3.1-13.1,3908,List1A,black,woman,,TRUE,2,,,,,
null,CORRECT,,html-keyboard-response,35,273217,0.0-3.1-14.1-0.1,3908,List1A,black,woman,,,,null,,,,
9286,"<img src=""portrait/WW1.jpg""style=""width:400px;height:400px;""></img>",3,html-button-response,36,282506,0.0-3.1-16.1,3908,List1A,black,woman,,TRUE,1,,,,,
3370,"<img src=""portrait/WW1.jpg""style=""width:400px;height:400px;""></img>",1,html-button-response,37,286880,0.0-3.1-18.1-0.1,3908,List1A,black,woman,,FALSE,1,,,,,
null,CORRECT,,html-keyboard-response,38,288384,0.0-3.1-18.1-1.1-0.1,3908,List1A,black,woman,,,,null,,,,
4613,"<img src=""portrait/WM1.jpg""style=""width:400px;height:400px;""></img>",6,html-button-response,39,293000,0.0-3.1-19.1,3908,List1A,black,woman,,TRUE,6,,,,,
null,CORRECT,,html-keyboard-response,40,294503,0.0-3.1-20.1-0.1,3908,List1A,black,woman,,,,null,,,,
3495,"<img src=""portrait/BM2.jpg""style=""width:400px;height:400px;""></img>",4,html-button-response,41,298002,0.0-3.1-22.1,3908,List1A,black,woman,,TRUE,5,,,,,
2049,"<img src=""portrait/BM2.jpg""style=""width:400px;height:400px;""></img>",5,html-button-response,42,301055,0.0-3.1-24.1-0.1,3908,List1A,black,woman,,FALSE,5,,,,,
null,CORRECT,,html-keyboard-response,43,302557,0.0-3.1-24.1-1.1-0.1,3908,List1A,black,woman,,,,null,,,,
1984,<p>You got 6 out of 8 right first time. Press Continue.</p>,0,html-button-response,44,304544,0.0-3.1-25.1,3908,List1A,black,woman,,,,,,,,
1865,"As you did not score 100%, the memory game will repeat. Press Continue.",0,html-button-response,45,307412,0.0-3.1-26.1-0.1,3908,List1A,black,woman,,,,,,,,
65026,"<img src='img/portrait_matrix_list1.JPG' style='width:900px;height:500px;''></img><p>If you have memorised all the portraits and names and are ready to start, press Continue.</p><p><strong>Please note: Your memory of these faces will be tested 4 times during this experiment.</strong></p>",0,html-button-response,46,373444,0.0-3.2-0.2,3908,List1A,black,woman,,,,,,,,
14502,"<img src=""portrait/WW2.jpg""style=""width:400px;height:400px;""></img>",0,html-button-response,47,388951,0.0-3.2-1.2,3908,List1A,black,woman,,TRUE,3,,,,,
5443,"<img src=""portrait/WW2.jpg""style=""width:400px;height:400px;""></img>",3,html-button-response,48,395399,0.0-3.2-3.2-0.2,3908,List1A,black,woman,,FALSE,3,,,,,
null,CORRECT,,html-keyboard-response,49,396902,0.0-3.2-3.2-1.2-0.2,3908,List1A,black,woman,,,,null,,,,
14400,"<img src=""portrait/BW1.jpg""style=""width:400px;height:400px;""></img>",0,html-button-response,50,411305,0.0-3.2-4.2,3908,List1A,black,woman,,TRUE,0,,,,,
null,CORRECT,,html-keyboard-response,51,412808,0.0-3.2-5.2-0.2,3908,List1A,black,woman,,,,null,,,,
3599,"<img src=""portrait/WM2.jpg""style=""width:400px;height:400px;""></img>",7,html-button-response,52,416418,0.0-3.2-7.2,3908,List1A,black,woman,,TRUE,7,,,,,
null,CORRECT,,html-keyboard-response,53,417921,0.0-3.2-8.2-0.2,3908,List1A,black,woman,,,,null,,,,
9439,"<img src=""portrait/BM1.jpg""style=""width:400px;height:400px;""></img>",4,html-button-response,54,427364,0.0-3.2-10.2,3908,List1A,black,woman,,TRUE,4,,,,,
null,CORRECT,,html-keyboard-response,55,428867,0.0-3.2-11.2-0.2,3908,List1A,black,woman,,,,null,,,,
5995,"<img src=""portrait/BW2.jpg""style=""width:400px;height:400px;""></img>",2,html-button-response,56,434867,0.0-3.2-13.2,3908,List1A,black,woman,,TRUE,2,,,,,
null,CORRECT,,html-keyboard-response,57,436370,0.0-3.2-14.2-0.2,3908,List1A,black,woman,,,,null,,,,
16127,"<img src=""portrait/WW1.jpg""style=""width:400px;height:400px;""></img>",1,html-button-response,58,452500,0.0-3.2-16.2,3908,List1A,black,woman,,TRUE,1,,,,,
null,CORRECT,,html-keyboard-response,59,454004,0.0-3.2-17.2-0.2,3908,List1A,black,woman,,,,null,,,,
5324,"<img src=""portrait/WM1.jpg""style=""width:400px;height:400px;""></img>",6,html-button-response,60,459331,0.0-3.2-19.2,3908,List1A,black,woman,,TRUE,6,,,,,
null,CORRECT,,html-keyboard-response,61,460834,0.0-3.2-20.2-0.2,3908,List1A,black,woman,,,,null,,,,
6324,"<img src=""portrait/BM2.jpg""style=""width:400px;height:400px;""></img>",5,html-button-response,62,467162,0.0-3.2-22.2,3908,List1A,black,woman,,TRUE,5,,,,,
null,CORRECT,,html-keyboard-response,63,468665,0.0-3.2-23.2-0.2,3908,List1A,black,woman,,,,null,,,,
2681,<p>You got 7 out of 8 right first time. Press Continue.</p>,0,html-button-response,64,471349,0.0-3.2-25.2,3908,List1A,black,woman,,,,,,,,
1651,"As you did not score 100%, the memory game will repeat. Press Continue.",0,html-button-response,65,474004,0.0-3.2-26.2-0.2,3908,List1A,black,woman,,,,,,,,
5144,"<img src='img/portrait_matrix_list1.JPG' style='width:900px;height:500px;''></img><p>If you have memorised all the portraits and names and are ready to start, press Continue.</p><p><strong>Please note: Your memory of these faces will be tested 4 times during this experiment.</strong></p>",0,html-button-response,66,480151,0.0-3.3-0.3,3908,List1A,black,woman,,,,,,,,
13002,"<img src=""portrait/WW2.jpg""style=""width:400px;height:400px;""></img>",3,html-button-response,67,494158,0.0-3.3-1.3,3908,List1A,black,woman,,TRUE,3,,,,,
null,CORRECT,,html-keyboard-response,68,495664,0.0-3.3-2.3-0.3,3908,List1A,black,woman,,,,null,,,,
12228,"<img src=""portrait/BW1.jpg""style=""width:400px;height:400px;""></img>",0,html-button-response,69,507895,0.0-3.3-4.3,3908,List1A,black,woman,,TRUE,0,,,,,
null,CORRECT,,html-keyboard-response,70,509398,0.0-3.3-5.3-0.3,3908,List1A,black,woman,,,,null,,,,
3284,"<img src=""portrait/WM2.jpg""style=""width:400px;height:400px;""></img>",7,html-button-response,71,512686,0.0-3.3-7.3,3908,List1A,black,woman,,TRUE,7,,,,,
null,CORRECT,,html-keyboard-response,72,514188,0.0-3.3-8.3-0.3,3908,List1A,black,woman,,,,null,,,,
9131,"<img src=""portrait/BM1.jpg""style=""width:400px;height:400px;""></img>",4,html-button-response,73,523323,0.0-3.3-10.3,3908,List1A,black,woman,,TRUE,4,,,,,
null,CORRECT,,html-keyboard-response,74,524826,0.0-3.3-11.3-0.3,3908,List1A,black,woman,,,,null,,,,
3667,"<img src=""portrait/BW2.jpg""style=""width:400px;height:400px;""></img>",2,html-button-response,75,528496,0.0-3.3-13.3,3908,List1A,black,woman,,TRUE,2,,,,,
null,CORRECT,,html-keyboard-response,76,529998,0.0-3.3-14.3-0.3,3908,List1A,black,woman,,,,null,,,,
4976,"<img src=""portrait/WW1.jpg""style=""width:400px;height:400px;""></img>",1,html-button-response,77,534976,0.0-3.3-16.3,3908,List1A,black,woman,,TRUE,1,,,,,
null,CORRECT,,html-keyboard-response,78,536479,0.0-3.3-17.3-0.3,3908,List1A,black,woman,,,,null,,,,
3496,"<img src=""portrait/WM1.jpg""style=""width:400px;height:400px;""></img>",6,html-button-response,79,539978,0.0-3.3-19.3,3908,List1A,black,woman,,TRUE,6,,,,,
null,CORRECT,,html-keyboard-response,80,541480,0.0-3.3-20.3-0.3,3908,List1A,black,woman,,,,null,,,,
5290,"<img src=""portrait/BM2.jpg""style=""width:400px;height:400px;""></img>",5,html-button-response,81,546772,0.0-3.3-22.3,3908,List1A,black,woman,,TRUE,5,,,,,
null,CORRECT,,html-keyboard-response,82,548274,0.0-3.3-23.3-0.3,3908,List1A,black,woman,,,,null,,,,
1625,<p>You got 8 out of 8 right first time. Press Continue.</p>,0,html-button-response,83,549901,0.0-3.3-25.3,3908,List1A,black,woman,,,,,,,,
48769,"<p>In this experiment, you will view photographs of the people from the memory game interacting.</p><p>By using the <strong>exact</strong> phrase given <i>after</i> the photograph appears and recalling the correct names of the people in the photographs, form a sentence describing the interaction. You do not need to capitalise names.</p><p>Type your answer in the space provided. Please complete every sentence before moving onto the next trial.</p><p>You will only have a few seconds to memorise each given photograph and phrase before you can respond, so try your best to focus.</p><p>An example is given below. Press 'Continue' when you are ready.</p><img src='img/speaking_example_v2.jpg' style='width:800px;height:460px;''></img>",0,html-button-response,84,599672,0.0-4.0,3908,List1A,black,woman,,,,,,,,
1642,"<p>Before the experiment starts, you will watch two example trials. Press 'Continue'.</p>",0,html-button-response,85,602317,0.0-5.0,3908,List1A,black,woman,,,,,,,,
null,<img src='img/speaking_WW.gif'></img>,,html-keyboard-response,86,605321,0.0-6.0,3908,List1A,black,woman,,,,null,,,,
null,<p>is speaking to</p>,,html-keyboard-response,87,607323,0.0-7.0,3908,List1A,black,woman,,,,null,,,,
3321,<p><b>Answer:</b> kate is speaking to beth</p>,0,html-button-response,88,610646,0.0-8.0,3908,List1A,black,woman,,,,,,,,
null,<img src='img/pointing_BM.gif'></img>,,html-keyboard-response,89,613649,0.0-9.0,3908,List1A,black,woman,,,,null,,,,
null,<p>are pointing at each other</p>,,html-keyboard-response,90,615651,0.0-10.0,3908,List1A,black,woman,,,,null,,,,
1352,<p><b>Answer:</b> luke and dave are pointing at each other</p>,0,html-button-response,91,617005,0.0-11.0,3908,List1A,black,woman,,,,,,,,
5908,"<p>Ready to start the experiment?</p><br><p><strong>Remember to describe the picture using a full sentence,</strong></p><p><strong> that combines the names of the people with the given phrase.</strong></p><p><strong> You do not need to capitalise names or use punctuation.</strong></p><br><p>Press 'Continue' to begin.</p>",0,html-button-response,92,623915,0.0-12.0,3908,List1A,black,woman,,,,,,,,
null,"<div style=""font-size:60px;"">+</div>",,html-keyboard-response,93,625418,0.0-13.0-0.0,3908,List1A,black,woman,,,,null,,,,
null,"<img src=""stim_listA/dance4.gif""</stim_listA>",,html-keyboard-response,94,627422,0.0-13.0-1.0,3908,List1A,black,woman,,,,null,,,,
null,are dancing with each other,,html-keyboard-response,95,629424,0.0-13.0-2.0,3908,List1A,black,woman,,,,null,,,,
15188,,,survey-text,96,644616,0.0-13.0-3.0,3908,List1A,black,woman,,,,,"{""Q0"":""dave is dancing with kate""}","<img src=""stim_listA/dance4.gif""</stim_listA>",are dancing with each other,
null,"<div style=""font-size:60px;"">+</div>",,html-keyboard-response,97,645118,0.0-13.0-0.1,3908,List1A,black,woman,,,,null,,,,
null,"<img src=""stim_listA/shout4.gif""</stim_listA>",,html-keyboard-response,98,647120,0.0-13.0-1.1,3908,List1A,black,woman,,,,null,,,,
null,are shouting at each other,,html-keyboard-response,99,649121,0.0-13.0-2.1,3908,List1A,black,woman,,,,null,,,,
10923,,,survey-text,100,660046,0.0-13.0-3.1,3908,List1A,black,woman,,,,,"{""Q0"":""jane is shouting at dave""}","<img src=""stim_listA/shout4.gif""</stim_listA>",are shouting at each other,
null,"<div style=""font-size:60px;"">+</div>",,html-keyboard-response,101,660549,0.0-13.0-0.2,3908,List1A,black,woman,,,,null,,,,
null,"<img src=""stim_listA/argue8.gif""</stim_listA>",,html-keyboard-response,102,662553,0.0-13.0-1.2,3908,List1A,black,woman,,,,null,,,,
null,are arguing with each other,,html-keyboard-response,103,664555,0.0-13.0-2.2,3908,List1A,black,woman,,,,null,,,,
23043,,,survey-text,104,687601,0.0-13.0-3.2,3908,List1A,black,woman,,,,,"{""Q0"":""jane is pointing at ruth""}","<img src=""stim_listA/argue8.gif""</stim_listA>",are arguing with each other,
null,"<div style=""font-size:60px;"">+</div>",,html-keyboard-response,105,688103,0.0-13.0-0.3,3908,List1A,black,woman,,,,null,,,,
null,"<img src=""stim_listA/touch7.gif""</stim_listA>",,html-keyboard-response,106,690106,0.0-13.0-1.3,3908,List1A,black,woman,,,,null,,,,
null,is touching,,html-keyboard-response,107,692108,0.0-13.0-2.3,3908,List1A,black,woman,,,,null,,,,
10357,,,survey-text,108,702468,0.0-13.0-3.3,3908,List1A,black,woman,,,,,"{""Q0"":""jane is touching kate""}","<img src=""stim_listA/touch7.gif""</stim_listA>",is touching,
null,"<div style=""font-size:60px;"">+</div>",,html-keyboard-response,109,702969,0.0-13.0-0.4,3908,List1A,black,woman,,,,null,,,,
null,"<img src=""stim_listA/fight2.gif""</stim_listA>",,html-keyboard-response,110,704971,0.0-13.0-1.4,3908,List1A,black,woman,,,,null,,,,
null,are fighting each other,,html-keyboard-response,111,706972,0.0-13.0-2.4,3908,List1A,black,woman,,,,null,,,,
6789,,,survey-text,112,713762,0.0-13.0-3.4,3908,List1A,black,woman,,,,,"{""Q0"":""beth is fighting mike""}","<img src=""stim_listA/fight2.gif""</stim_listA>",are fighting each other,
null,"<div style=""font-size:60px;"">+</div>",,html-keyboard-response,113,714265,0.0-13.0-0.5,3908,List1A,black,woman,,,,null,,,,
null,"<img src=""stim_listA/argue4.gif""</stim_listA>",,html-keyboard-response,114,716268,0.0-13.0-1.5,3908,List1A,black,woman,,,,null,,,,
null,are arguing with each other,,html-keyboard-response,115,718270,0.0-13.0-2.5,3908,List1A,black,woman,,,,null,,,,
12621,,,survey-text,116,730896,0.0-13.0-3.5,3908,List1A,black,woman,,,,,"{""Q0"":""luke is arguing with jane""}","<img src=""stim_listA/argue4.gif""</stim_listA>",are arguing with each other,
null,"<div style=""font-size:60px;"">+</div>",,html-keyboard-response,117,731398,0.0-13.0-0.6,3908,List1A,black,woman,,,,null,,,,
null,"<img src=""stim_listA/meet2.gif""</stim_listA>",,html-keyboard-response,118,733402,0.0-13.0-1.6,3908,List1A,black,woman,,,,null,,,,
null,are meeting each other,,html-keyboard-response,119,735404,0.0-13.0-2.6,3908,List1A,black,woman,,,,null,,,,
24836,,,survey-text,120,760242,0.0-13.0-3.6,3908,List1A,black,woman,,,,,"{""Q0"":""fred and beth are meeting eah other""}","<img src=""stim_listA/meet2.gif""</stim_listA>",are meeting each other,
null,"<div style=""font-size:60px;"">+</div>",,html-keyboard-response,121,760744,0.0-13.0-0.7,3908,List1A,black,woman,,,,null,,,,
null,"<img src=""stim_listA/talk1.gif""</stim_listA>",,html-keyboard-response,122,762746,0.0-13.0-1.7,3908,List1A,black,woman,,,,null,,,,
null,is talking to,,html-keyboard-response,123,764748,0.0-13.0-2.7,3908,List1A,black,woman,,,,null,,,,
12075,,,survey-text,124,776826,0.0-13.0-3.7,3908,List1A,black,woman,,,,,"{""Q0"":""fred is talking to kate""}","<img src=""stim_listA/talk1.gif""</stim_listA>",is talking to,
null,"<div style=""font-size:60px;"">+</div>",,html-keyboard-response,125,777329,0.0-13.0-0.8,3908,List1A,black,woman,,,,null,,,,
null,"<img src=""stim_listA/argue3.gif""</stim_listA>",,html-keyboard-response,126,779332,0.0-13.0-1.8,3908,List1A,black,woman,,,,null,,,,
null,is arguing with,,html-keyboard-response,127,781333,0.0-13.0-2.8,3908,List1A,black,woman,,,,null,,,,
17345,,,survey-text,128,798681,0.0-13.0-3.8,3908,List1A,black,woman,,,,,"{""Q0"":""fred and ruth are pointing at each other""}","<img src=""stim_listA/argue3.gif""</stim_listA>",is arguing with,
null,"<div style=""font-size:60px;"">+</div>",,html-keyboard-response,129,799184,0.0-13.0-0.9,3908,List1A,black,woman,,,,null,,,,
null,"<img src=""stim_listA/talk2.gif""</stim_listA>",,html-keyboard-response,130,801187,0.0-13.0-1.9,3908,List1A,black,woman,,,,null,,,,
null,are talking to each other,,html-keyboard-response,131,803189,0.0-13.0-2.9,3908,List1A,black,woman,,,,null,,,,
13606,,,survey-text,132,816797,0.0-13.0-3.9,3908,List1A,black,woman,,,,,"{""Q0"":""mike and kate are talking to each other""}","<img src=""stim_listA/talk2.gif""</stim_listA>",are talking to each other,
null,"<div style=""font-size:60px;"">+</div>",,html-keyboard-response,133,817300,0.0-13.0-0.10,3908,List1A,black,woman,,,,null,,,,
null,"<img src=""stim_listA/touch5.gif""</stim_listA>",,html-keyboard-response,134,819303,0.0-13.0-1.10,3908,List1A,black,woman,,,,null,,,,
null,is touching,,html-keyboard-response,135,821305,0.0-13.0-2.10,3908,List1A,black,woman,,,,null,,,,
12564,,,survey-text,136,833871,0.0-13.0-3.10,3908,List1A,black,woman,,,,,"{""Q0"":""dave is touching mike""}","<img src=""stim_listA/touch5.gif""</stim_listA>",is touching,
null,"<div style=""font-size:60px;"">+</div>",,html-keyboard-response,137,834372,0.0-13.0-0.11,3908,List1A,black,woman,,,,null,,,,
null,"<img src=""stim_listA/talk5.gif""</stim_listA>",,html-keyboard-response,138,836374,0.0-13.0-1.11,3908,List1A,black,woman,,,,null,,,,
null,is talking to,,html-keyboard-response,139,838376,0.0-13.0-2.11,3908,List1A,black,woman,,,,null,,,,
6517,,,survey-text,140,844894,0.0-13.0-3.11,3908,List1A,black,woman,,,,,"{""Q0"":""fred is talking to dave""}","<img src=""stim_listA/talk5.gif""</stim_listA>",is talking to,
null,"<div style=""font-size:60px;"">+</div>",,html-keyboard-response,141,845396,0.0-13.0-0.12,3908,List1A,black,woman,,,,null,,,,
null,"<img src=""stim_listA/hug5.gif""</stim_listA>",,html-keyboard-response,142,847399,0.0-13.0-1.12,3908,List1A,black,woman,,,,null,,,,
null,is hugging,,html-keyboard-response,143,849402,0.0-13.0-2.12,3908,List1A,black,woman,,,,null,,,,
9937,,,survey-text,144,859341,0.0-13.0-3.12,3908,List1A,black,woman,,,,,"{""Q0"":""fred is hugging luke""}","<img src=""stim_listA/hug5.gif""</stim_listA>",is hugging,
null,"<div style=""font-size:60px;"">+</div>",,html-keyboard-response,145,859843,0.0-13.0-0.13,3908,List1A,black,woman,,,,null,,,,
null,"<img src=""stim_listA/marry8.gif""</stim_listA>",,html-keyboard-response,146,861846,0.0-13.0-1.13,3908,List1A,black,woman,,,,null,,,,
null,are marrying each other,,html-keyboard-response,147,863848,0.0-13.0-2.13,3908,List1A,black,woman,,,,null,,,,
10466,,,survey-text,148,874316,0.0-13.0-3.13,3908,List1A,black,woman,,,,,"{""Q0"":""beth is ? jane""}","<img src=""stim_listA/marry8.gif""</stim_listA>",are marrying each other,
null,"<div style=""font-size:60px;"">+</div>",,html-keyboard-response,149,874818,0.0-13.0-0.14,3908,List1A,black,woman,,,,null,,,,
null,"<img src=""stim_listA/hug8.gif""</stim_listA>",,html-keyboard-response,150,876822,0.0-13.0-1.14,3908,List1A,black,woman,,,,null,,,,
null,are hugging each other,,html-keyboard-response,151,878823,0.0-13.0-2.14,3908,List1A,black,woman,,,,null,,,,
13000,,,survey-text,152,891826,0.0-13.0-3.14,3908,List1A,black,woman,,,,,"{""Q0"":""jane and kate are hugging each other""}","<img src=""stim_listA/hug8.gif""</stim_listA>",are hugging each other,
null,"<div style=""font-size:60px;"">+</div>",,html-keyboard-response,153,892330,0.0-13.0-0.15,3908,List1A,black,woman,,,,null,,,,
null,"<img src=""stim_listA/touch4.gif""</stim_listA>",,html-keyboard-response,154,894333,0.0-13.0-1.15,3908,List1A,black,woman,,,,null,,,,
null,are touching each other,,html-keyboard-response,155,896336,0.0-13.0-2.15,3908,List1A,black,woman,,,,null,,,,
19580,,,survey-text,156,915918,0.0-13.0-3.15,3908,List1A,black,woman,,,,,"{""Q0"":""luke and ruth are touching each other""}","<img src=""stim_listA/touch4.gif""</stim_listA>",are touching each other,
null,"<div style=""font-size:60px;"">+</div>",,html-keyboard-response,157,916420,0.0-13.0-0.16,3908,List1A,black,woman,,,,null,,,,
null,"<img src=""stim_listA/dance3.gif""</stim_listA>",,html-keyboard-response,158,918424,0.0-13.0-1.16,3908,List1A,black,woman,,,,null,,,,
null,is dancing with,,html-keyboard-response,159,920425,0.0-13.0-2.16,3908,List1A,black,woman,,,,null,,,,
9504,,,survey-text,160,929930,0.0-13.0-3.16,3908,List1A,black,woman,,,,,"{""Q0"":""luke is dancng with kate""}","<img src=""stim_listA/dance3.gif""</stim_listA>",is dancing with,
null,"<div style=""font-size:60px;"">+</div>",,html-keyboard-response,161,930432,0.0-13.0-0.17,3908,List1A,black,woman,,,,null,,,,
null,"<img src=""stim_listA/touch3.gif""</stim_listA>",,html-keyboard-response,162,932435,0.0-13.0-1.17,3908,List1A,black,woman,,,,null,,,,
null,is touching,,html-keyboard-response,163,934437,0.0-13.0-2.17,3908,List1A,black,woman,,,,null,,,,
10085,,,survey-text,164,944524,0.0-13.0-3.17,3908,List1A,black,woman,,,,,"{""Q0"":""jane is touching dave""}","<img src=""stim_listA/touch3.gif""</stim_listA>",is touching,
null,"<div style=""font-size:60px;"">+</div>",,html-keyboard-response,165,945026,0.0-13.0-0.18,3908,List1A,black,woman,,,,null,,,,
null,"<img src=""stim_listA/talk6.gif""</stim_listA>",,html-keyboard-response,166,947028,0.0-13.0-1.18,3908,List1A,black,woman,,,,null,,,,
null,are talking to each other,,html-keyboard-response,167,949030,0.0-13.0-2.18,3908,List1A,black,woman,,,,null,,,,
12226,,,survey-text,168,961258,0.0-13.0-3.18,3908,List1A,black,woman,,,,,"{""Q0"":""mike and luke are talking to each other""}","<img src=""stim_listA/talk6.gif""</stim_listA>",are talking to each other,
null,"<div style=""font-size:60px;"">+</div>",,html-keyboard-response,169,961760,0.0-13.0-0.19,3908,List1A,black,woman,,,,null,,,,
null,"<img src=""stim_listA/shout3.gif""</stim_listA>",,html-keyboard-response,170,963763,0.0-13.0-1.19,3908,List1A,black,woman,,,,null,,,,
null,is shouting at,,html-keyboard-response,171,965765,0.0-13.0-2.19,3908,List1A,black,woman,,,,null,,,,
6993,,,survey-text,172,972760,0.0-13.0-3.19,3908,List1A,black,woman,,,,,"{""Q0"":""mike is shouting at ruth""}","<img src=""stim_listA/shout3.gif""</stim_listA>",is shouting at,
8043,"<img src='img/portrait_matrix_list1.JPG' style='width:900px;height:500px;''></img><p>If you have memorised all the portraits and names and are ready to start, press Continue.</p><p><strong>Please note: Your memory of these faces will be tested 4 times during this experiment.</strong></p>",0,html-button-response,173,980807,0.0-14.0-0.0,3908,List1A,black,woman,,,,,,,,
6000,"<img src=""portrait/WW2.jpg""style=""width:400px;height:400px;""></img>",3,html-button-response,174,987813,0.0-14.0-1.0,3908,List1A,black,woman,,TRUE,3,,,,,
null,CORRECT,,html-keyboard-response,175,989317,0.0-14.0-2.0-0.0,3908,List1A,black,woman,,,,null,,,,
1714,"<img src=""portrait/BW2.jpg""style=""width:400px;height:400px;""></img>",2,html-button-response,176,991034,0.0-14.0-4.0,3908,List1A,black,woman,,TRUE,2,,,,,
null,CORRECT,,html-keyboard-response,177,992537,0.0-14.0-5.0-0.0,3908,List1A,black,woman,,,,null,,,,
4325,"<img src=""portrait/WW1.jpg""style=""width:400px;height:400px;""></img>",1,html-button-response,178,996865,0.0-14.0-7.0,3908,List1A,black,woman,,TRUE,1,,,,,
null,CORRECT,,html-keyboard-response,179,998400,0.0-14.0-8.0-0.0,3908,List1A,black,woman,,,,null,,,,
1846,"<img src=""portrait/WM2.jpg""style=""width:400px;height:400px;""></img>",7,html-button-response,180,1000254,0.0-14.0-10.0,3908,List1A,black,woman,,TRUE,7,,,,,
null,CORRECT,,html-keyboard-response,181,1001757,0.0-14.0-11.0-0.0,3908,List1A,black,woman,,,,null,,,,
3174,"<img src=""portrait/BW1.jpg""style=""width:400px;height:400px;""></img>",0,html-button-response,182,1004933,0.0-14.0-13.0,3908,List1A,black,woman,,TRUE,0,,,,,
null,CORRECT,,html-keyboard-response,183,1006436,0.0-14.0-14.0-0.0,3908,List1A,black,woman,,,,null,,,,
4966,"<img src=""portrait/BM1.jpg""style=""width:400px;height:400px;""></img>",4,html-button-response,184,1011407,0.0-14.0-16.0,3908,List1A,black,woman,,TRUE,4,,,,,
null,CORRECT,,html-keyboard-response,185,1012911,0.0-14.0-17.0-0.0,3908,List1A,black,woman,,,,null,,,,
5515,"<img src=""portrait/BM2.jpg""style=""width:400px;height:400px;""></img>",5,html-button-response,186,1018430,0.0-14.0-19.0,3908,List1A,black,woman,,TRUE,5,,,,,
null,CORRECT,,html-keyboard-response,187,1019933,0.0-14.0-20.0-0.0,3908,List1A,black,woman,,,,null,,,,
2341,"<img src=""portrait/WM1.jpg""style=""width:400px;height:400px;""></img>",6,html-button-response,188,1022275,0.0-14.0-22.0,3908,List1A,black,woman,,TRUE,6,,,,,
null,CORRECT,,html-keyboard-response,189,1023778,0.0-14.0-23.0-0.0,3908,List1A,black,woman,,,,null,,,,
1817,<p>You got 8 out of 8 right first time. Press Continue.</p>,0,html-button-response,190,1025598,0.0-14.0-25.0,3908,List1A,black,woman,,,,,,,,
null,"<div style=""font-size:60px;"">+</div>",,html-keyboard-response,191,1027102,0.0-15.0-0.0,3908,List1A,black,woman,,,,null,,,,
null,"<img src=""stim_listA/shout7.gif""</stim_listA>",,html-keyboard-response,192,1029106,0.0-15.0-1.0,3908,List1A,black,woman,,,,null,,,,
null,is shouting at,,html-keyboard-response,193,1031107,0.0-15.0-2.0,3908,List1A,black,woman,,,,null,,,,
11070,,,survey-text,194,1042178,0.0-15.0-3.0,3908,List1A,black,woman,,,,,"{""Q0"":""beth is shouting at ruth""}","<img src=""stim_listA/shout7.gif""</stim_listA>",is shouting at,
null,"<div style=""font-size:60px;"">+</div>",,html-keyboard-response,195,1042681,0.0-15.0-0.1,3908,List1A,black,woman,,,,null,,,,
null,"<img src=""stim_listA/marry3.gif""</stim_listA>",,html-keyboard-response,196,1044685,0.0-15.0-1.1,3908,List1A,black,woman,,,,null,,,,
null,is marrying,,html-keyboard-response,197,1046687,0.0-15.0-2.1,3908,List1A,black,woman,,,,null,,,,
10551,,,survey-text,198,1057241,0.0-15.0-3.1,3908,List1A,black,woman,,,,,"{""Q0"":""dave is marrying ruth""}","<img src=""stim_listA/marry3.gif""</stim_listA>",is marrying,
null,"<div style=""font-size:60px;"">+</div>",,html-keyboard-response,199,1057744,0.0-15.0-0.2,3908,List1A,black,woman,,,,null,,,,
null,"<img src=""stim_listA/kiss7.gif""</stim_listA>",,html-keyboard-response,200,1059748,0.0-15.0-1.2,3908,List1A,black,woman,,,,null,,,,
null,is kissing,,html-keyboard-response,201,1061750,0.0-15.0-2.2,3908,List1A,black,woman,,,,null,,,,
6083,,,survey-text,202,1067836,0.0-15.0-3.2,3908,List1A,black,woman,,,,,"{""Q0"":""beth is kissing ruth""}","<img src=""stim_listA/kiss7.gif""</stim_listA>",is kissing,
null,"<div style=""font-size:60px;"">+</div>",,html-keyboard-response,203,1068339,0.0-15.0-0.3,3908,List1A,black,woman,,,,null,,,,
null,"<img src=""stim_listA/fight3.gif""</stim_listA>",,html-keyboard-response,204,1070343,0.0-15.0-1.3,3908,List1A,black,woman,,,,null,,,,
null,is fighting,,html-keyboard-response,205,1072345,0.0-15.0-2.3,3908,List1A,black,woman,,,,null,,,,
7613,,,survey-text,206,1079960,0.0-15.0-3.3,3908,List1A,black,woman,,,,,"{""Q0"":""dave is fighting jane""}","<img src=""stim_listA/fight3.gif""</stim_listA>",is fighting,
null,"<div style=""font-size:60px;"">+</div>",,html-keyboard-response,207,1080462,0.0-15.0-0.4,3908,List1A,black,woman,,,,null,,,,
null,"<img src=""stim_listA/touch1.gif""</stim_listA>",,html-keyboard-response,208,1082466,0.0-15.0-1.4,3908,List1A,black,woman,,,,null,,,,
null,is touching,,html-keyboard-response,209,1084468,0.0-15.0-2.4,3908,List1A,black,woman,,,,null,,,,
7658,,,survey-text,210,1092128,0.0-15.0-3.4,3908,List1A,black,woman,,,,,"{""Q0"":""mike is touching kate""}","<img src=""stim_listA/touch1.gif""</stim_listA>",is touching,
null,"<div style=""font-size:60px;"">+</div>",,html-keyboard-response,211,1092630,0.0-15.0-0.5,3908,List1A,black,woman,,,,null,,,,
null,"<img src=""stim_listA/meet8.gif""</stim_listA>",,html-keyboard-response,212,1094634,0.0-15.0-1.5,3908,List1A,black,woman,,,,null,,,,
null,are meeting each other,,html-keyboard-response,213,1096636,0.0-15.0-2.5,3908,List1A,black,woman,,,,null,,,,
14656,,,survey-text,214,1111295,0.0-15.0-3.5,3908,List1A,black,woman,,,,,"{""Q0"":""ruth and beth are meeting each other""}","<img src=""stim_listA/meet8.gif""</stim_listA>",are meeting each other,
null,"<div style=""font-size:60px;"">+</div>",,html-keyboard-response,215,1111798,0.0-15.0-0.6,3908,List1A,black,woman,,,,null,,,,
null,"<img src=""stim_listA/hug7.gif""</stim_listA>",,html-keyboard-response,216,1113802,0.0-15.0-1.6,3908,List1A,black,woman,,,,null,,,,
null,is hugging,,html-keyboard-response,217,1115805,0.0-15.0-2.6,3908,List1A,black,woman,,,,null,,,,
6230,,,survey-text,218,1122037,0.0-15.0-3.6,3908,List1A,black,woman,,,,,"{""Q0"":""ruth is hugging beth""}","<img src=""stim_listA/hug7.gif""</stim_listA>",is hugging,
null,"<div style=""font-size:60px;"">+</div>",,html-keyboard-response,219,1122539,0.0-15.0-0.7,3908,List1A,black,woman,,,,null,,,,
null,"<img src=""stim_listA/touch8.gif""</stim_listA>",,html-keyboard-response,220,1124542,0.0-15.0-1.7,3908,List1A,black,woman,,,,null,,,,
null,are touching each other,,html-keyboard-response,221,1126544,0.0-15.0-2.7,3908,List1A,black,woman,,,,null,,,,
8870,,,survey-text,222,1135417,0.0-15.0-3.7,3908,List1A,black,woman,,,,,"{""Q0"":""ruth and beth are touching each other""}","<img src=""stim_listA/touch8.gif""</stim_listA>",are touching each other,
null,"<div style=""font-size:60px;"">+</div>",,html-keyboard-response,223,1135919,0.0-15.0-0.8,3908,List1A,black,woman,,,,null,,,,
null,"<img src=""stim_listA/kiss3.gif""</stim_listA>",,html-keyboard-response,224,1137922,0.0-15.0-1.8,3908,List1A,black,woman,,,,null,,,,
null,is kissing,,html-keyboard-response,225,1139924,0.0-15.0-2.8,3908,List1A,black,woman,,,,null,,,,
11579,,,survey-text,226,1151505,0.0-15.0-3.8,3908,List1A,black,woman,,,,,"{""Q0"":""luke and ruth are kissing each other""}","<img src=""stim_listA/kiss3.gif""</stim_listA>",is kissing,
null,"<div style=""font-size:60px;"">+</div>",,html-keyboard-response,227,1152010,0.0-15.0-0.9,3908,List1A,black,woman,,,,null,,,,
null,"<img src=""stim_listA/dance7.gif""</stim_listA>",,html-keyboard-response,228,1154012,0.0-15.0-1.9,3908,List1A,black,woman,,,,null,,,,
null,is dancing with,,html-keyboard-response,229,1156013,0.0-15.0-2.9,3908,List1A,black,woman,,,,null,,,,
5993,,,survey-text,230,1162007,0.0-15.0-3.9,3908,List1A,black,woman,,,,,"{""Q0"":""beth is dancing with jane""}","<img src=""stim_listA/dance7.gif""</stim_listA>",is dancing with,
null,"<div style=""font-size:60px;"">+</div>",,html-keyboard-response,231,1162509,0.0-15.0-0.10,3908,List1A,black,woman,,,,null,,,,
null,"<img src=""stim_listA/talk4.gif""</stim_listA>",,html-keyboard-response,232,1164512,0.0-15.0-1.10,3908,List1A,black,woman,,,,null,,,,
null,are talking to each other,,html-keyboard-response,233,1166514,0.0-15.0-2.10,3908,List1A,black,woman,,,,null,,,,
9594,,,survey-text,234,1176112,0.0-15.0-3.10,3908,List1A,black,woman,,,,,"{""Q0"":""dave and ruth are talking to each other""}","<img src=""stim_listA/talk4.gif""</stim_listA>",are talking to each other,
null,"<div style=""font-size:60px;"">+</div>",,html-keyboard-response,235,1176615,0.0-15.0-0.11,3908,List1A,black,woman,,,,null,,,,
null,"<img src=""stim_listA/shout1.gif""</stim_listA>",,html-keyboard-response,236,1178619,0.0-15.0-1.11,3908,List1A,black,woman,,,,null,,,,
null,is shouting at,,html-keyboard-response,237,1180621,0.0-15.0-2.11,3908,List1A,black,woman,,,,null,,,,
7840,,,survey-text,238,1188463,0.0-15.0-3.11,3908,List1A,black,woman,,,,,"{""Q0"":""fred is shouting at beth""}","<img src=""stim_listA/shout1.gif""</stim_listA>",is shouting at,
null,"<div style=""font-size:60px;"">+</div>",,html-keyboard-response,239,1188966,0.0-15.0-0.12,3908,List1A,black,woman,,,,null,,,,
null,"<img src=""stim_listA/touch6.gif""</stim_listA>",,html-keyboard-response,240,1190984,0.0-15.0-1.12,3908,List1A,black,woman,,,,null,,,,
null,are touching each other,,html-keyboard-response,241,1192998,0.0-15.0-2.12,3908,List1A,black,woman,,,,null,,,,
8791,,,survey-text,242,1201792,0.0-15.0-3.12,3908,List1A,black,woman,,,,,"{""Q0"":""fred and luke are touching each other""}","<img src=""stim_listA/touch6.gif""</stim_listA>",are touching each other,
null,"<div style=""font-size:60px;"">+</div>",,html-keyboard-response,243,1202294,0.0-15.0-0.13,3908,List1A,black,woman,,,,null,,,,
null,"<img src=""stim_listA/fight7.gif""</stim_listA>",,html-keyboard-response,244,1204298,0.0-15.0-1.13,3908,List1A,black,woman,,,,null,,,,
null,is fighting,,html-keyboard-response,245,1206299,0.0-15.0-2.13,3908,List1A,black,woman,,,,null,,,,
18267,,,survey-text,246,1224569,0.0-15.0-3.13,3908,List1A,black,woman,,,,,"{""Q0"":""jane is fighting kate""}","<img src=""stim_listA/fight7.gif""</stim_listA>",is fighting,
null,"<div style=""font-size:60px;"">+</div>",,html-keyboard-response,247,1225072,0.0-15.0-0.14,3908,List1A,black,woman,,,,null,,,,
null,"<img src=""stim_listA/argue2.gif""</stim_listA>",,html-keyboard-response,248,1227076,0.0-15.0-1.14,3908,List1A,black,woman,,,,null,,,,
null,are arguing with each other,,html-keyboard-response,249,1229077,0.0-15.0-2.14,3908,List1A,black,woman,,,,null,,,,
15486,,,survey-text,250,1244566,0.0-15.0-3.14,3908,List1A,black,woman,,,,,"{""Q0"":""fred and kate are arguing with each other""}","<img src=""stim_listA/argue2.gif""</stim_listA>",are arguing with each other,
null,"<div style=""font-size:60px;"">+</div>",,html-keyboard-response,251,1245069,0.0-15.0-0.15,3908,List1A,black,woman,,,,null,,,,
null,"<img src=""stim_listA/shout6.gif""</stim_listA>",,html-keyboard-response,252,1247071,0.0-15.0-1.15,3908,List1A,black,woman,,,,null,,,,
null,are shouting at each other,,html-keyboard-response,253,1249073,0.0-15.0-2.15,3908,List1A,black,woman,,,,null,,,,
14714,,,survey-text,254,1263789,0.0-15.0-3.15,3908,List1A,black,woman,,,,,"{""Q0"":""dave and mike are shouting at each other""}","<img src=""stim_listA/shout6.gif""</stim_listA>",are shouting at each other,
null,"<div style=""font-size:60px;"">+</div>",,html-keyboard-response,255,1264293,0.0-15.0-0.16,3908,List1A,black,woman,,,,null,,,,
null,"<img src=""stim_listA/hug4.gif""</stim_listA>",,html-keyboard-response,256,1266297,0.0-15.0-1.16,3908,List1A,black,woman,,,,null,,,,
null,are hugging each other,,html-keyboard-response,257,1268299,0.0-15.0-2.16,3908,List1A,black,woman,,,,null,,,,
10924,,,survey-text,258,1279223,0.0-15.0-3.16,3908,List1A,black,woman,,,,,"{""Q0"":""jane and dave are hugging each other""}","<img src=""stim_listA/hug4.gif""</stim_listA>",are hugging each other,
null,"<div style=""font-size:60px;"">+</div>",,html-keyboard-response,259,1279725,0.0-15.0-0.17,3908,List1A,black,woman,,,,null,,,,
null,"<img src=""stim_listA/meet3.gif""</stim_listA>",,html-keyboard-response,260,1281729,0.0-15.0-1.17,3908,List1A,black,woman,,,,null,,,,
null,is meeting,,html-keyboard-response,261,1283731,0.0-15.0-2.17,3908,List1A,black,woman,,,,null,,,,
5721,,,survey-text,262,1289454,0.0-15.0-3.17,3908,List1A,black,woman,,,,,"{""Q0"":""jane is meeting dave""}","<img src=""stim_listA/meet3.gif""</stim_listA>",is meeting,
null,"<div style=""font-size:60px;"">+</div>",,html-keyboard-response,263,1289956,0.0-15.0-0.18,3908,List1A,black,woman,,,,null,,,,
null,"<img src=""stim_listA/fight5.gif""</stim_listA>",,html-keyboard-response,264,1291958,0.0-15.0-1.18,3908,List1A,black,woman,,,,null,,,,
null,is fighting,,html-keyboard-response,265,1293959,0.0-15.0-2.18,3908,List1A,black,woman,,,,null,,,,
8225,,,survey-text,266,1302185,0.0-15.0-3.18,3908,List1A,black,woman,,,,,"{""Q0"":""mike is fighting dave""}","<img src=""stim_listA/fight5.gif""</stim_listA>",is fighting,
null,"<div style=""font-size:60px;"">+</div>",,html-keyboard-response,267,1302689,0.0-15.0-0.19,3908,List1A,black,woman,,,,null,,,,
null,"<img src=""stim_listA/marry6.gif""</stim_listA>",,html-keyboard-response,268,1304692,0.0-15.0-1.19,3908,List1A,black,woman,,,,null,,,,
null,are marrying each other,,html-keyboard-response,269,1306694,0.0-15.0-2.19,3908,List1A,black,woman,,,,null,,,,
10379,,,survey-text,270,1317075,0.0-15.0-3.19,3908,List1A,black,woman,,,,,"{""Q0"":""fred and dave are marrying each other""}","<img src=""stim_listA/marry6.gif""</stim_listA>",are marrying each other,
5346,"<img src='img/portrait_matrix_list1.JPG' style='width:900px;height:500px;''></img><p>If you have memorised all the portraits and names and are ready to start, press Continue.</p><p><strong>Please note: Your memory of these faces will be tested 4 times during this experiment.</strong></p>",0,html-button-response,271,1322424,0.0-16.0-0.0,3908,List1A,black,woman,,,,,,,,
2366,"<img src=""portrait/WM2.jpg""style=""width:400px;height:400px;""></img>",7,html-button-response,272,1325795,0.0-16.0-1.0,3908,List1A,black,woman,,TRUE,7,,,,,
null,CORRECT,,html-keyboard-response,273,1327299,0.0-16.0-2.0-0.0,3908,List1A,black,woman,,,,null,,,,
1540,"<img src=""portrait/WM1.jpg""style=""width:400px;height:400px;""></img>",6,html-button-response,274,1328843,0.0-16.0-4.0,3908,List1A,black,woman,,TRUE,6,,,,,
null,CORRECT,,html-keyboard-response,275,1330349,0.0-16.0-5.0-0.0,3908,List1A,black,woman,,,,null,,,,
5833,"<img src=""portrait/WW2.jpg""style=""width:400px;height:400px;""></img>",3,html-button-response,276,1336187,0.0-16.0-7.0,3908,List1A,black,woman,,TRUE,3,,,,,
null,CORRECT,,html-keyboard-response,277,1337690,0.0-16.0-8.0-0.0,3908,List1A,black,woman,,,,null,,,,
3642,"<img src=""portrait/BM1.jpg""style=""width:400px;height:400px;""></img>",4,html-button-response,278,1341334,0.0-16.0-10.0,3908,List1A,black,woman,,TRUE,4,,,,,
null,CORRECT,,html-keyboard-response,279,1342837,0.0-16.0-11.0-0.0,3908,List1A,black,woman,,,,null,,,,
3960,"<img src=""portrait/WW1.jpg""style=""width:400px;height:400px;""></img>",1,html-button-response,280,1346802,0.0-16.0-13.0,3908,List1A,black,woman,,TRUE,1,,,,,
null,CORRECT,,html-keyboard-response,281,1348306,0.0-16.0-14.0-0.0,3908,List1A,black,woman,,,,null,,,,
9509,"<img src=""portrait/BW1.jpg""style=""width:400px;height:400px;""></img>",0,html-button-response,282,1357818,0.0-16.0-16.0,3908,List1A,black,woman,,TRUE,0,,,,,
null,CORRECT,,html-keyboard-response,283,1359322,0.0-16.0-17.0-0.0,3908,List1A,black,woman,,,,null,,,,
2574,"<img src=""portrait/BM2.jpg""style=""width:400px;height:400px;""></img>",5,html-button-response,284,1361902,0.0-16.0-19.0,3908,List1A,black,woman,,TRUE,5,,,,,
null,CORRECT,,html-keyboard-response,285,1363405,0.0-16.0-20.0-0.0,3908,List1A,black,woman,,,,null,,,,
1464,"<img src=""portrait/BW2.jpg""style=""width:400px;height:400px;""></img>",2,html-button-response,286,1364874,0.0-16.0-22.0,3908,List1A,black,woman,,TRUE,2,,,,,
null,CORRECT,,html-keyboard-response,287,1366378,0.0-16.0-23.0-0.0,3908,List1A,black,woman,,,,null,,,,
1539,<p>You got 8 out of 8 right first time. Press Continue.</p>,0,html-button-response,288,1367917,0.0-16.0-25.0,3908,List1A,black,woman,,,,,,,,
null,"<div style=""font-size:60px;"">+</div>",,html-keyboard-response,289,1369421,0.0-17.0-0.0,3908,List1A,black,woman,,,,null,,,,
null,"<img src=""stim_listA/fight8.gif""</stim_listA>",,html-keyboard-response,290,1371425,0.0-17.0-1.0,3908,List1A,black,woman,,,,null,,,,
null,are fighting each other,,html-keyboard-response,291,1373428,0.0-17.0-2.0,3908,List1A,black,woman,,,,null,,,,
12161,,,survey-text,292,1385592,0.0-17.0-3.0,3908,List1A,black,woman,,,,,"{""Q0"":""ruth is fighting beth""}","<img src=""stim_listA/fight8.gif""</stim_listA>",are fighting each other,
null,"<div style=""font-size:60px;"">+</div>",,html-keyboard-response,293,1386094,0.0-17.0-0.1,3908,List1A,black,woman,,,,null,,,,
null,"<img src=""stim_listA/hug6.gif""</stim_listA>",,html-keyboard-response,294,1388097,0.0-17.0-1.1,3908,List1A,black,woman,,,,null,,,,
null,are hugging each other,,html-keyboard-response,295,1390099,0.0-17.0-2.1,3908,List1A,black,woman,,,,null,,,,
7993,,,survey-text,296,1398094,0.0-17.0-3.1,3908,List1A,black,woman,,,,,"{""Q0"":""mike is hugging dave""}","<img src=""stim_listA/hug6.gif""</stim_listA>",are hugging each other,
null,"<div style=""font-size:60px;"">+</div>",,html-keyboard-response,297,1398597,0.0-17.0-0.2,3908,List1A,black,woman,,,,null,,,,
null,"<img src=""stim_listA/dance5.gif""</stim_listA>",,html-keyboard-response,298,1400601,0.0-17.0-1.2,3908,List1A,black,woman,,,,null,,,,
null,is dancing with,,html-keyboard-response,299,1402603,0.0-17.0-2.2,3908,List1A,black,woman,,,,null,,,,
6131,,,survey-text,300,1408737,0.0-17.0-3.2,3908,List1A,black,woman,,,,,"{""Q0"":""fred is dancing with dave""}","<img src=""stim_listA/dance5.gif""</stim_listA>",is dancing with,
null,"<div style=""font-size:60px;"">+</div>",,html-keyboard-response,301,1409240,0.0-17.0-0.3,3908,List1A,black,woman,,,,null,,,,
null,"<img src=""stim_listA/dance8.gif""</stim_listA>",,html-keyboard-response,302,1411244,0.0-17.0-1.3,3908,List1A,black,woman,,,,null,,,,
null,are dancing with each other,,html-keyboard-response,303,1413246,0.0-17.0-2.3,3908,List1A,black,woman,,,,null,,,,
21888,,,survey-text,304,1435137,0.0-17.0-3.3,3908,List1A,black,woman,,,,,"{""Q0"":""ruth and kate are dancing with each other""}","<img src=""stim_listA/dance8.gif""</stim_listA>",are dancing with each other,
null,"<div style=""font-size:60px;"">+</div>",,html-keyboard-response,305,1435640,0.0-17.0-0.4,3908,List1A,black,woman,,,,null,,,,
null,"<img src=""stim_listA/argue1.gif""</stim_listA>",,html-keyboard-response,306,1437644,0.0-17.0-1.4,3908,List1A,black,woman,,,,null,,,,
null,is arguing with,,html-keyboard-response,307,1439647,0.0-17.0-2.4,3908,List1A,black,woman,,,,null,,,,
9111,,,survey-text,308,1448761,0.0-17.0-3.4,3908,List1A,black,woman,,,,,"{""Q0"":""mike is arguing with beth""}","<img src=""stim_listA/argue1.gif""</stim_listA>",is arguing with,
null,"<div style=""font-size:60px;"">+</div>",,html-keyboard-response,309,1449265,0.0-17.0-0.5,3908,List1A,black,woman,,,,null,,,,
null,"<img src=""stim_listA/fight6.gif""</stim_listA>",,html-keyboard-response,310,1451269,0.0-17.0-1.5,3908,List1A,black,woman,,,,null,,,,
null,are fighting each other,,html-keyboard-response,311,1453271,0.0-17.0-2.5,3908,List1A,black,woman,,,,null,,,,
11349,,,survey-text,312,1464621,0.0-17.0-3.5,3908,List1A,black,woman,,,,,"{""Q0"":""fred and luke are fighting each other""}","<img src=""stim_listA/fight6.gif""</stim_listA>",are fighting each other,
null,"<div style=""font-size:60px;"">+</div>",,html-keyboard-response,313,1465124,0.0-17.0-0.6,3908,List1A,black,woman,,,,null,,,,
null,"<img src=""stim_listA/meet1.gif""</stim_listA>",,html-keyboard-response,314,1467127,0.0-17.0-1.6,3908,List1A,black,woman,,,,null,,,,
null,is meeting,,html-keyboard-response,315,1469130,0.0-17.0-2.6,3908,List1A,black,woman,,,,null,,,,
6205,,,survey-text,316,1475337,0.0-17.0-3.6,3908,List1A,black,woman,,,,,"{""Q0"":""mike is meeting kate""}","<img src=""stim_listA/meet1.gif""</stim_listA>",is meeting,
null,"<div style=""font-size:60px;"">+</div>",,html-keyboard-response,317,1475840,0.0-17.0-0.7,3908,List1A,black,woman,,,,null,,,,
null,"<img src=""stim_listA/meet4.gif""</stim_listA>",,html-keyboard-response,318,1477844,0.0-17.0-1.7,3908,List1A,black,woman,,,,null,,,,
null,are meeting each other,,html-keyboard-response,319,1479845,0.0-17.0-2.7,3908,List1A,black,woman,,,,null,,,,
7729,,,survey-text,320,1487577,0.0-17.0-3.7,3908,List1A,black,woman,,,,,"{""Q0"":""luke and ruth are meeting each other""}","<img src=""stim_listA/meet4.gif""</stim_listA>",are meeting each other,
null,"<div style=""font-size:60px;"">+</div>",,html-keyboard-response,321,1488079,0.0-17.0-0.8,3908,List1A,black,woman,,,,null,,,,
null,"<img src=""stim_listA/kiss2.gif""</stim_listA>",,html-keyboard-response,322,1490082,0.0-17.0-1.8,3908,List1A,black,woman,,,,null,,,,
null,are kissing each other,,html-keyboard-response,323,1492096,0.0-17.0-2.8,3908,List1A,black,woman,,,,null,,,,
8669,,,survey-text,324,1500768,0.0-17.0-3.8,3908,List1A,black,woman,,,,,"{""Q0"":""mike and kate are kissing each other""}","<img src=""stim_listA/kiss2.gif""</stim_listA>",are kissing each other,
null,"<div style=""font-size:60px;"">+</div>",,html-keyboard-response,325,1501272,0.0-17.0-0.9,3908,List1A,black,woman,,,,null,,,,
null,"<img src=""stim_listA/dance1.gif""</stim_listA>",,html-keyboard-response,326,1503277,0.0-17.0-1.9,3908,List1A,black,woman,,,,null,,,,
null,is dancing with,,html-keyboard-response,327,1505279,0.0-17.0-2.9,3908,List1A,black,woman,,,,null,,,,
5991,,,survey-text,328,1511273,0.0-17.0-3.9,3908,List1A,black,woman,,,,,"{""Q0"":""fred is dancing with kate""}","<img src=""stim_listA/dance1.gif""</stim_listA>",is dancing with,
null,"<div style=""font-size:60px;"">+</div>",,html-keyboard-response,329,1511775,0.0-17.0-0.10,3908,List1A,black,woman,,,,null,,,,
null,"<img src=""stim_listA/meet6.gif""</stim_listA>",,html-keyboard-response,330,1513780,0.0-17.0-1.10,3908,List1A,black,woman,,,,null,,,,
null,are meeting each other,,html-keyboard-response,331,1515782,0.0-17.0-2.10,3908,List1A,black,woman,,,,null,,,,
8137,,,survey-text,332,1523920,0.0-17.0-3.10,3908,List1A,black,woman,,,,,"{""Q0"":""fred and luke are meeting each other""}","<img src=""stim_listA/meet6.gif""</stim_listA>",are meeting each other,
null,"<div style=""font-size:60px;"">+</div>",,html-keyboard-response,333,1524423,0.0-17.0-0.11,3908,List1A,black,woman,,,,null,,,,
null,"<img src=""stim_listA/kiss8.gif""</stim_listA>",,html-keyboard-response,334,1526427,0.0-17.0-1.11,3908,List1A,black,woman,,,,null,,,,
null,are kissing each other,,html-keyboard-response,335,1528428,0.0-17.0-2.11,3908,List1A,black,woman,,,,null,,,,
9150,,,survey-text,336,1537581,0.0-17.0-3.11,3908,List1A,black,woman,,,,,"{""Q0"":""jane and kate are kissing each other""}","<img src=""stim_listA/kiss8.gif""</stim_listA>",are kissing each other,
null,"<div style=""font-size:60px;"">+</div>",,html-keyboard-response,337,1538084,0.0-17.0-0.12,3908,List1A,black,woman,,,,null,,,,
null,"<img src=""stim_listA/shout8.gif""</stim_listA>",,html-keyboard-response,338,1540089,0.0-17.0-1.12,3908,List1A,black,woman,,,,null,,,,
null,are shouting at each other,,html-keyboard-response,339,1542092,0.0-17.0-2.12,3908,List1A,black,woman,,,,null,,,,
10359,,,survey-text,340,1552453,0.0-17.0-3.12,3908,List1A,black,woman,,,,,"{""Q0"":""jane and kate are shouting at each other""}","<img src=""stim_listA/shout8.gif""</stim_listA>",are shouting at each other,
null,"<div style=""font-size:60px;"">+</div>",,html-keyboard-response,341,1552956,0.0-17.0-0.13,3908,List1A,black,woman,,,,null,,,,
null,"<img src=""stim_listA/argue7.gif""</stim_listA>",,html-keyboard-response,342,1554957,0.0-17.0-1.13,3908,List1A,black,woman,,,,null,,,,
null,is arguing with,,html-keyboard-response,343,1556958,0.0-17.0-2.13,3908,List1A,black,woman,,,,null,,,,
7122,,,survey-text,344,1564081,0.0-17.0-3.13,3908,List1A,black,woman,,,,,"{""Q0"":""ruth is arguing with kate""}","<img src=""stim_listA/argue7.gif""</stim_listA>",is arguing with,
null,"<div style=""font-size:60px;"">+</div>",,html-keyboard-response,345,1564584,0.0-17.0-0.14,3908,List1A,black,woman,,,,null,,,,
null,"<img src=""stim_listA/meet7.gif""</stim_listA>",,html-keyboard-response,346,1566588,0.0-17.0-1.14,3908,List1A,black,woman,,,,null,,,,
null,is meeting,,html-keyboard-response,347,1568591,0.0-17.0-2.14,3908,List1A,black,woman,,,,null,,,,
5967,,,survey-text,348,1574560,0.0-17.0-3.14,3908,List1A,black,woman,,,,,"{""Q0"":""jane is meeting kate""}","<img src=""stim_listA/meet7.gif""</stim_listA>",is meeting,
null,"<div style=""font-size:60px;"">+</div>",,html-keyboard-response,349,1575065,0.0-17.0-0.15,3908,List1A,black,woman,,,,null,,,,
null,"<img src=""stim_listA/fight4.gif""</stim_listA>",,html-keyboard-response,350,1577069,0.0-17.0-1.15,3908,List1A,black,woman,,,,null,,,,
null,are fighting each other,,html-keyboard-response,351,1579070,0.0-17.0-2.15,3908,List1A,black,woman,,,,null,,,,
8708,,,survey-text,352,1587781,0.0-17.0-3.15,3908,List1A,black,woman,,,,,"{""Q0"":""ruth and luke are fighting with each other""}","<img src=""stim_listA/fight4.gif""</stim_listA>",are fighting each other,
null,"<div style=""font-size:60px;"">+</div>",,html-keyboard-response,353,1588285,0.0-17.0-0.16,3908,List1A,black,woman,,,,null,,,,
null,"<img src=""stim_listA/meet5.gif""</stim_listA>",,html-keyboard-response,354,1590288,0.0-17.0-1.16,3908,List1A,black,woman,,,,null,,,,
null,is meeting,,html-keyboard-response,355,1592290,0.0-17.0-2.16,3908,List1A,black,woman,,,,null,,,,
5343,,,survey-text,356,1597635,0.0-17.0-3.16,3908,List1A,black,woman,,,,,"{""Q0"":""mike is meeting dave""}","<img src=""stim_listA/meet5.gif""</stim_listA>",is meeting,
null,"<div style=""font-size:60px;"">+</div>",,html-keyboard-response,357,1598138,0.0-17.0-0.17,3908,List1A,black,woman,,,,null,,,,
null,"<img src=""stim_listA/argue5.gif""</stim_listA>",,html-keyboard-response,358,1600140,0.0-17.0-1.17,3908,List1A,black,woman,,,,null,,,,
null,is arguing with,,html-keyboard-response,359,1602142,0.0-17.0-2.17,3908,List1A,black,woman,,,,null,,,,
6165,,,survey-text,360,1608311,0.0-17.0-3.17,3908,List1A,black,woman,,,,,"{""Q0"":""mike is arguing with luke""}","<img src=""stim_listA/argue5.gif""</stim_listA>",is arguing with,
null,"<div style=""font-size:60px;"">+</div>",,html-keyboard-response,361,1608814,0.0-17.0-0.18,3908,List1A,black,woman,,,,null,,,,
null,"<img src=""stim_listA/shout5.gif""</stim_listA>",,html-keyboard-response,362,1610818,0.0-17.0-1.18,3908,List1A,black,woman,,,,null,,,,
null,is shouting at,,html-keyboard-response,363,1612819,0.0-17.0-2.18,3908,List1A,black,woman,,,,null,,,,
5704,,,survey-text,364,1618526,0.0-17.0-3.18,3908,List1A,black,woman,,,,,"{""Q0"":""fred is shouting at luke""}","<img src=""stim_listA/shout5.gif""</stim_listA>",is shouting at,
null,"<div style=""font-size:60px;"">+</div>",,html-keyboard-response,365,1619028,0.0-17.0-0.19,3908,List1A,black,woman,,,,null,,,,
null,"<img src=""stim_listA/fight1.gif""</stim_listA>",,html-keyboard-response,366,1621029,0.0-17.0-1.19,3908,List1A,black,woman,,,,null,,,,
null,is fighting,,html-keyboard-response,367,1623031,0.0-17.0-2.19,3908,List1A,black,woman,,,,null,,,,
7483,,,survey-text,368,1630516,0.0-17.0-3.19,3908,List1A,black,woman,,,,,"{""Q0"":""mike is fighting kate""}","<img src=""stim_listA/fight1.gif""</stim_listA>",is fighting,
4940,"<img src='img/portrait_matrix_list1.JPG' style='width:900px;height:500px;''></img><p>If you have memorised all the portraits and names and are ready to start, press Continue.</p><p><strong>Please note: Your memory of these faces will be tested 4 times during this experiment.</strong></p>",0,html-button-response,369,1635458,0.0-18.0-0.0,3908,List1A,black,woman,,,,,,,,
1607,"<img src=""portrait/WM2.jpg""style=""width:400px;height:400px;""></img>",7,html-button-response,370,1638069,0.0-18.0-1.0,3908,List1A,black,woman,,TRUE,7,,,,,
null,CORRECT,,html-keyboard-response,371,1639573,0.0-18.0-2.0-0.0,3908,List1A,black,woman,,,,null,,,,
2951,"<img src=""portrait/WW1.jpg""style=""width:400px;height:400px;""></img>",1,html-button-response,372,1642528,0.0-18.0-4.0,3908,List1A,black,woman,,TRUE,1,,,,,
null,CORRECT,,html-keyboard-response,373,1644031,0.0-18.0-5.0-0.0,3908,List1A,black,woman,,,,null,,,,
2120,"<img src=""portrait/BW1.jpg""style=""width:400px;height:400px;""></img>",0,html-button-response,374,1646154,0.0-18.0-7.0,3908,List1A,black,woman,,TRUE,0,,,,,
null,CORRECT,,html-keyboard-response,375,1647658,0.0-18.0-8.0-0.0,3908,List1A,black,woman,,,,null,,,,
2342,"<img src=""portrait/WM1.jpg""style=""width:400px;height:400px;""></img>",6,html-button-response,376,1650004,0.0-18.0-10.0,3908,List1A,black,woman,,TRUE,6,,,,,
null,CORRECT,,html-keyboard-response,377,1651506,0.0-18.0-11.0-0.0,3908,List1A,black,woman,,,,null,,,,
2356,"<img src=""portrait/BM1.jpg""style=""width:400px;height:400px;""></img>",4,html-button-response,378,1653867,0.0-18.0-13.0,3908,List1A,black,woman,,TRUE,4,,,,,
null,CORRECT,,html-keyboard-response,379,1655371,0.0-18.0-14.0-0.0,3908,List1A,black,woman,,,,null,,,,
2025,"<img src=""portrait/BW2.jpg""style=""width:400px;height:400px;""></img>",2,html-button-response,380,1657400,0.0-18.0-16.0,3908,List1A,black,woman,,TRUE,2,,,,,
null,CORRECT,,html-keyboard-response,381,1658903,0.0-18.0-17.0-0.0,3908,List1A,black,woman,,,,null,,,,
4500,"<img src=""portrait/WW2.jpg""style=""width:400px;height:400px;""></img>",3,html-button-response,382,1663407,0.0-18.0-19.0,3908,List1A,black,woman,,TRUE,3,,,,,
null,CORRECT,,html-keyboard-response,383,1664910,0.0-18.0-20.0-0.0,3908,List1A,black,woman,,,,null,,,,
2402,"<img src=""portrait/BM2.jpg""style=""width:400px;height:400px;""></img>",5,html-button-response,384,1667317,0.0-18.0-22.0,3908,List1A,black,woman,,TRUE,5,,,,,
null,CORRECT,,html-keyboard-response,385,1668821,0.0-18.0-23.0-0.0,3908,List1A,black,woman,,,,null,,,,
1511,<p>You got 8 out of 8 right first time. Press Continue.</p>,0,html-button-response,386,1670336,0.0-18.0-25.0,3908,List1A,black,woman,,,,,,,,
null,"<div style=""font-size:60px;"">+</div>",,html-keyboard-response,387,1671840,0.0-19.0-0.0,3908,List1A,black,woman,,,,null,,,,
null,"<img src=""stim_listA/marry2.gif""</stim_listA>",,html-keyboard-response,388,1673842,0.0-19.0-1.0,3908,List1A,black,woman,,,,null,,,,
null,are marrying each other,,html-keyboard-response,389,1675844,0.0-19.0-2.0,3908,List1A,black,woman,,,,null,,,,
10560,,,survey-text,390,1686407,0.0-19.0-3.0,3908,List1A,black,woman,,,,,"{""Q0"":""fred is marrying kate""}","<img src=""stim_listA/marry2.gif""</stim_listA>",are marrying each other,
null,"<div style=""font-size:60px;"">+</div>",,html-keyboard-response,391,1686911,0.0-19.0-0.1,3908,List1A,black,woman,,,,null,,,,
null,"<img src=""stim_listA/marry7.gif""</stim_listA>",,html-keyboard-response,392,1688914,0.0-19.0-1.1,3908,List1A,black,woman,,,,null,,,,
null,is marrying,,html-keyboard-response,393,1690916,0.0-19.0-2.1,3908,List1A,black,woman,,,,null,,,,
7863,,,survey-text,394,1698781,0.0-19.0-3.1,3908,List1A,black,woman,,,,,"{""Q0"":""ruth is marrying kate""}","<img src=""stim_listA/marry7.gif""</stim_listA>",is marrying,
null,"<div style=""font-size:60px;"">+</div>",,html-keyboard-response,395,1699285,0.0-19.0-0.2,3908,List1A,black,woman,,,,null,,,,
null,"<img src=""stim_listA/hug2.gif""</stim_listA>",,html-keyboard-response,396,1701288,0.0-19.0-1.2,3908,List1A,black,woman,,,,null,,,,
null,are hugging each other,,html-keyboard-response,397,1703290,0.0-19.0-2.2,3908,List1A,black,woman,,,,null,,,,
15522,,,survey-text,398,1718814,0.0-19.0-3.2,3908,List1A,black,woman,,,,,"{""Q0"":""mike and kate are hugging each other""}","<img src=""stim_listA/hug2.gif""</stim_listA>",are hugging each other,
null,"<div style=""font-size:60px;"">+</div>",,html-keyboard-response,399,1719317,0.0-19.0-0.3,3908,List1A,black,woman,,,,null,,,,
null,"<img src=""stim_listA/kiss5.gif""</stim_listA>",,html-keyboard-response,400,1721322,0.0-19.0-1.3,3908,List1A,black,woman,,,,null,,,,
null,is kissing,,html-keyboard-response,401,1723324,0.0-19.0-2.3,3908,List1A,black,woman,,,,null,,,,
5615,,,survey-text,402,1728941,0.0-19.0-3.3,3908,List1A,black,woman,,,,,"{""Q0"":""mike is kissing luke""}","<img src=""stim_listA/kiss5.gif""</stim_listA>",is kissing,
null,"<div style=""font-size:60px;"">+</div>",,html-keyboard-response,403,1729443,0.0-19.0-0.4,3908,List1A,black,woman,,,,null,,,,
null,"<img src=""stim_listA/talk3.gif""</stim_listA>",,html-keyboard-response,404,1731447,0.0-19.0-1.4,3908,List1A,black,woman,,,,null,,,,
null,is talking to,,html-keyboard-response,405,1733448,0.0-19.0-2.4,3908,List1A,black,woman,,,,null,,,,
6698,,,survey-text,406,1740149,0.0-19.0-3.4,3908,List1A,black,woman,,,,,"{""Q0"":""jane is talking to luke""}","<img src=""stim_listA/talk3.gif""</stim_listA>",is talking to,
null,"<div style=""font-size:60px;"">+</div>",,html-keyboard-response,407,1740652,0.0-19.0-0.5,3908,List1A,black,woman,,,,null,,,,
null,"<img src=""stim_listA/kiss6.gif""</stim_listA>",,html-keyboard-response,408,1742656,0.0-19.0-1.5,3908,List1A,black,woman,,,,null,,,,
null,are kissing each other,,html-keyboard-response,409,1744660,0.0-19.0-2.5,3908,List1A,black,woman,,,,null,,,,
7778,,,survey-text,410,1752439,0.0-19.0-3.5,3908,List1A,black,woman,,,,,"{""Q0"":""dave and mike are kissing each other""}","<img src=""stim_listA/kiss6.gif""</stim_listA>",are kissing each other,
null,"<div style=""font-size:60px;"">+</div>",,html-keyboard-response,411,1752941,0.0-19.0-0.6,3908,List1A,black,woman,,,,null,,,,
null,"<img src=""stim_listA/kiss4.gif""</stim_listA>",,html-keyboard-response,412,1754943,0.0-19.0-1.6,3908,List1A,black,woman,,,,null,,,,
null,are kissing each other,,html-keyboard-response,413,1756944,0.0-19.0-2.6,3908,List1A,black,woman,,,,null,,,,
8088,,,survey-text,414,1765033,0.0-19.0-3.6,3908,List1A,black,woman,,,,,"{""Q0"":""jane and dave are kissing each other""}","<img src=""stim_listA/kiss4.gif""</stim_listA>",are kissing each other,
null,"<div style=""font-size:60px;"">+</div>",,html-keyboard-response,415,1765537,0.0-19.0-0.7,3908,List1A,black,woman,,,,null,,,,
null,"<img src=""stim_listA/hug1.gif""</stim_listA>",,html-keyboard-response,416,1767541,0.0-19.0-1.7,3908,List1A,black,woman,,,,null,,,,
null,is hugging,,html-keyboard-response,417,1769543,0.0-19.0-2.7,3908,List1A,black,woman,,,,null,,,,
6064,,,survey-text,418,1775610,0.0-19.0-3.7,3908,List1A,black,woman,,,,,"{""Q0"":""fred is hugging beth""}","<img src=""stim_listA/hug1.gif""</stim_listA>",is hugging,
null,"<div style=""font-size:60px;"">+</div>",,html-keyboard-response,419,1776112,0.0-19.0-0.8,3908,List1A,black,woman,,,,null,,,,
null,"<img src=""stim_listA/touch2.gif""</stim_listA>",,html-keyboard-response,420,1778116,0.0-19.0-1.8,3908,List1A,black,woman,,,,null,,,,
null,are touching each other,,html-keyboard-response,421,1780118,0.0-19.0-2.8,3908,List1A,black,woman,,,,null,,,,
8503,,,survey-text,422,1788623,0.0-19.0-3.8,3908,List1A,black,woman,,,,,"{""Q0"":""beth and fred are touching each other""}","<img src=""stim_listA/touch2.gif""</stim_listA>",are touching each other,
null,"<div style=""font-size:60px;"">+</div>",,html-keyboard-response,423,1789126,0.0-19.0-0.9,3908,List1A,black,woman,,,,null,,,,
null,"<img src=""stim_listA/marry1.gif""</stim_listA>",,html-keyboard-response,424,1791130,0.0-19.0-1.9,3908,List1A,black,woman,,,,null,,,,
null,is marrying,,html-keyboard-response,425,1793132,0.0-19.0-2.9,3908,List1A,black,woman,,,,null,,,,
5576,,,survey-text,426,1798710,0.0-19.0-3.9,3908,List1A,black,woman,,,,,"{""Q0"":""mike is marrying beth""}","<img src=""stim_listA/marry1.gif""</stim_listA>",is marrying,
null,"<div style=""font-size:60px;"">+</div>",,html-keyboard-response,427,1799213,0.0-19.0-0.10,3908,List1A,black,woman,,,,null,,,,
null,"<img src=""stim_listA/hug3.gif""</stim_listA>",,html-keyboard-response,428,1801219,0.0-19.0-1.10,3908,List1A,black,woman,,,,null,,,,
null,is hugging,,html-keyboard-response,429,1803221,0.0-19.0-2.10,3908,List1A,black,woman,,,,null,,,,
5144,,,survey-text,430,1808367,0.0-19.0-3.10,3908,List1A,black,woman,,,,,"{""Q0"":""luke is hugging ruth""}","<img src=""stim_listA/hug3.gif""</stim_listA>",is hugging,
null,"<div style=""font-size:60px;"">+</div>",,html-keyboard-response,431,1808871,0.0-19.0-0.11,3908,List1A,black,woman,,,,null,,,,
null,"<img src=""stim_listA/kiss1.gif""</stim_listA>",,html-keyboard-response,432,1810874,0.0-19.0-1.11,3908,List1A,black,woman,,,,null,,,,
null,is kissing,,html-keyboard-response,433,1812877,0.0-19.0-2.11,3908,List1A,black,woman,,,,null,,,,
5266,,,survey-text,434,1818145,0.0-19.0-3.11,3908,List1A,black,woman,,,,,"{""Q0"":""fred is kissing beth""}","<img src=""stim_listA/kiss1.gif""</stim_listA>",is kissing,
null,"<div style=""font-size:60px;"">+</div>",,html-keyboard-response,435,1818648,0.0-19.0-0.12,3908,List1A,black,woman,,,,null,,,,
null,"<img src=""stim_listA/dance2.gif""</stim_listA>",,html-keyboard-response,436,1820652,0.0-19.0-1.12,3908,List1A,black,woman,,,,null,,,,
null,are dancing with each other,,html-keyboard-response,437,1822654,0.0-19.0-2.12,3908,List1A,black,woman,,,,null,,,,
8376,,,survey-text,438,1831034,0.0-19.0-3.12,3908,List1A,black,woman,,,,,"{""Q0"":""mike and beth are dancing with each other""}","<img src=""stim_listA/dance2.gif""</stim_listA>",are dancing with each other,
null,"<div style=""font-size:60px;"">+</div>",,html-keyboard-response,439,1831536,0.0-19.0-0.13,3908,List1A,black,woman,,,,null,,,,
null,"<img src=""stim_listA/shout2.gif""</stim_listA>",,html-keyboard-response,440,1833540,0.0-19.0-1.13,3908,List1A,black,woman,,,,null,,,,
null,are shouting at each other,,html-keyboard-response,441,1835543,0.0-19.0-2.13,3908,List1A,black,woman,,,,null,,,,
9186,,,survey-text,442,1844731,0.0-19.0-3.13,3908,List1A,black,woman,,,,,"{""Q0"":""kate and mike are shouting at each other""}","<img src=""stim_listA/shout2.gif""</stim_listA>",are shouting at each other,
null,"<div style=""font-size:60px;"">+</div>",,html-keyboard-response,443,1845234,0.0-19.0-0.14,3908,List1A,black,woman,,,,null,,,,
null,"<img src=""stim_listA/marry4.gif""</stim_listA>",,html-keyboard-response,444,1847236,0.0-19.0-1.14,3908,List1A,black,woman,,,,null,,,,
null,are marrying each other,,html-keyboard-response,445,1849238,0.0-19.0-2.14,3908,List1A,black,woman,,,,null,,,,
8137,,,survey-text,446,1857377,0.0-19.0-3.14,3908,List1A,black,woman,,,,,"{""Q0"":""jane and luke are marrying each other""}","<img src=""stim_listA/marry4.gif""</stim_listA>",are marrying each other,
null,"<div style=""font-size:60px;"">+</div>",,html-keyboard-response,447,1857880,0.0-19.0-0.15,3908,List1A,black,woman,,,,null,,,,
null,"<img src=""stim_listA/talk7.gif""</stim_listA>",,html-keyboard-response,448,1859884,0.0-19.0-1.15,3908,List1A,black,woman,,,,null,,,,
null,is talking to,,html-keyboard-response,449,1861886,0.0-19.0-2.15,3908,List1A,black,woman,,,,null,,,,
5535,,,survey-text,450,1867422,0.0-19.0-3.15,3908,List1A,black,woman,,,,,"{""Q0"":""jane is talking to beth""}","<img src=""stim_listA/talk7.gif""</stim_listA>",is talking to,
null,"<div style=""font-size:60px;"">+</div>",,html-keyboard-response,451,1867925,0.0-19.0-0.16,3908,List1A,black,woman,,,,null,,,,
null,"<img src=""stim_listA/dance6.gif""</stim_listA>",,html-keyboard-response,452,1869928,0.0-19.0-1.16,3908,List1A,black,woman,,,,null,,,,
null,are dancing with each other,,html-keyboard-response,453,1871930,0.0-19.0-2.16,3908,List1A,black,woman,,,,null,,,,
10523,,,survey-text,454,1882454,0.0-19.0-3.16,3908,List1A,black,woman,,,,,"{""Q0"":""luke and mike are dancing with each other""}","<img src=""stim_listA/dance6.gif""</stim_listA>",are dancing with each other,
null,"<div style=""font-size:60px;"">+</div>",,html-keyboard-response,455,1882957,0.0-19.0-0.17,3908,List1A,black,woman,,,,null,,,,
null,"<img src=""stim_listA/talk8.gif""</stim_listA>",,html-keyboard-response,456,1884958,0.0-19.0-1.17,3908,List1A,black,woman,,,,null,,,,
null,are talking to each other,,html-keyboard-response,457,1886959,0.0-19.0-2.17,3908,List1A,black,woman,,,,null,,,,
8204,,,survey-text,458,1895165,0.0-19.0-3.17,3908,List1A,black,woman,,,,,"{""Q0"":""ruth and kate are talking to each other""}","<img src=""stim_listA/talk8.gif""</stim_listA>",are talking to each other,
null,"<div style=""font-size:60px;"">+</div>",,html-keyboard-response,459,1895668,0.0-19.0-0.18,3908,List1A,black,woman,,,,null,,,,
null,"<img src=""stim_listA/argue6.gif""</stim_listA>",,html-keyboard-response,460,1897672,0.0-19.0-1.18,3908,List1A,black,woman,,,,null,,,,
null,are arguing with each other,,html-keyboard-response,461,1899676,0.0-19.0-2.18,3908,List1A,black,woman,,,,null,,,,
9046,,,survey-text,462,1908724,0.0-19.0-3.18,3908,List1A,black,woman,,,,,"{""Q0"":""dave and fred are arguing with each other""}","<img src=""stim_listA/argue6.gif""</stim_listA>",are arguing with each other,
null,"<div style=""font-size:60px;"">+</div>",,html-keyboard-response,463,1909227,0.0-19.0-0.19,3908,List1A,black,woman,,,,null,,,,
null,"<img src=""stim_listA/marry5.gif""</stim_listA>",,html-keyboard-response,464,1911231,0.0-19.0-1.19,3908,List1A,black,woman,,,,null,,,,
null,is marrying,,html-keyboard-response,465,1913233,0.0-19.0-2.19,3908,List1A,black,woman,,,,null,,,,
5450,,,survey-text,466,1918686,0.0-19.0-3.19,3908,List1A,black,woman,,,,,"{""Q0"":""luke is marrying mike""}","<img src=""stim_listA/marry5.gif""</stim_listA>",is marrying,
2594,<p>Thank you for completing that task.</p><p>The final part of this session is a short questionnaire.</p><p>Press Continue.</p>,0,html-button-response,467,1921282,0.0-20.0,3908,List1A,black,woman,,,,,,,,
28718,,,survey-text,468,1951005,0.0-21.0,3908,List1A,black,woman,,,,,"{""Q0"":""54"",""Q1"":""English"",""Q2"":""English"",""Q3"":""England"",""Q4"":""Black Caribbean"",""Q5"":""Female""}",,,demographics
50178,,,survey-likert,469,2001196,0.0-22.0,3908,List1A,black,woman,,,,,"{""Q0"":6,""Q1"":6,""Q2"":6,""Q3"":6,""Q4"":6,""Q5"":6,""Q6"":6,""Q7"":6,""Q8"":6,""Q9"":6,""Q10"":6,""Q11"":6,""Q12"":6,""Q13"":6}",,,likert_race
35963,,,survey-likert,470,2037181,0.0-23.0,3908,List1A,black,woman,,,,,"{""Q0"":"""",""Q1"":6,""Q2"":6,""Q3"":6,""Q4"":6,""Q5"":6,""Q6"":6,""Q7"":6,""Q8"":6,""Q9"":6,""Q10"":6,""Q11"":6,""Q12"":6,""Q13"":6}",,,likert_gender
9161,,,survey-text,471,2046354,0.0-24.0,3908,List1A,black,woman,,,,,"{""Q0"":""ccc""}",,,worker_id
18105,,,external-html,472,2064556,0.0-25.0,3908,List1A,black,woman,debrief.html,,,,,,,
