rt,stimulus,button_pressed,trial_type,trial_index,time_elapsed,internal_node_id,subject,list,ppt_race,ppt_gender,url,first_guess,correct,key_press,responses,image_type,phrase_type,test_part
1525,Welcome to the experiment. Press Continue to begin.,0,html-button-response,0,1546,0.0-0.0,39342,List2B,white,man,,,,,,,,
88857,,,external-html,1,91454,0.0-1.0,39342,List2B,white,man,consent.html,,,,,,,
47622,"<p>On the next page, you will see portraits of 8 people and their names.</p><p>Your first task is to take a few minutes to memorise the names of these people.</p><p>You will have to recall their names during the rest of the experiment, so it is</p><p>essential that you try to memorise these people and their names as best as you can.</p><br><p><strong>You will then be tested on your memory of these names and portraits.</strong></p><br><p>The experiment will start after you have completed this memory test.</p><br><p>Ready?</p>",0,html-button-response,2,139077,0.0-2.0,39342,List2B,white,man,,,,,,,,
82064,"<img src='img/portrait_matrix_list2.JPG' style='width:900px;height:500px;''></img><p>If you have memorised all the portraits and names and are ready to start, press Continue.</p><p><strong>Please note: Your memory of these faces will be tested 4 times during this experiment.</strong></p>",0,html-button-response,3,222144,0.0-3.0-0.0,39342,List2B,white,man,,,,,,,,
5619,"<img src=""portrait/BM1.jpg""style=""width:400px;height:400px;""></img>",4,html-button-response,4,228765,0.0-3.0-1.0,39342,List2B,white,man,,TRUE,4,,,,,
null,CORRECT,,html-keyboard-response,5,230269,0.0-3.0-2.0-0.0,39342,List2B,white,man,,,,null,,,,
2668,"<img src=""portrait/WW1.jpg""style=""width:400px;height:400px;""></img>",1,html-button-response,6,232937,0.0-3.0-4.0,39342,List2B,white,man,,TRUE,1,,,,,
null,CORRECT,,html-keyboard-response,7,234441,0.0-3.0-5.0-0.0,39342,List2B,white,man,,,,null,,,,
6051,"<img src=""portrait/BW1.jpg""style=""width:400px;height:400px;""></img>",0,html-button-response,8,240493,0.0-3.0-7.0,39342,List2B,white,man,,TRUE,0,,,,,
null,CORRECT,,html-keyboard-response,9,241996,0.0-3.0-8.0-0.0,39342,List2B,white,man,,,,null,,,,
3946,"<img src=""portrait/WM2.jpg""style=""width:400px;height:400px;""></img>",7,html-button-response,10,245944,0.0-3.0-10.0,39342,List2B,white,man,,TRUE,7,,,,,
null,CORRECT,,html-keyboard-response,11,247445,0.0-3.0-11.0-0.0,39342,List2B,white,man,,,,null,,,,
2600,"<img src=""portrait/BM2.jpg""style=""width:400px;height:400px;""></img>",5,html-button-response,12,250046,0.0-3.0-13.0,39342,List2B,white,man,,TRUE,5,,,,,
null,CORRECT,,html-keyboard-response,13,251550,0.0-3.0-14.0-0.0,39342,List2B,white,man,,,,null,,,,
1833,"<img src=""portrait/BW2.jpg""style=""width:400px;height:400px;""></img>",2,html-button-response,14,253384,0.0-3.0-16.0,39342,List2B,white,man,,TRUE,2,,,,,
null,CORRECT,,html-keyboard-response,15,254887,0.0-3.0-17.0-0.0,39342,List2B,white,man,,,,null,,,,
5927,"<img src=""portrait/WW2.jpg""style=""width:400px;height:400px;""></img>",3,html-button-response,16,260815,0.0-3.0-19.0,39342,List2B,white,man,,TRUE,3,,,,,
null,CORRECT,,html-keyboard-response,17,262316,0.0-3.0-20.0-0.0,39342,List2B,white,man,,,,null,,,,
4629,"<img src=""portrait/WM1.jpg""style=""width:400px;height:400px;""></img>",6,html-button-response,18,266945,0.0-3.0-22.0,39342,List2B,white,man,,TRUE,6,,,,,
null,CORRECT,,html-keyboard-response,19,268448,0.0-3.0-23.0-0.0,39342,List2B,white,man,,,,null,,,,
1277,<p>You got 8 out of 8 right first time. Press Continue.</p>,0,html-button-response,20,269726,0.0-3.0-25.0,39342,List2B,white,man,,,,,,,,
67856,"<p>In this experiment, you will view photographs of the people from the memory game interacting.</p><p>By using the <strong>exact</strong> phrase given <i>after</i> the photograph appears and recalling the correct names of the people in the photographs, form a sentence describing the interaction. You do not need to capitalise names.</p><p>Type your answer in the space provided. Please complete every sentence before moving onto the next trial.</p><p>You will only have a few seconds to memorise each given photograph and phrase before you can respond, so try your best to focus.</p><p>An example is given below. Press 'Continue' when you are ready.</p><img src='img/speaking_example_v2.jpg' style='width:800px;height:460px;''></img>",0,html-button-response,21,338586,0.0-4.0,39342,List2B,white,man,,,,,,,,
1807,"<p>Before the experiment starts, you will watch two example trials. Press 'Continue'.</p>",0,html-button-response,22,341397,0.0-5.0,39342,List2B,white,man,,,,,,,,
null,<img src='img/speaking_WW.gif'></img>,,html-keyboard-response,23,344399,0.0-6.0,39342,List2B,white,man,,,,null,,,,
null,<p>is speaking to</p>,,html-keyboard-response,24,346400,0.0-7.0,39342,List2B,white,man,,,,null,,,,
3293,<p><b>Answer:</b> jane is speaking to ruth</p>,0,html-button-response,25,349694,0.0-8.0,39342,List2B,white,man,,,,,,,,
null,<img src='img/pointing_BM.gif'></img>,,html-keyboard-response,26,352696,0.0-9.0,39342,List2B,white,man,,,,null,,,,
null,<p>are pointing at each other</p>,,html-keyboard-response,27,354697,0.0-10.0,39342,List2B,white,man,,,,null,,,,
1589,<p><b>Answer:</b> fred and mike are pointing at each other</p>,0,html-button-response,28,356287,0.0-11.0,39342,List2B,white,man,,,,,,,,
2138,"<p>Ready to start the experiment?</p><br><p><strong>Remember to describe the picture using a full sentence,</strong></p><p><strong> that combines the names of the people with the given phrase.</strong></p><p><strong> You do not need to capitalise names or use punctuation.</strong></p><br><p>Press 'Continue' to begin.</p>",0,html-button-response,29,359427,0.0-12.0,39342,List2B,white,man,,,,,,,,
null,"<div style=""font-size:60px;"">+</div>",,html-keyboard-response,30,360930,0.0-13.0-0.0,39342,List2B,white,man,,,,null,,,,
null,"<img src=""stim_listB/fight6.gif""</stim_listB>",,html-keyboard-response,31,362932,0.0-13.0-1.0,39342,List2B,white,man,,,,null,,,,
null,are fighting each other,,html-keyboard-response,32,364934,0.0-13.0-2.0,39342,List2B,white,man,,,,null,,,,
28089,,,survey-text,33,393025,0.0-13.0-3.0,39342,List2B,white,man,,,,,"{""Q0"":""Fred and Luke are fighting each other.""}","<img src=""stim_listB/fight6.gif""</stim_listB>",are fighting each other,
null,"<div style=""font-size:60px;"">+</div>",,html-keyboard-response,34,393527,0.0-13.0-0.1,39342,List2B,white,man,,,,null,,,,
null,"<img src=""stim_listB/fight5.gif""</stim_listB>",,html-keyboard-response,35,395529,0.0-13.0-1.1,39342,List2B,white,man,,,,null,,,,
null,is fighting,,html-keyboard-response,36,397530,0.0-13.0-2.1,39342,List2B,white,man,,,,null,,,,
11933,,,survey-text,37,409464,0.0-13.0-3.1,39342,List2B,white,man,,,,,"{""Q0"":""Dave is fighting Mike.""}","<img src=""stim_listB/fight5.gif""</stim_listB>",is fighting,
null,"<div style=""font-size:60px;"">+</div>",,html-keyboard-response,38,409965,0.0-13.0-0.2,39342,List2B,white,man,,,,null,,,,
null,"<img src=""stim_listB/marry4.gif""</stim_listB>",,html-keyboard-response,39,411966,0.0-13.0-1.2,39342,List2B,white,man,,,,null,,,,
null,are marrying each other,,html-keyboard-response,40,413967,0.0-13.0-2.2,39342,List2B,white,man,,,,null,,,,
11940,,,survey-text,41,425909,0.0-13.0-3.2,39342,List2B,white,man,,,,,"{""Q0"":""Kate and Fred are marrying eachother.""}","<img src=""stim_listB/marry4.gif""</stim_listB>",are marrying each other,
null,"<div style=""font-size:60px;"">+</div>",,html-keyboard-response,42,426411,0.0-13.0-0.3,39342,List2B,white,man,,,,null,,,,
null,"<img src=""stim_listB/marry8.gif""</stim_listB>",,html-keyboard-response,43,428414,0.0-13.0-1.3,39342,List2B,white,man,,,,null,,,,
null,are marrying each other,,html-keyboard-response,44,430416,0.0-13.0-2.3,39342,List2B,white,man,,,,null,,,,
8505,,,survey-text,45,438922,0.0-13.0-3.3,39342,List2B,white,man,,,,,"{""Q0"":""Kate and Ruth are marrying each other.""}","<img src=""stim_listB/marry8.gif""</stim_listB>",are marrying each other,
null,"<div style=""font-size:60px;"">+</div>",,html-keyboard-response,46,439423,0.0-13.0-0.4,39342,List2B,white,man,,,,null,,,,
null,"<img src=""stim_listB/hug8.gif""</stim_listB>",,html-keyboard-response,47,441424,0.0-13.0-1.4,39342,List2B,white,man,,,,null,,,,
null,are hugging each other,,html-keyboard-response,48,443426,0.0-13.0-2.4,39342,List2B,white,man,,,,null,,,,
39713,,,survey-text,49,483140,0.0-13.0-3.4,39342,List2B,white,man,,,,,"{""Q0"":""Kate and Jane are hugging each other.""}","<img src=""stim_listB/hug8.gif""</stim_listB>",are hugging each other,
null,"<div style=""font-size:60px;"">+</div>",,html-keyboard-response,50,483640,0.0-13.0-0.5,39342,List2B,white,man,,,,null,,,,
null,"<img src=""stim_listB/hug6.gif""</stim_listB>",,html-keyboard-response,51,485642,0.0-13.0-1.5,39342,List2B,white,man,,,,null,,,,
null,are hugging each other,,html-keyboard-response,52,487644,0.0-13.0-2.5,39342,List2B,white,man,,,,null,,,,
9061,,,survey-text,53,496706,0.0-13.0-3.5,39342,List2B,white,man,,,,,"{""Q0"":""Mike and Dave are hugging each other.""}","<img src=""stim_listB/hug6.gif""</stim_listB>",are hugging each other,
null,"<div style=""font-size:60px;"">+</div>",,html-keyboard-response,54,497208,0.0-13.0-0.6,39342,List2B,white,man,,,,null,,,,
null,"<img src=""stim_listB/kiss1.gif""</stim_listB>",,html-keyboard-response,55,499210,0.0-13.0-1.6,39342,List2B,white,man,,,,null,,,,
null,is kissing,,html-keyboard-response,56,501211,0.0-13.0-2.6,39342,List2B,white,man,,,,null,,,,
7452,,,survey-text,57,508664,0.0-13.0-3.6,39342,List2B,white,man,,,,,"{""Q0"":""Ruth is kissing Luke.""}","<img src=""stim_listB/kiss1.gif""</stim_listB>",is kissing,
null,"<div style=""font-size:60px;"">+</div>",,html-keyboard-response,58,509165,0.0-13.0-0.7,39342,List2B,white,man,,,,null,,,,
null,"<img src=""stim_listB/kiss2.gif""</stim_listB>",,html-keyboard-response,59,511167,0.0-13.0-1.7,39342,List2B,white,man,,,,null,,,,
null,are kissing each other,,html-keyboard-response,60,513169,0.0-13.0-2.7,39342,List2B,white,man,,,,null,,,,
9089,,,survey-text,61,522259,0.0-13.0-3.7,39342,List2B,white,man,,,,,"{""Q0"":""Jane and Dave are kissing each other.""}","<img src=""stim_listB/kiss2.gif""</stim_listB>",are kissing each other,
null,"<div style=""font-size:60px;"">+</div>",,html-keyboard-response,62,522760,0.0-13.0-0.8,39342,List2B,white,man,,,,null,,,,
null,"<img src=""stim_listB/talk1.gif""</stim_listB>",,html-keyboard-response,63,524761,0.0-13.0-1.8,39342,List2B,white,man,,,,null,,,,
null,is talking to,,html-keyboard-response,64,526762,0.0-13.0-2.8,39342,List2B,white,man,,,,null,,,,
12449,,,survey-text,65,539213,0.0-13.0-3.8,39342,List2B,white,man,,,,,"{""Q0"":""Jane is talking to Luke.""}","<img src=""stim_listB/talk1.gif""</stim_listB>",is talking to,
null,"<div style=""font-size:60px;"">+</div>",,html-keyboard-response,66,539721,0.0-13.0-0.9,39342,List2B,white,man,,,,null,,,,
null,"<img src=""stim_listB/kiss4.gif""</stim_listB>",,html-keyboard-response,67,541724,0.0-13.0-1.9,39342,List2B,white,man,,,,null,,,,
null,are kissing each other,,html-keyboard-response,68,543725,0.0-13.0-2.9,39342,List2B,white,man,,,,null,,,,
17394,,,survey-text,69,561120,0.0-13.0-3.9,39342,List2B,white,man,,,,,"{""Q0"":""Kate and Mike are kissing each other.""}","<img src=""stim_listB/kiss4.gif""</stim_listB>",are kissing each other,
null,"<div style=""font-size:60px;"">+</div>",,html-keyboard-response,70,561621,0.0-13.0-0.10,39342,List2B,white,man,,,,null,,,,
null,"<img src=""stim_listB/talk5.gif""</stim_listB>",,html-keyboard-response,71,563623,0.0-13.0-1.10,39342,List2B,white,man,,,,null,,,,
null,is talking to,,html-keyboard-response,72,565624,0.0-13.0-2.10,39342,List2B,white,man,,,,null,,,,
5997,,,survey-text,73,571621,0.0-13.0-3.10,39342,List2B,white,man,,,,,"{""Q0"":""Mike is talking to Luke.""}","<img src=""stim_listB/talk5.gif""</stim_listB>",is talking to,
null,"<div style=""font-size:60px;"">+</div>",,html-keyboard-response,74,572122,0.0-13.0-0.11,39342,List2B,white,man,,,,null,,,,
null,"<img src=""stim_listB/argue2.gif""</stim_listB>",,html-keyboard-response,75,574123,0.0-13.0-1.11,39342,List2B,white,man,,,,null,,,,
null,are arguing with each other,,html-keyboard-response,76,576124,0.0-13.0-2.11,39342,List2B,white,man,,,,null,,,,
10645,,,survey-text,77,586770,0.0-13.0-3.11,39342,List2B,white,man,,,,,"{""Q0"":""Luke and Jane are arguing with each other.""}","<img src=""stim_listB/argue2.gif""</stim_listB>",are arguing with each other,
null,"<div style=""font-size:60px;"">+</div>",,html-keyboard-response,78,587272,0.0-13.0-0.12,39342,List2B,white,man,,,,null,,,,
null,"<img src=""stim_listB/dance4.gif""</stim_listB>",,html-keyboard-response,79,589274,0.0-13.0-1.12,39342,List2B,white,man,,,,null,,,,
null,are dancing with each other,,html-keyboard-response,80,591276,0.0-13.0-2.12,39342,List2B,white,man,,,,null,,,,
40566,,,survey-text,81,631843,0.0-13.0-3.12,39342,List2B,white,man,,,,,"{""Q0"":""Mike and Jane are dancing with each other.""}","<img src=""stim_listB/dance4.gif""</stim_listB>",are dancing with each other,
null,"<div style=""font-size:60px;"">+</div>",,html-keyboard-response,82,632344,0.0-13.0-0.13,39342,List2B,white,man,,,,null,,,,
null,"<img src=""stim_listB/hug4.gif""</stim_listB>",,html-keyboard-response,83,634346,0.0-13.0-1.13,39342,List2B,white,man,,,,null,,,,
null,are hugging each other,,html-keyboard-response,84,636347,0.0-13.0-2.13,39342,List2B,white,man,,,,null,,,,
11299,,,survey-text,85,647646,0.0-13.0-3.13,39342,List2B,white,man,,,,,"{""Q0"":""Mike and Kate are hugging each other.""}","<img src=""stim_listB/hug4.gif""</stim_listB>",are hugging each other,
null,"<div style=""font-size:60px;"">+</div>",,html-keyboard-response,86,648147,0.0-13.0-0.14,39342,List2B,white,man,,,,null,,,,
null,"<img src=""stim_listB/argue4.gif""</stim_listB>",,html-keyboard-response,87,650149,0.0-13.0-1.14,39342,List2B,white,man,,,,null,,,,
null,are arguing with each other,,html-keyboard-response,88,652152,0.0-13.0-2.14,39342,List2B,white,man,,,,null,,,,
9505,,,survey-text,89,661657,0.0-13.0-3.14,39342,List2B,white,man,,,,,"{""Q0"":""Kate and Fred are arguing with each other.""}","<img src=""stim_listB/argue4.gif""</stim_listB>",are arguing with each other,
null,"<div style=""font-size:60px;"">+</div>",,html-keyboard-response,90,662555,0.0-13.0-0.15,39342,List2B,white,man,,,,null,,,,
null,"<img src=""stim_listB/hug3.gif""</stim_listB>",,html-keyboard-response,91,664557,0.0-13.0-1.15,39342,List2B,white,man,,,,null,,,,
null,is hugging,,html-keyboard-response,92,666564,0.0-13.0-2.15,39342,List2B,white,man,,,,null,,,,
11405,,,survey-text,93,677969,0.0-13.0-3.15,39342,List2B,white,man,,,,,"{""Q0"":""Fred is hugging Jane.""}","<img src=""stim_listB/hug3.gif""</stim_listB>",is hugging,
null,"<div style=""font-size:60px;"">+</div>",,html-keyboard-response,94,678470,0.0-13.0-0.16,39342,List2B,white,man,,,,null,,,,
null,"<img src=""stim_listB/dance5.gif""</stim_listB>",,html-keyboard-response,95,680472,0.0-13.0-1.16,39342,List2B,white,man,,,,null,,,,
null,is dancing with,,html-keyboard-response,96,682473,0.0-13.0-2.16,39342,List2B,white,man,,,,null,,,,
8122,,,survey-text,97,690595,0.0-13.0-3.16,39342,List2B,white,man,,,,,"{""Q0"":""Mike is dancing with Luke.""}","<img src=""stim_listB/dance5.gif""</stim_listB>",is dancing with,
null,"<div style=""font-size:60px;"">+</div>",,html-keyboard-response,98,691096,0.0-13.0-0.17,39342,List2B,white,man,,,,null,,,,
null,"<img src=""stim_listB/talk3.gif""</stim_listB>",,html-keyboard-response,99,693098,0.0-13.0-1.17,39342,List2B,white,man,,,,null,,,,
null,is talking to,,html-keyboard-response,100,695099,0.0-13.0-2.17,39342,List2B,white,man,,,,null,,,,
8855,,,survey-text,101,703954,0.0-13.0-3.17,39342,List2B,white,man,,,,,"{""Q0"":""I didn't see an image.""}","<img src=""stim_listB/talk3.gif""</stim_listB>",is talking to,
null,"<div style=""font-size:60px;"">+</div>",,html-keyboard-response,102,704456,0.0-13.0-0.18,39342,List2B,white,man,,,,null,,,,
null,"<img src=""stim_listB/touch8.gif""</stim_listB>",,html-keyboard-response,103,706457,0.0-13.0-1.18,39342,List2B,white,man,,,,null,,,,
null,are touching each other,,html-keyboard-response,104,708458,0.0-13.0-2.18,39342,List2B,white,man,,,,null,,,,
9907,,,survey-text,105,718366,0.0-13.0-3.18,39342,List2B,white,man,,,,,"{""Q0"":""I didn't see an image. ""}","<img src=""stim_listB/touch8.gif""</stim_listB>",are touching each other,
null,"<div style=""font-size:60px;"">+</div>",,html-keyboard-response,106,718867,0.0-13.0-0.19,39342,List2B,white,man,,,,null,,,,
null,"<img src=""stim_listB/touch7.gif""</stim_listB>",,html-keyboard-response,107,720868,0.0-13.0-1.19,39342,List2B,white,man,,,,null,,,,
null,is touching,,html-keyboard-response,108,722868,0.0-13.0-2.19,39342,List2B,white,man,,,,null,,,,
1324,,,survey-text,109,724193,0.0-13.0-3.19,39342,List2B,white,man,,,,,"{""Q0"":""I didn't see an image. ""}","<img src=""stim_listB/touch7.gif""</stim_listB>",is touching,
49498,"<img src='img/portrait_matrix_list2.JPG' style='width:900px;height:500px;''></img><p>If you have memorised all the portraits and names and are ready to start, press Continue.</p><p><strong>Please note: Your memory of these faces will be tested 4 times during this experiment.</strong></p>",0,html-button-response,110,773693,0.0-14.0-0.0,39342,List2B,white,man,,,,,,,,
5064,"<img src=""portrait/WM2.jpg""style=""width:400px;height:400px;""></img>",7,html-button-response,111,779759,0.0-14.0-1.0,39342,List2B,white,man,,TRUE,7,,,,,
null,CORRECT,,html-keyboard-response,112,781261,0.0-14.0-2.0-0.0,39342,List2B,white,man,,,,null,,,,
4413,"<img src=""portrait/WW2.jpg""style=""width:400px;height:400px;""></img>",3,html-button-response,113,785676,0.0-14.0-4.0,39342,List2B,white,man,,TRUE,3,,,,,
null,CORRECT,,html-keyboard-response,114,787178,0.0-14.0-5.0-0.0,39342,List2B,white,man,,,,null,,,,
2356,"<img src=""portrait/BM2.jpg""style=""width:400px;height:400px;""></img>",5,html-button-response,115,789536,0.0-14.0-7.0,39342,List2B,white,man,,TRUE,5,,,,,
null,CORRECT,,html-keyboard-response,116,791038,0.0-14.0-8.0-0.0,39342,List2B,white,man,,,,null,,,,
2546,"<img src=""portrait/BW1.jpg""style=""width:400px;height:400px;""></img>",0,html-button-response,117,793586,0.0-14.0-10.0,39342,List2B,white,man,,TRUE,0,,,,,
null,CORRECT,,html-keyboard-response,118,795089,0.0-14.0-11.0-0.0,39342,List2B,white,man,,,,null,,,,
3085,"<img src=""portrait/BM1.jpg""style=""width:400px;height:400px;""></img>",4,html-button-response,119,798176,0.0-14.0-13.0,39342,List2B,white,man,,TRUE,4,,,,,
null,CORRECT,,html-keyboard-response,120,799679,0.0-14.0-14.0-0.0,39342,List2B,white,man,,,,null,,,,
1625,"<img src=""portrait/BW2.jpg""style=""width:400px;height:400px;""></img>",2,html-button-response,121,801305,0.0-14.0-16.0,39342,List2B,white,man,,TRUE,2,,,,,
null,CORRECT,,html-keyboard-response,122,802809,0.0-14.0-17.0-0.0,39342,List2B,white,man,,,,null,,,,
2173,"<img src=""portrait/WM1.jpg""style=""width:400px;height:400px;""></img>",6,html-button-response,123,804983,0.0-14.0-19.0,39342,List2B,white,man,,TRUE,6,,,,,
null,CORRECT,,html-keyboard-response,124,806486,0.0-14.0-20.0-0.0,39342,List2B,white,man,,,,null,,,,
2643,"<img src=""portrait/WW1.jpg""style=""width:400px;height:400px;""></img>",1,html-button-response,125,809130,0.0-14.0-22.0,39342,List2B,white,man,,TRUE,1,,,,,
null,CORRECT,,html-keyboard-response,126,810631,0.0-14.0-23.0-0.0,39342,List2B,white,man,,,,null,,,,
1024,<p>You got 8 out of 8 right first time. Press Continue.</p>,0,html-button-response,127,811656,0.0-14.0-25.0,39342,List2B,white,man,,,,,,,,
null,"<div style=""font-size:60px;"">+</div>",,html-keyboard-response,128,813157,0.0-15.0-0.0,39342,List2B,white,man,,,,null,,,,
null,"<img src=""stim_listB/marry3.gif""</stim_listB>",,html-keyboard-response,129,815163,0.0-15.0-1.0,39342,List2B,white,man,,,,null,,,,
null,is marrying,,html-keyboard-response,130,817164,0.0-15.0-2.0,39342,List2B,white,man,,,,null,,,,
7016,,,survey-text,131,824180,0.0-15.0-3.0,39342,List2B,white,man,,,,,"{""Q0"":""Beth is marrying Mike.""}","<img src=""stim_listB/marry3.gif""</stim_listB>",is marrying,
null,"<div style=""font-size:60px;"">+</div>",,html-keyboard-response,132,824682,0.0-15.0-0.1,39342,List2B,white,man,,,,null,,,,
null,"<img src=""stim_listB/hug5.gif""</stim_listB>",,html-keyboard-response,133,826684,0.0-15.0-1.1,39342,List2B,white,man,,,,null,,,,
null,is hugging,,html-keyboard-response,134,828686,0.0-15.0-2.1,39342,List2B,white,man,,,,null,,,,
7772,,,survey-text,135,836458,0.0-15.0-3.1,39342,List2B,white,man,,,,,"{""Q0"":""Fred is hugging Luke.""}","<img src=""stim_listB/hug5.gif""</stim_listB>",is hugging,
null,"<div style=""font-size:60px;"">+</div>",,html-keyboard-response,136,836960,0.0-15.0-0.2,39342,List2B,white,man,,,,null,,,,
null,"<img src=""stim_listB/touch1.gif""</stim_listB>",,html-keyboard-response,137,838961,0.0-15.0-1.2,39342,List2B,white,man,,,,null,,,,
null,is touching,,html-keyboard-response,138,840962,0.0-15.0-2.2,39342,List2B,white,man,,,,null,,,,
5721,,,survey-text,139,846685,0.0-15.0-3.2,39342,List2B,white,man,,,,,"{""Q0"":""Dave is touching Jane.""}","<img src=""stim_listB/touch1.gif""</stim_listB>",is touching,
null,"<div style=""font-size:60px;"">+</div>",,html-keyboard-response,140,847187,0.0-15.0-0.3,39342,List2B,white,man,,,,null,,,,
null,"<img src=""stim_listB/hug2.gif""</stim_listB>",,html-keyboard-response,141,849189,0.0-15.0-1.3,39342,List2B,white,man,,,,null,,,,
null,are hugging each other,,html-keyboard-response,142,851190,0.0-15.0-2.3,39342,List2B,white,man,,,,null,,,,
6158,,,survey-text,143,857349,0.0-15.0-3.3,39342,List2B,white,man,,,,,"{""Q0"":""Dave and Jane are hugging each other.""}","<img src=""stim_listB/hug2.gif""</stim_listB>",are hugging each other,
null,"<div style=""font-size:60px;"">+</div>",,html-keyboard-response,144,857851,0.0-15.0-0.4,39342,List2B,white,man,,,,null,,,,
null,"<img src=""stim_listB/touch4.gif""</stim_listB>",,html-keyboard-response,145,859854,0.0-15.0-1.4,39342,List2B,white,man,,,,null,,,,
null,are touching each other,,html-keyboard-response,146,861855,0.0-15.0-2.4,39342,List2B,white,man,,,,null,,,,
7089,,,survey-text,147,868945,0.0-15.0-3.4,39342,List2B,white,man,,,,,"{""Q0"":""Fred and Beth are touching each other.""}","<img src=""stim_listB/touch4.gif""</stim_listB>",are touching each other,
null,"<div style=""font-size:60px;"">+</div>",,html-keyboard-response,148,869446,0.0-15.0-0.5,39342,List2B,white,man,,,,null,,,,
null,"<img src=""stim_listB/meet6.gif""</stim_listB>",,html-keyboard-response,149,871447,0.0-15.0-1.5,39342,List2B,white,man,,,,null,,,,
null,are meeting each other,,html-keyboard-response,150,873449,0.0-15.0-2.5,39342,List2B,white,man,,,,null,,,,
6183,,,survey-text,151,879632,0.0-15.0-3.5,39342,List2B,white,man,,,,,"{""Q0"":""Luke and Fred are meeting each other.""}","<img src=""stim_listB/meet6.gif""</stim_listB>",are meeting each other,
null,"<div style=""font-size:60px;"">+</div>",,html-keyboard-response,152,880133,0.0-15.0-0.6,39342,List2B,white,man,,,,null,,,,
null,"<img src=""stim_listB/shout8.gif""</stim_listB>",,html-keyboard-response,153,882135,0.0-15.0-1.6,39342,List2B,white,man,,,,null,,,,
null,are shouting at each other,,html-keyboard-response,154,884138,0.0-15.0-2.6,39342,List2B,white,man,,,,null,,,,
8768,,,survey-text,155,892906,0.0-15.0-3.6,39342,List2B,white,man,,,,,"{""Q0"":""Kate and Jane are shouting at each other.""}","<img src=""stim_listB/shout8.gif""</stim_listB>",are shouting at each other,
null,"<div style=""font-size:60px;"">+</div>",,html-keyboard-response,156,893408,0.0-15.0-0.7,39342,List2B,white,man,,,,null,,,,
null,"<img src=""stim_listB/argue1.gif""</stim_listB>",,html-keyboard-response,157,895409,0.0-15.0-1.7,39342,List2B,white,man,,,,null,,,,
null,is arguing with,,html-keyboard-response,158,897411,0.0-15.0-2.7,39342,List2B,white,man,,,,null,,,,
5243,,,survey-text,159,902654,0.0-15.0-3.7,39342,List2B,white,man,,,,,"{""Q0"":""Ruth is arguing with Dave.""}","<img src=""stim_listB/argue1.gif""</stim_listB>",is arguing with,
null,"<div style=""font-size:60px;"">+</div>",,html-keyboard-response,160,903156,0.0-15.0-0.8,39342,List2B,white,man,,,,null,,,,
null,"<img src=""stim_listB/meet5.gif""</stim_listB>",,html-keyboard-response,161,905157,0.0-15.0-1.8,39342,List2B,white,man,,,,null,,,,
null,is meeting,,html-keyboard-response,162,907159,0.0-15.0-2.8,39342,List2B,white,man,,,,null,,,,
4900,,,survey-text,163,912060,0.0-15.0-3.8,39342,List2B,white,man,,,,,"{""Q0"":""Dave is meeting Mike.""}","<img src=""stim_listB/meet5.gif""</stim_listB>",is meeting,
null,"<div style=""font-size:60px;"">+</div>",,html-keyboard-response,164,912563,0.0-15.0-0.9,39342,List2B,white,man,,,,null,,,,
null,"<img src=""stim_listB/kiss3.gif""</stim_listB>",,html-keyboard-response,165,914564,0.0-15.0-1.9,39342,List2B,white,man,,,,null,,,,
null,is kissing,,html-keyboard-response,166,916564,0.0-15.0-2.9,39342,List2B,white,man,,,,null,,,,
5921,,,survey-text,167,922486,0.0-15.0-3.9,39342,List2B,white,man,,,,,"{""Q0"":""Fred is kissing Beth.""}","<img src=""stim_listB/kiss3.gif""</stim_listB>",is kissing,
null,"<div style=""font-size:60px;"">+</div>",,html-keyboard-response,168,922987,0.0-15.0-0.10,39342,List2B,white,man,,,,null,,,,
null,"<img src=""stim_listB/shout4.gif""</stim_listB>",,html-keyboard-response,169,924989,0.0-15.0-1.10,39342,List2B,white,man,,,,null,,,,
null,are shouting at each other,,html-keyboard-response,170,926990,0.0-15.0-2.10,39342,List2B,white,man,,,,null,,,,
6451,,,survey-text,171,933442,0.0-15.0-3.10,39342,List2B,white,man,,,,,"{""Q0"":""Kate and Mike are shouting at each other.""}","<img src=""stim_listB/shout4.gif""</stim_listB>",are shouting at each other,
null,"<div style=""font-size:60px;"">+</div>",,html-keyboard-response,172,933943,0.0-15.0-0.11,39342,List2B,white,man,,,,null,,,,
null,"<img src=""stim_listB/kiss6.gif""</stim_listB>",,html-keyboard-response,173,935949,0.0-15.0-1.11,39342,List2B,white,man,,,,null,,,,
null,are kissing each other,,html-keyboard-response,174,937950,0.0-15.0-2.11,39342,List2B,white,man,,,,null,,,,
7719,,,survey-text,175,945670,0.0-15.0-3.11,39342,List2B,white,man,,,,,"{""Q0"":""Dave and Mike are kissing each other.""}","<img src=""stim_listB/kiss6.gif""</stim_listB>",are kissing each other,
null,"<div style=""font-size:60px;"">+</div>",,html-keyboard-response,176,946172,0.0-15.0-0.12,39342,List2B,white,man,,,,null,,,,
null,"<img src=""stim_listB/meet7.gif""</stim_listB>",,html-keyboard-response,177,948173,0.0-15.0-1.12,39342,List2B,white,man,,,,null,,,,
null,is meeting,,html-keyboard-response,178,950175,0.0-15.0-2.12,39342,List2B,white,man,,,,null,,,,
5566,,,survey-text,179,955742,0.0-15.0-3.12,39342,List2B,white,man,,,,,"{""Q0"":""Jane is meeting Kate.""}","<img src=""stim_listB/meet7.gif""</stim_listB>",is meeting,
null,"<div style=""font-size:60px;"">+</div>",,html-keyboard-response,180,956243,0.0-15.0-0.13,39342,List2B,white,man,,,,null,,,,
null,"<img src=""stim_listB/shout1.gif""</stim_listB>",,html-keyboard-response,181,958245,0.0-15.0-1.13,39342,List2B,white,man,,,,null,,,,
null,is shouting at,,html-keyboard-response,182,960246,0.0-15.0-2.13,39342,List2B,white,man,,,,null,,,,
6564,,,survey-text,183,966810,0.0-15.0-3.13,39342,List2B,white,man,,,,,"{""Q0"":""Ruth is shouting at Luke.""}","<img src=""stim_listB/shout1.gif""</stim_listB>",is shouting at,
null,"<div style=""font-size:60px;"">+</div>",,html-keyboard-response,184,967311,0.0-15.0-0.14,39342,List2B,white,man,,,,null,,,,
null,"<img src=""stim_listB/talk7.gif""</stim_listB>",,html-keyboard-response,185,969312,0.0-15.0-1.14,39342,List2B,white,man,,,,null,,,,
null,is talking to,,html-keyboard-response,186,971315,0.0-15.0-2.14,39342,List2B,white,man,,,,null,,,,
6011,,,survey-text,187,977326,0.0-15.0-3.14,39342,List2B,white,man,,,,,"{""Q0"":""Kate is talking to Ruth.""}","<img src=""stim_listB/talk7.gif""</stim_listB>",is talking to,
null,"<div style=""font-size:60px;"">+</div>",,html-keyboard-response,188,977828,0.0-15.0-0.15,39342,List2B,white,man,,,,null,,,,
null,"<img src=""stim_listB/marry7.gif""</stim_listB>",,html-keyboard-response,189,979829,0.0-15.0-1.15,39342,List2B,white,man,,,,null,,,,
null,is marrying,,html-keyboard-response,190,981831,0.0-15.0-2.15,39342,List2B,white,man,,,,null,,,,
6850,,,survey-text,191,988682,0.0-15.0-3.15,39342,List2B,white,man,,,,,"{""Q0"":""Jane is marrying Beth.""}","<img src=""stim_listB/marry7.gif""</stim_listB>",is marrying,
null,"<div style=""font-size:60px;"">+</div>",,html-keyboard-response,192,989184,0.0-15.0-0.16,39342,List2B,white,man,,,,null,,,,
null,"<img src=""stim_listB/fight7.gif""</stim_listB>",,html-keyboard-response,193,991185,0.0-15.0-1.16,39342,List2B,white,man,,,,null,,,,
null,is fighting,,html-keyboard-response,194,993186,0.0-15.0-2.16,39342,List2B,white,man,,,,null,,,,
6297,,,survey-text,195,999483,0.0-15.0-3.16,39342,List2B,white,man,,,,,"{""Q0"":""Kate is fighting Jane.""}","<img src=""stim_listB/fight7.gif""</stim_listB>",is fighting,
null,"<div style=""font-size:60px;"">+</div>",,html-keyboard-response,196,999985,0.0-15.0-0.17,39342,List2B,white,man,,,,null,,,,
null,"<img src=""stim_listB/kiss5.gif""</stim_listB>",,html-keyboard-response,197,1001987,0.0-15.0-1.17,39342,List2B,white,man,,,,null,,,,
null,is kissing,,html-keyboard-response,198,1003988,0.0-15.0-2.17,39342,List2B,white,man,,,,null,,,,
7278,,,survey-text,199,1011267,0.0-15.0-3.17,39342,List2B,white,man,,,,,"{""Q0"":""Luke is kissing Fred.""}","<img src=""stim_listB/kiss5.gif""</stim_listB>",is kissing,
null,"<div style=""font-size:60px;"">+</div>",,html-keyboard-response,200,1011768,0.0-15.0-0.18,39342,List2B,white,man,,,,null,,,,
null,"<img src=""stim_listB/hug1.gif""</stim_listB>",,html-keyboard-response,201,1013769,0.0-15.0-1.18,39342,List2B,white,man,,,,null,,,,
null,is hugging,,html-keyboard-response,202,1015771,0.0-15.0-2.18,39342,List2B,white,man,,,,null,,,,
7968,,,survey-text,203,1023740,0.0-15.0-3.18,39342,List2B,white,man,,,,,"{""Q0"":""Beth is hugging Luke.""}","<img src=""stim_listB/hug1.gif""</stim_listB>",is hugging,
null,"<div style=""font-size:60px;"">+</div>",,html-keyboard-response,204,1024243,0.0-15.0-0.19,39342,List2B,white,man,,,,null,,,,
null,"<img src=""stim_listB/kiss8.gif""</stim_listB>",,html-keyboard-response,205,1026244,0.0-15.0-1.19,39342,List2B,white,man,,,,null,,,,
null,are kissing each other,,html-keyboard-response,206,1028246,0.0-15.0-2.19,39342,List2B,white,man,,,,null,,,,
8820,,,survey-text,207,1037067,0.0-15.0-3.19,39342,List2B,white,man,,,,,"{""Q0"":""Kate and Jane are kissing each other.""}","<img src=""stim_listB/kiss8.gif""</stim_listB>",are kissing each other,
3584,"<img src='img/portrait_matrix_list2.JPG' style='width:900px;height:500px;''></img><p>If you have memorised all the portraits and names and are ready to start, press Continue.</p><p><strong>Please note: Your memory of these faces will be tested 4 times during this experiment.</strong></p>",0,html-button-response,208,1040652,0.0-16.0-0.0,39342,List2B,white,man,,,,,,,,
14981,"<img src=""portrait/WW2.jpg""style=""width:400px;height:400px;""></img>",3,html-button-response,209,1056635,0.0-16.0-1.0,39342,List2B,white,man,,TRUE,3,,,,,
null,CORRECT,,html-keyboard-response,210,1058137,0.0-16.0-2.0-0.0,39342,List2B,white,man,,,,null,,,,
17943,"<img src=""portrait/WM1.jpg""style=""width:400px;height:400px;""></img>",6,html-button-response,211,1076081,0.0-16.0-4.0,39342,List2B,white,man,,TRUE,6,,,,,
null,CORRECT,,html-keyboard-response,212,1077583,0.0-16.0-5.0-0.0,39342,List2B,white,man,,,,null,,,,
3475,"<img src=""portrait/WM2.jpg""style=""width:400px;height:400px;""></img>",7,html-button-response,213,1081060,0.0-16.0-7.0,39342,List2B,white,man,,TRUE,7,,,,,
null,CORRECT,,html-keyboard-response,214,1082563,0.0-16.0-8.0-0.0,39342,List2B,white,man,,,,null,,,,
1672,"<img src=""portrait/BW2.jpg""style=""width:400px;height:400px;""></img>",2,html-button-response,215,1084235,0.0-16.0-10.0,39342,List2B,white,man,,TRUE,2,,,,,
null,CORRECT,,html-keyboard-response,216,1085738,0.0-16.0-11.0-0.0,39342,List2B,white,man,,,,null,,,,
1648,"<img src=""portrait/BM2.jpg""style=""width:400px;height:400px;""></img>",5,html-button-response,217,1087387,0.0-16.0-13.0,39342,List2B,white,man,,TRUE,5,,,,,
null,CORRECT,,html-keyboard-response,218,1088890,0.0-16.0-14.0-0.0,39342,List2B,white,man,,,,null,,,,
1769,"<img src=""portrait/BW1.jpg""style=""width:400px;height:400px;""></img>",0,html-button-response,219,1090660,0.0-16.0-16.0,39342,List2B,white,man,,TRUE,0,,,,,
null,CORRECT,,html-keyboard-response,220,1092163,0.0-16.0-17.0-0.0,39342,List2B,white,man,,,,null,,,,
1746,"<img src=""portrait/WW1.jpg""style=""width:400px;height:400px;""></img>",1,html-button-response,221,1093909,0.0-16.0-19.0,39342,List2B,white,man,,TRUE,1,,,,,
null,CORRECT,,html-keyboard-response,222,1095412,0.0-16.0-20.0-0.0,39342,List2B,white,man,,,,null,,,,
2729,"<img src=""portrait/BM1.jpg""style=""width:400px;height:400px;""></img>",4,html-button-response,223,1098141,0.0-16.0-22.0,39342,List2B,white,man,,TRUE,4,,,,,
null,CORRECT,,html-keyboard-response,224,1099643,0.0-16.0-23.0-0.0,39342,List2B,white,man,,,,null,,,,
933,<p>You got 8 out of 8 right first time. Press Continue.</p>,0,html-button-response,225,1100576,0.0-16.0-25.0,39342,List2B,white,man,,,,,,,,
null,"<div style=""font-size:60px;"">+</div>",,html-keyboard-response,226,1102079,0.0-17.0-0.0,39342,List2B,white,man,,,,null,,,,
null,"<img src=""stim_listB/kiss7.gif""</stim_listB>",,html-keyboard-response,227,1104082,0.0-17.0-1.0,39342,List2B,white,man,,,,null,,,,
null,is kissing,,html-keyboard-response,228,1106084,0.0-17.0-2.0,39342,List2B,white,man,,,,null,,,,
5211,,,survey-text,229,1111296,0.0-17.0-3.0,39342,List2B,white,man,,,,,"{""Q0"":""Beth is kissing Ruth.""}","<img src=""stim_listB/kiss7.gif""</stim_listB>",is kissing,
null,"<div style=""font-size:60px;"">+</div>",,html-keyboard-response,230,1111797,0.0-17.0-0.1,39342,List2B,white,man,,,,null,,,,
null,"<img src=""stim_listB/dance3.gif""</stim_listB>",,html-keyboard-response,231,1113798,0.0-17.0-1.1,39342,List2B,white,man,,,,null,,,,
null,is dancing with,,html-keyboard-response,232,1115799,0.0-17.0-2.1,39342,List2B,white,man,,,,null,,,,
10361,,,survey-text,233,1126160,0.0-17.0-3.1,39342,List2B,white,man,,,,,"{""Q0"":""Kate is dancing with Fred.""}","<img src=""stim_listB/dance3.gif""</stim_listB>",is dancing with,
null,"<div style=""font-size:60px;"">+</div>",,html-keyboard-response,234,1126662,0.0-17.0-0.2,39342,List2B,white,man,,,,null,,,,
null,"<img src=""stim_listB/marry2.gif""</stim_listB>",,html-keyboard-response,235,1128664,0.0-17.0-1.2,39342,List2B,white,man,,,,null,,,,
null,are marrying each other,,html-keyboard-response,236,1130665,0.0-17.0-2.2,39342,List2B,white,man,,,,null,,,,
6793,,,survey-text,237,1137459,0.0-17.0-3.2,39342,List2B,white,man,,,,,"{""Q0"":""Jane and Luke are marrying each other.""}","<img src=""stim_listB/marry2.gif""</stim_listB>",are marrying each other,
null,"<div style=""font-size:60px;"">+</div>",,html-keyboard-response,238,1137961,0.0-17.0-0.3,39342,List2B,white,man,,,,null,,,,
null,"<img src=""stim_listB/talk8.gif""</stim_listB>",,html-keyboard-response,239,1139963,0.0-17.0-1.3,39342,List2B,white,man,,,,null,,,,
null,are talking to each other,,html-keyboard-response,240,1141965,0.0-17.0-2.3,39342,List2B,white,man,,,,null,,,,
7783,,,survey-text,241,1149748,0.0-17.0-3.3,39342,List2B,white,man,,,,,"{""Q0"":""Beth and Jane are talking to each other.""}","<img src=""stim_listB/talk8.gif""</stim_listB>",are talking to each other,
null,"<div style=""font-size:60px;"">+</div>",,html-keyboard-response,242,1150249,0.0-17.0-0.4,39342,List2B,white,man,,,,null,,,,
null,"<img src=""stim_listB/fight8.gif""</stim_listB>",,html-keyboard-response,243,1152251,0.0-17.0-1.4,39342,List2B,white,man,,,,null,,,,
null,are fighting each other,,html-keyboard-response,244,1154252,0.0-17.0-2.4,39342,List2B,white,man,,,,null,,,,
7821,,,survey-text,245,1162074,0.0-17.0-3.4,39342,List2B,white,man,,,,,"{""Q0"":""Ruth and Beth are fighting each other.""}","<img src=""stim_listB/fight8.gif""</stim_listB>",are fighting each other,
null,"<div style=""font-size:60px;"">+</div>",,html-keyboard-response,246,1162575,0.0-17.0-0.5,39342,List2B,white,man,,,,null,,,,
null,"<img src=""stim_listB/argue7.gif""</stim_listB>",,html-keyboard-response,247,1164577,0.0-17.0-1.5,39342,List2B,white,man,,,,null,,,,
null,is arguing with,,html-keyboard-response,248,1166578,0.0-17.0-2.5,39342,List2B,white,man,,,,null,,,,
4956,,,survey-text,249,1171535,0.0-17.0-3.5,39342,List2B,white,man,,,,,"{""Q0"":""Beth is arguing with Jane.""}","<img src=""stim_listB/argue7.gif""</stim_listB>",is arguing with,
null,"<div style=""font-size:60px;"">+</div>",,html-keyboard-response,250,1172036,0.0-17.0-0.6,39342,List2B,white,man,,,,null,,,,
null,"<img src=""stim_listB/dance6.gif""</stim_listB>",,html-keyboard-response,251,1174037,0.0-17.0-1.6,39342,List2B,white,man,,,,null,,,,
null,are dancing with each other,,html-keyboard-response,252,1176039,0.0-17.0-2.6,39342,List2B,white,man,,,,null,,,,
7500,,,survey-text,253,1183539,0.0-17.0-3.6,39342,List2B,white,man,,,,,"{""Q0"":""Dave and Fred are dancing with each other.""}","<img src=""stim_listB/dance6.gif""</stim_listB>",are dancing with each other,
null,"<div style=""font-size:60px;"">+</div>",,html-keyboard-response,254,1184041,0.0-17.0-0.7,39342,List2B,white,man,,,,null,,,,
null,"<img src=""stim_listB/meet8.gif""</stim_listB>",,html-keyboard-response,255,1186042,0.0-17.0-1.7,39342,List2B,white,man,,,,null,,,,
null,are meeting each other,,html-keyboard-response,256,1188043,0.0-17.0-2.7,39342,List2B,white,man,,,,null,,,,
7469,,,survey-text,257,1195512,0.0-17.0-3.7,39342,List2B,white,man,,,,,"{""Q0"":""Beth and Ruth are meeting each other.""}","<img src=""stim_listB/meet8.gif""</stim_listB>",are meeting each other,
null,"<div style=""font-size:60px;"">+</div>",,html-keyboard-response,258,1196014,0.0-17.0-0.8,39342,List2B,white,man,,,,null,,,,
null,"<img src=""stim_listB/touch3.gif""</stim_listB>",,html-keyboard-response,259,1198016,0.0-17.0-1.8,39342,List2B,white,man,,,,null,,,,
null,is touching,,html-keyboard-response,260,1200017,0.0-17.0-2.8,39342,List2B,white,man,,,,null,,,,
5703,,,survey-text,261,1205720,0.0-17.0-3.8,39342,List2B,white,man,,,,,"{""Q0"":""Kate is touching Mike.""}","<img src=""stim_listB/touch3.gif""</stim_listB>",is touching,
null,"<div style=""font-size:60px;"">+</div>",,html-keyboard-response,262,1206221,0.0-17.0-0.9,39342,List2B,white,man,,,,null,,,,
null,"<img src=""stim_listB/fight4.gif""</stim_listB>",,html-keyboard-response,263,1208222,0.0-17.0-1.9,39342,List2B,white,man,,,,null,,,,
null,are fighting each other,,html-keyboard-response,264,1210224,0.0-17.0-2.9,39342,List2B,white,man,,,,null,,,,
8352,,,survey-text,265,1218576,0.0-17.0-3.9,39342,List2B,white,man,,,,,"{""Q0"":""Fred and Beth are fighting each other.""}","<img src=""stim_listB/fight4.gif""</stim_listB>",are fighting each other,
null,"<div style=""font-size:60px;"">+</div>",,html-keyboard-response,266,1219079,0.0-17.0-0.10,39342,List2B,white,man,,,,null,,,,
null,"<img src=""stim_listB/talk4.gif""</stim_listB>",,html-keyboard-response,267,1221081,0.0-17.0-1.10,39342,List2B,white,man,,,,null,,,,
null,are talking to each other,,html-keyboard-response,268,1223083,0.0-17.0-2.10,39342,List2B,white,man,,,,null,,,,
7612,,,survey-text,269,1230696,0.0-17.0-3.10,39342,List2B,white,man,,,,,"{""Q0"":""Mike and Beth are talking to each other.""}","<img src=""stim_listB/talk4.gif""</stim_listB>",are talking to each other,
null,"<div style=""font-size:60px;"">+</div>",,html-keyboard-response,270,1231198,0.0-17.0-0.11,39342,List2B,white,man,,,,null,,,,
null,"<img src=""stim_listB/fight2.gif""</stim_listB>",,html-keyboard-response,271,1233199,0.0-17.0-1.11,39342,List2B,white,man,,,,null,,,,
null,are fighting each other,,html-keyboard-response,272,1235200,0.0-17.0-2.11,39342,List2B,white,man,,,,null,,,,
6383,,,survey-text,273,1241584,0.0-17.0-3.11,39342,List2B,white,man,,,,,"{""Q0"":""Luke and Beth are fighting each other.""}","<img src=""stim_listB/fight2.gif""</stim_listB>",are fighting each other,
null,"<div style=""font-size:60px;"">+</div>",,html-keyboard-response,274,1242086,0.0-17.0-0.12,39342,List2B,white,man,,,,null,,,,
null,"<img src=""stim_listB/argue6.gif""</stim_listB>",,html-keyboard-response,275,1244087,0.0-17.0-1.12,39342,List2B,white,man,,,,null,,,,
null,are arguing with each other,,html-keyboard-response,276,1246088,0.0-17.0-2.12,39342,List2B,white,man,,,,null,,,,
7983,,,survey-text,277,1254072,0.0-17.0-3.12,39342,List2B,white,man,,,,,"{""Q0"":""Luke and Mike are arguing with each other.""}","<img src=""stim_listB/argue6.gif""</stim_listB>",are arguing with each other,
null,"<div style=""font-size:60px;"">+</div>",,html-keyboard-response,278,1254573,0.0-17.0-0.13,39342,List2B,white,man,,,,null,,,,
null,"<img src=""stim_listB/touch2.gif""</stim_listB>",,html-keyboard-response,279,1256576,0.0-17.0-1.13,39342,List2B,white,man,,,,null,,,,
null,are touching each other,,html-keyboard-response,280,1258578,0.0-17.0-2.13,39342,List2B,white,man,,,,null,,,,
6506,,,survey-text,281,1265085,0.0-17.0-3.13,39342,List2B,white,man,,,,,"{""Q0"":""Ruth and Luke are touching each other.""}","<img src=""stim_listB/touch2.gif""</stim_listB>",are touching each other,
null,"<div style=""font-size:60px;"">+</div>",,html-keyboard-response,282,1265587,0.0-17.0-0.14,39342,List2B,white,man,,,,null,,,,
null,"<img src=""stim_listB/dance2.gif""</stim_listB>",,html-keyboard-response,283,1267588,0.0-17.0-1.14,39342,List2B,white,man,,,,null,,,,
null,are dancing with each other,,html-keyboard-response,284,1269589,0.0-17.0-2.14,39342,List2B,white,man,,,,null,,,,
7267,,,survey-text,285,1276857,0.0-17.0-3.14,39342,List2B,white,man,,,,,"{""Q0"":""Dave and Ruth are dancing with each other.""}","<img src=""stim_listB/dance2.gif""</stim_listB>",are dancing with each other,
null,"<div style=""font-size:60px;"">+</div>",,html-keyboard-response,286,1277360,0.0-17.0-0.15,39342,List2B,white,man,,,,null,,,,
null,"<img src=""stim_listB/meet4.gif""</stim_listB>",,html-keyboard-response,287,1279361,0.0-17.0-1.15,39342,List2B,white,man,,,,null,,,,
null,are meeting each other,,html-keyboard-response,288,1281362,0.0-17.0-2.15,39342,List2B,white,man,,,,null,,,,
5926,,,survey-text,289,1287289,0.0-17.0-3.15,39342,List2B,white,man,,,,,"{""Q0"":""Fred and Beth are meeting each other.""}","<img src=""stim_listB/meet4.gif""</stim_listB>",are meeting each other,
null,"<div style=""font-size:60px;"">+</div>",,html-keyboard-response,290,1287790,0.0-17.0-0.16,39342,List2B,white,man,,,,null,,,,
null,"<img src=""stim_listB/argue3.gif""</stim_listB>",,html-keyboard-response,291,1289793,0.0-17.0-1.16,39342,List2B,white,man,,,,null,,,,
null,is arguing with,,html-keyboard-response,292,1291794,0.0-17.0-2.16,39342,List2B,white,man,,,,null,,,,
4968,,,survey-text,293,1296763,0.0-17.0-3.16,39342,List2B,white,man,,,,,"{""Q0"":""Mike is arguing with Beth.""}","<img src=""stim_listB/argue3.gif""</stim_listB>",is arguing with,
null,"<div style=""font-size:60px;"">+</div>",,html-keyboard-response,294,1297268,0.0-17.0-0.17,39342,List2B,white,man,,,,null,,,,
null,"<img src=""stim_listB/fight3.gif""</stim_listB>",,html-keyboard-response,295,1299268,0.0-17.0-1.17,39342,List2B,white,man,,,,null,,,,
null,is fighting,,html-keyboard-response,296,1301269,0.0-17.0-2.17,39342,List2B,white,man,,,,null,,,,
5361,,,survey-text,297,1306632,0.0-17.0-3.17,39342,List2B,white,man,,,,,"{""Q0"":""Kate is fighting Mike.""}","<img src=""stim_listB/fight3.gif""</stim_listB>",is fighting,
null,"<div style=""font-size:60px;"">+</div>",,html-keyboard-response,298,1307132,0.0-17.0-0.18,39342,List2B,white,man,,,,null,,,,
null,"<img src=""stim_listB/touch5.gif""</stim_listB>",,html-keyboard-response,299,1309133,0.0-17.0-1.18,39342,List2B,white,man,,,,null,,,,
null,is touching,,html-keyboard-response,300,1311134,0.0-17.0-2.18,39342,List2B,white,man,,,,null,,,,
4865,,,survey-text,301,1315999,0.0-17.0-3.18,39342,List2B,white,man,,,,,"{""Q0"":""Dave is touching Mike.""}","<img src=""stim_listB/touch5.gif""</stim_listB>",is touching,
null,"<div style=""font-size:60px;"">+</div>",,html-keyboard-response,302,1316500,0.0-17.0-0.19,39342,List2B,white,man,,,,null,,,,
null,"<img src=""stim_listB/talk2.gif""</stim_listB>",,html-keyboard-response,303,1318502,0.0-17.0-1.19,39342,List2B,white,man,,,,null,,,,
null,are talking to each other,,html-keyboard-response,304,1320504,0.0-17.0-2.19,39342,List2B,white,man,,,,null,,,,
13733,,,survey-text,305,1334238,0.0-17.0-3.19,39342,List2B,white,man,,,,,"{""Q0"":""Dave and Ruth are talking to each other.""}","<img src=""stim_listB/talk2.gif""</stim_listB>",are talking to each other,
8373,"<img src='img/portrait_matrix_list2.JPG' style='width:900px;height:500px;''></img><p>If you have memorised all the portraits and names and are ready to start, press Continue.</p><p><strong>Please note: Your memory of these faces will be tested 4 times during this experiment.</strong></p>",0,html-button-response,306,1342611,0.0-18.0-0.0,39342,List2B,white,man,,,,,,,,
2457,"<img src=""portrait/BM1.jpg""style=""width:400px;height:400px;""></img>",4,html-button-response,307,1346072,0.0-18.0-1.0,39342,List2B,white,man,,TRUE,4,,,,,
null,CORRECT,,html-keyboard-response,308,1347574,0.0-18.0-2.0-0.0,39342,List2B,white,man,,,,null,,,,
2096,"<img src=""portrait/BW1.jpg""style=""width:400px;height:400px;""></img>",0,html-button-response,309,1349670,0.0-18.0-4.0,39342,List2B,white,man,,TRUE,0,,,,,
null,CORRECT,,html-keyboard-response,310,1351173,0.0-18.0-5.0-0.0,39342,List2B,white,man,,,,null,,,,
13712,"<img src=""portrait/WW2.jpg""style=""width:400px;height:400px;""></img>",3,html-button-response,311,1364887,0.0-18.0-7.0,39342,List2B,white,man,,TRUE,3,,,,,
null,CORRECT,,html-keyboard-response,312,1366389,0.0-18.0-8.0-0.0,39342,List2B,white,man,,,,null,,,,
2120,"<img src=""portrait/BM2.jpg""style=""width:400px;height:400px;""></img>",5,html-button-response,313,1368510,0.0-18.0-10.0,39342,List2B,white,man,,TRUE,5,,,,,
null,CORRECT,,html-keyboard-response,314,1370012,0.0-18.0-11.0-0.0,39342,List2B,white,man,,,,null,,,,
1128,"<img src=""portrait/BW2.jpg""style=""width:400px;height:400px;""></img>",2,html-button-response,315,1371141,0.0-18.0-13.0,39342,List2B,white,man,,TRUE,2,,,,,
null,CORRECT,,html-keyboard-response,316,1372643,0.0-18.0-14.0-0.0,39342,List2B,white,man,,,,null,,,,
1839,"<img src=""portrait/WM1.jpg""style=""width:400px;height:400px;""></img>",6,html-button-response,317,1374484,0.0-18.0-16.0,39342,List2B,white,man,,TRUE,6,,,,,
null,CORRECT,,html-keyboard-response,318,1375986,0.0-18.0-17.0-0.0,39342,List2B,white,man,,,,null,,,,
1770,"<img src=""portrait/WW1.jpg""style=""width:400px;height:400px;""></img>",1,html-button-response,319,1377757,0.0-18.0-19.0,39342,List2B,white,man,,TRUE,1,,,,,
null,CORRECT,,html-keyboard-response,320,1379260,0.0-18.0-20.0-0.0,39342,List2B,white,man,,,,null,,,,
2602,"<img src=""portrait/WM2.jpg""style=""width:400px;height:400px;""></img>",7,html-button-response,321,1381864,0.0-18.0-22.0,39342,List2B,white,man,,TRUE,7,,,,,
null,CORRECT,,html-keyboard-response,322,1383366,0.0-18.0-23.0-0.0,39342,List2B,white,man,,,,null,,,,
1248,<p>You got 8 out of 8 right first time. Press Continue.</p>,0,html-button-response,323,1384615,0.0-18.0-25.0,39342,List2B,white,man,,,,,,,,
null,"<div style=""font-size:60px;"">+</div>",,html-keyboard-response,324,1386117,0.0-19.0-0.0,39342,List2B,white,man,,,,null,,,,
null,"<img src=""stim_listB/dance8.gif""</stim_listB>",,html-keyboard-response,325,1388119,0.0-19.0-1.0,39342,List2B,white,man,,,,null,,,,
null,are dancing with each other,,html-keyboard-response,326,1390121,0.0-19.0-2.0,39342,List2B,white,man,,,,null,,,,
7078,,,survey-text,327,1397200,0.0-19.0-3.0,39342,List2B,white,man,,,,,"{""Q0"":""Beth and Jane are dancing with each other.""}","<img src=""stim_listB/dance8.gif""</stim_listB>",are dancing with each other,
null,"<div style=""font-size:60px;"">+</div>",,html-keyboard-response,328,1397702,0.0-19.0-0.1,39342,List2B,white,man,,,,null,,,,
null,"<img src=""stim_listB/hug7.gif""</stim_listB>",,html-keyboard-response,329,1399704,0.0-19.0-1.1,39342,List2B,white,man,,,,null,,,,
null,is hugging,,html-keyboard-response,330,1401705,0.0-19.0-2.1,39342,List2B,white,man,,,,null,,,,
5098,,,survey-text,331,1406803,0.0-19.0-3.1,39342,List2B,white,man,,,,,"{""Q0"":""Beth is hugging Ruth.""}","<img src=""stim_listB/hug7.gif""</stim_listB>",is hugging,
null,"<div style=""font-size:60px;"">+</div>",,html-keyboard-response,332,1407305,0.0-19.0-0.2,39342,List2B,white,man,,,,null,,,,
null,"<img src=""stim_listB/argue8.gif""</stim_listB>",,html-keyboard-response,333,1409307,0.0-19.0-1.2,39342,List2B,white,man,,,,null,,,,
null,are arguing with each other,,html-keyboard-response,334,1411308,0.0-19.0-2.2,39342,List2B,white,man,,,,null,,,,
9158,,,survey-text,335,1420468,0.0-19.0-3.2,39342,List2B,white,man,,,,,"{""Q0"":""Ruth and Kate are arguing with each other.""}","<img src=""stim_listB/argue8.gif""</stim_listB>",are arguing with each other,
null,"<div style=""font-size:60px;"">+</div>",,html-keyboard-response,336,1420969,0.0-19.0-0.3,39342,List2B,white,man,,,,null,,,,
null,"<img src=""stim_listB/marry6.gif""</stim_listB>",,html-keyboard-response,337,1422971,0.0-19.0-1.3,39342,List2B,white,man,,,,null,,,,
null,are marrying each other,,html-keyboard-response,338,1424976,0.0-19.0-2.3,39342,List2B,white,man,,,,null,,,,
7354,,,survey-text,339,1432331,0.0-19.0-3.3,39342,List2B,white,man,,,,,"{""Q0"":""Luke and Mike are arguing with each other.""}","<img src=""stim_listB/marry6.gif""</stim_listB>",are marrying each other,
null,"<div style=""font-size:60px;"">+</div>",,html-keyboard-response,340,1432833,0.0-19.0-0.4,39342,List2B,white,man,,,,null,,,,
null,"<img src=""stim_listB/fight1.gif""</stim_listB>",,html-keyboard-response,341,1434837,0.0-19.0-1.4,39342,List2B,white,man,,,,null,,,,
null,is fighting,,html-keyboard-response,342,1436838,0.0-19.0-2.4,39342,List2B,white,man,,,,null,,,,
6429,,,survey-text,343,1443268,0.0-19.0-3.4,39342,List2B,white,man,,,,,"{""Q0"":""Dave is fighting Jane.""}","<img src=""stim_listB/fight1.gif""</stim_listB>",is fighting,
null,"<div style=""font-size:60px;"">+</div>",,html-keyboard-response,344,1443769,0.0-19.0-0.5,39342,List2B,white,man,,,,null,,,,
null,"<img src=""stim_listB/shout2.gif""</stim_listB>",,html-keyboard-response,345,1445770,0.0-19.0-1.5,39342,List2B,white,man,,,,null,,,,
null,are shouting at each other,,html-keyboard-response,346,1447771,0.0-19.0-2.5,39342,List2B,white,man,,,,null,,,,
10214,,,survey-text,347,1457986,0.0-19.0-3.5,39342,List2B,white,man,,,,,"{""Q0"":""Dave and Jane are shouting at each other.""}","<img src=""stim_listB/shout2.gif""</stim_listB>",are shouting at each other,
null,"<div style=""font-size:60px;"">+</div>",,html-keyboard-response,348,1458488,0.0-19.0-0.6,39342,List2B,white,man,,,,null,,,,
null,"<img src=""stim_listB/meet2.gif""</stim_listB>",,html-keyboard-response,349,1460490,0.0-19.0-1.6,39342,List2B,white,man,,,,null,,,,
null,are meeting each other,,html-keyboard-response,350,1462492,0.0-19.0-2.6,39342,List2B,white,man,,,,null,,,,
6887,,,survey-text,351,1469379,0.0-19.0-3.6,39342,List2B,white,man,,,,,"{""Q0"":""Luke and Ruth are meeting each other.""}","<img src=""stim_listB/meet2.gif""</stim_listB>",are meeting each other,
null,"<div style=""font-size:60px;"">+</div>",,html-keyboard-response,352,1469882,0.0-19.0-0.7,39342,List2B,white,man,,,,null,,,,
null,"<img src=""stim_listB/marry1.gif""</stim_listB>",,html-keyboard-response,353,1471884,0.0-19.0-1.7,39342,List2B,white,man,,,,null,,,,
null,is marrying,,html-keyboard-response,354,1473886,0.0-19.0-2.7,39342,List2B,white,man,,,,null,,,,
8708,,,survey-text,355,1482594,0.0-19.0-3.7,39342,List2B,white,man,,,,,"{""Q0"":""Ruth is marrying Dave.""}","<img src=""stim_listB/marry1.gif""</stim_listB>",is marrying,
null,"<div style=""font-size:60px;"">+</div>",,html-keyboard-response,356,1483097,0.0-19.0-0.8,39342,List2B,white,man,,,,null,,,,
null,"<img src=""stim_listB/shout3.gif""</stim_listB>",,html-keyboard-response,357,1485102,0.0-19.0-1.8,39342,List2B,white,man,,,,null,,,,
null,is shouting at,,html-keyboard-response,358,1487104,0.0-19.0-2.8,39342,List2B,white,man,,,,null,,,,
4785,,,survey-text,359,1491890,0.0-19.0-3.8,39342,List2B,white,man,,,,,"{""Q0"":""Fred is shouting at Beth.""}","<img src=""stim_listB/shout3.gif""</stim_listB>",is shouting at,
null,"<div style=""font-size:60px;"">+</div>",,html-keyboard-response,360,1492392,0.0-19.0-0.9,39342,List2B,white,man,,,,null,,,,
null,"<img src=""stim_listB/shout6.gif""</stim_listB>",,html-keyboard-response,361,1494394,0.0-19.0-1.9,39342,List2B,white,man,,,,null,,,,
null,are shouting at each other,,html-keyboard-response,362,1496395,0.0-19.0-2.9,39342,List2B,white,man,,,,null,,,,
12884,,,survey-text,363,1509281,0.0-19.0-3.9,39342,List2B,white,man,,,,,"{""Q0"":""Mike and Dave are shouting at each other.""}","<img src=""stim_listB/shout6.gif""</stim_listB>",are shouting at each other,
null,"<div style=""font-size:60px;"">+</div>",,html-keyboard-response,364,1509783,0.0-19.0-0.10,39342,List2B,white,man,,,,null,,,,
null,"<img src=""stim_listB/dance7.gif""</stim_listB>",,html-keyboard-response,365,1511785,0.0-19.0-1.10,39342,List2B,white,man,,,,null,,,,
null,is dancing with,,html-keyboard-response,366,1513787,0.0-19.0-2.10,39342,List2B,white,man,,,,null,,,,
5808,,,survey-text,367,1519595,0.0-19.0-3.10,39342,List2B,white,man,,,,,"{""Q0"":""Kate is dancing with Ruth.""}","<img src=""stim_listB/dance7.gif""</stim_listB>",is dancing with,
null,"<div style=""font-size:60px;"">+</div>",,html-keyboard-response,368,1520097,0.0-19.0-0.11,39342,List2B,white,man,,,,null,,,,
null,"<img src=""stim_listB/talk6.gif""</stim_listB>",,html-keyboard-response,369,1522099,0.0-19.0-1.11,39342,List2B,white,man,,,,null,,,,
null,are talking to each other,,html-keyboard-response,370,1524100,0.0-19.0-2.11,39342,List2B,white,man,,,,null,,,,
9468,,,survey-text,371,1533569,0.0-19.0-3.11,39342,List2B,white,man,,,,,"{""Q0"":""Fred and Dave are talking to each other.""}","<img src=""stim_listB/talk6.gif""</stim_listB>",are talking to each other,
null,"<div style=""font-size:60px;"">+</div>",,html-keyboard-response,372,1534071,0.0-19.0-0.12,39342,List2B,white,man,,,,null,,,,
null,"<img src=""stim_listB/meet1.gif""</stim_listB>",,html-keyboard-response,373,1536074,0.0-19.0-1.12,39342,List2B,white,man,,,,null,,,,
null,is meeting,,html-keyboard-response,374,1538077,0.0-19.0-2.12,39342,List2B,white,man,,,,null,,,,
4968,,,survey-text,375,1543045,0.0-19.0-3.12,39342,List2B,white,man,,,,,"{""Q0"":""Dave is meeting Jane.""}","<img src=""stim_listB/meet1.gif""</stim_listB>",is meeting,
null,"<div style=""font-size:60px;"">+</div>",,html-keyboard-response,376,1543546,0.0-19.0-0.13,39342,List2B,white,man,,,,null,,,,
null,"<img src=""stim_listB/shout7.gif""</stim_listB>",,html-keyboard-response,377,1545551,0.0-19.0-1.13,39342,List2B,white,man,,,,null,,,,
null,is shouting at,,html-keyboard-response,378,1547554,0.0-19.0-2.13,39342,List2B,white,man,,,,null,,,,
9510,,,survey-text,379,1557065,0.0-19.0-3.13,39342,List2B,white,man,,,,,"{""Q0"":""Ruth is shouting at Beth.""}","<img src=""stim_listB/shout7.gif""</stim_listB>",is shouting at,
null,"<div style=""font-size:60px;"">+</div>",,html-keyboard-response,380,1557566,0.0-19.0-0.14,39342,List2B,white,man,,,,null,,,,
null,"<img src=""stim_listB/argue5.gif""</stim_listB>",,html-keyboard-response,381,1559569,0.0-19.0-1.14,39342,List2B,white,man,,,,null,,,,
null,is arguing with,,html-keyboard-response,382,1561570,0.0-19.0-2.14,39342,List2B,white,man,,,,null,,,,
6716,,,survey-text,383,1568287,0.0-19.0-3.14,39342,List2B,white,man,,,,,"{""Q0"":""Dave is arguing with Fred.""}","<img src=""stim_listB/argue5.gif""</stim_listB>",is arguing with,
null,"<div style=""font-size:60px;"">+</div>",,html-keyboard-response,384,1568788,0.0-19.0-0.15,39342,List2B,white,man,,,,null,,,,
null,"<img src=""stim_listB/touch6.gif""</stim_listB>",,html-keyboard-response,385,1570791,0.0-19.0-1.15,39342,List2B,white,man,,,,null,,,,
null,are touching each other,,html-keyboard-response,386,1572793,0.0-19.0-2.15,39342,List2B,white,man,,,,null,,,,
8133,,,survey-text,387,1580926,0.0-19.0-3.15,39342,List2B,white,man,,,,,"{""Q0"":""Fred and Luke are touching each other.""}","<img src=""stim_listB/touch6.gif""</stim_listB>",are touching each other,
null,"<div style=""font-size:60px;"">+</div>",,html-keyboard-response,388,1581427,0.0-19.0-0.16,39342,List2B,white,man,,,,null,,,,
null,"<img src=""stim_listB/shout5.gif""</stim_listB>",,html-keyboard-response,389,1583429,0.0-19.0-1.16,39342,List2B,white,man,,,,null,,,,
null,is shouting at,,html-keyboard-response,390,1585431,0.0-19.0-2.16,39342,List2B,white,man,,,,null,,,,
6127,,,survey-text,391,1591558,0.0-19.0-3.16,39342,List2B,white,man,,,,,"{""Q0"":""Luke is shouting at Fred.""}","<img src=""stim_listB/shout5.gif""</stim_listB>",is shouting at,
null,"<div style=""font-size:60px;"">+</div>",,html-keyboard-response,392,1592060,0.0-19.0-0.17,39342,List2B,white,man,,,,null,,,,
null,"<img src=""stim_listB/marry5.gif""</stim_listB>",,html-keyboard-response,393,1594061,0.0-19.0-1.17,39342,List2B,white,man,,,,null,,,,
null,is marrying,,html-keyboard-response,394,1596063,0.0-19.0-2.17,39342,List2B,white,man,,,,null,,,,
6494,,,survey-text,395,1602558,0.0-19.0-3.17,39342,List2B,white,man,,,,,"{""Q0"":""Fred is marrying Dave.""}","<img src=""stim_listB/marry5.gif""</stim_listB>",is marrying,
null,"<div style=""font-size:60px;"">+</div>",,html-keyboard-response,396,1603060,0.0-19.0-0.18,39342,List2B,white,man,,,,null,,,,
null,"<img src=""stim_listB/dance1.gif""</stim_listB>",,html-keyboard-response,397,1605061,0.0-19.0-1.18,39342,List2B,white,man,,,,null,,,,
null,is dancing with,,html-keyboard-response,398,1607067,0.0-19.0-2.18,39342,List2B,white,man,,,,null,,,,
6283,,,survey-text,399,1613351,0.0-19.0-3.18,39342,List2B,white,man,,,,,"{""Q0"":""Luke is dancing with Jane.""}","<img src=""stim_listB/dance1.gif""</stim_listB>",is dancing with,
null,"<div style=""font-size:60px;"">+</div>",,html-keyboard-response,400,1613852,0.0-19.0-0.19,39342,List2B,white,man,,,,null,,,,
null,"<img src=""stim_listB/meet3.gif""</stim_listB>",,html-keyboard-response,401,1615854,0.0-19.0-1.19,39342,List2B,white,man,,,,null,,,,
null,is meeting,,html-keyboard-response,402,1617854,0.0-19.0-2.19,39342,List2B,white,man,,,,null,,,,
4378,,,survey-text,403,1622233,0.0-19.0-3.19,39342,List2B,white,man,,,,,"{""Q0"":""Mike is meeting Kate.""}","<img src=""stim_listB/meet3.gif""</stim_listB>",is meeting,
1966,<p>Thank you for completing that task.</p><p>The final part of this session is a short questionnaire.</p><p>Press Continue.</p>,0,html-button-response,404,1624201,0.0-20.0,39342,List2B,white,man,,,,,,,,
30012,,,survey-text,405,1655215,0.0-21.0,39342,List2B,white,man,,,,,"{""Q0"":""20"",""Q1"":""English"",""Q2"":""English"",""Q3"":""United Kingdom"",""Q4"":""White Caucasian"",""Q5"":""Male""}",,,demographics
39501,,,survey-likert,406,1694721,0.0-22.0,39342,List2B,white,man,,,,,"{""Q0"":6,""Q1"":6,""Q2"":6,""Q3"":6,""Q4"":4,""Q5"":6,""Q6"":6,""Q7"":6,""Q8"":6,""Q9"":6,""Q10"":0,""Q11"":0,""Q12"":0,""Q13"":0}",,,likert_race
80878,,,survey-likert,407,1775607,0.0-23.0,39342,List2B,white,man,,,,,"{""Q0"":2,""Q1"":2,""Q2"":2,""Q3"":5,""Q4"":5,""Q5"":5,""Q6"":5,""Q7"":0,""Q8"":2,""Q9"":2,""Q10"":0,""Q11"":0,""Q12"":0,""Q13"":0}",,,likert_gender
10564,,,survey-text,408,1786177,0.0-24.0,39342,List2B,white,man,,,,,"{""Q0"":""ccc""}",,,worker_id
25505,,,external-html,409,1811797,0.0-25.0,39342,List2B,white,man,debrief.html,,,,,,,
