rt,stimulus,button_pressed,trial_type,trial_index,time_elapsed,internal_node_id,subject,list,ppt_race,ppt_gender,url,first_guess,correct,key_press,responses,image_type,phrase_type,test_part
2853,Welcome to the experiment. Press Continue to begin.,0,html-button-response,0,2857,0.0-0.0,39591,List1B,black,man,,,,,,,,
88868,,,external-html,1,93022,0.0-1.0,39591,List1B,black,man,consent.html,,,,,,,
13184,"<p>On the next page, you will see portraits of 8 people and their names.</p><p>Your first task is to take a few minutes to memorise the names of these people.</p><p>You will have to recall their names during the rest of the experiment, so it is</p><p>essential that you try to memorise these people and their names as best as you can.</p><br><p><strong>You will then be tested on your memory of these names and portraits.</strong></p><br><p>The experiment will start after you have completed this memory test.</p><br><p>Ready?</p>",0,html-button-response,2,106208,0.0-2.0,39591,List1B,black,man,,,,,,,,
40966,"<img src='img/portrait_matrix_list1.JPG' style='width:900px;height:500px;''></img><p>If you have memorised all the portraits and names and are ready to start, press Continue.</p><p><strong>Please note: Your memory of these faces will be tested 4 times during this experiment.</strong></p>",0,html-button-response,3,148178,0.0-3.0-0.0,39591,List1B,black,man,,,,,,,,
3152,"<img src=""portrait/BM2.jpg""style=""width:400px;height:400px;""></img>",5,html-button-response,4,152335,0.0-3.0-1.0,39591,List1B,black,man,,TRUE,5,,,,,
null,CORRECT,,html-keyboard-response,5,153856,0.0-3.0-2.0-0.0,39591,List1B,black,man,,,,null,,,,
3037,"<img src=""portrait/BW2.jpg""style=""width:400px;height:400px;""></img>",2,html-button-response,6,156896,0.0-3.0-4.0,39591,List1B,black,man,,TRUE,2,,,,,
null,CORRECT,,html-keyboard-response,7,158402,0.0-3.0-5.0-0.0,39591,List1B,black,man,,,,null,,,,
3359,"<img src=""portrait/WW2.jpg""style=""width:400px;height:400px;""></img>",3,html-button-response,8,161763,0.0-3.0-7.0,39591,List1B,black,man,,TRUE,3,,,,,
null,CORRECT,,html-keyboard-response,9,163268,0.0-3.0-8.0-0.0,39591,List1B,black,man,,,,null,,,,
4018,"<img src=""portrait/BW1.jpg""style=""width:400px;height:400px;""></img>",0,html-button-response,10,167288,0.0-3.0-10.0,39591,List1B,black,man,,TRUE,0,,,,,
null,CORRECT,,html-keyboard-response,11,168792,0.0-3.0-11.0-0.0,39591,List1B,black,man,,,,null,,,,
8922,"<img src=""portrait/WW1.jpg""style=""width:400px;height:400px;""></img>",1,html-button-response,12,177716,0.0-3.0-13.0,39591,List1B,black,man,,TRUE,1,,,,,
null,CORRECT,,html-keyboard-response,13,179221,0.0-3.0-14.0-0.0,39591,List1B,black,man,,,,null,,,,
2380,"<img src=""portrait/BM1.jpg""style=""width:400px;height:400px;""></img>",4,html-button-response,14,181603,0.0-3.0-16.0,39591,List1B,black,man,,TRUE,4,,,,,
null,CORRECT,,html-keyboard-response,15,183108,0.0-3.0-17.0-0.0,39591,List1B,black,man,,,,null,,,,
2606,"<img src=""portrait/WM2.jpg""style=""width:400px;height:400px;""></img>",7,html-button-response,16,185716,0.0-3.0-19.0,39591,List1B,black,man,,TRUE,7,,,,,
null,CORRECT,,html-keyboard-response,17,187222,0.0-3.0-20.0-0.0,39591,List1B,black,man,,,,null,,,,
3553,"<img src=""portrait/WM1.jpg""style=""width:400px;height:400px;""></img>",6,html-button-response,18,190776,0.0-3.0-22.0,39591,List1B,black,man,,TRUE,6,,,,,
null,CORRECT,,html-keyboard-response,19,192281,0.0-3.0-23.0-0.0,39591,List1B,black,man,,,,null,,,,
1371,<p>You got 8 out of 8 right first time. Press Continue.</p>,0,html-button-response,20,193655,0.0-3.0-25.0,39591,List1B,black,man,,,,,,,,
16975,"<p>In this experiment, you will view photographs of the people from the memory game interacting.</p><p>By using the <strong>exact</strong> phrase given <i>after</i> the photograph appears and recalling the correct names of the people in the photographs, form a sentence describing the interaction. You do not need to capitalise names.</p><p>Type your answer in the space provided. Please complete every sentence before moving onto the next trial.</p><p>You will only have a few seconds to memorise each given photograph and phrase before you can respond, so try your best to focus.</p><p>An example is given below. Press 'Continue' when you are ready.</p><img src='img/speaking_example_v2.jpg' style='width:800px;height:460px;''></img>",0,html-button-response,21,211633,0.0-4.0,39591,List1B,black,man,,,,,,,,
1410,"<p>Before the experiment starts, you will watch two example trials. Press 'Continue'.</p>",0,html-button-response,22,214045,0.0-5.0,39591,List1B,black,man,,,,,,,,
null,<img src='img/speaking_WW.gif'></img>,,html-keyboard-response,23,217049,0.0-6.0,39591,List1B,black,man,,,,null,,,,
null,<p>is speaking to</p>,,html-keyboard-response,24,219054,0.0-7.0,39591,List1B,black,man,,,,null,,,,
2077,<p><b>Answer:</b> kate is speaking to beth</p>,0,html-button-response,25,221133,0.0-8.0,39591,List1B,black,man,,,,,,,,
null,<img src='img/pointing_BM.gif'></img>,,html-keyboard-response,26,224137,0.0-9.0,39591,List1B,black,man,,,,null,,,,
null,<p>are pointing at each other</p>,,html-keyboard-response,27,226140,0.0-10.0,39591,List1B,black,man,,,,null,,,,
1412,<p><b>Answer:</b> luke and dave are pointing at each other</p>,0,html-button-response,28,227554,0.0-11.0,39591,List1B,black,man,,,,,,,,
7120,"<p>Ready to start the experiment?</p><br><p><strong>Remember to describe the picture using a full sentence,</strong></p><p><strong>that combines the names of the people with the given phrase.</strong></p><p><strong>If you do not do this correctly you will not be paid.</strong></p><p><strong> You do not need to capitalise names or use punctuation.</strong></p><br><p>Press 'Continue' to begin.</p>",0,html-button-response,29,235679,0.0-12.0,39591,List1B,black,man,,,,,,,,
null,"<div style=""font-size:60px;"">+</div>",,html-keyboard-response,30,237186,0.0-13.0-0.0,39591,List1B,black,man,,,,null,,,,
null,"<img src=""stim_listB/marry2.gif""</stim_listB>",,html-keyboard-response,31,239190,0.0-13.0-1.0,39591,List1B,black,man,,,,null,,,,
null,are marrying each other,,html-keyboard-response,32,241194,0.0-13.0-2.0,39591,List1B,black,man,,,,null,,,,
9462,,,survey-text,33,250658,0.0-13.0-3.0,39591,List1B,black,man,,,,,"{""Q0"":""fred and kate ""}","<img src=""stim_listB/marry2.gif""</stim_listB>",are marrying each other,
null,"<div style=""font-size:60px;"">+</div>",,html-keyboard-response,34,251162,0.0-13.0-0.1,39591,List1B,black,man,,,,null,,,,
null,"<img src=""stim_listB/meet2.gif""</stim_listB>",,html-keyboard-response,35,253164,0.0-13.0-1.1,39591,List1B,black,man,,,,null,,,,
null,are meeting each other,,html-keyboard-response,36,255165,0.0-13.0-2.1,39591,List1B,black,man,,,,null,,,,
9355,,,survey-text,37,264522,0.0-13.0-3.1,39591,List1B,black,man,,,,,"{""Q0"":""fred and beth are meeting each other""}","<img src=""stim_listB/meet2.gif""</stim_listB>",are meeting each other,
null,"<div style=""font-size:60px;"">+</div>",,html-keyboard-response,38,265023,0.0-13.0-0.2,39591,List1B,black,man,,,,null,,,,
null,"<img src=""stim_listB/marry7.gif""</stim_listB>",,html-keyboard-response,39,267028,0.0-13.0-1.2,39591,List1B,black,man,,,,null,,,,
null,is marrying,,html-keyboard-response,40,269032,0.0-13.0-2.2,39591,List1B,black,man,,,,null,,,,
9270,,,survey-text,41,278304,0.0-13.0-3.2,39591,List1B,black,man,,,,,"{""Q0"":""ruth is marrying kate""}","<img src=""stim_listB/marry7.gif""</stim_listB>",is marrying,
null,"<div style=""font-size:60px;"">+</div>",,html-keyboard-response,42,278808,0.0-13.0-0.3,39591,List1B,black,man,,,,null,,,,
null,"<img src=""stim_listB/shout4.gif""</stim_listB>",,html-keyboard-response,43,280811,0.0-13.0-1.3,39591,List1B,black,man,,,,null,,,,
null,are shouting at each other,,html-keyboard-response,44,282816,0.0-13.0-2.3,39591,List1B,black,man,,,,null,,,,
8237,,,survey-text,45,291053,0.0-13.0-3.3,39591,List1B,black,man,,,,,"{""Q0"":""dave and jane are shouting at each other""}","<img src=""stim_listB/shout4.gif""</stim_listB>",are shouting at each other,
null,"<div style=""font-size:60px;"">+</div>",,html-keyboard-response,46,291558,0.0-13.0-0.4,39591,List1B,black,man,,,,null,,,,
null,"<img src=""stim_listB/kiss7.gif""</stim_listB>",,html-keyboard-response,47,293561,0.0-13.0-1.4,39591,List1B,black,man,,,,null,,,,
null,is kissing,,html-keyboard-response,48,295562,0.0-13.0-2.4,39591,List1B,black,man,,,,null,,,,
10716,,,survey-text,49,306280,0.0-13.0-3.4,39591,List1B,black,man,,,,,"{""Q0"":""ruth is kissing beth""}","<img src=""stim_listB/kiss7.gif""</stim_listB>",is kissing,
null,"<div style=""font-size:60px;"">+</div>",,html-keyboard-response,50,306782,0.0-13.0-0.5,39591,List1B,black,man,,,,null,,,,
null,"<img src=""stim_listB/meet8.gif""</stim_listB>",,html-keyboard-response,51,308784,0.0-13.0-1.5,39591,List1B,black,man,,,,null,,,,
null,are meeting each other,,html-keyboard-response,52,310787,0.0-13.0-2.5,39591,List1B,black,man,,,,null,,,,
7070,,,survey-text,53,317859,0.0-13.0-3.5,39591,List1B,black,man,,,,,"{""Q0"":""beth and ruth are meeting each other""}","<img src=""stim_listB/meet8.gif""</stim_listB>",are meeting each other,
null,"<div style=""font-size:60px;"">+</div>",,html-keyboard-response,54,318363,0.0-13.0-0.6,39591,List1B,black,man,,,,null,,,,
null,"<img src=""stim_listB/touch8.gif""</stim_listB>",,html-keyboard-response,55,320367,0.0-13.0-1.6,39591,List1B,black,man,,,,null,,,,
null,are touching each other,,html-keyboard-response,56,322372,0.0-13.0-2.6,39591,List1B,black,man,,,,null,,,,
7518,,,survey-text,57,329891,0.0-13.0-3.6,39591,List1B,black,man,,,,,"{""Q0"":""beth and ruth are touching each other""}","<img src=""stim_listB/touch8.gif""</stim_listB>",are touching each other,
null,"<div style=""font-size:60px;"">+</div>",,html-keyboard-response,58,330396,0.0-13.0-0.7,39591,List1B,black,man,,,,null,,,,
null,"<img src=""stim_listB/touch1.gif""</stim_listB>",,html-keyboard-response,59,332401,0.0-13.0-1.7,39591,List1B,black,man,,,,null,,,,
null,is touching,,html-keyboard-response,60,334404,0.0-13.0-2.7,39591,List1B,black,man,,,,null,,,,
5464,,,survey-text,61,339868,0.0-13.0-3.7,39591,List1B,black,man,,,,,"{""Q0"":""kate is touching mike""}","<img src=""stim_listB/touch1.gif""</stim_listB>",is touching,
null,"<div style=""font-size:60px;"">+</div>",,html-keyboard-response,62,340372,0.0-13.0-0.8,39591,List1B,black,man,,,,null,,,,
null,"<img src=""stim_listB/touch7.gif""</stim_listB>",,html-keyboard-response,63,342376,0.0-13.0-1.8,39591,List1B,black,man,,,,null,,,,
null,is touching,,html-keyboard-response,64,344381,0.0-13.0-2.8,39591,List1B,black,man,,,,null,,,,
7595,,,survey-text,65,351977,0.0-13.0-3.8,39591,List1B,black,man,,,,,"{""Q0"":""jane is touching kate""}","<img src=""stim_listB/touch7.gif""</stim_listB>",is touching,
null,"<div style=""font-size:60px;"">+</div>",,html-keyboard-response,66,352484,0.0-13.0-0.9,39591,List1B,black,man,,,,null,,,,
null,"<img src=""stim_listB/talk2.gif""</stim_listB>",,html-keyboard-response,67,354487,0.0-13.0-1.9,39591,List1B,black,man,,,,null,,,,
null,are talking to each other,,html-keyboard-response,68,356491,0.0-13.0-2.9,39591,List1B,black,man,,,,null,,,,
9669,,,survey-text,69,366162,0.0-13.0-3.9,39591,List1B,black,man,,,,,"{""Q0"":""mike and beth are talking to each other""}","<img src=""stim_listB/talk2.gif""</stim_listB>",are talking to each other,
null,"<div style=""font-size:60px;"">+</div>",,html-keyboard-response,70,366667,0.0-13.0-0.10,39591,List1B,black,man,,,,null,,,,
null,"<img src=""stim_listB/kiss8.gif""</stim_listB>",,html-keyboard-response,71,368672,0.0-13.0-1.10,39591,List1B,black,man,,,,null,,,,
null,are kissing each other,,html-keyboard-response,72,370676,0.0-13.0-2.10,39591,List1B,black,man,,,,null,,,,
7320,,,survey-text,73,377998,0.0-13.0-3.10,39591,List1B,black,man,,,,,"{""Q0"":""jane and kate are kissing each other""}","<img src=""stim_listB/kiss8.gif""</stim_listB>",are kissing each other,
null,"<div style=""font-size:60px;"">+</div>",,html-keyboard-response,74,378500,0.0-13.0-0.11,39591,List1B,black,man,,,,null,,,,
null,"<img src=""stim_listB/dance5.gif""</stim_listB>",,html-keyboard-response,75,380504,0.0-13.0-1.11,39591,List1B,black,man,,,,null,,,,
null,is dancing with,,html-keyboard-response,76,382507,0.0-13.0-2.11,39591,List1B,black,man,,,,null,,,,
4900,,,survey-text,77,387408,0.0-13.0-3.11,39591,List1B,black,man,,,,,"{""Q0"":""dave is dancing with fred""}","<img src=""stim_listB/dance5.gif""</stim_listB>",is dancing with,
null,"<div style=""font-size:60px;"">+</div>",,html-keyboard-response,78,387912,0.0-13.0-0.12,39591,List1B,black,man,,,,null,,,,
null,"<img src=""stim_listB/fight2.gif""</stim_listB>",,html-keyboard-response,79,389917,0.0-13.0-1.12,39591,List1B,black,man,,,,null,,,,
null,are fighting each other,,html-keyboard-response,80,391922,0.0-13.0-2.12,39591,List1B,black,man,,,,null,,,,
7852,,,survey-text,81,399775,0.0-13.0-3.12,39591,List1B,black,man,,,,,"{""Q0"":""fred and beth are fighting each other""}","<img src=""stim_listB/fight2.gif""</stim_listB>",are fighting each other,
null,"<div style=""font-size:60px;"">+</div>",,html-keyboard-response,82,400277,0.0-13.0-0.13,39591,List1B,black,man,,,,null,,,,
null,"<img src=""stim_listB/shout2.gif""</stim_listB>",,html-keyboard-response,83,402279,0.0-13.0-1.13,39591,List1B,black,man,,,,null,,,,
null,are shouting at each other,,html-keyboard-response,84,404283,0.0-13.0-2.13,39591,List1B,black,man,,,,null,,,,
6658,,,survey-text,85,410941,0.0-13.0-3.13,39591,List1B,black,man,,,,,"{""Q0"":""mike and kate are shouting at each other""}","<img src=""stim_listB/shout2.gif""</stim_listB>",are shouting at each other,
null,"<div style=""font-size:60px;"">+</div>",,html-keyboard-response,86,411443,0.0-13.0-0.14,39591,List1B,black,man,,,,null,,,,
null,"<img src=""stim_listB/marry3.gif""</stim_listB>",,html-keyboard-response,87,413447,0.0-13.0-1.14,39591,List1B,black,man,,,,null,,,,
null,is marrying,,html-keyboard-response,88,415451,0.0-13.0-2.14,39591,List1B,black,man,,,,null,,,,
5747,,,survey-text,89,421199,0.0-13.0-3.14,39591,List1B,black,man,,,,,"{""Q0"":""dave is marrying ruth""}","<img src=""stim_listB/marry3.gif""</stim_listB>",is marrying,
null,"<div style=""font-size:60px;"">+</div>",,html-keyboard-response,90,421702,0.0-13.0-0.15,39591,List1B,black,man,,,,null,,,,
null,"<img src=""stim_listB/meet1.gif""</stim_listB>",,html-keyboard-response,91,423704,0.0-13.0-1.15,39591,List1B,black,man,,,,null,,,,
null,is meeting,,html-keyboard-response,92,425706,0.0-13.0-2.15,39591,List1B,black,man,,,,null,,,,
4356,,,survey-text,93,430064,0.0-13.0-3.15,39591,List1B,black,man,,,,,"{""Q0"":""kate is meeting mike""}","<img src=""stim_listB/meet1.gif""</stim_listB>",is meeting,
null,"<div style=""font-size:60px;"">+</div>",,html-keyboard-response,94,430567,0.0-13.0-0.16,39591,List1B,black,man,,,,null,,,,
null,"<img src=""stim_listB/fight5.gif""</stim_listB>",,html-keyboard-response,95,432573,0.0-13.0-1.16,39591,List1B,black,man,,,,null,,,,
null,is fighting,,html-keyboard-response,96,434576,0.0-13.0-2.16,39591,List1B,black,man,,,,null,,,,
4265,,,survey-text,97,438842,0.0-13.0-3.16,39591,List1B,black,man,,,,,"{""Q0"":""dave is fighting mike""}","<img src=""stim_listB/fight5.gif""</stim_listB>",is fighting,
null,"<div style=""font-size:60px;"">+</div>",,html-keyboard-response,98,439347,0.0-13.0-0.17,39591,List1B,black,man,,,,null,,,,
null,"<img src=""stim_listB/dance3.gif""</stim_listB>",,html-keyboard-response,99,441352,0.0-13.0-1.17,39591,List1B,black,man,,,,null,,,,
null,is dancing with,,html-keyboard-response,100,443354,0.0-13.0-2.17,39591,List1B,black,man,,,,null,,,,
6077,,,survey-text,101,449433,0.0-13.0-3.17,39591,List1B,black,man,,,,,"{""Q0"":""luke is dancing with ruth""}","<img src=""stim_listB/dance3.gif""</stim_listB>",is dancing with,
null,"<div style=""font-size:60px;"">+</div>",,html-keyboard-response,102,449935,0.0-13.0-0.18,39591,List1B,black,man,,,,null,,,,
null,"<img src=""stim_listB/argue4.gif""</stim_listB>",,html-keyboard-response,103,451937,0.0-13.0-1.18,39591,List1B,black,man,,,,null,,,,
null,are arguing with each other,,html-keyboard-response,104,453939,0.0-13.0-2.18,39591,List1B,black,man,,,,null,,,,
6507,,,survey-text,105,460448,0.0-13.0-3.18,39591,List1B,black,man,,,,,"{""Q0"":""ruth and luke are arguing with each other""}","<img src=""stim_listB/argue4.gif""</stim_listB>",are arguing with each other,
null,"<div style=""font-size:60px;"">+</div>",,html-keyboard-response,106,460951,0.0-13.0-0.19,39591,List1B,black,man,,,,null,,,,
null,"<img src=""stim_listB/dance7.gif""</stim_listB>",,html-keyboard-response,107,462955,0.0-13.0-1.19,39591,List1B,black,man,,,,null,,,,
null,is dancing with,,html-keyboard-response,108,464959,0.0-13.0-2.19,39591,List1B,black,man,,,,null,,,,
5457,,,survey-text,109,470418,0.0-13.0-3.19,39591,List1B,black,man,,,,,"{""Q0"":""ruth is dancing with beth""}","<img src=""stim_listB/dance7.gif""</stim_listB>",is dancing with,
11434,"<img src='img/portrait_matrix_list1.JPG' style='width:900px;height:500px;''></img><p>If you have memorised all the portraits and names and are ready to start, press Continue.</p><p><strong>Please note: Your memory of these faces will be tested 4 times during this experiment.</strong></p>",0,html-button-response,110,481853,0.0-14.0-0.0,39591,List1B,black,man,,,,,,,,
4589,"<img src=""portrait/WW2.jpg""style=""width:400px;height:400px;""></img>",3,html-button-response,111,487447,0.0-14.0-1.0,39591,List1B,black,man,,TRUE,3,,,,,
null,CORRECT,,html-keyboard-response,112,488953,0.0-14.0-2.0-0.0,39591,List1B,black,man,,,,null,,,,
2122,"<img src=""portrait/BW1.jpg""style=""width:400px;height:400px;""></img>",0,html-button-response,113,491077,0.0-14.0-4.0,39591,List1B,black,man,,TRUE,0,,,,,
null,CORRECT,,html-keyboard-response,114,492580,0.0-14.0-5.0-0.0,39591,List1B,black,man,,,,null,,,,
2165,"<img src=""portrait/WM1.jpg""style=""width:400px;height:400px;""></img>",6,html-button-response,115,494747,0.0-14.0-7.0,39591,List1B,black,man,,TRUE,6,,,,,
null,CORRECT,,html-keyboard-response,116,496256,0.0-14.0-8.0-0.0,39591,List1B,black,man,,,,null,,,,
1876,"<img src=""portrait/BM2.jpg""style=""width:400px;height:400px;""></img>",5,html-button-response,117,498134,0.0-14.0-10.0,39591,List1B,black,man,,TRUE,5,,,,,
null,CORRECT,,html-keyboard-response,118,499643,0.0-14.0-11.0-0.0,39591,List1B,black,man,,,,null,,,,
1103,"<img src=""portrait/BM1.jpg""style=""width:400px;height:400px;""></img>",4,html-button-response,119,500748,0.0-14.0-13.0,39591,List1B,black,man,,TRUE,4,,,,,
null,CORRECT,,html-keyboard-response,120,502252,0.0-14.0-14.0-0.0,39591,List1B,black,man,,,,null,,,,
3488,"<img src=""portrait/BW2.jpg""style=""width:400px;height:400px;""></img>",2,html-button-response,121,505742,0.0-14.0-16.0,39591,List1B,black,man,,TRUE,2,,,,,
null,CORRECT,,html-keyboard-response,122,507245,0.0-14.0-17.0-0.0,39591,List1B,black,man,,,,null,,,,
2019,"<img src=""portrait/WM2.jpg""style=""width:400px;height:400px;""></img>",7,html-button-response,123,509266,0.0-14.0-19.0,39591,List1B,black,man,,TRUE,7,,,,,
null,CORRECT,,html-keyboard-response,124,510772,0.0-14.0-20.0-0.0,39591,List1B,black,man,,,,null,,,,
2882,"<img src=""portrait/WW1.jpg""style=""width:400px;height:400px;""></img>",1,html-button-response,125,513656,0.0-14.0-22.0,39591,List1B,black,man,,TRUE,1,,,,,
null,CORRECT,,html-keyboard-response,126,515164,0.0-14.0-23.0-0.0,39591,List1B,black,man,,,,null,,,,
1248,<p>You got 8 out of 8 right first time. Press Continue.</p>,0,html-button-response,127,516414,0.0-14.0-25.0,39591,List1B,black,man,,,,,,,,
null,"<div style=""font-size:60px;"">+</div>",,html-keyboard-response,128,517917,0.0-15.0-0.0,39591,List1B,black,man,,,,null,,,,
null,"<img src=""stim_listB/fight1.gif""</stim_listB>",,html-keyboard-response,129,519920,0.0-15.0-1.0,39591,List1B,black,man,,,,null,,,,
null,is fighting,,html-keyboard-response,130,521923,0.0-15.0-2.0,39591,List1B,black,man,,,,null,,,,
9207,,,survey-text,131,531133,0.0-15.0-3.0,39591,List1B,black,man,,,,,"{""Q0"":""kate is fighting mike""}","<img src=""stim_listB/fight1.gif""</stim_listB>",is fighting,
null,"<div style=""font-size:60px;"">+</div>",,html-keyboard-response,132,531636,0.0-15.0-0.1,39591,List1B,black,man,,,,null,,,,
null,"<img src=""stim_listB/talk3.gif""</stim_listB>",,html-keyboard-response,133,533638,0.0-15.0-1.1,39591,List1B,black,man,,,,null,,,,
null,is talking to,,html-keyboard-response,134,535642,0.0-15.0-2.1,39591,List1B,black,man,,,,null,,,,
4927,,,survey-text,135,540570,0.0-15.0-3.1,39591,List1B,black,man,,,,,"{""Q0"":""jane is talking to luke""}","<img src=""stim_listB/talk3.gif""</stim_listB>",is talking to,
null,"<div style=""font-size:60px;"">+</div>",,html-keyboard-response,136,541074,0.0-15.0-0.2,39591,List1B,black,man,,,,null,,,,
null,"<img src=""stim_listB/hug6.gif""</stim_listB>",,html-keyboard-response,137,543076,0.0-15.0-1.2,39591,List1B,black,man,,,,null,,,,
null,are hugging each other,,html-keyboard-response,138,545079,0.0-15.0-2.2,39591,List1B,black,man,,,,null,,,,
9094,,,survey-text,139,554175,0.0-15.0-3.2,39591,List1B,black,man,,,,,"{""Q0"":""dave and mike are hugging each other""}","<img src=""stim_listB/hug6.gif""</stim_listB>",are hugging each other,
null,"<div style=""font-size:60px;"">+</div>",,html-keyboard-response,140,554677,0.0-15.0-0.3,39591,List1B,black,man,,,,null,,,,
null,"<img src=""stim_listB/kiss6.gif""</stim_listB>",,html-keyboard-response,141,556680,0.0-15.0-1.3,39591,List1B,black,man,,,,null,,,,
null,are kissing each other,,html-keyboard-response,142,558682,0.0-15.0-2.3,39591,List1B,black,man,,,,null,,,,
6354,,,survey-text,143,565037,0.0-15.0-3.3,39591,List1B,black,man,,,,,"{""Q0"":""dave and mike are kissing each other""}","<img src=""stim_listB/kiss6.gif""</stim_listB>",are kissing each other,
null,"<div style=""font-size:60px;"">+</div>",,html-keyboard-response,144,565540,0.0-15.0-0.4,39591,List1B,black,man,,,,null,,,,
null,"<img src=""stim_listB/marry1.gif""</stim_listB>",,html-keyboard-response,145,567545,0.0-15.0-1.4,39591,List1B,black,man,,,,null,,,,
null,is marrying,,html-keyboard-response,146,569547,0.0-15.0-2.4,39591,List1B,black,man,,,,null,,,,
5506,,,survey-text,147,575054,0.0-15.0-3.4,39591,List1B,black,man,,,,,"{""Q0"":""beth is marrying mike""}","<img src=""stim_listB/marry1.gif""</stim_listB>",is marrying,
null,"<div style=""font-size:60px;"">+</div>",,html-keyboard-response,148,575557,0.0-15.0-0.5,39591,List1B,black,man,,,,null,,,,
null,"<img src=""stim_listB/meet4.gif""</stim_listB>",,html-keyboard-response,149,577560,0.0-15.0-1.5,39591,List1B,black,man,,,,null,,,,
null,are meeting each other,,html-keyboard-response,150,579564,0.0-15.0-2.5,39591,List1B,black,man,,,,null,,,,
11073,,,survey-text,151,590639,0.0-15.0-3.5,39591,List1B,black,man,,,,,"{""Q0"":""luke and ruth are meeting each other""}","<img src=""stim_listB/meet4.gif""</stim_listB>",are meeting each other,
null,"<div style=""font-size:60px;"">+</div>",,html-keyboard-response,152,591143,0.0-15.0-0.6,39591,List1B,black,man,,,,null,,,,
null,"<img src=""stim_listB/touch3.gif""</stim_listB>",,html-keyboard-response,153,593148,0.0-15.0-1.6,39591,List1B,black,man,,,,null,,,,
null,is touching,,html-keyboard-response,154,595149,0.0-15.0-2.6,39591,List1B,black,man,,,,null,,,,
7325,,,survey-text,155,602474,0.0-15.0-3.6,39591,List1B,black,man,,,,,"{""Q0"":""jane is touching dave""}","<img src=""stim_listB/touch3.gif""</stim_listB>",is touching,
null,"<div style=""font-size:60px;"">+</div>",,html-keyboard-response,156,602977,0.0-15.0-0.7,39591,List1B,black,man,,,,null,,,,
null,"<img src=""stim_listB/argue3.gif""</stim_listB>",,html-keyboard-response,157,604980,0.0-15.0-1.7,39591,List1B,black,man,,,,null,,,,
null,is arguing with,,html-keyboard-response,158,606983,0.0-15.0-2.7,39591,List1B,black,man,,,,null,,,,
4993,,,survey-text,159,611978,0.0-15.0-3.7,39591,List1B,black,man,,,,,"{""Q0"":""ruth is arguing with dave""}","<img src=""stim_listB/argue3.gif""</stim_listB>",is arguing with,
null,"<div style=""font-size:60px;"">+</div>",,html-keyboard-response,160,612479,0.0-15.0-0.8,39591,List1B,black,man,,,,null,,,,
null,"<img src=""stim_listB/touch6.gif""</stim_listB>",,html-keyboard-response,161,614482,0.0-15.0-1.8,39591,List1B,black,man,,,,null,,,,
null,are touching each other,,html-keyboard-response,162,616484,0.0-15.0-2.8,39591,List1B,black,man,,,,null,,,,
9705,,,survey-text,163,626190,0.0-15.0-3.8,39591,List1B,black,man,,,,,"{""Q0"":""fred and luke are touching each other""}","<img src=""stim_listB/touch6.gif""</stim_listB>",are touching each other,
null,"<div style=""font-size:60px;"">+</div>",,html-keyboard-response,164,626694,0.0-15.0-0.9,39591,List1B,black,man,,,,null,,,,
null,"<img src=""stim_listB/dance6.gif""</stim_listB>",,html-keyboard-response,165,628698,0.0-15.0-1.9,39591,List1B,black,man,,,,null,,,,
null,are dancing with each other,,html-keyboard-response,166,630700,0.0-15.0-2.9,39591,List1B,black,man,,,,null,,,,
5659,,,survey-text,167,636360,0.0-15.0-3.9,39591,List1B,black,man,,,,,"{""Q0"":""mike and luke are dancing with each other""}","<img src=""stim_listB/dance6.gif""</stim_listB>",are dancing with each other,
null,"<div style=""font-size:60px;"">+</div>",,html-keyboard-response,168,636864,0.0-15.0-0.10,39591,List1B,black,man,,,,null,,,,
null,"<img src=""stim_listB/dance4.gif""</stim_listB>",,html-keyboard-response,169,638869,0.0-15.0-1.10,39591,List1B,black,man,,,,null,,,,
null,are dancing with each other,,html-keyboard-response,170,640873,0.0-15.0-2.10,39591,List1B,black,man,,,,null,,,,
4695,,,survey-text,171,645570,0.0-15.0-3.10,39591,List1B,black,man,,,,,"{""Q0"":""dave and ruth are dancing with each other""}","<img src=""stim_listB/dance4.gif""</stim_listB>",are dancing with each other,
null,"<div style=""font-size:60px;"">+</div>",,html-keyboard-response,172,646074,0.0-15.0-0.11,39591,List1B,black,man,,,,null,,,,
null,"<img src=""stim_listB/argue2.gif""</stim_listB>",,html-keyboard-response,173,648076,0.0-15.0-1.11,39591,List1B,black,man,,,,null,,,,
null,are arguing with each other,,html-keyboard-response,174,650079,0.0-15.0-2.11,39591,List1B,black,man,,,,null,,,,
3768,,,survey-text,175,653849,0.0-15.0-3.11,39591,List1B,black,man,,,,,"{""Q0"":""fred and kate are arguing with each other""}","<img src=""stim_listB/argue2.gif""</stim_listB>",are arguing with each other,
null,"<div style=""font-size:60px;"">+</div>",,html-keyboard-response,176,654352,0.0-15.0-0.12,39591,List1B,black,man,,,,null,,,,
null,"<img src=""stim_listB/marry5.gif""</stim_listB>",,html-keyboard-response,177,656355,0.0-15.0-1.12,39591,List1B,black,man,,,,null,,,,
null,is marrying,,html-keyboard-response,178,658356,0.0-15.0-2.12,39591,List1B,black,man,,,,null,,,,
4928,,,survey-text,179,663285,0.0-15.0-3.12,39591,List1B,black,man,,,,,"{""Q0"":""luke is marrying mike""}","<img src=""stim_listB/marry5.gif""</stim_listB>",is marrying,
null,"<div style=""font-size:60px;"">+</div>",,html-keyboard-response,180,663790,0.0-15.0-0.13,39591,List1B,black,man,,,,null,,,,
null,"<img src=""stim_listB/dance2.gif""</stim_listB>",,html-keyboard-response,181,665792,0.0-15.0-1.13,39591,List1B,black,man,,,,null,,,,
null,are dancing with each other,,html-keyboard-response,182,667793,0.0-15.0-2.13,39591,List1B,black,man,,,,null,,,,
5184,,,survey-text,183,672978,0.0-15.0-3.13,39591,List1B,black,man,,,,,"{""Q0"":""mike and beth are dancing with each other""}","<img src=""stim_listB/dance2.gif""</stim_listB>",are dancing with each other,
null,"<div style=""font-size:60px;"">+</div>",,html-keyboard-response,184,673483,0.0-15.0-0.14,39591,List1B,black,man,,,,null,,,,
null,"<img src=""stim_listB/kiss5.gif""</stim_listB>",,html-keyboard-response,185,675485,0.0-15.0-1.14,39591,List1B,black,man,,,,null,,,,
null,is kissing,,html-keyboard-response,186,677488,0.0-15.0-2.14,39591,List1B,black,man,,,,null,,,,
4552,,,survey-text,187,682041,0.0-15.0-3.14,39591,List1B,black,man,,,,,"{""Q0"":""luke is kissing fred""}","<img src=""stim_listB/kiss5.gif""</stim_listB>",is kissing,
null,"<div style=""font-size:60px;"">+</div>",,html-keyboard-response,188,682544,0.0-15.0-0.15,39591,List1B,black,man,,,,null,,,,
null,"<img src=""stim_listB/kiss2.gif""</stim_listB>",,html-keyboard-response,189,684547,0.0-15.0-1.15,39591,List1B,black,man,,,,null,,,,
null,are kissing each other,,html-keyboard-response,190,686548,0.0-15.0-2.15,39591,List1B,black,man,,,,null,,,,
16651,,,survey-text,191,703200,0.0-15.0-3.15,39591,List1B,black,man,,,,,"{""Q0"":""mike and kate are kissing each other""}","<img src=""stim_listB/kiss2.gif""</stim_listB>",are kissing each other,
null,"<div style=""font-size:60px;"">+</div>",,html-keyboard-response,192,703705,0.0-15.0-0.16,39591,List1B,black,man,,,,null,,,,
null,"<img src=""stim_listB/fight4.gif""</stim_listB>",,html-keyboard-response,193,705709,0.0-15.0-1.16,39591,List1B,black,man,,,,null,,,,
null,are fighting each other,,html-keyboard-response,194,707713,0.0-15.0-2.16,39591,List1B,black,man,,,,null,,,,
4885,,,survey-text,195,712598,0.0-15.0-3.16,39591,List1B,black,man,,,,,"{""Q0"":""luke and ruth are fighting each other""}","<img src=""stim_listB/fight4.gif""</stim_listB>",are fighting each other,
null,"<div style=""font-size:60px;"">+</div>",,html-keyboard-response,196,713103,0.0-15.0-0.17,39591,List1B,black,man,,,,null,,,,
null,"<img src=""stim_listB/meet5.gif""</stim_listB>",,html-keyboard-response,197,715105,0.0-15.0-1.17,39591,List1B,black,man,,,,null,,,,
null,is meeting,,html-keyboard-response,198,717108,0.0-15.0-2.17,39591,List1B,black,man,,,,null,,,,
3743,,,survey-text,199,720852,0.0-15.0-3.17,39591,List1B,black,man,,,,,"{""Q0"":""dave is meeting mike""}","<img src=""stim_listB/meet5.gif""</stim_listB>",is meeting,
null,"<div style=""font-size:60px;"">+</div>",,html-keyboard-response,200,721357,0.0-15.0-0.18,39591,List1B,black,man,,,,null,,,,
null,"<img src=""stim_listB/dance1.gif""</stim_listB>",,html-keyboard-response,201,723358,0.0-15.0-1.18,39591,List1B,black,man,,,,null,,,,
null,is dancing with,,html-keyboard-response,202,725362,0.0-15.0-2.18,39591,List1B,black,man,,,,null,,,,
5440,,,survey-text,203,730804,0.0-15.0-3.18,39591,List1B,black,man,,,,,"{""Q0"":""kate is dancing with fred""}","<img src=""stim_listB/dance1.gif""</stim_listB>",is dancing with,
null,"<div style=""font-size:60px;"">+</div>",,html-keyboard-response,204,731306,0.0-15.0-0.19,39591,List1B,black,man,,,,null,,,,
null,"<img src=""stim_listB/fight8.gif""</stim_listB>",,html-keyboard-response,205,733308,0.0-15.0-1.19,39591,List1B,black,man,,,,null,,,,
null,are fighting each other,,html-keyboard-response,206,735310,0.0-15.0-2.19,39591,List1B,black,man,,,,null,,,,
8430,,,survey-text,207,743741,0.0-15.0-3.19,39591,List1B,black,man,,,,,"{""Q0"":""beth and ruth are fighting each other""}","<img src=""stim_listB/fight8.gif""</stim_listB>",are fighting each other,
4123,"<img src='img/portrait_matrix_list1.JPG' style='width:900px;height:500px;''></img><p>If you have memorised all the portraits and names and are ready to start, press Continue.</p><p><strong>Please note: Your memory of these faces will be tested 4 times during this experiment.</strong></p>",0,html-button-response,208,747867,0.0-16.0-0.0,39591,List1B,black,man,,,,,,,,
1061,"<img src=""portrait/BW2.jpg""style=""width:400px;height:400px;""></img>",2,html-button-response,209,749934,0.0-16.0-1.0,39591,List1B,black,man,,TRUE,2,,,,,
null,CORRECT,,html-keyboard-response,210,751439,0.0-16.0-2.0-0.0,39591,List1B,black,man,,,,null,,,,
1653,"<img src=""portrait/WM1.jpg""style=""width:400px;height:400px;""></img>",6,html-button-response,211,753093,0.0-16.0-4.0,39591,List1B,black,man,,TRUE,6,,,,,
null,CORRECT,,html-keyboard-response,212,754595,0.0-16.0-5.0-0.0,39591,List1B,black,man,,,,null,,,,
2169,"<img src=""portrait/WW1.jpg""style=""width:400px;height:400px;""></img>",1,html-button-response,213,756767,0.0-16.0-7.0,39591,List1B,black,man,,TRUE,1,,,,,
null,CORRECT,,html-keyboard-response,214,758273,0.0-16.0-8.0-0.0,39591,List1B,black,man,,,,null,,,,
1438,"<img src=""portrait/BM1.jpg""style=""width:400px;height:400px;""></img>",4,html-button-response,215,759714,0.0-16.0-10.0,39591,List1B,black,man,,TRUE,4,,,,,
null,CORRECT,,html-keyboard-response,216,761222,0.0-16.0-11.0-0.0,39591,List1B,black,man,,,,null,,,,
2155,"<img src=""portrait/BW1.jpg""style=""width:400px;height:400px;""></img>",0,html-button-response,217,763379,0.0-16.0-13.0,39591,List1B,black,man,,TRUE,0,,,,,
null,CORRECT,,html-keyboard-response,218,764881,0.0-16.0-14.0-0.0,39591,List1B,black,man,,,,null,,,,
1357,"<img src=""portrait/WW2.jpg""style=""width:400px;height:400px;""></img>",3,html-button-response,219,766240,0.0-16.0-16.0,39591,List1B,black,man,,TRUE,3,,,,,
null,CORRECT,,html-keyboard-response,220,767747,0.0-16.0-17.0-0.0,39591,List1B,black,man,,,,null,,,,
1417,"<img src=""portrait/WM2.jpg""style=""width:400px;height:400px;""></img>",7,html-button-response,221,769166,0.0-16.0-19.0,39591,List1B,black,man,,TRUE,7,,,,,
null,CORRECT,,html-keyboard-response,222,770672,0.0-16.0-20.0-0.0,39591,List1B,black,man,,,,null,,,,
888,"<img src=""portrait/BM2.jpg""style=""width:400px;height:400px;""></img>",5,html-button-response,223,771562,0.0-16.0-22.0,39591,List1B,black,man,,TRUE,5,,,,,
null,CORRECT,,html-keyboard-response,224,773068,0.0-16.0-23.0-0.0,39591,List1B,black,man,,,,null,,,,
1245,<p>You got 8 out of 8 right first time. Press Continue.</p>,0,html-button-response,225,774315,0.0-16.0-25.0,39591,List1B,black,man,,,,,,,,
null,"<div style=""font-size:60px;"">+</div>",,html-keyboard-response,226,775823,0.0-17.0-0.0,39591,List1B,black,man,,,,null,,,,
null,"<img src=""stim_listB/shout7.gif""</stim_listB>",,html-keyboard-response,227,777828,0.0-17.0-1.0,39591,List1B,black,man,,,,null,,,,
null,is shouting at,,html-keyboard-response,228,779832,0.0-17.0-2.0,39591,List1B,black,man,,,,null,,,,
4297,,,survey-text,229,784132,0.0-17.0-3.0,39591,List1B,black,man,,,,,"{""Q0"":""ruth is shouting at beth""}","<img src=""stim_listB/shout7.gif""</stim_listB>",is shouting at,
null,"<div style=""font-size:60px;"">+</div>",,html-keyboard-response,230,784633,0.0-17.0-0.1,39591,List1B,black,man,,,,null,,,,
null,"<img src=""stim_listB/kiss4.gif""</stim_listB>",,html-keyboard-response,231,786637,0.0-17.0-1.1,39591,List1B,black,man,,,,null,,,,
null,are kissing each other,,html-keyboard-response,232,788640,0.0-17.0-2.1,39591,List1B,black,man,,,,null,,,,
3546,,,survey-text,233,792188,0.0-17.0-3.1,39591,List1B,black,man,,,,,"{""Q0"":""dave and jane are kissing each other""}","<img src=""stim_listB/kiss4.gif""</stim_listB>",are kissing each other,
null,"<div style=""font-size:60px;"">+</div>",,html-keyboard-response,234,792692,0.0-17.0-0.2,39591,List1B,black,man,,,,null,,,,
null,"<img src=""stim_listB/meet7.gif""</stim_listB>",,html-keyboard-response,235,794696,0.0-17.0-1.2,39591,List1B,black,man,,,,null,,,,
null,is meeting,,html-keyboard-response,236,796699,0.0-17.0-2.2,39591,List1B,black,man,,,,null,,,,
3930,,,survey-text,237,800630,0.0-17.0-3.2,39591,List1B,black,man,,,,,"{""Q0"":""jane is meeting kate""}","<img src=""stim_listB/meet7.gif""</stim_listB>",is meeting,
null,"<div style=""font-size:60px;"">+</div>",,html-keyboard-response,238,801132,0.0-17.0-0.3,39591,List1B,black,man,,,,null,,,,
null,"<img src=""stim_listB/argue1.gif""</stim_listB>",,html-keyboard-response,239,803134,0.0-17.0-1.3,39591,List1B,black,man,,,,null,,,,
null,is arguing with,,html-keyboard-response,240,805137,0.0-17.0-2.3,39591,List1B,black,man,,,,null,,,,
4988,,,survey-text,241,810126,0.0-17.0-3.3,39591,List1B,black,man,,,,,"{""Q0"":""beth is arguing with mike""}","<img src=""stim_listB/argue1.gif""</stim_listB>",is arguing with,
null,"<div style=""font-size:60px;"">+</div>",,html-keyboard-response,242,810628,0.0-17.0-0.4,39591,List1B,black,man,,,,null,,,,
null,"<img src=""stim_listB/hug5.gif""</stim_listB>",,html-keyboard-response,243,812633,0.0-17.0-1.4,39591,List1B,black,man,,,,null,,,,
null,is hugging,,html-keyboard-response,244,814637,0.0-17.0-2.4,39591,List1B,black,man,,,,null,,,,
5168,,,survey-text,245,819806,0.0-17.0-3.4,39591,List1B,black,man,,,,,"{""Q0"":""fred is hugging luke""}","<img src=""stim_listB/hug5.gif""</stim_listB>",is hugging,
null,"<div style=""font-size:60px;"">+</div>",,html-keyboard-response,246,820309,0.0-17.0-0.5,39591,List1B,black,man,,,,null,,,,
null,"<img src=""stim_listB/shout5.gif""</stim_listB>",,html-keyboard-response,247,822312,0.0-17.0-1.5,39591,List1B,black,man,,,,null,,,,
null,is shouting at,,html-keyboard-response,248,824314,0.0-17.0-2.5,39591,List1B,black,man,,,,null,,,,
3832,,,survey-text,249,828147,0.0-17.0-3.5,39591,List1B,black,man,,,,,"{""Q0"":""luke is shouting at fred""}","<img src=""stim_listB/shout5.gif""</stim_listB>",is shouting at,
null,"<div style=""font-size:60px;"">+</div>",,html-keyboard-response,250,828649,0.0-17.0-0.6,39591,List1B,black,man,,,,null,,,,
null,"<img src=""stim_listB/shout1.gif""</stim_listB>",,html-keyboard-response,251,830651,0.0-17.0-1.6,39591,List1B,black,man,,,,null,,,,
null,is shouting at,,html-keyboard-response,252,832652,0.0-17.0-2.6,39591,List1B,black,man,,,,null,,,,
3619,,,survey-text,253,836272,0.0-17.0-3.6,39591,List1B,black,man,,,,,"{""Q0"":""beth is shouting at fred""}","<img src=""stim_listB/shout1.gif""</stim_listB>",is shouting at,
null,"<div style=""font-size:60px;"">+</div>",,html-keyboard-response,254,836774,0.0-17.0-0.7,39591,List1B,black,man,,,,null,,,,
null,"<img src=""stim_listB/marry4.gif""</stim_listB>",,html-keyboard-response,255,838777,0.0-17.0-1.7,39591,List1B,black,man,,,,null,,,,
null,are marrying each other,,html-keyboard-response,256,840778,0.0-17.0-2.7,39591,List1B,black,man,,,,null,,,,
4330,,,survey-text,257,845110,0.0-17.0-3.7,39591,List1B,black,man,,,,,"{""Q0"":""luke and jane are marrying each other""}","<img src=""stim_listB/marry4.gif""</stim_listB>",are marrying each other,
null,"<div style=""font-size:60px;"">+</div>",,html-keyboard-response,258,845611,0.0-17.0-0.8,39591,List1B,black,man,,,,null,,,,
null,"<img src=""stim_listB/meet6.gif""</stim_listB>",,html-keyboard-response,259,847614,0.0-17.0-1.8,39591,List1B,black,man,,,,null,,,,
null,are meeting each other,,html-keyboard-response,260,849615,0.0-17.0-2.8,39591,List1B,black,man,,,,null,,,,
3588,,,survey-text,261,853205,0.0-17.0-3.8,39591,List1B,black,man,,,,,"{""Q0"":""fred and luke are meeting each other""}","<img src=""stim_listB/meet6.gif""</stim_listB>",are meeting each other,
null,"<div style=""font-size:60px;"">+</div>",,html-keyboard-response,262,853707,0.0-17.0-0.9,39591,List1B,black,man,,,,null,,,,
null,"<img src=""stim_listB/talk1.gif""</stim_listB>",,html-keyboard-response,263,855710,0.0-17.0-1.9,39591,List1B,black,man,,,,null,,,,
null,is talking to,,html-keyboard-response,264,857712,0.0-17.0-2.9,39591,List1B,black,man,,,,null,,,,
4285,,,survey-text,265,861999,0.0-17.0-3.9,39591,List1B,black,man,,,,,"{""Q0"":""fred is talking to kate""}","<img src=""stim_listB/talk1.gif""</stim_listB>",is talking to,
null,"<div style=""font-size:60px;"">+</div>",,html-keyboard-response,266,862500,0.0-17.0-0.10,39591,List1B,black,man,,,,null,,,,
null,"<img src=""stim_listB/argue8.gif""</stim_listB>",,html-keyboard-response,267,864502,0.0-17.0-1.10,39591,List1B,black,man,,,,null,,,,
null,are arguing with each other,,html-keyboard-response,268,866504,0.0-17.0-2.10,39591,List1B,black,man,,,,null,,,,
4370,,,survey-text,269,870876,0.0-17.0-3.10,39591,List1B,black,man,,,,,"{""Q0"":""beth and jane are arguing with each other""}","<img src=""stim_listB/argue8.gif""</stim_listB>",are arguing with each other,
null,"<div style=""font-size:60px;"">+</div>",,html-keyboard-response,270,871377,0.0-17.0-0.11,39591,List1B,black,man,,,,null,,,,
null,"<img src=""stim_listB/argue7.gif""</stim_listB>",,html-keyboard-response,271,873381,0.0-17.0-1.11,39591,List1B,black,man,,,,null,,,,
null,is arguing with,,html-keyboard-response,272,875383,0.0-17.0-2.11,39591,List1B,black,man,,,,null,,,,
5871,,,survey-text,273,881256,0.0-17.0-3.11,39591,List1B,black,man,,,,,"{""Q0"":""ruth is arguing with kate""}","<img src=""stim_listB/argue7.gif""</stim_listB>",is arguing with,
null,"<div style=""font-size:60px;"">+</div>",,html-keyboard-response,274,881758,0.0-17.0-0.12,39591,List1B,black,man,,,,null,,,,
null,"<img src=""stim_listB/kiss1.gif""</stim_listB>",,html-keyboard-response,275,883761,0.0-17.0-1.12,39591,List1B,black,man,,,,null,,,,
null,is kissing,,html-keyboard-response,276,885764,0.0-17.0-2.12,39591,List1B,black,man,,,,null,,,,
6003,,,survey-text,277,891768,0.0-17.0-3.12,39591,List1B,black,man,,,,,"{""Q0"":""fred is kissing beth""}","<img src=""stim_listB/kiss1.gif""</stim_listB>",is kissing,
null,"<div style=""font-size:60px;"">+</div>",,html-keyboard-response,278,892269,0.0-17.0-0.13,39591,List1B,black,man,,,,null,,,,
null,"<img src=""stim_listB/touch5.gif""</stim_listB>",,html-keyboard-response,279,894271,0.0-17.0-1.13,39591,List1B,black,man,,,,null,,,,
null,is touching,,html-keyboard-response,280,896272,0.0-17.0-2.13,39591,List1B,black,man,,,,null,,,,
3706,,,survey-text,281,899980,0.0-17.0-3.13,39591,List1B,black,man,,,,,"{""Q0"":""mike is touching dave""}","<img src=""stim_listB/touch5.gif""</stim_listB>",is touching,
null,"<div style=""font-size:60px;"">+</div>",,html-keyboard-response,282,900481,0.0-17.0-0.14,39591,List1B,black,man,,,,null,,,,
null,"<img src=""stim_listB/talk4.gif""</stim_listB>",,html-keyboard-response,283,902484,0.0-17.0-1.14,39591,List1B,black,man,,,,null,,,,
null,are talking to each other,,html-keyboard-response,284,904485,0.0-17.0-2.14,39591,List1B,black,man,,,,null,,,,
3662,,,survey-text,285,908149,0.0-17.0-3.14,39591,List1B,black,man,,,,,"{""Q0"":""dave and ruth are talking to each other""}","<img src=""stim_listB/talk4.gif""</stim_listB>",are talking to each other,
null,"<div style=""font-size:60px;"">+</div>",,html-keyboard-response,286,908651,0.0-17.0-0.15,39591,List1B,black,man,,,,null,,,,
null,"<img src=""stim_listB/marry8.gif""</stim_listB>",,html-keyboard-response,287,910654,0.0-17.0-1.15,39591,List1B,black,man,,,,null,,,,
null,are marrying each other,,html-keyboard-response,288,912655,0.0-17.0-2.15,39591,List1B,black,man,,,,null,,,,
4117,,,survey-text,289,916773,0.0-17.0-3.15,39591,List1B,black,man,,,,,"{""Q0"":""beth and jane are talking to each other""}","<img src=""stim_listB/marry8.gif""</stim_listB>",are marrying each other,
null,"<div style=""font-size:60px;"">+</div>",,html-keyboard-response,290,917274,0.0-17.0-0.16,39591,List1B,black,man,,,,null,,,,
null,"<img src=""stim_listB/hug4.gif""</stim_listB>",,html-keyboard-response,291,919277,0.0-17.0-1.16,39591,List1B,black,man,,,,null,,,,
null,are hugging each other,,html-keyboard-response,292,921279,0.0-17.0-2.16,39591,List1B,black,man,,,,null,,,,
3646,,,survey-text,293,924925,0.0-17.0-3.16,39591,List1B,black,man,,,,,"{""Q0"":""dave and jane are hugging each other""}","<img src=""stim_listB/hug4.gif""</stim_listB>",are hugging each other,
null,"<div style=""font-size:60px;"">+</div>",,html-keyboard-response,294,925428,0.0-17.0-0.17,39591,List1B,black,man,,,,null,,,,
null,"<img src=""stim_listB/argue5.gif""</stim_listB>",,html-keyboard-response,295,927430,0.0-17.0-1.17,39591,List1B,black,man,,,,null,,,,
null,is arguing with,,html-keyboard-response,296,929433,0.0-17.0-2.17,39591,List1B,black,man,,,,null,,,,
5167,,,survey-text,297,934602,0.0-17.0-3.17,39591,List1B,black,man,,,,,"{""Q0"":""mike is arguing with luke""}","<img src=""stim_listB/argue5.gif""</stim_listB>",is arguing with,
null,"<div style=""font-size:60px;"">+</div>",,html-keyboard-response,298,935105,0.0-17.0-0.18,39591,List1B,black,man,,,,null,,,,
null,"<img src=""stim_listB/meet3.gif""</stim_listB>",,html-keyboard-response,299,937107,0.0-17.0-1.18,39591,List1B,black,man,,,,null,,,,
null,is meeting,,html-keyboard-response,300,939108,0.0-17.0-2.18,39591,List1B,black,man,,,,null,,,,
7798,,,survey-text,301,946908,0.0-17.0-3.18,39591,List1B,black,man,,,,,"{""Q0"":""dave is meeting jane""}","<img src=""stim_listB/meet3.gif""</stim_listB>",is meeting,
null,"<div style=""font-size:60px;"">+</div>",,html-keyboard-response,302,947409,0.0-17.0-0.19,39591,List1B,black,man,,,,null,,,,
null,"<img src=""stim_listB/hug8.gif""</stim_listB>",,html-keyboard-response,303,949410,0.0-17.0-1.19,39591,List1B,black,man,,,,null,,,,
null,are hugging each other,,html-keyboard-response,304,951412,0.0-17.0-2.19,39591,List1B,black,man,,,,null,,,,
5093,,,survey-text,305,956506,0.0-17.0-3.19,39591,List1B,black,man,,,,,"{""Q0"":""jane and kate are hugging each other""}","<img src=""stim_listB/hug8.gif""</stim_listB>",are hugging each other,
324566,"<img src='img/portrait_matrix_list1.JPG' style='width:900px;height:500px;''></img><p>If you have memorised all the portraits and names and are ready to start, press Continue.</p><p><strong>Please note: Your memory of these faces will be tested 4 times during this experiment.</strong></p>",0,html-button-response,306,1281074,0.0-18.0-0.0,39591,List1B,black,man,,,,,,,,
1953,"<img src=""portrait/WW1.jpg""style=""width:400px;height:400px;""></img>",1,html-button-response,307,1284030,0.0-18.0-1.0,39591,List1B,black,man,,TRUE,1,,,,,
null,CORRECT,,html-keyboard-response,308,1285533,0.0-18.0-2.0-0.0,39591,List1B,black,man,,,,null,,,,
1761,"<img src=""portrait/WM1.jpg""style=""width:400px;height:400px;""></img>",6,html-button-response,309,1287296,0.0-18.0-4.0,39591,List1B,black,man,,TRUE,6,,,,,
null,CORRECT,,html-keyboard-response,310,1288800,0.0-18.0-5.0-0.0,39591,List1B,black,man,,,,null,,,,
1748,"<img src=""portrait/BW1.jpg""style=""width:400px;height:400px;""></img>",0,html-button-response,311,1290549,0.0-18.0-7.0,39591,List1B,black,man,,TRUE,0,,,,,
null,CORRECT,,html-keyboard-response,312,1292052,0.0-18.0-8.0-0.0,39591,List1B,black,man,,,,null,,,,
1596,"<img src=""portrait/WW2.jpg""style=""width:400px;height:400px;""></img>",3,html-button-response,313,1293650,0.0-18.0-10.0,39591,List1B,black,man,,TRUE,3,,,,,
null,CORRECT,,html-keyboard-response,314,1295154,0.0-18.0-11.0-0.0,39591,List1B,black,man,,,,null,,,,
1485,"<img src=""portrait/WM2.jpg""style=""width:400px;height:400px;""></img>",7,html-button-response,315,1296640,0.0-18.0-13.0,39591,List1B,black,man,,TRUE,7,,,,,
null,CORRECT,,html-keyboard-response,316,1298143,0.0-18.0-14.0-0.0,39591,List1B,black,man,,,,null,,,,
1147,"<img src=""portrait/BM1.jpg""style=""width:400px;height:400px;""></img>",4,html-button-response,317,1299294,0.0-18.0-16.0,39591,List1B,black,man,,TRUE,4,,,,,
null,CORRECT,,html-keyboard-response,318,1300798,0.0-18.0-17.0-0.0,39591,List1B,black,man,,,,null,,,,
911,"<img src=""portrait/BM2.jpg""style=""width:400px;height:400px;""></img>",5,html-button-response,319,1301711,0.0-18.0-19.0,39591,List1B,black,man,,TRUE,5,,,,,
null,CORRECT,,html-keyboard-response,320,1303213,0.0-18.0-20.0-0.0,39591,List1B,black,man,,,,null,,,,
3441,"<img src=""portrait/BW2.jpg""style=""width:400px;height:400px;""></img>",2,html-button-response,321,1306656,0.0-18.0-22.0,39591,List1B,black,man,,TRUE,2,,,,,
null,CORRECT,,html-keyboard-response,322,1308158,0.0-18.0-23.0-0.0,39591,List1B,black,man,,,,null,,,,
1051,<p>You got 8 out of 8 right first time. Press Continue.</p>,0,html-button-response,323,1309211,0.0-18.0-25.0,39591,List1B,black,man,,,,,,,,
null,"<div style=""font-size:60px;"">+</div>",,html-keyboard-response,324,1310715,0.0-19.0-0.0,39591,List1B,black,man,,,,null,,,,
null,"<img src=""stim_listB/fight7.gif""</stim_listB>",,html-keyboard-response,325,1312717,0.0-19.0-1.0,39591,List1B,black,man,,,,null,,,,
null,is fighting,,html-keyboard-response,326,1314718,0.0-19.0-2.0,39591,List1B,black,man,,,,null,,,,
4876,,,survey-text,327,1319596,0.0-19.0-3.0,39591,List1B,black,man,,,,,"{""Q0"":""jane is fighting kate""}","<img src=""stim_listB/fight7.gif""</stim_listB>",is fighting,
null,"<div style=""font-size:60px;"">+</div>",,html-keyboard-response,328,1320097,0.0-19.0-0.1,39591,List1B,black,man,,,,null,,,,
null,"<img src=""stim_listB/hug2.gif""</stim_listB>",,html-keyboard-response,329,1322100,0.0-19.0-1.1,39591,List1B,black,man,,,,null,,,,
null,are hugging each other,,html-keyboard-response,330,1324102,0.0-19.0-2.1,39591,List1B,black,man,,,,null,,,,
6173,,,survey-text,331,1330277,0.0-19.0-3.1,39591,List1B,black,man,,,,,"{""Q0"":""kate and mike are hugging each other""}","<img src=""stim_listB/hug2.gif""</stim_listB>",are hugging each other,
null,"<div style=""font-size:60px;"">+</div>",,html-keyboard-response,332,1330779,0.0-19.0-0.2,39591,List1B,black,man,,,,null,,,,
null,"<img src=""stim_listB/hug3.gif""</stim_listB>",,html-keyboard-response,333,1332783,0.0-19.0-1.2,39591,List1B,black,man,,,,null,,,,
null,is hugging,,html-keyboard-response,334,1334784,0.0-19.0-2.2,39591,List1B,black,man,,,,null,,,,
5882,,,survey-text,335,1340668,0.0-19.0-3.2,39591,List1B,black,man,,,,,"{""Q0"":""luke is hugging ruth""}","<img src=""stim_listB/hug3.gif""</stim_listB>",is hugging,
null,"<div style=""font-size:60px;"">+</div>",,html-keyboard-response,336,1341169,0.0-19.0-0.3,39591,List1B,black,man,,,,null,,,,
null,"<img src=""stim_listB/argue6.gif""</stim_listB>",,html-keyboard-response,337,1343171,0.0-19.0-1.3,39591,List1B,black,man,,,,null,,,,
null,are arguing with each other,,html-keyboard-response,338,1345172,0.0-19.0-2.3,39591,List1B,black,man,,,,null,,,,
5068,,,survey-text,339,1350242,0.0-19.0-3.3,39591,List1B,black,man,,,,,"{""Q0"":""fred and dave are arguing with each other""}","<img src=""stim_listB/argue6.gif""</stim_listB>",are arguing with each other,
null,"<div style=""font-size:60px;"">+</div>",,html-keyboard-response,340,1350744,0.0-19.0-0.4,39591,List1B,black,man,,,,null,,,,
null,"<img src=""stim_listB/shout6.gif""</stim_listB>",,html-keyboard-response,341,1352746,0.0-19.0-1.4,39591,List1B,black,man,,,,null,,,,
null,are shouting at each other,,html-keyboard-response,342,1354748,0.0-19.0-2.4,39591,List1B,black,man,,,,null,,,,
3940,,,survey-text,343,1358690,0.0-19.0-3.4,39591,List1B,black,man,,,,,"{""Q0"":""dave and mike are shouting at each other""}","<img src=""stim_listB/shout6.gif""</stim_listB>",are shouting at each other,
null,"<div style=""font-size:60px;"">+</div>",,html-keyboard-response,344,1359192,0.0-19.0-0.5,39591,List1B,black,man,,,,null,,,,
null,"<img src=""stim_listB/shout8.gif""</stim_listB>",,html-keyboard-response,345,1361194,0.0-19.0-1.5,39591,List1B,black,man,,,,null,,,,
null,are shouting at each other,,html-keyboard-response,346,1363197,0.0-19.0-2.5,39591,List1B,black,man,,,,null,,,,
6608,,,survey-text,347,1369806,0.0-19.0-3.5,39591,List1B,black,man,,,,,"{""Q0"":""kate and jane are shouting at each other""}","<img src=""stim_listB/shout8.gif""</stim_listB>",are shouting at each other,
null,"<div style=""font-size:60px;"">+</div>",,html-keyboard-response,348,1370307,0.0-19.0-0.6,39591,List1B,black,man,,,,null,,,,
null,"<img src=""stim_listB/marry6.gif""</stim_listB>",,html-keyboard-response,349,1372310,0.0-19.0-1.6,39591,List1B,black,man,,,,null,,,,
null,are marrying each other,,html-keyboard-response,350,1374312,0.0-19.0-2.6,39591,List1B,black,man,,,,null,,,,
7194,,,survey-text,351,1381508,0.0-19.0-3.6,39591,List1B,black,man,,,,,"{""Q0"":""fred and dave are marrying each other""}","<img src=""stim_listB/marry6.gif""</stim_listB>",are marrying each other,
null,"<div style=""font-size:60px;"">+</div>",,html-keyboard-response,352,1382010,0.0-19.0-0.7,39591,List1B,black,man,,,,null,,,,
null,"<img src=""stim_listB/dance8.gif""</stim_listB>",,html-keyboard-response,353,1384013,0.0-19.0-1.7,39591,List1B,black,man,,,,null,,,,
null,are dancing with each other,,html-keyboard-response,354,1386015,0.0-19.0-2.7,39591,List1B,black,man,,,,null,,,,
5428,,,survey-text,355,1391444,0.0-19.0-3.7,39591,List1B,black,man,,,,,"{""Q0"":""kate and ruth are dancing with each other""}","<img src=""stim_listB/dance8.gif""</stim_listB>",are dancing with each other,
null,"<div style=""font-size:60px;"">+</div>",,html-keyboard-response,356,1391947,0.0-19.0-0.8,39591,List1B,black,man,,,,null,,,,
null,"<img src=""stim_listB/touch2.gif""</stim_listB>",,html-keyboard-response,357,1393950,0.0-19.0-1.8,39591,List1B,black,man,,,,null,,,,
null,are touching each other,,html-keyboard-response,358,1395952,0.0-19.0-2.8,39591,List1B,black,man,,,,null,,,,
5598,,,survey-text,359,1401551,0.0-19.0-3.8,39591,List1B,black,man,,,,,"{""Q0"":""fred and beth are touching each other""}","<img src=""stim_listB/touch2.gif""</stim_listB>",are touching each other,
null,"<div style=""font-size:60px;"">+</div>",,html-keyboard-response,360,1402054,0.0-19.0-0.9,39591,List1B,black,man,,,,null,,,,
null,"<img src=""stim_listB/hug1.gif""</stim_listB>",,html-keyboard-response,361,1404056,0.0-19.0-1.9,39591,List1B,black,man,,,,null,,,,
null,is hugging,,html-keyboard-response,362,1406058,0.0-19.0-2.9,39591,List1B,black,man,,,,null,,,,
5026,,,survey-text,363,1411086,0.0-19.0-3.9,39591,List1B,black,man,,,,,"{""Q0"":""fred is hugging beth""}","<img src=""stim_listB/hug1.gif""</stim_listB>",is hugging,
null,"<div style=""font-size:60px;"">+</div>",,html-keyboard-response,364,1411587,0.0-19.0-0.10,39591,List1B,black,man,,,,null,,,,
null,"<img src=""stim_listB/talk5.gif""</stim_listB>",,html-keyboard-response,365,1413590,0.0-19.0-1.10,39591,List1B,black,man,,,,null,,,,
null,is talking to,,html-keyboard-response,366,1415591,0.0-19.0-2.10,39591,List1B,black,man,,,,null,,,,
4654,,,survey-text,367,1420246,0.0-19.0-3.10,39591,List1B,black,man,,,,,"{""Q0"":""dave is talking to fred""}","<img src=""stim_listB/talk5.gif""</stim_listB>",is talking to,
null,"<div style=""font-size:60px;"">+</div>",,html-keyboard-response,368,1420750,0.0-19.0-0.11,39591,List1B,black,man,,,,null,,,,
null,"<img src=""stim_listB/shout3.gif""</stim_listB>",,html-keyboard-response,369,1422752,0.0-19.0-1.11,39591,List1B,black,man,,,,null,,,,
null,is shouting at,,html-keyboard-response,370,1424754,0.0-19.0-2.11,39591,List1B,black,man,,,,null,,,,
5668,,,survey-text,371,1430423,0.0-19.0-3.11,39591,List1B,black,man,,,,,"{""Q0"":""ruth is shouting at luke""}","<img src=""stim_listB/shout3.gif""</stim_listB>",is shouting at,
null,"<div style=""font-size:60px;"">+</div>",,html-keyboard-response,372,1430926,0.0-19.0-0.12,39591,List1B,black,man,,,,null,,,,
null,"<img src=""stim_listB/kiss3.gif""</stim_listB>",,html-keyboard-response,373,1432928,0.0-19.0-1.12,39591,List1B,black,man,,,,null,,,,
null,is kissing,,html-keyboard-response,374,1434930,0.0-19.0-2.12,39591,List1B,black,man,,,,null,,,,
5054,,,survey-text,375,1439985,0.0-19.0-3.12,39591,List1B,black,man,,,,,"{""Q0"":""ruth is kissing luke""}","<img src=""stim_listB/kiss3.gif""</stim_listB>",is kissing,
null,"<div style=""font-size:60px;"">+</div>",,html-keyboard-response,376,1440486,0.0-19.0-0.13,39591,List1B,black,man,,,,null,,,,
null,"<img src=""stim_listB/hug7.gif""</stim_listB>",,html-keyboard-response,377,1442489,0.0-19.0-1.13,39591,List1B,black,man,,,,null,,,,
null,is hugging,,html-keyboard-response,378,1444490,0.0-19.0-2.13,39591,List1B,black,man,,,,null,,,,
4633,,,survey-text,379,1449125,0.0-19.0-3.13,39591,List1B,black,man,,,,,"{""Q0"":""ruth is hugging beth""}","<img src=""stim_listB/hug7.gif""</stim_listB>",is hugging,
null,"<div style=""font-size:60px;"">+</div>",,html-keyboard-response,380,1449626,0.0-19.0-0.14,39591,List1B,black,man,,,,null,,,,
null,"<img src=""stim_listB/talk8.gif""</stim_listB>",,html-keyboard-response,381,1451628,0.0-19.0-1.14,39591,List1B,black,man,,,,null,,,,
null,are talking to each other,,html-keyboard-response,382,1453629,0.0-19.0-2.14,39591,List1B,black,man,,,,null,,,,
3993,,,survey-text,383,1457625,0.0-19.0-3.14,39591,List1B,black,man,,,,,"{""Q0"":""ruth and kate are talking to each other""}","<img src=""stim_listB/talk8.gif""</stim_listB>",are talking to each other,
null,"<div style=""font-size:60px;"">+</div>",,html-keyboard-response,384,1458127,0.0-19.0-0.15,39591,List1B,black,man,,,,null,,,,
null,"<img src=""stim_listB/fight6.gif""</stim_listB>",,html-keyboard-response,385,1460129,0.0-19.0-1.15,39591,List1B,black,man,,,,null,,,,
null,are fighting each other,,html-keyboard-response,386,1462131,0.0-19.0-2.15,39591,List1B,black,man,,,,null,,,,
4300,,,survey-text,387,1466432,0.0-19.0-3.15,39591,List1B,black,man,,,,,"{""Q0"":""fred and luke are fighting each other""}","<img src=""stim_listB/fight6.gif""</stim_listB>",are fighting each other,
null,"<div style=""font-size:60px;"">+</div>",,html-keyboard-response,388,1466935,0.0-19.0-0.16,39591,List1B,black,man,,,,null,,,,
null,"<img src=""stim_listB/fight3.gif""</stim_listB>",,html-keyboard-response,389,1468938,0.0-19.0-1.16,39591,List1B,black,man,,,,null,,,,
null,is fighting,,html-keyboard-response,390,1470940,0.0-19.0-2.16,39591,List1B,black,man,,,,null,,,,
4126,,,survey-text,391,1475068,0.0-19.0-3.16,39591,List1B,black,man,,,,,"{""Q0"":""dave is fighting jane""}","<img src=""stim_listB/fight3.gif""</stim_listB>",is fighting,
null,"<div style=""font-size:60px;"">+</div>",,html-keyboard-response,392,1475571,0.0-19.0-0.17,39591,List1B,black,man,,,,null,,,,
null,"<img src=""stim_listB/touch4.gif""</stim_listB>",,html-keyboard-response,393,1477573,0.0-19.0-1.17,39591,List1B,black,man,,,,null,,,,
null,are touching each other,,html-keyboard-response,394,1479575,0.0-19.0-2.17,39591,List1B,black,man,,,,null,,,,
5067,,,survey-text,395,1484643,0.0-19.0-3.17,39591,List1B,black,man,,,,,"{""Q0"":""ruth and luke are touching each other""}","<img src=""stim_listB/touch4.gif""</stim_listB>",are touching each other,
null,"<div style=""font-size:60px;"">+</div>",,html-keyboard-response,396,1485145,0.0-19.0-0.18,39591,List1B,black,man,,,,null,,,,
null,"<img src=""stim_listB/talk6.gif""</stim_listB>",,html-keyboard-response,397,1487147,0.0-19.0-1.18,39591,List1B,black,man,,,,null,,,,
null,are talking to each other,,html-keyboard-response,398,1489149,0.0-19.0-2.18,39591,List1B,black,man,,,,null,,,,
4850,,,survey-text,399,1493999,0.0-19.0-3.18,39591,List1B,black,man,,,,,"{""Q0"":""mike and luke are talking to each other""}","<img src=""stim_listB/talk6.gif""</stim_listB>",are talking to each other,
null,"<div style=""font-size:60px;"">+</div>",,html-keyboard-response,400,1494502,0.0-19.0-0.19,39591,List1B,black,man,,,,null,,,,
null,"<img src=""stim_listB/talk7.gif""</stim_listB>",,html-keyboard-response,401,1496504,0.0-19.0-1.19,39591,List1B,black,man,,,,null,,,,
null,is talking to,,html-keyboard-response,402,1498505,0.0-19.0-2.19,39591,List1B,black,man,,,,null,,,,
3735,,,survey-text,403,1502242,0.0-19.0-3.19,39591,List1B,black,man,,,,,"{""Q0"":""jane is talking to beth""}","<img src=""stim_listB/talk7.gif""</stim_listB>",is talking to,
2937,<p>Thank you for completing that task.</p><p>The final part of this session is a short questionnaire.</p><p>Press Continue.</p>,0,html-button-response,404,1505181,0.0-20.0,39591,List1B,black,man,,,,,,,,
16332,,,survey-text,405,1522518,0.0-21.0,39591,List1B,black,man,,,,,"{""Q0"":""24"",""Q1"":""English"",""Q2"":""English"",""Q3"":""USA"",""Q4"":""Black"",""Q5"":""Male""}",,,demographics
34056,,,survey-likert,406,1556582,0.0-22.0,39591,List1B,black,man,,,,,"{""Q0"":5,""Q1"":5,""Q2"":5,""Q3"":6,""Q4"":5,""Q5"":6,""Q6"":6,""Q7"":3,""Q8"":5,""Q9"":4,""Q10"":2,""Q11"":1,""Q12"":4,""Q13"":4}",,,likert_race
24182,,,survey-likert,407,1580771,0.0-23.0,39591,List1B,black,man,,,,,"{""Q0"":6,""Q1"":6,""Q2"":5,""Q3"":6,""Q4"":6,""Q5"":5,""Q6"":6,""Q7"":6,""Q8"":6,""Q9"":5,""Q10"":4,""Q11"":5,""Q12"":5,""Q13"":4}",,,likert_gender
10402,,,survey-text,408,1591177,0.0-24.0,39591,List1B,black,man,,,,,"{""Q0"":""ccc""}",,,worker_id
4222,,,external-html,409,1595704,0.0-25.0,39591,List1B,black,man,debrief.html,,,,,,,
