rt,stimulus,button_pressed,trial_type,trial_index,time_elapsed,internal_node_id,subject,list,ppt_race,ppt_gender,url,first_guess,correct,key_press,responses,image_type,phrase_type,test_part
3517,Welcome to the experiment. Press Continue to begin.,0,html-button-response,0,3522,0.0-0.0,3987,List1A,black,woman,,,,,,,,
8619,,,external-html,1,13326,0.0-1.0,3987,List1A,black,woman,consent.html,,,,,,,
8953,"<p>On the next page, you will see portraits of 8 people and their names.</p><p>Your first task is to take a few minutes to memorise the names of these people.</p><p>You will have to recall their names during the rest of the experiment, so it is</p><p>essential that you try to memorise these people and their names as best as you can.</p><br><p><strong>You will then be tested on your memory of these names and portraits.</strong></p><br><p>The experiment will start after you have completed this memory test.</p><br><p>Ready?</p>",0,html-button-response,2,22282,0.0-2.0,3987,List1A,black,woman,,,,,,,,
67729,"<img src='img/portrait_matrix_list1.JPG' style='width:900px;height:500px;''></img><p>If you have memorised all the portraits and names and are ready to start, press Continue.</p><p><strong>Please note: Your memory of these faces will be tested 4 times during this experiment.</strong></p>",0,html-button-response,3,91013,0.0-3.0-0.0,3987,List1A,black,woman,,,,,,,,
6645,"<img src=""portrait/BW2.jpg""style=""width:400px;height:400px;""></img>",2,html-button-response,4,98662,0.0-3.0-1.0,3987,List1A,black,woman,,TRUE,2,,,,,
null,CORRECT,,html-keyboard-response,5,100168,0.0-3.0-2.0-0.0,3987,List1A,black,woman,,,,null,,,,
1922,"<img src=""portrait/BW1.jpg""style=""width:400px;height:400px;""></img>",0,html-button-response,6,102092,0.0-3.0-4.0,3987,List1A,black,woman,,TRUE,0,,,,,
null,CORRECT,,html-keyboard-response,7,103666,0.0-3.0-5.0-0.0,3987,List1A,black,woman,,,,null,,,,
2977,"<img src=""portrait/BM2.jpg""style=""width:400px;height:400px;""></img>",5,html-button-response,8,106645,0.0-3.0-7.0,3987,List1A,black,woman,,TRUE,5,,,,,
null,CORRECT,,html-keyboard-response,9,108152,0.0-3.0-8.0-0.0,3987,List1A,black,woman,,,,null,,,,
7910,"<img src=""portrait/WW2.jpg""style=""width:400px;height:400px;""></img>",3,html-button-response,10,116064,0.0-3.0-10.0,3987,List1A,black,woman,,TRUE,3,,,,,
null,CORRECT,,html-keyboard-response,11,117567,0.0-3.0-11.0-0.0,3987,List1A,black,woman,,,,null,,,,
2859,"<img src=""portrait/BM1.jpg""style=""width:400px;height:400px;""></img>",4,html-button-response,12,120427,0.0-3.0-13.0,3987,List1A,black,woman,,TRUE,4,,,,,
null,CORRECT,,html-keyboard-response,13,121929,0.0-3.0-14.0-0.0,3987,List1A,black,woman,,,,null,,,,
2013,"<img src=""portrait/WM2.jpg""style=""width:400px;height:400px;""></img>",7,html-button-response,14,123945,0.0-3.0-16.0,3987,List1A,black,woman,,TRUE,7,,,,,
null,CORRECT,,html-keyboard-response,15,125454,0.0-3.0-17.0-0.0,3987,List1A,black,woman,,,,null,,,,
1984,"<img src=""portrait/WM1.jpg""style=""width:400px;height:400px;""></img>",6,html-button-response,16,127441,0.0-3.0-19.0,3987,List1A,black,woman,,TRUE,6,,,,,
null,CORRECT,,html-keyboard-response,17,128946,0.0-3.0-20.0-0.0,3987,List1A,black,woman,,,,null,,,,
4302,"<img src=""portrait/WW1.jpg""style=""width:400px;height:400px;""></img>",1,html-button-response,18,133249,0.0-3.0-22.0,3987,List1A,black,woman,,TRUE,1,,,,,
null,CORRECT,,html-keyboard-response,19,134752,0.0-3.0-23.0-0.0,3987,List1A,black,woman,,,,null,,,,
2103,<p>You got 8 out of 8 right first time. Press Continue.</p>,0,html-button-response,20,136857,0.0-3.0-25.0,3987,List1A,black,woman,,,,,,,,
29523,"<p>In this experiment, you will view photographs of the people from the memory game interacting.</p><p>By using the <strong>exact</strong> phrase given <i>after</i> the photograph appears and recalling the correct names of the people in the photographs, form a sentence describing the interaction. You do not need to capitalise names.</p><p>Type your answer in the space provided. Please complete every sentence before moving onto the next trial.</p><p>You will only have a few seconds to memorise each given photograph and phrase before you can respond, so try your best to focus.</p><p>An example is given below. Press 'Continue' when you are ready.</p><img src='img/speaking_example_v2.jpg' style='width:800px;height:460px;''></img>",0,html-button-response,21,167385,0.0-4.0,3987,List1A,black,woman,,,,,,,,
1965,"<p>Before the experiment starts, you will watch two example trials. Press 'Continue'.</p>",0,html-button-response,22,170353,0.0-5.0,3987,List1A,black,woman,,,,,,,,
null,<img src='img/speaking_WW.gif'></img>,,html-keyboard-response,23,173359,0.0-6.0,3987,List1A,black,woman,,,,null,,,,
null,<p>is speaking to</p>,,html-keyboard-response,24,175360,0.0-7.0,3987,List1A,black,woman,,,,null,,,,
5276,<p><b>Answer:</b> kate is speaking to beth</p>,0,html-button-response,25,180638,0.0-8.0,3987,List1A,black,woman,,,,,,,,
null,<img src='img/pointing_BM.gif'></img>,,html-keyboard-response,26,183641,0.0-9.0,3987,List1A,black,woman,,,,null,,,,
null,<p>are pointing at each other</p>,,html-keyboard-response,27,185643,0.0-10.0,3987,List1A,black,woman,,,,null,,,,
1611,<p><b>Answer:</b> luke and dave are pointing at each other</p>,0,html-button-response,28,187255,0.0-11.0,3987,List1A,black,woman,,,,,,,,
3753,"<p>Ready to start the experiment?</p><br><p><strong>Remember to describe the picture using a full sentence,</strong></p><p><strong> that combines the names of the people with the given phrase.</strong></p><p><strong> You do not need to capitalise names or use punctuation.</strong></p><br><p>Press 'Continue' to begin.</p>",0,html-button-response,29,192011,0.0-12.0,3987,List1A,black,woman,,,,,,,,
null,"<div style=""font-size:60px;"">+</div>",,html-keyboard-response,30,193514,0.0-13.0-0.0,3987,List1A,black,woman,,,,null,,,,
null,"<img src=""stim_listA/argue4.gif""</stim_listA>",,html-keyboard-response,31,195517,0.0-13.0-1.0,3987,List1A,black,woman,,,,null,,,,
null,are arguing with each other,,html-keyboard-response,32,197520,0.0-13.0-2.0,3987,List1A,black,woman,,,,null,,,,
5529,,,survey-text,33,203051,0.0-13.0-3.0,3987,List1A,black,woman,,,,,"{""Q0"":""jane and luke""}","<img src=""stim_listA/argue4.gif""</stim_listA>",are arguing with each other,
null,"<div style=""font-size:60px;"">+</div>",,html-keyboard-response,34,203554,0.0-13.0-0.1,3987,List1A,black,woman,,,,null,,,,
null,"<img src=""stim_listA/talk8.gif""</stim_listA>",,html-keyboard-response,35,205556,0.0-13.0-1.1,3987,List1A,black,woman,,,,null,,,,
null,are talking to each other,,html-keyboard-response,36,207558,0.0-13.0-2.1,3987,List1A,black,woman,,,,null,,,,
8262,,,survey-text,37,215821,0.0-13.0-3.1,3987,List1A,black,woman,,,,,"{""Q0"":""kate and jane""}","<img src=""stim_listA/talk8.gif""</stim_listA>",are talking to each other,
null,"<div style=""font-size:60px;"">+</div>",,html-keyboard-response,38,216323,0.0-13.0-0.2,3987,List1A,black,woman,,,,null,,,,
null,"<img src=""stim_listA/meet5.gif""</stim_listA>",,html-keyboard-response,39,218325,0.0-13.0-1.2,3987,List1A,black,woman,,,,null,,,,
null,is meeting,,html-keyboard-response,40,220326,0.0-13.0-2.2,3987,List1A,black,woman,,,,null,,,,
5909,,,survey-text,41,226239,0.0-13.0-3.2,3987,List1A,black,woman,,,,,"{""Q0"":""dave is meeting mike""}","<img src=""stim_listA/meet5.gif""</stim_listA>",is meeting,
null,"<div style=""font-size:60px;"">+</div>",,html-keyboard-response,42,226741,0.0-13.0-0.3,3987,List1A,black,woman,,,,null,,,,
null,"<img src=""stim_listA/marry3.gif""</stim_listA>",,html-keyboard-response,43,228745,0.0-13.0-1.3,3987,List1A,black,woman,,,,null,,,,
null,is marrying,,html-keyboard-response,44,230746,0.0-13.0-2.3,3987,List1A,black,woman,,,,null,,,,
7771,,,survey-text,45,238518,0.0-13.0-3.3,3987,List1A,black,woman,,,,,"{""Q0"":""dave is marrying ruth""}","<img src=""stim_listA/marry3.gif""</stim_listA>",is marrying,
null,"<div style=""font-size:60px;"">+</div>",,html-keyboard-response,46,239025,0.0-13.0-0.4,3987,List1A,black,woman,,,,null,,,,
null,"<img src=""stim_listA/touch3.gif""</stim_listA>",,html-keyboard-response,47,241027,0.0-13.0-1.4,3987,List1A,black,woman,,,,null,,,,
null,is touching,,html-keyboard-response,48,243029,0.0-13.0-2.4,3987,List1A,black,woman,,,,null,,,,
6603,,,survey-text,49,249633,0.0-13.0-3.4,3987,List1A,black,woman,,,,,"{""Q0"":""dave is touching jane""}","<img src=""stim_listA/touch3.gif""</stim_listA>",is touching,
null,"<div style=""font-size:60px;"">+</div>",,html-keyboard-response,50,250138,0.0-13.0-0.5,3987,List1A,black,woman,,,,null,,,,
null,"<img src=""stim_listA/hug6.gif""</stim_listA>",,html-keyboard-response,51,252141,0.0-13.0-1.5,3987,List1A,black,woman,,,,null,,,,
null,are hugging each other,,html-keyboard-response,52,254142,0.0-13.0-2.5,3987,List1A,black,woman,,,,null,,,,
7599,,,survey-text,53,261741,0.0-13.0-3.5,3987,List1A,black,woman,,,,,"{""Q0"":""mike and dave are hugging each other""}","<img src=""stim_listA/hug6.gif""</stim_listA>",are hugging each other,
null,"<div style=""font-size:60px;"">+</div>",,html-keyboard-response,54,262243,0.0-13.0-0.6,3987,List1A,black,woman,,,,null,,,,
null,"<img src=""stim_listA/argue3.gif""</stim_listA>",,html-keyboard-response,55,264245,0.0-13.0-1.6,3987,List1A,black,woman,,,,null,,,,
null,is arguing with,,html-keyboard-response,56,266246,0.0-13.0-2.6,3987,List1A,black,woman,,,,null,,,,
6925,,,survey-text,57,273173,0.0-13.0-3.6,3987,List1A,black,woman,,,,,"{""Q0"":""dave is arguing with ruth""}","<img src=""stim_listA/argue3.gif""</stim_listA>",is arguing with,
null,"<div style=""font-size:60px;"">+</div>",,html-keyboard-response,58,273675,0.0-13.0-0.7,3987,List1A,black,woman,,,,null,,,,
null,"<img src=""stim_listA/touch7.gif""</stim_listA>",,html-keyboard-response,59,275677,0.0-13.0-1.7,3987,List1A,black,woman,,,,null,,,,
null,is touching,,html-keyboard-response,60,277678,0.0-13.0-2.7,3987,List1A,black,woman,,,,null,,,,
6821,,,survey-text,61,284501,0.0-13.0-3.7,3987,List1A,black,woman,,,,,"{""Q0"":""kate is touching jane""}","<img src=""stim_listA/touch7.gif""</stim_listA>",is touching,
null,"<div style=""font-size:60px;"">+</div>",,html-keyboard-response,62,285002,0.0-13.0-0.8,3987,List1A,black,woman,,,,null,,,,
null,"<img src=""stim_listA/dance1.gif""</stim_listA>",,html-keyboard-response,63,287008,0.0-13.0-1.8,3987,List1A,black,woman,,,,null,,,,
null,is dancing with,,html-keyboard-response,64,289009,0.0-13.0-2.8,3987,List1A,black,woman,,,,null,,,,
6234,,,survey-text,65,295245,0.0-13.0-3.8,3987,List1A,black,woman,,,,,"{""Q0"":""fred is dancing with kate""}","<img src=""stim_listA/dance1.gif""</stim_listA>",is dancing with,
null,"<div style=""font-size:60px;"">+</div>",,html-keyboard-response,66,295750,0.0-13.0-0.9,3987,List1A,black,woman,,,,null,,,,
null,"<img src=""stim_listA/marry1.gif""</stim_listA>",,html-keyboard-response,67,297753,0.0-13.0-1.9,3987,List1A,black,woman,,,,null,,,,
null,is marrying,,html-keyboard-response,68,299755,0.0-13.0-2.9,3987,List1A,black,woman,,,,null,,,,
6189,,,survey-text,69,305944,0.0-13.0-3.9,3987,List1A,black,woman,,,,,"{""Q0"":""mike is marrying beth""}","<img src=""stim_listA/marry1.gif""</stim_listA>",is marrying,
null,"<div style=""font-size:60px;"">+</div>",,html-keyboard-response,70,306447,0.0-13.0-0.10,3987,List1A,black,woman,,,,null,,,,
null,"<img src=""stim_listA/kiss3.gif""</stim_listA>",,html-keyboard-response,71,308448,0.0-13.0-1.10,3987,List1A,black,woman,,,,null,,,,
null,is kissing,,html-keyboard-response,72,310450,0.0-13.0-2.10,3987,List1A,black,woman,,,,null,,,,
6310,,,survey-text,73,316762,0.0-13.0-3.10,3987,List1A,black,woman,,,,,"{""Q0"":""luke is kissing ruth""}","<img src=""stim_listA/kiss3.gif""</stim_listA>",is kissing,
null,"<div style=""font-size:60px;"">+</div>",,html-keyboard-response,74,317264,0.0-13.0-0.11,3987,List1A,black,woman,,,,null,,,,
null,"<img src=""stim_listA/touch1.gif""</stim_listA>",,html-keyboard-response,75,319270,0.0-13.0-1.11,3987,List1A,black,woman,,,,null,,,,
null,is touching,,html-keyboard-response,76,321272,0.0-13.0-2.11,3987,List1A,black,woman,,,,null,,,,
5373,,,survey-text,77,326647,0.0-13.0-3.11,3987,List1A,black,woman,,,,,"{""Q0"":""mike is touching kate""}","<img src=""stim_listA/touch1.gif""</stim_listA>",is touching,
null,"<div style=""font-size:60px;"">+</div>",,html-keyboard-response,78,327149,0.0-13.0-0.12,3987,List1A,black,woman,,,,null,,,,
null,"<img src=""stim_listA/touch2.gif""</stim_listA>",,html-keyboard-response,79,329151,0.0-13.0-1.12,3987,List1A,black,woman,,,,null,,,,
null,are touching each other,,html-keyboard-response,80,331153,0.0-13.0-2.12,3987,List1A,black,woman,,,,null,,,,
9370,,,survey-text,81,340524,0.0-13.0-3.12,3987,List1A,black,woman,,,,,"{""Q0"":""fred and beth are touching each other""}","<img src=""stim_listA/touch2.gif""</stim_listA>",are touching each other,
null,"<div style=""font-size:60px;"">+</div>",,html-keyboard-response,82,341025,0.0-13.0-0.13,3987,List1A,black,woman,,,,null,,,,
null,"<img src=""stim_listA/hug3.gif""</stim_listA>",,html-keyboard-response,83,343027,0.0-13.0-1.13,3987,List1A,black,woman,,,,null,,,,
null,is hugging,,html-keyboard-response,84,345029,0.0-13.0-2.13,3987,List1A,black,woman,,,,null,,,,
6936,,,survey-text,85,351966,0.0-13.0-3.13,3987,List1A,black,woman,,,,,"{""Q0"":""luke is hugging ruth""}","<img src=""stim_listA/hug3.gif""</stim_listA>",is hugging,
null,"<div style=""font-size:60px;"">+</div>",,html-keyboard-response,86,352469,0.0-13.0-0.14,3987,List1A,black,woman,,,,null,,,,
null,"<img src=""stim_listA/hug4.gif""</stim_listA>",,html-keyboard-response,87,354473,0.0-13.0-1.14,3987,List1A,black,woman,,,,null,,,,
null,are hugging each other,,html-keyboard-response,88,356476,0.0-13.0-2.14,3987,List1A,black,woman,,,,null,,,,
10347,,,survey-text,89,366824,0.0-13.0-3.14,3987,List1A,black,woman,,,,,"{""Q0"":""jane and dave are hugging each other""}","<img src=""stim_listA/hug4.gif""</stim_listA>",are hugging each other,
null,"<div style=""font-size:60px;"">+</div>",,html-keyboard-response,90,367326,0.0-13.0-0.15,3987,List1A,black,woman,,,,null,,,,
null,"<img src=""stim_listA/talk6.gif""</stim_listA>",,html-keyboard-response,91,369328,0.0-13.0-1.15,3987,List1A,black,woman,,,,null,,,,
null,are talking to each other,,html-keyboard-response,92,371330,0.0-13.0-2.15,3987,List1A,black,woman,,,,null,,,,
10171,,,survey-text,93,381501,0.0-13.0-3.15,3987,List1A,black,woman,,,,,"{""Q0"":""luke and mike are talking to each other""}","<img src=""stim_listA/talk6.gif""</stim_listA>",are talking to each other,
null,"<div style=""font-size:60px;"">+</div>",,html-keyboard-response,94,382003,0.0-13.0-0.16,3987,List1A,black,woman,,,,null,,,,
null,"<img src=""stim_listA/fight3.gif""</stim_listA>",,html-keyboard-response,95,384005,0.0-13.0-1.16,3987,List1A,black,woman,,,,null,,,,
null,is fighting,,html-keyboard-response,96,386007,0.0-13.0-2.16,3987,List1A,black,woman,,,,null,,,,
5142,,,survey-text,97,391151,0.0-13.0-3.16,3987,List1A,black,woman,,,,,"{""Q0"":""jane is fighting dave""}","<img src=""stim_listA/fight3.gif""</stim_listA>",is fighting,
null,"<div style=""font-size:60px;"">+</div>",,html-keyboard-response,98,391653,0.0-13.0-0.17,3987,List1A,black,woman,,,,null,,,,
null,"<img src=""stim_listA/argue8.gif""</stim_listA>",,html-keyboard-response,99,393655,0.0-13.0-1.17,3987,List1A,black,woman,,,,null,,,,
null,are arguing with each other,,html-keyboard-response,100,395657,0.0-13.0-2.17,3987,List1A,black,woman,,,,null,,,,
8958,,,survey-text,101,404617,0.0-13.0-3.17,3987,List1A,black,woman,,,,,"{""Q0"":""jane and beth are arguing""}","<img src=""stim_listA/argue8.gif""</stim_listA>",are arguing with each other,
null,"<div style=""font-size:60px;"">+</div>",,html-keyboard-response,102,405119,0.0-13.0-0.18,3987,List1A,black,woman,,,,null,,,,
null,"<img src=""stim_listA/argue5.gif""</stim_listA>",,html-keyboard-response,103,407123,0.0-13.0-1.18,3987,List1A,black,woman,,,,null,,,,
null,is arguing with,,html-keyboard-response,104,409124,0.0-13.0-2.18,3987,List1A,black,woman,,,,null,,,,
6382,,,survey-text,105,415508,0.0-13.0-3.18,3987,List1A,black,woman,,,,,"{""Q0"":""mike is arguing with luke""}","<img src=""stim_listA/argue5.gif""</stim_listA>",is arguing with,
null,"<div style=""font-size:60px;"">+</div>",,html-keyboard-response,106,416011,0.0-13.0-0.19,3987,List1A,black,woman,,,,null,,,,
null,"<img src=""stim_listA/argue6.gif""</stim_listA>",,html-keyboard-response,107,418013,0.0-13.0-1.19,3987,List1A,black,woman,,,,null,,,,
null,are arguing with each other,,html-keyboard-response,108,420014,0.0-13.0-2.19,3987,List1A,black,woman,,,,null,,,,
3949,,,survey-text,109,423965,0.0-13.0-3.19,3987,List1A,black,woman,,,,,"{""Q0"":""dave and fred""}","<img src=""stim_listA/argue6.gif""</stim_listA>",are arguing with each other,
11843,"<img src='img/portrait_matrix_list1.JPG' style='width:900px;height:500px;''></img><p>If you have memorised all the portraits and names and are ready to start, press Continue.</p><p><strong>Please note: Your memory of these faces will be tested 4 times during this experiment.</strong></p>",0,html-button-response,110,435810,0.0-14.0-0.0,3987,List1A,black,woman,,,,,,,,
1655,"<img src=""portrait/BM2.jpg""style=""width:400px;height:400px;""></img>",5,html-button-response,111,438467,0.0-14.0-1.0,3987,List1A,black,woman,,TRUE,5,,,,,
null,CORRECT,,html-keyboard-response,112,439974,0.0-14.0-2.0-0.0,3987,List1A,black,woman,,,,null,,,,
3987,"<img src=""portrait/WW1.jpg""style=""width:400px;height:400px;""></img>",1,html-button-response,113,443963,0.0-14.0-4.0,3987,List1A,black,woman,,TRUE,1,,,,,
null,CORRECT,,html-keyboard-response,114,445465,0.0-14.0-5.0-0.0,3987,List1A,black,woman,,,,null,,,,
4723,"<img src=""portrait/BW1.jpg""style=""width:400px;height:400px;""></img>",0,html-button-response,115,450190,0.0-14.0-7.0,3987,List1A,black,woman,,TRUE,0,,,,,
null,CORRECT,,html-keyboard-response,116,451696,0.0-14.0-8.0-0.0,3987,List1A,black,woman,,,,null,,,,
1548,"<img src=""portrait/WM2.jpg""style=""width:400px;height:400px;""></img>",7,html-button-response,117,453246,0.0-14.0-10.0,3987,List1A,black,woman,,TRUE,7,,,,,
null,CORRECT,,html-keyboard-response,118,454749,0.0-14.0-11.0-0.0,3987,List1A,black,woman,,,,null,,,,
2032,"<img src=""portrait/WW2.jpg""style=""width:400px;height:400px;""></img>",3,html-button-response,119,456783,0.0-14.0-13.0,3987,List1A,black,woman,,TRUE,3,,,,,
null,CORRECT,,html-keyboard-response,120,458285,0.0-14.0-14.0-0.0,3987,List1A,black,woman,,,,null,,,,
1513,"<img src=""portrait/BW2.jpg""style=""width:400px;height:400px;""></img>",2,html-button-response,121,459800,0.0-14.0-16.0,3987,List1A,black,woman,,TRUE,2,,,,,
null,CORRECT,,html-keyboard-response,122,461303,0.0-14.0-17.0-0.0,3987,List1A,black,woman,,,,null,,,,
1622,"<img src=""portrait/BM1.jpg""style=""width:400px;height:400px;""></img>",4,html-button-response,123,462928,0.0-14.0-19.0,3987,List1A,black,woman,,TRUE,4,,,,,
null,CORRECT,,html-keyboard-response,124,464431,0.0-14.0-20.0-0.0,3987,List1A,black,woman,,,,null,,,,
1478,"<img src=""portrait/WM1.jpg""style=""width:400px;height:400px;""></img>",6,html-button-response,125,465911,0.0-14.0-22.0,3987,List1A,black,woman,,TRUE,6,,,,,
null,CORRECT,,html-keyboard-response,126,467415,0.0-14.0-23.0-0.0,3987,List1A,black,woman,,,,null,,,,
960,<p>You got 8 out of 8 right first time. Press Continue.</p>,0,html-button-response,127,468377,0.0-14.0-25.0,3987,List1A,black,woman,,,,,,,,
null,"<div style=""font-size:60px;"">+</div>",,html-keyboard-response,128,469885,0.0-15.0-0.0,3987,List1A,black,woman,,,,null,,,,
null,"<img src=""stim_listA/meet6.gif""</stim_listA>",,html-keyboard-response,129,471888,0.0-15.0-1.0,3987,List1A,black,woman,,,,null,,,,
null,are meeting each other,,html-keyboard-response,130,473889,0.0-15.0-2.0,3987,List1A,black,woman,,,,null,,,,
5861,,,survey-text,131,479751,0.0-15.0-3.0,3987,List1A,black,woman,,,,,"{""Q0"":""luke and fred""}","<img src=""stim_listA/meet6.gif""</stim_listA>",are meeting each other,
null,"<div style=""font-size:60px;"">+</div>",,html-keyboard-response,132,480253,0.0-15.0-0.1,3987,List1A,black,woman,,,,null,,,,
null,"<img src=""stim_listA/fight7.gif""</stim_listA>",,html-keyboard-response,133,482255,0.0-15.0-1.1,3987,List1A,black,woman,,,,null,,,,
null,is fighting,,html-keyboard-response,134,484256,0.0-15.0-2.1,3987,List1A,black,woman,,,,null,,,,
4216,,,survey-text,135,488474,0.0-15.0-3.1,3987,List1A,black,woman,,,,,"{""Q0"":""jane kate""}","<img src=""stim_listA/fight7.gif""</stim_listA>",is fighting,
null,"<div style=""font-size:60px;"">+</div>",,html-keyboard-response,136,488976,0.0-15.0-0.2,3987,List1A,black,woman,,,,null,,,,
null,"<img src=""stim_listA/kiss5.gif""</stim_listA>",,html-keyboard-response,137,490979,0.0-15.0-1.2,3987,List1A,black,woman,,,,null,,,,
null,is kissing,,html-keyboard-response,138,492979,0.0-15.0-2.2,3987,List1A,black,woman,,,,null,,,,
4931,,,survey-text,139,497912,0.0-15.0-3.2,3987,List1A,black,woman,,,,,"{""Q0"":""fred luke""}","<img src=""stim_listA/kiss5.gif""</stim_listA>",is kissing,
null,"<div style=""font-size:60px;"">+</div>",,html-keyboard-response,140,498414,0.0-15.0-0.3,3987,List1A,black,woman,,,,null,,,,
null,"<img src=""stim_listA/shout5.gif""</stim_listA>",,html-keyboard-response,141,500417,0.0-15.0-1.3,3987,List1A,black,woman,,,,null,,,,
null,is shouting at,,html-keyboard-response,142,502418,0.0-15.0-2.3,3987,List1A,black,woman,,,,null,,,,
5944,,,survey-text,143,508363,0.0-15.0-3.3,3987,List1A,black,woman,,,,,"{""Q0"":""fred is shouting at dave""}","<img src=""stim_listA/shout5.gif""</stim_listA>",is shouting at,
null,"<div style=""font-size:60px;"">+</div>",,html-keyboard-response,144,508868,0.0-15.0-0.4,3987,List1A,black,woman,,,,null,,,,
null,"<img src=""stim_listA/argue2.gif""</stim_listA>",,html-keyboard-response,145,510871,0.0-15.0-1.4,3987,List1A,black,woman,,,,null,,,,
null,are arguing with each other,,html-keyboard-response,146,512872,0.0-15.0-2.4,3987,List1A,black,woman,,,,null,,,,
4551,,,survey-text,147,517424,0.0-15.0-3.4,3987,List1A,black,woman,,,,,"{""Q0"":""fred and kate""}","<img src=""stim_listA/argue2.gif""</stim_listA>",are arguing with each other,
null,"<div style=""font-size:60px;"">+</div>",,html-keyboard-response,148,517926,0.0-15.0-0.5,3987,List1A,black,woman,,,,null,,,,
null,"<img src=""stim_listA/shout6.gif""</stim_listA>",,html-keyboard-response,149,519928,0.0-15.0-1.5,3987,List1A,black,woman,,,,null,,,,
null,are shouting at each other,,html-keyboard-response,150,521929,0.0-15.0-2.5,3987,List1A,black,woman,,,,null,,,,
3222,,,survey-text,151,525153,0.0-15.0-3.5,3987,List1A,black,woman,,,,,"{""Q0"":""dave and mike""}","<img src=""stim_listA/shout6.gif""</stim_listA>",are shouting at each other,
null,"<div style=""font-size:60px;"">+</div>",,html-keyboard-response,152,525655,0.0-15.0-0.6,3987,List1A,black,woman,,,,null,,,,
null,"<img src=""stim_listA/meet1.gif""</stim_listA>",,html-keyboard-response,153,527659,0.0-15.0-1.6,3987,List1A,black,woman,,,,null,,,,
null,is meeting,,html-keyboard-response,154,529660,0.0-15.0-2.6,3987,List1A,black,woman,,,,null,,,,
4291,,,survey-text,155,533952,0.0-15.0-3.6,3987,List1A,black,woman,,,,,"{""Q0"":""mike is meeting kate""}","<img src=""stim_listA/meet1.gif""</stim_listA>",is meeting,
null,"<div style=""font-size:60px;"">+</div>",,html-keyboard-response,156,534455,0.0-15.0-0.7,3987,List1A,black,woman,,,,null,,,,
null,"<img src=""stim_listA/dance8.gif""</stim_listA>",,html-keyboard-response,157,536458,0.0-15.0-1.7,3987,List1A,black,woman,,,,null,,,,
null,are dancing with each other,,html-keyboard-response,158,538462,0.0-15.0-2.7,3987,List1A,black,woman,,,,null,,,,
5086,,,survey-text,159,543550,0.0-15.0-3.7,3987,List1A,black,woman,,,,,"{""Q0"":""kate and ruth""}","<img src=""stim_listA/dance8.gif""</stim_listA>",are dancing with each other,
null,"<div style=""font-size:60px;"">+</div>",,html-keyboard-response,160,544052,0.0-15.0-0.8,3987,List1A,black,woman,,,,null,,,,
null,"<img src=""stim_listA/talk2.gif""</stim_listA>",,html-keyboard-response,161,546054,0.0-15.0-1.8,3987,List1A,black,woman,,,,null,,,,
null,are talking to each other,,html-keyboard-response,162,548056,0.0-15.0-2.8,3987,List1A,black,woman,,,,null,,,,
3889,,,survey-text,163,551945,0.0-15.0-3.8,3987,List1A,black,woman,,,,,"{""Q0"":""kate and mike""}","<img src=""stim_listA/talk2.gif""</stim_listA>",are talking to each other,
null,"<div style=""font-size:60px;"">+</div>",,html-keyboard-response,164,552447,0.0-15.0-0.9,3987,List1A,black,woman,,,,null,,,,
null,"<img src=""stim_listA/kiss1.gif""</stim_listA>",,html-keyboard-response,165,554449,0.0-15.0-1.9,3987,List1A,black,woman,,,,null,,,,
null,is kissing,,html-keyboard-response,166,556450,0.0-15.0-2.9,3987,List1A,black,woman,,,,null,,,,
5216,,,survey-text,167,561668,0.0-15.0-3.9,3987,List1A,black,woman,,,,,"{""Q0"":""kate is kissing fred""}","<img src=""stim_listA/kiss1.gif""</stim_listA>",is kissing,
null,"<div style=""font-size:60px;"">+</div>",,html-keyboard-response,168,562170,0.0-15.0-0.10,3987,List1A,black,woman,,,,null,,,,
null,"<img src=""stim_listA/argue1.gif""</stim_listA>",,html-keyboard-response,169,564174,0.0-15.0-1.10,3987,List1A,black,woman,,,,null,,,,
null,is arguing with,,html-keyboard-response,170,566176,0.0-15.0-2.10,3987,List1A,black,woman,,,,null,,,,
7208,,,survey-text,171,573386,0.0-15.0-3.10,3987,List1A,black,woman,,,,,"{""Q0"":""mike is arguing with beth""}","<img src=""stim_listA/argue1.gif""</stim_listA>",is arguing with,
null,"<div style=""font-size:60px;"">+</div>",,html-keyboard-response,172,573887,0.0-15.0-0.11,3987,List1A,black,woman,,,,null,,,,
null,"<img src=""stim_listA/argue7.gif""</stim_listA>",,html-keyboard-response,173,575890,0.0-15.0-1.11,3987,List1A,black,woman,,,,null,,,,
null,is arguing with,,html-keyboard-response,174,577890,0.0-15.0-2.11,3987,List1A,black,woman,,,,null,,,,
5268,,,survey-text,175,583160,0.0-15.0-3.11,3987,List1A,black,woman,,,,,"{""Q0"":""kate is arguing with ruth""}","<img src=""stim_listA/argue7.gif""</stim_listA>",is arguing with,
null,"<div style=""font-size:60px;"">+</div>",,html-keyboard-response,176,583662,0.0-15.0-0.12,3987,List1A,black,woman,,,,null,,,,
null,"<img src=""stim_listA/meet2.gif""</stim_listA>",,html-keyboard-response,177,585664,0.0-15.0-1.12,3987,List1A,black,woman,,,,null,,,,
null,are meeting each other,,html-keyboard-response,178,587669,0.0-15.0-2.12,3987,List1A,black,woman,,,,null,,,,
4801,,,survey-text,179,592471,0.0-15.0-3.12,3987,List1A,black,woman,,,,,"{""Q0"":""fred and kate""}","<img src=""stim_listA/meet2.gif""</stim_listA>",are meeting each other,
null,"<div style=""font-size:60px;"">+</div>",,html-keyboard-response,180,592973,0.0-15.0-0.13,3987,List1A,black,woman,,,,null,,,,
null,"<img src=""stim_listA/marry5.gif""</stim_listA>",,html-keyboard-response,181,594975,0.0-15.0-1.13,3987,List1A,black,woman,,,,null,,,,
null,is marrying,,html-keyboard-response,182,596989,0.0-15.0-2.13,3987,List1A,black,woman,,,,null,,,,
4091,,,survey-text,183,601082,0.0-15.0-3.13,3987,List1A,black,woman,,,,,"{""Q0"":""luke mike""}","<img src=""stim_listA/marry5.gif""</stim_listA>",is marrying,
null,"<div style=""font-size:60px;"">+</div>",,html-keyboard-response,184,601584,0.0-15.0-0.14,3987,List1A,black,woman,,,,null,,,,
null,"<img src=""stim_listA/touch5.gif""</stim_listA>",,html-keyboard-response,185,603587,0.0-15.0-1.14,3987,List1A,black,woman,,,,null,,,,
null,is touching,,html-keyboard-response,186,605588,0.0-15.0-2.14,3987,List1A,black,woman,,,,null,,,,
7698,,,survey-text,187,613287,0.0-15.0-3.14,3987,List1A,black,woman,,,,,"{""Q0"":""dave is touching mike""}","<img src=""stim_listA/touch5.gif""</stim_listA>",is touching,
null,"<div style=""font-size:60px;"">+</div>",,html-keyboard-response,188,613789,0.0-15.0-0.15,3987,List1A,black,woman,,,,null,,,,
null,"<img src=""stim_listA/fight6.gif""</stim_listA>",,html-keyboard-response,189,615791,0.0-15.0-1.15,3987,List1A,black,woman,,,,null,,,,
null,are fighting each other,,html-keyboard-response,190,617793,0.0-15.0-2.15,3987,List1A,black,woman,,,,null,,,,
3422,,,survey-text,191,621218,0.0-15.0-3.15,3987,List1A,black,woman,,,,,"{""Q0"":""fred and luke""}","<img src=""stim_listA/fight6.gif""</stim_listA>",are fighting each other,
null,"<div style=""font-size:60px;"">+</div>",,html-keyboard-response,192,621721,0.0-15.0-0.16,3987,List1A,black,woman,,,,null,,,,
null,"<img src=""stim_listA/kiss6.gif""</stim_listA>",,html-keyboard-response,193,623723,0.0-15.0-1.16,3987,List1A,black,woman,,,,null,,,,
null,are kissing each other,,html-keyboard-response,194,625725,0.0-15.0-2.16,3987,List1A,black,woman,,,,null,,,,
4260,,,survey-text,195,629986,0.0-15.0-3.16,3987,List1A,black,woman,,,,,"{""Q0"":""dave and mike""}","<img src=""stim_listA/kiss6.gif""</stim_listA>",are kissing each other,
null,"<div style=""font-size:60px;"">+</div>",,html-keyboard-response,196,630489,0.0-15.0-0.17,3987,List1A,black,woman,,,,null,,,,
null,"<img src=""stim_listA/marry2.gif""</stim_listA>",,html-keyboard-response,197,632491,0.0-15.0-1.17,3987,List1A,black,woman,,,,null,,,,
null,are marrying each other,,html-keyboard-response,198,634493,0.0-15.0-2.17,3987,List1A,black,woman,,,,null,,,,
4866,,,survey-text,199,639360,0.0-15.0-3.17,3987,List1A,black,woman,,,,,"{""Q0"":""fred and kate""}","<img src=""stim_listA/marry2.gif""</stim_listA>",are marrying each other,
null,"<div style=""font-size:60px;"">+</div>",,html-keyboard-response,200,639892,0.0-15.0-0.18,3987,List1A,black,woman,,,,null,,,,
null,"<img src=""stim_listA/dance7.gif""</stim_listA>",,html-keyboard-response,201,641894,0.0-15.0-1.18,3987,List1A,black,woman,,,,null,,,,
null,is dancing with,,html-keyboard-response,202,643906,0.0-15.0-2.18,3987,List1A,black,woman,,,,null,,,,
5479,,,survey-text,203,649387,0.0-15.0-3.18,3987,List1A,black,woman,,,,,"{""Q0"":""beth is dancing with jane""}","<img src=""stim_listA/dance7.gif""</stim_listA>",is dancing with,
null,"<div style=""font-size:60px;"">+</div>",,html-keyboard-response,204,649890,0.0-15.0-0.19,3987,List1A,black,woman,,,,null,,,,
null,"<img src=""stim_listA/talk5.gif""</stim_listA>",,html-keyboard-response,205,651892,0.0-15.0-1.19,3987,List1A,black,woman,,,,null,,,,
null,is talking to,,html-keyboard-response,206,653894,0.0-15.0-2.19,3987,List1A,black,woman,,,,null,,,,
6646,,,survey-text,207,660540,0.0-15.0-3.19,3987,List1A,black,woman,,,,,"{""Q0"":""dave is talking to fred""}","<img src=""stim_listA/talk5.gif""</stim_listA>",is talking to,
2839,"<img src='img/portrait_matrix_list1.JPG' style='width:900px;height:500px;''></img><p>If you have memorised all the portraits and names and are ready to start, press Continue.</p><p><strong>Please note: Your memory of these faces will be tested 4 times during this experiment.</strong></p>",0,html-button-response,208,663381,0.0-16.0-0.0,3987,List1A,black,woman,,,,,,,,
1708,"<img src=""portrait/BM2.jpg""style=""width:400px;height:400px;""></img>",5,html-button-response,209,666093,0.0-16.0-1.0,3987,List1A,black,woman,,TRUE,5,,,,,
null,CORRECT,,html-keyboard-response,210,667596,0.0-16.0-2.0-0.0,3987,List1A,black,woman,,,,null,,,,
2231,"<img src=""portrait/WW2.jpg""style=""width:400px;height:400px;""></img>",3,html-button-response,211,669829,0.0-16.0-4.0,3987,List1A,black,woman,,TRUE,3,,,,,
null,CORRECT,,html-keyboard-response,212,671332,0.0-16.0-5.0-0.0,3987,List1A,black,woman,,,,null,,,,
1464,"<img src=""portrait/WM2.jpg""style=""width:400px;height:400px;""></img>",7,html-button-response,213,672798,0.0-16.0-7.0,3987,List1A,black,woman,,TRUE,7,,,,,
null,CORRECT,,html-keyboard-response,214,674303,0.0-16.0-8.0-0.0,3987,List1A,black,woman,,,,null,,,,
1676,"<img src=""portrait/BW1.jpg""style=""width:400px;height:400px;""></img>",0,html-button-response,215,675981,0.0-16.0-10.0,3987,List1A,black,woman,,TRUE,0,,,,,
null,CORRECT,,html-keyboard-response,216,677483,0.0-16.0-11.0-0.0,3987,List1A,black,woman,,,,null,,,,
1681,"<img src=""portrait/WM1.jpg""style=""width:400px;height:400px;""></img>",6,html-button-response,217,679166,0.0-16.0-13.0,3987,List1A,black,woman,,TRUE,6,,,,,
null,CORRECT,,html-keyboard-response,218,680669,0.0-16.0-14.0-0.0,3987,List1A,black,woman,,,,null,,,,
1703,"<img src=""portrait/BM1.jpg""style=""width:400px;height:400px;""></img>",4,html-button-response,219,682374,0.0-16.0-16.0,3987,List1A,black,woman,,TRUE,4,,,,,
null,CORRECT,,html-keyboard-response,220,683876,0.0-16.0-17.0-0.0,3987,List1A,black,woman,,,,null,,,,
2545,"<img src=""portrait/WW1.jpg""style=""width:400px;height:400px;""></img>",1,html-button-response,221,686425,0.0-16.0-19.0,3987,List1A,black,woman,,TRUE,1,,,,,
null,CORRECT,,html-keyboard-response,222,687927,0.0-16.0-20.0-0.0,3987,List1A,black,woman,,,,null,,,,
998,"<img src=""portrait/BW2.jpg""style=""width:400px;height:400px;""></img>",2,html-button-response,223,688929,0.0-16.0-22.0,3987,List1A,black,woman,,TRUE,2,,,,,
null,CORRECT,,html-keyboard-response,224,690431,0.0-16.0-23.0-0.0,3987,List1A,black,woman,,,,null,,,,
1144,<p>You got 8 out of 8 right first time. Press Continue.</p>,0,html-button-response,225,691576,0.0-16.0-25.0,3987,List1A,black,woman,,,,,,,,
null,"<div style=""font-size:60px;"">+</div>",,html-keyboard-response,226,693095,0.0-17.0-0.0,3987,List1A,black,woman,,,,null,,,,
null,"<img src=""stim_listA/kiss8.gif""</stim_listA>",,html-keyboard-response,227,695098,0.0-17.0-1.0,3987,List1A,black,woman,,,,null,,,,
null,are kissing each other,,html-keyboard-response,228,697101,0.0-17.0-2.0,3987,List1A,black,woman,,,,null,,,,
6853,,,survey-text,229,703955,0.0-17.0-3.0,3987,List1A,black,woman,,,,,"{""Q0"":""jane and kate""}","<img src=""stim_listA/kiss8.gif""</stim_listA>",are kissing each other,
null,"<div style=""font-size:60px;"">+</div>",,html-keyboard-response,230,704458,0.0-17.0-0.1,3987,List1A,black,woman,,,,null,,,,
null,"<img src=""stim_listA/meet8.gif""</stim_listA>",,html-keyboard-response,231,706460,0.0-17.0-1.1,3987,List1A,black,woman,,,,null,,,,
null,are meeting each other,,html-keyboard-response,232,708464,0.0-17.0-2.1,3987,List1A,black,woman,,,,null,,,,
4287,,,survey-text,233,712752,0.0-17.0-3.1,3987,List1A,black,woman,,,,,"{""Q0"":""beth and ruth""}","<img src=""stim_listA/meet8.gif""</stim_listA>",are meeting each other,
null,"<div style=""font-size:60px;"">+</div>",,html-keyboard-response,234,713254,0.0-17.0-0.2,3987,List1A,black,woman,,,,null,,,,
null,"<img src=""stim_listA/hug1.gif""</stim_listA>",,html-keyboard-response,235,715256,0.0-17.0-1.2,3987,List1A,black,woman,,,,null,,,,
null,is hugging,,html-keyboard-response,236,717258,0.0-17.0-2.2,3987,List1A,black,woman,,,,null,,,,
8541,,,survey-text,237,725801,0.0-17.0-3.2,3987,List1A,black,woman,,,,,"{""Q0"":""fred is hugging beth""}","<img src=""stim_listA/hug1.gif""</stim_listA>",is hugging,
null,"<div style=""font-size:60px;"">+</div>",,html-keyboard-response,238,726302,0.0-17.0-0.3,3987,List1A,black,woman,,,,null,,,,
null,"<img src=""stim_listA/talk4.gif""</stim_listA>",,html-keyboard-response,239,728305,0.0-17.0-1.3,3987,List1A,black,woman,,,,null,,,,
null,are talking to each other,,html-keyboard-response,240,730306,0.0-17.0-2.3,3987,List1A,black,woman,,,,null,,,,
3574,,,survey-text,241,733882,0.0-17.0-3.3,3987,List1A,black,woman,,,,,"{""Q0"":""dave and ruth""}","<img src=""stim_listA/talk4.gif""</stim_listA>",are talking to each other,
null,"<div style=""font-size:60px;"">+</div>",,html-keyboard-response,242,734384,0.0-17.0-0.4,3987,List1A,black,woman,,,,null,,,,
null,"<img src=""stim_listA/touch6.gif""</stim_listA>",,html-keyboard-response,243,736386,0.0-17.0-1.4,3987,List1A,black,woman,,,,null,,,,
null,are touching each other,,html-keyboard-response,244,738388,0.0-17.0-2.4,3987,List1A,black,woman,,,,null,,,,
4803,,,survey-text,245,743193,0.0-17.0-3.4,3987,List1A,black,woman,,,,,"{""Q0"":""luke and fred""}","<img src=""stim_listA/touch6.gif""</stim_listA>",are touching each other,
null,"<div style=""font-size:60px;"">+</div>",,html-keyboard-response,246,743695,0.0-17.0-0.5,3987,List1A,black,woman,,,,null,,,,
null,"<img src=""stim_listA/hug2.gif""</stim_listA>",,html-keyboard-response,247,745697,0.0-17.0-1.5,3987,List1A,black,woman,,,,null,,,,
null,are hugging each other,,html-keyboard-response,248,747698,0.0-17.0-2.5,3987,List1A,black,woman,,,,null,,,,
5266,,,survey-text,249,752966,0.0-17.0-3.5,3987,List1A,black,woman,,,,,"{""Q0"":""dave and kate""}","<img src=""stim_listA/hug2.gif""</stim_listA>",are hugging each other,
null,"<div style=""font-size:60px;"">+</div>",,html-keyboard-response,250,753472,0.0-17.0-0.6,3987,List1A,black,woman,,,,null,,,,
null,"<img src=""stim_listA/dance6.gif""</stim_listA>",,html-keyboard-response,251,755475,0.0-17.0-1.6,3987,List1A,black,woman,,,,null,,,,
null,are dancing with each other,,html-keyboard-response,252,757484,0.0-17.0-2.6,3987,List1A,black,woman,,,,null,,,,
5905,,,survey-text,253,763391,0.0-17.0-3.6,3987,List1A,black,woman,,,,,"{""Q0"":""luke and mike""}","<img src=""stim_listA/dance6.gif""</stim_listA>",are dancing with each other,
null,"<div style=""font-size:60px;"">+</div>",,html-keyboard-response,254,763893,0.0-17.0-0.7,3987,List1A,black,woman,,,,null,,,,
null,"<img src=""stim_listA/dance3.gif""</stim_listA>",,html-keyboard-response,255,765896,0.0-17.0-1.7,3987,List1A,black,woman,,,,null,,,,
null,is dancing with,,html-keyboard-response,256,767897,0.0-17.0-2.7,3987,List1A,black,woman,,,,null,,,,
6183,,,survey-text,257,774082,0.0-17.0-3.7,3987,List1A,black,woman,,,,,"{""Q0"":""jane is dancing with luke""}","<img src=""stim_listA/dance3.gif""</stim_listA>",is dancing with,
null,"<div style=""font-size:60px;"">+</div>",,html-keyboard-response,258,774583,0.0-17.0-0.8,3987,List1A,black,woman,,,,null,,,,
null,"<img src=""stim_listA/shout3.gif""</stim_listA>",,html-keyboard-response,259,776585,0.0-17.0-1.8,3987,List1A,black,woman,,,,null,,,,
null,is shouting at,,html-keyboard-response,260,778586,0.0-17.0-2.8,3987,List1A,black,woman,,,,null,,,,
7556,,,survey-text,261,786144,0.0-17.0-3.8,3987,List1A,black,woman,,,,,"{""Q0"":""ruth is shouting at luke""}","<img src=""stim_listA/shout3.gif""</stim_listA>",is shouting at,
null,"<div style=""font-size:60px;"">+</div>",,html-keyboard-response,262,786646,0.0-17.0-0.9,3987,List1A,black,woman,,,,null,,,,
null,"<img src=""stim_listA/fight5.gif""</stim_listA>",,html-keyboard-response,263,788649,0.0-17.0-1.9,3987,List1A,black,woman,,,,null,,,,
null,is fighting,,html-keyboard-response,264,790651,0.0-17.0-2.9,3987,List1A,black,woman,,,,null,,,,
7282,,,survey-text,265,797934,0.0-17.0-3.9,3987,List1A,black,woman,,,,,"{""Q0"":""mike is fighting dave""}","<img src=""stim_listA/fight5.gif""</stim_listA>",is fighting,
null,"<div style=""font-size:60px;"">+</div>",,html-keyboard-response,266,798436,0.0-17.0-0.10,3987,List1A,black,woman,,,,null,,,,
null,"<img src=""stim_listA/shout2.gif""</stim_listA>",,html-keyboard-response,267,800438,0.0-17.0-1.10,3987,List1A,black,woman,,,,null,,,,
null,are shouting at each other,,html-keyboard-response,268,802440,0.0-17.0-2.10,3987,List1A,black,woman,,,,null,,,,
12847,,,survey-text,269,815288,0.0-17.0-3.10,3987,List1A,black,woman,,,,,"{""Q0"":""mike and kate are shouting""}","<img src=""stim_listA/shout2.gif""</stim_listA>",are shouting at each other,
null,"<div style=""font-size:60px;"">+</div>",,html-keyboard-response,270,815789,0.0-17.0-0.11,3987,List1A,black,woman,,,,null,,,,
null,"<img src=""stim_listA/fight2.gif""</stim_listA>",,html-keyboard-response,271,817791,0.0-17.0-1.11,3987,List1A,black,woman,,,,null,,,,
null,are fighting each other,,html-keyboard-response,272,819792,0.0-17.0-2.11,3987,List1A,black,woman,,,,null,,,,
8368,,,survey-text,273,828162,0.0-17.0-3.11,3987,List1A,black,woman,,,,,"{""Q0"":""fred and beth""}","<img src=""stim_listA/fight2.gif""</stim_listA>",are fighting each other,
null,"<div style=""font-size:60px;"">+</div>",,html-keyboard-response,274,828663,0.0-17.0-0.12,3987,List1A,black,woman,,,,null,,,,
null,"<img src=""stim_listA/shout8.gif""</stim_listA>",,html-keyboard-response,275,830668,0.0-17.0-1.12,3987,List1A,black,woman,,,,null,,,,
null,are shouting at each other,,html-keyboard-response,276,832669,0.0-17.0-2.12,3987,List1A,black,woman,,,,null,,,,
3561,,,survey-text,277,836231,0.0-17.0-3.12,3987,List1A,black,woman,,,,,"{""Q0"":""jane and ruth""}","<img src=""stim_listA/shout8.gif""</stim_listA>",are shouting at each other,
null,"<div style=""font-size:60px;"">+</div>",,html-keyboard-response,278,836733,0.0-17.0-0.13,3987,List1A,black,woman,,,,null,,,,
null,"<img src=""stim_listA/fight4.gif""</stim_listA>",,html-keyboard-response,279,838738,0.0-17.0-1.13,3987,List1A,black,woman,,,,null,,,,
null,are fighting each other,,html-keyboard-response,280,840740,0.0-17.0-2.13,3987,List1A,black,woman,,,,null,,,,
4611,,,survey-text,281,845352,0.0-17.0-3.13,3987,List1A,black,woman,,,,,"{""Q0"":""luke and ruth""}","<img src=""stim_listA/fight4.gif""</stim_listA>",are fighting each other,
null,"<div style=""font-size:60px;"">+</div>",,html-keyboard-response,282,845854,0.0-17.0-0.14,3987,List1A,black,woman,,,,null,,,,
null,"<img src=""stim_listA/dance5.gif""</stim_listA>",,html-keyboard-response,283,847856,0.0-17.0-1.14,3987,List1A,black,woman,,,,null,,,,
null,is dancing with,,html-keyboard-response,284,849857,0.0-17.0-2.14,3987,List1A,black,woman,,,,null,,,,
6611,,,survey-text,285,856469,0.0-17.0-3.14,3987,List1A,black,woman,,,,,"{""Q0"":""fred is dancing with dave""}","<img src=""stim_listA/dance5.gif""</stim_listA>",is dancing with,
null,"<div style=""font-size:60px;"">+</div>",,html-keyboard-response,286,856973,0.0-17.0-0.15,3987,List1A,black,woman,,,,null,,,,
null,"<img src=""stim_listA/meet3.gif""</stim_listA>",,html-keyboard-response,287,858976,0.0-17.0-1.15,3987,List1A,black,woman,,,,null,,,,
null,is meeting,,html-keyboard-response,288,860977,0.0-17.0-2.15,3987,List1A,black,woman,,,,null,,,,
4875,,,survey-text,289,865853,0.0-17.0-3.15,3987,List1A,black,woman,,,,,"{""Q0"":""jane is meeting dave""}","<img src=""stim_listA/meet3.gif""</stim_listA>",is meeting,
null,"<div style=""font-size:60px;"">+</div>",,html-keyboard-response,290,866355,0.0-17.0-0.16,3987,List1A,black,woman,,,,null,,,,
null,"<img src=""stim_listA/kiss7.gif""</stim_listA>",,html-keyboard-response,291,868358,0.0-17.0-1.16,3987,List1A,black,woman,,,,null,,,,
null,is kissing,,html-keyboard-response,292,870359,0.0-17.0-2.16,3987,List1A,black,woman,,,,null,,,,
9898,,,survey-text,293,880260,0.0-17.0-3.16,3987,List1A,black,woman,,,,,"{""Q0"":""beth is kissing ruth""}","<img src=""stim_listA/kiss7.gif""</stim_listA>",is kissing,
null,"<div style=""font-size:60px;"">+</div>",,html-keyboard-response,294,880764,0.0-17.0-0.17,3987,List1A,black,woman,,,,null,,,,
null,"<img src=""stim_listA/kiss2.gif""</stim_listA>",,html-keyboard-response,295,882766,0.0-17.0-1.17,3987,List1A,black,woman,,,,null,,,,
null,are kissing each other,,html-keyboard-response,296,884767,0.0-17.0-2.17,3987,List1A,black,woman,,,,null,,,,
3483,,,survey-text,297,888251,0.0-17.0-3.17,3987,List1A,black,woman,,,,,"{""Q0"":""kate and mike""}","<img src=""stim_listA/kiss2.gif""</stim_listA>",are kissing each other,
null,"<div style=""font-size:60px;"">+</div>",,html-keyboard-response,298,888753,0.0-17.0-0.18,3987,List1A,black,woman,,,,null,,,,
null,"<img src=""stim_listA/dance4.gif""</stim_listA>",,html-keyboard-response,299,890757,0.0-17.0-1.18,3987,List1A,black,woman,,,,null,,,,
null,are dancing with each other,,html-keyboard-response,300,892759,0.0-17.0-2.18,3987,List1A,black,woman,,,,null,,,,
4667,,,survey-text,301,897428,0.0-17.0-3.18,3987,List1A,black,woman,,,,,"{""Q0"":""dave and ruth""}","<img src=""stim_listA/dance4.gif""</stim_listA>",are dancing with each other,
null,"<div style=""font-size:60px;"">+</div>",,html-keyboard-response,302,897929,0.0-17.0-0.19,3987,List1A,black,woman,,,,null,,,,
null,"<img src=""stim_listA/shout4.gif""</stim_listA>",,html-keyboard-response,303,899932,0.0-17.0-1.19,3987,List1A,black,woman,,,,null,,,,
null,are shouting at each other,,html-keyboard-response,304,901942,0.0-17.0-2.19,3987,List1A,black,woman,,,,null,,,,
4453,,,survey-text,305,906397,0.0-17.0-3.19,3987,List1A,black,woman,,,,,"{""Q0"":""jane and dave""}","<img src=""stim_listA/shout4.gif""</stim_listA>",are shouting at each other,
2272,"<img src='img/portrait_matrix_list1.JPG' style='width:900px;height:500px;''></img><p>If you have memorised all the portraits and names and are ready to start, press Continue.</p><p><strong>Please note: Your memory of these faces will be tested 4 times during this experiment.</strong></p>",0,html-button-response,306,908671,0.0-18.0-0.0,3987,List1A,black,woman,,,,,,,,
4719,"<img src=""portrait/WW1.jpg""style=""width:400px;height:400px;""></img>",1,html-button-response,307,914393,0.0-18.0-1.0,3987,List1A,black,woman,,TRUE,1,,,,,
null,CORRECT,,html-keyboard-response,308,915895,0.0-18.0-2.0-0.0,3987,List1A,black,woman,,,,null,,,,
1509,"<img src=""portrait/BW1.jpg""style=""width:400px;height:400px;""></img>",0,html-button-response,309,917407,0.0-18.0-4.0,3987,List1A,black,woman,,TRUE,0,,,,,
null,CORRECT,,html-keyboard-response,310,918912,0.0-18.0-5.0-0.0,3987,List1A,black,woman,,,,null,,,,
1261,"<img src=""portrait/BW2.jpg""style=""width:400px;height:400px;""></img>",2,html-button-response,311,920176,0.0-18.0-7.0,3987,List1A,black,woman,,TRUE,2,,,,,
null,CORRECT,,html-keyboard-response,312,921679,0.0-18.0-8.0-0.0,3987,List1A,black,woman,,,,null,,,,
1160,"<img src=""portrait/BM2.jpg""style=""width:400px;height:400px;""></img>",5,html-button-response,313,922841,0.0-18.0-10.0,3987,List1A,black,woman,,TRUE,5,,,,,
null,CORRECT,,html-keyboard-response,314,924343,0.0-18.0-11.0-0.0,3987,List1A,black,woman,,,,null,,,,
1239,"<img src=""portrait/WW2.jpg""style=""width:400px;height:400px;""></img>",3,html-button-response,315,925585,0.0-18.0-13.0,3987,List1A,black,woman,,TRUE,3,,,,,
null,CORRECT,,html-keyboard-response,316,927087,0.0-18.0-14.0-0.0,3987,List1A,black,woman,,,,null,,,,
1238,"<img src=""portrait/WM1.jpg""style=""width:400px;height:400px;""></img>",6,html-button-response,317,928327,0.0-18.0-16.0,3987,List1A,black,woman,,TRUE,6,,,,,
null,CORRECT,,html-keyboard-response,318,929829,0.0-18.0-17.0-0.0,3987,List1A,black,woman,,,,null,,,,
1009,"<img src=""portrait/BM1.jpg""style=""width:400px;height:400px;""></img>",4,html-button-response,319,930840,0.0-18.0-19.0,3987,List1A,black,woman,,TRUE,4,,,,,
null,CORRECT,,html-keyboard-response,320,932344,0.0-18.0-20.0-0.0,3987,List1A,black,woman,,,,null,,,,
878,"<img src=""portrait/WM2.jpg""style=""width:400px;height:400px;""></img>",7,html-button-response,321,933224,0.0-18.0-22.0,3987,List1A,black,woman,,TRUE,7,,,,,
null,CORRECT,,html-keyboard-response,322,934726,0.0-18.0-23.0-0.0,3987,List1A,black,woman,,,,null,,,,
1120,<p>You got 8 out of 8 right first time. Press Continue.</p>,0,html-button-response,323,935848,0.0-18.0-25.0,3987,List1A,black,woman,,,,,,,,
null,"<div style=""font-size:60px;"">+</div>",,html-keyboard-response,324,937350,0.0-19.0-0.0,3987,List1A,black,woman,,,,null,,,,
null,"<img src=""stim_listA/shout1.gif""</stim_listA>",,html-keyboard-response,325,939352,0.0-19.0-1.0,3987,List1A,black,woman,,,,null,,,,
null,is shouting at,,html-keyboard-response,326,941354,0.0-19.0-2.0,3987,List1A,black,woman,,,,null,,,,
11714,,,survey-text,327,953070,0.0-19.0-3.0,3987,List1A,black,woman,,,,,"{""Q0"":""fred is shouting at beth""}","<img src=""stim_listA/shout1.gif""</stim_listA>",is shouting at,
null,"<div style=""font-size:60px;"">+</div>",,html-keyboard-response,328,953572,0.0-19.0-0.1,3987,List1A,black,woman,,,,null,,,,
null,"<img src=""stim_listA/touch8.gif""</stim_listA>",,html-keyboard-response,329,955576,0.0-19.0-1.1,3987,List1A,black,woman,,,,null,,,,
null,are touching each other,,html-keyboard-response,330,957578,0.0-19.0-2.1,3987,List1A,black,woman,,,,null,,,,
10570,,,survey-text,331,968150,0.0-19.0-3.1,3987,List1A,black,woman,,,,,"{""Q0"":""beth and ruth are touching each other""}","<img src=""stim_listA/touch8.gif""</stim_listA>",are touching each other,
null,"<div style=""font-size:60px;"">+</div>",,html-keyboard-response,332,968652,0.0-19.0-0.2,3987,List1A,black,woman,,,,null,,,,
null,"<img src=""stim_listA/touch4.gif""</stim_listA>",,html-keyboard-response,333,970653,0.0-19.0-1.2,3987,List1A,black,woman,,,,null,,,,
null,are touching each other,,html-keyboard-response,334,972654,0.0-19.0-2.2,3987,List1A,black,woman,,,,null,,,,
8458,,,survey-text,335,981113,0.0-19.0-3.2,3987,List1A,black,woman,,,,,"{""Q0"":""ruth and luke are touching each other""}","<img src=""stim_listA/touch4.gif""</stim_listA>",are touching each other,
null,"<div style=""font-size:60px;"">+</div>",,html-keyboard-response,336,981616,0.0-19.0-0.3,3987,List1A,black,woman,,,,null,,,,
null,"<img src=""stim_listA/talk3.gif""</stim_listA>",,html-keyboard-response,337,983618,0.0-19.0-1.3,3987,List1A,black,woman,,,,null,,,,
null,is talking to,,html-keyboard-response,338,985620,0.0-19.0-2.3,3987,List1A,black,woman,,,,null,,,,
6606,,,survey-text,339,992227,0.0-19.0-3.3,3987,List1A,black,woman,,,,,"{""Q0"":""jane is talking to luke""}","<img src=""stim_listA/talk3.gif""</stim_listA>",is talking to,
null,"<div style=""font-size:60px;"">+</div>",,html-keyboard-response,340,992729,0.0-19.0-0.4,3987,List1A,black,woman,,,,null,,,,
null,"<img src=""stim_listA/marry6.gif""</stim_listA>",,html-keyboard-response,341,994731,0.0-19.0-1.4,3987,List1A,black,woman,,,,null,,,,
null,are marrying each other,,html-keyboard-response,342,996733,0.0-19.0-2.4,3987,List1A,black,woman,,,,null,,,,
6320,,,survey-text,343,1003055,0.0-19.0-3.4,3987,List1A,black,woman,,,,,"{""Q0"":""dave and fred""}","<img src=""stim_listA/marry6.gif""</stim_listA>",are marrying each other,
null,"<div style=""font-size:60px;"">+</div>",,html-keyboard-response,344,1003556,0.0-19.0-0.5,3987,List1A,black,woman,,,,null,,,,
null,"<img src=""stim_listA/talk1.gif""</stim_listA>",,html-keyboard-response,345,1005558,0.0-19.0-1.5,3987,List1A,black,woman,,,,null,,,,
null,is talking to,,html-keyboard-response,346,1007560,0.0-19.0-2.5,3987,List1A,black,woman,,,,null,,,,
7316,,,survey-text,347,1014878,0.0-19.0-3.5,3987,List1A,black,woman,,,,,"{""Q0"":""fred is talking to kate""}","<img src=""stim_listA/talk1.gif""</stim_listA>",is talking to,
null,"<div style=""font-size:60px;"">+</div>",,html-keyboard-response,348,1015380,0.0-19.0-0.6,3987,List1A,black,woman,,,,null,,,,
null,"<img src=""stim_listA/hug7.gif""</stim_listA>",,html-keyboard-response,349,1017382,0.0-19.0-1.6,3987,List1A,black,woman,,,,null,,,,
null,is hugging,,html-keyboard-response,350,1019384,0.0-19.0-2.6,3987,List1A,black,woman,,,,null,,,,
6834,,,survey-text,351,1026219,0.0-19.0-3.6,3987,List1A,black,woman,,,,,"{""Q0"":""ruth is hugging beth""}","<img src=""stim_listA/hug7.gif""</stim_listA>",is hugging,
null,"<div style=""font-size:60px;"">+</div>",,html-keyboard-response,352,1026721,0.0-19.0-0.7,3987,List1A,black,woman,,,,null,,,,
null,"<img src=""stim_listA/meet4.gif""</stim_listA>",,html-keyboard-response,353,1028723,0.0-19.0-1.7,3987,List1A,black,woman,,,,null,,,,
null,are meeting each other,,html-keyboard-response,354,1030724,0.0-19.0-2.7,3987,List1A,black,woman,,,,null,,,,
5755,,,survey-text,355,1036481,0.0-19.0-3.7,3987,List1A,black,woman,,,,,"{""Q0"":""ruth and luke""}","<img src=""stim_listA/meet4.gif""</stim_listA>",are meeting each other,
null,"<div style=""font-size:60px;"">+</div>",,html-keyboard-response,356,1036983,0.0-19.0-0.8,3987,List1A,black,woman,,,,null,,,,
null,"<img src=""stim_listA/meet7.gif""</stim_listA>",,html-keyboard-response,357,1038985,0.0-19.0-1.8,3987,List1A,black,woman,,,,null,,,,
null,is meeting,,html-keyboard-response,358,1040987,0.0-19.0-2.8,3987,List1A,black,woman,,,,null,,,,
4565,,,survey-text,359,1045553,0.0-19.0-3.8,3987,List1A,black,woman,,,,,"{""Q0"":""jane is meeting kate""}","<img src=""stim_listA/meet7.gif""</stim_listA>",is meeting,
null,"<div style=""font-size:60px;"">+</div>",,html-keyboard-response,360,1046055,0.0-19.0-0.9,3987,List1A,black,woman,,,,null,,,,
null,"<img src=""stim_listA/talk7.gif""</stim_listA>",,html-keyboard-response,361,1048058,0.0-19.0-1.9,3987,List1A,black,woman,,,,null,,,,
null,is talking to,,html-keyboard-response,362,1050059,0.0-19.0-2.9,3987,List1A,black,woman,,,,null,,,,
6669,,,survey-text,363,1056729,0.0-19.0-3.9,3987,List1A,black,woman,,,,,"{""Q0"":""jane is talking to beth""}","<img src=""stim_listA/talk7.gif""</stim_listA>",is talking to,
null,"<div style=""font-size:60px;"">+</div>",,html-keyboard-response,364,1057232,0.0-19.0-0.10,3987,List1A,black,woman,,,,null,,,,
null,"<img src=""stim_listA/hug5.gif""</stim_listA>",,html-keyboard-response,365,1059234,0.0-19.0-1.10,3987,List1A,black,woman,,,,null,,,,
null,is hugging,,html-keyboard-response,366,1061236,0.0-19.0-2.10,3987,List1A,black,woman,,,,null,,,,
8001,,,survey-text,367,1069239,0.0-19.0-3.10,3987,List1A,black,woman,,,,,"{""Q0"":""fred is hugging luke""}","<img src=""stim_listA/hug5.gif""</stim_listA>",is hugging,
null,"<div style=""font-size:60px;"">+</div>",,html-keyboard-response,368,1069741,0.0-19.0-0.11,3987,List1A,black,woman,,,,null,,,,
null,"<img src=""stim_listA/marry8.gif""</stim_listA>",,html-keyboard-response,369,1071745,0.0-19.0-1.11,3987,List1A,black,woman,,,,null,,,,
null,are marrying each other,,html-keyboard-response,370,1073747,0.0-19.0-2.11,3987,List1A,black,woman,,,,null,,,,
8050,,,survey-text,371,1081798,0.0-19.0-3.11,3987,List1A,black,woman,,,,,"{""Q0"":""jane and beth""}","<img src=""stim_listA/marry8.gif""</stim_listA>",are marrying each other,
null,"<div style=""font-size:60px;"">+</div>",,html-keyboard-response,372,1082300,0.0-19.0-0.12,3987,List1A,black,woman,,,,null,,,,
null,"<img src=""stim_listA/dance2.gif""</stim_listA>",,html-keyboard-response,373,1084302,0.0-19.0-1.12,3987,List1A,black,woman,,,,null,,,,
null,are dancing with each other,,html-keyboard-response,374,1086304,0.0-19.0-2.12,3987,List1A,black,woman,,,,null,,,,
6608,,,survey-text,375,1092914,0.0-19.0-3.12,3987,List1A,black,woman,,,,,"{""Q0"":""beth and mike""}","<img src=""stim_listA/dance2.gif""</stim_listA>",are dancing with each other,
null,"<div style=""font-size:60px;"">+</div>",,html-keyboard-response,376,1093416,0.0-19.0-0.13,3987,List1A,black,woman,,,,null,,,,
null,"<img src=""stim_listA/kiss4.gif""</stim_listA>",,html-keyboard-response,377,1095419,0.0-19.0-1.13,3987,List1A,black,woman,,,,null,,,,
null,are kissing each other,,html-keyboard-response,378,1097420,0.0-19.0-2.13,3987,List1A,black,woman,,,,null,,,,
5436,,,survey-text,379,1102857,0.0-19.0-3.13,3987,List1A,black,woman,,,,,"{""Q0"":""jane and dave""}","<img src=""stim_listA/kiss4.gif""</stim_listA>",are kissing each other,
null,"<div style=""font-size:60px;"">+</div>",,html-keyboard-response,380,1103360,0.0-19.0-0.14,3987,List1A,black,woman,,,,null,,,,
null,"<img src=""stim_listA/marry7.gif""</stim_listA>",,html-keyboard-response,381,1105362,0.0-19.0-1.14,3987,List1A,black,woman,,,,null,,,,
null,is marrying,,html-keyboard-response,382,1107363,0.0-19.0-2.14,3987,List1A,black,woman,,,,null,,,,
6520,,,survey-text,383,1113885,0.0-19.0-3.14,3987,List1A,black,woman,,,,,"{""Q0"":""ruth and beth""}","<img src=""stim_listA/marry7.gif""</stim_listA>",is marrying,
null,"<div style=""font-size:60px;"">+</div>",,html-keyboard-response,384,1114387,0.0-19.0-0.15,3987,List1A,black,woman,,,,null,,,,
null,"<img src=""stim_listA/marry4.gif""</stim_listA>",,html-keyboard-response,385,1116390,0.0-19.0-1.15,3987,List1A,black,woman,,,,null,,,,
null,are marrying each other,,html-keyboard-response,386,1118392,0.0-19.0-2.15,3987,List1A,black,woman,,,,null,,,,
7837,,,survey-text,387,1126231,0.0-19.0-3.15,3987,List1A,black,woman,,,,,"{""Q0"":""jane and luke are marrying each other""}","<img src=""stim_listA/marry4.gif""</stim_listA>",are marrying each other,
null,"<div style=""font-size:60px;"">+</div>",,html-keyboard-response,388,1126734,0.0-19.0-0.16,3987,List1A,black,woman,,,,null,,,,
null,"<img src=""stim_listA/fight1.gif""</stim_listA>",,html-keyboard-response,389,1128746,0.0-19.0-1.16,3987,List1A,black,woman,,,,null,,,,
null,is fighting,,html-keyboard-response,390,1130749,0.0-19.0-2.16,3987,List1A,black,woman,,,,null,,,,
9785,,,survey-text,391,1140536,0.0-19.0-3.16,3987,List1A,black,woman,,,,,"{""Q0"":""mike is fighting kate""}","<img src=""stim_listA/fight1.gif""</stim_listA>",is fighting,
null,"<div style=""font-size:60px;"">+</div>",,html-keyboard-response,392,1141037,0.0-19.0-0.17,3987,List1A,black,woman,,,,null,,,,
null,"<img src=""stim_listA/fight8.gif""</stim_listA>",,html-keyboard-response,393,1143039,0.0-19.0-1.17,3987,List1A,black,woman,,,,null,,,,
null,are fighting each other,,html-keyboard-response,394,1145041,0.0-19.0-2.17,3987,List1A,black,woman,,,,null,,,,
4802,,,survey-text,395,1149844,0.0-19.0-3.17,3987,List1A,black,woman,,,,,"{""Q0"":""ruth and kate""}","<img src=""stim_listA/fight8.gif""</stim_listA>",are fighting each other,
null,"<div style=""font-size:60px;"">+</div>",,html-keyboard-response,396,1150346,0.0-19.0-0.18,3987,List1A,black,woman,,,,null,,,,
null,"<img src=""stim_listA/hug8.gif""</stim_listA>",,html-keyboard-response,397,1152348,0.0-19.0-1.18,3987,List1A,black,woman,,,,null,,,,
null,are hugging each other,,html-keyboard-response,398,1154349,0.0-19.0-2.18,3987,List1A,black,woman,,,,null,,,,
7159,,,survey-text,399,1161510,0.0-19.0-3.18,3987,List1A,black,woman,,,,,"{""Q0"":""jane and kate""}","<img src=""stim_listA/hug8.gif""</stim_listA>",are hugging each other,
null,"<div style=""font-size:60px;"">+</div>",,html-keyboard-response,400,1162011,0.0-19.0-0.19,3987,List1A,black,woman,,,,null,,,,
null,"<img src=""stim_listA/shout7.gif""</stim_listA>",,html-keyboard-response,401,1164014,0.0-19.0-1.19,3987,List1A,black,woman,,,,null,,,,
null,is shouting at,,html-keyboard-response,402,1166015,0.0-19.0-2.19,3987,List1A,black,woman,,,,null,,,,
6147,,,survey-text,403,1172163,0.0-19.0-3.19,3987,List1A,black,woman,,,,,"{""Q0"":""ruth is shouting at kate""}","<img src=""stim_listA/shout7.gif""</stim_listA>",is shouting at,
1592,<p>Thank you for completing that task.</p><p>The final part of this session is a short questionnaire.</p><p>Press Continue.</p>,0,html-button-response,404,1173757,0.0-20.0,3987,List1A,black,woman,,,,,,,,
15532,,,survey-text,405,1190292,0.0-21.0,3987,List1A,black,woman,,,,,"{""Q0"":""39"",""Q1"":""English"",""Q2"":""English"",""Q3"":""US"",""Q4"":""black"",""Q5"":""female""}",,,demographics
25433,,,survey-likert,406,1215835,0.0-22.0,3987,List1A,black,woman,,,,,"{""Q0"":5,""Q1"":5,""Q2"":5,""Q3"":5,""Q4"":6,""Q5"":5,""Q6"":5,""Q7"":2,""Q8"":4,""Q9"":4,""Q10"":4,""Q11"":4,""Q12"":2,""Q13"":2}",,,likert_race
26082,,,survey-likert,407,1241927,0.0-23.0,3987,List1A,black,woman,,,,,"{""Q0"":6,""Q1"":6,""Q2"":5,""Q3"":6,""Q4"":6,""Q5"":5,""Q6"":6,""Q7"":6,""Q8"":6,""Q9"":6,""Q10"":6,""Q11"":4,""Q12"":2,""Q13"":2}",,,likert_gender
5828,,,survey-text,408,1247758,0.0-24.0,3987,List1A,black,woman,,,,,"{""Q0"":""ccc""}",,,worker_id
9855,,,external-html,409,1257854,0.0-25.0,3987,List1A,black,woman,debrief.html,,,,,,,
