rt,stimulus,button_pressed,trial_type,trial_index,time_elapsed,internal_node_id,subject,list,ppt_race,ppt_gender,url,first_guess,correct,key_press,responses,image_type,phrase_type,test_part
23545,Welcome to the experiment. Press Continue to begin.,0,html-button-response,0,23553,0.0-0.0,40703,List1B,black,man,,,,,,,,
57720,,,external-html,1,82652,0.0-1.0,40703,List1B,black,man,consent.html,,,,,,,
37675,"<p>On the next page, you will see portraits of 8 people and their names.</p><p>Your first task is to take a few minutes to memorise the names of these people.</p><p>You will have to recall their names during the rest of the experiment, so it is</p><p>essential that you try to memorise these people and their names as best as you can.</p><br><p><strong>You will then be tested on your memory of these names and portraits.</strong></p><br><p>The experiment will start after you have completed this memory test.</p><br><p>Ready?</p>",0,html-button-response,2,120335,0.0-2.0,40703,List1B,black,man,,,,,,,,
330232,"<img src='img/portrait_matrix_list1.JPG' style='width:900px;height:500px;''></img><p>If you have memorised all the portraits and names and are ready to start, press Continue.</p><p><strong>Please note: Your memory of these faces will be tested 4 times during this experiment.</strong></p>",0,html-button-response,3,451588,0.0-3.0-0.0,40703,List1B,black,man,,,,,,,,
7761,"<img src=""portrait/WM1.jpg""style=""width:400px;height:400px;""></img>",6,html-button-response,4,460356,0.0-3.0-1.0,40703,List1B,black,man,,TRUE,6,,,,,
null,CORRECT,,html-keyboard-response,5,461868,0.0-3.0-2.0-0.0,40703,List1B,black,man,,,,null,,,,
15415,"<img src=""portrait/BM2.jpg""style=""width:400px;height:400px;""></img>",5,html-button-response,6,477296,0.0-3.0-4.0,40703,List1B,black,man,,TRUE,5,,,,,
null,CORRECT,,html-keyboard-response,7,478807,0.0-3.0-5.0-0.0,40703,List1B,black,man,,,,null,,,,
11799,"<img src=""portrait/WW2.jpg""style=""width:400px;height:400px;""></img>",3,html-button-response,8,490613,0.0-3.0-7.0,40703,List1B,black,man,,TRUE,3,,,,,
null,CORRECT,,html-keyboard-response,9,492118,0.0-3.0-8.0-0.0,40703,List1B,black,man,,,,null,,,,
7038,"<img src=""portrait/WM2.jpg""style=""width:400px;height:400px;""></img>",7,html-button-response,10,499160,0.0-3.0-10.0,40703,List1B,black,man,,TRUE,7,,,,,
null,CORRECT,,html-keyboard-response,11,500664,0.0-3.0-11.0-0.0,40703,List1B,black,man,,,,null,,,,
6952,"<img src=""portrait/BW2.jpg""style=""width:400px;height:400px;""></img>",2,html-button-response,12,507620,0.0-3.0-13.0,40703,List1B,black,man,,TRUE,2,,,,,
null,CORRECT,,html-keyboard-response,13,509125,0.0-3.0-14.0-0.0,40703,List1B,black,man,,,,null,,,,
4496,"<img src=""portrait/WW1.jpg""style=""width:400px;height:400px;""></img>",1,html-button-response,14,513626,0.0-3.0-16.0,40703,List1B,black,man,,TRUE,1,,,,,
null,CORRECT,,html-keyboard-response,15,515130,0.0-3.0-17.0-0.0,40703,List1B,black,man,,,,null,,,,
13706,"<img src=""portrait/BM1.jpg""style=""width:400px;height:400px;""></img>",4,html-button-response,16,528843,0.0-3.0-19.0,40703,List1B,black,man,,TRUE,4,,,,,
null,CORRECT,,html-keyboard-response,17,530349,0.0-3.0-20.0-0.0,40703,List1B,black,man,,,,null,,,,
11650,"<img src=""portrait/BW1.jpg""style=""width:400px;height:400px;""></img>",0,html-button-response,18,542004,0.0-3.0-22.0,40703,List1B,black,man,,TRUE,0,,,,,
null,CORRECT,,html-keyboard-response,19,543507,0.0-3.0-23.0-0.0,40703,List1B,black,man,,,,null,,,,
2498,<p>You got 8 out of 8 right first time. Press Continue.</p>,0,html-button-response,20,546010,0.0-3.0-25.0,40703,List1B,black,man,,,,,,,,
64244,"<p>In this experiment, you will view photographs of the people from the memory game interacting.</p><p>By using the <strong>exact</strong> phrase given <i>after</i> the photograph appears and recalling the correct names of the people in the photographs, form a sentence describing the interaction. You do not need to capitalise names.</p><p>Type your answer in the space provided. Please complete every sentence before moving onto the next trial.</p><p>You will only have a few seconds to memorise each given photograph and phrase before you can respond, so try your best to focus.</p><p>An example is given below. Press 'Continue' when you are ready.</p><img src='img/speaking_example_v2.jpg' style='width:800px;height:460px;''></img>",0,html-button-response,21,611267,0.0-4.0,40703,List1B,black,man,,,,,,,,
4265,"<p>Before the experiment starts, you will watch two example trials. Press 'Continue'.</p>",0,html-button-response,22,616536,0.0-5.0,40703,List1B,black,man,,,,,,,,
null,<img src='img/speaking_WW.gif'></img>,,html-keyboard-response,23,619541,0.0-6.0,40703,List1B,black,man,,,,null,,,,
null,<p>is speaking to</p>,,html-keyboard-response,24,621543,0.0-7.0,40703,List1B,black,man,,,,null,,,,
12480,<p><b>Answer:</b> kate is speaking to beth</p>,0,html-button-response,25,634028,0.0-8.0,40703,List1B,black,man,,,,,,,,
null,<img src='img/pointing_BM.gif'></img>,,html-keyboard-response,26,637035,0.0-9.0,40703,List1B,black,man,,,,null,,,,
null,<p>are pointing at each other</p>,,html-keyboard-response,27,639040,0.0-10.0,40703,List1B,black,man,,,,null,,,,
9221,<p><b>Answer:</b> luke and dave are pointing at each other</p>,0,html-button-response,28,648266,0.0-11.0,40703,List1B,black,man,,,,,,,,
17049,"<p>Ready to start the experiment?</p><br><p><strong>Remember to describe the picture using a full sentence,</strong></p><p><strong>that combines the names of the people with the given phrase.</strong></p><p><strong>If you do not do this correctly you will not be paid.</strong></p><p><strong> You do not need to capitalise names or use punctuation.</strong></p><br><p>Press 'Continue' to begin.</p>",0,html-button-response,29,666322,0.0-12.0,40703,List1B,black,man,,,,,,,,
null,"<div style=""font-size:60px;"">+</div>",,html-keyboard-response,30,667828,0.0-13.0-0.0,40703,List1B,black,man,,,,null,,,,
null,"<img src=""stim_listB/touch7.gif""</stim_listB>",,html-keyboard-response,31,669833,0.0-13.0-1.0,40703,List1B,black,man,,,,null,,,,
null,is touching,,html-keyboard-response,32,671841,0.0-13.0-2.0,40703,List1B,black,man,,,,null,,,,
46853,,,survey-text,33,718721,0.0-13.0-3.0,40703,List1B,black,man,,,,,"{""Q0"":""Jane is touching Kate.""}","<img src=""stim_listB/touch7.gif""</stim_listB>",is touching,
null,"<div style=""font-size:60px;"">+</div>",,html-keyboard-response,34,719224,0.0-13.0-0.1,40703,List1B,black,man,,,,null,,,,
null,"<img src=""stim_listB/touch2.gif""</stim_listB>",,html-keyboard-response,35,721226,0.0-13.0-1.1,40703,List1B,black,man,,,,null,,,,
null,are touching each other,,html-keyboard-response,36,723229,0.0-13.0-2.1,40703,List1B,black,man,,,,null,,,,
27051,,,survey-text,37,750283,0.0-13.0-3.1,40703,List1B,black,man,,,,,"{""Q0"":""Fred is touching Beth.""}","<img src=""stim_listB/touch2.gif""</stim_listB>",are touching each other,
null,"<div style=""font-size:60px;"">+</div>",,html-keyboard-response,38,750785,0.0-13.0-0.2,40703,List1B,black,man,,,,null,,,,
null,"<img src=""stim_listB/fight2.gif""</stim_listB>",,html-keyboard-response,39,752788,0.0-13.0-1.2,40703,List1B,black,man,,,,null,,,,
null,are fighting each other,,html-keyboard-response,40,754791,0.0-13.0-2.2,40703,List1B,black,man,,,,null,,,,
34054,,,survey-text,41,788848,0.0-13.0-3.2,40703,List1B,black,man,,,,,"{""Q0"":""fred and beth are fighting each other""}","<img src=""stim_listB/fight2.gif""</stim_listB>",are fighting each other,
null,"<div style=""font-size:60px;"">+</div>",,html-keyboard-response,42,789352,0.0-13.0-0.3,40703,List1B,black,man,,,,null,,,,
null,"<img src=""stim_listB/hug1.gif""</stim_listB>",,html-keyboard-response,43,791355,0.0-13.0-1.3,40703,List1B,black,man,,,,null,,,,
null,is hugging,,html-keyboard-response,44,793360,0.0-13.0-2.3,40703,List1B,black,man,,,,null,,,,
19266,,,survey-text,45,812632,0.0-13.0-3.3,40703,List1B,black,man,,,,,"{""Q0"":""fred is hugging beth""}","<img src=""stim_listB/hug1.gif""</stim_listB>",is hugging,
null,"<div style=""font-size:60px;"">+</div>",,html-keyboard-response,46,813136,0.0-13.0-0.4,40703,List1B,black,man,,,,null,,,,
null,"<img src=""stim_listB/marry4.gif""</stim_listB>",,html-keyboard-response,47,815139,0.0-13.0-1.4,40703,List1B,black,man,,,,null,,,,
null,are marrying each other,,html-keyboard-response,48,817142,0.0-13.0-2.4,40703,List1B,black,man,,,,null,,,,
39549,,,survey-text,49,856697,0.0-13.0-3.4,40703,List1B,black,man,,,,,"{""Q0"":""fred is marrying jane""}","<img src=""stim_listB/marry4.gif""</stim_listB>",are marrying each other,
null,"<div style=""font-size:60px;"">+</div>",,html-keyboard-response,50,857199,0.0-13.0-0.5,40703,List1B,black,man,,,,null,,,,
null,"<img src=""stim_listB/shout7.gif""</stim_listB>",,html-keyboard-response,51,859203,0.0-13.0-1.5,40703,List1B,black,man,,,,null,,,,
null,is shouting at,,html-keyboard-response,52,861208,0.0-13.0-2.5,40703,List1B,black,man,,,,null,,,,
32843,,,survey-text,53,894055,0.0-13.0-3.5,40703,List1B,black,man,,,,,"{""Q0"":""Ruth is shouting at Beth""}","<img src=""stim_listB/shout7.gif""</stim_listB>",is shouting at,
null,"<div style=""font-size:60px;"">+</div>",,html-keyboard-response,54,894557,0.0-13.0-0.6,40703,List1B,black,man,,,,null,,,,
null,"<img src=""stim_listB/kiss2.gif""</stim_listB>",,html-keyboard-response,55,896560,0.0-13.0-1.6,40703,List1B,black,man,,,,null,,,,
null,are kissing each other,,html-keyboard-response,56,898562,0.0-13.0-2.6,40703,List1B,black,man,,,,null,,,,
27235,,,survey-text,57,925803,0.0-13.0-3.6,40703,List1B,black,man,,,,,"{""Q0"":""Mike is kissing Kate""}","<img src=""stim_listB/kiss2.gif""</stim_listB>",are kissing each other,
null,"<div style=""font-size:60px;"">+</div>",,html-keyboard-response,58,926308,0.0-13.0-0.7,40703,List1B,black,man,,,,null,,,,
null,"<img src=""stim_listB/fight3.gif""</stim_listB>",,html-keyboard-response,59,928311,0.0-13.0-1.7,40703,List1B,black,man,,,,null,,,,
null,is fighting,,html-keyboard-response,60,930314,0.0-13.0-2.7,40703,List1B,black,man,,,,null,,,,
22405,,,survey-text,61,952723,0.0-13.0-3.7,40703,List1B,black,man,,,,,"{""Q0"":""Jane is fighting Dave""}","<img src=""stim_listB/fight3.gif""</stim_listB>",is fighting,
null,"<div style=""font-size:60px;"">+</div>",,html-keyboard-response,62,953226,0.0-13.0-0.8,40703,List1B,black,man,,,,null,,,,
null,"<img src=""stim_listB/dance3.gif""</stim_listB>",,html-keyboard-response,63,955229,0.0-13.0-1.8,40703,List1B,black,man,,,,null,,,,
null,is dancing with,,html-keyboard-response,64,957233,0.0-13.0-2.8,40703,List1B,black,man,,,,null,,,,
29832,,,survey-text,65,987069,0.0-13.0-3.8,40703,List1B,black,man,,,,,"{""Q0"":""Jane is dancing with Luke""}","<img src=""stim_listB/dance3.gif""</stim_listB>",is dancing with,
null,"<div style=""font-size:60px;"">+</div>",,html-keyboard-response,66,987582,0.0-13.0-0.9,40703,List1B,black,man,,,,null,,,,
null,"<img src=""stim_listB/argue7.gif""</stim_listB>",,html-keyboard-response,67,989584,0.0-13.0-1.9,40703,List1B,black,man,,,,null,,,,
null,is arguing with,,html-keyboard-response,68,991586,0.0-13.0-2.9,40703,List1B,black,man,,,,null,,,,
25442,,,survey-text,69,1017031,0.0-13.0-3.9,40703,List1B,black,man,,,,,"{""Q0"":""Ruth is arguing with Kate""}","<img src=""stim_listB/argue7.gif""</stim_listB>",is arguing with,
null,"<div style=""font-size:60px;"">+</div>",,html-keyboard-response,70,1017534,0.0-13.0-0.10,40703,List1B,black,man,,,,null,,,,
null,"<img src=""stim_listB/argue8.gif""</stim_listB>",,html-keyboard-response,71,1019537,0.0-13.0-1.10,40703,List1B,black,man,,,,null,,,,
null,are arguing with each other,,html-keyboard-response,72,1021540,0.0-13.0-2.10,40703,List1B,black,man,,,,null,,,,
28976,,,survey-text,73,1050519,0.0-13.0-3.10,40703,List1B,black,man,,,,,"{""Q0"":""Jane and Beth are arguing with each other.""}","<img src=""stim_listB/argue8.gif""</stim_listB>",are arguing with each other,
null,"<div style=""font-size:60px;"">+</div>",,html-keyboard-response,74,1051021,0.0-13.0-0.11,40703,List1B,black,man,,,,null,,,,
null,"<img src=""stim_listB/marry8.gif""</stim_listB>",,html-keyboard-response,75,1053023,0.0-13.0-1.11,40703,List1B,black,man,,,,null,,,,
null,are marrying each other,,html-keyboard-response,76,1055024,0.0-13.0-2.11,40703,List1B,black,man,,,,null,,,,
25646,,,survey-text,77,1080673,0.0-13.0-3.11,40703,List1B,black,man,,,,,"{""Q0"":""beth and Jane are marrying each other.""}","<img src=""stim_listB/marry8.gif""</stim_listB>",are marrying each other,
null,"<div style=""font-size:60px;"">+</div>",,html-keyboard-response,78,1081177,0.0-13.0-0.12,40703,List1B,black,man,,,,null,,,,
null,"<img src=""stim_listB/dance8.gif""</stim_listB>",,html-keyboard-response,79,1083180,0.0-13.0-1.12,40703,List1B,black,man,,,,null,,,,
null,are dancing with each other,,html-keyboard-response,80,1085184,0.0-13.0-2.12,40703,List1B,black,man,,,,null,,,,
28524,,,survey-text,81,1113714,0.0-13.0-3.12,40703,List1B,black,man,,,,,"{""Q0"":""Beth and Ruth are dancing with each other""}","<img src=""stim_listB/dance8.gif""</stim_listB>",are dancing with each other,
null,"<div style=""font-size:60px;"">+</div>",,html-keyboard-response,82,1114217,0.0-13.0-0.13,40703,List1B,black,man,,,,null,,,,
null,"<img src=""stim_listB/marry5.gif""</stim_listB>",,html-keyboard-response,83,1116221,0.0-13.0-1.13,40703,List1B,black,man,,,,null,,,,
null,is marrying,,html-keyboard-response,84,1118226,0.0-13.0-2.13,40703,List1B,black,man,,,,null,,,,
23614,,,survey-text,85,1141846,0.0-13.0-3.13,40703,List1B,black,man,,,,,"{""Q0"":""Luke is marrying Mike""}","<img src=""stim_listB/marry5.gif""</stim_listB>",is marrying,
null,"<div style=""font-size:60px;"">+</div>",,html-keyboard-response,86,1142350,0.0-13.0-0.14,40703,List1B,black,man,,,,null,,,,
null,"<img src=""stim_listB/dance7.gif""</stim_listB>",,html-keyboard-response,87,1144354,0.0-13.0-1.14,40703,List1B,black,man,,,,null,,,,
null,is dancing with,,html-keyboard-response,88,1146358,0.0-13.0-2.14,40703,List1B,black,man,,,,null,,,,
20501,,,survey-text,89,1166863,0.0-13.0-3.14,40703,List1B,black,man,,,,,"{""Q0"":""Jane is dancing with Beth.""}","<img src=""stim_listB/dance7.gif""</stim_listB>",is dancing with,
null,"<div style=""font-size:60px;"">+</div>",,html-keyboard-response,90,1167366,0.0-13.0-0.15,40703,List1B,black,man,,,,null,,,,
null,"<img src=""stim_listB/shout2.gif""</stim_listB>",,html-keyboard-response,91,1169369,0.0-13.0-1.15,40703,List1B,black,man,,,,null,,,,
null,are shouting at each other,,html-keyboard-response,92,1171374,0.0-13.0-2.15,40703,List1B,black,man,,,,null,,,,
37329,,,survey-text,93,1208708,0.0-13.0-3.15,40703,List1B,black,man,,,,,"{""Q0"":""Mike is shouting with Kate""}","<img src=""stim_listB/shout2.gif""</stim_listB>",are shouting at each other,
null,"<div style=""font-size:60px;"">+</div>",,html-keyboard-response,94,1209212,0.0-13.0-0.16,40703,List1B,black,man,,,,null,,,,
null,"<img src=""stim_listB/fight1.gif""</stim_listB>",,html-keyboard-response,95,1211215,0.0-13.0-1.16,40703,List1B,black,man,,,,null,,,,
null,is fighting,,html-keyboard-response,96,1213219,0.0-13.0-2.16,40703,List1B,black,man,,,,null,,,,
15627,,,survey-text,97,1228850,0.0-13.0-3.16,40703,List1B,black,man,,,,,"{""Q0"":""Mike is fighting Kate""}","<img src=""stim_listB/fight1.gif""</stim_listB>",is fighting,
null,"<div style=""font-size:60px;"">+</div>",,html-keyboard-response,98,1229353,0.0-13.0-0.17,40703,List1B,black,man,,,,null,,,,
null,"<img src=""stim_listB/dance6.gif""</stim_listB>",,html-keyboard-response,99,1231357,0.0-13.0-1.17,40703,List1B,black,man,,,,null,,,,
null,are dancing with each other,,html-keyboard-response,100,1233363,0.0-13.0-2.17,40703,List1B,black,man,,,,null,,,,
21048,,,survey-text,101,1254414,0.0-13.0-3.17,40703,List1B,black,man,,,,,"{""Q0"":""MIke and Luke are dancing with each other""}","<img src=""stim_listB/dance6.gif""</stim_listB>",are dancing with each other,
null,"<div style=""font-size:60px;"">+</div>",,html-keyboard-response,102,1254916,0.0-13.0-0.18,40703,List1B,black,man,,,,null,,,,
null,"<img src=""stim_listB/touch1.gif""</stim_listB>",,html-keyboard-response,103,1256918,0.0-13.0-1.18,40703,List1B,black,man,,,,null,,,,
null,is touching,,html-keyboard-response,104,1258922,0.0-13.0-2.18,40703,List1B,black,man,,,,null,,,,
16261,,,survey-text,105,1275188,0.0-13.0-3.18,40703,List1B,black,man,,,,,"{""Q0"":""Kate is touching Mike""}","<img src=""stim_listB/touch1.gif""</stim_listB>",is touching,
null,"<div style=""font-size:60px;"">+</div>",,html-keyboard-response,106,1275690,0.0-13.0-0.19,40703,List1B,black,man,,,,null,,,,
null,"<img src=""stim_listB/shout3.gif""</stim_listB>",,html-keyboard-response,107,1277694,0.0-13.0-1.19,40703,List1B,black,man,,,,null,,,,
null,is shouting at,,html-keyboard-response,108,1279698,0.0-13.0-2.19,40703,List1B,black,man,,,,null,,,,
34773,,,survey-text,109,1314475,0.0-13.0-3.19,40703,List1B,black,man,,,,,"{""Q0"":""Luke is fighting Jane""}","<img src=""stim_listB/shout3.gif""</stim_listB>",is shouting at,
21266,"<img src='img/portrait_matrix_list1.JPG' style='width:900px;height:500px;''></img><p>If you have memorised all the portraits and names and are ready to start, press Continue.</p><p><strong>Please note: Your memory of these faces will be tested 4 times during this experiment.</strong></p>",0,html-button-response,110,1335747,0.0-14.0-0.0,40703,List1B,black,man,,,,,,,,
8820,"<img src=""portrait/WW1.jpg""style=""width:400px;height:400px;""></img>",1,html-button-response,111,1345572,0.0-14.0-1.0,40703,List1B,black,man,,TRUE,1,,,,,
null,CORRECT,,html-keyboard-response,112,1347077,0.0-14.0-2.0-0.0,40703,List1B,black,man,,,,null,,,,
4762,"<img src=""portrait/BW2.jpg""style=""width:400px;height:400px;""></img>",2,html-button-response,113,1351843,0.0-14.0-4.0,40703,List1B,black,man,,TRUE,2,,,,,
null,CORRECT,,html-keyboard-response,114,1353350,0.0-14.0-5.0-0.0,40703,List1B,black,man,,,,null,,,,
3684,"<img src=""portrait/WM2.jpg""style=""width:400px;height:400px;""></img>",7,html-button-response,115,1357040,0.0-14.0-7.0,40703,List1B,black,man,,TRUE,7,,,,,
null,CORRECT,,html-keyboard-response,116,1358544,0.0-14.0-8.0-0.0,40703,List1B,black,man,,,,null,,,,
9861,"<img src=""portrait/BM2.jpg""style=""width:400px;height:400px;""></img>",5,html-button-response,117,1368411,0.0-14.0-10.0,40703,List1B,black,man,,TRUE,5,,,,,
null,CORRECT,,html-keyboard-response,118,1369918,0.0-14.0-11.0-0.0,40703,List1B,black,man,,,,null,,,,
7771,"<img src=""portrait/BW1.jpg""style=""width:400px;height:400px;""></img>",0,html-button-response,119,1377694,0.0-14.0-13.0,40703,List1B,black,man,,TRUE,0,,,,,
null,CORRECT,,html-keyboard-response,120,1379199,0.0-14.0-14.0-0.0,40703,List1B,black,man,,,,null,,,,
3486,"<img src=""portrait/BM1.jpg""style=""width:400px;height:400px;""></img>",4,html-button-response,121,1382692,0.0-14.0-16.0,40703,List1B,black,man,,TRUE,4,,,,,
null,CORRECT,,html-keyboard-response,122,1384198,0.0-14.0-17.0-0.0,40703,List1B,black,man,,,,null,,,,
9265,"<img src=""portrait/WW2.jpg""style=""width:400px;height:400px;""></img>",3,html-button-response,123,1393470,0.0-14.0-19.0,40703,List1B,black,man,,TRUE,3,,,,,
null,CORRECT,,html-keyboard-response,124,1394978,0.0-14.0-20.0-0.0,40703,List1B,black,man,,,,null,,,,
7796,"<img src=""portrait/WM1.jpg""style=""width:400px;height:400px;""></img>",6,html-button-response,125,1402779,0.0-14.0-22.0,40703,List1B,black,man,,TRUE,6,,,,,
null,CORRECT,,html-keyboard-response,126,1404285,0.0-14.0-23.0-0.0,40703,List1B,black,man,,,,null,,,,
1576,<p>You got 8 out of 8 right first time. Press Continue.</p>,0,html-button-response,127,1405864,0.0-14.0-25.0,40703,List1B,black,man,,,,,,,,
null,"<div style=""font-size:60px;"">+</div>",,html-keyboard-response,128,1407376,0.0-15.0-0.0,40703,List1B,black,man,,,,null,,,,
null,"<img src=""stim_listB/meet8.gif""</stim_listB>",,html-keyboard-response,129,1409383,0.0-15.0-1.0,40703,List1B,black,man,,,,null,,,,
null,are meeting each other,,html-keyboard-response,130,1411387,0.0-15.0-2.0,40703,List1B,black,man,,,,null,,,,
36213,,,survey-text,131,1447604,0.0-15.0-3.0,40703,List1B,black,man,,,,,"{""Q0"":""Beth and Ruth are meeting each other.""}","<img src=""stim_listB/meet8.gif""</stim_listB>",are meeting each other,
null,"<div style=""font-size:60px;"">+</div>",,html-keyboard-response,132,1448110,0.0-15.0-0.1,40703,List1B,black,man,,,,null,,,,
null,"<img src=""stim_listB/dance2.gif""</stim_listB>",,html-keyboard-response,133,1450114,0.0-15.0-1.1,40703,List1B,black,man,,,,null,,,,
null,are dancing with each other,,html-keyboard-response,134,1452118,0.0-15.0-2.1,40703,List1B,black,man,,,,null,,,,
18614,,,survey-text,135,1470736,0.0-15.0-3.1,40703,List1B,black,man,,,,,"{""Q0"":""MIke and Beth are dancing with each other.""}","<img src=""stim_listB/dance2.gif""</stim_listB>",are dancing with each other,
null,"<div style=""font-size:60px;"">+</div>",,html-keyboard-response,136,1471240,0.0-15.0-0.2,40703,List1B,black,man,,,,null,,,,
null,"<img src=""stim_listB/argue2.gif""</stim_listB>",,html-keyboard-response,137,1473243,0.0-15.0-1.2,40703,List1B,black,man,,,,null,,,,
null,are arguing with each other,,html-keyboard-response,138,1475254,0.0-15.0-2.2,40703,List1B,black,man,,,,null,,,,
29850,,,survey-text,139,1505107,0.0-15.0-3.2,40703,List1B,black,man,,,,,"{""Q0"":""Fred and Kate are arguing with each other.""}","<img src=""stim_listB/argue2.gif""</stim_listB>",are arguing with each other,
null,"<div style=""font-size:60px;"">+</div>",,html-keyboard-response,140,1505609,0.0-15.0-0.3,40703,List1B,black,man,,,,null,,,,
null,"<img src=""stim_listB/hug7.gif""</stim_listB>",,html-keyboard-response,141,1507611,0.0-15.0-1.3,40703,List1B,black,man,,,,null,,,,
null,is hugging,,html-keyboard-response,142,1509615,0.0-15.0-2.3,40703,List1B,black,man,,,,null,,,,
29687,,,survey-text,143,1539304,0.0-15.0-3.3,40703,List1B,black,man,,,,,"{""Q0"":""Ruth is hugging Beth""}","<img src=""stim_listB/hug7.gif""</stim_listB>",is hugging,
null,"<div style=""font-size:60px;"">+</div>",,html-keyboard-response,144,1539808,0.0-15.0-0.4,40703,List1B,black,man,,,,null,,,,
null,"<img src=""stim_listB/marry1.gif""</stim_listB>",,html-keyboard-response,145,1541811,0.0-15.0-1.4,40703,List1B,black,man,,,,null,,,,
null,is marrying,,html-keyboard-response,146,1543814,0.0-15.0-2.4,40703,List1B,black,man,,,,null,,,,
21587,,,survey-text,147,1565405,0.0-15.0-3.4,40703,List1B,black,man,,,,,"{""Q0"":""Beth is marrying Mike""}","<img src=""stim_listB/marry1.gif""</stim_listB>",is marrying,
null,"<div style=""font-size:60px;"">+</div>",,html-keyboard-response,148,1565909,0.0-15.0-0.5,40703,List1B,black,man,,,,null,,,,
null,"<img src=""stim_listB/dance1.gif""</stim_listB>",,html-keyboard-response,149,1567913,0.0-15.0-1.5,40703,List1B,black,man,,,,null,,,,
null,is dancing with,,html-keyboard-response,150,1569917,0.0-15.0-2.5,40703,List1B,black,man,,,,null,,,,
22470,,,survey-text,151,1592393,0.0-15.0-3.5,40703,List1B,black,man,,,,,"{""Q0"":""Kate is dancing with Fred""}","<img src=""stim_listB/dance1.gif""</stim_listB>",is dancing with,
null,"<div style=""font-size:60px;"">+</div>",,html-keyboard-response,152,1592896,0.0-15.0-0.6,40703,List1B,black,man,,,,null,,,,
null,"<img src=""stim_listB/hug4.gif""</stim_listB>",,html-keyboard-response,153,1594898,0.0-15.0-1.6,40703,List1B,black,man,,,,null,,,,
null,are hugging each other,,html-keyboard-response,154,1596900,0.0-15.0-2.6,40703,List1B,black,man,,,,null,,,,
35223,,,survey-text,155,1632126,0.0-15.0-3.6,40703,List1B,black,man,,,,,"{""Q0"":""fred is arguing with jane""}","<img src=""stim_listB/hug4.gif""</stim_listB>",are hugging each other,
null,"<div style=""font-size:60px;"">+</div>",,html-keyboard-response,156,1632629,0.0-15.0-0.7,40703,List1B,black,man,,,,null,,,,
null,"<img src=""stim_listB/shout4.gif""</stim_listB>",,html-keyboard-response,157,1634632,0.0-15.0-1.7,40703,List1B,black,man,,,,null,,,,
null,are shouting at each other,,html-keyboard-response,158,1636634,0.0-15.0-2.7,40703,List1B,black,man,,,,null,,,,
32512,,,survey-text,159,1669149,0.0-15.0-3.7,40703,List1B,black,man,,,,,"{""Q0"":""Dave and Jane are arguing with each other""}","<img src=""stim_listB/shout4.gif""</stim_listB>",are shouting at each other,
null,"<div style=""font-size:60px;"">+</div>",,html-keyboard-response,160,1669653,0.0-15.0-0.8,40703,List1B,black,man,,,,null,,,,
null,"<img src=""stim_listB/talk1.gif""</stim_listB>",,html-keyboard-response,161,1671656,0.0-15.0-1.8,40703,List1B,black,man,,,,null,,,,
null,is talking to,,html-keyboard-response,162,1673659,0.0-15.0-2.8,40703,List1B,black,man,,,,null,,,,
19291,,,survey-text,163,1692953,0.0-15.0-3.8,40703,List1B,black,man,,,,,"{""Q0"":""Kate is talking to Fred""}","<img src=""stim_listB/talk1.gif""</stim_listB>",is talking to,
null,"<div style=""font-size:60px;"">+</div>",,html-keyboard-response,164,1693456,0.0-15.0-0.9,40703,List1B,black,man,,,,null,,,,
null,"<img src=""stim_listB/meet3.gif""</stim_listB>",,html-keyboard-response,165,1695462,0.0-15.0-1.9,40703,List1B,black,man,,,,null,,,,
null,is meeting,,html-keyboard-response,166,1697464,0.0-15.0-2.9,40703,List1B,black,man,,,,null,,,,
20293,,,survey-text,167,1717759,0.0-15.0-3.9,40703,List1B,black,man,,,,,"{""Q0"":""Jane is meeting Dave""}","<img src=""stim_listB/meet3.gif""</stim_listB>",is meeting,
null,"<div style=""font-size:60px;"">+</div>",,html-keyboard-response,168,1718263,0.0-15.0-0.10,40703,List1B,black,man,,,,null,,,,
null,"<img src=""stim_listB/meet1.gif""</stim_listB>",,html-keyboard-response,169,1720266,0.0-15.0-1.10,40703,List1B,black,man,,,,null,,,,
null,is meeting,,html-keyboard-response,170,1722268,0.0-15.0-2.10,40703,List1B,black,man,,,,null,,,,
10161,,,survey-text,171,1732431,0.0-15.0-3.10,40703,List1B,black,man,,,,,"{""Q0"":""Kate is meeting MIke""}","<img src=""stim_listB/meet1.gif""</stim_listB>",is meeting,
null,"<div style=""font-size:60px;"">+</div>",,html-keyboard-response,172,1732936,0.0-15.0-0.11,40703,List1B,black,man,,,,null,,,,
null,"<img src=""stim_listB/kiss5.gif""</stim_listB>",,html-keyboard-response,173,1734939,0.0-15.0-1.11,40703,List1B,black,man,,,,null,,,,
null,is kissing,,html-keyboard-response,174,1736943,0.0-15.0-2.11,40703,List1B,black,man,,,,null,,,,
32573,,,survey-text,175,1769518,0.0-15.0-3.11,40703,List1B,black,man,,,,,"{""Q0"":""Luke is kissing Fred""}","<img src=""stim_listB/kiss5.gif""</stim_listB>",is kissing,
null,"<div style=""font-size:60px;"">+</div>",,html-keyboard-response,176,1770020,0.0-15.0-0.12,40703,List1B,black,man,,,,null,,,,
null,"<img src=""stim_listB/meet2.gif""</stim_listB>",,html-keyboard-response,177,1772022,0.0-15.0-1.12,40703,List1B,black,man,,,,null,,,,
null,are meeting each other,,html-keyboard-response,178,1774025,0.0-15.0-2.12,40703,List1B,black,man,,,,null,,,,
22429,,,survey-text,179,1796459,0.0-15.0-3.12,40703,List1B,black,man,,,,,"{""Q0"":""fred and beth are meeting each other""}","<img src=""stim_listB/meet2.gif""</stim_listB>",are meeting each other,
null,"<div style=""font-size:60px;"">+</div>",,html-keyboard-response,180,1796965,0.0-15.0-0.13,40703,List1B,black,man,,,,null,,,,
null,"<img src=""stim_listB/dance4.gif""</stim_listB>",,html-keyboard-response,181,1798972,0.0-15.0-1.13,40703,List1B,black,man,,,,null,,,,
null,are dancing with each other,,html-keyboard-response,182,1800976,0.0-15.0-2.13,40703,List1B,black,man,,,,null,,,,
19338,,,survey-text,183,1820316,0.0-15.0-3.13,40703,List1B,black,man,,,,,"{""Q0"":""dave and ruth are dancing with each other""}","<img src=""stim_listB/dance4.gif""</stim_listB>",are dancing with each other,
null,"<div style=""font-size:60px;"">+</div>",,html-keyboard-response,184,1820819,0.0-15.0-0.14,40703,List1B,black,man,,,,null,,,,
null,"<img src=""stim_listB/marry7.gif""</stim_listB>",,html-keyboard-response,185,1822822,0.0-15.0-1.14,40703,List1B,black,man,,,,null,,,,
null,is marrying,,html-keyboard-response,186,1824824,0.0-15.0-2.14,40703,List1B,black,man,,,,null,,,,
13019,,,survey-text,187,1837847,0.0-15.0-3.14,40703,List1B,black,man,,,,,"{""Q0"":""ruth is marrying kate""}","<img src=""stim_listB/marry7.gif""</stim_listB>",is marrying,
null,"<div style=""font-size:60px;"">+</div>",,html-keyboard-response,188,1838351,0.0-15.0-0.15,40703,List1B,black,man,,,,null,,,,
null,"<img src=""stim_listB/kiss8.gif""</stim_listB>",,html-keyboard-response,189,1840353,0.0-15.0-1.15,40703,List1B,black,man,,,,null,,,,
null,are kissing each other,,html-keyboard-response,190,1842356,0.0-15.0-2.15,40703,List1B,black,man,,,,null,,,,
20204,,,survey-text,191,1862562,0.0-15.0-3.15,40703,List1B,black,man,,,,,"{""Q0"":""kate and beth are kissing each other""}","<img src=""stim_listB/kiss8.gif""</stim_listB>",are kissing each other,
null,"<div style=""font-size:60px;"">+</div>",,html-keyboard-response,192,1863065,0.0-15.0-0.16,40703,List1B,black,man,,,,null,,,,
null,"<img src=""stim_listB/argue5.gif""</stim_listB>",,html-keyboard-response,193,1865069,0.0-15.0-1.16,40703,List1B,black,man,,,,null,,,,
null,is arguing with,,html-keyboard-response,194,1867071,0.0-15.0-2.16,40703,List1B,black,man,,,,null,,,,
16583,,,survey-text,195,1883657,0.0-15.0-3.16,40703,List1B,black,man,,,,,"{""Q0"":""luke is arguing with mike""}","<img src=""stim_listB/argue5.gif""</stim_listB>",is arguing with,
null,"<div style=""font-size:60px;"">+</div>",,html-keyboard-response,196,1884160,0.0-15.0-0.17,40703,List1B,black,man,,,,null,,,,
null,"<img src=""stim_listB/meet6.gif""</stim_listB>",,html-keyboard-response,197,1886164,0.0-15.0-1.17,40703,List1B,black,man,,,,null,,,,
null,are meeting each other,,html-keyboard-response,198,1888167,0.0-15.0-2.17,40703,List1B,black,man,,,,null,,,,
19913,,,survey-text,199,1908084,0.0-15.0-3.17,40703,List1B,black,man,,,,,"{""Q0"":""luke and fred are meeting each other""}","<img src=""stim_listB/meet6.gif""</stim_listB>",are meeting each other,
null,"<div style=""font-size:60px;"">+</div>",,html-keyboard-response,200,1908587,0.0-15.0-0.18,40703,List1B,black,man,,,,null,,,,
null,"<img src=""stim_listB/talk7.gif""</stim_listB>",,html-keyboard-response,201,1910590,0.0-15.0-1.18,40703,List1B,black,man,,,,null,,,,
null,is talking to,,html-keyboard-response,202,1912595,0.0-15.0-2.18,40703,List1B,black,man,,,,null,,,,
13829,,,survey-text,203,1926428,0.0-15.0-3.18,40703,List1B,black,man,,,,,"{""Q0"":""ruth is talking to beth""}","<img src=""stim_listB/talk7.gif""</stim_listB>",is talking to,
null,"<div style=""font-size:60px;"">+</div>",,html-keyboard-response,204,1926931,0.0-15.0-0.19,40703,List1B,black,man,,,,null,,,,
null,"<img src=""stim_listB/fight8.gif""</stim_listB>",,html-keyboard-response,205,1928933,0.0-15.0-1.19,40703,List1B,black,man,,,,null,,,,
null,are fighting each other,,html-keyboard-response,206,1930936,0.0-15.0-2.19,40703,List1B,black,man,,,,null,,,,
29009,,,survey-text,207,1959950,0.0-15.0-3.19,40703,List1B,black,man,,,,,"{""Q0"":""beth and ruth are fighting each other""}","<img src=""stim_listB/fight8.gif""</stim_listB>",are fighting each other,
4054,"<img src='img/portrait_matrix_list1.JPG' style='width:900px;height:500px;''></img><p>If you have memorised all the portraits and names and are ready to start, press Continue.</p><p><strong>Please note: Your memory of these faces will be tested 4 times during this experiment.</strong></p>",0,html-button-response,208,1964010,0.0-16.0-0.0,40703,List1B,black,man,,,,,,,,
2675,"<img src=""portrait/BM2.jpg""style=""width:400px;height:400px;""></img>",5,html-button-response,209,1967689,0.0-16.0-1.0,40703,List1B,black,man,,TRUE,5,,,,,
null,CORRECT,,html-keyboard-response,210,1969193,0.0-16.0-2.0-0.0,40703,List1B,black,man,,,,null,,,,
1906,"<img src=""portrait/WM1.jpg""style=""width:400px;height:400px;""></img>",6,html-button-response,211,1971103,0.0-16.0-4.0,40703,List1B,black,man,,TRUE,6,,,,,
null,CORRECT,,html-keyboard-response,212,1972608,0.0-16.0-5.0-0.0,40703,List1B,black,man,,,,null,,,,
10759,"<img src=""portrait/BW1.jpg""style=""width:400px;height:400px;""></img>",0,html-button-response,213,1983370,0.0-16.0-7.0,40703,List1B,black,man,,TRUE,0,,,,,
null,CORRECT,,html-keyboard-response,214,1984874,0.0-16.0-8.0-0.0,40703,List1B,black,man,,,,null,,,,
7815,"<img src=""portrait/WW2.jpg""style=""width:400px;height:400px;""></img>",3,html-button-response,215,1992694,0.0-16.0-10.0,40703,List1B,black,man,,TRUE,3,,,,,
null,CORRECT,,html-keyboard-response,216,1994199,0.0-16.0-11.0-0.0,40703,List1B,black,man,,,,null,,,,
2510,"<img src=""portrait/BW2.jpg""style=""width:400px;height:400px;""></img>",2,html-button-response,217,1996715,0.0-16.0-13.0,40703,List1B,black,man,,TRUE,2,,,,,
null,CORRECT,,html-keyboard-response,218,1998222,0.0-16.0-14.0-0.0,40703,List1B,black,man,,,,null,,,,
2831,"<img src=""portrait/BM1.jpg""style=""width:400px;height:400px;""></img>",4,html-button-response,219,2001064,0.0-16.0-16.0,40703,List1B,black,man,,TRUE,4,,,,,
null,CORRECT,,html-keyboard-response,220,2002568,0.0-16.0-17.0-0.0,40703,List1B,black,man,,,,null,,,,
3380,"<img src=""portrait/WW1.jpg""style=""width:400px;height:400px;""></img>",3,html-button-response,221,2005951,0.0-16.0-19.0,40703,List1B,black,man,,TRUE,1,,,,,
9125,"<img src=""portrait/WW1.jpg""style=""width:400px;height:400px;""></img>",1,html-button-response,222,2016081,0.0-16.0-21.0-0.0,40703,List1B,black,man,,FALSE,1,,,,,
null,CORRECT,,html-keyboard-response,223,2017589,0.0-16.0-21.0-1.0-0.0,40703,List1B,black,man,,,,null,,,,
5838,"<img src=""portrait/WM2.jpg""style=""width:400px;height:400px;""></img>",7,html-button-response,224,2023431,0.0-16.0-22.0,40703,List1B,black,man,,TRUE,7,,,,,
null,CORRECT,,html-keyboard-response,225,2024936,0.0-16.0-23.0-0.0,40703,List1B,black,man,,,,null,,,,
4176,<p>You got 7 out of 8 right first time. Press Continue.</p>,0,html-button-response,226,2029116,0.0-16.0-25.0,40703,List1B,black,man,,,,,,,,
4304,"As you did not score 100%, the memory game will repeat. Press Continue.",0,html-button-response,227,2034426,0.0-16.0-26.0-0.0,40703,List1B,black,man,,,,,,,,
2149,"<img src='img/portrait_matrix_list1.JPG' style='width:900px;height:500px;''></img><p>If you have memorised all the portraits and names and are ready to start, press Continue.</p><p><strong>Please note: Your memory of these faces will be tested 4 times during this experiment.</strong></p>",0,html-button-response,228,2037584,0.0-16.1-0.1,40703,List1B,black,man,,,,,,,,
2657,"<img src=""portrait/BM2.jpg""style=""width:400px;height:400px;""></img>",5,html-button-response,229,2041246,0.0-16.1-1.1,40703,List1B,black,man,,TRUE,5,,,,,
null,CORRECT,,html-keyboard-response,230,2042749,0.0-16.1-2.1-0.1,40703,List1B,black,man,,,,null,,,,
1612,"<img src=""portrait/WM1.jpg""style=""width:400px;height:400px;""></img>",6,html-button-response,231,2044366,0.0-16.1-4.1,40703,List1B,black,man,,TRUE,6,,,,,
null,CORRECT,,html-keyboard-response,232,2045869,0.0-16.1-5.1-0.1,40703,List1B,black,man,,,,null,,,,
4520,"<img src=""portrait/BW1.jpg""style=""width:400px;height:400px;""></img>",0,html-button-response,233,2050394,0.0-16.1-7.1,40703,List1B,black,man,,TRUE,0,,,,,
null,CORRECT,,html-keyboard-response,234,2051902,0.0-16.1-8.1-0.1,40703,List1B,black,man,,,,null,,,,
5632,"<img src=""portrait/WW2.jpg""style=""width:400px;height:400px;""></img>",3,html-button-response,235,2057543,0.0-16.1-10.1,40703,List1B,black,man,,TRUE,3,,,,,
null,CORRECT,,html-keyboard-response,236,2059050,0.0-16.1-11.1-0.1,40703,List1B,black,man,,,,null,,,,
5013,"<img src=""portrait/BW2.jpg""style=""width:400px;height:400px;""></img>",2,html-button-response,237,2064069,0.0-16.1-13.1,40703,List1B,black,man,,TRUE,2,,,,,
null,CORRECT,,html-keyboard-response,238,2065576,0.0-16.1-14.1-0.1,40703,List1B,black,man,,,,null,,,,
3094,"<img src=""portrait/BM1.jpg""style=""width:400px;height:400px;""></img>",4,html-button-response,239,2068674,0.0-16.1-16.1,40703,List1B,black,man,,TRUE,4,,,,,
null,CORRECT,,html-keyboard-response,240,2070177,0.0-16.1-17.1-0.1,40703,List1B,black,man,,,,null,,,,
2906,"<img src=""portrait/WW1.jpg""style=""width:400px;height:400px;""></img>",1,html-button-response,241,2073087,0.0-16.1-19.1,40703,List1B,black,man,,TRUE,1,,,,,
null,CORRECT,,html-keyboard-response,242,2074591,0.0-16.1-20.1-0.1,40703,List1B,black,man,,,,null,,,,
1763,"<img src=""portrait/WM2.jpg""style=""width:400px;height:400px;""></img>",7,html-button-response,243,2076359,0.0-16.1-22.1,40703,List1B,black,man,,TRUE,7,,,,,
null,CORRECT,,html-keyboard-response,244,2077863,0.0-16.1-23.1-0.1,40703,List1B,black,man,,,,null,,,,
1745,<p>You got 8 out of 8 right first time. Press Continue.</p>,0,html-button-response,245,2079612,0.0-16.1-25.1,40703,List1B,black,man,,,,,,,,
null,"<div style=""font-size:60px;"">+</div>",,html-keyboard-response,246,2081116,0.0-17.0-0.0,40703,List1B,black,man,,,,null,,,,
null,"<img src=""stim_listB/marry6.gif""</stim_listB>",,html-keyboard-response,247,2083120,0.0-17.0-1.0,40703,List1B,black,man,,,,null,,,,
null,are marrying each other,,html-keyboard-response,248,2085123,0.0-17.0-2.0,40703,List1B,black,man,,,,null,,,,
34132,,,survey-text,249,2119259,0.0-17.0-3.0,40703,List1B,black,man,,,,,"{""Q0"":""Fred and Dave are marrying each other.""}","<img src=""stim_listB/marry6.gif""</stim_listB>",are marrying each other,
null,"<div style=""font-size:60px;"">+</div>",,html-keyboard-response,250,2119762,0.0-17.0-0.1,40703,List1B,black,man,,,,null,,,,
null,"<img src=""stim_listB/fight7.gif""</stim_listB>",,html-keyboard-response,251,2121765,0.0-17.0-1.1,40703,List1B,black,man,,,,null,,,,
null,is fighting,,html-keyboard-response,252,2123768,0.0-17.0-2.1,40703,List1B,black,man,,,,null,,,,
24179,,,survey-text,253,2147949,0.0-17.0-3.1,40703,List1B,black,man,,,,,"{""Q0"":""Jane is fighting Kate""}","<img src=""stim_listB/fight7.gif""</stim_listB>",is fighting,
null,"<div style=""font-size:60px;"">+</div>",,html-keyboard-response,254,2148452,0.0-17.0-0.2,40703,List1B,black,man,,,,null,,,,
null,"<img src=""stim_listB/marry2.gif""</stim_listB>",,html-keyboard-response,255,2150455,0.0-17.0-1.2,40703,List1B,black,man,,,,null,,,,
null,are marrying each other,,html-keyboard-response,256,2152459,0.0-17.0-2.2,40703,List1B,black,man,,,,null,,,,
23026,,,survey-text,257,2175488,0.0-17.0-3.2,40703,List1B,black,man,,,,,"{""Q0"":""Fred and Kate are marrying each other""}","<img src=""stim_listB/marry2.gif""</stim_listB>",are marrying each other,
null,"<div style=""font-size:60px;"">+</div>",,html-keyboard-response,258,2175991,0.0-17.0-0.3,40703,List1B,black,man,,,,null,,,,
null,"<img src=""stim_listB/hug6.gif""</stim_listB>",,html-keyboard-response,259,2177994,0.0-17.0-1.3,40703,List1B,black,man,,,,null,,,,
null,are hugging each other,,html-keyboard-response,260,2179999,0.0-17.0-2.3,40703,List1B,black,man,,,,null,,,,
24398,,,survey-text,261,2204403,0.0-17.0-3.3,40703,List1B,black,man,,,,,"{""Q0"":""MIke and Dave are hugging each other""}","<img src=""stim_listB/hug6.gif""</stim_listB>",are hugging each other,
null,"<div style=""font-size:60px;"">+</div>",,html-keyboard-response,262,2204908,0.0-17.0-0.4,40703,List1B,black,man,,,,null,,,,
null,"<img src=""stim_listB/dance5.gif""</stim_listB>",,html-keyboard-response,263,2206916,0.0-17.0-1.4,40703,List1B,black,man,,,,null,,,,
null,is dancing with,,html-keyboard-response,264,2208920,0.0-17.0-2.4,40703,List1B,black,man,,,,null,,,,
14214,,,survey-text,265,2223138,0.0-17.0-3.4,40703,List1B,black,man,,,,,"{""Q0"":""Dave is dancing with Fred""}","<img src=""stim_listB/dance5.gif""</stim_listB>",is dancing with,
null,"<div style=""font-size:60px;"">+</div>",,html-keyboard-response,266,2223641,0.0-17.0-0.5,40703,List1B,black,man,,,,null,,,,
null,"<img src=""stim_listB/argue1.gif""</stim_listB>",,html-keyboard-response,267,2225644,0.0-17.0-1.5,40703,List1B,black,man,,,,null,,,,
null,is arguing with,,html-keyboard-response,268,2227647,0.0-17.0-2.5,40703,List1B,black,man,,,,null,,,,
14575,,,survey-text,269,2242225,0.0-17.0-3.5,40703,List1B,black,man,,,,,"{""Q0"":""Beth is arguing with MIke""}","<img src=""stim_listB/argue1.gif""</stim_listB>",is arguing with,
null,"<div style=""font-size:60px;"">+</div>",,html-keyboard-response,270,2242729,0.0-17.0-0.6,40703,List1B,black,man,,,,null,,,,
null,"<img src=""stim_listB/shout5.gif""</stim_listB>",,html-keyboard-response,271,2244732,0.0-17.0-1.6,40703,List1B,black,man,,,,null,,,,
null,is shouting at,,html-keyboard-response,272,2246735,0.0-17.0-2.6,40703,List1B,black,man,,,,null,,,,
22065,,,survey-text,273,2268805,0.0-17.0-3.6,40703,List1B,black,man,,,,,"{""Q0"":""Luke is shouting at Fred""}","<img src=""stim_listB/shout5.gif""</stim_listB>",is shouting at,
null,"<div style=""font-size:60px;"">+</div>",,html-keyboard-response,274,2269308,0.0-17.0-0.7,40703,List1B,black,man,,,,null,,,,
null,"<img src=""stim_listB/kiss3.gif""</stim_listB>",,html-keyboard-response,275,2271315,0.0-17.0-1.7,40703,List1B,black,man,,,,null,,,,
null,is kissing,,html-keyboard-response,276,2273317,0.0-17.0-2.7,40703,List1B,black,man,,,,null,,,,
16587,,,survey-text,277,2289908,0.0-17.0-3.7,40703,List1B,black,man,,,,,"{""Q0"":""Ruth is kissing Luke""}","<img src=""stim_listB/kiss3.gif""</stim_listB>",is kissing,
null,"<div style=""font-size:60px;"">+</div>",,html-keyboard-response,278,2290412,0.0-17.0-0.8,40703,List1B,black,man,,,,null,,,,
null,"<img src=""stim_listB/fight6.gif""</stim_listB>",,html-keyboard-response,279,2292414,0.0-17.0-1.8,40703,List1B,black,man,,,,null,,,,
null,are fighting each other,,html-keyboard-response,280,2294418,0.0-17.0-2.8,40703,List1B,black,man,,,,null,,,,
23207,,,survey-text,281,2317629,0.0-17.0-3.8,40703,List1B,black,man,,,,,"{""Q0"":""Fred and Luke are fighting each other""}","<img src=""stim_listB/fight6.gif""</stim_listB>",are fighting each other,
null,"<div style=""font-size:60px;"">+</div>",,html-keyboard-response,282,2318131,0.0-17.0-0.9,40703,List1B,black,man,,,,null,,,,
null,"<img src=""stim_listB/argue4.gif""</stim_listB>",,html-keyboard-response,283,2320133,0.0-17.0-1.9,40703,List1B,black,man,,,,null,,,,
null,are arguing with each other,,html-keyboard-response,284,2322136,0.0-17.0-2.9,40703,List1B,black,man,,,,null,,,,
19813,,,survey-text,285,2341954,0.0-17.0-3.9,40703,List1B,black,man,,,,,"{""Q0"":""Luke and Jane are arguing with each other""}","<img src=""stim_listB/argue4.gif""</stim_listB>",are arguing with each other,
null,"<div style=""font-size:60px;"">+</div>",,html-keyboard-response,286,2342457,0.0-17.0-0.10,40703,List1B,black,man,,,,null,,,,
null,"<img src=""stim_listB/shout8.gif""</stim_listB>",,html-keyboard-response,287,2344461,0.0-17.0-1.10,40703,List1B,black,man,,,,null,,,,
null,are shouting at each other,,html-keyboard-response,288,2346463,0.0-17.0-2.10,40703,List1B,black,man,,,,null,,,,
26241,,,survey-text,289,2372708,0.0-17.0-3.10,40703,List1B,black,man,,,,,"{""Q0"":""Jane and Kate are arguing with each other.""}","<img src=""stim_listB/shout8.gif""</stim_listB>",are shouting at each other,
null,"<div style=""font-size:60px;"">+</div>",,html-keyboard-response,290,2373210,0.0-17.0-0.11,40703,List1B,black,man,,,,null,,,,
null,"<img src=""stim_listB/argue3.gif""</stim_listB>",,html-keyboard-response,291,2375212,0.0-17.0-1.11,40703,List1B,black,man,,,,null,,,,
null,is arguing with,,html-keyboard-response,292,2377214,0.0-17.0-2.11,40703,List1B,black,man,,,,null,,,,
18007,,,survey-text,293,2395224,0.0-17.0-3.11,40703,List1B,black,man,,,,,"{""Q0"":""Dave is arguing with Ruth""}","<img src=""stim_listB/argue3.gif""</stim_listB>",is arguing with,
null,"<div style=""font-size:60px;"">+</div>",,html-keyboard-response,294,2395727,0.0-17.0-0.12,40703,List1B,black,man,,,,null,,,,
null,"<img src=""stim_listB/shout1.gif""</stim_listB>",,html-keyboard-response,295,2397729,0.0-17.0-1.12,40703,List1B,black,man,,,,null,,,,
null,is shouting at,,html-keyboard-response,296,2399731,0.0-17.0-2.12,40703,List1B,black,man,,,,null,,,,
16914,,,survey-text,297,2416647,0.0-17.0-3.12,40703,List1B,black,man,,,,,"{""Q0"":""Beth is shouting at Fred""}","<img src=""stim_listB/shout1.gif""</stim_listB>",is shouting at,
null,"<div style=""font-size:60px;"">+</div>",,html-keyboard-response,298,2417150,0.0-17.0-0.13,40703,List1B,black,man,,,,null,,,,
null,"<img src=""stim_listB/touch8.gif""</stim_listB>",,html-keyboard-response,299,2419153,0.0-17.0-1.13,40703,List1B,black,man,,,,null,,,,
null,are touching each other,,html-keyboard-response,300,2421156,0.0-17.0-2.13,40703,List1B,black,man,,,,null,,,,
22021,,,survey-text,301,2443179,0.0-17.0-3.13,40703,List1B,black,man,,,,,"{""Q0"":""Ruth and Beth are touching each other""}","<img src=""stim_listB/touch8.gif""</stim_listB>",are touching each other,
null,"<div style=""font-size:60px;"">+</div>",,html-keyboard-response,302,2443685,0.0-17.0-0.14,40703,List1B,black,man,,,,null,,,,
null,"<img src=""stim_listB/hug5.gif""</stim_listB>",,html-keyboard-response,303,2445687,0.0-17.0-1.14,40703,List1B,black,man,,,,null,,,,
null,is hugging,,html-keyboard-response,304,2447689,0.0-17.0-2.14,40703,List1B,black,man,,,,null,,,,
13309,,,survey-text,305,2461001,0.0-17.0-3.14,40703,List1B,black,man,,,,,"{""Q0"":""Luke is hugging Fred""}","<img src=""stim_listB/hug5.gif""</stim_listB>",is hugging,
null,"<div style=""font-size:60px;"">+</div>",,html-keyboard-response,306,2461504,0.0-17.0-0.15,40703,List1B,black,man,,,,null,,,,
null,"<img src=""stim_listB/touch3.gif""</stim_listB>",,html-keyboard-response,307,2463506,0.0-17.0-1.15,40703,List1B,black,man,,,,null,,,,
null,is touching,,html-keyboard-response,308,2465510,0.0-17.0-2.15,40703,List1B,black,man,,,,null,,,,
11376,,,survey-text,309,2476890,0.0-17.0-3.15,40703,List1B,black,man,,,,,"{""Q0"":""Jane is touching Dave""}","<img src=""stim_listB/touch3.gif""</stim_listB>",is touching,
null,"<div style=""font-size:60px;"">+</div>",,html-keyboard-response,310,2477393,0.0-17.0-0.16,40703,List1B,black,man,,,,null,,,,
null,"<img src=""stim_listB/fight4.gif""</stim_listB>",,html-keyboard-response,311,2479396,0.0-17.0-1.16,40703,List1B,black,man,,,,null,,,,
null,are fighting each other,,html-keyboard-response,312,2481401,0.0-17.0-2.16,40703,List1B,black,man,,,,null,,,,
25958,,,survey-text,313,2507368,0.0-17.0-3.16,40703,List1B,black,man,,,,,"{""Q0"":""Luke and Ruth are fighting each other.""}","<img src=""stim_listB/fight4.gif""</stim_listB>",are fighting each other,
null,"<div style=""font-size:60px;"">+</div>",,html-keyboard-response,314,2507873,0.0-17.0-0.17,40703,List1B,black,man,,,,null,,,,
null,"<img src=""stim_listB/fight5.gif""</stim_listB>",,html-keyboard-response,315,2509876,0.0-17.0-1.17,40703,List1B,black,man,,,,null,,,,
null,is fighting,,html-keyboard-response,316,2511878,0.0-17.0-2.17,40703,List1B,black,man,,,,null,,,,
12525,,,survey-text,317,2524406,0.0-17.0-3.17,40703,List1B,black,man,,,,,"{""Q0"":""Dave is fighting Mike.""}","<img src=""stim_listB/fight5.gif""</stim_listB>",is fighting,
null,"<div style=""font-size:60px;"">+</div>",,html-keyboard-response,318,2524909,0.0-17.0-0.18,40703,List1B,black,man,,,,null,,,,
null,"<img src=""stim_listB/touch6.gif""</stim_listB>",,html-keyboard-response,319,2526914,0.0-17.0-1.18,40703,List1B,black,man,,,,null,,,,
null,are touching each other,,html-keyboard-response,320,2528922,0.0-17.0-2.18,40703,List1B,black,man,,,,null,,,,
22515,,,survey-text,321,2551441,0.0-17.0-3.18,40703,List1B,black,man,,,,,"{""Q0"":""Luke and Fred are touching each other.""}","<img src=""stim_listB/touch6.gif""</stim_listB>",are touching each other,
null,"<div style=""font-size:60px;"">+</div>",,html-keyboard-response,322,2551943,0.0-17.0-0.19,40703,List1B,black,man,,,,null,,,,
null,"<img src=""stim_listB/talk2.gif""</stim_listB>",,html-keyboard-response,323,2553949,0.0-17.0-1.19,40703,List1B,black,man,,,,null,,,,
null,are talking to each other,,html-keyboard-response,324,2555953,0.0-17.0-2.19,40703,List1B,black,man,,,,null,,,,
29462,,,survey-text,325,2585418,0.0-17.0-3.19,40703,List1B,black,man,,,,,"{""Q0"":""MIke and Beth are talking to each other""}","<img src=""stim_listB/talk2.gif""</stim_listB>",are talking to each other,
2624,"<img src='img/portrait_matrix_list1.JPG' style='width:900px;height:500px;''></img><p>If you have memorised all the portraits and names and are ready to start, press Continue.</p><p><strong>Please note: Your memory of these faces will be tested 4 times during this experiment.</strong></p>",0,html-button-response,326,2588048,0.0-18.0-0.0,40703,List1B,black,man,,,,,,,,
2264,"<img src=""portrait/WM2.jpg""style=""width:400px;height:400px;""></img>",7,html-button-response,327,2591317,0.0-18.0-1.0,40703,List1B,black,man,,TRUE,7,,,,,
null,CORRECT,,html-keyboard-response,328,2592822,0.0-18.0-2.0-0.0,40703,List1B,black,man,,,,null,,,,
4261,"<img src=""portrait/BW2.jpg""style=""width:400px;height:400px;""></img>",2,html-button-response,329,2597091,0.0-18.0-4.0,40703,List1B,black,man,,TRUE,2,,,,,
null,CORRECT,,html-keyboard-response,330,2598598,0.0-18.0-5.0-0.0,40703,List1B,black,man,,,,null,,,,
11812,"<img src=""portrait/WW1.jpg""style=""width:400px;height:400px;""></img>",1,html-button-response,331,2610415,0.0-18.0-7.0,40703,List1B,black,man,,TRUE,1,,,,,
null,CORRECT,,html-keyboard-response,332,2611920,0.0-18.0-8.0-0.0,40703,List1B,black,man,,,,null,,,,
1792,"<img src=""portrait/WW2.jpg""style=""width:400px;height:400px;""></img>",3,html-button-response,333,2613717,0.0-18.0-10.0,40703,List1B,black,man,,TRUE,3,,,,,
null,CORRECT,,html-keyboard-response,334,2615220,0.0-18.0-11.0-0.0,40703,List1B,black,man,,,,null,,,,
1798,"<img src=""portrait/BM1.jpg""style=""width:400px;height:400px;""></img>",4,html-button-response,335,2617026,0.0-18.0-13.0,40703,List1B,black,man,,TRUE,4,,,,,
null,CORRECT,,html-keyboard-response,336,2618531,0.0-18.0-14.0-0.0,40703,List1B,black,man,,,,null,,,,
1805,"<img src=""portrait/WM1.jpg""style=""width:400px;height:400px;""></img>",6,html-button-response,337,2620349,0.0-18.0-16.0,40703,List1B,black,man,,TRUE,6,,,,,
null,CORRECT,,html-keyboard-response,338,2621853,0.0-18.0-17.0-0.0,40703,List1B,black,man,,,,null,,,,
1895,"<img src=""portrait/BM2.jpg""style=""width:400px;height:400px;""></img>",5,html-button-response,339,2623753,0.0-18.0-19.0,40703,List1B,black,man,,TRUE,5,,,,,
null,CORRECT,,html-keyboard-response,340,2625257,0.0-18.0-20.0-0.0,40703,List1B,black,man,,,,null,,,,
7706,"<img src=""portrait/BW1.jpg""style=""width:400px;height:400px;""></img>",0,html-button-response,341,2632969,0.0-18.0-22.0,40703,List1B,black,man,,TRUE,0,,,,,
null,CORRECT,,html-keyboard-response,342,2634473,0.0-18.0-23.0-0.0,40703,List1B,black,man,,,,null,,,,
1850,<p>You got 8 out of 8 right first time. Press Continue.</p>,0,html-button-response,343,2636327,0.0-18.0-25.0,40703,List1B,black,man,,,,,,,,
null,"<div style=""font-size:60px;"">+</div>",,html-keyboard-response,344,2637836,0.0-19.0-0.0,40703,List1B,black,man,,,,null,,,,
null,"<img src=""stim_listB/kiss4.gif""</stim_listB>",,html-keyboard-response,345,2639841,0.0-19.0-1.0,40703,List1B,black,man,,,,null,,,,
null,are kissing each other,,html-keyboard-response,346,2641844,0.0-19.0-2.0,40703,List1B,black,man,,,,null,,,,
22407,,,survey-text,347,2664258,0.0-19.0-3.0,40703,List1B,black,man,,,,,"{""Q0"":""Jane and Dave are kissing each other""}","<img src=""stim_listB/kiss4.gif""</stim_listB>",are kissing each other,
null,"<div style=""font-size:60px;"">+</div>",,html-keyboard-response,348,2664761,0.0-19.0-0.1,40703,List1B,black,man,,,,null,,,,
null,"<img src=""stim_listB/hug3.gif""</stim_listB>",,html-keyboard-response,349,2666763,0.0-19.0-1.1,40703,List1B,black,man,,,,null,,,,
null,is hugging,,html-keyboard-response,350,2668765,0.0-19.0-2.1,40703,List1B,black,man,,,,null,,,,
14489,,,survey-text,351,2683257,0.0-19.0-3.1,40703,List1B,black,man,,,,,"{""Q0"":""Ruth is hugging Luke""}","<img src=""stim_listB/hug3.gif""</stim_listB>",is hugging,
null,"<div style=""font-size:60px;"">+</div>",,html-keyboard-response,352,2683760,0.0-19.0-0.2,40703,List1B,black,man,,,,null,,,,
null,"<img src=""stim_listB/meet7.gif""</stim_listB>",,html-keyboard-response,353,2685762,0.0-19.0-1.2,40703,List1B,black,man,,,,null,,,,
null,is meeting,,html-keyboard-response,354,2687764,0.0-19.0-2.2,40703,List1B,black,man,,,,null,,,,
24813,,,survey-text,355,2712580,0.0-19.0-3.2,40703,List1B,black,man,,,,,"{""Q0"":""Jane is meeting Kate""}","<img src=""stim_listB/meet7.gif""</stim_listB>",is meeting,
null,"<div style=""font-size:60px;"">+</div>",,html-keyboard-response,356,2713083,0.0-19.0-0.3,40703,List1B,black,man,,,,null,,,,
null,"<img src=""stim_listB/kiss6.gif""</stim_listB>",,html-keyboard-response,357,2715087,0.0-19.0-1.3,40703,List1B,black,man,,,,null,,,,
null,are kissing each other,,html-keyboard-response,358,2717091,0.0-19.0-2.3,40703,List1B,black,man,,,,null,,,,
16971,,,survey-text,359,2734066,0.0-19.0-3.3,40703,List1B,black,man,,,,,"{""Q0"":""MIke and Dave are kissing each other""}","<img src=""stim_listB/kiss6.gif""</stim_listB>",are kissing each other,
null,"<div style=""font-size:60px;"">+</div>",,html-keyboard-response,360,2734568,0.0-19.0-0.4,40703,List1B,black,man,,,,null,,,,
null,"<img src=""stim_listB/meet5.gif""</stim_listB>",,html-keyboard-response,361,2736570,0.0-19.0-1.4,40703,List1B,black,man,,,,null,,,,
null,is meeting,,html-keyboard-response,362,2738572,0.0-19.0-2.4,40703,List1B,black,man,,,,null,,,,
17832,,,survey-text,363,2756408,0.0-19.0-3.4,40703,List1B,black,man,,,,,"{""Q0"":""Dave is meeting Mike""}","<img src=""stim_listB/meet5.gif""</stim_listB>",is meeting,
null,"<div style=""font-size:60px;"">+</div>",,html-keyboard-response,364,2756911,0.0-19.0-0.5,40703,List1B,black,man,,,,null,,,,
null,"<img src=""stim_listB/kiss1.gif""</stim_listB>",,html-keyboard-response,365,2758913,0.0-19.0-1.5,40703,List1B,black,man,,,,null,,,,
null,is kissing,,html-keyboard-response,366,2760915,0.0-19.0-2.5,40703,List1B,black,man,,,,null,,,,
12178,,,survey-text,367,2773096,0.0-19.0-3.5,40703,List1B,black,man,,,,,"{""Q0"":""Beth is kissing Fred""}","<img src=""stim_listB/kiss1.gif""</stim_listB>",is kissing,
null,"<div style=""font-size:60px;"">+</div>",,html-keyboard-response,368,2773598,0.0-19.0-0.6,40703,List1B,black,man,,,,null,,,,
null,"<img src=""stim_listB/touch4.gif""</stim_listB>",,html-keyboard-response,369,2775601,0.0-19.0-1.6,40703,List1B,black,man,,,,null,,,,
null,are touching each other,,html-keyboard-response,370,2777603,0.0-19.0-2.6,40703,List1B,black,man,,,,null,,,,
19032,,,survey-text,371,2796639,0.0-19.0-3.6,40703,List1B,black,man,,,,,"{""Q0"":""Luke and Ruth are touching each other""}","<img src=""stim_listB/touch4.gif""</stim_listB>",are touching each other,
null,"<div style=""font-size:60px;"">+</div>",,html-keyboard-response,372,2797144,0.0-19.0-0.7,40703,List1B,black,man,,,,null,,,,
null,"<img src=""stim_listB/talk6.gif""</stim_listB>",,html-keyboard-response,373,2799148,0.0-19.0-1.7,40703,List1B,black,man,,,,null,,,,
null,are talking to each other,,html-keyboard-response,374,2801153,0.0-19.0-2.7,40703,List1B,black,man,,,,null,,,,
22521,,,survey-text,375,2823680,0.0-19.0-3.7,40703,List1B,black,man,,,,,"{""Q0"":""MIke and Luke are talking to each other.""}","<img src=""stim_listB/talk6.gif""</stim_listB>",are talking to each other,
null,"<div style=""font-size:60px;"">+</div>",,html-keyboard-response,376,2824182,0.0-19.0-0.8,40703,List1B,black,man,,,,null,,,,
null,"<img src=""stim_listB/talk3.gif""</stim_listB>",,html-keyboard-response,377,2826186,0.0-19.0-1.8,40703,List1B,black,man,,,,null,,,,
null,is talking to,,html-keyboard-response,378,2828193,0.0-19.0-2.8,40703,List1B,black,man,,,,null,,,,
16099,,,survey-text,379,2844296,0.0-19.0-3.8,40703,List1B,black,man,,,,,"{""Q0"":""Jane is talking to Luke""}","<img src=""stim_listB/talk3.gif""</stim_listB>",is talking to,
null,"<div style=""font-size:60px;"">+</div>",,html-keyboard-response,380,2844800,0.0-19.0-0.9,40703,List1B,black,man,,,,null,,,,
null,"<img src=""stim_listB/meet4.gif""</stim_listB>",,html-keyboard-response,381,2846802,0.0-19.0-1.9,40703,List1B,black,man,,,,null,,,,
null,are meeting each other,,html-keyboard-response,382,2848808,0.0-19.0-2.9,40703,List1B,black,man,,,,null,,,,
15186,,,survey-text,383,2863998,0.0-19.0-3.9,40703,List1B,black,man,,,,,"{""Q0"":""Luke and Jane are meeting each other""}","<img src=""stim_listB/meet4.gif""</stim_listB>",are meeting each other,
null,"<div style=""font-size:60px;"">+</div>",,html-keyboard-response,384,2864502,0.0-19.0-0.10,40703,List1B,black,man,,,,null,,,,
null,"<img src=""stim_listB/talk5.gif""</stim_listB>",,html-keyboard-response,385,2866505,0.0-19.0-1.10,40703,List1B,black,man,,,,null,,,,
null,is talking to,,html-keyboard-response,386,2868513,0.0-19.0-2.10,40703,List1B,black,man,,,,null,,,,
14328,,,survey-text,387,2882845,0.0-19.0-3.10,40703,List1B,black,man,,,,,"{""Q0"":""Fred is talking to Dave""}","<img src=""stim_listB/talk5.gif""</stim_listB>",is talking to,
null,"<div style=""font-size:60px;"">+</div>",,html-keyboard-response,388,2883349,0.0-19.0-0.11,40703,List1B,black,man,,,,null,,,,
null,"<img src=""stim_listB/shout6.gif""</stim_listB>",,html-keyboard-response,389,2885355,0.0-19.0-1.11,40703,List1B,black,man,,,,null,,,,
null,are shouting at each other,,html-keyboard-response,390,2887361,0.0-19.0-2.11,40703,List1B,black,man,,,,null,,,,
30094,,,survey-text,391,2917460,0.0-19.0-3.11,40703,List1B,black,man,,,,,"{""Q0"":""Mike and Dave are arguing with each other.""}","<img src=""stim_listB/shout6.gif""</stim_listB>",are shouting at each other,
null,"<div style=""font-size:60px;"">+</div>",,html-keyboard-response,392,2917964,0.0-19.0-0.12,40703,List1B,black,man,,,,null,,,,
null,"<img src=""stim_listB/hug8.gif""</stim_listB>",,html-keyboard-response,393,2919967,0.0-19.0-1.12,40703,List1B,black,man,,,,null,,,,
null,are hugging each other,,html-keyboard-response,394,2921970,0.0-19.0-2.12,40703,List1B,black,man,,,,null,,,,
19781,,,survey-text,395,2941755,0.0-19.0-3.12,40703,List1B,black,man,,,,,"{""Q0"":""Jane and ruth are hugging each other""}","<img src=""stim_listB/hug8.gif""</stim_listB>",are hugging each other,
null,"<div style=""font-size:60px;"">+</div>",,html-keyboard-response,396,2942258,0.0-19.0-0.13,40703,List1B,black,man,,,,null,,,,
null,"<img src=""stim_listB/kiss7.gif""</stim_listB>",,html-keyboard-response,397,2944262,0.0-19.0-1.13,40703,List1B,black,man,,,,null,,,,
null,is kissing,,html-keyboard-response,398,2946265,0.0-19.0-2.13,40703,List1B,black,man,,,,null,,,,
18162,,,survey-text,399,2964429,0.0-19.0-3.13,40703,List1B,black,man,,,,,"{""Q0"":""Ruth is kissing Beth""}","<img src=""stim_listB/kiss7.gif""</stim_listB>",is kissing,
null,"<div style=""font-size:60px;"">+</div>",,html-keyboard-response,400,2964932,0.0-19.0-0.14,40703,List1B,black,man,,,,null,,,,
null,"<img src=""stim_listB/talk8.gif""</stim_listB>",,html-keyboard-response,401,2966935,0.0-19.0-1.14,40703,List1B,black,man,,,,null,,,,
null,are talking to each other,,html-keyboard-response,402,2968937,0.0-19.0-2.14,40703,List1B,black,man,,,,null,,,,
21728,,,survey-text,403,2990667,0.0-19.0-3.14,40703,List1B,black,man,,,,,"{""Q0"":""Ruth and Kate are talking to each other.""}","<img src=""stim_listB/talk8.gif""</stim_listB>",are talking to each other,
null,"<div style=""font-size:60px;"">+</div>",,html-keyboard-response,404,2991170,0.0-19.0-0.15,40703,List1B,black,man,,,,null,,,,
null,"<img src=""stim_listB/marry3.gif""</stim_listB>",,html-keyboard-response,405,2993173,0.0-19.0-1.15,40703,List1B,black,man,,,,null,,,,
null,is marrying,,html-keyboard-response,406,2995175,0.0-19.0-2.15,40703,List1B,black,man,,,,null,,,,
26755,,,survey-text,407,3021932,0.0-19.0-3.15,40703,List1B,black,man,,,,,"{""Q0"":""Ruth is marrying Kate""}","<img src=""stim_listB/marry3.gif""</stim_listB>",is marrying,
null,"<div style=""font-size:60px;"">+</div>",,html-keyboard-response,408,3022436,0.0-19.0-0.16,40703,List1B,black,man,,,,null,,,,
null,"<img src=""stim_listB/talk4.gif""</stim_listB>",,html-keyboard-response,409,3024439,0.0-19.0-1.16,40703,List1B,black,man,,,,null,,,,
null,are talking to each other,,html-keyboard-response,410,3026441,0.0-19.0-2.16,40703,List1B,black,man,,,,null,,,,
18950,,,survey-text,411,3045394,0.0-19.0-3.16,40703,List1B,black,man,,,,,"{""Q0"":""Dave and Ruth are talking to each other""}","<img src=""stim_listB/talk4.gif""</stim_listB>",are talking to each other,
null,"<div style=""font-size:60px;"">+</div>",,html-keyboard-response,412,3045900,0.0-19.0-0.17,40703,List1B,black,man,,,,null,,,,
null,"<img src=""stim_listB/hug2.gif""</stim_listB>",,html-keyboard-response,413,3047906,0.0-19.0-1.17,40703,List1B,black,man,,,,null,,,,
null,are hugging each other,,html-keyboard-response,414,3049911,0.0-19.0-2.17,40703,List1B,black,man,,,,null,,,,
19379,,,survey-text,415,3069295,0.0-19.0-3.17,40703,List1B,black,man,,,,,"{""Q0"":""Mike and Kate are hugging each other""}","<img src=""stim_listB/hug2.gif""</stim_listB>",are hugging each other,
null,"<div style=""font-size:60px;"">+</div>",,html-keyboard-response,416,3069799,0.0-19.0-0.18,40703,List1B,black,man,,,,null,,,,
null,"<img src=""stim_listB/argue6.gif""</stim_listB>",,html-keyboard-response,417,3071803,0.0-19.0-1.18,40703,List1B,black,man,,,,null,,,,
null,are arguing with each other,,html-keyboard-response,418,3073806,0.0-19.0-2.18,40703,List1B,black,man,,,,null,,,,
21698,,,survey-text,419,3095507,0.0-19.0-3.18,40703,List1B,black,man,,,,,"{""Q0"":""Fred and Dave are arguing with each other.""}","<img src=""stim_listB/argue6.gif""</stim_listB>",are arguing with each other,
null,"<div style=""font-size:60px;"">+</div>",,html-keyboard-response,420,3096010,0.0-19.0-0.19,40703,List1B,black,man,,,,null,,,,
null,"<img src=""stim_listB/touch5.gif""</stim_listB>",,html-keyboard-response,421,3098014,0.0-19.0-1.19,40703,List1B,black,man,,,,null,,,,
null,is touching,,html-keyboard-response,422,3100020,0.0-19.0-2.19,40703,List1B,black,man,,,,null,,,,
12148,,,survey-text,423,3112171,0.0-19.0-3.19,40703,List1B,black,man,,,,,"{""Q0"":""Dave is touching Mike""}","<img src=""stim_listB/touch5.gif""</stim_listB>",is touching,
3922,<p>Thank you for completing that task.</p><p>The final part of this session is a short questionnaire.</p><p>Press Continue.</p>,0,html-button-response,424,3116097,0.0-20.0,40703,List1B,black,man,,,,,,,,
48938,,,survey-text,425,3166043,0.0-21.0,40703,List1B,black,man,,,,,"{""Q0"":""38"",""Q1"":""English"",""Q2"":""English"",""Q3"":""United States"",""Q4"":""African American"",""Q5"":""Male""}",,,demographics
44872,,,survey-likert,426,3210955,0.0-22.0,40703,List1B,black,man,,,,,"{""Q0"":6,""Q1"":6,""Q2"":6,""Q3"":6,""Q4"":6,""Q5"":6,""Q6"":6,""Q7"":6,""Q8"":6,""Q9"":6,""Q10"":6,""Q11"":6,""Q12"":6,""Q13"":6}",,,likert_race
39661,,,survey-likert,427,3250636,0.0-23.0,40703,List1B,black,man,,,,,"{""Q0"":6,""Q1"":6,""Q2"":6,""Q3"":6,""Q4"":6,""Q5"":6,""Q6"":6,""Q7"":6,""Q8"":6,""Q9"":6,""Q10"":6,""Q11"":6,""Q12"":6,""Q13"":6}",,,likert_gender
9572,,,survey-text,428,3260214,0.0-24.0,40703,List1B,black,man,,,,,"{""Q0"":""ccc""}",,,worker_id
17375,,,external-html,429,3277988,0.0-25.0,40703,List1B,black,man,debrief.html,,,,,,,
