rt,stimulus,button_pressed,trial_type,trial_index,time_elapsed,internal_node_id,subject,list,ppt_race,ppt_gender,url,first_guess,correct,key_press,responses,image_type,phrase_type,test_part
9516,Welcome to the experiment. Press Continue to begin.,0,html-button-response,0,9521,0.0-0.0,41312,List2A,black,man,,,,,,,,
60386,,,external-html,1,71187,0.0-1.0,41312,List2A,black,man,consent.html,,,,,,,
16085,"<p>On the next page, you will see portraits of 8 people and their names.</p><p>Your first task is to take a few minutes to memorise the names of these people.</p><p>You will have to recall their names during the rest of the experiment, so it is</p><p>essential that you try to memorise these people and their names as best as you can.</p><br><p><strong>You will then be tested on your memory of these names and portraits.</strong></p><br><p>The experiment will start after you have completed this memory test.</p><br><p>Ready?</p>",0,html-button-response,2,87274,0.0-2.0,41312,List2A,black,man,,,,,,,,
37626,"<img src='img/portrait_matrix_list2.JPG' style='width:900px;height:500px;''></img><p>If you have memorised all the portraits and names and are ready to start, press Continue.</p><p><strong>Please note: Your memory of these faces will be tested 4 times during this experiment.</strong></p>",0,html-button-response,3,125902,0.0-3.0-0.0,41312,List2A,black,man,,,,,,,,
4945,"<img src=""portrait/BW2.jpg""style=""width:400px;height:400px;""></img>",2,html-button-response,4,131850,0.0-3.0-1.0,41312,List2A,black,man,,TRUE,2,,,,,
null,CORRECT,,html-keyboard-response,5,133360,0.0-3.0-2.0-0.0,41312,List2A,black,man,,,,null,,,,
4823,"<img src=""portrait/WM1.jpg""style=""width:400px;height:400px;""></img>",6,html-button-response,6,138186,0.0-3.0-4.0,41312,List2A,black,man,,TRUE,6,,,,,
null,CORRECT,,html-keyboard-response,7,139689,0.0-3.0-5.0-0.0,41312,List2A,black,man,,,,null,,,,
4527,"<img src=""portrait/BW1.jpg""style=""width:400px;height:400px;""></img>",0,html-button-response,8,144218,0.0-3.0-7.0,41312,List2A,black,man,,TRUE,0,,,,,
null,CORRECT,,html-keyboard-response,9,145724,0.0-3.0-8.0-0.0,41312,List2A,black,man,,,,null,,,,
5174,"<img src=""portrait/WW1.jpg""style=""width:400px;height:400px;""></img>",1,html-button-response,10,150900,0.0-3.0-10.0,41312,List2A,black,man,,TRUE,1,,,,,
null,CORRECT,,html-keyboard-response,11,152405,0.0-3.0-11.0-0.0,41312,List2A,black,man,,,,null,,,,
5382,"<img src=""portrait/WM2.jpg""style=""width:400px;height:400px;""></img>",7,html-button-response,12,157790,0.0-3.0-13.0,41312,List2A,black,man,,TRUE,7,,,,,
null,CORRECT,,html-keyboard-response,13,159294,0.0-3.0-14.0-0.0,41312,List2A,black,man,,,,null,,,,
5813,"<img src=""portrait/BM1.jpg""style=""width:400px;height:400px;""></img>",4,html-button-response,14,165109,0.0-3.0-16.0,41312,List2A,black,man,,TRUE,4,,,,,
null,CORRECT,,html-keyboard-response,15,166614,0.0-3.0-17.0-0.0,41312,List2A,black,man,,,,null,,,,
3302,"<img src=""portrait/BM2.jpg""style=""width:400px;height:400px;""></img>",5,html-button-response,16,169918,0.0-3.0-19.0,41312,List2A,black,man,,TRUE,5,,,,,
null,CORRECT,,html-keyboard-response,17,171421,0.0-3.0-20.0-0.0,41312,List2A,black,man,,,,null,,,,
4352,"<img src=""portrait/WW2.jpg""style=""width:400px;height:400px;""></img>",3,html-button-response,18,175775,0.0-3.0-22.0,41312,List2A,black,man,,TRUE,3,,,,,
null,CORRECT,,html-keyboard-response,19,177279,0.0-3.0-23.0-0.0,41312,List2A,black,man,,,,null,,,,
3477,<p>You got 8 out of 8 right first time. Press Continue.</p>,0,html-button-response,20,180759,0.0-3.0-25.0,41312,List2A,black,man,,,,,,,,
38057,"<p>In this experiment, you will view photographs of the people from the memory game interacting.</p><p>By using the <strong>exact</strong> phrase given <i>after</i> the photograph appears and recalling the correct names of the people in the photographs, form a sentence describing the interaction. You do not need to capitalise names.</p><p>Type your answer in the space provided. Please complete every sentence before moving onto the next trial.</p><p>You will only have a few seconds to memorise each given photograph and phrase before you can respond, so try your best to focus.</p><p>An example is given below. Press 'Continue' when you are ready.</p><img src='img/speaking_example_v2.jpg' style='width:800px;height:460px;''></img>",0,html-button-response,21,219820,0.0-4.0,41312,List2A,black,man,,,,,,,,
4607,"<p>Before the experiment starts, you will watch two example trials. Press 'Continue'.</p>",0,html-button-response,22,225429,0.0-5.0,41312,List2A,black,man,,,,,,,,
null,<img src='img/speaking_WW.gif'></img>,,html-keyboard-response,23,228434,0.0-6.0,41312,List2A,black,man,,,,null,,,,
null,<p>is speaking to</p>,,html-keyboard-response,24,230437,0.0-7.0,41312,List2A,black,man,,,,null,,,,
5446,<p><b>Answer:</b> jane is speaking to ruth</p>,0,html-button-response,25,235884,0.0-8.0,41312,List2A,black,man,,,,,,,,
null,<img src='img/pointing_BM.gif'></img>,,html-keyboard-response,26,238888,0.0-9.0,41312,List2A,black,man,,,,null,,,,
null,<p>are pointing at each other</p>,,html-keyboard-response,27,240890,0.0-10.0,41312,List2A,black,man,,,,null,,,,
11372,<p><b>Answer:</b> fred and mike are pointing at each other</p>,0,html-button-response,28,252264,0.0-11.0,41312,List2A,black,man,,,,,,,,
14222,"<p>Ready to start the experiment?</p><br><p><strong>Remember to describe the picture using a full sentence,</strong></p><p><strong>that combines the names of the people with the given phrase.</strong></p><p><strong>If you do not do this correctly you will not be paid.</strong></p><p><strong> You do not need to capitalise names or use punctuation.</strong></p><br><p>Press 'Continue' to begin.</p>",0,html-button-response,29,267489,0.0-12.0,41312,List2A,black,man,,,,,,,,
null,"<div style=""font-size:60px;"">+</div>",,html-keyboard-response,30,268993,0.0-13.0-0.0,41312,List2A,black,man,,,,null,,,,
null,"<img src=""stim_listA/marry2.gif""</stim_listA>",,html-keyboard-response,31,270996,0.0-13.0-1.0,41312,List2A,black,man,,,,null,,,,
null,are marrying each other,,html-keyboard-response,32,272998,0.0-13.0-2.0,41312,List2A,black,man,,,,null,,,,
20150,,,survey-text,33,293151,0.0-13.0-3.0,41312,List2A,black,man,,,,,"{""Q0"":""luke and jane are marrying each other""}","<img src=""stim_listA/marry2.gif""</stim_listA>",are marrying each other,
null,"<div style=""font-size:60px;"">+</div>",,html-keyboard-response,34,293654,0.0-13.0-0.1,41312,List2A,black,man,,,,null,,,,
null,"<img src=""stim_listA/fight3.gif""</stim_listA>",,html-keyboard-response,35,295656,0.0-13.0-1.1,41312,List2A,black,man,,,,null,,,,
null,is fighting,,html-keyboard-response,36,297660,0.0-13.0-2.1,41312,List2A,black,man,,,,null,,,,
18183,,,survey-text,37,315845,0.0-13.0-3.1,41312,List2A,black,man,,,,,"{""Q0"":""kate and mike are fighting each other""}","<img src=""stim_listA/fight3.gif""</stim_listA>",is fighting,
null,"<div style=""font-size:60px;"">+</div>",,html-keyboard-response,38,316348,0.0-13.0-0.2,41312,List2A,black,man,,,,null,,,,
null,"<img src=""stim_listA/fight1.gif""</stim_listA>",,html-keyboard-response,39,318352,0.0-13.0-1.2,41312,List2A,black,man,,,,null,,,,
null,is fighting,,html-keyboard-response,40,320357,0.0-13.0-2.2,41312,List2A,black,man,,,,null,,,,
17505,,,survey-text,41,337864,0.0-13.0-3.2,41312,List2A,black,man,,,,,"{""Q0"":""dave and jane are fighting each other""}","<img src=""stim_listA/fight1.gif""</stim_listA>",is fighting,
null,"<div style=""font-size:60px;"">+</div>",,html-keyboard-response,42,338365,0.0-13.0-0.3,41312,List2A,black,man,,,,null,,,,
null,"<img src=""stim_listA/argue5.gif""</stim_listA>",,html-keyboard-response,43,340369,0.0-13.0-1.3,41312,List2A,black,man,,,,null,,,,
null,is arguing with,,html-keyboard-response,44,342371,0.0-13.0-2.3,41312,List2A,black,man,,,,null,,,,
16953,,,survey-text,45,359327,0.0-13.0-3.3,41312,List2A,black,man,,,,,"{""Q0"":""dave is arguing with fred""}","<img src=""stim_listA/argue5.gif""</stim_listA>",is arguing with,
null,"<div style=""font-size:60px;"">+</div>",,html-keyboard-response,46,359830,0.0-13.0-0.4,41312,List2A,black,man,,,,null,,,,
null,"<img src=""stim_listA/fight7.gif""</stim_listA>",,html-keyboard-response,47,361834,0.0-13.0-1.4,41312,List2A,black,man,,,,null,,,,
null,is fighting,,html-keyboard-response,48,363836,0.0-13.0-2.4,41312,List2A,black,man,,,,null,,,,
13852,,,survey-text,49,377690,0.0-13.0-3.4,41312,List2A,black,man,,,,,"{""Q0"":""kate is fighting with jane""}","<img src=""stim_listA/fight7.gif""</stim_listA>",is fighting,
null,"<div style=""font-size:60px;"">+</div>",,html-keyboard-response,50,378192,0.0-13.0-0.5,41312,List2A,black,man,,,,null,,,,
null,"<img src=""stim_listA/talk3.gif""</stim_listA>",,html-keyboard-response,51,380195,0.0-13.0-1.5,41312,List2A,black,man,,,,null,,,,
null,is talking to,,html-keyboard-response,52,382197,0.0-13.0-2.5,41312,List2A,black,man,,,,null,,,,
9429,,,survey-text,53,391627,0.0-13.0-3.5,41312,List2A,black,man,,,,,"{""Q0"":""kate is talking to fred""}","<img src=""stim_listA/talk3.gif""</stim_listA>",is talking to,
null,"<div style=""font-size:60px;"">+</div>",,html-keyboard-response,54,392129,0.0-13.0-0.6,41312,List2A,black,man,,,,null,,,,
null,"<img src=""stim_listA/marry1.gif""</stim_listA>",,html-keyboard-response,55,394130,0.0-13.0-1.6,41312,List2A,black,man,,,,null,,,,
null,is marrying,,html-keyboard-response,56,396132,0.0-13.0-2.6,41312,List2A,black,man,,,,null,,,,
12771,,,survey-text,57,408904,0.0-13.0-3.6,41312,List2A,black,man,,,,,"{""Q0"":""dave is marrying ruth""}","<img src=""stim_listA/marry1.gif""</stim_listA>",is marrying,
null,"<div style=""font-size:60px;"">+</div>",,html-keyboard-response,58,409406,0.0-13.0-0.7,41312,List2A,black,man,,,,null,,,,
null,"<img src=""stim_listA/dance5.gif""</stim_listA>",,html-keyboard-response,59,411408,0.0-13.0-1.7,41312,List2A,black,man,,,,null,,,,
null,is dancing with,,html-keyboard-response,60,413410,0.0-13.0-2.7,41312,List2A,black,man,,,,null,,,,
14480,,,survey-text,61,427892,0.0-13.0-3.7,41312,List2A,black,man,,,,,"{""Q0"":""luke is dancing with mike""}","<img src=""stim_listA/dance5.gif""</stim_listA>",is dancing with,
null,"<div style=""font-size:60px;"">+</div>",,html-keyboard-response,62,428394,0.0-13.0-0.8,41312,List2A,black,man,,,,null,,,,
null,"<img src=""stim_listA/touch7.gif""</stim_listA>",,html-keyboard-response,63,430397,0.0-13.0-1.8,41312,List2A,black,man,,,,null,,,,
null,is touching,,html-keyboard-response,64,432401,0.0-13.0-2.8,41312,List2A,black,man,,,,null,,,,
14968,,,survey-text,65,447370,0.0-13.0-3.8,41312,List2A,black,man,,,,,"{""Q0"":""jane is touching kate""}","<img src=""stim_listA/touch7.gif""</stim_listA>",is touching,
null,"<div style=""font-size:60px;"">+</div>",,html-keyboard-response,66,447873,0.0-13.0-0.9,41312,List2A,black,man,,,,null,,,,
null,"<img src=""stim_listA/kiss6.gif""</stim_listA>",,html-keyboard-response,67,449876,0.0-13.0-1.9,41312,List2A,black,man,,,,null,,,,
null,are kissing each other,,html-keyboard-response,68,451878,0.0-13.0-2.9,41312,List2A,black,man,,,,null,,,,
13157,,,survey-text,69,465037,0.0-13.0-3.9,41312,List2A,black,man,,,,,"{""Q0"":""mike and dave are kissing each other""}","<img src=""stim_listA/kiss6.gif""</stim_listA>",are kissing each other,
null,"<div style=""font-size:60px;"">+</div>",,html-keyboard-response,70,465539,0.0-13.0-0.10,41312,List2A,black,man,,,,null,,,,
null,"<img src=""stim_listA/fight6.gif""</stim_listA>",,html-keyboard-response,71,467544,0.0-13.0-1.10,41312,List2A,black,man,,,,null,,,,
null,are fighting each other,,html-keyboard-response,72,469546,0.0-13.0-2.10,41312,List2A,black,man,,,,null,,,,
17909,,,survey-text,73,487456,0.0-13.0-3.10,41312,List2A,black,man,,,,,"{""Q0"":""luke and fred are fighting each other""}","<img src=""stim_listA/fight6.gif""</stim_listA>",are fighting each other,
null,"<div style=""font-size:60px;"">+</div>",,html-keyboard-response,74,487958,0.0-13.0-0.11,41312,List2A,black,man,,,,null,,,,
null,"<img src=""stim_listA/hug7.gif""</stim_listA>",,html-keyboard-response,75,489960,0.0-13.0-1.11,41312,List2A,black,man,,,,null,,,,
null,is hugging,,html-keyboard-response,76,491962,0.0-13.0-2.11,41312,List2A,black,man,,,,null,,,,
12977,,,survey-text,77,504940,0.0-13.0-3.11,41312,List2A,black,man,,,,,"{""Q0"":""beth and ruth are hugging""}","<img src=""stim_listA/hug7.gif""</stim_listA>",is hugging,
null,"<div style=""font-size:60px;"">+</div>",,html-keyboard-response,78,505443,0.0-13.0-0.12,41312,List2A,black,man,,,,null,,,,
null,"<img src=""stim_listA/touch6.gif""</stim_listA>",,html-keyboard-response,79,507447,0.0-13.0-1.12,41312,List2A,black,man,,,,null,,,,
null,are touching each other,,html-keyboard-response,80,509449,0.0-13.0-2.12,41312,List2A,black,man,,,,null,,,,
15471,,,survey-text,81,524927,0.0-13.0-3.12,41312,List2A,black,man,,,,,"{""Q0"":""mike and fred are touching each other""}","<img src=""stim_listA/touch6.gif""</stim_listA>",are touching each other,
null,"<div style=""font-size:60px;"">+</div>",,html-keyboard-response,82,525429,0.0-13.0-0.13,41312,List2A,black,man,,,,null,,,,
null,"<img src=""stim_listA/dance3.gif""</stim_listA>",,html-keyboard-response,83,527433,0.0-13.0-1.13,41312,List2A,black,man,,,,null,,,,
null,is dancing with,,html-keyboard-response,84,529436,0.0-13.0-2.13,41312,List2A,black,man,,,,null,,,,
11651,,,survey-text,85,541088,0.0-13.0-3.13,41312,List2A,black,man,,,,,"{""Q0"":""fred is dancing with kate""}","<img src=""stim_listA/dance3.gif""</stim_listA>",is dancing with,
null,"<div style=""font-size:60px;"">+</div>",,html-keyboard-response,86,541589,0.0-13.0-0.14,41312,List2A,black,man,,,,null,,,,
null,"<img src=""stim_listA/argue2.gif""</stim_listA>",,html-keyboard-response,87,543593,0.0-13.0-1.14,41312,List2A,black,man,,,,null,,,,
null,are arguing with each other,,html-keyboard-response,88,545596,0.0-13.0-2.14,41312,List2A,black,man,,,,null,,,,
33763,,,survey-text,89,579361,0.0-13.0-3.14,41312,List2A,black,man,,,,,"{""Q0"":""jane is arguing with luke""}","<img src=""stim_listA/argue2.gif""</stim_listA>",are arguing with each other,
null,"<div style=""font-size:60px;"">+</div>",,html-keyboard-response,90,579862,0.0-13.0-0.15,41312,List2A,black,man,,,,null,,,,
null,"<img src=""stim_listA/kiss7.gif""</stim_listA>",,html-keyboard-response,91,581865,0.0-13.0-1.15,41312,List2A,black,man,,,,null,,,,
null,is kissing,,html-keyboard-response,92,583868,0.0-13.0-2.15,41312,List2A,black,man,,,,null,,,,
12533,,,survey-text,93,596402,0.0-13.0-3.15,41312,List2A,black,man,,,,,"{""Q0"":""beth is kissing ruth""}","<img src=""stim_listA/kiss7.gif""</stim_listA>",is kissing,
null,"<div style=""font-size:60px;"">+</div>",,html-keyboard-response,94,596904,0.0-13.0-0.16,41312,List2A,black,man,,,,null,,,,
null,"<img src=""stim_listA/dance2.gif""</stim_listA>",,html-keyboard-response,95,598908,0.0-13.0-1.16,41312,List2A,black,man,,,,null,,,,
null,are dancing with each other,,html-keyboard-response,96,600910,0.0-13.0-2.16,41312,List2A,black,man,,,,null,,,,
20088,,,survey-text,97,621000,0.0-13.0-3.16,41312,List2A,black,man,,,,,"{""Q0"":""ruth is dancing with dave""}","<img src=""stim_listA/dance2.gif""</stim_listA>",are dancing with each other,
null,"<div style=""font-size:60px;"">+</div>",,html-keyboard-response,98,621502,0.0-13.0-0.17,41312,List2A,black,man,,,,null,,,,
null,"<img src=""stim_listA/touch2.gif""</stim_listA>",,html-keyboard-response,99,623506,0.0-13.0-1.17,41312,List2A,black,man,,,,null,,,,
null,are touching each other,,html-keyboard-response,100,625508,0.0-13.0-2.17,41312,List2A,black,man,,,,null,,,,
20265,,,survey-text,101,645775,0.0-13.0-3.17,41312,List2A,black,man,,,,,"{""Q0"":""luke and ruth are touching""}","<img src=""stim_listA/touch2.gif""</stim_listA>",are touching each other,
null,"<div style=""font-size:60px;"">+</div>",,html-keyboard-response,102,646276,0.0-13.0-0.18,41312,List2A,black,man,,,,null,,,,
null,"<img src=""stim_listA/marry5.gif""</stim_listA>",,html-keyboard-response,103,648280,0.0-13.0-1.18,41312,List2A,black,man,,,,null,,,,
null,is marrying,,html-keyboard-response,104,650282,0.0-13.0-2.18,41312,List2A,black,man,,,,null,,,,
15236,,,survey-text,105,665520,0.0-13.0-3.18,41312,List2A,black,man,,,,,"{""Q0"":""fred is marrying dave""}","<img src=""stim_listA/marry5.gif""</stim_listA>",is marrying,
null,"<div style=""font-size:60px;"">+</div>",,html-keyboard-response,106,666023,0.0-13.0-0.19,41312,List2A,black,man,,,,null,,,,
null,"<img src=""stim_listA/marry3.gif""</stim_listA>",,html-keyboard-response,107,668025,0.0-13.0-1.19,41312,List2A,black,man,,,,null,,,,
null,is marrying,,html-keyboard-response,108,670028,0.0-13.0-2.19,41312,List2A,black,man,,,,null,,,,
10308,,,survey-text,109,680338,0.0-13.0-3.19,41312,List2A,black,man,,,,,"{""Q0"":""ruth is marrying mike""}","<img src=""stim_listA/marry3.gif""</stim_listA>",is marrying,
12528,"<img src='img/portrait_matrix_list2.JPG' style='width:900px;height:500px;''></img><p>If you have memorised all the portraits and names and are ready to start, press Continue.</p><p><strong>Please note: Your memory of these faces will be tested 4 times during this experiment.</strong></p>",0,html-button-response,110,692867,0.0-14.0-0.0,41312,List2A,black,man,,,,,,,,
3989,"<img src=""portrait/WW1.jpg""style=""width:400px;height:400px;""></img>",1,html-button-response,111,697861,0.0-14.0-1.0,41312,List2A,black,man,,TRUE,1,,,,,
null,CORRECT,,html-keyboard-response,112,699365,0.0-14.0-2.0-0.0,41312,List2A,black,man,,,,null,,,,
3989,"<img src=""portrait/WM2.jpg""style=""width:400px;height:400px;""></img>",7,html-button-response,113,703356,0.0-14.0-4.0,41312,List2A,black,man,,TRUE,7,,,,,
null,CORRECT,,html-keyboard-response,114,704862,0.0-14.0-5.0-0.0,41312,List2A,black,man,,,,null,,,,
2998,"<img src=""portrait/WW2.jpg""style=""width:400px;height:400px;""></img>",3,html-button-response,115,707863,0.0-14.0-7.0,41312,List2A,black,man,,TRUE,3,,,,,
null,CORRECT,,html-keyboard-response,116,709365,0.0-14.0-8.0-0.0,41312,List2A,black,man,,,,null,,,,
2918,"<img src=""portrait/BW2.jpg""style=""width:400px;height:400px;""></img>",2,html-button-response,117,712286,0.0-14.0-10.0,41312,List2A,black,man,,TRUE,2,,,,,
null,CORRECT,,html-keyboard-response,118,713789,0.0-14.0-11.0-0.0,41312,List2A,black,man,,,,null,,,,
3328,"<img src=""portrait/BM1.jpg""style=""width:400px;height:400px;""></img>",4,html-button-response,119,717119,0.0-14.0-13.0,41312,List2A,black,man,,TRUE,4,,,,,
null,CORRECT,,html-keyboard-response,120,718621,0.0-14.0-14.0-0.0,41312,List2A,black,man,,,,null,,,,
3277,"<img src=""portrait/BM2.jpg""style=""width:400px;height:400px;""></img>",5,html-button-response,121,721901,0.0-14.0-16.0,41312,List2A,black,man,,TRUE,5,,,,,
null,CORRECT,,html-keyboard-response,122,723404,0.0-14.0-17.0-0.0,41312,List2A,black,man,,,,null,,,,
2968,"<img src=""portrait/BW1.jpg""style=""width:400px;height:400px;""></img>",0,html-button-response,123,726374,0.0-14.0-19.0,41312,List2A,black,man,,TRUE,0,,,,,
null,CORRECT,,html-keyboard-response,124,727878,0.0-14.0-20.0-0.0,41312,List2A,black,man,,,,null,,,,
2879,"<img src=""portrait/WM1.jpg""style=""width:400px;height:400px;""></img>",6,html-button-response,125,730760,0.0-14.0-22.0,41312,List2A,black,man,,TRUE,6,,,,,
null,CORRECT,,html-keyboard-response,126,732263,0.0-14.0-23.0-0.0,41312,List2A,black,man,,,,null,,,,
2473,<p>You got 8 out of 8 right first time. Press Continue.</p>,0,html-button-response,127,734739,0.0-14.0-25.0,41312,List2A,black,man,,,,,,,,
null,"<div style=""font-size:60px;"">+</div>",,html-keyboard-response,128,736243,0.0-15.0-0.0,41312,List2A,black,man,,,,null,,,,
null,"<img src=""stim_listA/hug1.gif""</stim_listA>",,html-keyboard-response,129,738246,0.0-15.0-1.0,41312,List2A,black,man,,,,null,,,,
null,is hugging,,html-keyboard-response,130,740248,0.0-15.0-2.0,41312,List2A,black,man,,,,null,,,,
10249,,,survey-text,131,750499,0.0-15.0-3.0,41312,List2A,black,man,,,,,"{""Q0"":""luke is hugging ruth""}","<img src=""stim_listA/hug1.gif""</stim_listA>",is hugging,
null,"<div style=""font-size:60px;"">+</div>",,html-keyboard-response,132,751001,0.0-15.0-0.1,41312,List2A,black,man,,,,null,,,,
null,"<img src=""stim_listA/touch8.gif""</stim_listA>",,html-keyboard-response,133,753004,0.0-15.0-1.1,41312,List2A,black,man,,,,null,,,,
null,are touching each other,,html-keyboard-response,134,755006,0.0-15.0-2.1,41312,List2A,black,man,,,,null,,,,
11813,,,survey-text,135,766821,0.0-15.0-3.1,41312,List2A,black,man,,,,,"{""Q0"":""ruth and beth are touching each other""}","<img src=""stim_listA/touch8.gif""</stim_listA>",are touching each other,
null,"<div style=""font-size:60px;"">+</div>",,html-keyboard-response,136,767323,0.0-15.0-0.2,41312,List2A,black,man,,,,null,,,,
null,"<img src=""stim_listA/hug2.gif""</stim_listA>",,html-keyboard-response,137,769327,0.0-15.0-1.2,41312,List2A,black,man,,,,null,,,,
null,are hugging each other,,html-keyboard-response,138,771330,0.0-15.0-2.2,41312,List2A,black,man,,,,null,,,,
12939,,,survey-text,139,784271,0.0-15.0-3.2,41312,List2A,black,man,,,,,"{""Q0"":""jane and dave are hugging""}","<img src=""stim_listA/hug2.gif""</stim_listA>",are hugging each other,
null,"<div style=""font-size:60px;"">+</div>",,html-keyboard-response,140,784775,0.0-15.0-0.3,41312,List2A,black,man,,,,null,,,,
null,"<img src=""stim_listA/marry4.gif""</stim_listA>",,html-keyboard-response,141,786777,0.0-15.0-1.3,41312,List2A,black,man,,,,null,,,,
null,are marrying each other,,html-keyboard-response,142,788780,0.0-15.0-2.3,41312,List2A,black,man,,,,null,,,,
13692,,,survey-text,143,802474,0.0-15.0-3.3,41312,List2A,black,man,,,,,"{""Q0"":""fred and kate are marrying each other""}","<img src=""stim_listA/marry4.gif""</stim_listA>",are marrying each other,
null,"<div style=""font-size:60px;"">+</div>",,html-keyboard-response,144,802977,0.0-15.0-0.4,41312,List2A,black,man,,,,null,,,,
null,"<img src=""stim_listA/dance6.gif""</stim_listA>",,html-keyboard-response,145,804981,0.0-15.0-1.4,41312,List2A,black,man,,,,null,,,,
null,are dancing with each other,,html-keyboard-response,146,806983,0.0-15.0-2.4,41312,List2A,black,man,,,,null,,,,
16298,,,survey-text,147,823282,0.0-15.0-3.4,41312,List2A,black,man,,,,,"{""Q0"":""fred and dave are dancing""}","<img src=""stim_listA/dance6.gif""</stim_listA>",are dancing with each other,
null,"<div style=""font-size:60px;"">+</div>",,html-keyboard-response,148,823785,0.0-15.0-0.5,41312,List2A,black,man,,,,null,,,,
null,"<img src=""stim_listA/dance7.gif""</stim_listA>",,html-keyboard-response,149,825790,0.0-15.0-1.5,41312,List2A,black,man,,,,null,,,,
null,is dancing with,,html-keyboard-response,150,827792,0.0-15.0-2.5,41312,List2A,black,man,,,,null,,,,
11322,,,survey-text,151,839116,0.0-15.0-3.5,41312,List2A,black,man,,,,,"{""Q0"":""kate is dancing with ruth""}","<img src=""stim_listA/dance7.gif""</stim_listA>",is dancing with,
null,"<div style=""font-size:60px;"">+</div>",,html-keyboard-response,152,839618,0.0-15.0-0.6,41312,List2A,black,man,,,,null,,,,
null,"<img src=""stim_listA/kiss4.gif""</stim_listA>",,html-keyboard-response,153,841621,0.0-15.0-1.6,41312,List2A,black,man,,,,null,,,,
null,are kissing each other,,html-keyboard-response,154,843622,0.0-15.0-2.6,41312,List2A,black,man,,,,null,,,,
10383,,,survey-text,155,854006,0.0-15.0-3.6,41312,List2A,black,man,,,,,"{""Q0"":""kate and mike are kissing each other""}","<img src=""stim_listA/kiss4.gif""</stim_listA>",are kissing each other,
null,"<div style=""font-size:60px;"">+</div>",,html-keyboard-response,156,854508,0.0-15.0-0.7,41312,List2A,black,man,,,,null,,,,
null,"<img src=""stim_listA/touch4.gif""</stim_listA>",,html-keyboard-response,157,856511,0.0-15.0-1.7,41312,List2A,black,man,,,,null,,,,
null,are touching each other,,html-keyboard-response,158,858514,0.0-15.0-2.7,41312,List2A,black,man,,,,null,,,,
11860,,,survey-text,159,870375,0.0-15.0-3.7,41312,List2A,black,man,,,,,"{""Q0"":""beth and fred are touching each other""}","<img src=""stim_listA/touch4.gif""</stim_listA>",are touching each other,
null,"<div style=""font-size:60px;"">+</div>",,html-keyboard-response,160,870877,0.0-15.0-0.8,41312,List2A,black,man,,,,null,,,,
null,"<img src=""stim_listA/hug4.gif""</stim_listA>",,html-keyboard-response,161,872881,0.0-15.0-1.8,41312,List2A,black,man,,,,null,,,,
null,are hugging each other,,html-keyboard-response,162,874884,0.0-15.0-2.8,41312,List2A,black,man,,,,null,,,,
12897,,,survey-text,163,887781,0.0-15.0-3.8,41312,List2A,black,man,,,,,"{""Q0"":""kate and mike are hugging each other""}","<img src=""stim_listA/hug4.gif""</stim_listA>",are hugging each other,
null,"<div style=""font-size:60px;"">+</div>",,html-keyboard-response,164,888283,0.0-15.0-0.9,41312,List2A,black,man,,,,null,,,,
null,"<img src=""stim_listA/argue1.gif""</stim_listA>",,html-keyboard-response,165,890286,0.0-15.0-1.9,41312,List2A,black,man,,,,null,,,,
null,is arguing with,,html-keyboard-response,166,892288,0.0-15.0-2.9,41312,List2A,black,man,,,,null,,,,
13839,,,survey-text,167,906129,0.0-15.0-3.9,41312,List2A,black,man,,,,,"{""Q0"":""dave is arguing with jane""}","<img src=""stim_listA/argue1.gif""</stim_listA>",is arguing with,
null,"<div style=""font-size:60px;"">+</div>",,html-keyboard-response,168,906631,0.0-15.0-0.10,41312,List2A,black,man,,,,null,,,,
null,"<img src=""stim_listA/kiss1.gif""</stim_listA>",,html-keyboard-response,169,908634,0.0-15.0-1.10,41312,List2A,black,man,,,,null,,,,
null,is kissing,,html-keyboard-response,170,910636,0.0-15.0-2.10,41312,List2A,black,man,,,,null,,,,
6766,,,survey-text,171,917403,0.0-15.0-3.10,41312,List2A,black,man,,,,,"{""Q0"":""luke is kissing ruth""}","<img src=""stim_listA/kiss1.gif""</stim_listA>",is kissing,
null,"<div style=""font-size:60px;"">+</div>",,html-keyboard-response,172,917905,0.0-15.0-0.11,41312,List2A,black,man,,,,null,,,,
null,"<img src=""stim_listA/fight4.gif""</stim_listA>",,html-keyboard-response,173,919907,0.0-15.0-1.11,41312,List2A,black,man,,,,null,,,,
null,are fighting each other,,html-keyboard-response,174,921908,0.0-15.0-2.11,41312,List2A,black,man,,,,null,,,,
11501,,,survey-text,175,933413,0.0-15.0-3.11,41312,List2A,black,man,,,,,"{""Q0"":""beth and fred are fighting each other""}","<img src=""stim_listA/fight4.gif""</stim_listA>",are fighting each other,
null,"<div style=""font-size:60px;"">+</div>",,html-keyboard-response,176,933916,0.0-15.0-0.12,41312,List2A,black,man,,,,null,,,,
null,"<img src=""stim_listA/dance8.gif""</stim_listA>",,html-keyboard-response,177,935920,0.0-15.0-1.12,41312,List2A,black,man,,,,null,,,,
null,are dancing with each other,,html-keyboard-response,178,937923,0.0-15.0-2.12,41312,List2A,black,man,,,,null,,,,
15816,,,survey-text,179,953741,0.0-15.0-3.12,41312,List2A,black,man,,,,,"{""Q0"":""beth and ruth are dancing with each other""}","<img src=""stim_listA/dance8.gif""</stim_listA>",are dancing with each other,
null,"<div style=""font-size:60px;"">+</div>",,html-keyboard-response,180,954243,0.0-15.0-0.13,41312,List2A,black,man,,,,null,,,,
null,"<img src=""stim_listA/meet5.gif""</stim_listA>",,html-keyboard-response,181,956247,0.0-15.0-1.13,41312,List2A,black,man,,,,null,,,,
null,is meeting,,html-keyboard-response,182,958249,0.0-15.0-2.13,41312,List2A,black,man,,,,null,,,,
13308,,,survey-text,183,971558,0.0-15.0-3.13,41312,List2A,black,man,,,,,"{""Q0"":""mike is meeting dave""}","<img src=""stim_listA/meet5.gif""</stim_listA>",is meeting,
null,"<div style=""font-size:60px;"">+</div>",,html-keyboard-response,184,972061,0.0-15.0-0.14,41312,List2A,black,man,,,,null,,,,
null,"<img src=""stim_listA/shout7.gif""</stim_listA>",,html-keyboard-response,185,974064,0.0-15.0-1.14,41312,List2A,black,man,,,,null,,,,
null,is shouting at,,html-keyboard-response,186,976066,0.0-15.0-2.14,41312,List2A,black,man,,,,null,,,,
13094,,,survey-text,187,989161,0.0-15.0-3.14,41312,List2A,black,man,,,,,"{""Q0"":""ruth is shouting at kate""}","<img src=""stim_listA/shout7.gif""</stim_listA>",is shouting at,
null,"<div style=""font-size:60px;"">+</div>",,html-keyboard-response,188,989664,0.0-15.0-0.15,41312,List2A,black,man,,,,null,,,,
null,"<img src=""stim_listA/talk1.gif""</stim_listA>",,html-keyboard-response,189,991667,0.0-15.0-1.15,41312,List2A,black,man,,,,null,,,,
null,is talking to,,html-keyboard-response,190,993670,0.0-15.0-2.15,41312,List2A,black,man,,,,null,,,,
12876,,,survey-text,191,1006547,0.0-15.0-3.15,41312,List2A,black,man,,,,,"{""Q0"":""jane is talking to luke""}","<img src=""stim_listA/talk1.gif""</stim_listA>",is talking to,
null,"<div style=""font-size:60px;"">+</div>",,html-keyboard-response,192,1007051,0.0-15.0-0.16,41312,List2A,black,man,,,,null,,,,
null,"<img src=""stim_listA/meet7.gif""</stim_listA>",,html-keyboard-response,193,1009055,0.0-15.0-1.16,41312,List2A,black,man,,,,null,,,,
null,is meeting,,html-keyboard-response,194,1011058,0.0-15.0-2.16,41312,List2A,black,man,,,,null,,,,
9448,,,survey-text,195,1020508,0.0-15.0-3.16,41312,List2A,black,man,,,,,"{""Q0"":""jane is meeting kate""}","<img src=""stim_listA/meet7.gif""</stim_listA>",is meeting,
null,"<div style=""font-size:60px;"">+</div>",,html-keyboard-response,196,1021010,0.0-15.0-0.17,41312,List2A,black,man,,,,null,,,,
null,"<img src=""stim_listA/shout1.gif""</stim_listA>",,html-keyboard-response,197,1023014,0.0-15.0-1.17,41312,List2A,black,man,,,,null,,,,
null,is shouting at,,html-keyboard-response,198,1025016,0.0-15.0-2.17,41312,List2A,black,man,,,,null,,,,
7742,,,survey-text,199,1032759,0.0-15.0-3.17,41312,List2A,black,man,,,,,"{""Q0"":""luke is shouting at ruth""}","<img src=""stim_listA/shout1.gif""</stim_listA>",is shouting at,
null,"<div style=""font-size:60px;"">+</div>",,html-keyboard-response,200,1033262,0.0-15.0-0.18,41312,List2A,black,man,,,,null,,,,
null,"<img src=""stim_listA/shout5.gif""</stim_listA>",,html-keyboard-response,201,1035263,0.0-15.0-1.18,41312,List2A,black,man,,,,null,,,,
null,is shouting at,,html-keyboard-response,202,1037266,0.0-15.0-2.18,41312,List2A,black,man,,,,null,,,,
8333,,,survey-text,203,1045600,0.0-15.0-3.18,41312,List2A,black,man,,,,,"{""Q0"":""luke is shouting at fred""}","<img src=""stim_listA/shout5.gif""</stim_listA>",is shouting at,
null,"<div style=""font-size:60px;"">+</div>",,html-keyboard-response,204,1046102,0.0-15.0-0.19,41312,List2A,black,man,,,,null,,,,
null,"<img src=""stim_listA/kiss2.gif""</stim_listA>",,html-keyboard-response,205,1048105,0.0-15.0-1.19,41312,List2A,black,man,,,,null,,,,
null,are kissing each other,,html-keyboard-response,206,1050108,0.0-15.0-2.19,41312,List2A,black,man,,,,null,,,,
9574,,,survey-text,207,1059684,0.0-15.0-3.19,41312,List2A,black,man,,,,,"{""Q0"":""jane and dave are kissing each other""}","<img src=""stim_listA/kiss2.gif""</stim_listA>",are kissing each other,
10600,"<img src='img/portrait_matrix_list2.JPG' style='width:900px;height:500px;''></img><p>If you have memorised all the portraits and names and are ready to start, press Continue.</p><p><strong>Please note: Your memory of these faces will be tested 4 times during this experiment.</strong></p>",0,html-button-response,208,1070286,0.0-16.0-0.0,41312,List2A,black,man,,,,,,,,
3043,"<img src=""portrait/BW2.jpg""style=""width:400px;height:400px;""></img>",2,html-button-response,209,1074334,0.0-16.0-1.0,41312,List2A,black,man,,TRUE,2,,,,,
null,CORRECT,,html-keyboard-response,210,1075838,0.0-16.0-2.0-0.0,41312,List2A,black,man,,,,null,,,,
2383,"<img src=""portrait/BM2.jpg""style=""width:400px;height:400px;""></img>",5,html-button-response,211,1078223,0.0-16.0-4.0,41312,List2A,black,man,,TRUE,5,,,,,
null,CORRECT,,html-keyboard-response,212,1079727,0.0-16.0-5.0-0.0,41312,List2A,black,man,,,,null,,,,
2463,"<img src=""portrait/BM1.jpg""style=""width:400px;height:400px;""></img>",4,html-button-response,213,1082192,0.0-16.0-7.0,41312,List2A,black,man,,TRUE,4,,,,,
null,CORRECT,,html-keyboard-response,214,1083696,0.0-16.0-8.0-0.0,41312,List2A,black,man,,,,null,,,,
3446,"<img src=""portrait/WM2.jpg""style=""width:400px;height:400px;""></img>",7,html-button-response,215,1087144,0.0-16.0-10.0,41312,List2A,black,man,,TRUE,7,,,,,
null,CORRECT,,html-keyboard-response,216,1088647,0.0-16.0-11.0-0.0,41312,List2A,black,man,,,,null,,,,
2728,"<img src=""portrait/WW2.jpg""style=""width:400px;height:400px;""></img>",3,html-button-response,217,1091377,0.0-16.0-13.0,41312,List2A,black,man,,TRUE,3,,,,,
null,CORRECT,,html-keyboard-response,218,1092881,0.0-16.0-14.0-0.0,41312,List2A,black,man,,,,null,,,,
2941,"<img src=""portrait/WW1.jpg""style=""width:400px;height:400px;""></img>",1,html-button-response,219,1095825,0.0-16.0-16.0,41312,List2A,black,man,,TRUE,1,,,,,
null,CORRECT,,html-keyboard-response,220,1097331,0.0-16.0-17.0-0.0,41312,List2A,black,man,,,,null,,,,
4028,"<img src=""portrait/BW1.jpg""style=""width:400px;height:400px;""></img>",0,html-button-response,221,1101362,0.0-16.0-19.0,41312,List2A,black,man,,TRUE,0,,,,,
null,CORRECT,,html-keyboard-response,222,1102867,0.0-16.0-20.0-0.0,41312,List2A,black,man,,,,null,,,,
2605,"<img src=""portrait/WM1.jpg""style=""width:400px;height:400px;""></img>",6,html-button-response,223,1105475,0.0-16.0-22.0,41312,List2A,black,man,,TRUE,6,,,,,
null,CORRECT,,html-keyboard-response,224,1106978,0.0-16.0-23.0-0.0,41312,List2A,black,man,,,,null,,,,
3142,<p>You got 8 out of 8 right first time. Press Continue.</p>,0,html-button-response,225,1110123,0.0-16.0-25.0,41312,List2A,black,man,,,,,,,,
null,"<div style=""font-size:60px;"">+</div>",,html-keyboard-response,226,1111628,0.0-17.0-0.0,41312,List2A,black,man,,,,null,,,,
null,"<img src=""stim_listA/fight8.gif""</stim_listA>",,html-keyboard-response,227,1113637,0.0-17.0-1.0,41312,List2A,black,man,,,,null,,,,
null,are fighting each other,,html-keyboard-response,228,1115641,0.0-17.0-2.0,41312,List2A,black,man,,,,null,,,,
12523,,,survey-text,229,1128166,0.0-17.0-3.0,41312,List2A,black,man,,,,,"{""Q0"":""beth and ruth are fighting each other""}","<img src=""stim_listA/fight8.gif""</stim_listA>",are fighting each other,
null,"<div style=""font-size:60px;"">+</div>",,html-keyboard-response,230,1128667,0.0-17.0-0.1,41312,List2A,black,man,,,,null,,,,
null,"<img src=""stim_listA/kiss8.gif""</stim_listA>",,html-keyboard-response,231,1130671,0.0-17.0-1.1,41312,List2A,black,man,,,,null,,,,
null,are kissing each other,,html-keyboard-response,232,1132674,0.0-17.0-2.1,41312,List2A,black,man,,,,null,,,,
10580,,,survey-text,233,1143256,0.0-17.0-3.1,41312,List2A,black,man,,,,,"{""Q0"":""jane and kate are kissing""}","<img src=""stim_listA/kiss8.gif""</stim_listA>",are kissing each other,
null,"<div style=""font-size:60px;"">+</div>",,html-keyboard-response,234,1143758,0.0-17.0-0.2,41312,List2A,black,man,,,,null,,,,
null,"<img src=""stim_listA/talk4.gif""</stim_listA>",,html-keyboard-response,235,1145760,0.0-17.0-1.2,41312,List2A,black,man,,,,null,,,,
null,are talking to each other,,html-keyboard-response,236,1147763,0.0-17.0-2.2,41312,List2A,black,man,,,,null,,,,
10933,,,survey-text,237,1158698,0.0-17.0-3.2,41312,List2A,black,man,,,,,"{""Q0"":""beth and mike are talking""}","<img src=""stim_listA/talk4.gif""</stim_listA>",are talking to each other,
null,"<div style=""font-size:60px;"">+</div>",,html-keyboard-response,238,1159200,0.0-17.0-0.3,41312,List2A,black,man,,,,null,,,,
null,"<img src=""stim_listA/meet2.gif""</stim_listA>",,html-keyboard-response,239,1161204,0.0-17.0-1.3,41312,List2A,black,man,,,,null,,,,
null,are meeting each other,,html-keyboard-response,240,1163206,0.0-17.0-2.3,41312,List2A,black,man,,,,null,,,,
8428,,,survey-text,241,1171635,0.0-17.0-3.3,41312,List2A,black,man,,,,,"{""Q0"":""luke and ruth are meeting""}","<img src=""stim_listA/meet2.gif""</stim_listA>",are meeting each other,
null,"<div style=""font-size:60px;"">+</div>",,html-keyboard-response,242,1172138,0.0-17.0-0.4,41312,List2A,black,man,,,,null,,,,
null,"<img src=""stim_listA/hug8.gif""</stim_listA>",,html-keyboard-response,243,1174141,0.0-17.0-1.4,41312,List2A,black,man,,,,null,,,,
null,are hugging each other,,html-keyboard-response,244,1176144,0.0-17.0-2.4,41312,List2A,black,man,,,,null,,,,
14092,,,survey-text,245,1190238,0.0-17.0-3.4,41312,List2A,black,man,,,,,"{""Q0"":""jane and kate are hugging each other""}","<img src=""stim_listA/hug8.gif""</stim_listA>",are hugging each other,
null,"<div style=""font-size:60px;"">+</div>",,html-keyboard-response,246,1190739,0.0-17.0-0.5,41312,List2A,black,man,,,,null,,,,
null,"<img src=""stim_listA/dance4.gif""</stim_listA>",,html-keyboard-response,247,1192742,0.0-17.0-1.5,41312,List2A,black,man,,,,null,,,,
null,are dancing with each other,,html-keyboard-response,248,1194744,0.0-17.0-2.5,41312,List2A,black,man,,,,null,,,,
16190,,,survey-text,249,1210935,0.0-17.0-3.5,41312,List2A,black,man,,,,,"{""Q0"":""mike and beth are dancing with each other""}","<img src=""stim_listA/dance4.gif""</stim_listA>",are dancing with each other,
null,"<div style=""font-size:60px;"">+</div>",,html-keyboard-response,250,1211438,0.0-17.0-0.6,41312,List2A,black,man,,,,null,,,,
null,"<img src=""stim_listA/shout4.gif""</stim_listA>",,html-keyboard-response,251,1213441,0.0-17.0-1.6,41312,List2A,black,man,,,,null,,,,
null,are shouting at each other,,html-keyboard-response,252,1215444,0.0-17.0-2.6,41312,List2A,black,man,,,,null,,,,
12978,,,survey-text,253,1228423,0.0-17.0-3.6,41312,List2A,black,man,,,,,"{""Q0"":""mike and kate are shouting at each other""}","<img src=""stim_listA/shout4.gif""</stim_listA>",are shouting at each other,
null,"<div style=""font-size:60px;"">+</div>",,html-keyboard-response,254,1228925,0.0-17.0-0.7,41312,List2A,black,man,,,,null,,,,
null,"<img src=""stim_listA/touch5.gif""</stim_listA>",,html-keyboard-response,255,1230930,0.0-17.0-1.7,41312,List2A,black,man,,,,null,,,,
null,is touching,,html-keyboard-response,256,1232932,0.0-17.0-2.7,41312,List2A,black,man,,,,null,,,,
8106,,,survey-text,257,1241040,0.0-17.0-3.7,41312,List2A,black,man,,,,,"{""Q0"":""mike is touching dave""}","<img src=""stim_listA/touch5.gif""</stim_listA>",is touching,
null,"<div style=""font-size:60px;"">+</div>",,html-keyboard-response,258,1241543,0.0-17.0-0.8,41312,List2A,black,man,,,,null,,,,
null,"<img src=""stim_listA/fight5.gif""</stim_listA>",,html-keyboard-response,259,1243546,0.0-17.0-1.8,41312,List2A,black,man,,,,null,,,,
null,is fighting,,html-keyboard-response,260,1245548,0.0-17.0-2.8,41312,List2A,black,man,,,,null,,,,
7364,,,survey-text,261,1252914,0.0-17.0-3.8,41312,List2A,black,man,,,,,"{""Q0"":""mike is fighting dave""}","<img src=""stim_listA/fight5.gif""</stim_listA>",is fighting,
null,"<div style=""font-size:60px;"">+</div>",,html-keyboard-response,262,1253417,0.0-17.0-0.9,41312,List2A,black,man,,,,null,,,,
null,"<img src=""stim_listA/argue3.gif""</stim_listA>",,html-keyboard-response,263,1255421,0.0-17.0-1.9,41312,List2A,black,man,,,,null,,,,
null,is arguing with,,html-keyboard-response,264,1257422,0.0-17.0-2.9,41312,List2A,black,man,,,,null,,,,
10434,,,survey-text,265,1267860,0.0-17.0-3.9,41312,List2A,black,man,,,,,"{""Q0"":""mike is arguing with beth""}","<img src=""stim_listA/argue3.gif""</stim_listA>",is arguing with,
null,"<div style=""font-size:60px;"">+</div>",,html-keyboard-response,266,1268362,0.0-17.0-0.10,41312,List2A,black,man,,,,null,,,,
null,"<img src=""stim_listA/shout6.gif""</stim_listA>",,html-keyboard-response,267,1270365,0.0-17.0-1.10,41312,List2A,black,man,,,,null,,,,
null,are shouting at each other,,html-keyboard-response,268,1272366,0.0-17.0-2.10,41312,List2A,black,man,,,,null,,,,
16978,,,survey-text,269,1289346,0.0-17.0-3.10,41312,List2A,black,man,,,,,"{""Q0"":""dave and mike are shouting at each other""}","<img src=""stim_listA/shout6.gif""</stim_listA>",are shouting at each other,
null,"<div style=""font-size:60px;"">+</div>",,html-keyboard-response,270,1289848,0.0-17.0-0.11,41312,List2A,black,man,,,,null,,,,
null,"<img src=""stim_listA/touch1.gif""</stim_listA>",,html-keyboard-response,271,1291852,0.0-17.0-1.11,41312,List2A,black,man,,,,null,,,,
null,is touching,,html-keyboard-response,272,1293854,0.0-17.0-2.11,41312,List2A,black,man,,,,null,,,,
9588,,,survey-text,273,1303445,0.0-17.0-3.11,41312,List2A,black,man,,,,,"{""Q0"":""jane is touching dave""}","<img src=""stim_listA/touch1.gif""</stim_listA>",is touching,
null,"<div style=""font-size:60px;"">+</div>",,html-keyboard-response,274,1303947,0.0-17.0-0.12,41312,List2A,black,man,,,,null,,,,
null,"<img src=""stim_listA/hug6.gif""</stim_listA>",,html-keyboard-response,275,1305950,0.0-17.0-1.12,41312,List2A,black,man,,,,null,,,,
null,are hugging each other,,html-keyboard-response,276,1307953,0.0-17.0-2.12,41312,List2A,black,man,,,,null,,,,
10308,,,survey-text,277,1318263,0.0-17.0-3.12,41312,List2A,black,man,,,,,"{""Q0"":""mike and dave are hugging each other""}","<img src=""stim_listA/hug6.gif""</stim_listA>",are hugging each other,
null,"<div style=""font-size:60px;"">+</div>",,html-keyboard-response,278,1318766,0.0-17.0-0.13,41312,List2A,black,man,,,,null,,,,
null,"<img src=""stim_listA/fight2.gif""</stim_listA>",,html-keyboard-response,279,1320770,0.0-17.0-1.13,41312,List2A,black,man,,,,null,,,,
null,are fighting each other,,html-keyboard-response,280,1322772,0.0-17.0-2.13,41312,List2A,black,man,,,,null,,,,
12506,,,survey-text,281,1335280,0.0-17.0-3.13,41312,List2A,black,man,,,,,"{""Q0"":""luke and jane are fighting each other""}","<img src=""stim_listA/fight2.gif""</stim_listA>",are fighting each other,
null,"<div style=""font-size:60px;"">+</div>",,html-keyboard-response,282,1335782,0.0-17.0-0.14,41312,List2A,black,man,,,,null,,,,
null,"<img src=""stim_listA/kiss5.gif""</stim_listA>",,html-keyboard-response,283,1337786,0.0-17.0-1.14,41312,List2A,black,man,,,,null,,,,
null,is kissing,,html-keyboard-response,284,1339788,0.0-17.0-2.14,41312,List2A,black,man,,,,null,,,,
6460,,,survey-text,285,1346250,0.0-17.0-3.14,41312,List2A,black,man,,,,,"{""Q0"":""luke is kissing fred""}","<img src=""stim_listA/kiss5.gif""</stim_listA>",is kissing,
null,"<div style=""font-size:60px;"">+</div>",,html-keyboard-response,286,1346753,0.0-17.0-0.15,41312,List2A,black,man,,,,null,,,,
null,"<img src=""stim_listA/talk2.gif""</stim_listA>",,html-keyboard-response,287,1348757,0.0-17.0-1.15,41312,List2A,black,man,,,,null,,,,
null,are talking to each other,,html-keyboard-response,288,1350761,0.0-17.0-2.15,41312,List2A,black,man,,,,null,,,,
15347,,,survey-text,289,1366109,0.0-17.0-3.15,41312,List2A,black,man,,,,,"{""Q0"":""ruth and dave are talking to each other""}","<img src=""stim_listA/talk2.gif""</stim_listA>",are talking to each other,
null,"<div style=""font-size:60px;"">+</div>",,html-keyboard-response,290,1366611,0.0-17.0-0.16,41312,List2A,black,man,,,,null,,,,
null,"<img src=""stim_listA/argue4.gif""</stim_listA>",,html-keyboard-response,291,1368613,0.0-17.0-1.16,41312,List2A,black,man,,,,null,,,,
null,are arguing with each other,,html-keyboard-response,292,1370616,0.0-17.0-2.16,41312,List2A,black,man,,,,null,,,,
13365,,,survey-text,293,1383984,0.0-17.0-3.16,41312,List2A,black,man,,,,,"{""Q0"":""kate and fred are arguing with each other""}","<img src=""stim_listA/argue4.gif""</stim_listA>",are arguing with each other,
null,"<div style=""font-size:60px;"">+</div>",,html-keyboard-response,294,1384487,0.0-17.0-0.17,41312,List2A,black,man,,,,null,,,,
null,"<img src=""stim_listA/meet8.gif""</stim_listA>",,html-keyboard-response,295,1386492,0.0-17.0-1.17,41312,List2A,black,man,,,,null,,,,
null,are meeting each other,,html-keyboard-response,296,1388494,0.0-17.0-2.17,41312,List2A,black,man,,,,null,,,,
10609,,,survey-text,297,1399105,0.0-17.0-3.17,41312,List2A,black,man,,,,,"{""Q0"":""beth and ruth are meeting each other""}","<img src=""stim_listA/meet8.gif""</stim_listA>",are meeting each other,
null,"<div style=""font-size:60px;"">+</div>",,html-keyboard-response,298,1399607,0.0-17.0-0.18,41312,List2A,black,man,,,,null,,,,
null,"<img src=""stim_listA/talk5.gif""</stim_listA>",,html-keyboard-response,299,1401609,0.0-17.0-1.18,41312,List2A,black,man,,,,null,,,,
null,is talking to,,html-keyboard-response,300,1403612,0.0-17.0-2.18,41312,List2A,black,man,,,,null,,,,
9837,,,survey-text,301,1413450,0.0-17.0-3.18,41312,List2A,black,man,,,,,"{""Q0"":""mike is talking to luke""}","<img src=""stim_listA/talk5.gif""</stim_listA>",is talking to,
null,"<div style=""font-size:60px;"">+</div>",,html-keyboard-response,302,1413953,0.0-17.0-0.19,41312,List2A,black,man,,,,null,,,,
null,"<img src=""stim_listA/shout3.gif""</stim_listA>",,html-keyboard-response,303,1415957,0.0-17.0-1.19,41312,List2A,black,man,,,,null,,,,
null,is shouting at,,html-keyboard-response,304,1417958,0.0-17.0-2.19,41312,List2A,black,man,,,,null,,,,
8787,,,survey-text,305,1426747,0.0-17.0-3.19,41312,List2A,black,man,,,,,"{""Q0"":""beth is shouting at fred""}","<img src=""stim_listA/shout3.gif""</stim_listA>",is shouting at,
7779,"<img src='img/portrait_matrix_list2.JPG' style='width:900px;height:500px;''></img><p>If you have memorised all the portraits and names and are ready to start, press Continue.</p><p><strong>Please note: Your memory of these faces will be tested 4 times during this experiment.</strong></p>",0,html-button-response,306,1434528,0.0-18.0-0.0,41312,List2A,black,man,,,,,,,,
4125,"<img src=""portrait/BW1.jpg""style=""width:400px;height:400px;""></img>",0,html-button-response,307,1439656,0.0-18.0-1.0,41312,List2A,black,man,,TRUE,0,,,,,
null,CORRECT,,html-keyboard-response,308,1441160,0.0-18.0-2.0-0.0,41312,List2A,black,man,,,,null,,,,
2692,"<img src=""portrait/WW1.jpg""style=""width:400px;height:400px;""></img>",1,html-button-response,309,1443858,0.0-18.0-4.0,41312,List2A,black,man,,TRUE,1,,,,,
null,CORRECT,,html-keyboard-response,310,1445360,0.0-18.0-5.0-0.0,41312,List2A,black,man,,,,null,,,,
2672,"<img src=""portrait/WW2.jpg""style=""width:400px;height:400px;""></img>",3,html-button-response,311,1448035,0.0-18.0-7.0,41312,List2A,black,man,,TRUE,3,,,,,
null,CORRECT,,html-keyboard-response,312,1449538,0.0-18.0-8.0-0.0,41312,List2A,black,man,,,,null,,,,
3005,"<img src=""portrait/BM1.jpg""style=""width:400px;height:400px;""></img>",4,html-button-response,313,1452546,0.0-18.0-10.0,41312,List2A,black,man,,TRUE,4,,,,,
null,CORRECT,,html-keyboard-response,314,1454050,0.0-18.0-11.0-0.0,41312,List2A,black,man,,,,null,,,,
2735,"<img src=""portrait/BW2.jpg""style=""width:400px;height:400px;""></img>",2,html-button-response,315,1456788,0.0-18.0-13.0,41312,List2A,black,man,,TRUE,2,,,,,
null,CORRECT,,html-keyboard-response,316,1458291,0.0-18.0-14.0-0.0,41312,List2A,black,man,,,,null,,,,
2254,"<img src=""portrait/WM1.jpg""style=""width:400px;height:400px;""></img>",6,html-button-response,317,1460547,0.0-18.0-16.0,41312,List2A,black,man,,TRUE,6,,,,,
null,CORRECT,,html-keyboard-response,318,1462050,0.0-18.0-17.0-0.0,41312,List2A,black,man,,,,null,,,,
2215,"<img src=""portrait/BM2.jpg""style=""width:400px;height:400px;""></img>",5,html-button-response,319,1464268,0.0-18.0-19.0,41312,List2A,black,man,,TRUE,5,,,,,
null,CORRECT,,html-keyboard-response,320,1465771,0.0-18.0-20.0-0.0,41312,List2A,black,man,,,,null,,,,
2862,"<img src=""portrait/WM2.jpg""style=""width:400px;height:400px;""></img>",7,html-button-response,321,1468637,0.0-18.0-22.0,41312,List2A,black,man,,TRUE,7,,,,,
null,CORRECT,,html-keyboard-response,322,1470141,0.0-18.0-23.0-0.0,41312,List2A,black,man,,,,null,,,,
6342,<p>You got 8 out of 8 right first time. Press Continue.</p>,0,html-button-response,323,1476486,0.0-18.0-25.0,41312,List2A,black,man,,,,,,,,
null,"<div style=""font-size:60px;"">+</div>",,html-keyboard-response,324,1477990,0.0-19.0-0.0,41312,List2A,black,man,,,,null,,,,
null,"<img src=""stim_listA/shout8.gif""</stim_listA>",,html-keyboard-response,325,1479994,0.0-19.0-1.0,41312,List2A,black,man,,,,null,,,,
null,are shouting at each other,,html-keyboard-response,326,1481997,0.0-19.0-2.0,41312,List2A,black,man,,,,null,,,,
11906,,,survey-text,327,1493904,0.0-19.0-3.0,41312,List2A,black,man,,,,,"{""Q0"":""jane and kate are shouting at each other""}","<img src=""stim_listA/shout8.gif""</stim_listA>",are shouting at each other,
null,"<div style=""font-size:60px;"">+</div>",,html-keyboard-response,328,1494405,0.0-19.0-0.1,41312,List2A,black,man,,,,null,,,,
null,"<img src=""stim_listA/hug5.gif""</stim_listA>",,html-keyboard-response,329,1496410,0.0-19.0-1.1,41312,List2A,black,man,,,,null,,,,
null,is hugging,,html-keyboard-response,330,1498411,0.0-19.0-2.1,41312,List2A,black,man,,,,null,,,,
13881,,,survey-text,331,1512294,0.0-19.0-3.1,41312,List2A,black,man,,,,,"{""Q0"":""fred is hugging luke""}","<img src=""stim_listA/hug5.gif""</stim_listA>",is hugging,
null,"<div style=""font-size:60px;"">+</div>",,html-keyboard-response,332,1512796,0.0-19.0-0.2,41312,List2A,black,man,,,,null,,,,
null,"<img src=""stim_listA/talk7.gif""</stim_listA>",,html-keyboard-response,333,1514800,0.0-19.0-1.2,41312,List2A,black,man,,,,null,,,,
null,is talking to,,html-keyboard-response,334,1516802,0.0-19.0-2.2,41312,List2A,black,man,,,,null,,,,
12317,,,survey-text,335,1529121,0.0-19.0-3.2,41312,List2A,black,man,,,,,"{""Q0"":""kate is talking to ruth""}","<img src=""stim_listA/talk7.gif""</stim_listA>",is talking to,
null,"<div style=""font-size:60px;"">+</div>",,html-keyboard-response,336,1529624,0.0-19.0-0.3,41312,List2A,black,man,,,,null,,,,
null,"<img src=""stim_listA/meet4.gif""</stim_listA>",,html-keyboard-response,337,1531628,0.0-19.0-1.3,41312,List2A,black,man,,,,null,,,,
null,are meeting each other,,html-keyboard-response,338,1533630,0.0-19.0-2.3,41312,List2A,black,man,,,,null,,,,
14827,,,survey-text,339,1548458,0.0-19.0-3.3,41312,List2A,black,man,,,,,"{""Q0"":""fred and beth are meeting each other""}","<img src=""stim_listA/meet4.gif""</stim_listA>",are meeting each other,
null,"<div style=""font-size:60px;"">+</div>",,html-keyboard-response,340,1548960,0.0-19.0-0.4,41312,List2A,black,man,,,,null,,,,
null,"<img src=""stim_listA/argue8.gif""</stim_listA>",,html-keyboard-response,341,1550964,0.0-19.0-1.4,41312,List2A,black,man,,,,null,,,,
null,are arguing with each other,,html-keyboard-response,342,1552965,0.0-19.0-2.4,41312,List2A,black,man,,,,null,,,,
11525,,,survey-text,343,1564492,0.0-19.0-3.4,41312,List2A,black,man,,,,,"{""Q0"":""ruth and kate are arguing with each other""}","<img src=""stim_listA/argue8.gif""</stim_listA>",are arguing with each other,
null,"<div style=""font-size:60px;"">+</div>",,html-keyboard-response,344,1564994,0.0-19.0-0.5,41312,List2A,black,man,,,,null,,,,
null,"<img src=""stim_listA/meet6.gif""</stim_listA>",,html-keyboard-response,345,1566998,0.0-19.0-1.5,41312,List2A,black,man,,,,null,,,,
null,are meeting each other,,html-keyboard-response,346,1569001,0.0-19.0-2.5,41312,List2A,black,man,,,,null,,,,
13451,,,survey-text,347,1582454,0.0-19.0-3.5,41312,List2A,black,man,,,,,"{""Q0"":""luke and fred are meeting each other""}","<img src=""stim_listA/meet6.gif""</stim_listA>",are meeting each other,
null,"<div style=""font-size:60px;"">+</div>",,html-keyboard-response,348,1582956,0.0-19.0-0.6,41312,List2A,black,man,,,,null,,,,
null,"<img src=""stim_listA/dance1.gif""</stim_listA>",,html-keyboard-response,349,1584958,0.0-19.0-1.6,41312,List2A,black,man,,,,null,,,,
null,is dancing with,,html-keyboard-response,350,1586961,0.0-19.0-2.6,41312,List2A,black,man,,,,null,,,,
10508,,,survey-text,351,1597472,0.0-19.0-3.6,41312,List2A,black,man,,,,,"{""Q0"":""jane is dancing with luke""}","<img src=""stim_listA/dance1.gif""</stim_listA>",is dancing with,
null,"<div style=""font-size:60px;"">+</div>",,html-keyboard-response,352,1597973,0.0-19.0-0.7,41312,List2A,black,man,,,,null,,,,
null,"<img src=""stim_listA/shout2.gif""</stim_listA>",,html-keyboard-response,353,1599976,0.0-19.0-1.7,41312,List2A,black,man,,,,null,,,,
null,are shouting at each other,,html-keyboard-response,354,1601978,0.0-19.0-2.7,41312,List2A,black,man,,,,null,,,,
10628,,,survey-text,355,1612611,0.0-19.0-3.7,41312,List2A,black,man,,,,,"{""Q0"":""jane and dave are shouting at each other""}","<img src=""stim_listA/shout2.gif""</stim_listA>",are shouting at each other,
null,"<div style=""font-size:60px;"">+</div>",,html-keyboard-response,356,1613114,0.0-19.0-0.8,41312,List2A,black,man,,,,null,,,,
null,"<img src=""stim_listA/argue7.gif""</stim_listA>",,html-keyboard-response,357,1615118,0.0-19.0-1.8,41312,List2A,black,man,,,,null,,,,
null,is arguing with,,html-keyboard-response,358,1617122,0.0-19.0-2.8,41312,List2A,black,man,,,,null,,,,
8191,,,survey-text,359,1625315,0.0-19.0-3.8,41312,List2A,black,man,,,,,"{""Q0"":""jane is arguing with beth""}","<img src=""stim_listA/argue7.gif""</stim_listA>",is arguing with,
null,"<div style=""font-size:60px;"">+</div>",,html-keyboard-response,360,1625817,0.0-19.0-0.9,41312,List2A,black,man,,,,null,,,,
null,"<img src=""stim_listA/marry6.gif""</stim_listA>",,html-keyboard-response,361,1627820,0.0-19.0-1.9,41312,List2A,black,man,,,,null,,,,
null,are marrying each other,,html-keyboard-response,362,1629822,0.0-19.0-2.9,41312,List2A,black,man,,,,null,,,,
18096,,,survey-text,363,1647919,0.0-19.0-3.9,41312,List2A,black,man,,,,,"{""Q0"":""luke and mike are marrying each other""}","<img src=""stim_listA/marry6.gif""</stim_listA>",are marrying each other,
null,"<div style=""font-size:60px;"">+</div>",,html-keyboard-response,364,1648421,0.0-19.0-0.10,41312,List2A,black,man,,,,null,,,,
null,"<img src=""stim_listA/argue6.gif""</stim_listA>",,html-keyboard-response,365,1650426,0.0-19.0-1.10,41312,List2A,black,man,,,,null,,,,
null,are arguing with each other,,html-keyboard-response,366,1652427,0.0-19.0-2.10,41312,List2A,black,man,,,,null,,,,
14301,,,survey-text,367,1666729,0.0-19.0-3.10,41312,List2A,black,man,,,,,"{""Q0"":""luke and mike are arguing with each other""}","<img src=""stim_listA/argue6.gif""</stim_listA>",are arguing with each other,
null,"<div style=""font-size:60px;"">+</div>",,html-keyboard-response,368,1667231,0.0-19.0-0.11,41312,List2A,black,man,,,,null,,,,
null,"<img src=""stim_listA/meet1.gif""</stim_listA>",,html-keyboard-response,369,1669234,0.0-19.0-1.11,41312,List2A,black,man,,,,null,,,,
null,is meeting,,html-keyboard-response,370,1671236,0.0-19.0-2.11,41312,List2A,black,man,,,,null,,,,
6203,,,survey-text,371,1677442,0.0-19.0-3.11,41312,List2A,black,man,,,,,"{""Q0"":""dave is meeting jane""}","<img src=""stim_listA/meet1.gif""</stim_listA>",is meeting,
null,"<div style=""font-size:60px;"">+</div>",,html-keyboard-response,372,1677944,0.0-19.0-0.12,41312,List2A,black,man,,,,null,,,,
null,"<img src=""stim_listA/touch3.gif""</stim_listA>",,html-keyboard-response,373,1679947,0.0-19.0-1.12,41312,List2A,black,man,,,,null,,,,
null,is touching,,html-keyboard-response,374,1681949,0.0-19.0-2.12,41312,List2A,black,man,,,,null,,,,
6454,,,survey-text,375,1688404,0.0-19.0-3.12,41312,List2A,black,man,,,,,"{""Q0"":""mike is touching kate""}","<img src=""stim_listA/touch3.gif""</stim_listA>",is touching,
null,"<div style=""font-size:60px;"">+</div>",,html-keyboard-response,376,1688906,0.0-19.0-0.13,41312,List2A,black,man,,,,null,,,,
null,"<img src=""stim_listA/marry8.gif""</stim_listA>",,html-keyboard-response,377,1690910,0.0-19.0-1.13,41312,List2A,black,man,,,,null,,,,
null,are marrying each other,,html-keyboard-response,378,1692912,0.0-19.0-2.13,41312,List2A,black,man,,,,null,,,,
9459,,,survey-text,379,1702374,0.0-19.0-3.13,41312,List2A,black,man,,,,,"{""Q0"":""kate and ruth are marrying each other""}","<img src=""stim_listA/marry8.gif""</stim_listA>",are marrying each other,
null,"<div style=""font-size:60px;"">+</div>",,html-keyboard-response,380,1702876,0.0-19.0-0.14,41312,List2A,black,man,,,,null,,,,
null,"<img src=""stim_listA/marry7.gif""</stim_listA>",,html-keyboard-response,381,1704881,0.0-19.0-1.14,41312,List2A,black,man,,,,null,,,,
null,is marrying,,html-keyboard-response,382,1706884,0.0-19.0-2.14,41312,List2A,black,man,,,,null,,,,
7601,,,survey-text,383,1714487,0.0-19.0-3.14,41312,List2A,black,man,,,,,"{""Q0"":""beth is marrying jane""}","<img src=""stim_listA/marry7.gif""</stim_listA>",is marrying,
null,"<div style=""font-size:60px;"">+</div>",,html-keyboard-response,384,1714989,0.0-19.0-0.15,41312,List2A,black,man,,,,null,,,,
null,"<img src=""stim_listA/kiss3.gif""</stim_listA>",,html-keyboard-response,385,1716993,0.0-19.0-1.15,41312,List2A,black,man,,,,null,,,,
null,is kissing,,html-keyboard-response,386,1718996,0.0-19.0-2.15,41312,List2A,black,man,,,,null,,,,
7067,,,survey-text,387,1726065,0.0-19.0-3.15,41312,List2A,black,man,,,,,"{""Q0"":""fred is kissing kate""}","<img src=""stim_listA/kiss3.gif""</stim_listA>",is kissing,
null,"<div style=""font-size:60px;"">+</div>",,html-keyboard-response,388,1726567,0.0-19.0-0.16,41312,List2A,black,man,,,,null,,,,
null,"<img src=""stim_listA/talk6.gif""</stim_listA>",,html-keyboard-response,389,1728570,0.0-19.0-1.16,41312,List2A,black,man,,,,null,,,,
null,are talking to each other,,html-keyboard-response,390,1730572,0.0-19.0-2.16,41312,List2A,black,man,,,,null,,,,
12992,,,survey-text,391,1743566,0.0-19.0-3.16,41312,List2A,black,man,,,,,"{""Q0"":""fred and dave are talking to each other""}","<img src=""stim_listA/talk6.gif""</stim_listA>",are talking to each other,
null,"<div style=""font-size:60px;"">+</div>",,html-keyboard-response,392,1744068,0.0-19.0-0.17,41312,List2A,black,man,,,,null,,,,
null,"<img src=""stim_listA/hug3.gif""</stim_listA>",,html-keyboard-response,393,1746070,0.0-19.0-1.17,41312,List2A,black,man,,,,null,,,,
null,is hugging,,html-keyboard-response,394,1748072,0.0-19.0-2.17,41312,List2A,black,man,,,,null,,,,
11318,,,survey-text,395,1759392,0.0-19.0-3.17,41312,List2A,black,man,,,,,"{""Q0"":""fred is hugging kate""}","<img src=""stim_listA/hug3.gif""</stim_listA>",is hugging,
null,"<div style=""font-size:60px;"">+</div>",,html-keyboard-response,396,1759894,0.0-19.0-0.18,41312,List2A,black,man,,,,null,,,,
null,"<img src=""stim_listA/talk8.gif""</stim_listA>",,html-keyboard-response,397,1761897,0.0-19.0-1.18,41312,List2A,black,man,,,,null,,,,
null,are talking to each other,,html-keyboard-response,398,1763900,0.0-19.0-2.18,41312,List2A,black,man,,,,null,,,,
20110,,,survey-text,399,1784012,0.0-19.0-3.18,41312,List2A,black,man,,,,,"{""Q0"":""beth and kate are talking to each other""}","<img src=""stim_listA/talk8.gif""</stim_listA>",are talking to each other,
null,"<div style=""font-size:60px;"">+</div>",,html-keyboard-response,400,1784514,0.0-19.0-0.19,41312,List2A,black,man,,,,null,,,,
null,"<img src=""stim_listA/meet3.gif""</stim_listA>",,html-keyboard-response,401,1786518,0.0-19.0-1.19,41312,List2A,black,man,,,,null,,,,
null,is meeting,,html-keyboard-response,402,1788520,0.0-19.0-2.19,41312,List2A,black,man,,,,null,,,,
6523,,,survey-text,403,1795045,0.0-19.0-3.19,41312,List2A,black,man,,,,,"{""Q0"":""mike is meeting kate""}","<img src=""stim_listA/meet3.gif""</stim_listA>",is meeting,
9176,<p>Thank you for completing that task.</p><p>The final part of this session is a short questionnaire.</p><p>Press Continue.</p>,0,html-button-response,404,1804222,0.0-20.0,41312,List2A,black,man,,,,,,,,
25446,,,survey-text,405,1830674,0.0-21.0,41312,List2A,black,man,,,,,"{""Q0"":""51"",""Q1"":""English"",""Q2"":""English"",""Q3"":""USA"",""Q4"":""Black"",""Q5"":""Male""}",,,demographics
83771,,,survey-likert,406,1914456,0.0-22.0,41312,List2A,black,man,,,,,"{""Q0"":6,""Q1"":6,""Q2"":6,""Q3"":5,""Q4"":6,""Q5"":4,""Q6"":5,""Q7"":6,""Q8"":6,""Q9"":6,""Q10"":6,""Q11"":6,""Q12"":6,""Q13"":4}",,,likert_race
71511,,,survey-likert,407,1985991,0.0-23.0,41312,List2A,black,man,,,,,"{""Q0"":5,""Q1"":4,""Q2"":4,""Q3"":6,""Q4"":6,""Q5"":5,""Q6"":5,""Q7"":5,""Q8"":6,""Q9"":6,""Q10"":5,""Q11"":5,""Q12"":6,""Q13"":5}",,,likert_gender
5964,,,survey-text,408,1991973,0.0-24.0,41312,List2A,black,man,,,,,"{""Q0"":""ccc""}",,,worker_id
39643,,,external-html,409,2031999,0.0-25.0,41312,List2A,black,man,debrief.html,,,,,,,
