rt,stimulus,button_pressed,trial_type,trial_index,time_elapsed,internal_node_id,subject,list,ppt_race,ppt_gender,url,first_guess,correct,key_press,responses,image_type,phrase_type,test_part
2568,Welcome to the experiment. Press Continue to begin.,0,html-button-response,0,2614,0.0-0.0,41345,List2B,white,man,,,,,,,,
15578,,,external-html,1,19237,0.0-1.0,41345,List2B,white,man,consent.html,,,,,,,
14397,"<p>On the next page, you will see portraits of 8 people and their names.</p><p>Your first task is to take a few minutes to memorise the names of these people.</p><p>You will have to recall their names during the rest of the experiment, so it is</p><p>essential that you try to memorise these people and their names as best as you can.</p><br><p><strong>You will then be tested on your memory of these names and portraits.</strong></p><br><p>The experiment will start after you have completed this memory test.</p><br><p>Ready?</p>",0,html-button-response,2,33636,0.0-2.0,41345,List2B,white,man,,,,,,,,
41226,"<img src='img/portrait_matrix_list2.JPG' style='width:900px;height:500px;''></img><p>If you have memorised all the portraits and names and are ready to start, press Continue.</p><p><strong>Please note: Your memory of these faces will be tested 4 times during this experiment.</strong></p>",0,html-button-response,3,75874,0.0-3.0-0.0,41345,List2B,white,man,,,,,,,,
2596,"<img src=""portrait/BW2.jpg""style=""width:400px;height:400px;""></img>",2,html-button-response,4,79482,0.0-3.0-1.0,41345,List2B,white,man,,TRUE,2,,,,,
null,CORRECT,,html-keyboard-response,5,80993,0.0-3.0-2.0-0.0,41345,List2B,white,man,,,,null,,,,
1959,"<img src=""portrait/WM2.jpg""style=""width:400px;height:400px;""></img>",7,html-button-response,6,82954,0.0-3.0-4.0,41345,List2B,white,man,,TRUE,7,,,,,
null,CORRECT,,html-keyboard-response,7,84482,0.0-3.0-5.0-0.0,41345,List2B,white,man,,,,null,,,,
1502,"<img src=""portrait/BM2.jpg""style=""width:400px;height:400px;""></img>",5,html-button-response,8,85986,0.0-3.0-7.0,41345,List2B,white,man,,TRUE,5,,,,,
null,CORRECT,,html-keyboard-response,9,87514,0.0-3.0-8.0-0.0,41345,List2B,white,man,,,,null,,,,
2855,"<img src=""portrait/BW1.jpg""style=""width:400px;height:400px;""></img>",1,html-button-response,10,90369,0.0-3.0-10.0,41345,List2B,white,man,,TRUE,0,,,,,
3030,"<img src=""portrait/BW1.jpg""style=""width:400px;height:400px;""></img>",0,html-button-response,11,94402,0.0-3.0-12.0-0.0,41345,List2B,white,man,,FALSE,0,,,,,
null,CORRECT,,html-keyboard-response,12,95905,0.0-3.0-12.0-1.0-0.0,41345,List2B,white,man,,,,null,,,,
2015,"<img src=""portrait/WM1.jpg""style=""width:400px;height:400px;""></img>",6,html-button-response,13,97922,0.0-3.0-13.0,41345,List2B,white,man,,TRUE,6,,,,,
null,CORRECT,,html-keyboard-response,14,99427,0.0-3.0-14.0-0.0,41345,List2B,white,man,,,,null,,,,
2485,"<img src=""portrait/WW1.jpg""style=""width:400px;height:400px;""></img>",3,html-button-response,15,101913,0.0-3.0-16.0,41345,List2B,white,man,,TRUE,1,,,,,
1752,"<img src=""portrait/WW1.jpg""style=""width:400px;height:400px;""></img>",1,html-button-response,16,104674,0.0-3.0-18.0-0.0,41345,List2B,white,man,,FALSE,1,,,,,
null,CORRECT,,html-keyboard-response,17,106198,0.0-3.0-18.0-1.0-0.0,41345,List2B,white,man,,,,null,,,,
3459,"<img src=""portrait/BM1.jpg""style=""width:400px;height:400px;""></img>",4,html-button-response,18,109658,0.0-3.0-19.0,41345,List2B,white,man,,TRUE,4,,,,,
null,CORRECT,,html-keyboard-response,19,111167,0.0-3.0-20.0-0.0,41345,List2B,white,man,,,,null,,,,
2185,"<img src=""portrait/WW2.jpg""style=""width:400px;height:400px;""></img>",3,html-button-response,20,113354,0.0-3.0-22.0,41345,List2B,white,man,,TRUE,3,,,,,
null,CORRECT,,html-keyboard-response,21,114865,0.0-3.0-23.0-0.0,41345,List2B,white,man,,,,null,,,,
1799,<p>You got 6 out of 8 right first time. Press Continue.</p>,0,html-button-response,22,116665,0.0-3.0-25.0,41345,List2B,white,man,,,,,,,,
1809,"As you did not score 100%, the memory game will repeat. Press Continue.",0,html-button-response,23,119490,0.0-3.0-26.0-0.0,41345,List2B,white,man,,,,,,,,
1891,"<img src='img/portrait_matrix_list2.JPG' style='width:900px;height:500px;''></img><p>If you have memorised all the portraits and names and are ready to start, press Continue.</p><p><strong>Please note: Your memory of these faces will be tested 4 times during this experiment.</strong></p>",0,html-button-response,24,122385,0.0-3.1-0.1,41345,List2B,white,man,,,,,,,,
2619,"<img src=""portrait/BW2.jpg""style=""width:400px;height:400px;""></img>",2,html-button-response,25,126018,0.0-3.1-1.1,41345,List2B,white,man,,TRUE,2,,,,,
null,CORRECT,,html-keyboard-response,26,127540,0.0-3.1-2.1-0.1,41345,List2B,white,man,,,,null,,,,
1444,"<img src=""portrait/WM2.jpg""style=""width:400px;height:400px;""></img>",7,html-button-response,27,128986,0.0-3.1-4.1,41345,List2B,white,man,,TRUE,7,,,,,
null,CORRECT,,html-keyboard-response,28,130499,0.0-3.1-5.1-0.1,41345,List2B,white,man,,,,null,,,,
1445,"<img src=""portrait/BM2.jpg""style=""width:400px;height:400px;""></img>",5,html-button-response,29,131946,0.0-3.1-7.1,41345,List2B,white,man,,TRUE,5,,,,,
null,CORRECT,,html-keyboard-response,30,133465,0.0-3.1-8.1-0.1,41345,List2B,white,man,,,,null,,,,
1624,"<img src=""portrait/BW1.jpg""style=""width:400px;height:400px;""></img>",0,html-button-response,31,135090,0.0-3.1-10.1,41345,List2B,white,man,,TRUE,0,,,,,
null,CORRECT,,html-keyboard-response,32,136619,0.0-3.1-11.1-0.1,41345,List2B,white,man,,,,null,,,,
1624,"<img src=""portrait/WM1.jpg""style=""width:400px;height:400px;""></img>",6,html-button-response,33,138244,0.0-3.1-13.1,41345,List2B,white,man,,TRUE,6,,,,,
null,CORRECT,,html-keyboard-response,34,139748,0.0-3.1-14.1-0.1,41345,List2B,white,man,,,,null,,,,
1015,"<img src=""portrait/WW1.jpg""style=""width:400px;height:400px;""></img>",1,html-button-response,35,140765,0.0-3.1-16.1,41345,List2B,white,man,,TRUE,1,,,,,
null,CORRECT,,html-keyboard-response,36,142280,0.0-3.1-17.1-0.1,41345,List2B,white,man,,,,null,,,,
2451,"<img src=""portrait/BM1.jpg""style=""width:400px;height:400px;""></img>",4,html-button-response,37,144732,0.0-3.1-19.1,41345,List2B,white,man,,TRUE,4,,,,,
null,CORRECT,,html-keyboard-response,38,146251,0.0-3.1-20.1-0.1,41345,List2B,white,man,,,,null,,,,
792,"<img src=""portrait/WW2.jpg""style=""width:400px;height:400px;""></img>",3,html-button-response,39,147044,0.0-3.1-22.1,41345,List2B,white,man,,TRUE,3,,,,,
null,CORRECT,,html-keyboard-response,40,148567,0.0-3.1-23.1-0.1,41345,List2B,white,man,,,,null,,,,
4804,<p>You got 8 out of 8 right first time. Press Continue.</p>,0,html-button-response,41,153372,0.0-3.1-25.1,41345,List2B,white,man,,,,,,,,
18136,"<p>In this experiment, you will view photographs of the people from the memory game interacting.</p><p>By using the <strong>exact</strong> phrase given <i>after</i> the photograph appears and recalling the correct names of the people in the photographs, form a sentence describing the interaction. You do not need to capitalise names.</p><p>Type your answer in the space provided. Please complete every sentence before moving onto the next trial.</p><p>You will only have a few seconds to memorise each given photograph and phrase before you can respond, so try your best to focus.</p><p>An example is given below. Press 'Continue' when you are ready.</p><img src='img/speaking_example_v2.jpg' style='width:800px;height:460px;''></img>",0,html-button-response,42,172516,0.0-4.0,41345,List2B,white,man,,,,,,,,
1558,"<p>Before the experiment starts, you will watch two example trials. Press 'Continue'.</p>",0,html-button-response,43,175076,0.0-5.0,41345,List2B,white,man,,,,,,,,
null,<img src='img/speaking_WW.gif'></img>,,html-keyboard-response,44,178093,0.0-6.0,41345,List2B,white,man,,,,null,,,,
null,<p>is speaking to</p>,,html-keyboard-response,45,180108,0.0-7.0,41345,List2B,white,man,,,,null,,,,
2768,<p><b>Answer:</b> jane is speaking to ruth</p>,0,html-button-response,46,182876,0.0-8.0,41345,List2B,white,man,,,,,,,,
null,<img src='img/pointing_BM.gif'></img>,,html-keyboard-response,47,185886,0.0-9.0,41345,List2B,white,man,,,,null,,,,
null,<p>are pointing at each other</p>,,html-keyboard-response,48,187887,0.0-10.0,41345,List2B,white,man,,,,null,,,,
1684,<p><b>Answer:</b> fred and mike are pointing at each other</p>,0,html-button-response,49,189572,0.0-11.0,41345,List2B,white,man,,,,,,,,
1867,"<p>Ready to start the experiment?</p><br><p><strong>Remember to describe the picture using a full sentence,</strong></p><p><strong> that combines the names of the people with the given phrase.</strong></p><p><strong> You do not need to capitalise names or use punctuation.</strong></p><br><p>Press 'Continue' to begin.</p>",0,html-button-response,50,192444,0.0-12.0,41345,List2B,white,man,,,,,,,,
null,"<div style=""font-size:60px;"">+</div>",,html-keyboard-response,51,193969,0.0-13.0-0.0,41345,List2B,white,man,,,,null,,,,
null,"<img src=""stim_listB/touch7.gif""</stim_listB>",,html-keyboard-response,52,195985,0.0-13.0-1.0,41345,List2B,white,man,,,,null,,,,
null,is touching,,html-keyboard-response,53,197985,0.0-13.0-2.0,41345,List2B,white,man,,,,null,,,,
8797,,,survey-text,54,206784,0.0-13.0-3.0,41345,List2B,white,man,,,,,"{""Q0"":""Jane Kate""}","<img src=""stim_listB/touch7.gif""</stim_listB>",is touching,
null,"<div style=""font-size:60px;"">+</div>",,html-keyboard-response,55,207287,0.0-13.0-0.1,41345,List2B,white,man,,,,null,,,,
null,"<img src=""stim_listB/kiss8.gif""</stim_listB>",,html-keyboard-response,56,209297,0.0-13.0-1.1,41345,List2B,white,man,,,,null,,,,
null,are kissing each other,,html-keyboard-response,57,211298,0.0-13.0-2.1,41345,List2B,white,man,,,,null,,,,
6227,,,survey-text,58,217528,0.0-13.0-3.1,41345,List2B,white,man,,,,,"{""Q0"":""Jane and Kate""}","<img src=""stim_listB/kiss8.gif""</stim_listB>",are kissing each other,
null,"<div style=""font-size:60px;"">+</div>",,html-keyboard-response,59,218029,0.0-13.0-0.2,41345,List2B,white,man,,,,null,,,,
null,"<img src=""stim_listB/fight3.gif""</stim_listB>",,html-keyboard-response,60,220030,0.0-13.0-1.2,41345,List2B,white,man,,,,null,,,,
null,is fighting,,html-keyboard-response,61,222032,0.0-13.0-2.2,41345,List2B,white,man,,,,null,,,,
7622,,,survey-text,62,229655,0.0-13.0-3.2,41345,List2B,white,man,,,,,"{""Q0"":""Kate and Fred""}","<img src=""stim_listB/fight3.gif""</stim_listB>",is fighting,
null,"<div style=""font-size:60px;"">+</div>",,html-keyboard-response,63,230165,0.0-13.0-0.3,41345,List2B,white,man,,,,null,,,,
null,"<img src=""stim_listB/argue1.gif""</stim_listB>",,html-keyboard-response,64,232180,0.0-13.0-1.3,41345,List2B,white,man,,,,null,,,,
null,is arguing with,,html-keyboard-response,65,234183,0.0-13.0-2.3,41345,List2B,white,man,,,,null,,,,
8055,,,survey-text,66,242240,0.0-13.0-3.3,41345,List2B,white,man,,,,,"{""Q0"":""Ruth Dave""}","<img src=""stim_listB/argue1.gif""</stim_listB>",is arguing with,
null,"<div style=""font-size:60px;"">+</div>",,html-keyboard-response,67,242741,0.0-13.0-0.4,41345,List2B,white,man,,,,null,,,,
null,"<img src=""stim_listB/talk6.gif""</stim_listB>",,html-keyboard-response,68,244749,0.0-13.0-1.4,41345,List2B,white,man,,,,null,,,,
null,are talking to each other,,html-keyboard-response,69,246753,0.0-13.0-2.4,41345,List2B,white,man,,,,null,,,,
4790,,,survey-text,70,251544,0.0-13.0-3.4,41345,List2B,white,man,,,,,"{""Q0"":""Dave and Fred""}","<img src=""stim_listB/talk6.gif""</stim_listB>",are talking to each other,
null,"<div style=""font-size:60px;"">+</div>",,html-keyboard-response,71,252058,0.0-13.0-0.5,41345,List2B,white,man,,,,null,,,,
null,"<img src=""stim_listB/argue2.gif""</stim_listB>",,html-keyboard-response,72,254066,0.0-13.0-1.5,41345,List2B,white,man,,,,null,,,,
null,are arguing with each other,,html-keyboard-response,73,256071,0.0-13.0-2.5,41345,List2B,white,man,,,,null,,,,
4344,,,survey-text,74,260417,0.0-13.0-3.5,41345,List2B,white,man,,,,,"{""Q0"":""Luke and Jane""}","<img src=""stim_listB/argue2.gif""</stim_listB>",are arguing with each other,
null,"<div style=""font-size:60px;"">+</div>",,html-keyboard-response,75,260932,0.0-13.0-0.6,41345,List2B,white,man,,,,null,,,,
null,"<img src=""stim_listB/fight4.gif""</stim_listB>",,html-keyboard-response,76,262947,0.0-13.0-1.6,41345,List2B,white,man,,,,null,,,,
null,are fighting each other,,html-keyboard-response,77,264963,0.0-13.0-2.6,41345,List2B,white,man,,,,null,,,,
4797,,,survey-text,78,269761,0.0-13.0-3.6,41345,List2B,white,man,,,,,"{""Q0"":""Beth and Fred""}","<img src=""stim_listB/fight4.gif""</stim_listB>",are fighting each other,
null,"<div style=""font-size:60px;"">+</div>",,html-keyboard-response,79,270263,0.0-13.0-0.7,41345,List2B,white,man,,,,null,,,,
null,"<img src=""stim_listB/touch6.gif""</stim_listB>",,html-keyboard-response,80,272273,0.0-13.0-1.7,41345,List2B,white,man,,,,null,,,,
null,are touching each other,,html-keyboard-response,81,274279,0.0-13.0-2.7,41345,List2B,white,man,,,,null,,,,
7689,,,survey-text,82,281970,0.0-13.0-3.7,41345,List2B,white,man,,,,,"{""Q0"":""Mike and Luke""}","<img src=""stim_listB/touch6.gif""</stim_listB>",are touching each other,
null,"<div style=""font-size:60px;"">+</div>",,html-keyboard-response,83,282482,0.0-13.0-0.8,41345,List2B,white,man,,,,null,,,,
null,"<img src=""stim_listB/dance5.gif""</stim_listB>",,html-keyboard-response,84,284494,0.0-13.0-1.8,41345,List2B,white,man,,,,null,,,,
null,is dancing with,,html-keyboard-response,85,286497,0.0-13.0-2.8,41345,List2B,white,man,,,,null,,,,
9343,,,survey-text,86,295840,0.0-13.0-3.8,41345,List2B,white,man,,,,,"{""Q0"":""Luke and Fred""}","<img src=""stim_listB/dance5.gif""</stim_listB>",is dancing with,
null,"<div style=""font-size:60px;"">+</div>",,html-keyboard-response,87,296342,0.0-13.0-0.9,41345,List2B,white,man,,,,null,,,,
null,"<img src=""stim_listB/shout1.gif""</stim_listB>",,html-keyboard-response,88,298355,0.0-13.0-1.9,41345,List2B,white,man,,,,null,,,,
null,is shouting at,,html-keyboard-response,89,300371,0.0-13.0-2.9,41345,List2B,white,man,,,,null,,,,
6644,,,survey-text,90,307017,0.0-13.0-3.9,41345,List2B,white,man,,,,,"{""Q0"":""Luke and Ruth""}","<img src=""stim_listB/shout1.gif""</stim_listB>",is shouting at,
null,"<div style=""font-size:60px;"">+</div>",,html-keyboard-response,91,307532,0.0-13.0-0.10,41345,List2B,white,man,,,,null,,,,
null,"<img src=""stim_listB/touch5.gif""</stim_listB>",,html-keyboard-response,92,309539,0.0-13.0-1.10,41345,List2B,white,man,,,,null,,,,
null,is touching,,html-keyboard-response,93,311546,0.0-13.0-2.10,41345,List2B,white,man,,,,null,,,,
12463,,,survey-text,94,324011,0.0-13.0-3.10,41345,List2B,white,man,,,,,"{""Q0"":""Dave and Fred""}","<img src=""stim_listB/touch5.gif""</stim_listB>",is touching,
null,"<div style=""font-size:60px;"">+</div>",,html-keyboard-response,95,324516,0.0-13.0-0.11,41345,List2B,white,man,,,,null,,,,
null,"<img src=""stim_listB/fight8.gif""</stim_listB>",,html-keyboard-response,96,326545,0.0-13.0-1.11,41345,List2B,white,man,,,,null,,,,
null,are fighting each other,,html-keyboard-response,97,328556,0.0-13.0-2.11,41345,List2B,white,man,,,,null,,,,
6341,,,survey-text,98,334899,0.0-13.0-3.11,41345,List2B,white,man,,,,,"{""Q0"":""Beth and Ruth""}","<img src=""stim_listB/fight8.gif""</stim_listB>",are fighting each other,
null,"<div style=""font-size:60px;"">+</div>",,html-keyboard-response,99,335410,0.0-13.0-0.12,41345,List2B,white,man,,,,null,,,,
null,"<img src=""stim_listB/dance1.gif""</stim_listB>",,html-keyboard-response,100,337412,0.0-13.0-1.12,41345,List2B,white,man,,,,null,,,,
null,is dancing with,,html-keyboard-response,101,339425,0.0-13.0-2.12,41345,List2B,white,man,,,,null,,,,
4105,,,survey-text,102,343531,0.0-13.0-3.12,41345,List2B,white,man,,,,,"{""Q0"":""Jane and JAke""}","<img src=""stim_listB/dance1.gif""</stim_listB>",is dancing with,
null,"<div style=""font-size:60px;"">+</div>",,html-keyboard-response,103,344032,0.0-13.0-0.13,41345,List2B,white,man,,,,null,,,,
null,"<img src=""stim_listB/fight1.gif""</stim_listB>",,html-keyboard-response,104,346034,0.0-13.0-1.13,41345,List2B,white,man,,,,null,,,,
null,is fighting,,html-keyboard-response,105,348035,0.0-13.0-2.13,41345,List2B,white,man,,,,null,,,,
9071,,,survey-text,106,357107,0.0-13.0-3.13,41345,List2B,white,man,,,,,"{""Q0"":""Dave and Jane""}","<img src=""stim_listB/fight1.gif""</stim_listB>",is fighting,
null,"<div style=""font-size:60px;"">+</div>",,html-keyboard-response,107,357618,0.0-13.0-0.14,41345,List2B,white,man,,,,null,,,,
null,"<img src=""stim_listB/dance8.gif""</stim_listB>",,html-keyboard-response,108,359631,0.0-13.0-1.14,41345,List2B,white,man,,,,null,,,,
null,are dancing with each other,,html-keyboard-response,109,361638,0.0-13.0-2.14,41345,List2B,white,man,,,,null,,,,
5628,,,survey-text,110,367267,0.0-13.0-3.14,41345,List2B,white,man,,,,,"{""Q0"":""Ruth and Beth""}","<img src=""stim_listB/dance8.gif""</stim_listB>",are dancing with each other,
null,"<div style=""font-size:60px;"">+</div>",,html-keyboard-response,111,367776,0.0-13.0-0.15,41345,List2B,white,man,,,,null,,,,
null,"<img src=""stim_listB/talk4.gif""</stim_listB>",,html-keyboard-response,112,369779,0.0-13.0-1.15,41345,List2B,white,man,,,,null,,,,
null,are talking to each other,,html-keyboard-response,113,371780,0.0-13.0-2.15,41345,List2B,white,man,,,,null,,,,
4558,,,survey-text,114,376339,0.0-13.0-3.15,41345,List2B,white,man,,,,,"{""Q0"":""Mike and Beth""}","<img src=""stim_listB/talk4.gif""</stim_listB>",are talking to each other,
null,"<div style=""font-size:60px;"">+</div>",,html-keyboard-response,115,376855,0.0-13.0-0.16,41345,List2B,white,man,,,,null,,,,
null,"<img src=""stim_listB/meet7.gif""</stim_listB>",,html-keyboard-response,116,378861,0.0-13.0-1.16,41345,List2B,white,man,,,,null,,,,
null,is meeting,,html-keyboard-response,117,380870,0.0-13.0-2.16,41345,List2B,white,man,,,,null,,,,
6732,,,survey-text,118,387604,0.0-13.0-3.16,41345,List2B,white,man,,,,,"{""Q0"":""Kate and Jane""}","<img src=""stim_listB/meet7.gif""</stim_listB>",is meeting,
null,"<div style=""font-size:60px;"">+</div>",,html-keyboard-response,119,388114,0.0-13.0-0.17,41345,List2B,white,man,,,,null,,,,
null,"<img src=""stim_listB/fight7.gif""</stim_listB>",,html-keyboard-response,120,390125,0.0-13.0-1.17,41345,List2B,white,man,,,,null,,,,
null,is fighting,,html-keyboard-response,121,392138,0.0-13.0-2.17,41345,List2B,white,man,,,,null,,,,
6920,,,survey-text,122,399060,0.0-13.0-3.17,41345,List2B,white,man,,,,,"{""Q0"":""jane and kate""}","<img src=""stim_listB/fight7.gif""</stim_listB>",is fighting,
null,"<div style=""font-size:60px;"">+</div>",,html-keyboard-response,123,399574,0.0-13.0-0.18,41345,List2B,white,man,,,,null,,,,
null,"<img src=""stim_listB/touch1.gif""</stim_listB>",,html-keyboard-response,124,401581,0.0-13.0-1.18,41345,List2B,white,man,,,,null,,,,
null,is touching,,html-keyboard-response,125,403587,0.0-13.0-2.18,41345,List2B,white,man,,,,null,,,,
4271,,,survey-text,126,407860,0.0-13.0-3.18,41345,List2B,white,man,,,,,"{""Q0"":""Jane and Dave""}","<img src=""stim_listB/touch1.gif""</stim_listB>",is touching,
null,"<div style=""font-size:60px;"">+</div>",,html-keyboard-response,127,408361,0.0-13.0-0.19,41345,List2B,white,man,,,,null,,,,
null,"<img src=""stim_listB/marry3.gif""</stim_listB>",,html-keyboard-response,128,410364,0.0-13.0-1.19,41345,List2B,white,man,,,,null,,,,
null,is marrying,,html-keyboard-response,129,412373,0.0-13.0-2.19,41345,List2B,white,man,,,,null,,,,
4574,,,survey-text,130,416948,0.0-13.0-3.19,41345,List2B,white,man,,,,,"{""Q0"":""Beth and Mike""}","<img src=""stim_listB/marry3.gif""</stim_listB>",is marrying,
14638,"<img src='img/portrait_matrix_list2.JPG' style='width:900px;height:500px;''></img><p>If you have memorised all the portraits and names and are ready to start, press Continue.</p><p><strong>Please note: Your memory of these faces will be tested 4 times during this experiment.</strong></p>",0,html-button-response,131,431588,0.0-14.0-0.0,41345,List2B,white,man,,,,,,,,
2646,"<img src=""portrait/WM1.jpg""style=""width:400px;height:400px;""></img>",6,html-button-response,132,435236,0.0-14.0-1.0,41345,List2B,white,man,,TRUE,6,,,,,
null,CORRECT,,html-keyboard-response,133,436761,0.0-14.0-2.0-0.0,41345,List2B,white,man,,,,null,,,,
1793,"<img src=""portrait/BW2.jpg""style=""width:400px;height:400px;""></img>",2,html-button-response,134,438556,0.0-14.0-4.0,41345,List2B,white,man,,TRUE,2,,,,,
null,CORRECT,,html-keyboard-response,135,440060,0.0-14.0-5.0-0.0,41345,List2B,white,man,,,,null,,,,
1696,"<img src=""portrait/WW2.jpg""style=""width:400px;height:400px;""></img>",3,html-button-response,136,441758,0.0-14.0-7.0,41345,List2B,white,man,,TRUE,3,,,,,
null,CORRECT,,html-keyboard-response,137,443289,0.0-14.0-8.0-0.0,41345,List2B,white,man,,,,null,,,,
2627,"<img src=""portrait/WM2.jpg""style=""width:400px;height:400px;""></img>",7,html-button-response,138,445918,0.0-14.0-10.0,41345,List2B,white,man,,TRUE,7,,,,,
null,CORRECT,,html-keyboard-response,139,447430,0.0-14.0-11.0-0.0,41345,List2B,white,man,,,,null,,,,
4630,"<img src=""portrait/BM1.jpg""style=""width:400px;height:400px;""></img>",4,html-button-response,140,452062,0.0-14.0-13.0,41345,List2B,white,man,,TRUE,4,,,,,
null,CORRECT,,html-keyboard-response,141,453579,0.0-14.0-14.0-0.0,41345,List2B,white,man,,,,null,,,,
2137,"<img src=""portrait/WW1.jpg""style=""width:400px;height:400px;""></img>",1,html-button-response,142,455718,0.0-14.0-16.0,41345,List2B,white,man,,TRUE,1,,,,,
null,CORRECT,,html-keyboard-response,143,457228,0.0-14.0-17.0-0.0,41345,List2B,white,man,,,,null,,,,
1776,"<img src=""portrait/BM2.jpg""style=""width:400px;height:400px;""></img>",5,html-button-response,144,459006,0.0-14.0-19.0,41345,List2B,white,man,,TRUE,5,,,,,
null,CORRECT,,html-keyboard-response,145,460520,0.0-14.0-20.0-0.0,41345,List2B,white,man,,,,null,,,,
2829,"<img src=""portrait/BW1.jpg""style=""width:400px;height:400px;""></img>",0,html-button-response,146,463350,0.0-14.0-22.0,41345,List2B,white,man,,TRUE,0,,,,,
null,CORRECT,,html-keyboard-response,147,464870,0.0-14.0-23.0-0.0,41345,List2B,white,man,,,,null,,,,
511,<p>You got 8 out of 8 right first time. Press Continue.</p>,0,html-button-response,148,465382,0.0-14.0-25.0,41345,List2B,white,man,,,,,,,,
null,"<div style=""font-size:60px;"">+</div>",,html-keyboard-response,149,466913,0.0-15.0-0.0,41345,List2B,white,man,,,,null,,,,
null,"<img src=""stim_listB/argue5.gif""</stim_listB>",,html-keyboard-response,150,468929,0.0-15.0-1.0,41345,List2B,white,man,,,,null,,,,
null,is arguing with,,html-keyboard-response,151,470935,0.0-15.0-2.0,41345,List2B,white,man,,,,null,,,,
5733,,,survey-text,152,476670,0.0-15.0-3.0,41345,List2B,white,man,,,,,"{""Q0"":""Fred and Dave""}","<img src=""stim_listB/argue5.gif""</stim_listB>",is arguing with,
null,"<div style=""font-size:60px;"">+</div>",,html-keyboard-response,153,477180,0.0-15.0-0.1,41345,List2B,white,man,,,,null,,,,
null,"<img src=""stim_listB/marry8.gif""</stim_listB>",,html-keyboard-response,154,479195,0.0-15.0-1.1,41345,List2B,white,man,,,,null,,,,
null,are marrying each other,,html-keyboard-response,155,481205,0.0-15.0-2.1,41345,List2B,white,man,,,,null,,,,
6688,,,survey-text,156,487894,0.0-15.0-3.1,41345,List2B,white,man,,,,,"{""Q0"":""Kate and Ruth""}","<img src=""stim_listB/marry8.gif""</stim_listB>",are marrying each other,
null,"<div style=""font-size:60px;"">+</div>",,html-keyboard-response,157,488396,0.0-15.0-0.2,41345,List2B,white,man,,,,null,,,,
null,"<img src=""stim_listB/kiss7.gif""</stim_listB>",,html-keyboard-response,158,490409,0.0-15.0-1.2,41345,List2B,white,man,,,,null,,,,
null,is kissing,,html-keyboard-response,159,492413,0.0-15.0-2.2,41345,List2B,white,man,,,,null,,,,
6768,,,survey-text,160,499182,0.0-15.0-3.2,41345,List2B,white,man,,,,,"{""Q0"":""Beth and Ruth""}","<img src=""stim_listB/kiss7.gif""</stim_listB>",is kissing,
null,"<div style=""font-size:60px;"">+</div>",,html-keyboard-response,161,499697,0.0-15.0-0.3,41345,List2B,white,man,,,,null,,,,
null,"<img src=""stim_listB/argue6.gif""</stim_listB>",,html-keyboard-response,162,501715,0.0-15.0-1.3,41345,List2B,white,man,,,,null,,,,
null,are arguing with each other,,html-keyboard-response,163,503722,0.0-15.0-2.3,41345,List2B,white,man,,,,null,,,,
4074,,,survey-text,164,507796,0.0-15.0-3.3,41345,List2B,white,man,,,,,"{""Q0"":""Luke and Mike""}","<img src=""stim_listB/argue6.gif""</stim_listB>",are arguing with each other,
null,"<div style=""font-size:60px;"">+</div>",,html-keyboard-response,165,508307,0.0-15.0-0.4,41345,List2B,white,man,,,,null,,,,
null,"<img src=""stim_listB/hug4.gif""</stim_listB>",,html-keyboard-response,166,510311,0.0-15.0-1.4,41345,List2B,white,man,,,,null,,,,
null,are hugging each other,,html-keyboard-response,167,512326,0.0-15.0-2.4,41345,List2B,white,man,,,,null,,,,
4493,,,survey-text,168,516820,0.0-15.0-3.4,41345,List2B,white,man,,,,,"{""Q0"":""Mike and Kate""}","<img src=""stim_listB/hug4.gif""</stim_listB>",are hugging each other,
null,"<div style=""font-size:60px;"">+</div>",,html-keyboard-response,169,517323,0.0-15.0-0.5,41345,List2B,white,man,,,,null,,,,
null,"<img src=""stim_listB/argue4.gif""</stim_listB>",,html-keyboard-response,170,519327,0.0-15.0-1.5,41345,List2B,white,man,,,,null,,,,
null,are arguing with each other,,html-keyboard-response,171,521328,0.0-15.0-2.5,41345,List2B,white,man,,,,null,,,,
6210,,,survey-text,172,527540,0.0-15.0-3.5,41345,List2B,white,man,,,,,"{""Q0"":""Fred and Kate""}","<img src=""stim_listB/argue4.gif""</stim_listB>",are arguing with each other,
null,"<div style=""font-size:60px;"">+</div>",,html-keyboard-response,173,528042,0.0-15.0-0.6,41345,List2B,white,man,,,,null,,,,
null,"<img src=""stim_listB/talk8.gif""</stim_listB>",,html-keyboard-response,174,530046,0.0-15.0-1.6,41345,List2B,white,man,,,,null,,,,
null,are talking to each other,,html-keyboard-response,175,532058,0.0-15.0-2.6,41345,List2B,white,man,,,,null,,,,
4121,,,survey-text,176,536180,0.0-15.0-3.6,41345,List2B,white,man,,,,,"{""Q0"":""Jane and Beth""}","<img src=""stim_listB/talk8.gif""</stim_listB>",are talking to each other,
null,"<div style=""font-size:60px;"">+</div>",,html-keyboard-response,177,536684,0.0-15.0-0.7,41345,List2B,white,man,,,,null,,,,
null,"<img src=""stim_listB/meet6.gif""</stim_listB>",,html-keyboard-response,178,538697,0.0-15.0-1.7,41345,List2B,white,man,,,,null,,,,
null,are meeting each other,,html-keyboard-response,179,540699,0.0-15.0-2.7,41345,List2B,white,man,,,,null,,,,
4656,,,survey-text,180,545356,0.0-15.0-3.7,41345,List2B,white,man,,,,,"{""Q0"":""Fred and Luke""}","<img src=""stim_listB/meet6.gif""</stim_listB>",are meeting each other,
null,"<div style=""font-size:60px;"">+</div>",,html-keyboard-response,181,545871,0.0-15.0-0.8,41345,List2B,white,man,,,,null,,,,
null,"<img src=""stim_listB/argue3.gif""</stim_listB>",,html-keyboard-response,182,547886,0.0-15.0-1.8,41345,List2B,white,man,,,,null,,,,
null,is arguing with,,html-keyboard-response,183,549889,0.0-15.0-2.8,41345,List2B,white,man,,,,null,,,,
8161,,,survey-text,184,558052,0.0-15.0-3.8,41345,List2B,white,man,,,,,"{""Q0"":""Mike and Beth""}","<img src=""stim_listB/argue3.gif""</stim_listB>",is arguing with,
null,"<div style=""font-size:60px;"">+</div>",,html-keyboard-response,185,558557,0.0-15.0-0.9,41345,List2B,white,man,,,,null,,,,
null,"<img src=""stim_listB/touch4.gif""</stim_listB>",,html-keyboard-response,186,560562,0.0-15.0-1.9,41345,List2B,white,man,,,,null,,,,
null,are touching each other,,html-keyboard-response,187,562576,0.0-15.0-2.9,41345,List2B,white,man,,,,null,,,,
4115,,,survey-text,188,566692,0.0-15.0-3.9,41345,List2B,white,man,,,,,"{""Q0"":""Fred and Beth""}","<img src=""stim_listB/touch4.gif""</stim_listB>",are touching each other,
null,"<div style=""font-size:60px;"">+</div>",,html-keyboard-response,189,567194,0.0-15.0-0.10,41345,List2B,white,man,,,,null,,,,
null,"<img src=""stim_listB/hug5.gif""</stim_listB>",,html-keyboard-response,190,569196,0.0-15.0-1.10,41345,List2B,white,man,,,,null,,,,
null,is hugging,,html-keyboard-response,191,571206,0.0-15.0-2.10,41345,List2B,white,man,,,,null,,,,
3668,,,survey-text,192,574876,0.0-15.0-3.10,41345,List2B,white,man,,,,,"{""Q0"":""Fred and Luke""}","<img src=""stim_listB/hug5.gif""</stim_listB>",is hugging,
null,"<div style=""font-size:60px;"">+</div>",,html-keyboard-response,193,575390,0.0-15.0-0.11,41345,List2B,white,man,,,,null,,,,
null,"<img src=""stim_listB/kiss3.gif""</stim_listB>",,html-keyboard-response,194,577394,0.0-15.0-1.11,41345,List2B,white,man,,,,null,,,,
null,is kissing,,html-keyboard-response,195,579404,0.0-15.0-2.11,41345,List2B,white,man,,,,null,,,,
4454,,,survey-text,196,583860,0.0-15.0-3.11,41345,List2B,white,man,,,,,"{""Q0"":""Beth and Fred""}","<img src=""stim_listB/kiss3.gif""</stim_listB>",is kissing,
null,"<div style=""font-size:60px;"">+</div>",,html-keyboard-response,197,584376,0.0-15.0-0.12,41345,List2B,white,man,,,,null,,,,
null,"<img src=""stim_listB/meet8.gif""</stim_listB>",,html-keyboard-response,198,586390,0.0-15.0-1.12,41345,List2B,white,man,,,,null,,,,
null,are meeting each other,,html-keyboard-response,199,588405,0.0-15.0-2.12,41345,List2B,white,man,,,,null,,,,
4629,,,survey-text,200,593036,0.0-15.0-3.12,41345,List2B,white,man,,,,,"{""Q0"":""Beth and Ruth""}","<img src=""stim_listB/meet8.gif""</stim_listB>",are meeting each other,
null,"<div style=""font-size:60px;"">+</div>",,html-keyboard-response,201,593539,0.0-15.0-0.13,41345,List2B,white,man,,,,null,,,,
null,"<img src=""stim_listB/argue8.gif""</stim_listB>",,html-keyboard-response,202,595544,0.0-15.0-1.13,41345,List2B,white,man,,,,null,,,,
null,are arguing with each other,,html-keyboard-response,203,597546,0.0-15.0-2.13,41345,List2B,white,man,,,,null,,,,
4160,,,survey-text,204,601708,0.0-15.0-3.13,41345,List2B,white,man,,,,,"{""Q0"":""Kate and Ruth""}","<img src=""stim_listB/argue8.gif""</stim_listB>",are arguing with each other,
null,"<div style=""font-size:60px;"">+</div>",,html-keyboard-response,205,602218,0.0-15.0-0.14,41345,List2B,white,man,,,,null,,,,
null,"<img src=""stim_listB/shout6.gif""</stim_listB>",,html-keyboard-response,206,604232,0.0-15.0-1.14,41345,List2B,white,man,,,,null,,,,
null,are shouting at each other,,html-keyboard-response,207,606234,0.0-15.0-2.14,41345,List2B,white,man,,,,null,,,,
3889,,,survey-text,208,610124,0.0-15.0-3.14,41345,List2B,white,man,,,,,"{""Q0"":""Dave and Mike""}","<img src=""stim_listB/shout6.gif""</stim_listB>",are shouting at each other,
null,"<div style=""font-size:60px;"">+</div>",,html-keyboard-response,209,610631,0.0-15.0-0.15,41345,List2B,white,man,,,,null,,,,
null,"<img src=""stim_listB/fight2.gif""</stim_listB>",,html-keyboard-response,210,612634,0.0-15.0-1.15,41345,List2B,white,man,,,,null,,,,
null,are fighting each other,,html-keyboard-response,211,614638,0.0-15.0-2.15,41345,List2B,white,man,,,,null,,,,
4660,,,survey-text,212,619300,0.0-15.0-3.15,41345,List2B,white,man,,,,,"{""Q0"":""Luke and Ruth""}","<img src=""stim_listB/fight2.gif""</stim_listB>",are fighting each other,
null,"<div style=""font-size:60px;"">+</div>",,html-keyboard-response,213,619813,0.0-15.0-0.16,41345,List2B,white,man,,,,null,,,,
null,"<img src=""stim_listB/argue7.gif""</stim_listB>",,html-keyboard-response,214,621830,0.0-15.0-1.16,41345,List2B,white,man,,,,null,,,,
null,is arguing with,,html-keyboard-response,215,623827,0.0-15.0-2.16,41345,List2B,white,man,,,,null,,,,
5684,,,survey-text,216,629512,0.0-15.0-3.16,41345,List2B,white,man,,,,,"{""Q0"":""Beth and Jane""}","<img src=""stim_listB/argue7.gif""</stim_listB>",is arguing with,
null,"<div style=""font-size:60px;"">+</div>",,html-keyboard-response,217,630014,0.0-15.0-0.17,41345,List2B,white,man,,,,null,,,,
null,"<img src=""stim_listB/marry7.gif""</stim_listB>",,html-keyboard-response,218,632015,0.0-15.0-1.17,41345,List2B,white,man,,,,null,,,,
null,is marrying,,html-keyboard-response,219,634018,0.0-15.0-2.17,41345,List2B,white,man,,,,null,,,,
3820,,,survey-text,220,637840,0.0-15.0-3.17,41345,List2B,white,man,,,,,"{""Q0"":""Beth and Jane""}","<img src=""stim_listB/marry7.gif""</stim_listB>",is marrying,
null,"<div style=""font-size:60px;"">+</div>",,html-keyboard-response,221,638341,0.0-15.0-0.18,41345,List2B,white,man,,,,null,,,,
null,"<img src=""stim_listB/marry1.gif""</stim_listB>",,html-keyboard-response,222,640349,0.0-15.0-1.18,41345,List2B,white,man,,,,null,,,,
null,is marrying,,html-keyboard-response,223,642350,0.0-15.0-2.18,41345,List2B,white,man,,,,null,,,,
4368,,,survey-text,224,646720,0.0-15.0-3.18,41345,List2B,white,man,,,,,"{""Q0"":""Ruth and Dave""}","<img src=""stim_listB/marry1.gif""</stim_listB>",is marrying,
null,"<div style=""font-size:60px;"">+</div>",,html-keyboard-response,225,647235,0.0-15.0-0.19,41345,List2B,white,man,,,,null,,,,
null,"<img src=""stim_listB/touch2.gif""</stim_listB>",,html-keyboard-response,226,649248,0.0-15.0-1.19,41345,List2B,white,man,,,,null,,,,
null,are touching each other,,html-keyboard-response,227,651251,0.0-15.0-2.19,41345,List2B,white,man,,,,null,,,,
3964,,,survey-text,228,655216,0.0-15.0-3.19,41345,List2B,white,man,,,,,"{""Q0"":""Luke and Ruth""}","<img src=""stim_listB/touch2.gif""</stim_listB>",are touching each other,
1959,"<img src='img/portrait_matrix_list2.JPG' style='width:900px;height:500px;''></img><p>If you have memorised all the portraits and names and are ready to start, press Continue.</p><p><strong>Please note: Your memory of these faces will be tested 4 times during this experiment.</strong></p>",0,html-button-response,229,657176,0.0-16.0-0.0,41345,List2B,white,man,,,,,,,,
1726,"<img src=""portrait/WM2.jpg""style=""width:400px;height:400px;""></img>",7,html-button-response,230,659904,0.0-16.0-1.0,41345,List2B,white,man,,TRUE,7,,,,,
null,CORRECT,,html-keyboard-response,231,661409,0.0-16.0-2.0-0.0,41345,List2B,white,man,,,,null,,,,
1677,"<img src=""portrait/BW2.jpg""style=""width:400px;height:400px;""></img>",2,html-button-response,232,663088,0.0-16.0-4.0,41345,List2B,white,man,,TRUE,2,,,,,
null,CORRECT,,html-keyboard-response,233,664608,0.0-16.0-5.0-0.0,41345,List2B,white,man,,,,null,,,,
1542,"<img src=""portrait/WM1.jpg""style=""width:400px;height:400px;""></img>",6,html-button-response,234,666152,0.0-16.0-7.0,41345,List2B,white,man,,TRUE,6,,,,,
null,CORRECT,,html-keyboard-response,235,667663,0.0-16.0-8.0-0.0,41345,List2B,white,man,,,,null,,,,
2903,"<img src=""portrait/WW2.jpg""style=""width:400px;height:400px;""></img>",3,html-button-response,236,670568,0.0-16.0-10.0,41345,List2B,white,man,,TRUE,3,,,,,
null,CORRECT,,html-keyboard-response,237,672094,0.0-16.0-11.0-0.0,41345,List2B,white,man,,,,null,,,,
2360,"<img src=""portrait/BW1.jpg""style=""width:400px;height:400px;""></img>",0,html-button-response,238,674456,0.0-16.0-13.0,41345,List2B,white,man,,TRUE,0,,,,,
null,CORRECT,,html-keyboard-response,239,675973,0.0-16.0-14.0-0.0,41345,List2B,white,man,,,,null,,,,
3777,"<img src=""portrait/WW1.jpg""style=""width:400px;height:400px;""></img>",1,html-button-response,240,679752,0.0-16.0-16.0,41345,List2B,white,man,,TRUE,1,,,,,
null,CORRECT,,html-keyboard-response,241,681282,0.0-16.0-17.0-0.0,41345,List2B,white,man,,,,null,,,,
1828,"<img src=""portrait/BM2.jpg""style=""width:400px;height:400px;""></img>",5,html-button-response,242,683112,0.0-16.0-19.0,41345,List2B,white,man,,TRUE,5,,,,,
null,CORRECT,,html-keyboard-response,243,684646,0.0-16.0-20.0-0.0,41345,List2B,white,man,,,,null,,,,
1902,"<img src=""portrait/BM1.jpg""style=""width:400px;height:400px;""></img>",4,html-button-response,244,686549,0.0-16.0-22.0,41345,List2B,white,man,,TRUE,4,,,,,
null,CORRECT,,html-keyboard-response,245,688065,0.0-16.0-23.0-0.0,41345,List2B,white,man,,,,null,,,,
2137,<p>You got 8 out of 8 right first time. Press Continue.</p>,0,html-button-response,246,690204,0.0-16.0-25.0,41345,List2B,white,man,,,,,,,,
null,"<div style=""font-size:60px;"">+</div>",,html-keyboard-response,247,691716,0.0-17.0-0.0,41345,List2B,white,man,,,,null,,,,
null,"<img src=""stim_listB/meet1.gif""</stim_listB>",,html-keyboard-response,248,693730,0.0-17.0-1.0,41345,List2B,white,man,,,,null,,,,
null,is meeting,,html-keyboard-response,249,695739,0.0-17.0-2.0,41345,List2B,white,man,,,,null,,,,
8375,,,survey-text,250,704116,0.0-17.0-3.0,41345,List2B,white,man,,,,,"{""Q0"":""Jane and Dave""}","<img src=""stim_listB/meet1.gif""</stim_listB>",is meeting,
null,"<div style=""font-size:60px;"">+</div>",,html-keyboard-response,251,704633,0.0-17.0-0.1,41345,List2B,white,man,,,,null,,,,
null,"<img src=""stim_listB/kiss5.gif""</stim_listB>",,html-keyboard-response,252,706644,0.0-17.0-1.1,41345,List2B,white,man,,,,null,,,,
null,is kissing,,html-keyboard-response,253,708654,0.0-17.0-2.1,41345,List2B,white,man,,,,null,,,,
4093,,,survey-text,254,712748,0.0-17.0-3.1,41345,List2B,white,man,,,,,"{""Q0"":""Fred and Luke""}","<img src=""stim_listB/kiss5.gif""</stim_listB>",is kissing,
null,"<div style=""font-size:60px;"">+</div>",,html-keyboard-response,255,713259,0.0-17.0-0.2,41345,List2B,white,man,,,,null,,,,
null,"<img src=""stim_listB/hug6.gif""</stim_listB>",,html-keyboard-response,256,715262,0.0-17.0-1.2,41345,List2B,white,man,,,,null,,,,
null,are hugging each other,,html-keyboard-response,257,717276,0.0-17.0-2.2,41345,List2B,white,man,,,,null,,,,
5120,,,survey-text,258,722396,0.0-17.0-3.2,41345,List2B,white,man,,,,,"{""Q0"":""Dave and Mike""}","<img src=""stim_listB/hug6.gif""</stim_listB>",are hugging each other,
null,"<div style=""font-size:60px;"">+</div>",,html-keyboard-response,259,722903,0.0-17.0-0.3,41345,List2B,white,man,,,,null,,,,
null,"<img src=""stim_listB/hug1.gif""</stim_listB>",,html-keyboard-response,260,724920,0.0-17.0-1.3,41345,List2B,white,man,,,,null,,,,
null,is hugging,,html-keyboard-response,261,726929,0.0-17.0-2.3,41345,List2B,white,man,,,,null,,,,
3986,,,survey-text,262,730916,0.0-17.0-3.3,41345,List2B,white,man,,,,,"{""Q0"":""Luke and Ruth""}","<img src=""stim_listB/hug1.gif""</stim_listB>",is hugging,
null,"<div style=""font-size:60px;"">+</div>",,html-keyboard-response,263,731424,0.0-17.0-0.4,41345,List2B,white,man,,,,null,,,,
null,"<img src=""stim_listB/dance3.gif""</stim_listB>",,html-keyboard-response,264,733425,0.0-17.0-1.4,41345,List2B,white,man,,,,null,,,,
null,is dancing with,,html-keyboard-response,265,735427,0.0-17.0-2.4,41345,List2B,white,man,,,,null,,,,
4288,,,survey-text,266,739716,0.0-17.0-3.4,41345,List2B,white,man,,,,,"{""Q0"":""Kate and Fred""}","<img src=""stim_listB/dance3.gif""</stim_listB>",is dancing with,
null,"<div style=""font-size:60px;"">+</div>",,html-keyboard-response,267,740231,0.0-17.0-0.5,41345,List2B,white,man,,,,null,,,,
null,"<img src=""stim_listB/talk3.gif""</stim_listB>",,html-keyboard-response,268,742245,0.0-17.0-1.5,41345,List2B,white,man,,,,null,,,,
null,is talking to,,html-keyboard-response,269,744249,0.0-17.0-2.5,41345,List2B,white,man,,,,null,,,,
5546,,,survey-text,270,749796,0.0-17.0-3.5,41345,List2B,white,man,,,,,"{""Q0"":""Fred and Kate""}","<img src=""stim_listB/talk3.gif""</stim_listB>",is talking to,
null,"<div style=""font-size:60px;"">+</div>",,html-keyboard-response,271,750299,0.0-17.0-0.6,41345,List2B,white,man,,,,null,,,,
null,"<img src=""stim_listB/kiss2.gif""</stim_listB>",,html-keyboard-response,272,752312,0.0-17.0-1.6,41345,List2B,white,man,,,,null,,,,
null,are kissing each other,,html-keyboard-response,273,754327,0.0-17.0-2.6,41345,List2B,white,man,,,,null,,,,
4092,,,survey-text,274,758420,0.0-17.0-3.6,41345,List2B,white,man,,,,,"{""Q0"":""Jane and Dave""}","<img src=""stim_listB/kiss2.gif""</stim_listB>",are kissing each other,
null,"<div style=""font-size:60px;"">+</div>",,html-keyboard-response,275,758935,0.0-17.0-0.7,41345,List2B,white,man,,,,null,,,,
null,"<img src=""stim_listB/kiss4.gif""</stim_listB>",,html-keyboard-response,276,760937,0.0-17.0-1.7,41345,List2B,white,man,,,,null,,,,
null,are kissing each other,,html-keyboard-response,277,762939,0.0-17.0-2.7,41345,List2B,white,man,,,,null,,,,
4072,,,survey-text,278,767012,0.0-17.0-3.7,41345,List2B,white,man,,,,,"{""Q0"":""Mike and Kate""}","<img src=""stim_listB/kiss4.gif""</stim_listB>",are kissing each other,
null,"<div style=""font-size:60px;"">+</div>",,html-keyboard-response,279,767514,0.0-17.0-0.8,41345,List2B,white,man,,,,null,,,,
null,"<img src=""stim_listB/kiss1.gif""</stim_listB>",,html-keyboard-response,280,769522,0.0-17.0-1.8,41345,List2B,white,man,,,,null,,,,
null,is kissing,,html-keyboard-response,281,771533,0.0-17.0-2.8,41345,List2B,white,man,,,,null,,,,
4222,,,survey-text,282,775756,0.0-17.0-3.8,41345,List2B,white,man,,,,,"{""Q0"":""Ruth and Luke""}","<img src=""stim_listB/kiss1.gif""</stim_listB>",is kissing,
null,"<div style=""font-size:60px;"">+</div>",,html-keyboard-response,283,776265,0.0-17.0-0.9,41345,List2B,white,man,,,,null,,,,
null,"<img src=""stim_listB/touch3.gif""</stim_listB>",,html-keyboard-response,284,778281,0.0-17.0-1.9,41345,List2B,white,man,,,,null,,,,
null,is touching,,html-keyboard-response,285,780282,0.0-17.0-2.9,41345,List2B,white,man,,,,null,,,,
4098,,,survey-text,286,784381,0.0-17.0-3.9,41345,List2B,white,man,,,,,"{""Q0"":""Kate and Mike""}","<img src=""stim_listB/touch3.gif""</stim_listB>",is touching,
null,"<div style=""font-size:60px;"">+</div>",,html-keyboard-response,287,784883,0.0-17.0-0.10,41345,List2B,white,man,,,,null,,,,
null,"<img src=""stim_listB/shout5.gif""</stim_listB>",,html-keyboard-response,288,786886,0.0-17.0-1.10,41345,List2B,white,man,,,,null,,,,
null,is shouting at,,html-keyboard-response,289,788888,0.0-17.0-2.10,41345,List2B,white,man,,,,null,,,,
4019,,,survey-text,290,792909,0.0-17.0-3.10,41345,List2B,white,man,,,,,"{""Q0"":""Luke and Fred""}","<img src=""stim_listB/shout5.gif""</stim_listB>",is shouting at,
null,"<div style=""font-size:60px;"">+</div>",,html-keyboard-response,291,793421,0.0-17.0-0.11,41345,List2B,white,man,,,,null,,,,
null,"<img src=""stim_listB/meet3.gif""</stim_listB>",,html-keyboard-response,292,795428,0.0-17.0-1.11,41345,List2B,white,man,,,,null,,,,
null,is meeting,,html-keyboard-response,293,797435,0.0-17.0-2.11,41345,List2B,white,man,,,,null,,,,
4193,,,survey-text,294,801628,0.0-17.0-3.11,41345,List2B,white,man,,,,,"{""Q0"":""Kate and Mike""}","<img src=""stim_listB/meet3.gif""</stim_listB>",is meeting,
null,"<div style=""font-size:60px;"">+</div>",,html-keyboard-response,295,802139,0.0-17.0-0.12,41345,List2B,white,man,,,,null,,,,
null,"<img src=""stim_listB/marry5.gif""</stim_listB>",,html-keyboard-response,296,804155,0.0-17.0-1.12,41345,List2B,white,man,,,,null,,,,
null,is marrying,,html-keyboard-response,297,806170,0.0-17.0-2.12,41345,List2B,white,man,,,,null,,,,
5793,,,survey-text,298,811964,0.0-17.0-3.12,41345,List2B,white,man,,,,,"{""Q0"":""Fred and Dave""}","<img src=""stim_listB/marry5.gif""</stim_listB>",is marrying,
null,"<div style=""font-size:60px;"">+</div>",,html-keyboard-response,299,812473,0.0-17.0-0.13,41345,List2B,white,man,,,,null,,,,
null,"<img src=""stim_listB/fight5.gif""</stim_listB>",,html-keyboard-response,300,814480,0.0-17.0-1.13,41345,List2B,white,man,,,,null,,,,
null,is fighting,,html-keyboard-response,301,816482,0.0-17.0-2.13,41345,List2B,white,man,,,,null,,,,
6857,,,survey-text,302,823340,0.0-17.0-3.13,41345,List2B,white,man,,,,,"{""Q0"":""Mike and Dave""}","<img src=""stim_listB/fight5.gif""</stim_listB>",is fighting,
null,"<div style=""font-size:60px;"">+</div>",,html-keyboard-response,303,823854,0.0-17.0-0.14,41345,List2B,white,man,,,,null,,,,
null,"<img src=""stim_listB/marry4.gif""</stim_listB>",,html-keyboard-response,304,825864,0.0-17.0-1.14,41345,List2B,white,man,,,,null,,,,
null,are marrying each other,,html-keyboard-response,305,827873,0.0-17.0-2.14,41345,List2B,white,man,,,,null,,,,
5978,,,survey-text,306,833852,0.0-17.0-3.14,41345,List2B,white,man,,,,,"{""Q0"":""Fred and Kate""}","<img src=""stim_listB/marry4.gif""</stim_listB>",are marrying each other,
null,"<div style=""font-size:60px;"">+</div>",,html-keyboard-response,307,834366,0.0-17.0-0.15,41345,List2B,white,man,,,,null,,,,
null,"<img src=""stim_listB/shout2.gif""</stim_listB>",,html-keyboard-response,308,836368,0.0-17.0-1.15,41345,List2B,white,man,,,,null,,,,
null,are shouting at each other,,html-keyboard-response,309,838373,0.0-17.0-2.15,41345,List2B,white,man,,,,null,,,,
3671,,,survey-text,310,842044,0.0-17.0-3.15,41345,List2B,white,man,,,,,"{""Q0"":""Dave and JAne""}","<img src=""stim_listB/shout2.gif""</stim_listB>",are shouting at each other,
null,"<div style=""font-size:60px;"">+</div>",,html-keyboard-response,311,842555,0.0-17.0-0.16,41345,List2B,white,man,,,,null,,,,
null,"<img src=""stim_listB/marry6.gif""</stim_listB>",,html-keyboard-response,312,844565,0.0-17.0-1.16,41345,List2B,white,man,,,,null,,,,
null,are marrying each other,,html-keyboard-response,313,846576,0.0-17.0-2.16,41345,List2B,white,man,,,,null,,,,
4531,,,survey-text,314,851108,0.0-17.0-3.16,41345,List2B,white,man,,,,,"{""Q0"":""Luke and Mike""}","<img src=""stim_listB/marry6.gif""</stim_listB>",are marrying each other,
null,"<div style=""font-size:60px;"">+</div>",,html-keyboard-response,315,851612,0.0-17.0-0.17,41345,List2B,white,man,,,,null,,,,
null,"<img src=""stim_listB/dance2.gif""</stim_listB>",,html-keyboard-response,316,853628,0.0-17.0-1.17,41345,List2B,white,man,,,,null,,,,
null,are dancing with each other,,html-keyboard-response,317,855636,0.0-17.0-2.17,41345,List2B,white,man,,,,null,,,,
4519,,,survey-text,318,860156,0.0-17.0-3.17,41345,List2B,white,man,,,,,"{""Q0"":""Ruth and Dave""}","<img src=""stim_listB/dance2.gif""</stim_listB>",are dancing with each other,
null,"<div style=""font-size:60px;"">+</div>",,html-keyboard-response,319,860670,0.0-17.0-0.18,41345,List2B,white,man,,,,null,,,,
null,"<img src=""stim_listB/shout3.gif""</stim_listB>",,html-keyboard-response,320,862679,0.0-17.0-1.18,41345,List2B,white,man,,,,null,,,,
null,is shouting at,,html-keyboard-response,321,864683,0.0-17.0-2.18,41345,List2B,white,man,,,,null,,,,
5092,,,survey-text,322,869777,0.0-17.0-3.18,41345,List2B,white,man,,,,,"{""Q0"":""Fred and Beth""}","<img src=""stim_listB/shout3.gif""</stim_listB>",is shouting at,
null,"<div style=""font-size:60px;"">+</div>",,html-keyboard-response,323,870291,0.0-17.0-0.19,41345,List2B,white,man,,,,null,,,,
null,"<img src=""stim_listB/talk5.gif""</stim_listB>",,html-keyboard-response,324,872293,0.0-17.0-1.19,41345,List2B,white,man,,,,null,,,,
null,is talking to,,html-keyboard-response,325,874307,0.0-17.0-2.19,41345,List2B,white,man,,,,null,,,,
4348,,,survey-text,326,878657,0.0-17.0-3.19,41345,List2B,white,man,,,,,"{""Q0"":""Mike and Luke""}","<img src=""stim_listB/talk5.gif""</stim_listB>",is talking to,
1630,"<img src='img/portrait_matrix_list2.JPG' style='width:900px;height:500px;''></img><p>If you have memorised all the portraits and names and are ready to start, press Continue.</p><p><strong>Please note: Your memory of these faces will be tested 4 times during this experiment.</strong></p>",0,html-button-response,327,880289,0.0-18.0-0.0,41345,List2B,white,man,,,,,,,,
1573,"<img src=""portrait/BM1.jpg""style=""width:400px;height:400px;""></img>",4,html-button-response,328,882865,0.0-18.0-1.0,41345,List2B,white,man,,TRUE,4,,,,,
null,CORRECT,,html-keyboard-response,329,884386,0.0-18.0-2.0-0.0,41345,List2B,white,man,,,,null,,,,
2197,"<img src=""portrait/WW1.jpg""style=""width:400px;height:400px;""></img>",1,html-button-response,330,886585,0.0-18.0-4.0,41345,List2B,white,man,,TRUE,1,,,,,
null,CORRECT,,html-keyboard-response,331,888090,0.0-18.0-5.0-0.0,41345,List2B,white,man,,,,null,,,,
1358,"<img src=""portrait/WM2.jpg""style=""width:400px;height:400px;""></img>",7,html-button-response,332,889449,0.0-18.0-7.0,41345,List2B,white,man,,TRUE,7,,,,,
null,CORRECT,,html-keyboard-response,333,890962,0.0-18.0-8.0-0.0,41345,List2B,white,man,,,,null,,,,
2117,"<img src=""portrait/BW2.jpg""style=""width:400px;height:400px;""></img>",2,html-button-response,334,893081,0.0-18.0-10.0,41345,List2B,white,man,,TRUE,2,,,,,
null,CORRECT,,html-keyboard-response,335,894601,0.0-18.0-11.0-0.0,41345,List2B,white,man,,,,null,,,,
1527,"<img src=""portrait/BW1.jpg""style=""width:400px;height:400px;""></img>",0,html-button-response,336,896129,0.0-18.0-13.0,41345,List2B,white,man,,TRUE,0,,,,,
null,CORRECT,,html-keyboard-response,337,897636,0.0-18.0-14.0-0.0,41345,List2B,white,man,,,,null,,,,
1755,"<img src=""portrait/WW2.jpg""style=""width:400px;height:400px;""></img>",3,html-button-response,338,899393,0.0-18.0-16.0,41345,List2B,white,man,,TRUE,3,,,,,
null,CORRECT,,html-keyboard-response,339,900916,0.0-18.0-17.0-0.0,41345,List2B,white,man,,,,null,,,,
2291,"<img src=""portrait/WM1.jpg""style=""width:400px;height:400px;""></img>",6,html-button-response,340,903209,0.0-18.0-19.0,41345,List2B,white,man,,TRUE,6,,,,,
null,CORRECT,,html-keyboard-response,341,904714,0.0-18.0-20.0-0.0,41345,List2B,white,man,,,,null,,,,
1037,"<img src=""portrait/BM2.jpg""style=""width:400px;height:400px;""></img>",5,html-button-response,342,905753,0.0-18.0-22.0,41345,List2B,white,man,,TRUE,5,,,,,
null,CORRECT,,html-keyboard-response,343,907275,0.0-18.0-23.0-0.0,41345,List2B,white,man,,,,null,,,,
412,<p>You got 8 out of 8 right first time. Press Continue.</p>,0,html-button-response,344,907689,0.0-18.0-25.0,41345,List2B,white,man,,,,,,,,
null,"<div style=""font-size:60px;"">+</div>",,html-keyboard-response,345,909213,0.0-19.0-0.0,41345,List2B,white,man,,,,null,,,,
null,"<img src=""stim_listB/fight6.gif""</stim_listB>",,html-keyboard-response,346,911217,0.0-19.0-1.0,41345,List2B,white,man,,,,null,,,,
null,are fighting each other,,html-keyboard-response,347,913221,0.0-19.0-2.0,41345,List2B,white,man,,,,null,,,,
4162,,,survey-text,348,917385,0.0-19.0-3.0,41345,List2B,white,man,,,,,"{""Q0"":""Luke and Fred""}","<img src=""stim_listB/fight6.gif""</stim_listB>",are fighting each other,
null,"<div style=""font-size:60px;"">+</div>",,html-keyboard-response,349,917887,0.0-19.0-0.1,41345,List2B,white,man,,,,null,,,,
null,"<img src=""stim_listB/talk7.gif""</stim_listB>",,html-keyboard-response,350,919902,0.0-19.0-1.1,41345,List2B,white,man,,,,null,,,,
null,is talking to,,html-keyboard-response,351,921916,0.0-19.0-2.1,41345,List2B,white,man,,,,null,,,,
4204,,,survey-text,352,926121,0.0-19.0-3.1,41345,List2B,white,man,,,,,"{""Q0"":""Ruth and Kate""}","<img src=""stim_listB/talk7.gif""</stim_listB>",is talking to,
null,"<div style=""font-size:60px;"">+</div>",,html-keyboard-response,353,926634,0.0-19.0-0.2,41345,List2B,white,man,,,,null,,,,
null,"<img src=""stim_listB/dance6.gif""</stim_listB>",,html-keyboard-response,354,928654,0.0-19.0-1.2,41345,List2B,white,man,,,,null,,,,
null,are dancing with each other,,html-keyboard-response,355,930665,0.0-19.0-2.2,41345,List2B,white,man,,,,null,,,,
6299,,,survey-text,356,936964,0.0-19.0-3.2,41345,List2B,white,man,,,,,"{""Q0"":""Fred and Dave""}","<img src=""stim_listB/dance6.gif""</stim_listB>",are dancing with each other,
null,"<div style=""font-size:60px;"">+</div>",,html-keyboard-response,357,937473,0.0-19.0-0.3,41345,List2B,white,man,,,,null,,,,
null,"<img src=""stim_listB/hug8.gif""</stim_listB>",,html-keyboard-response,358,939484,0.0-19.0-1.3,41345,List2B,white,man,,,,null,,,,
null,are hugging each other,,html-keyboard-response,359,941498,0.0-19.0-2.3,41345,List2B,white,man,,,,null,,,,
5889,,,survey-text,360,947388,0.0-19.0-3.3,41345,List2B,white,man,,,,,"{""Q0"":""Kate and Jane""}","<img src=""stim_listB/hug8.gif""</stim_listB>",are hugging each other,
null,"<div style=""font-size:60px;"">+</div>",,html-keyboard-response,361,947903,0.0-19.0-0.4,41345,List2B,white,man,,,,null,,,,
null,"<img src=""stim_listB/hug3.gif""</stim_listB>",,html-keyboard-response,362,949920,0.0-19.0-1.4,41345,List2B,white,man,,,,null,,,,
null,is hugging,,html-keyboard-response,363,951936,0.0-19.0-2.4,41345,List2B,white,man,,,,null,,,,
4707,,,survey-text,364,956644,0.0-19.0-3.4,41345,List2B,white,man,,,,,"{""Q0"":""Fred and Beth""}","<img src=""stim_listB/hug3.gif""</stim_listB>",is hugging,
null,"<div style=""font-size:60px;"">+</div>",,html-keyboard-response,365,957155,0.0-19.0-0.5,41345,List2B,white,man,,,,null,,,,
null,"<img src=""stim_listB/dance7.gif""</stim_listB>",,html-keyboard-response,366,959170,0.0-19.0-1.5,41345,List2B,white,man,,,,null,,,,
null,is dancing with,,html-keyboard-response,367,961173,0.0-19.0-2.5,41345,List2B,white,man,,,,null,,,,
5663,,,survey-text,368,966836,0.0-19.0-3.5,41345,List2B,white,man,,,,,"{""Q0"":""Kate and Ruth""}","<img src=""stim_listB/dance7.gif""</stim_listB>",is dancing with,
null,"<div style=""font-size:60px;"">+</div>",,html-keyboard-response,369,967352,0.0-19.0-0.6,41345,List2B,white,man,,,,null,,,,
null,"<img src=""stim_listB/shout7.gif""</stim_listB>",,html-keyboard-response,370,969362,0.0-19.0-1.6,41345,List2B,white,man,,,,null,,,,
null,is shouting at,,html-keyboard-response,371,971373,0.0-19.0-2.6,41345,List2B,white,man,,,,null,,,,
5647,,,survey-text,372,977020,0.0-19.0-3.6,41345,List2B,white,man,,,,,"{""Q0"":""Beth and Ruth""}","<img src=""stim_listB/shout7.gif""</stim_listB>",is shouting at,
null,"<div style=""font-size:60px;"">+</div>",,html-keyboard-response,373,977536,0.0-19.0-0.7,41345,List2B,white,man,,,,null,,,,
null,"<img src=""stim_listB/shout4.gif""</stim_listB>",,html-keyboard-response,374,979553,0.0-19.0-1.7,41345,List2B,white,man,,,,null,,,,
null,are shouting at each other,,html-keyboard-response,375,981562,0.0-19.0-2.7,41345,List2B,white,man,,,,null,,,,
5874,,,survey-text,376,987437,0.0-19.0-3.7,41345,List2B,white,man,,,,,"{""Q0"":""Mike and Kate""}","<img src=""stim_listB/shout4.gif""</stim_listB>",are shouting at each other,
null,"<div style=""font-size:60px;"">+</div>",,html-keyboard-response,377,987938,0.0-19.0-0.8,41345,List2B,white,man,,,,null,,,,
null,"<img src=""stim_listB/shout8.gif""</stim_listB>",,html-keyboard-response,378,989943,0.0-19.0-1.8,41345,List2B,white,man,,,,null,,,,
null,are shouting at each other,,html-keyboard-response,379,991946,0.0-19.0-2.8,41345,List2B,white,man,,,,null,,,,
4786,,,survey-text,380,996733,0.0-19.0-3.8,41345,List2B,white,man,,,,,"{""Q0"":""Jane and Kate""}","<img src=""stim_listB/shout8.gif""</stim_listB>",are shouting at each other,
null,"<div style=""font-size:60px;"">+</div>",,html-keyboard-response,381,997249,0.0-19.0-0.9,41345,List2B,white,man,,,,null,,,,
null,"<img src=""stim_listB/meet5.gif""</stim_listB>",,html-keyboard-response,382,999255,0.0-19.0-1.9,41345,List2B,white,man,,,,null,,,,
null,is meeting,,html-keyboard-response,383,1001259,0.0-19.0-2.9,41345,List2B,white,man,,,,null,,,,
5096,,,survey-text,384,1006356,0.0-19.0-3.9,41345,List2B,white,man,,,,,"{""Q0"":""Mike and Dave""}","<img src=""stim_listB/meet5.gif""</stim_listB>",is meeting,
null,"<div style=""font-size:60px;"">+</div>",,html-keyboard-response,385,1006865,0.0-19.0-0.10,41345,List2B,white,man,,,,null,,,,
null,"<img src=""stim_listB/meet4.gif""</stim_listB>",,html-keyboard-response,386,1008872,0.0-19.0-1.10,41345,List2B,white,man,,,,null,,,,
null,are meeting each other,,html-keyboard-response,387,1010874,0.0-19.0-2.10,41345,List2B,white,man,,,,null,,,,
5034,,,survey-text,388,1015908,0.0-19.0-3.10,41345,List2B,white,man,,,,,"{""Q0"":""Fred and Beth""}","<img src=""stim_listB/meet4.gif""</stim_listB>",are meeting each other,
null,"<div style=""font-size:60px;"">+</div>",,html-keyboard-response,389,1016423,0.0-19.0-0.11,41345,List2B,white,man,,,,null,,,,
null,"<img src=""stim_listB/hug7.gif""</stim_listB>",,html-keyboard-response,390,1018436,0.0-19.0-1.11,41345,List2B,white,man,,,,null,,,,
null,is hugging,,html-keyboard-response,391,1020437,0.0-19.0-2.11,41345,List2B,white,man,,,,null,,,,
5806,,,survey-text,392,1026244,0.0-19.0-3.11,41345,List2B,white,man,,,,,"{""Q0"":""Beth and Ruth""}","<img src=""stim_listB/hug7.gif""</stim_listB>",is hugging,
null,"<div style=""font-size:60px;"">+</div>",,html-keyboard-response,393,1026746,0.0-19.0-0.12,41345,List2B,white,man,,,,null,,,,
null,"<img src=""stim_listB/marry2.gif""</stim_listB>",,html-keyboard-response,394,1028750,0.0-19.0-1.12,41345,List2B,white,man,,,,null,,,,
null,are marrying each other,,html-keyboard-response,395,1030760,0.0-19.0-2.12,41345,List2B,white,man,,,,null,,,,
5228,,,survey-text,396,1035988,0.0-19.0-3.12,41345,List2B,white,man,,,,,"{""Q0"":""Luke and Jane""}","<img src=""stim_listB/marry2.gif""</stim_listB>",are marrying each other,
null,"<div style=""font-size:60px;"">+</div>",,html-keyboard-response,397,1036500,0.0-19.0-0.13,41345,List2B,white,man,,,,null,,,,
null,"<img src=""stim_listB/kiss6.gif""</stim_listB>",,html-keyboard-response,398,1038504,0.0-19.0-1.13,41345,List2B,white,man,,,,null,,,,
null,are kissing each other,,html-keyboard-response,399,1040517,0.0-19.0-2.13,41345,List2B,white,man,,,,null,,,,
4023,,,survey-text,400,1044540,0.0-19.0-3.13,41345,List2B,white,man,,,,,"{""Q0"":""Mike and Dave""}","<img src=""stim_listB/kiss6.gif""</stim_listB>",are kissing each other,
null,"<div style=""font-size:60px;"">+</div>",,html-keyboard-response,401,1045042,0.0-19.0-0.14,41345,List2B,white,man,,,,null,,,,
null,"<img src=""stim_listB/meet2.gif""</stim_listB>",,html-keyboard-response,402,1047056,0.0-19.0-1.14,41345,List2B,white,man,,,,null,,,,
null,are meeting each other,,html-keyboard-response,403,1049066,0.0-19.0-2.14,41345,List2B,white,man,,,,null,,,,
4434,,,survey-text,404,1053500,0.0-19.0-3.14,41345,List2B,white,man,,,,,"{""Q0"":""Luke and Ruth""}","<img src=""stim_listB/meet2.gif""</stim_listB>",are meeting each other,
null,"<div style=""font-size:60px;"">+</div>",,html-keyboard-response,405,1054013,0.0-19.0-0.15,41345,List2B,white,man,,,,null,,,,
null,"<img src=""stim_listB/dance4.gif""</stim_listB>",,html-keyboard-response,406,1056016,0.0-19.0-1.15,41345,List2B,white,man,,,,null,,,,
null,are dancing with each other,,html-keyboard-response,407,1058031,0.0-19.0-2.15,41345,List2B,white,man,,,,null,,,,
5124,,,survey-text,408,1063156,0.0-19.0-3.15,41345,List2B,white,man,,,,,"{""Q0"":""Mike and Beth""}","<img src=""stim_listB/dance4.gif""</stim_listB>",are dancing with each other,
null,"<div style=""font-size:60px;"">+</div>",,html-keyboard-response,409,1063671,0.0-19.0-0.16,41345,List2B,white,man,,,,null,,,,
null,"<img src=""stim_listB/talk2.gif""</stim_listB>",,html-keyboard-response,410,1065680,0.0-19.0-1.16,41345,List2B,white,man,,,,null,,,,
null,are talking to each other,,html-keyboard-response,411,1067684,0.0-19.0-2.16,41345,List2B,white,man,,,,null,,,,
5503,,,survey-text,412,1073188,0.0-19.0-3.16,41345,List2B,white,man,,,,,"{""Q0"":""Dave and Ruth""}","<img src=""stim_listB/talk2.gif""</stim_listB>",are talking to each other,
null,"<div style=""font-size:60px;"">+</div>",,html-keyboard-response,413,1073705,0.0-19.0-0.17,41345,List2B,white,man,,,,null,,,,
null,"<img src=""stim_listB/touch8.gif""</stim_listB>",,html-keyboard-response,414,1075713,0.0-19.0-1.17,41345,List2B,white,man,,,,null,,,,
null,are touching each other,,html-keyboard-response,415,1077724,0.0-19.0-2.17,41345,List2B,white,man,,,,null,,,,
4384,,,survey-text,416,1082108,0.0-19.0-3.17,41345,List2B,white,man,,,,,"{""Q0"":""Ruth and Beth""}","<img src=""stim_listB/touch8.gif""</stim_listB>",are touching each other,
null,"<div style=""font-size:60px;"">+</div>",,html-keyboard-response,417,1082622,0.0-19.0-0.18,41345,List2B,white,man,,,,null,,,,
null,"<img src=""stim_listB/hug2.gif""</stim_listB>",,html-keyboard-response,418,1084631,0.0-19.0-1.18,41345,List2B,white,man,,,,null,,,,
null,are hugging each other,,html-keyboard-response,419,1086645,0.0-19.0-2.18,41345,List2B,white,man,,,,null,,,,
6095,,,survey-text,420,1092740,0.0-19.0-3.18,41345,List2B,white,man,,,,,"{""Q0"":""Dave and Jane""}","<img src=""stim_listB/hug2.gif""</stim_listB>",are hugging each other,
null,"<div style=""font-size:60px;"">+</div>",,html-keyboard-response,421,1093251,0.0-19.0-0.19,41345,List2B,white,man,,,,null,,,,
null,"<img src=""stim_listB/talk1.gif""</stim_listB>",,html-keyboard-response,422,1095260,0.0-19.0-1.19,41345,List2B,white,man,,,,null,,,,
null,is talking to,,html-keyboard-response,423,1097263,0.0-19.0-2.19,41345,List2B,white,man,,,,null,,,,
11636,,,survey-text,424,1108900,0.0-19.0-3.19,41345,List2B,white,man,,,,,"{""Q0"":""Luke and Jane""}","<img src=""stim_listB/talk1.gif""</stim_listB>",is talking to,
1634,<p>Thank you for completing that task.</p><p>The final part of this session is a short questionnaire.</p><p>Press Continue.</p>,0,html-button-response,425,1110536,0.0-20.0,41345,List2B,white,man,,,,,,,,
25297,,,survey-text,426,1136840,0.0-21.0,41345,List2B,white,man,,,,,"{""Q0"":""20"",""Q1"":""English"",""Q2"":""English"",""Q3"":""England"",""Q4"":""White"",""Q5"":""Male""}",,,demographics
39485,,,survey-likert,427,1176331,0.0-22.0,41345,List2B,white,man,,,,,"{""Q0"":3,""Q1"":4,""Q2"":2,""Q3"":3,""Q4"":2,""Q5"":4,""Q6"":3,""Q7"":1,""Q8"":1,""Q9"":2,""Q10"":4,""Q11"":4,""Q12"":1,""Q13"":1}",,,likert_race
40462,,,survey-likert,428,1216802,0.0-23.0,41345,List2B,white,man,,,,,"{""Q0"":5,""Q1"":5,""Q2"":4,""Q3"":5,""Q4"":2,""Q5"":4,""Q6"":5,""Q7"":3,""Q8"":5,""Q9"":2,""Q10"":5,""Q11"":5,""Q12"":3,""Q13"":2}",,,likert_gender
8015,,,survey-text,429,1224822,0.0-24.0,41345,List2B,white,man,,,,,"{""Q0"":""ccc""}",,,worker_id
3974,,,external-html,430,1228879,0.0-25.0,41345,List2B,white,man,debrief.html,,,,,,,
