rt,stimulus,button_pressed,trial_type,trial_index,time_elapsed,internal_node_id,subject,list,ppt_race,ppt_gender,url,first_guess,correct,key_press,responses,image_type,phrase_type,test_part
2700,Welcome to the experiment. Press Continue to begin.,0,html-button-response,0,2727,0.0-0.0,41621,List2B,white,man,,,,,,,,
19588,,,external-html,1,23496,0.0-1.0,41621,List2B,white,man,consent.html,,,,,,,
2669,"<p>On the next page, you will see portraits of 8 people and their names.</p><p>Your first task is to take a few minutes to memorise the names of these people.</p><p>You will have to recall their names during the rest of the experiment, so it is</p><p>essential that you try to memorise these people and their names as best as you can.</p><br><p><strong>You will then be tested on your memory of these names and portraits.</strong></p><br><p>The experiment will start after you have completed this memory test.</p><br><p>Ready?</p>",0,html-button-response,2,26167,0.0-2.0,41621,List2B,white,man,,,,,,,,
54440,"<img src='img/portrait_matrix_list2.JPG' style='width:900px;height:500px;''></img><p>If you have memorised all the portraits and names and are ready to start, press Continue.</p><p><strong>Please note: Your memory of these faces will be tested 4 times during this experiment.</strong></p>",0,html-button-response,3,81610,0.0-3.0-0.0,41621,List2B,white,man,,,,,,,,
2196,"<img src=""portrait/BM1.jpg""style=""width:400px;height:400px;""></img>",4,html-button-response,4,84808,0.0-3.0-1.0,41621,List2B,white,man,,TRUE,4,,,,,
null,CORRECT,,html-keyboard-response,5,86311,0.0-3.0-2.0-0.0,41621,List2B,white,man,,,,null,,,,
2195,"<img src=""portrait/BW2.jpg""style=""width:400px;height:400px;""></img>",2,html-button-response,6,88508,0.0-3.0-4.0,41621,List2B,white,man,,TRUE,2,,,,,
null,CORRECT,,html-keyboard-response,7,90011,0.0-3.0-5.0-0.0,41621,List2B,white,man,,,,null,,,,
3908,"<img src=""portrait/WW1.jpg""style=""width:400px;height:400px;""></img>",1,html-button-response,8,93920,0.0-3.0-7.0,41621,List2B,white,man,,TRUE,1,,,,,
null,CORRECT,,html-keyboard-response,9,95421,0.0-3.0-8.0-0.0,41621,List2B,white,man,,,,null,,,,
1810,"<img src=""portrait/WM2.jpg""style=""width:400px;height:400px;""></img>",7,html-button-response,10,97234,0.0-3.0-10.0,41621,List2B,white,man,,TRUE,7,,,,,
null,CORRECT,,html-keyboard-response,11,98735,0.0-3.0-11.0-0.0,41621,List2B,white,man,,,,null,,,,
4497,"<img src=""portrait/BM2.jpg""style=""width:400px;height:400px;""></img>",5,html-button-response,12,103235,0.0-3.0-13.0,41621,List2B,white,man,,TRUE,5,,,,,
null,CORRECT,,html-keyboard-response,13,104738,0.0-3.0-14.0-0.0,41621,List2B,white,man,,,,null,,,,
2340,"<img src=""portrait/WM1.jpg""style=""width:400px;height:400px;""></img>",6,html-button-response,14,107080,0.0-3.0-16.0,41621,List2B,white,man,,TRUE,6,,,,,
null,CORRECT,,html-keyboard-response,15,108583,0.0-3.0-17.0-0.0,41621,List2B,white,man,,,,null,,,,
4101,"<img src=""portrait/WW2.jpg""style=""width:400px;height:400px;""></img>",3,html-button-response,16,112686,0.0-3.0-19.0,41621,List2B,white,man,,TRUE,3,,,,,
null,CORRECT,,html-keyboard-response,17,114188,0.0-3.0-20.0-0.0,41621,List2B,white,man,,,,null,,,,
1823,"<img src=""portrait/BW1.jpg""style=""width:400px;height:400px;""></img>",0,html-button-response,18,116013,0.0-3.0-22.0,41621,List2B,white,man,,TRUE,0,,,,,
null,CORRECT,,html-keyboard-response,19,117515,0.0-3.0-23.0-0.0,41621,List2B,white,man,,,,null,,,,
1277,<p>You got 8 out of 8 right first time. Press Continue.</p>,0,html-button-response,20,118793,0.0-3.0-25.0,41621,List2B,white,man,,,,,,,,
22818,"<p>In this experiment, you will view photographs of the people from the memory game interacting.</p><p>By using the <strong>exact</strong> phrase given <i>after</i> the photograph appears and recalling the correct names of the people in the photographs, form a sentence describing the interaction. You do not need to capitalise names.</p><p>Type your answer in the space provided. Please complete every sentence before moving onto the next trial.</p><p>You will only have a few seconds to memorise each given photograph and phrase before you can respond, so try your best to focus.</p><p>An example is given below. Press 'Continue' when you are ready.</p><img src='img/speaking_example_v2.jpg' style='width:800px;height:460px;''></img>",0,html-button-response,21,142613,0.0-4.0,41621,List2B,white,man,,,,,,,,
1529,"<p>Before the experiment starts, you will watch two example trials. Press 'Continue'.</p>",0,html-button-response,22,145145,0.0-5.0,41621,List2B,white,man,,,,,,,,
null,<img src='img/speaking_WW.gif'></img>,,html-keyboard-response,23,148148,0.0-6.0,41621,List2B,white,man,,,,null,,,,
null,<p>is speaking to</p>,,html-keyboard-response,24,150149,0.0-7.0,41621,List2B,white,man,,,,null,,,,
3556,<p><b>Answer:</b> jane is speaking to ruth</p>,0,html-button-response,25,153707,0.0-8.0,41621,List2B,white,man,,,,,,,,
null,<img src='img/pointing_BM.gif'></img>,,html-keyboard-response,26,156708,0.0-9.0,41621,List2B,white,man,,,,null,,,,
null,<p>are pointing at each other</p>,,html-keyboard-response,27,158709,0.0-10.0,41621,List2B,white,man,,,,null,,,,
1393,<p><b>Answer:</b> fred and mike are pointing at each other</p>,0,html-button-response,28,160104,0.0-11.0,41621,List2B,white,man,,,,,,,,
5105,"<p>Ready to start the experiment?</p><br><p><strong>Remember to describe the picture using a full sentence,</strong></p><p><strong> that combines the names of the people with the given phrase.</strong></p><p><strong> You do not need to capitalise names or use punctuation.</strong></p><br><p>Press 'Continue' to begin.</p>",0,html-button-response,29,166211,0.0-12.0,41621,List2B,white,man,,,,,,,,
null,"<div style=""font-size:60px;"">+</div>",,html-keyboard-response,30,167713,0.0-13.0-0.0,41621,List2B,white,man,,,,null,,,,
null,"<img src=""stim_listB/meet8.gif""</stim_listB>",,html-keyboard-response,31,169716,0.0-13.0-1.0,41621,List2B,white,man,,,,null,,,,
null,are meeting each other,,html-keyboard-response,32,171718,0.0-13.0-2.0,41621,List2B,white,man,,,,null,,,,
19275,,,survey-text,33,190994,0.0-13.0-3.0,41621,List2B,white,man,,,,,"{""Q0"":""beth and ruth are meeting each other""}","<img src=""stim_listB/meet8.gif""</stim_listB>",are meeting each other,
null,"<div style=""font-size:60px;"">+</div>",,html-keyboard-response,34,191496,0.0-13.0-0.1,41621,List2B,white,man,,,,null,,,,
null,"<img src=""stim_listB/dance1.gif""</stim_listB>",,html-keyboard-response,35,193497,0.0-13.0-1.1,41621,List2B,white,man,,,,null,,,,
null,is dancing with,,html-keyboard-response,36,195498,0.0-13.0-2.1,41621,List2B,white,man,,,,null,,,,
13379,,,survey-text,37,208878,0.0-13.0-3.1,41621,List2B,white,man,,,,,"{""Q0"":""luke is dancing with jane""}","<img src=""stim_listB/dance1.gif""</stim_listB>",is dancing with,
null,"<div style=""font-size:60px;"">+</div>",,html-keyboard-response,38,209380,0.0-13.0-0.2,41621,List2B,white,man,,,,null,,,,
null,"<img src=""stim_listB/hug6.gif""</stim_listB>",,html-keyboard-response,39,211382,0.0-13.0-1.2,41621,List2B,white,man,,,,null,,,,
null,are hugging each other,,html-keyboard-response,40,213384,0.0-13.0-2.2,41621,List2B,white,man,,,,null,,,,
17219,,,survey-text,41,230603,0.0-13.0-3.2,41621,List2B,white,man,,,,,"{""Q0"":""mike + dave are hugging each other""}","<img src=""stim_listB/hug6.gif""</stim_listB>",are hugging each other,
null,"<div style=""font-size:60px;"">+</div>",,html-keyboard-response,42,231104,0.0-13.0-0.3,41621,List2B,white,man,,,,null,,,,
null,"<img src=""stim_listB/touch6.gif""</stim_listB>",,html-keyboard-response,43,233105,0.0-13.0-1.3,41621,List2B,white,man,,,,null,,,,
null,are touching each other,,html-keyboard-response,44,235106,0.0-13.0-2.3,41621,List2B,white,man,,,,null,,,,
11864,,,survey-text,45,246972,0.0-13.0-3.3,41621,List2B,white,man,,,,,"{""Q0"":""luke and fred are touching each other""}","<img src=""stim_listB/touch6.gif""</stim_listB>",are touching each other,
null,"<div style=""font-size:60px;"">+</div>",,html-keyboard-response,46,247473,0.0-13.0-0.4,41621,List2B,white,man,,,,null,,,,
null,"<img src=""stim_listB/marry6.gif""</stim_listB>",,html-keyboard-response,47,249474,0.0-13.0-1.4,41621,List2B,white,man,,,,null,,,,
null,are marrying each other,,html-keyboard-response,48,251475,0.0-13.0-2.4,41621,List2B,white,man,,,,null,,,,
19758,,,survey-text,49,271235,0.0-13.0-3.4,41621,List2B,white,man,,,,,"{""Q0"":""luke mike are marrying each other ""}","<img src=""stim_listB/marry6.gif""</stim_listB>",are marrying each other,
null,"<div style=""font-size:60px;"">+</div>",,html-keyboard-response,50,271737,0.0-13.0-0.5,41621,List2B,white,man,,,,null,,,,
null,"<img src=""stim_listB/kiss4.gif""</stim_listB>",,html-keyboard-response,51,273738,0.0-13.0-1.5,41621,List2B,white,man,,,,null,,,,
null,are kissing each other,,html-keyboard-response,52,275739,0.0-13.0-2.5,41621,List2B,white,man,,,,null,,,,
7131,,,survey-text,53,282870,0.0-13.0-3.5,41621,List2B,white,man,,,,,"{""Q0"":""kate and mike are kissing each other""}","<img src=""stim_listB/kiss4.gif""</stim_listB>",are kissing each other,
null,"<div style=""font-size:60px;"">+</div>",,html-keyboard-response,54,283373,0.0-13.0-0.6,41621,List2B,white,man,,,,null,,,,
null,"<img src=""stim_listB/argue4.gif""</stim_listB>",,html-keyboard-response,55,285375,0.0-13.0-1.6,41621,List2B,white,man,,,,null,,,,
null,are arguing with each other,,html-keyboard-response,56,287376,0.0-13.0-2.6,41621,List2B,white,man,,,,null,,,,
12680,,,survey-text,57,300056,0.0-13.0-3.6,41621,List2B,white,man,,,,,"{""Q0"":""kate fred are arguing with each other""}","<img src=""stim_listB/argue4.gif""</stim_listB>",are arguing with each other,
null,"<div style=""font-size:60px;"">+</div>",,html-keyboard-response,58,300559,0.0-13.0-0.7,41621,List2B,white,man,,,,null,,,,
null,"<img src=""stim_listB/shout4.gif""</stim_listB>",,html-keyboard-response,59,302560,0.0-13.0-1.7,41621,List2B,white,man,,,,null,,,,
null,are shouting at each other,,html-keyboard-response,60,304561,0.0-13.0-2.7,41621,List2B,white,man,,,,null,,,,
11569,,,survey-text,61,316130,0.0-13.0-3.7,41621,List2B,white,man,,,,,"{""Q0"":""kate and mike are shouting at each other""}","<img src=""stim_listB/shout4.gif""</stim_listB>",are shouting at each other,
null,"<div style=""font-size:60px;"">+</div>",,html-keyboard-response,62,316632,0.0-13.0-0.8,41621,List2B,white,man,,,,null,,,,
null,"<img src=""stim_listB/meet6.gif""</stim_listB>",,html-keyboard-response,63,318633,0.0-13.0-1.8,41621,List2B,white,man,,,,null,,,,
null,are meeting each other,,html-keyboard-response,64,320634,0.0-13.0-2.8,41621,List2B,white,man,,,,null,,,,
11520,,,survey-text,65,332154,0.0-13.0-3.8,41621,List2B,white,man,,,,,"{""Q0"":""luke + mike are meeting each other""}","<img src=""stim_listB/meet6.gif""</stim_listB>",are meeting each other,
null,"<div style=""font-size:60px;"">+</div>",,html-keyboard-response,66,332656,0.0-13.0-0.9,41621,List2B,white,man,,,,null,,,,
null,"<img src=""stim_listB/talk3.gif""</stim_listB>",,html-keyboard-response,67,334657,0.0-13.0-1.9,41621,List2B,white,man,,,,null,,,,
null,is talking to,,html-keyboard-response,68,336658,0.0-13.0-2.9,41621,List2B,white,man,,,,null,,,,
4714,,,survey-text,69,341373,0.0-13.0-3.9,41621,List2B,white,man,,,,,"{""Q0"":""kate is talking to fred""}","<img src=""stim_listB/talk3.gif""</stim_listB>",is talking to,
null,"<div style=""font-size:60px;"">+</div>",,html-keyboard-response,70,341874,0.0-13.0-0.10,41621,List2B,white,man,,,,null,,,,
null,"<img src=""stim_listB/marry7.gif""</stim_listB>",,html-keyboard-response,71,343875,0.0-13.0-1.10,41621,List2B,white,man,,,,null,,,,
null,is marrying,,html-keyboard-response,72,345876,0.0-13.0-2.10,41621,List2B,white,man,,,,null,,,,
4709,,,survey-text,73,350585,0.0-13.0-3.10,41621,List2B,white,man,,,,,"{""Q0"":""beth is marrying jane""}","<img src=""stim_listB/marry7.gif""</stim_listB>",is marrying,
null,"<div style=""font-size:60px;"">+</div>",,html-keyboard-response,74,351086,0.0-13.0-0.11,41621,List2B,white,man,,,,null,,,,
null,"<img src=""stim_listB/dance6.gif""</stim_listB>",,html-keyboard-response,75,353087,0.0-13.0-1.11,41621,List2B,white,man,,,,null,,,,
null,are dancing with each other,,html-keyboard-response,76,355088,0.0-13.0-2.11,41621,List2B,white,man,,,,null,,,,
11587,,,survey-text,77,366675,0.0-13.0-3.11,41621,List2B,white,man,,,,,"{""Q0"":""dave mike are dancing with each other""}","<img src=""stim_listB/dance6.gif""</stim_listB>",are dancing with each other,
null,"<div style=""font-size:60px;"">+</div>",,html-keyboard-response,78,367177,0.0-13.0-0.12,41621,List2B,white,man,,,,null,,,,
null,"<img src=""stim_listB/shout5.gif""</stim_listB>",,html-keyboard-response,79,369178,0.0-13.0-1.12,41621,List2B,white,man,,,,null,,,,
null,is shouting at,,html-keyboard-response,80,371180,0.0-13.0-2.12,41621,List2B,white,man,,,,null,,,,
6240,,,survey-text,81,377421,0.0-13.0-3.12,41621,List2B,white,man,,,,,"{""Q0"":""luke is shouting at fred""}","<img src=""stim_listB/shout5.gif""</stim_listB>",is shouting at,
null,"<div style=""font-size:60px;"">+</div>",,html-keyboard-response,82,377923,0.0-13.0-0.13,41621,List2B,white,man,,,,null,,,,
null,"<img src=""stim_listB/kiss5.gif""</stim_listB>",,html-keyboard-response,83,379925,0.0-13.0-1.13,41621,List2B,white,man,,,,null,,,,
null,is kissing,,html-keyboard-response,84,381926,0.0-13.0-2.13,41621,List2B,white,man,,,,null,,,,
4598,,,survey-text,85,386525,0.0-13.0-3.13,41621,List2B,white,man,,,,,"{""Q0"":""luke is kissing fred""}","<img src=""stim_listB/kiss5.gif""</stim_listB>",is kissing,
null,"<div style=""font-size:60px;"">+</div>",,html-keyboard-response,86,387026,0.0-13.0-0.14,41621,List2B,white,man,,,,null,,,,
null,"<img src=""stim_listB/kiss2.gif""</stim_listB>",,html-keyboard-response,87,389028,0.0-13.0-1.14,41621,List2B,white,man,,,,null,,,,
null,are kissing each other,,html-keyboard-response,88,391029,0.0-13.0-2.14,41621,List2B,white,man,,,,null,,,,
7648,,,survey-text,89,398678,0.0-13.0-3.14,41621,List2B,white,man,,,,,"{""Q0"":""dave + jane are kissing each other""}","<img src=""stim_listB/kiss2.gif""</stim_listB>",are kissing each other,
null,"<div style=""font-size:60px;"">+</div>",,html-keyboard-response,90,399181,0.0-13.0-0.15,41621,List2B,white,man,,,,null,,,,
null,"<img src=""stim_listB/dance4.gif""</stim_listB>",,html-keyboard-response,91,401183,0.0-13.0-1.15,41621,List2B,white,man,,,,null,,,,
null,are dancing with each other,,html-keyboard-response,92,403184,0.0-13.0-2.15,41621,List2B,white,man,,,,null,,,,
7610,,,survey-text,93,410795,0.0-13.0-3.15,41621,List2B,white,man,,,,,"{""Q0"":""beth + mike are dancing with each other""}","<img src=""stim_listB/dance4.gif""</stim_listB>",are dancing with each other,
null,"<div style=""font-size:60px;"">+</div>",,html-keyboard-response,94,411297,0.0-13.0-0.16,41621,List2B,white,man,,,,null,,,,
null,"<img src=""stim_listB/dance7.gif""</stim_listB>",,html-keyboard-response,95,413299,0.0-13.0-1.16,41621,List2B,white,man,,,,null,,,,
null,is dancing with,,html-keyboard-response,96,415301,0.0-13.0-2.16,41621,List2B,white,man,,,,null,,,,
4661,,,survey-text,97,419963,0.0-13.0-3.16,41621,List2B,white,man,,,,,"{""Q0"":""kate is dancing with ruth""}","<img src=""stim_listB/dance7.gif""</stim_listB>",is dancing with,
null,"<div style=""font-size:60px;"">+</div>",,html-keyboard-response,98,420464,0.0-13.0-0.17,41621,List2B,white,man,,,,null,,,,
null,"<img src=""stim_listB/talk7.gif""</stim_listB>",,html-keyboard-response,99,422466,0.0-13.0-1.17,41621,List2B,white,man,,,,null,,,,
null,is talking to,,html-keyboard-response,100,424467,0.0-13.0-2.17,41621,List2B,white,man,,,,null,,,,
4181,,,survey-text,101,428648,0.0-13.0-3.17,41621,List2B,white,man,,,,,"{""Q0"":""ruth is talking to kate""}","<img src=""stim_listB/talk7.gif""</stim_listB>",is talking to,
null,"<div style=""font-size:60px;"">+</div>",,html-keyboard-response,102,429150,0.0-13.0-0.18,41621,List2B,white,man,,,,null,,,,
null,"<img src=""stim_listB/talk6.gif""</stim_listB>",,html-keyboard-response,103,431152,0.0-13.0-1.18,41621,List2B,white,man,,,,null,,,,
null,are talking to each other,,html-keyboard-response,104,433153,0.0-13.0-2.18,41621,List2B,white,man,,,,null,,,,
9005,,,survey-text,105,442158,0.0-13.0-3.18,41621,List2B,white,man,,,,,"{""Q0"":""luke + fred is talking to each other""}","<img src=""stim_listB/talk6.gif""</stim_listB>",are talking to each other,
null,"<div style=""font-size:60px;"">+</div>",,html-keyboard-response,106,442660,0.0-13.0-0.19,41621,List2B,white,man,,,,null,,,,
null,"<img src=""stim_listB/talk4.gif""</stim_listB>",,html-keyboard-response,107,444662,0.0-13.0-1.19,41621,List2B,white,man,,,,null,,,,
null,are talking to each other,,html-keyboard-response,108,446663,0.0-13.0-2.19,41621,List2B,white,man,,,,null,,,,
10361,,,survey-text,109,457024,0.0-13.0-3.19,41621,List2B,white,man,,,,,"{""Q0"":""beth and mike are talking to each other""}","<img src=""stim_listB/talk4.gif""</stim_listB>",are talking to each other,
6648,"<img src='img/portrait_matrix_list2.JPG' style='width:900px;height:500px;''></img><p>If you have memorised all the portraits and names and are ready to start, press Continue.</p><p><strong>Please note: Your memory of these faces will be tested 4 times during this experiment.</strong></p>",0,html-button-response,110,463675,0.0-14.0-0.0,41621,List2B,white,man,,,,,,,,
2526,"<img src=""portrait/WM2.jpg""style=""width:400px;height:400px;""></img>",7,html-button-response,111,467205,0.0-14.0-1.0,41621,List2B,white,man,,TRUE,7,,,,,
null,CORRECT,,html-keyboard-response,112,468707,0.0-14.0-2.0-0.0,41621,List2B,white,man,,,,null,,,,
4202,"<img src=""portrait/WW1.jpg""style=""width:400px;height:400px;""></img>",1,html-button-response,113,472911,0.0-14.0-4.0,41621,List2B,white,man,,TRUE,1,,,,,
null,CORRECT,,html-keyboard-response,114,474414,0.0-14.0-5.0-0.0,41621,List2B,white,man,,,,null,,,,
1922,"<img src=""portrait/BM2.jpg""style=""width:400px;height:400px;""></img>",5,html-button-response,115,476338,0.0-14.0-7.0,41621,List2B,white,man,,TRUE,5,,,,,
null,CORRECT,,html-keyboard-response,116,477840,0.0-14.0-8.0-0.0,41621,List2B,white,man,,,,null,,,,
966,"<img src=""portrait/WM1.jpg""style=""width:400px;height:400px;""></img>",6,html-button-response,117,478808,0.0-14.0-10.0,41621,List2B,white,man,,TRUE,6,,,,,
null,CORRECT,,html-keyboard-response,118,480310,0.0-14.0-11.0-0.0,41621,List2B,white,man,,,,null,,,,
2638,"<img src=""portrait/BW1.jpg""style=""width:400px;height:400px;""></img>",0,html-button-response,119,482950,0.0-14.0-13.0,41621,List2B,white,man,,TRUE,0,,,,,
null,CORRECT,,html-keyboard-response,120,484452,0.0-14.0-14.0-0.0,41621,List2B,white,man,,,,null,,,,
1740,"<img src=""portrait/BW2.jpg""style=""width:400px;height:400px;""></img>",2,html-button-response,121,486194,0.0-14.0-16.0,41621,List2B,white,man,,TRUE,2,,,,,
null,CORRECT,,html-keyboard-response,122,487696,0.0-14.0-17.0-0.0,41621,List2B,white,man,,,,null,,,,
1832,"<img src=""portrait/BM1.jpg""style=""width:400px;height:400px;""></img>",4,html-button-response,123,489530,0.0-14.0-19.0,41621,List2B,white,man,,TRUE,4,,,,,
null,CORRECT,,html-keyboard-response,124,491033,0.0-14.0-20.0-0.0,41621,List2B,white,man,,,,null,,,,
1639,"<img src=""portrait/WW2.jpg""style=""width:400px;height:400px;""></img>",3,html-button-response,125,492674,0.0-14.0-22.0,41621,List2B,white,man,,TRUE,3,,,,,
null,CORRECT,,html-keyboard-response,126,494178,0.0-14.0-23.0-0.0,41621,List2B,white,man,,,,null,,,,
794,<p>You got 8 out of 8 right first time. Press Continue.</p>,0,html-button-response,127,494974,0.0-14.0-25.0,41621,List2B,white,man,,,,,,,,
null,"<div style=""font-size:60px;"">+</div>",,html-keyboard-response,128,496475,0.0-15.0-0.0,41621,List2B,white,man,,,,null,,,,
null,"<img src=""stim_listB/meet1.gif""</stim_listB>",,html-keyboard-response,129,498476,0.0-15.0-1.0,41621,List2B,white,man,,,,null,,,,
null,is meeting,,html-keyboard-response,130,500478,0.0-15.0-2.0,41621,List2B,white,man,,,,null,,,,
4249,,,survey-text,131,504728,0.0-15.0-3.0,41621,List2B,white,man,,,,,"{""Q0"":""jane is meeting dave""}","<img src=""stim_listB/meet1.gif""</stim_listB>",is meeting,
null,"<div style=""font-size:60px;"">+</div>",,html-keyboard-response,132,505229,0.0-15.0-0.1,41621,List2B,white,man,,,,null,,,,
null,"<img src=""stim_listB/shout6.gif""</stim_listB>",,html-keyboard-response,133,507230,0.0-15.0-1.1,41621,List2B,white,man,,,,null,,,,
null,are shouting at each other,,html-keyboard-response,134,509232,0.0-15.0-2.1,41621,List2B,white,man,,,,null,,,,
8569,,,survey-text,135,517802,0.0-15.0-3.1,41621,List2B,white,man,,,,,"{""Q0"":""dave an mike are shouting at each other""}","<img src=""stim_listB/shout6.gif""</stim_listB>",are shouting at each other,
null,"<div style=""font-size:60px;"">+</div>",,html-keyboard-response,136,518305,0.0-15.0-0.2,41621,List2B,white,man,,,,null,,,,
null,"<img src=""stim_listB/fight6.gif""</stim_listB>",,html-keyboard-response,137,520307,0.0-15.0-1.2,41621,List2B,white,man,,,,null,,,,
null,are fighting each other,,html-keyboard-response,138,522308,0.0-15.0-2.2,41621,List2B,white,man,,,,null,,,,
7852,,,survey-text,139,530162,0.0-15.0-3.2,41621,List2B,white,man,,,,,"{""Q0"":""luke + fred are fighting each other""}","<img src=""stim_listB/fight6.gif""</stim_listB>",are fighting each other,
null,"<div style=""font-size:60px;"">+</div>",,html-keyboard-response,140,530665,0.0-15.0-0.3,41621,List2B,white,man,,,,null,,,,
null,"<img src=""stim_listB/hug1.gif""</stim_listB>",,html-keyboard-response,141,532666,0.0-15.0-1.3,41621,List2B,white,man,,,,null,,,,
null,is hugging,,html-keyboard-response,142,534667,0.0-15.0-2.3,41621,List2B,white,man,,,,null,,,,
5216,,,survey-text,143,539885,0.0-15.0-3.3,41621,List2B,white,man,,,,,"{""Q0"":""luke is hugging ruth""}","<img src=""stim_listB/hug1.gif""</stim_listB>",is hugging,
null,"<div style=""font-size:60px;"">+</div>",,html-keyboard-response,144,540387,0.0-15.0-0.4,41621,List2B,white,man,,,,null,,,,
null,"<img src=""stim_listB/meet3.gif""</stim_listB>",,html-keyboard-response,145,542389,0.0-15.0-1.4,41621,List2B,white,man,,,,null,,,,
null,is meeting,,html-keyboard-response,146,544390,0.0-15.0-2.4,41621,List2B,white,man,,,,null,,,,
8060,,,survey-text,147,552451,0.0-15.0-3.4,41621,List2B,white,man,,,,,"{""Q0"":""kate is meeting mike""}","<img src=""stim_listB/meet3.gif""</stim_listB>",is meeting,
null,"<div style=""font-size:60px;"">+</div>",,html-keyboard-response,148,552952,0.0-15.0-0.5,41621,List2B,white,man,,,,null,,,,
null,"<img src=""stim_listB/touch1.gif""</stim_listB>",,html-keyboard-response,149,554953,0.0-15.0-1.5,41621,List2B,white,man,,,,null,,,,
null,is touching,,html-keyboard-response,150,556954,0.0-15.0-2.5,41621,List2B,white,man,,,,null,,,,
9238,,,survey-text,151,566192,0.0-15.0-3.5,41621,List2B,white,man,,,,,"{""Q0"":""jane is touching dave""}","<img src=""stim_listB/touch1.gif""</stim_listB>",is touching,
null,"<div style=""font-size:60px;"">+</div>",,html-keyboard-response,152,566694,0.0-15.0-0.6,41621,List2B,white,man,,,,null,,,,
null,"<img src=""stim_listB/marry4.gif""</stim_listB>",,html-keyboard-response,153,568695,0.0-15.0-1.6,41621,List2B,white,man,,,,null,,,,
null,are marrying each other,,html-keyboard-response,154,570696,0.0-15.0-2.6,41621,List2B,white,man,,,,null,,,,
9089,,,survey-text,155,579786,0.0-15.0-3.6,41621,List2B,white,man,,,,,"{""Q0"":""kate and fred are marrying each other""}","<img src=""stim_listB/marry4.gif""</stim_listB>",are marrying each other,
null,"<div style=""font-size:60px;"">+</div>",,html-keyboard-response,156,580288,0.0-15.0-0.7,41621,List2B,white,man,,,,null,,,,
null,"<img src=""stim_listB/marry2.gif""</stim_listB>",,html-keyboard-response,157,582290,0.0-15.0-1.7,41621,List2B,white,man,,,,null,,,,
null,are marrying each other,,html-keyboard-response,158,584291,0.0-15.0-2.7,41621,List2B,white,man,,,,null,,,,
10893,,,survey-text,159,595186,0.0-15.0-3.7,41621,List2B,white,man,,,,,"{""Q0"":""""}","<img src=""stim_listB/marry2.gif""</stim_listB>",are marrying each other,
null,"<div style=""font-size:60px;"">+</div>",,html-keyboard-response,160,595688,0.0-15.0-0.8,41621,List2B,white,man,,,,null,,,,
null,"<img src=""stim_listB/marry1.gif""</stim_listB>",,html-keyboard-response,161,597689,0.0-15.0-1.8,41621,List2B,white,man,,,,null,,,,
null,is marrying,,html-keyboard-response,162,599691,0.0-15.0-2.8,41621,List2B,white,man,,,,null,,,,
6108,,,survey-text,163,605800,0.0-15.0-3.8,41621,List2B,white,man,,,,,"{""Q0"":""ruth is marrying dave""}","<img src=""stim_listB/marry1.gif""</stim_listB>",is marrying,
null,"<div style=""font-size:60px;"">+</div>",,html-keyboard-response,164,606302,0.0-15.0-0.9,41621,List2B,white,man,,,,null,,,,
null,"<img src=""stim_listB/hug5.gif""</stim_listB>",,html-keyboard-response,165,608303,0.0-15.0-1.9,41621,List2B,white,man,,,,null,,,,
null,is hugging,,html-keyboard-response,166,610305,0.0-15.0-2.9,41621,List2B,white,man,,,,null,,,,
4179,,,survey-text,167,614484,0.0-15.0-3.9,41621,List2B,white,man,,,,,"{""Q0"":""fred is hugging luke""}","<img src=""stim_listB/hug5.gif""</stim_listB>",is hugging,
null,"<div style=""font-size:60px;"">+</div>",,html-keyboard-response,168,614985,0.0-15.0-0.10,41621,List2B,white,man,,,,null,,,,
null,"<img src=""stim_listB/kiss3.gif""</stim_listB>",,html-keyboard-response,169,616986,0.0-15.0-1.10,41621,List2B,white,man,,,,null,,,,
null,is kissing,,html-keyboard-response,170,618988,0.0-15.0-2.10,41621,List2B,white,man,,,,null,,,,
6628,,,survey-text,171,625616,0.0-15.0-3.10,41621,List2B,white,man,,,,,"{""Q0"":""beth is kissing fred""}","<img src=""stim_listB/kiss3.gif""</stim_listB>",is kissing,
null,"<div style=""font-size:60px;"">+</div>",,html-keyboard-response,172,626119,0.0-15.0-0.11,41621,List2B,white,man,,,,null,,,,
null,"<img src=""stim_listB/meet2.gif""</stim_listB>",,html-keyboard-response,173,628120,0.0-15.0-1.11,41621,List2B,white,man,,,,null,,,,
null,are meeting each other,,html-keyboard-response,174,630122,0.0-15.0-2.11,41621,List2B,white,man,,,,null,,,,
6410,,,survey-text,175,636532,0.0-15.0-3.11,41621,List2B,white,man,,,,,"{""Q0"":""luke and ruth are meeting each other""}","<img src=""stim_listB/meet2.gif""</stim_listB>",are meeting each other,
null,"<div style=""font-size:60px;"">+</div>",,html-keyboard-response,176,637036,0.0-15.0-0.12,41621,List2B,white,man,,,,null,,,,
null,"<img src=""stim_listB/meet7.gif""</stim_listB>",,html-keyboard-response,177,639038,0.0-15.0-1.12,41621,List2B,white,man,,,,null,,,,
null,is meeting,,html-keyboard-response,178,641039,0.0-15.0-2.12,41621,List2B,white,man,,,,null,,,,
6716,,,survey-text,179,647756,0.0-15.0-3.12,41621,List2B,white,man,,,,,"{""Q0"":""kate is meeting jane""}","<img src=""stim_listB/meet7.gif""</stim_listB>",is meeting,
null,"<div style=""font-size:60px;"">+</div>",,html-keyboard-response,180,648258,0.0-15.0-0.13,41621,List2B,white,man,,,,null,,,,
null,"<img src=""stim_listB/dance3.gif""</stim_listB>",,html-keyboard-response,181,650261,0.0-15.0-1.13,41621,List2B,white,man,,,,null,,,,
null,is dancing with,,html-keyboard-response,182,652262,0.0-15.0-2.13,41621,List2B,white,man,,,,null,,,,
5596,,,survey-text,183,657860,0.0-15.0-3.13,41621,List2B,white,man,,,,,"{""Q0"":""kate is dancing with fred""}","<img src=""stim_listB/dance3.gif""</stim_listB>",is dancing with,
null,"<div style=""font-size:60px;"">+</div>",,html-keyboard-response,184,658362,0.0-15.0-0.14,41621,List2B,white,man,,,,null,,,,
null,"<img src=""stim_listB/touch8.gif""</stim_listB>",,html-keyboard-response,185,660363,0.0-15.0-1.14,41621,List2B,white,man,,,,null,,,,
null,are touching each other,,html-keyboard-response,186,662364,0.0-15.0-2.14,41621,List2B,white,man,,,,null,,,,
9988,,,survey-text,187,672352,0.0-15.0-3.14,41621,List2B,white,man,,,,,"{""Q0"":""ruth and beth are touching each other""}","<img src=""stim_listB/touch8.gif""</stim_listB>",are touching each other,
null,"<div style=""font-size:60px;"">+</div>",,html-keyboard-response,188,672854,0.0-15.0-0.15,41621,List2B,white,man,,,,null,,,,
null,"<img src=""stim_listB/marry3.gif""</stim_listB>",,html-keyboard-response,189,674856,0.0-15.0-1.15,41621,List2B,white,man,,,,null,,,,
null,is marrying,,html-keyboard-response,190,676858,0.0-15.0-2.15,41621,List2B,white,man,,,,null,,,,
6239,,,survey-text,191,683098,0.0-15.0-3.15,41621,List2B,white,man,,,,,"{""Q0"":""mike is marrying beth""}","<img src=""stim_listB/marry3.gif""</stim_listB>",is marrying,
null,"<div style=""font-size:60px;"">+</div>",,html-keyboard-response,192,683599,0.0-15.0-0.16,41621,List2B,white,man,,,,null,,,,
null,"<img src=""stim_listB/fight3.gif""</stim_listB>",,html-keyboard-response,193,685600,0.0-15.0-1.16,41621,List2B,white,man,,,,null,,,,
null,is fighting,,html-keyboard-response,194,687601,0.0-15.0-2.16,41621,List2B,white,man,,,,null,,,,
5614,,,survey-text,195,693216,0.0-15.0-3.16,41621,List2B,white,man,,,,,"{""Q0"":""kate is fighting mike""}","<img src=""stim_listB/fight3.gif""</stim_listB>",is fighting,
null,"<div style=""font-size:60px;"">+</div>",,html-keyboard-response,196,693717,0.0-15.0-0.17,41621,List2B,white,man,,,,null,,,,
null,"<img src=""stim_listB/fight8.gif""</stim_listB>",,html-keyboard-response,197,695719,0.0-15.0-1.17,41621,List2B,white,man,,,,null,,,,
null,are fighting each other,,html-keyboard-response,198,697721,0.0-15.0-2.17,41621,List2B,white,man,,,,null,,,,
13462,,,survey-text,199,711184,0.0-15.0-3.17,41621,List2B,white,man,,,,,"{""Q0"":""beth + ruth is fighting each other""}","<img src=""stim_listB/fight8.gif""</stim_listB>",are fighting each other,
null,"<div style=""font-size:60px;"">+</div>",,html-keyboard-response,200,711685,0.0-15.0-0.18,41621,List2B,white,man,,,,null,,,,
null,"<img src=""stim_listB/kiss1.gif""</stim_listB>",,html-keyboard-response,201,713686,0.0-15.0-1.18,41621,List2B,white,man,,,,null,,,,
null,is kissing,,html-keyboard-response,202,715687,0.0-15.0-2.18,41621,List2B,white,man,,,,null,,,,
6155,,,survey-text,203,721844,0.0-15.0-3.18,41621,List2B,white,man,,,,,"{""Q0"":""luke is kissing ruth""}","<img src=""stim_listB/kiss1.gif""</stim_listB>",is kissing,
null,"<div style=""font-size:60px;"">+</div>",,html-keyboard-response,204,722345,0.0-15.0-0.19,41621,List2B,white,man,,,,null,,,,
null,"<img src=""stim_listB/fight2.gif""</stim_listB>",,html-keyboard-response,205,724347,0.0-15.0-1.19,41621,List2B,white,man,,,,null,,,,
null,are fighting each other,,html-keyboard-response,206,726349,0.0-15.0-2.19,41621,List2B,white,man,,,,null,,,,
15291,,,survey-text,207,741642,0.0-15.0-3.19,41621,List2B,white,man,,,,,"{""Q0"":""luke ruth are fighting each other""}","<img src=""stim_listB/fight2.gif""</stim_listB>",are fighting each other,
1320,"<img src='img/portrait_matrix_list2.JPG' style='width:900px;height:500px;''></img><p>If you have memorised all the portraits and names and are ready to start, press Continue.</p><p><strong>Please note: Your memory of these faces will be tested 4 times during this experiment.</strong></p>",0,html-button-response,208,742964,0.0-16.0-0.0,41621,List2B,white,man,,,,,,,,
1034,"<img src=""portrait/BW2.jpg""style=""width:400px;height:400px;""></img>",2,html-button-response,209,745000,0.0-16.0-1.0,41621,List2B,white,man,,TRUE,2,,,,,
null,CORRECT,,html-keyboard-response,210,746502,0.0-16.0-2.0-0.0,41621,List2B,white,man,,,,null,,,,
1176,"<img src=""portrait/BM1.jpg""style=""width:400px;height:400px;""></img>",4,html-button-response,211,747680,0.0-16.0-4.0,41621,List2B,white,man,,TRUE,4,,,,,
null,CORRECT,,html-keyboard-response,212,749182,0.0-16.0-5.0-0.0,41621,List2B,white,man,,,,null,,,,
1422,"<img src=""portrait/BM2.jpg""style=""width:400px;height:400px;""></img>",5,html-button-response,213,750606,0.0-16.0-7.0,41621,List2B,white,man,,TRUE,5,,,,,
null,CORRECT,,html-keyboard-response,214,752108,0.0-16.0-8.0-0.0,41621,List2B,white,man,,,,null,,,,
1050,"<img src=""portrait/WM1.jpg""style=""width:400px;height:400px;""></img>",6,html-button-response,215,753160,0.0-16.0-10.0,41621,List2B,white,man,,TRUE,6,,,,,
null,CORRECT,,html-keyboard-response,216,754664,0.0-16.0-11.0-0.0,41621,List2B,white,man,,,,null,,,,
1784,"<img src=""portrait/BW1.jpg""style=""width:400px;height:400px;""></img>",0,html-button-response,217,756450,0.0-16.0-13.0,41621,List2B,white,man,,TRUE,0,,,,,
null,CORRECT,,html-keyboard-response,218,757953,0.0-16.0-14.0-0.0,41621,List2B,white,man,,,,null,,,,
1525,"<img src=""portrait/WW1.jpg""style=""width:400px;height:400px;""></img>",1,html-button-response,219,759480,0.0-16.0-16.0,41621,List2B,white,man,,TRUE,1,,,,,
null,CORRECT,,html-keyboard-response,220,760981,0.0-16.0-17.0-0.0,41621,List2B,white,man,,,,null,,,,
1357,"<img src=""portrait/WM2.jpg""style=""width:400px;height:400px;""></img>",7,html-button-response,221,762340,0.0-16.0-19.0,41621,List2B,white,man,,TRUE,7,,,,,
null,CORRECT,,html-keyboard-response,222,763841,0.0-16.0-20.0-0.0,41621,List2B,white,man,,,,null,,,,
1973,"<img src=""portrait/WW2.jpg""style=""width:400px;height:400px;""></img>",3,html-button-response,223,765816,0.0-16.0-22.0,41621,List2B,white,man,,TRUE,3,,,,,
null,CORRECT,,html-keyboard-response,224,767318,0.0-16.0-23.0-0.0,41621,List2B,white,man,,,,null,,,,
705,<p>You got 8 out of 8 right first time. Press Continue.</p>,0,html-button-response,225,768023,0.0-16.0-25.0,41621,List2B,white,man,,,,,,,,
null,"<div style=""font-size:60px;"">+</div>",,html-keyboard-response,226,769525,0.0-17.0-0.0,41621,List2B,white,man,,,,null,,,,
null,"<img src=""stim_listB/touch5.gif""</stim_listB>",,html-keyboard-response,227,771526,0.0-17.0-1.0,41621,List2B,white,man,,,,null,,,,
null,is touching,,html-keyboard-response,228,773528,0.0-17.0-2.0,41621,List2B,white,man,,,,null,,,,
8242,,,survey-text,229,781771,0.0-17.0-3.0,41621,List2B,white,man,,,,,"{""Q0"":""dave is touching mike""}","<img src=""stim_listB/touch5.gif""</stim_listB>",is touching,
null,"<div style=""font-size:60px;"">+</div>",,html-keyboard-response,230,782273,0.0-17.0-0.1,41621,List2B,white,man,,,,null,,,,
null,"<img src=""stim_listB/talk1.gif""</stim_listB>",,html-keyboard-response,231,784275,0.0-17.0-1.1,41621,List2B,white,man,,,,null,,,,
null,is talking to,,html-keyboard-response,232,786276,0.0-17.0-2.1,41621,List2B,white,man,,,,null,,,,
7788,,,survey-text,233,794065,0.0-17.0-3.1,41621,List2B,white,man,,,,,"{""Q0"":""jane is talking to luke""}","<img src=""stim_listB/talk1.gif""</stim_listB>",is talking to,
null,"<div style=""font-size:60px;"">+</div>",,html-keyboard-response,234,794566,0.0-17.0-0.2,41621,List2B,white,man,,,,null,,,,
null,"<img src=""stim_listB/talk5.gif""</stim_listB>",,html-keyboard-response,235,796568,0.0-17.0-1.2,41621,List2B,white,man,,,,null,,,,
null,is talking to,,html-keyboard-response,236,798570,0.0-17.0-2.2,41621,List2B,white,man,,,,null,,,,
6587,,,survey-text,237,805158,0.0-17.0-3.2,41621,List2B,white,man,,,,,"{""Q0"":""luke is talking to mike""}","<img src=""stim_listB/talk5.gif""</stim_listB>",is talking to,
null,"<div style=""font-size:60px;"">+</div>",,html-keyboard-response,238,805661,0.0-17.0-0.3,41621,List2B,white,man,,,,null,,,,
null,"<img src=""stim_listB/argue5.gif""</stim_listB>",,html-keyboard-response,239,807663,0.0-17.0-1.3,41621,List2B,white,man,,,,null,,,,
null,is arguing with,,html-keyboard-response,240,809664,0.0-17.0-2.3,41621,List2B,white,man,,,,null,,,,
7726,,,survey-text,241,817390,0.0-17.0-3.3,41621,List2B,white,man,,,,,"{""Q0"":""dave is arguing with fred""}","<img src=""stim_listB/argue5.gif""</stim_listB>",is arguing with,
null,"<div style=""font-size:60px;"">+</div>",,html-keyboard-response,242,817892,0.0-17.0-0.4,41621,List2B,white,man,,,,null,,,,
null,"<img src=""stim_listB/shout1.gif""</stim_listB>",,html-keyboard-response,243,819893,0.0-17.0-1.4,41621,List2B,white,man,,,,null,,,,
null,is shouting at,,html-keyboard-response,244,821894,0.0-17.0-2.4,41621,List2B,white,man,,,,null,,,,
10615,,,survey-text,245,832510,0.0-17.0-3.4,41621,List2B,white,man,,,,,"{""Q0"":""beth is shouting at dave""}","<img src=""stim_listB/shout1.gif""</stim_listB>",is shouting at,
null,"<div style=""font-size:60px;"">+</div>",,html-keyboard-response,246,833011,0.0-17.0-0.5,41621,List2B,white,man,,,,null,,,,
null,"<img src=""stim_listB/argue1.gif""</stim_listB>",,html-keyboard-response,247,835012,0.0-17.0-1.5,41621,List2B,white,man,,,,null,,,,
null,is arguing with,,html-keyboard-response,248,837014,0.0-17.0-2.5,41621,List2B,white,man,,,,null,,,,
6225,,,survey-text,249,843239,0.0-17.0-3.5,41621,List2B,white,man,,,,,"{""Q0"":""dave is arguing with ruth""}","<img src=""stim_listB/argue1.gif""</stim_listB>",is arguing with,
null,"<div style=""font-size:60px;"">+</div>",,html-keyboard-response,250,843741,0.0-17.0-0.6,41621,List2B,white,man,,,,null,,,,
null,"<img src=""stim_listB/hug3.gif""</stim_listB>",,html-keyboard-response,251,845742,0.0-17.0-1.6,41621,List2B,white,man,,,,null,,,,
null,is hugging,,html-keyboard-response,252,847744,0.0-17.0-2.6,41621,List2B,white,man,,,,null,,,,
4520,,,survey-text,253,852265,0.0-17.0-3.6,41621,List2B,white,man,,,,,"{""Q0"":""beth is hugging fred""}","<img src=""stim_listB/hug3.gif""</stim_listB>",is hugging,
null,"<div style=""font-size:60px;"">+</div>",,html-keyboard-response,254,852769,0.0-17.0-0.7,41621,List2B,white,man,,,,null,,,,
null,"<img src=""stim_listB/shout2.gif""</stim_listB>",,html-keyboard-response,255,854770,0.0-17.0-1.7,41621,List2B,white,man,,,,null,,,,
null,are shouting at each other,,html-keyboard-response,256,856771,0.0-17.0-2.7,41621,List2B,white,man,,,,null,,,,
7864,,,survey-text,257,864635,0.0-17.0-3.7,41621,List2B,white,man,,,,,"{""Q0"":""jane and dave are shouting at each other""}","<img src=""stim_listB/shout2.gif""</stim_listB>",are shouting at each other,
null,"<div style=""font-size:60px;"">+</div>",,html-keyboard-response,258,865138,0.0-17.0-0.8,41621,List2B,white,man,,,,null,,,,
null,"<img src=""stim_listB/dance2.gif""</stim_listB>",,html-keyboard-response,259,867140,0.0-17.0-1.8,41621,List2B,white,man,,,,null,,,,
null,are dancing with each other,,html-keyboard-response,260,869141,0.0-17.0-2.8,41621,List2B,white,man,,,,null,,,,
8848,,,survey-text,261,877989,0.0-17.0-3.8,41621,List2B,white,man,,,,,"{""Q0"":""dave are dancing with each other ruth""}","<img src=""stim_listB/dance2.gif""</stim_listB>",are dancing with each other,
null,"<div style=""font-size:60px;"">+</div>",,html-keyboard-response,262,878491,0.0-17.0-0.9,41621,List2B,white,man,,,,null,,,,
null,"<img src=""stim_listB/kiss6.gif""</stim_listB>",,html-keyboard-response,263,880493,0.0-17.0-1.9,41621,List2B,white,man,,,,null,,,,
null,are kissing each other,,html-keyboard-response,264,882495,0.0-17.0-2.9,41621,List2B,white,man,,,,null,,,,
9599,,,survey-text,265,892094,0.0-17.0-3.9,41621,List2B,white,man,,,,,"{""Q0"":""mike + dave is kissing each other""}","<img src=""stim_listB/kiss6.gif""</stim_listB>",are kissing each other,
null,"<div style=""font-size:60px;"">+</div>",,html-keyboard-response,266,892596,0.0-17.0-0.10,41621,List2B,white,man,,,,null,,,,
null,"<img src=""stim_listB/dance8.gif""</stim_listB>",,html-keyboard-response,267,894597,0.0-17.0-1.10,41621,List2B,white,man,,,,null,,,,
null,are dancing with each other,,html-keyboard-response,268,896598,0.0-17.0-2.10,41621,List2B,white,man,,,,null,,,,
9640,,,survey-text,269,906239,0.0-17.0-3.10,41621,List2B,white,man,,,,,"{""Q0"":""jane + beth is dancing with each other""}","<img src=""stim_listB/dance8.gif""</stim_listB>",are dancing with each other,
null,"<div style=""font-size:60px;"">+</div>",,html-keyboard-response,270,906740,0.0-17.0-0.11,41621,List2B,white,man,,,,null,,,,
null,"<img src=""stim_listB/fight7.gif""</stim_listB>",,html-keyboard-response,271,908752,0.0-17.0-1.11,41621,List2B,white,man,,,,null,,,,
null,is fighting,,html-keyboard-response,272,910753,0.0-17.0-2.11,41621,List2B,white,man,,,,null,,,,
5465,,,survey-text,273,916218,0.0-17.0-3.11,41621,List2B,white,man,,,,,"{""Q0"":""kate is fighting with jane""}","<img src=""stim_listB/fight7.gif""</stim_listB>",is fighting,
null,"<div style=""font-size:60px;"">+</div>",,html-keyboard-response,274,916720,0.0-17.0-0.12,41621,List2B,white,man,,,,null,,,,
null,"<img src=""stim_listB/hug4.gif""</stim_listB>",,html-keyboard-response,275,918721,0.0-17.0-1.12,41621,List2B,white,man,,,,null,,,,
null,are hugging each other,,html-keyboard-response,276,920722,0.0-17.0-2.12,41621,List2B,white,man,,,,null,,,,
5426,,,survey-text,277,926150,0.0-17.0-3.12,41621,List2B,white,man,,,,,"{""Q0"":""kate and mike are hugging each other""}","<img src=""stim_listB/hug4.gif""</stim_listB>",are hugging each other,
null,"<div style=""font-size:60px;"">+</div>",,html-keyboard-response,278,926653,0.0-17.0-0.13,41621,List2B,white,man,,,,null,,,,
null,"<img src=""stim_listB/fight1.gif""</stim_listB>",,html-keyboard-response,279,928654,0.0-17.0-1.13,41621,List2B,white,man,,,,null,,,,
null,is fighting,,html-keyboard-response,280,930656,0.0-17.0-2.13,41621,List2B,white,man,,,,null,,,,
4777,,,survey-text,281,935434,0.0-17.0-3.13,41621,List2B,white,man,,,,,"{""Q0"":""dave is fighting jane""}","<img src=""stim_listB/fight1.gif""</stim_listB>",is fighting,
null,"<div style=""font-size:60px;"">+</div>",,html-keyboard-response,282,935936,0.0-17.0-0.14,41621,List2B,white,man,,,,null,,,,
null,"<img src=""stim_listB/marry5.gif""</stim_listB>",,html-keyboard-response,283,937937,0.0-17.0-1.14,41621,List2B,white,man,,,,null,,,,
null,is marrying,,html-keyboard-response,284,939938,0.0-17.0-2.14,41621,List2B,white,man,,,,null,,,,
5891,,,survey-text,285,945830,0.0-17.0-3.14,41621,List2B,white,man,,,,,"{""Q0"":""dave is marrying fred""}","<img src=""stim_listB/marry5.gif""</stim_listB>",is marrying,
null,"<div style=""font-size:60px;"">+</div>",,html-keyboard-response,286,946332,0.0-17.0-0.15,41621,List2B,white,man,,,,null,,,,
null,"<img src=""stim_listB/meet5.gif""</stim_listB>",,html-keyboard-response,287,948333,0.0-17.0-1.15,41621,List2B,white,man,,,,null,,,,
null,is meeting,,html-keyboard-response,288,950334,0.0-17.0-2.15,41621,List2B,white,man,,,,null,,,,
4003,,,survey-text,289,954337,0.0-17.0-3.15,41621,List2B,white,man,,,,,"{""Q0"":""dave is meeting mike""}","<img src=""stim_listB/meet5.gif""</stim_listB>",is meeting,
null,"<div style=""font-size:60px;"">+</div>",,html-keyboard-response,290,954839,0.0-17.0-0.16,41621,List2B,white,man,,,,null,,,,
null,"<img src=""stim_listB/argue8.gif""</stim_listB>",,html-keyboard-response,291,956841,0.0-17.0-1.16,41621,List2B,white,man,,,,null,,,,
null,are arguing with each other,,html-keyboard-response,292,958843,0.0-17.0-2.16,41621,List2B,white,man,,,,null,,,,
16529,,,survey-text,293,975373,0.0-17.0-3.16,41621,List2B,white,man,,,,,"{""Q0"":""kate + ruth are arguing with each other""}","<img src=""stim_listB/argue8.gif""</stim_listB>",are arguing with each other,
null,"<div style=""font-size:60px;"">+</div>",,html-keyboard-response,294,975886,0.0-17.0-0.17,41621,List2B,white,man,,,,null,,,,
null,"<img src=""stim_listB/marry8.gif""</stim_listB>",,html-keyboard-response,295,977887,0.0-17.0-1.17,41621,List2B,white,man,,,,null,,,,
null,are marrying each other,,html-keyboard-response,296,979888,0.0-17.0-2.17,41621,List2B,white,man,,,,null,,,,
9295,,,survey-text,297,989183,0.0-17.0-3.17,41621,List2B,white,man,,,,,"{""Q0"":""kate + ruth are marrying each other""}","<img src=""stim_listB/marry8.gif""</stim_listB>",are marrying each other,
null,"<div style=""font-size:60px;"">+</div>",,html-keyboard-response,298,989685,0.0-17.0-0.18,41621,List2B,white,man,,,,null,,,,
null,"<img src=""stim_listB/touch2.gif""</stim_listB>",,html-keyboard-response,299,991687,0.0-17.0-1.18,41621,List2B,white,man,,,,null,,,,
null,are touching each other,,html-keyboard-response,300,993688,0.0-17.0-2.18,41621,List2B,white,man,,,,null,,,,
14513,,,survey-text,301,1008203,0.0-17.0-3.18,41621,List2B,white,man,,,,,"{""Q0"":""luke and ruth are touching each other""}","<img src=""stim_listB/touch2.gif""</stim_listB>",are touching each other,
null,"<div style=""font-size:60px;"">+</div>",,html-keyboard-response,302,1008704,0.0-17.0-0.19,41621,List2B,white,man,,,,null,,,,
null,"<img src=""stim_listB/fight4.gif""</stim_listB>",,html-keyboard-response,303,1010705,0.0-17.0-1.19,41621,List2B,white,man,,,,null,,,,
null,are fighting each other,,html-keyboard-response,304,1012706,0.0-17.0-2.19,41621,List2B,white,man,,,,null,,,,
10096,,,survey-text,305,1022803,0.0-17.0-3.19,41621,List2B,white,man,,,,,"{""Q0"":""fred beth are fighting each other""}","<img src=""stim_listB/fight4.gif""</stim_listB>",are fighting each other,
1301,"<img src='img/portrait_matrix_list2.JPG' style='width:900px;height:500px;''></img><p>If you have memorised all the portraits and names and are ready to start, press Continue.</p><p><strong>Please note: Your memory of these faces will be tested 4 times during this experiment.</strong></p>",0,html-button-response,306,1024106,0.0-18.0-0.0,41621,List2B,white,man,,,,,,,,
1278,"<img src=""portrait/BW1.jpg""style=""width:400px;height:400px;""></img>",0,html-button-response,307,1026387,0.0-18.0-1.0,41621,List2B,white,man,,TRUE,0,,,,,
null,CORRECT,,html-keyboard-response,308,1027889,0.0-18.0-2.0-0.0,41621,List2B,white,man,,,,null,,,,
1169,"<img src=""portrait/BW2.jpg""style=""width:400px;height:400px;""></img>",2,html-button-response,309,1029059,0.0-18.0-4.0,41621,List2B,white,man,,TRUE,2,,,,,
null,CORRECT,,html-keyboard-response,310,1030562,0.0-18.0-5.0-0.0,41621,List2B,white,man,,,,null,,,,
1189,"<img src=""portrait/BM1.jpg""style=""width:400px;height:400px;""></img>",4,html-button-response,311,1031753,0.0-18.0-7.0,41621,List2B,white,man,,TRUE,4,,,,,
null,CORRECT,,html-keyboard-response,312,1033255,0.0-18.0-8.0-0.0,41621,List2B,white,man,,,,null,,,,
931,"<img src=""portrait/WW2.jpg""style=""width:400px;height:400px;""></img>",3,html-button-response,313,1034187,0.0-18.0-10.0,41621,List2B,white,man,,TRUE,3,,,,,
null,CORRECT,,html-keyboard-response,314,1035689,0.0-18.0-11.0-0.0,41621,List2B,white,man,,,,null,,,,
1689,"<img src=""portrait/WM2.jpg""style=""width:400px;height:400px;""></img>",7,html-button-response,315,1037379,0.0-18.0-13.0,41621,List2B,white,man,,TRUE,7,,,,,
null,CORRECT,,html-keyboard-response,316,1038881,0.0-18.0-14.0-0.0,41621,List2B,white,man,,,,null,,,,
1376,"<img src=""portrait/WW1.jpg""style=""width:400px;height:400px;""></img>",1,html-button-response,317,1040259,0.0-18.0-16.0,41621,List2B,white,man,,TRUE,1,,,,,
null,CORRECT,,html-keyboard-response,318,1041761,0.0-18.0-17.0-0.0,41621,List2B,white,man,,,,null,,,,
1587,"<img src=""portrait/BM2.jpg""style=""width:400px;height:400px;""></img>",5,html-button-response,319,1043349,0.0-18.0-19.0,41621,List2B,white,man,,TRUE,5,,,,,
null,CORRECT,,html-keyboard-response,320,1044851,0.0-18.0-20.0-0.0,41621,List2B,white,man,,,,null,,,,
1112,"<img src=""portrait/WM1.jpg""style=""width:400px;height:400px;""></img>",6,html-button-response,321,1045965,0.0-18.0-22.0,41621,List2B,white,man,,TRUE,6,,,,,
null,CORRECT,,html-keyboard-response,322,1047467,0.0-18.0-23.0-0.0,41621,List2B,white,man,,,,null,,,,
757,<p>You got 8 out of 8 right first time. Press Continue.</p>,0,html-button-response,323,1048225,0.0-18.0-25.0,41621,List2B,white,man,,,,,,,,
null,"<div style=""font-size:60px;"">+</div>",,html-keyboard-response,324,1049728,0.0-19.0-0.0,41621,List2B,white,man,,,,null,,,,
null,"<img src=""stim_listB/shout7.gif""</stim_listB>",,html-keyboard-response,325,1051729,0.0-19.0-1.0,41621,List2B,white,man,,,,null,,,,
null,is shouting at,,html-keyboard-response,326,1053731,0.0-19.0-2.0,41621,List2B,white,man,,,,null,,,,
5471,,,survey-text,327,1059202,0.0-19.0-3.0,41621,List2B,white,man,,,,,"{""Q0"":""beth is shouting at ruth""}","<img src=""stim_listB/shout7.gif""</stim_listB>",is shouting at,
null,"<div style=""font-size:60px;"">+</div>",,html-keyboard-response,328,1059704,0.0-19.0-0.1,41621,List2B,white,man,,,,null,,,,
null,"<img src=""stim_listB/shout8.gif""</stim_listB>",,html-keyboard-response,329,1061705,0.0-19.0-1.1,41621,List2B,white,man,,,,null,,,,
null,are shouting at each other,,html-keyboard-response,330,1063706,0.0-19.0-2.1,41621,List2B,white,man,,,,null,,,,
7689,,,survey-text,331,1071396,0.0-19.0-3.1,41621,List2B,white,man,,,,,"{""Q0"":""kate and jane are shouting at each other""}","<img src=""stim_listB/shout8.gif""</stim_listB>",are shouting at each other,
null,"<div style=""font-size:60px;"">+</div>",,html-keyboard-response,332,1071898,0.0-19.0-0.2,41621,List2B,white,man,,,,null,,,,
null,"<img src=""stim_listB/kiss8.gif""</stim_listB>",,html-keyboard-response,333,1073899,0.0-19.0-1.2,41621,List2B,white,man,,,,null,,,,
null,are kissing each other,,html-keyboard-response,334,1075901,0.0-19.0-2.2,41621,List2B,white,man,,,,null,,,,
7997,,,survey-text,335,1083899,0.0-19.0-3.2,41621,List2B,white,man,,,,,"{""Q0"":""kate + jane are kissing each other""}","<img src=""stim_listB/kiss8.gif""</stim_listB>",are kissing each other,
null,"<div style=""font-size:60px;"">+</div>",,html-keyboard-response,336,1084403,0.0-19.0-0.3,41621,List2B,white,man,,,,null,,,,
null,"<img src=""stim_listB/touch3.gif""</stim_listB>",,html-keyboard-response,337,1086404,0.0-19.0-1.3,41621,List2B,white,man,,,,null,,,,
null,is touching,,html-keyboard-response,338,1088405,0.0-19.0-2.3,41621,List2B,white,man,,,,null,,,,
4690,,,survey-text,339,1093095,0.0-19.0-3.3,41621,List2B,white,man,,,,,"{""Q0"":""kate is touching mike""}","<img src=""stim_listB/touch3.gif""</stim_listB>",is touching,
null,"<div style=""font-size:60px;"">+</div>",,html-keyboard-response,340,1093597,0.0-19.0-0.4,41621,List2B,white,man,,,,null,,,,
null,"<img src=""stim_listB/argue3.gif""</stim_listB>",,html-keyboard-response,341,1095597,0.0-19.0-1.4,41621,List2B,white,man,,,,null,,,,
null,is arguing with,,html-keyboard-response,342,1097598,0.0-19.0-2.4,41621,List2B,white,man,,,,null,,,,
6140,,,survey-text,343,1103739,0.0-19.0-3.4,41621,List2B,white,man,,,,,"{""Q0"":""beth is arguing with mike""}","<img src=""stim_listB/argue3.gif""</stim_listB>",is arguing with,
null,"<div style=""font-size:60px;"">+</div>",,html-keyboard-response,344,1104241,0.0-19.0-0.5,41621,List2B,white,man,,,,null,,,,
null,"<img src=""stim_listB/touch4.gif""</stim_listB>",,html-keyboard-response,345,1106244,0.0-19.0-1.5,41621,List2B,white,man,,,,null,,,,
null,are touching each other,,html-keyboard-response,346,1108246,0.0-19.0-2.5,41621,List2B,white,man,,,,null,,,,
6488,,,survey-text,347,1114734,0.0-19.0-3.5,41621,List2B,white,man,,,,,"{""Q0"":""beth and fred are touching each other""}","<img src=""stim_listB/touch4.gif""</stim_listB>",are touching each other,
null,"<div style=""font-size:60px;"">+</div>",,html-keyboard-response,348,1115236,0.0-19.0-0.6,41621,List2B,white,man,,,,null,,,,
null,"<img src=""stim_listB/meet4.gif""</stim_listB>",,html-keyboard-response,349,1117239,0.0-19.0-1.6,41621,List2B,white,man,,,,null,,,,
null,are meeting each other,,html-keyboard-response,350,1119240,0.0-19.0-2.6,41621,List2B,white,man,,,,null,,,,
6015,,,survey-text,351,1125255,0.0-19.0-3.6,41621,List2B,white,man,,,,,"{""Q0"":""fred and beth are meeting each other""}","<img src=""stim_listB/meet4.gif""</stim_listB>",are meeting each other,
null,"<div style=""font-size:60px;"">+</div>",,html-keyboard-response,352,1125757,0.0-19.0-0.7,41621,List2B,white,man,,,,null,,,,
null,"<img src=""stim_listB/touch7.gif""</stim_listB>",,html-keyboard-response,353,1127759,0.0-19.0-1.7,41621,List2B,white,man,,,,null,,,,
null,is touching,,html-keyboard-response,354,1129760,0.0-19.0-2.7,41621,List2B,white,man,,,,null,,,,
3709,,,survey-text,355,1133470,0.0-19.0-3.7,41621,List2B,white,man,,,,,"{""Q0"":""jane is touching kate""}","<img src=""stim_listB/touch7.gif""</stim_listB>",is touching,
null,"<div style=""font-size:60px;"">+</div>",,html-keyboard-response,356,1133972,0.0-19.0-0.8,41621,List2B,white,man,,,,null,,,,
null,"<img src=""stim_listB/talk8.gif""</stim_listB>",,html-keyboard-response,357,1135973,0.0-19.0-1.8,41621,List2B,white,man,,,,null,,,,
null,are talking to each other,,html-keyboard-response,358,1137974,0.0-19.0-2.8,41621,List2B,white,man,,,,null,,,,
10135,,,survey-text,359,1148110,0.0-19.0-3.8,41621,List2B,white,man,,,,,"{""Q0"":""beth are talking with each other jane""}","<img src=""stim_listB/talk8.gif""</stim_listB>",are talking to each other,
null,"<div style=""font-size:60px;"">+</div>",,html-keyboard-response,360,1148614,0.0-19.0-0.9,41621,List2B,white,man,,,,null,,,,
null,"<img src=""stim_listB/dance5.gif""</stim_listB>",,html-keyboard-response,361,1150615,0.0-19.0-1.9,41621,List2B,white,man,,,,null,,,,
null,is dancing with,,html-keyboard-response,362,1152616,0.0-19.0-2.9,41621,List2B,white,man,,,,null,,,,
5085,,,survey-text,363,1157701,0.0-19.0-3.9,41621,List2B,white,man,,,,,"{""Q0"":""luke is dancing with mike""}","<img src=""stim_listB/dance5.gif""</stim_listB>",is dancing with,
null,"<div style=""font-size:60px;"">+</div>",,html-keyboard-response,364,1158203,0.0-19.0-0.10,41621,List2B,white,man,,,,null,,,,
null,"<img src=""stim_listB/hug2.gif""</stim_listB>",,html-keyboard-response,365,1160204,0.0-19.0-1.10,41621,List2B,white,man,,,,null,,,,
null,are hugging each other,,html-keyboard-response,366,1162205,0.0-19.0-2.10,41621,List2B,white,man,,,,null,,,,
10846,,,survey-text,367,1173053,0.0-19.0-3.10,41621,List2B,white,man,,,,,"{""Q0"":""dave n jane are hugging each other""}","<img src=""stim_listB/hug2.gif""</stim_listB>",are hugging each other,
null,"<div style=""font-size:60px;"">+</div>",,html-keyboard-response,368,1173555,0.0-19.0-0.11,41621,List2B,white,man,,,,null,,,,
null,"<img src=""stim_listB/argue2.gif""</stim_listB>",,html-keyboard-response,369,1175557,0.0-19.0-1.11,41621,List2B,white,man,,,,null,,,,
null,are arguing with each other,,html-keyboard-response,370,1177557,0.0-19.0-2.11,41621,List2B,white,man,,,,null,,,,
7919,,,survey-text,371,1185478,0.0-19.0-3.11,41621,List2B,white,man,,,,,"{""Q0"":""luke and jane are arguing with each other""}","<img src=""stim_listB/argue2.gif""</stim_listB>",are arguing with each other,
null,"<div style=""font-size:60px;"">+</div>",,html-keyboard-response,372,1185979,0.0-19.0-0.12,41621,List2B,white,man,,,,null,,,,
null,"<img src=""stim_listB/argue7.gif""</stim_listB>",,html-keyboard-response,373,1187982,0.0-19.0-1.12,41621,List2B,white,man,,,,null,,,,
null,is arguing with,,html-keyboard-response,374,1189983,0.0-19.0-2.12,41621,List2B,white,man,,,,null,,,,
6409,,,survey-text,375,1196394,0.0-19.0-3.12,41621,List2B,white,man,,,,,"{""Q0"":""beth is arguing with jane""}","<img src=""stim_listB/argue7.gif""</stim_listB>",is arguing with,
null,"<div style=""font-size:60px;"">+</div>",,html-keyboard-response,376,1196895,0.0-19.0-0.13,41621,List2B,white,man,,,,null,,,,
null,"<img src=""stim_listB/kiss7.gif""</stim_listB>",,html-keyboard-response,377,1198896,0.0-19.0-1.13,41621,List2B,white,man,,,,null,,,,
null,is kissing,,html-keyboard-response,378,1200897,0.0-19.0-2.13,41621,List2B,white,man,,,,null,,,,
4422,,,survey-text,379,1205319,0.0-19.0-3.13,41621,List2B,white,man,,,,,"{""Q0"":""beth is kissing ruth""}","<img src=""stim_listB/kiss7.gif""</stim_listB>",is kissing,
null,"<div style=""font-size:60px;"">+</div>",,html-keyboard-response,380,1205820,0.0-19.0-0.14,41621,List2B,white,man,,,,null,,,,
null,"<img src=""stim_listB/fight5.gif""</stim_listB>",,html-keyboard-response,381,1207821,0.0-19.0-1.14,41621,List2B,white,man,,,,null,,,,
null,is fighting,,html-keyboard-response,382,1209823,0.0-19.0-2.14,41621,List2B,white,man,,,,null,,,,
6681,,,survey-text,383,1216505,0.0-19.0-3.14,41621,List2B,white,man,,,,,"{""Q0"":""dave is fighting mike""}","<img src=""stim_listB/fight5.gif""</stim_listB>",is fighting,
null,"<div style=""font-size:60px;"">+</div>",,html-keyboard-response,384,1217007,0.0-19.0-0.15,41621,List2B,white,man,,,,null,,,,
null,"<img src=""stim_listB/shout3.gif""</stim_listB>",,html-keyboard-response,385,1219008,0.0-19.0-1.15,41621,List2B,white,man,,,,null,,,,
null,is shouting at,,html-keyboard-response,386,1221009,0.0-19.0-2.15,41621,List2B,white,man,,,,null,,,,
8612,,,survey-text,387,1229621,0.0-19.0-3.15,41621,List2B,white,man,,,,,"{""Q0"":""beth is shouting at fred""}","<img src=""stim_listB/shout3.gif""</stim_listB>",is shouting at,
null,"<div style=""font-size:60px;"">+</div>",,html-keyboard-response,388,1230124,0.0-19.0-0.16,41621,List2B,white,man,,,,null,,,,
null,"<img src=""stim_listB/hug7.gif""</stim_listB>",,html-keyboard-response,389,1232125,0.0-19.0-1.16,41621,List2B,white,man,,,,null,,,,
null,is hugging,,html-keyboard-response,390,1234126,0.0-19.0-2.16,41621,List2B,white,man,,,,null,,,,
5985,,,survey-text,391,1240112,0.0-19.0-3.16,41621,List2B,white,man,,,,,"{""Q0"":""beth is hugging ruth""}","<img src=""stim_listB/hug7.gif""</stim_listB>",is hugging,
null,"<div style=""font-size:60px;"">+</div>",,html-keyboard-response,392,1240613,0.0-19.0-0.17,41621,List2B,white,man,,,,null,,,,
null,"<img src=""stim_listB/talk2.gif""</stim_listB>",,html-keyboard-response,393,1242615,0.0-19.0-1.17,41621,List2B,white,man,,,,null,,,,
null,are talking to each other,,html-keyboard-response,394,1244617,0.0-19.0-2.17,41621,List2B,white,man,,,,null,,,,
5838,,,survey-text,395,1250455,0.0-19.0-3.17,41621,List2B,white,man,,,,,"{""Q0"":""dave ruth are talking to each other""}","<img src=""stim_listB/talk2.gif""</stim_listB>",are talking to each other,
null,"<div style=""font-size:60px;"">+</div>",,html-keyboard-response,396,1250956,0.0-19.0-0.18,41621,List2B,white,man,,,,null,,,,
null,"<img src=""stim_listB/argue6.gif""</stim_listB>",,html-keyboard-response,397,1252958,0.0-19.0-1.18,41621,List2B,white,man,,,,null,,,,
null,are arguing with each other,,html-keyboard-response,398,1254959,0.0-19.0-2.18,41621,List2B,white,man,,,,null,,,,
7302,,,survey-text,399,1262261,0.0-19.0-3.18,41621,List2B,white,man,,,,,"{""Q0"":""luke + mike are arguing with each other""}","<img src=""stim_listB/argue6.gif""</stim_listB>",are arguing with each other,
null,"<div style=""font-size:60px;"">+</div>",,html-keyboard-response,400,1262763,0.0-19.0-0.19,41621,List2B,white,man,,,,null,,,,
null,"<img src=""stim_listB/hug8.gif""</stim_listB>",,html-keyboard-response,401,1264765,0.0-19.0-1.19,41621,List2B,white,man,,,,null,,,,
null,are hugging each other,,html-keyboard-response,402,1266766,0.0-19.0-2.19,41621,List2B,white,man,,,,null,,,,
7378,,,survey-text,403,1274145,0.0-19.0-3.19,41621,List2B,white,man,,,,,"{""Q0"":""kate and jane are hugging each other""}","<img src=""stim_listB/hug8.gif""</stim_listB>",are hugging each other,
2738,<p>Thank you for completing that task.</p><p>The final part of this session is a short questionnaire.</p><p>Press Continue.</p>,0,html-button-response,404,1276885,0.0-20.0,41621,List2B,white,man,,,,,,,,
16953,,,survey-text,405,1294841,0.0-21.0,41621,List2B,white,man,,,,,"{""Q0"":""25"",""Q1"":""English"",""Q2"":""English"",""Q3"":""England"",""Q4"":""White"",""Q5"":""Male""}",,,demographics
39645,,,survey-likert,406,1334491,0.0-22.0,41621,List2B,white,man,,,,,"{""Q0"":1,""Q1"":3,""Q2"":3,""Q3"":2,""Q4"":3,""Q5"":5,""Q6"":0,""Q7"":0,""Q8"":0,""Q9"":0,""Q10"":2,""Q11"":2,""Q12"":5,""Q13"":6}",,,likert_race
53317,,,survey-likert,407,1387815,0.0-23.0,41621,List2B,white,man,,,,,"{""Q0"":5,""Q1"":4,""Q2"":6,""Q3"":4,""Q4"":3,""Q5"":0,""Q6"":3,""Q7"":0,""Q8"":6,""Q9"":3,""Q10"":2,""Q11"":2,""Q12"":6,""Q13"":6}",,,likert_gender
8139,,,survey-text,408,1395960,0.0-24.0,41621,List2B,white,man,,,,,"{""Q0"":""ccc""}",,,worker_id
19272,,,external-html,409,1415354,0.0-25.0,41621,List2B,white,man,debrief.html,,,,,,,
