rt,stimulus,button_pressed,trial_type,trial_index,time_elapsed,internal_node_id,subject,list,ppt_race,ppt_gender,url,first_guess,correct,key_press,responses,image_type,phrase_type,test_part
4905,Welcome to the experiment. Press Continue to begin.,0,html-button-response,0,4907,0.0-0.0,42389,List1B,black,man,,,,,,,,
84388,,,external-html,1,90559,0.0-1.0,42389,List1B,black,man,consent.html,,,,,,,
9054,"<p>On the next page, you will see portraits of 8 people and their names.</p><p>Your first task is to take a few minutes to memorise the names of these people.</p><p>You will have to recall their names during the rest of the experiment, so it is</p><p>essential that you try to memorise these people and their names as best as you can.</p><br><p><strong>You will then be tested on your memory of these names and portraits.</strong></p><br><p>The experiment will start after you have completed this memory test.</p><br><p>Ready?</p>",0,html-button-response,2,99615,0.0-2.0,42389,List1B,black,man,,,,,,,,
36957,"<img src='img/portrait_matrix_list1.JPG' style='width:900px;height:500px;''></img><p>If you have memorised all the portraits and names and are ready to start, press Continue.</p><p><strong>Please note: Your memory of these faces will be tested 4 times during this experiment.</strong></p>",0,html-button-response,3,137573,0.0-3.0-0.0,42389,List1B,black,man,,,,,,,,
10685,"<img src=""portrait/WW1.jpg""style=""width:400px;height:400px;""></img>",1,html-button-response,4,149260,0.0-3.0-1.0,42389,List1B,black,man,,TRUE,1,,,,,
null,CORRECT,,html-keyboard-response,5,150764,0.0-3.0-2.0-0.0,42389,List1B,black,man,,,,null,,,,
7048,"<img src=""portrait/BM1.jpg""style=""width:400px;height:400px;""></img>",4,html-button-response,6,157812,0.0-3.0-4.0,42389,List1B,black,man,,TRUE,4,,,,,
null,CORRECT,,html-keyboard-response,7,159315,0.0-3.0-5.0-0.0,42389,List1B,black,man,,,,null,,,,
6697,"<img src=""portrait/BW1.jpg""style=""width:400px;height:400px;""></img>",0,html-button-response,8,166012,0.0-3.0-7.0,42389,List1B,black,man,,TRUE,0,,,,,
null,CORRECT,,html-keyboard-response,9,167514,0.0-3.0-8.0-0.0,42389,List1B,black,man,,,,null,,,,
6161,"<img src=""portrait/WM2.jpg""style=""width:400px;height:400px;""></img>",7,html-button-response,10,173676,0.0-3.0-10.0,42389,List1B,black,man,,TRUE,7,,,,,
null,CORRECT,,html-keyboard-response,11,175179,0.0-3.0-11.0-0.0,42389,List1B,black,man,,,,null,,,,
5544,"<img src=""portrait/BM2.jpg""style=""width:400px;height:400px;""></img>",5,html-button-response,12,180724,0.0-3.0-13.0,42389,List1B,black,man,,TRUE,5,,,,,
null,CORRECT,,html-keyboard-response,13,182226,0.0-3.0-14.0-0.0,42389,List1B,black,man,,,,null,,,,
5120,"<img src=""portrait/BW2.jpg""style=""width:400px;height:400px;""></img>",2,html-button-response,14,187347,0.0-3.0-16.0,42389,List1B,black,man,,TRUE,2,,,,,
null,CORRECT,,html-keyboard-response,15,188850,0.0-3.0-17.0-0.0,42389,List1B,black,man,,,,null,,,,
4280,"<img src=""portrait/WW2.jpg""style=""width:400px;height:400px;""></img>",3,html-button-response,16,193131,0.0-3.0-19.0,42389,List1B,black,man,,TRUE,3,,,,,
null,CORRECT,,html-keyboard-response,17,194634,0.0-3.0-20.0-0.0,42389,List1B,black,man,,,,null,,,,
5121,"<img src=""portrait/WM1.jpg""style=""width:400px;height:400px;""></img>",6,html-button-response,18,199755,0.0-3.0-22.0,42389,List1B,black,man,,TRUE,6,,,,,
null,CORRECT,,html-keyboard-response,19,201258,0.0-3.0-23.0-0.0,42389,List1B,black,man,,,,null,,,,
3121,<p>You got 8 out of 8 right first time. Press Continue.</p>,0,html-button-response,20,204379,0.0-3.0-25.0,42389,List1B,black,man,,,,,,,,
37852,"<p>In this experiment, you will view photographs of the people from the memory game interacting.</p><p>By using the <strong>exact</strong> phrase given <i>after</i> the photograph appears and recalling the correct names of the people in the photographs, form a sentence describing the interaction. You do not need to capitalise names.</p><p>Type your answer in the space provided. Please complete every sentence before moving onto the next trial.</p><p>You will only have a few seconds to memorise each given photograph and phrase before you can respond, so try your best to focus.</p><p>An example is given below. Press 'Continue' when you are ready.</p><img src='img/speaking_example_v2.jpg' style='width:800px;height:460px;''></img>",0,html-button-response,21,243233,0.0-4.0,42389,List1B,black,man,,,,,,,,
3278,"<p>Before the experiment starts, you will watch two example trials. Press 'Continue'.</p>",0,html-button-response,22,247513,0.0-5.0,42389,List1B,black,man,,,,,,,,
null,<img src='img/speaking_WW.gif'></img>,,html-keyboard-response,23,250516,0.0-6.0,42389,List1B,black,man,,,,null,,,,
null,<p>is speaking to</p>,,html-keyboard-response,24,252517,0.0-7.0,42389,List1B,black,man,,,,null,,,,
10475,<p><b>Answer:</b> kate is speaking to beth</p>,0,html-button-response,25,262993,0.0-8.0,42389,List1B,black,man,,,,,,,,
null,<img src='img/pointing_BM.gif'></img>,,html-keyboard-response,26,265995,0.0-9.0,42389,List1B,black,man,,,,null,,,,
null,<p>are pointing at each other</p>,,html-keyboard-response,27,267997,0.0-10.0,42389,List1B,black,man,,,,null,,,,
4179,<p><b>Answer:</b> luke and dave are pointing at each other</p>,0,html-button-response,28,272176,0.0-11.0,42389,List1B,black,man,,,,,,,,
13333,"<p>Ready to start the experiment?</p><br><p><strong>Remember to describe the picture using a full sentence,</strong></p><p><strong>that combines the names of the people with the given phrase.</strong></p><p><strong>If you do not do this correctly you will not be paid.</strong></p><p><strong> You do not need to capitalise names or use punctuation.</strong></p><br><p>Press 'Continue' to begin.</p>",0,html-button-response,29,286512,0.0-12.0,42389,List1B,black,man,,,,,,,,
null,"<div style=""font-size:60px;"">+</div>",,html-keyboard-response,30,288014,0.0-13.0-0.0,42389,List1B,black,man,,,,null,,,,
null,"<img src=""stim_listB/touch5.gif""</stim_listB>",,html-keyboard-response,31,290015,0.0-13.0-1.0,42389,List1B,black,man,,,,null,,,,
null,is touching,,html-keyboard-response,32,292017,0.0-13.0-2.0,42389,List1B,black,man,,,,null,,,,
14557,,,survey-text,33,306576,0.0-13.0-3.0,42389,List1B,black,man,,,,,"{""Q0"":""dave is talking to mike""}","<img src=""stim_listB/touch5.gif""</stim_listB>",is touching,
null,"<div style=""font-size:60px;"">+</div>",,html-keyboard-response,34,307077,0.0-13.0-0.1,42389,List1B,black,man,,,,null,,,,
null,"<img src=""stim_listB/hug8.gif""</stim_listB>",,html-keyboard-response,35,309078,0.0-13.0-1.1,42389,List1B,black,man,,,,null,,,,
null,are hugging each other,,html-keyboard-response,36,311080,0.0-13.0-2.1,42389,List1B,black,man,,,,null,,,,
12007,,,survey-text,37,323087,0.0-13.0-3.1,42389,List1B,black,man,,,,,"{""Q0"":""kate is hugging jane""}","<img src=""stim_listB/hug8.gif""</stim_listB>",are hugging each other,
null,"<div style=""font-size:60px;"">+</div>",,html-keyboard-response,38,323589,0.0-13.0-0.2,42389,List1B,black,man,,,,null,,,,
null,"<img src=""stim_listB/marry4.gif""</stim_listB>",,html-keyboard-response,39,325591,0.0-13.0-1.2,42389,List1B,black,man,,,,null,,,,
null,are marrying each other,,html-keyboard-response,40,327592,0.0-13.0-2.2,42389,List1B,black,man,,,,null,,,,
21597,,,survey-text,41,349190,0.0-13.0-3.2,42389,List1B,black,man,,,,,"{""Q0"":""luke and jane are holding hands""}","<img src=""stim_listB/marry4.gif""</stim_listB>",are marrying each other,
null,"<div style=""font-size:60px;"">+</div>",,html-keyboard-response,42,349691,0.0-13.0-0.3,42389,List1B,black,man,,,,null,,,,
null,"<img src=""stim_listB/touch7.gif""</stim_listB>",,html-keyboard-response,43,351692,0.0-13.0-1.3,42389,List1B,black,man,,,,null,,,,
null,is touching,,html-keyboard-response,44,353694,0.0-13.0-2.3,42389,List1B,black,man,,,,null,,,,
19583,,,survey-text,45,373277,0.0-13.0-3.3,42389,List1B,black,man,,,,,"{""Q0"":""jane and kate are holding hands""}","<img src=""stim_listB/touch7.gif""</stim_listB>",is touching,
null,"<div style=""font-size:60px;"">+</div>",,html-keyboard-response,46,373779,0.0-13.0-0.4,42389,List1B,black,man,,,,null,,,,
null,"<img src=""stim_listB/meet3.gif""</stim_listB>",,html-keyboard-response,47,375780,0.0-13.0-1.4,42389,List1B,black,man,,,,null,,,,
null,is meeting,,html-keyboard-response,48,377782,0.0-13.0-2.4,42389,List1B,black,man,,,,null,,,,
29797,,,survey-text,49,407580,0.0-13.0-3.4,42389,List1B,black,man,,,,,"{""Q0"":""jane and luke are holding hands""}","<img src=""stim_listB/meet3.gif""</stim_listB>",is meeting,
null,"<div style=""font-size:60px;"">+</div>",,html-keyboard-response,50,408082,0.0-13.0-0.5,42389,List1B,black,man,,,,null,,,,
null,"<img src=""stim_listB/shout1.gif""</stim_listB>",,html-keyboard-response,51,410084,0.0-13.0-1.5,42389,List1B,black,man,,,,null,,,,
null,is shouting at,,html-keyboard-response,52,412085,0.0-13.0-2.5,42389,List1B,black,man,,,,null,,,,
26334,,,survey-text,53,438419,0.0-13.0-3.5,42389,List1B,black,man,,,,,"{""Q0"":""beth and fred is shouting at each other""}","<img src=""stim_listB/shout1.gif""</stim_listB>",is shouting at,
null,"<div style=""font-size:60px;"">+</div>",,html-keyboard-response,54,438921,0.0-13.0-0.6,42389,List1B,black,man,,,,null,,,,
null,"<img src=""stim_listB/dance5.gif""</stim_listB>",,html-keyboard-response,55,440923,0.0-13.0-1.6,42389,List1B,black,man,,,,null,,,,
null,is dancing with,,html-keyboard-response,56,442924,0.0-13.0-2.6,42389,List1B,black,man,,,,null,,,,
21797,,,survey-text,57,464722,0.0-13.0-3.6,42389,List1B,black,man,,,,,"{""Q0"":""dave and fred is dancing""}","<img src=""stim_listB/dance5.gif""</stim_listB>",is dancing with,
null,"<div style=""font-size:60px;"">+</div>",,html-keyboard-response,58,465224,0.0-13.0-0.7,42389,List1B,black,man,,,,null,,,,
null,"<img src=""stim_listB/fight2.gif""</stim_listB>",,html-keyboard-response,59,467226,0.0-13.0-1.7,42389,List1B,black,man,,,,null,,,,
null,are fighting each other,,html-keyboard-response,60,469228,0.0-13.0-2.7,42389,List1B,black,man,,,,null,,,,
18365,,,survey-text,61,487593,0.0-13.0-3.7,42389,List1B,black,man,,,,,"{""Q0"":""fred and beth are fighting""}","<img src=""stim_listB/fight2.gif""</stim_listB>",are fighting each other,
null,"<div style=""font-size:60px;"">+</div>",,html-keyboard-response,62,488095,0.0-13.0-0.8,42389,List1B,black,man,,,,null,,,,
null,"<img src=""stim_listB/kiss8.gif""</stim_listB>",,html-keyboard-response,63,490097,0.0-13.0-1.8,42389,List1B,black,man,,,,null,,,,
null,are kissing each other,,html-keyboard-response,64,492098,0.0-13.0-2.8,42389,List1B,black,man,,,,null,,,,
18765,,,survey-text,65,510864,0.0-13.0-3.8,42389,List1B,black,man,,,,,"{""Q0"":""kate and jane are kissing""}","<img src=""stim_listB/kiss8.gif""</stim_listB>",are kissing each other,
null,"<div style=""font-size:60px;"">+</div>",,html-keyboard-response,66,511366,0.0-13.0-0.9,42389,List1B,black,man,,,,null,,,,
null,"<img src=""stim_listB/marry5.gif""</stim_listB>",,html-keyboard-response,67,513368,0.0-13.0-1.9,42389,List1B,black,man,,,,null,,,,
null,is marrying,,html-keyboard-response,68,515370,0.0-13.0-2.9,42389,List1B,black,man,,,,null,,,,
16285,,,survey-text,69,531656,0.0-13.0-3.9,42389,List1B,black,man,,,,,"{""Q0"":""luke and mike are holding hands""}","<img src=""stim_listB/marry5.gif""</stim_listB>",is marrying,
null,"<div style=""font-size:60px;"">+</div>",,html-keyboard-response,70,532157,0.0-13.0-0.10,42389,List1B,black,man,,,,null,,,,
null,"<img src=""stim_listB/dance2.gif""</stim_listB>",,html-keyboard-response,71,534159,0.0-13.0-1.10,42389,List1B,black,man,,,,null,,,,
null,are dancing with each other,,html-keyboard-response,72,536161,0.0-13.0-2.10,42389,List1B,black,man,,,,null,,,,
154017,,,survey-text,73,690178,0.0-13.0-3.10,42389,List1B,black,man,,,,,"{""Q0"":""mike and luke are holding hands""}","<img src=""stim_listB/dance2.gif""</stim_listB>",are dancing with each other,
null,"<div style=""font-size:60px;"">+</div>",,html-keyboard-response,74,690680,0.0-13.0-0.11,42389,List1B,black,man,,,,null,,,,
null,"<img src=""stim_listB/dance6.gif""</stim_listB>",,html-keyboard-response,75,692682,0.0-13.0-1.11,42389,List1B,black,man,,,,null,,,,
null,are dancing with each other,,html-keyboard-response,76,694683,0.0-13.0-2.11,42389,List1B,black,man,,,,null,,,,
16710,,,survey-text,77,711393,0.0-13.0-3.11,42389,List1B,black,man,,,,,"{""Q0"":""luke and mike are dancing""}","<img src=""stim_listB/dance6.gif""</stim_listB>",are dancing with each other,
null,"<div style=""font-size:60px;"">+</div>",,html-keyboard-response,78,711895,0.0-13.0-0.12,42389,List1B,black,man,,,,null,,,,
null,"<img src=""stim_listB/fight1.gif""</stim_listB>",,html-keyboard-response,79,713897,0.0-13.0-1.12,42389,List1B,black,man,,,,null,,,,
null,is fighting,,html-keyboard-response,80,715898,0.0-13.0-2.12,42389,List1B,black,man,,,,null,,,,
17517,,,survey-text,81,733417,0.0-13.0-3.12,42389,List1B,black,man,,,,,"{""Q0"":""mike and kate is fighting""}","<img src=""stim_listB/fight1.gif""</stim_listB>",is fighting,
null,"<div style=""font-size:60px;"">+</div>",,html-keyboard-response,82,733918,0.0-13.0-0.13,42389,List1B,black,man,,,,null,,,,
null,"<img src=""stim_listB/argue6.gif""</stim_listB>",,html-keyboard-response,83,735920,0.0-13.0-1.13,42389,List1B,black,man,,,,null,,,,
null,are arguing with each other,,html-keyboard-response,84,737921,0.0-13.0-2.13,42389,List1B,black,man,,,,null,,,,
26349,,,survey-text,85,764272,0.0-13.0-3.13,42389,List1B,black,man,,,,,"{""Q0"":""fred and dave are arguing with each other""}","<img src=""stim_listB/argue6.gif""</stim_listB>",are arguing with each other,
null,"<div style=""font-size:60px;"">+</div>",,html-keyboard-response,86,764774,0.0-13.0-0.14,42389,List1B,black,man,,,,null,,,,
null,"<img src=""stim_listB/kiss5.gif""</stim_listB>",,html-keyboard-response,87,766776,0.0-13.0-1.14,42389,List1B,black,man,,,,null,,,,
null,is kissing,,html-keyboard-response,88,768777,0.0-13.0-2.14,42389,List1B,black,man,,,,null,,,,
20789,,,survey-text,89,789567,0.0-13.0-3.14,42389,List1B,black,man,,,,,"{""Q0"":""fred and luke is kissing each other""}","<img src=""stim_listB/kiss5.gif""</stim_listB>",is kissing,
null,"<div style=""font-size:60px;"">+</div>",,html-keyboard-response,90,790069,0.0-13.0-0.15,42389,List1B,black,man,,,,null,,,,
null,"<img src=""stim_listB/kiss6.gif""</stim_listB>",,html-keyboard-response,91,792070,0.0-13.0-1.15,42389,List1B,black,man,,,,null,,,,
null,are kissing each other,,html-keyboard-response,92,794070,0.0-13.0-2.15,42389,List1B,black,man,,,,null,,,,
18999,,,survey-text,93,813070,0.0-13.0-3.15,42389,List1B,black,man,,,,,"{""Q0"":""mike and dave is kissing each other""}","<img src=""stim_listB/kiss6.gif""</stim_listB>",are kissing each other,
null,"<div style=""font-size:60px;"">+</div>",,html-keyboard-response,94,813572,0.0-13.0-0.16,42389,List1B,black,man,,,,null,,,,
null,"<img src=""stim_listB/shout8.gif""</stim_listB>",,html-keyboard-response,95,815573,0.0-13.0-1.16,42389,List1B,black,man,,,,null,,,,
null,are shouting at each other,,html-keyboard-response,96,817575,0.0-13.0-2.16,42389,List1B,black,man,,,,null,,,,
22555,,,survey-text,97,840131,0.0-13.0-3.16,42389,List1B,black,man,,,,,"{""Q0"":""kate and jane is arguing with each other""}","<img src=""stim_listB/shout8.gif""</stim_listB>",are shouting at each other,
null,"<div style=""font-size:60px;"">+</div>",,html-keyboard-response,98,840633,0.0-13.0-0.17,42389,List1B,black,man,,,,null,,,,
null,"<img src=""stim_listB/shout2.gif""</stim_listB>",,html-keyboard-response,99,842634,0.0-13.0-1.17,42389,List1B,black,man,,,,null,,,,
null,are shouting at each other,,html-keyboard-response,100,844636,0.0-13.0-2.17,42389,List1B,black,man,,,,null,,,,
26579,,,survey-text,101,871217,0.0-13.0-3.17,42389,List1B,black,man,,,,,"{""Q0"":""mike and kate is arguing with each other""}","<img src=""stim_listB/shout2.gif""</stim_listB>",are shouting at each other,
null,"<div style=""font-size:60px;"">+</div>",,html-keyboard-response,102,871718,0.0-13.0-0.18,42389,List1B,black,man,,,,null,,,,
null,"<img src=""stim_listB/talk3.gif""</stim_listB>",,html-keyboard-response,103,873720,0.0-13.0-1.18,42389,List1B,black,man,,,,null,,,,
null,is talking to,,html-keyboard-response,104,875722,0.0-13.0-2.18,42389,List1B,black,man,,,,null,,,,
30227,,,survey-text,105,905951,0.0-13.0-3.18,42389,List1B,black,man,,,,,"{""Q0"":""luke and jane is having a conversation""}","<img src=""stim_listB/talk3.gif""</stim_listB>",is talking to,
null,"<div style=""font-size:60px;"">+</div>",,html-keyboard-response,106,906454,0.0-13.0-0.19,42389,List1B,black,man,,,,null,,,,
null,"<img src=""stim_listB/fight8.gif""</stim_listB>",,html-keyboard-response,107,908456,0.0-13.0-1.19,42389,List1B,black,man,,,,null,,,,
null,are fighting each other,,html-keyboard-response,108,910457,0.0-13.0-2.19,42389,List1B,black,man,,,,null,,,,
15180,,,survey-text,109,925638,0.0-13.0-3.19,42389,List1B,black,man,,,,,"{""Q0"":""beth and ruth are fighting""}","<img src=""stim_listB/fight8.gif""</stim_listB>",are fighting each other,
15125,"<img src='img/portrait_matrix_list1.JPG' style='width:900px;height:500px;''></img><p>If you have memorised all the portraits and names and are ready to start, press Continue.</p><p><strong>Please note: Your memory of these faces will be tested 4 times during this experiment.</strong></p>",0,html-button-response,110,940765,0.0-14.0-0.0,42389,List1B,black,man,,,,,,,,
4277,"<img src=""portrait/BW1.jpg""style=""width:400px;height:400px;""></img>",0,html-button-response,111,946044,0.0-14.0-1.0,42389,List1B,black,man,,TRUE,0,,,,,
null,CORRECT,,html-keyboard-response,112,947547,0.0-14.0-2.0-0.0,42389,List1B,black,man,,,,null,,,,
2768,"<img src=""portrait/WW2.jpg""style=""width:400px;height:400px;""></img>",3,html-button-response,113,950318,0.0-14.0-4.0,42389,List1B,black,man,,TRUE,3,,,,,
null,CORRECT,,html-keyboard-response,114,951820,0.0-14.0-5.0-0.0,42389,List1B,black,man,,,,null,,,,
6439,"<img src=""portrait/BM1.jpg""style=""width:400px;height:400px;""></img>",4,html-button-response,115,958260,0.0-14.0-7.0,42389,List1B,black,man,,TRUE,4,,,,,
null,CORRECT,,html-keyboard-response,116,959763,0.0-14.0-8.0-0.0,42389,List1B,black,man,,,,null,,,,
4528,"<img src=""portrait/WW1.jpg""style=""width:400px;height:400px;""></img>",1,html-button-response,117,964292,0.0-14.0-10.0,42389,List1B,black,man,,TRUE,1,,,,,
null,CORRECT,,html-keyboard-response,118,965794,0.0-14.0-11.0-0.0,42389,List1B,black,man,,,,null,,,,
3584,"<img src=""portrait/BW2.jpg""style=""width:400px;height:400px;""></img>",2,html-button-response,119,969379,0.0-14.0-13.0,42389,List1B,black,man,,TRUE,2,,,,,
null,CORRECT,,html-keyboard-response,120,970882,0.0-14.0-14.0-0.0,42389,List1B,black,man,,,,null,,,,
3304,"<img src=""portrait/WM2.jpg""style=""width:400px;height:400px;""></img>",7,html-button-response,121,974187,0.0-14.0-16.0,42389,List1B,black,man,,TRUE,7,,,,,
null,CORRECT,,html-keyboard-response,122,975688,0.0-14.0-17.0-0.0,42389,List1B,black,man,,,,null,,,,
2762,"<img src=""portrait/WM1.jpg""style=""width:400px;height:400px;""></img>",6,html-button-response,123,978451,0.0-14.0-19.0,42389,List1B,black,man,,TRUE,6,,,,,
null,CORRECT,,html-keyboard-response,124,979953,0.0-14.0-20.0-0.0,42389,List1B,black,man,,,,null,,,,
2736,"<img src=""portrait/BM2.jpg""style=""width:400px;height:400px;""></img>",5,html-button-response,125,982691,0.0-14.0-22.0,42389,List1B,black,man,,TRUE,5,,,,,
null,CORRECT,,html-keyboard-response,126,984193,0.0-14.0-23.0-0.0,42389,List1B,black,man,,,,null,,,,
5703,<p>You got 8 out of 8 right first time. Press Continue.</p>,0,html-button-response,127,989898,0.0-14.0-25.0,42389,List1B,black,man,,,,,,,,
null,"<div style=""font-size:60px;"">+</div>",,html-keyboard-response,128,991401,0.0-15.0-0.0,42389,List1B,black,man,,,,null,,,,
null,"<img src=""stim_listB/dance3.gif""</stim_listB>",,html-keyboard-response,129,993403,0.0-15.0-1.0,42389,List1B,black,man,,,,null,,,,
null,is dancing with,,html-keyboard-response,130,995405,0.0-15.0-2.0,42389,List1B,black,man,,,,null,,,,
11949,,,survey-text,131,1007354,0.0-15.0-3.0,42389,List1B,black,man,,,,,"{""Q0"":""luke is dating with jane""}","<img src=""stim_listB/dance3.gif""</stim_listB>",is dancing with,
null,"<div style=""font-size:60px;"">+</div>",,html-keyboard-response,132,1007855,0.0-15.0-0.1,42389,List1B,black,man,,,,null,,,,
null,"<img src=""stim_listB/touch8.gif""</stim_listB>",,html-keyboard-response,133,1009857,0.0-15.0-1.1,42389,List1B,black,man,,,,null,,,,
null,are touching each other,,html-keyboard-response,134,1011859,0.0-15.0-2.1,42389,List1B,black,man,,,,null,,,,
22797,,,survey-text,135,1034656,0.0-15.0-3.1,42389,List1B,black,man,,,,,"{""Q0"":""beth and ruth are touching each other""}","<img src=""stim_listB/touch8.gif""</stim_listB>",are touching each other,
null,"<div style=""font-size:60px;"">+</div>",,html-keyboard-response,136,1035158,0.0-15.0-0.2,42389,List1B,black,man,,,,null,,,,
null,"<img src=""stim_listB/marry2.gif""</stim_listB>",,html-keyboard-response,137,1037160,0.0-15.0-1.2,42389,List1B,black,man,,,,null,,,,
null,are marrying each other,,html-keyboard-response,138,1039161,0.0-15.0-2.2,42389,List1B,black,man,,,,null,,,,
19861,,,survey-text,139,1059023,0.0-15.0-3.2,42389,List1B,black,man,,,,,"{""Q0"":""fred and kate are getting married""}","<img src=""stim_listB/marry2.gif""</stim_listB>",are marrying each other,
null,"<div style=""font-size:60px;"">+</div>",,html-keyboard-response,140,1059525,0.0-15.0-0.3,42389,List1B,black,man,,,,null,,,,
null,"<img src=""stim_listB/marry3.gif""</stim_listB>",,html-keyboard-response,141,1061528,0.0-15.0-1.3,42389,List1B,black,man,,,,null,,,,
null,is marrying,,html-keyboard-response,142,1063529,0.0-15.0-2.3,42389,List1B,black,man,,,,null,,,,
11140,,,survey-text,143,1074670,0.0-15.0-3.3,42389,List1B,black,man,,,,,"{""Q0"":""ruth is marrying dave""}","<img src=""stim_listB/marry3.gif""</stim_listB>",is marrying,
null,"<div style=""font-size:60px;"">+</div>",,html-keyboard-response,144,1075172,0.0-15.0-0.4,42389,List1B,black,man,,,,null,,,,
null,"<img src=""stim_listB/hug1.gif""</stim_listB>",,html-keyboard-response,145,1077174,0.0-15.0-1.4,42389,List1B,black,man,,,,null,,,,
null,is hugging,,html-keyboard-response,146,1079175,0.0-15.0-2.4,42389,List1B,black,man,,,,null,,,,
10062,,,survey-text,147,1089238,0.0-15.0-3.4,42389,List1B,black,man,,,,,"{""Q0"":""fred is hugging beth""}","<img src=""stim_listB/hug1.gif""</stim_listB>",is hugging,
null,"<div style=""font-size:60px;"">+</div>",,html-keyboard-response,148,1089739,0.0-15.0-0.5,42389,List1B,black,man,,,,null,,,,
null,"<img src=""stim_listB/argue2.gif""</stim_listB>",,html-keyboard-response,149,1091741,0.0-15.0-1.5,42389,List1B,black,man,,,,null,,,,
null,are arguing with each other,,html-keyboard-response,150,1093743,0.0-15.0-2.5,42389,List1B,black,man,,,,null,,,,
22003,,,survey-text,151,1115748,0.0-15.0-3.5,42389,List1B,black,man,,,,,"{""Q0"":""fred and kate are arguing with each other""}","<img src=""stim_listB/argue2.gif""</stim_listB>",are arguing with each other,
null,"<div style=""font-size:60px;"">+</div>",,html-keyboard-response,152,1116250,0.0-15.0-0.6,42389,List1B,black,man,,,,null,,,,
null,"<img src=""stim_listB/meet8.gif""</stim_listB>",,html-keyboard-response,153,1118252,0.0-15.0-1.6,42389,List1B,black,man,,,,null,,,,
null,are meeting each other,,html-keyboard-response,154,1120254,0.0-15.0-2.6,42389,List1B,black,man,,,,null,,,,
10597,,,survey-text,155,1130852,0.0-15.0-3.6,42389,List1B,black,man,,,,,"{""Q0"":""beth and ruth""}","<img src=""stim_listB/meet8.gif""</stim_listB>",are meeting each other,
null,"<div style=""font-size:60px;"">+</div>",,html-keyboard-response,156,1131353,0.0-15.0-0.7,42389,List1B,black,man,,,,null,,,,
null,"<img src=""stim_listB/kiss2.gif""</stim_listB>",,html-keyboard-response,157,1133355,0.0-15.0-1.7,42389,List1B,black,man,,,,null,,,,
null,are kissing each other,,html-keyboard-response,158,1135356,0.0-15.0-2.7,42389,List1B,black,man,,,,null,,,,
10183,,,survey-text,159,1145539,0.0-15.0-3.7,42389,List1B,black,man,,,,,"{""Q0"":""mike and kate""}","<img src=""stim_listB/kiss2.gif""</stim_listB>",are kissing each other,
null,"<div style=""font-size:60px;"">+</div>",,html-keyboard-response,160,1146041,0.0-15.0-0.8,42389,List1B,black,man,,,,null,,,,
null,"<img src=""stim_listB/hug3.gif""</stim_listB>",,html-keyboard-response,161,1148043,0.0-15.0-1.8,42389,List1B,black,man,,,,null,,,,
null,is hugging,,html-keyboard-response,162,1150044,0.0-15.0-2.8,42389,List1B,black,man,,,,null,,,,
14397,,,survey-text,163,1164442,0.0-15.0-3.8,42389,List1B,black,man,,,,,"{""Q0"":""luke and ruth""}","<img src=""stim_listB/hug3.gif""</stim_listB>",is hugging,
null,"<div style=""font-size:60px;"">+</div>",,html-keyboard-response,164,1164943,0.0-15.0-0.9,42389,List1B,black,man,,,,null,,,,
null,"<img src=""stim_listB/fight4.gif""</stim_listB>",,html-keyboard-response,165,1166945,0.0-15.0-1.9,42389,List1B,black,man,,,,null,,,,
null,are fighting each other,,html-keyboard-response,166,1168947,0.0-15.0-2.9,42389,List1B,black,man,,,,null,,,,
10374,,,survey-text,167,1179321,0.0-15.0-3.9,42389,List1B,black,man,,,,,"{""Q0"":""luke and ruth""}","<img src=""stim_listB/fight4.gif""</stim_listB>",are fighting each other,
null,"<div style=""font-size:60px;"">+</div>",,html-keyboard-response,168,1179823,0.0-15.0-0.10,42389,List1B,black,man,,,,null,,,,
null,"<img src=""stim_listB/shout4.gif""</stim_listB>",,html-keyboard-response,169,1181825,0.0-15.0-1.10,42389,List1B,black,man,,,,null,,,,
null,are shouting at each other,,html-keyboard-response,170,1183827,0.0-15.0-2.10,42389,List1B,black,man,,,,null,,,,
9645,,,survey-text,171,1193472,0.0-15.0-3.10,42389,List1B,black,man,,,,,"{""Q0"":""dave and jane""}","<img src=""stim_listB/shout4.gif""</stim_listB>",are shouting at each other,
null,"<div style=""font-size:60px;"">+</div>",,html-keyboard-response,172,1193974,0.0-15.0-0.11,42389,List1B,black,man,,,,null,,,,
null,"<img src=""stim_listB/argue3.gif""</stim_listB>",,html-keyboard-response,173,1195975,0.0-15.0-1.11,42389,List1B,black,man,,,,null,,,,
null,is arguing with,,html-keyboard-response,174,1197975,0.0-15.0-2.11,42389,List1B,black,man,,,,null,,,,
10591,,,survey-text,175,1208568,0.0-15.0-3.11,42389,List1B,black,man,,,,,"{""Q0"":""dave and ruth""}","<img src=""stim_listB/argue3.gif""</stim_listB>",is arguing with,
null,"<div style=""font-size:60px;"">+</div>",,html-keyboard-response,176,1209069,0.0-15.0-0.12,42389,List1B,black,man,,,,null,,,,
null,"<img src=""stim_listB/argue8.gif""</stim_listB>",,html-keyboard-response,177,1211070,0.0-15.0-1.12,42389,List1B,black,man,,,,null,,,,
null,are arguing with each other,,html-keyboard-response,178,1213072,0.0-15.0-2.12,42389,List1B,black,man,,,,null,,,,
9759,,,survey-text,179,1222831,0.0-15.0-3.12,42389,List1B,black,man,,,,,"{""Q0"":""beth and jane""}","<img src=""stim_listB/argue8.gif""</stim_listB>",are arguing with each other,
null,"<div style=""font-size:60px;"">+</div>",,html-keyboard-response,180,1223333,0.0-15.0-0.13,42389,List1B,black,man,,,,null,,,,
null,"<img src=""stim_listB/touch6.gif""</stim_listB>",,html-keyboard-response,181,1225335,0.0-15.0-1.13,42389,List1B,black,man,,,,null,,,,
null,are touching each other,,html-keyboard-response,182,1227335,0.0-15.0-2.13,42389,List1B,black,man,,,,null,,,,
8846,,,survey-text,183,1236182,0.0-15.0-3.13,42389,List1B,black,man,,,,,"{""Q0"":""fred and luke""}","<img src=""stim_listB/touch6.gif""</stim_listB>",are touching each other,
null,"<div style=""font-size:60px;"">+</div>",,html-keyboard-response,184,1236684,0.0-15.0-0.14,42389,List1B,black,man,,,,null,,,,
null,"<img src=""stim_listB/talk4.gif""</stim_listB>",,html-keyboard-response,185,1238686,0.0-15.0-1.14,42389,List1B,black,man,,,,null,,,,
null,are talking to each other,,html-keyboard-response,186,1240687,0.0-15.0-2.14,42389,List1B,black,man,,,,null,,,,
7957,,,survey-text,187,1248646,0.0-15.0-3.14,42389,List1B,black,man,,,,,"{""Q0"":""dave and ruth""}","<img src=""stim_listB/talk4.gif""</stim_listB>",are talking to each other,
null,"<div style=""font-size:60px;"">+</div>",,html-keyboard-response,188,1249147,0.0-15.0-0.15,42389,List1B,black,man,,,,null,,,,
null,"<img src=""stim_listB/hug7.gif""</stim_listB>",,html-keyboard-response,189,1251149,0.0-15.0-1.15,42389,List1B,black,man,,,,null,,,,
null,is hugging,,html-keyboard-response,190,1253151,0.0-15.0-2.15,42389,List1B,black,man,,,,null,,,,
8134,,,survey-text,191,1261285,0.0-15.0-3.15,42389,List1B,black,man,,,,,"{""Q0"":""ruth and beth""}","<img src=""stim_listB/hug7.gif""</stim_listB>",is hugging,
null,"<div style=""font-size:60px;"">+</div>",,html-keyboard-response,192,1261787,0.0-15.0-0.16,42389,List1B,black,man,,,,null,,,,
null,"<img src=""stim_listB/touch4.gif""</stim_listB>",,html-keyboard-response,193,1263789,0.0-15.0-1.16,42389,List1B,black,man,,,,null,,,,
null,are touching each other,,html-keyboard-response,194,1265790,0.0-15.0-2.16,42389,List1B,black,man,,,,null,,,,
11165,,,survey-text,195,1276956,0.0-15.0-3.16,42389,List1B,black,man,,,,,"{""Q0"":""luke and ruth""}","<img src=""stim_listB/touch4.gif""</stim_listB>",are touching each other,
null,"<div style=""font-size:60px;"">+</div>",,html-keyboard-response,196,1277458,0.0-15.0-0.17,42389,List1B,black,man,,,,null,,,,
null,"<img src=""stim_listB/hug6.gif""</stim_listB>",,html-keyboard-response,197,1279459,0.0-15.0-1.17,42389,List1B,black,man,,,,null,,,,
null,are hugging each other,,html-keyboard-response,198,1281460,0.0-15.0-2.17,42389,List1B,black,man,,,,null,,,,
8471,,,survey-text,199,1289932,0.0-15.0-3.17,42389,List1B,black,man,,,,,"{""Q0"":""mike and dave""}","<img src=""stim_listB/hug6.gif""</stim_listB>",are hugging each other,
null,"<div style=""font-size:60px;"">+</div>",,html-keyboard-response,200,1290433,0.0-15.0-0.18,42389,List1B,black,man,,,,null,,,,
null,"<img src=""stim_listB/marry6.gif""</stim_listB>",,html-keyboard-response,201,1292434,0.0-15.0-1.18,42389,List1B,black,man,,,,null,,,,
null,are marrying each other,,html-keyboard-response,202,1294435,0.0-15.0-2.18,42389,List1B,black,man,,,,null,,,,
21487,,,survey-text,203,1315923,0.0-15.0-3.18,42389,List1B,black,man,,,,,"{""Q0"":""fred and dave""}","<img src=""stim_listB/marry6.gif""</stim_listB>",are marrying each other,
null,"<div style=""font-size:60px;"">+</div>",,html-keyboard-response,204,1316425,0.0-15.0-0.19,42389,List1B,black,man,,,,null,,,,
null,"<img src=""stim_listB/talk7.gif""</stim_listB>",,html-keyboard-response,205,1318426,0.0-15.0-1.19,42389,List1B,black,man,,,,null,,,,
null,is talking to,,html-keyboard-response,206,1320428,0.0-15.0-2.19,42389,List1B,black,man,,,,null,,,,
8150,,,survey-text,207,1328578,0.0-15.0-3.19,42389,List1B,black,man,,,,,"{""Q0"":""jane and beth""}","<img src=""stim_listB/talk7.gif""</stim_listB>",is talking to,
9535,"<img src='img/portrait_matrix_list1.JPG' style='width:900px;height:500px;''></img><p>If you have memorised all the portraits and names and are ready to start, press Continue.</p><p><strong>Please note: Your memory of these faces will be tested 4 times during this experiment.</strong></p>",0,html-button-response,208,1338113,0.0-16.0-0.0,42389,List1B,black,man,,,,,,,,
5293,"<img src=""portrait/BW1.jpg""style=""width:400px;height:400px;""></img>",0,html-button-response,209,1344409,0.0-16.0-1.0,42389,List1B,black,man,,TRUE,0,,,,,
null,CORRECT,,html-keyboard-response,210,1345911,0.0-16.0-2.0-0.0,42389,List1B,black,man,,,,null,,,,
1982,"<img src=""portrait/BM2.jpg""style=""width:400px;height:400px;""></img>",5,html-button-response,211,1347896,0.0-16.0-4.0,42389,List1B,black,man,,TRUE,5,,,,,
null,CORRECT,,html-keyboard-response,212,1349399,0.0-16.0-5.0-0.0,42389,List1B,black,man,,,,null,,,,
2304,"<img src=""portrait/WW2.jpg""style=""width:400px;height:400px;""></img>",3,html-button-response,213,1351704,0.0-16.0-7.0,42389,List1B,black,man,,TRUE,3,,,,,
null,CORRECT,,html-keyboard-response,214,1353207,0.0-16.0-8.0-0.0,42389,List1B,black,man,,,,null,,,,
4176,"<img src=""portrait/BW2.jpg""style=""width:400px;height:400px;""></img>",2,html-button-response,215,1357384,0.0-16.0-10.0,42389,List1B,black,man,,TRUE,2,,,,,
null,CORRECT,,html-keyboard-response,216,1358887,0.0-16.0-11.0-0.0,42389,List1B,black,man,,,,null,,,,
3681,"<img src=""portrait/WW1.jpg""style=""width:400px;height:400px;""></img>",1,html-button-response,217,1362568,0.0-16.0-13.0,42389,List1B,black,man,,TRUE,1,,,,,
null,CORRECT,,html-keyboard-response,218,1364070,0.0-16.0-14.0-0.0,42389,List1B,black,man,,,,null,,,,
3032,"<img src=""portrait/WM1.jpg""style=""width:400px;height:400px;""></img>",6,html-button-response,219,1367103,0.0-16.0-16.0,42389,List1B,black,man,,TRUE,6,,,,,
null,CORRECT,,html-keyboard-response,220,1368605,0.0-16.0-17.0-0.0,42389,List1B,black,man,,,,null,,,,
2120,"<img src=""portrait/WM2.jpg""style=""width:400px;height:400px;""></img>",7,html-button-response,221,1370727,0.0-16.0-19.0,42389,List1B,black,man,,TRUE,7,,,,,
null,CORRECT,,html-keyboard-response,222,1372230,0.0-16.0-20.0-0.0,42389,List1B,black,man,,,,null,,,,
1704,"<img src=""portrait/BM1.jpg""style=""width:400px;height:400px;""></img>",4,html-button-response,223,1373935,0.0-16.0-22.0,42389,List1B,black,man,,TRUE,4,,,,,
null,CORRECT,,html-keyboard-response,224,1375438,0.0-16.0-23.0-0.0,42389,List1B,black,man,,,,null,,,,
2104,<p>You got 8 out of 8 right first time. Press Continue.</p>,0,html-button-response,225,1377543,0.0-16.0-25.0,42389,List1B,black,man,,,,,,,,
null,"<div style=""font-size:60px;"">+</div>",,html-keyboard-response,226,1379046,0.0-17.0-0.0,42389,List1B,black,man,,,,null,,,,
null,"<img src=""stim_listB/touch3.gif""</stim_listB>",,html-keyboard-response,227,1381047,0.0-17.0-1.0,42389,List1B,black,man,,,,null,,,,
null,is touching,,html-keyboard-response,228,1383049,0.0-17.0-2.0,42389,List1B,black,man,,,,null,,,,
9500,,,survey-text,229,1392551,0.0-17.0-3.0,42389,List1B,black,man,,,,,"{""Q0"":""jane and dave""}","<img src=""stim_listB/touch3.gif""</stim_listB>",is touching,
null,"<div style=""font-size:60px;"">+</div>",,html-keyboard-response,230,1393052,0.0-17.0-0.1,42389,List1B,black,man,,,,null,,,,
null,"<img src=""stim_listB/dance4.gif""</stim_listB>",,html-keyboard-response,231,1395054,0.0-17.0-1.1,42389,List1B,black,man,,,,null,,,,
null,are dancing with each other,,html-keyboard-response,232,1397056,0.0-17.0-2.1,42389,List1B,black,man,,,,null,,,,
9293,,,survey-text,233,1406350,0.0-17.0-3.1,42389,List1B,black,man,,,,,"{""Q0"":""dave and ruth""}","<img src=""stim_listB/dance4.gif""</stim_listB>",are dancing with each other,
null,"<div style=""font-size:60px;"">+</div>",,html-keyboard-response,234,1406852,0.0-17.0-0.2,42389,List1B,black,man,,,,null,,,,
null,"<img src=""stim_listB/shout5.gif""</stim_listB>",,html-keyboard-response,235,1408854,0.0-17.0-1.2,42389,List1B,black,man,,,,null,,,,
null,is shouting at,,html-keyboard-response,236,1410855,0.0-17.0-2.2,42389,List1B,black,man,,,,null,,,,
16861,,,survey-text,237,1427717,0.0-17.0-3.2,42389,List1B,black,man,,,,,"{""Q0"":""luke and fred""}","<img src=""stim_listB/shout5.gif""</stim_listB>",is shouting at,
null,"<div style=""font-size:60px;"">+</div>",,html-keyboard-response,238,1428219,0.0-17.0-0.3,42389,List1B,black,man,,,,null,,,,
null,"<img src=""stim_listB/talk8.gif""</stim_listB>",,html-keyboard-response,239,1430220,0.0-17.0-1.3,42389,List1B,black,man,,,,null,,,,
null,are talking to each other,,html-keyboard-response,240,1432222,0.0-17.0-2.3,42389,List1B,black,man,,,,null,,,,
9038,,,survey-text,241,1441260,0.0-17.0-3.3,42389,List1B,black,man,,,,,"{""Q0"":""kate and ruth""}","<img src=""stim_listB/talk8.gif""</stim_listB>",are talking to each other,
null,"<div style=""font-size:60px;"">+</div>",,html-keyboard-response,242,1441762,0.0-17.0-0.4,42389,List1B,black,man,,,,null,,,,
null,"<img src=""stim_listB/meet4.gif""</stim_listB>",,html-keyboard-response,243,1443764,0.0-17.0-1.4,42389,List1B,black,man,,,,null,,,,
null,are meeting each other,,html-keyboard-response,244,1445765,0.0-17.0-2.4,42389,List1B,black,man,,,,null,,,,
9973,,,survey-text,245,1455739,0.0-17.0-3.4,42389,List1B,black,man,,,,,"{""Q0"":""ruth and luke""}","<img src=""stim_listB/meet4.gif""</stim_listB>",are meeting each other,
null,"<div style=""font-size:60px;"">+</div>",,html-keyboard-response,246,1456241,0.0-17.0-0.5,42389,List1B,black,man,,,,null,,,,
null,"<img src=""stim_listB/touch2.gif""</stim_listB>",,html-keyboard-response,247,1458243,0.0-17.0-1.5,42389,List1B,black,man,,,,null,,,,
null,are touching each other,,html-keyboard-response,248,1460244,0.0-17.0-2.5,42389,List1B,black,man,,,,null,,,,
10941,,,survey-text,249,1471187,0.0-17.0-3.5,42389,List1B,black,man,,,,,"{""Q0"":""fred and beth""}","<img src=""stim_listB/touch2.gif""</stim_listB>",are touching each other,
null,"<div style=""font-size:60px;"">+</div>",,html-keyboard-response,250,1471688,0.0-17.0-0.6,42389,List1B,black,man,,,,null,,,,
null,"<img src=""stim_listB/kiss4.gif""</stim_listB>",,html-keyboard-response,251,1473690,0.0-17.0-1.6,42389,List1B,black,man,,,,null,,,,
null,are kissing each other,,html-keyboard-response,252,1475692,0.0-17.0-2.6,42389,List1B,black,man,,,,null,,,,
10900,,,survey-text,253,1486594,0.0-17.0-3.6,42389,List1B,black,man,,,,,"{""Q0"":""jane and dave""}","<img src=""stim_listB/kiss4.gif""</stim_listB>",are kissing each other,
null,"<div style=""font-size:60px;"">+</div>",,html-keyboard-response,254,1487095,0.0-17.0-0.7,42389,List1B,black,man,,,,null,,,,
null,"<img src=""stim_listB/talk2.gif""</stim_listB>",,html-keyboard-response,255,1489097,0.0-17.0-1.7,42389,List1B,black,man,,,,null,,,,
null,are talking to each other,,html-keyboard-response,256,1491099,0.0-17.0-2.7,42389,List1B,black,man,,,,null,,,,
9638,,,survey-text,257,1500737,0.0-17.0-3.7,42389,List1B,black,man,,,,,"{""Q0"":""beth and mike""}","<img src=""stim_listB/talk2.gif""</stim_listB>",are talking to each other,
null,"<div style=""font-size:60px;"">+</div>",,html-keyboard-response,258,1501239,0.0-17.0-0.8,42389,List1B,black,man,,,,null,,,,
null,"<img src=""stim_listB/shout3.gif""</stim_listB>",,html-keyboard-response,259,1503240,0.0-17.0-1.8,42389,List1B,black,man,,,,null,,,,
null,is shouting at,,html-keyboard-response,260,1505241,0.0-17.0-2.8,42389,List1B,black,man,,,,null,,,,
9390,,,survey-text,261,1514632,0.0-17.0-3.8,42389,List1B,black,man,,,,,"{""Q0"":""luke and ruth""}","<img src=""stim_listB/shout3.gif""</stim_listB>",is shouting at,
null,"<div style=""font-size:60px;"">+</div>",,html-keyboard-response,262,1515134,0.0-17.0-0.9,42389,List1B,black,man,,,,null,,,,
null,"<img src=""stim_listB/argue7.gif""</stim_listB>",,html-keyboard-response,263,1517136,0.0-17.0-1.9,42389,List1B,black,man,,,,null,,,,
null,is arguing with,,html-keyboard-response,264,1519138,0.0-17.0-2.9,42389,List1B,black,man,,,,null,,,,
12084,,,survey-text,265,1531224,0.0-17.0-3.9,42389,List1B,black,man,,,,,"{""Q0"":""ruth and kate""}","<img src=""stim_listB/argue7.gif""</stim_listB>",is arguing with,
null,"<div style=""font-size:60px;"">+</div>",,html-keyboard-response,266,1531725,0.0-17.0-0.10,42389,List1B,black,man,,,,null,,,,
null,"<img src=""stim_listB/hug2.gif""</stim_listB>",,html-keyboard-response,267,1533727,0.0-17.0-1.10,42389,List1B,black,man,,,,null,,,,
null,are hugging each other,,html-keyboard-response,268,1535729,0.0-17.0-2.10,42389,List1B,black,man,,,,null,,,,
6350,,,survey-text,269,1542079,0.0-17.0-3.10,42389,List1B,black,man,,,,,"{""Q0"":""kate and mike""}","<img src=""stim_listB/hug2.gif""</stim_listB>",are hugging each other,
null,"<div style=""font-size:60px;"">+</div>",,html-keyboard-response,270,1542581,0.0-17.0-0.11,42389,List1B,black,man,,,,null,,,,
null,"<img src=""stim_listB/meet2.gif""</stim_listB>",,html-keyboard-response,271,1544582,0.0-17.0-1.11,42389,List1B,black,man,,,,null,,,,
null,are meeting each other,,html-keyboard-response,272,1546584,0.0-17.0-2.11,42389,List1B,black,man,,,,null,,,,
12436,,,survey-text,273,1559022,0.0-17.0-3.11,42389,List1B,black,man,,,,,"{""Q0"":""fred and beth""}","<img src=""stim_listB/meet2.gif""</stim_listB>",are meeting each other,
null,"<div style=""font-size:60px;"">+</div>",,html-keyboard-response,274,1559524,0.0-17.0-0.12,42389,List1B,black,man,,,,null,,,,
null,"<img src=""stim_listB/shout7.gif""</stim_listB>",,html-keyboard-response,275,1561526,0.0-17.0-1.12,42389,List1B,black,man,,,,null,,,,
null,is shouting at,,html-keyboard-response,276,1563527,0.0-17.0-2.12,42389,List1B,black,man,,,,null,,,,
6005,,,survey-text,277,1569534,0.0-17.0-3.12,42389,List1B,black,man,,,,,"{""Q0"":""ruth and beth""}","<img src=""stim_listB/shout7.gif""</stim_listB>",is shouting at,
null,"<div style=""font-size:60px;"">+</div>",,html-keyboard-response,278,1570035,0.0-17.0-0.13,42389,List1B,black,man,,,,null,,,,
null,"<img src=""stim_listB/dance1.gif""</stim_listB>",,html-keyboard-response,279,1572037,0.0-17.0-1.13,42389,List1B,black,man,,,,null,,,,
null,is dancing with,,html-keyboard-response,280,1574039,0.0-17.0-2.13,42389,List1B,black,man,,,,null,,,,
8334,,,survey-text,281,1582373,0.0-17.0-3.13,42389,List1B,black,man,,,,,"{""Q0"":""kate and fred""}","<img src=""stim_listB/dance1.gif""</stim_listB>",is dancing with,
null,"<div style=""font-size:60px;"">+</div>",,html-keyboard-response,282,1582875,0.0-17.0-0.14,42389,List1B,black,man,,,,null,,,,
null,"<img src=""stim_listB/hug4.gif""</stim_listB>",,html-keyboard-response,283,1584877,0.0-17.0-1.14,42389,List1B,black,man,,,,null,,,,
null,are hugging each other,,html-keyboard-response,284,1586879,0.0-17.0-2.14,42389,List1B,black,man,,,,null,,,,
8373,,,survey-text,285,1595252,0.0-17.0-3.14,42389,List1B,black,man,,,,,"{""Q0"":""dave and jane""}","<img src=""stim_listB/hug4.gif""</stim_listB>",are hugging each other,
null,"<div style=""font-size:60px;"">+</div>",,html-keyboard-response,286,1595754,0.0-17.0-0.15,42389,List1B,black,man,,,,null,,,,
null,"<img src=""stim_listB/shout6.gif""</stim_listB>",,html-keyboard-response,287,1597756,0.0-17.0-1.15,42389,List1B,black,man,,,,null,,,,
null,are shouting at each other,,html-keyboard-response,288,1599757,0.0-17.0-2.15,42389,List1B,black,man,,,,null,,,,
5902,,,survey-text,289,1605660,0.0-17.0-3.15,42389,List1B,black,man,,,,,"{""Q0"":""dave and mike""}","<img src=""stim_listB/shout6.gif""</stim_listB>",are shouting at each other,
null,"<div style=""font-size:60px;"">+</div>",,html-keyboard-response,290,1606162,0.0-17.0-0.16,42389,List1B,black,man,,,,null,,,,
null,"<img src=""stim_listB/marry1.gif""</stim_listB>",,html-keyboard-response,291,1608163,0.0-17.0-1.16,42389,List1B,black,man,,,,null,,,,
null,is marrying,,html-keyboard-response,292,1610165,0.0-17.0-2.16,42389,List1B,black,man,,,,null,,,,
7284,,,survey-text,293,1617451,0.0-17.0-3.16,42389,List1B,black,man,,,,,"{""Q0"":""beth and mike""}","<img src=""stim_listB/marry1.gif""</stim_listB>",is marrying,
null,"<div style=""font-size:60px;"">+</div>",,html-keyboard-response,294,1617953,0.0-17.0-0.17,42389,List1B,black,man,,,,null,,,,
null,"<img src=""stim_listB/fight6.gif""</stim_listB>",,html-keyboard-response,295,1619955,0.0-17.0-1.17,42389,List1B,black,man,,,,null,,,,
null,are fighting each other,,html-keyboard-response,296,1621957,0.0-17.0-2.17,42389,List1B,black,man,,,,null,,,,
5837,,,survey-text,297,1627795,0.0-17.0-3.17,42389,List1B,black,man,,,,,"{""Q0"":""luke and fred""}","<img src=""stim_listB/fight6.gif""</stim_listB>",are fighting each other,
null,"<div style=""font-size:60px;"">+</div>",,html-keyboard-response,298,1628296,0.0-17.0-0.18,42389,List1B,black,man,,,,null,,,,
null,"<img src=""stim_listB/talk1.gif""</stim_listB>",,html-keyboard-response,299,1630297,0.0-17.0-1.18,42389,List1B,black,man,,,,null,,,,
null,is talking to,,html-keyboard-response,300,1632298,0.0-17.0-2.18,42389,List1B,black,man,,,,null,,,,
9599,,,survey-text,301,1641898,0.0-17.0-3.18,42389,List1B,black,man,,,,,"{""Q0"":""kate and fred""}","<img src=""stim_listB/talk1.gif""</stim_listB>",is talking to,
null,"<div style=""font-size:60px;"">+</div>",,html-keyboard-response,302,1642400,0.0-17.0-0.19,42389,List1B,black,man,,,,null,,,,
null,"<img src=""stim_listB/fight3.gif""</stim_listB>",,html-keyboard-response,303,1644402,0.0-17.0-1.19,42389,List1B,black,man,,,,null,,,,
null,is fighting,,html-keyboard-response,304,1646403,0.0-17.0-2.19,42389,List1B,black,man,,,,null,,,,
10165,,,survey-text,305,1656569,0.0-17.0-3.19,42389,List1B,black,man,,,,,"{""Q0"":""jane and dave""}","<img src=""stim_listB/fight3.gif""</stim_listB>",is fighting,
12126,"<img src='img/portrait_matrix_list1.JPG' style='width:900px;height:500px;''></img><p>If you have memorised all the portraits and names and are ready to start, press Continue.</p><p><strong>Please note: Your memory of these faces will be tested 4 times during this experiment.</strong></p>",0,html-button-response,306,1668696,0.0-18.0-0.0,42389,List1B,black,man,,,,,,,,
3277,"<img src=""portrait/BW2.jpg""style=""width:400px;height:400px;""></img>",2,html-button-response,307,1672976,0.0-18.0-1.0,42389,List1B,black,man,,TRUE,2,,,,,
null,CORRECT,,html-keyboard-response,308,1674479,0.0-18.0-2.0-0.0,42389,List1B,black,man,,,,null,,,,
2056,"<img src=""portrait/BM1.jpg""style=""width:400px;height:400px;""></img>",4,html-button-response,309,1676536,0.0-18.0-4.0,42389,List1B,black,man,,TRUE,4,,,,,
null,CORRECT,,html-keyboard-response,310,1678039,0.0-18.0-5.0-0.0,42389,List1B,black,man,,,,null,,,,
3536,"<img src=""portrait/WW1.jpg""style=""width:400px;height:400px;""></img>",1,html-button-response,311,1681576,0.0-18.0-7.0,42389,List1B,black,man,,TRUE,1,,,,,
null,CORRECT,,html-keyboard-response,312,1683078,0.0-18.0-8.0-0.0,42389,List1B,black,man,,,,null,,,,
3520,"<img src=""portrait/BW1.jpg""style=""width:400px;height:400px;""></img>",0,html-button-response,313,1686600,0.0-18.0-10.0,42389,List1B,black,man,,TRUE,0,,,,,
null,CORRECT,,html-keyboard-response,314,1688102,0.0-18.0-11.0-0.0,42389,List1B,black,man,,,,null,,,,
3824,"<img src=""portrait/WW2.jpg""style=""width:400px;height:400px;""></img>",3,html-button-response,315,1691927,0.0-18.0-13.0,42389,List1B,black,man,,TRUE,3,,,,,
null,CORRECT,,html-keyboard-response,316,1693430,0.0-18.0-14.0-0.0,42389,List1B,black,man,,,,null,,,,
2528,"<img src=""portrait/WM2.jpg""style=""width:400px;height:400px;""></img>",7,html-button-response,317,1695959,0.0-18.0-16.0,42389,List1B,black,man,,TRUE,7,,,,,
null,CORRECT,,html-keyboard-response,318,1697461,0.0-18.0-17.0-0.0,42389,List1B,black,man,,,,null,,,,
2664,"<img src=""portrait/WM1.jpg""style=""width:400px;height:400px;""></img>",6,html-button-response,319,1700127,0.0-18.0-19.0,42389,List1B,black,man,,TRUE,6,,,,,
null,CORRECT,,html-keyboard-response,320,1701628,0.0-18.0-20.0-0.0,42389,List1B,black,man,,,,null,,,,
3897,"<img src=""portrait/BM2.jpg""style=""width:400px;height:400px;""></img>",5,html-button-response,321,1705526,0.0-18.0-22.0,42389,List1B,black,man,,TRUE,5,,,,,
null,CORRECT,,html-keyboard-response,322,1707029,0.0-18.0-23.0-0.0,42389,List1B,black,man,,,,null,,,,
2048,<p>You got 8 out of 8 right first time. Press Continue.</p>,0,html-button-response,323,1709078,0.0-18.0-25.0,42389,List1B,black,man,,,,,,,,
null,"<div style=""font-size:60px;"">+</div>",,html-keyboard-response,324,1710581,0.0-19.0-0.0,42389,List1B,black,man,,,,null,,,,
null,"<img src=""stim_listB/kiss7.gif""</stim_listB>",,html-keyboard-response,325,1712583,0.0-19.0-1.0,42389,List1B,black,man,,,,null,,,,
null,is kissing,,html-keyboard-response,326,1714585,0.0-19.0-2.0,42389,List1B,black,man,,,,null,,,,
11260,,,survey-text,327,1725846,0.0-19.0-3.0,42389,List1B,black,man,,,,,"{""Q0"":""beth and ruth""}","<img src=""stim_listB/kiss7.gif""</stim_listB>",is kissing,
null,"<div style=""font-size:60px;"">+</div>",,html-keyboard-response,328,1726348,0.0-19.0-0.1,42389,List1B,black,man,,,,null,,,,
null,"<img src=""stim_listB/hug5.gif""</stim_listB>",,html-keyboard-response,329,1728350,0.0-19.0-1.1,42389,List1B,black,man,,,,null,,,,
null,is hugging,,html-keyboard-response,330,1730351,0.0-19.0-2.1,42389,List1B,black,man,,,,null,,,,
8765,,,survey-text,331,1739117,0.0-19.0-3.1,42389,List1B,black,man,,,,,"{""Q0"":""fred and luke""}","<img src=""stim_listB/hug5.gif""</stim_listB>",is hugging,
null,"<div style=""font-size:60px;"">+</div>",,html-keyboard-response,332,1739619,0.0-19.0-0.2,42389,List1B,black,man,,,,null,,,,
null,"<img src=""stim_listB/touch1.gif""</stim_listB>",,html-keyboard-response,333,1741621,0.0-19.0-1.2,42389,List1B,black,man,,,,null,,,,
null,is touching,,html-keyboard-response,334,1743622,0.0-19.0-2.2,42389,List1B,black,man,,,,null,,,,
7356,,,survey-text,335,1750982,0.0-19.0-3.2,42389,List1B,black,man,,,,,"{""Q0"":""kate and mike""}","<img src=""stim_listB/touch1.gif""</stim_listB>",is touching,
null,"<div style=""font-size:60px;"">+</div>",,html-keyboard-response,336,1751484,0.0-19.0-0.3,42389,List1B,black,man,,,,null,,,,
null,"<img src=""stim_listB/kiss1.gif""</stim_listB>",,html-keyboard-response,337,1753486,0.0-19.0-1.3,42389,List1B,black,man,,,,null,,,,
null,is kissing,,html-keyboard-response,338,1755486,0.0-19.0-2.3,42389,List1B,black,man,,,,null,,,,
9885,,,survey-text,339,1765372,0.0-19.0-3.3,42389,List1B,black,man,,,,,"{""Q0"":""beth and fred""}","<img src=""stim_listB/kiss1.gif""</stim_listB>",is kissing,
null,"<div style=""font-size:60px;"">+</div>",,html-keyboard-response,340,1765874,0.0-19.0-0.4,42389,List1B,black,man,,,,null,,,,
null,"<img src=""stim_listB/meet5.gif""</stim_listB>",,html-keyboard-response,341,1767874,0.0-19.0-1.4,42389,List1B,black,man,,,,null,,,,
null,is meeting,,html-keyboard-response,342,1769876,0.0-19.0-2.4,42389,List1B,black,man,,,,null,,,,
6758,,,survey-text,343,1776635,0.0-19.0-3.4,42389,List1B,black,man,,,,,"{""Q0"":""dave and mike""}","<img src=""stim_listB/meet5.gif""</stim_listB>",is meeting,
null,"<div style=""font-size:60px;"">+</div>",,html-keyboard-response,344,1777137,0.0-19.0-0.5,42389,List1B,black,man,,,,null,,,,
null,"<img src=""stim_listB/argue5.gif""</stim_listB>",,html-keyboard-response,345,1779138,0.0-19.0-1.5,42389,List1B,black,man,,,,null,,,,
null,is arguing with,,html-keyboard-response,346,1781139,0.0-19.0-2.5,42389,List1B,black,man,,,,null,,,,
6453,,,survey-text,347,1787595,0.0-19.0-3.5,42389,List1B,black,man,,,,,"{""Q0"":""luke and mike""}","<img src=""stim_listB/argue5.gif""</stim_listB>",is arguing with,
null,"<div style=""font-size:60px;"">+</div>",,html-keyboard-response,348,1788097,0.0-19.0-0.6,42389,List1B,black,man,,,,null,,,,
null,"<img src=""stim_listB/fight7.gif""</stim_listB>",,html-keyboard-response,349,1790098,0.0-19.0-1.6,42389,List1B,black,man,,,,null,,,,
null,is fighting,,html-keyboard-response,350,1792100,0.0-19.0-2.6,42389,List1B,black,man,,,,null,,,,
15549,,,survey-text,351,1807650,0.0-19.0-3.6,42389,List1B,black,man,,,,,"{""Q0"":""kate and jane""}","<img src=""stim_listB/fight7.gif""</stim_listB>",is fighting,
null,"<div style=""font-size:60px;"">+</div>",,html-keyboard-response,352,1808151,0.0-19.0-0.7,42389,List1B,black,man,,,,null,,,,
null,"<img src=""stim_listB/dance7.gif""</stim_listB>",,html-keyboard-response,353,1810155,0.0-19.0-1.7,42389,List1B,black,man,,,,null,,,,
null,is dancing with,,html-keyboard-response,354,1812156,0.0-19.0-2.7,42389,List1B,black,man,,,,null,,,,
7996,,,survey-text,355,1820153,0.0-19.0-3.7,42389,List1B,black,man,,,,,"{""Q0"":""jane and beth""}","<img src=""stim_listB/dance7.gif""</stim_listB>",is dancing with,
null,"<div style=""font-size:60px;"">+</div>",,html-keyboard-response,356,1820655,0.0-19.0-0.8,42389,List1B,black,man,,,,null,,,,
null,"<img src=""stim_listB/talk6.gif""</stim_listB>",,html-keyboard-response,357,1822656,0.0-19.0-1.8,42389,List1B,black,man,,,,null,,,,
null,are talking to each other,,html-keyboard-response,358,1824658,0.0-19.0-2.8,42389,List1B,black,man,,,,null,,,,
7694,,,survey-text,359,1832353,0.0-19.0-3.8,42389,List1B,black,man,,,,,"{""Q0"":""mike and luke""}","<img src=""stim_listB/talk6.gif""</stim_listB>",are talking to each other,
null,"<div style=""font-size:60px;"">+</div>",,html-keyboard-response,360,1832854,0.0-19.0-0.9,42389,List1B,black,man,,,,null,,,,
null,"<img src=""stim_listB/meet1.gif""</stim_listB>",,html-keyboard-response,361,1834855,0.0-19.0-1.9,42389,List1B,black,man,,,,null,,,,
null,is meeting,,html-keyboard-response,362,1836857,0.0-19.0-2.9,42389,List1B,black,man,,,,null,,,,
7135,,,survey-text,363,1843992,0.0-19.0-3.9,42389,List1B,black,man,,,,,"{""Q0"":""kate and mike""}","<img src=""stim_listB/meet1.gif""</stim_listB>",is meeting,
null,"<div style=""font-size:60px;"">+</div>",,html-keyboard-response,364,1844494,0.0-19.0-0.10,42389,List1B,black,man,,,,null,,,,
null,"<img src=""stim_listB/talk5.gif""</stim_listB>",,html-keyboard-response,365,1846496,0.0-19.0-1.10,42389,List1B,black,man,,,,null,,,,
null,is talking to,,html-keyboard-response,366,1848497,0.0-19.0-2.10,42389,List1B,black,man,,,,null,,,,
5413,,,survey-text,367,1853911,0.0-19.0-3.10,42389,List1B,black,man,,,,,"{""Q0"":""dave and fred""}","<img src=""stim_listB/talk5.gif""</stim_listB>",is talking to,
null,"<div style=""font-size:60px;"">+</div>",,html-keyboard-response,368,1854412,0.0-19.0-0.11,42389,List1B,black,man,,,,null,,,,
null,"<img src=""stim_listB/meet7.gif""</stim_listB>",,html-keyboard-response,369,1856414,0.0-19.0-1.11,42389,List1B,black,man,,,,null,,,,
null,is meeting,,html-keyboard-response,370,1858415,0.0-19.0-2.11,42389,List1B,black,man,,,,null,,,,
15335,,,survey-text,371,1873750,0.0-19.0-3.11,42389,List1B,black,man,,,,,"{""Q0"":""jane and kate""}","<img src=""stim_listB/meet7.gif""</stim_listB>",is meeting,
null,"<div style=""font-size:60px;"">+</div>",,html-keyboard-response,372,1874252,0.0-19.0-0.12,42389,List1B,black,man,,,,null,,,,
null,"<img src=""stim_listB/argue1.gif""</stim_listB>",,html-keyboard-response,373,1876254,0.0-19.0-1.12,42389,List1B,black,man,,,,null,,,,
null,is arguing with,,html-keyboard-response,374,1878256,0.0-19.0-2.12,42389,List1B,black,man,,,,null,,,,
7190,,,survey-text,375,1885446,0.0-19.0-3.12,42389,List1B,black,man,,,,,"{""Q0"":""beth and mike""}","<img src=""stim_listB/argue1.gif""</stim_listB>",is arguing with,
null,"<div style=""font-size:60px;"">+</div>",,html-keyboard-response,376,1885948,0.0-19.0-0.13,42389,List1B,black,man,,,,null,,,,
null,"<img src=""stim_listB/fight5.gif""</stim_listB>",,html-keyboard-response,377,1887951,0.0-19.0-1.13,42389,List1B,black,man,,,,null,,,,
null,is fighting,,html-keyboard-response,378,1889953,0.0-19.0-2.13,42389,List1B,black,man,,,,null,,,,
5956,,,survey-text,379,1895909,0.0-19.0-3.13,42389,List1B,black,man,,,,,"{""Q0"":""dave and mike""}","<img src=""stim_listB/fight5.gif""</stim_listB>",is fighting,
null,"<div style=""font-size:60px;"">+</div>",,html-keyboard-response,380,1896411,0.0-19.0-0.14,42389,List1B,black,man,,,,null,,,,
null,"<img src=""stim_listB/argue4.gif""</stim_listB>",,html-keyboard-response,381,1898413,0.0-19.0-1.14,42389,List1B,black,man,,,,null,,,,
null,are arguing with each other,,html-keyboard-response,382,1900413,0.0-19.0-2.14,42389,List1B,black,man,,,,null,,,,
9686,,,survey-text,383,1910101,0.0-19.0-3.14,42389,List1B,black,man,,,,,"{""Q0"":""jane and luke""}","<img src=""stim_listB/argue4.gif""</stim_listB>",are arguing with each other,
null,"<div style=""font-size:60px;"">+</div>",,html-keyboard-response,384,1910602,0.0-19.0-0.15,42389,List1B,black,man,,,,null,,,,
null,"<img src=""stim_listB/marry8.gif""</stim_listB>",,html-keyboard-response,385,1912604,0.0-19.0-1.15,42389,List1B,black,man,,,,null,,,,
null,are marrying each other,,html-keyboard-response,386,1914606,0.0-19.0-2.15,42389,List1B,black,man,,,,null,,,,
8661,,,survey-text,387,1923268,0.0-19.0-3.15,42389,List1B,black,man,,,,,"{""Q0"":""beth and jane""}","<img src=""stim_listB/marry8.gif""</stim_listB>",are marrying each other,
null,"<div style=""font-size:60px;"">+</div>",,html-keyboard-response,388,1923770,0.0-19.0-0.16,42389,List1B,black,man,,,,null,,,,
null,"<img src=""stim_listB/dance8.gif""</stim_listB>",,html-keyboard-response,389,1925772,0.0-19.0-1.16,42389,List1B,black,man,,,,null,,,,
null,are dancing with each other,,html-keyboard-response,390,1927774,0.0-19.0-2.16,42389,List1B,black,man,,,,null,,,,
8829,,,survey-text,391,1936603,0.0-19.0-3.16,42389,List1B,black,man,,,,,"{""Q0"":""ruth and kate""}","<img src=""stim_listB/dance8.gif""</stim_listB>",are dancing with each other,
null,"<div style=""font-size:60px;"">+</div>",,html-keyboard-response,392,1937105,0.0-19.0-0.17,42389,List1B,black,man,,,,null,,,,
null,"<img src=""stim_listB/kiss3.gif""</stim_listB>",,html-keyboard-response,393,1939107,0.0-19.0-1.17,42389,List1B,black,man,,,,null,,,,
null,is kissing,,html-keyboard-response,394,1941108,0.0-19.0-2.17,42389,List1B,black,man,,,,null,,,,
7077,,,survey-text,395,1948187,0.0-19.0-3.17,42389,List1B,black,man,,,,,"{""Q0"":""ruth and luke""}","<img src=""stim_listB/kiss3.gif""</stim_listB>",is kissing,
null,"<div style=""font-size:60px;"">+</div>",,html-keyboard-response,396,1948688,0.0-19.0-0.18,42389,List1B,black,man,,,,null,,,,
null,"<img src=""stim_listB/marry7.gif""</stim_listB>",,html-keyboard-response,397,1950690,0.0-19.0-1.18,42389,List1B,black,man,,,,null,,,,
null,is marrying,,html-keyboard-response,398,1952692,0.0-19.0-2.18,42389,List1B,black,man,,,,null,,,,
7862,,,survey-text,399,1960554,0.0-19.0-3.18,42389,List1B,black,man,,,,,"{""Q0"":""ruth and kate""}","<img src=""stim_listB/marry7.gif""</stim_listB>",is marrying,
null,"<div style=""font-size:60px;"">+</div>",,html-keyboard-response,400,1961055,0.0-19.0-0.19,42389,List1B,black,man,,,,null,,,,
null,"<img src=""stim_listB/meet6.gif""</stim_listB>",,html-keyboard-response,401,1963057,0.0-19.0-1.19,42389,List1B,black,man,,,,null,,,,
null,are meeting each other,,html-keyboard-response,402,1965059,0.0-19.0-2.19,42389,List1B,black,man,,,,null,,,,
7925,,,survey-text,403,1972985,0.0-19.0-3.19,42389,List1B,black,man,,,,,"{""Q0"":""fred and luke""}","<img src=""stim_listB/meet6.gif""</stim_listB>",are meeting each other,
3927,<p>Thank you for completing that task.</p><p>The final part of this session is a short questionnaire.</p><p>Press Continue.</p>,0,html-button-response,404,1976913,0.0-20.0,42389,List1B,black,man,,,,,,,,
41004,,,survey-text,405,2018919,0.0-21.0,42389,List1B,black,man,,,,,"{""Q0"":""44"",""Q1"":""english"",""Q2"":""english"",""Q3"":""united states"",""Q4"":""african american"",""Q5"":""male""}",,,demographics
193700,,,survey-likert,406,2212622,0.0-22.0,42389,List1B,black,man,,,,,"{""Q0"":6,""Q1"":6,""Q2"":6,""Q3"":6,""Q4"":6,""Q5"":6,""Q6"":6,""Q7"":6,""Q8"":6,""Q9"":6,""Q10"":6,""Q11"":6,""Q12"":6,""Q13"":5}",,,likert_race
50512,,,survey-likert,407,2263137,0.0-23.0,42389,List1B,black,man,,,,,"{""Q0"":6,""Q1"":6,""Q2"":6,""Q3"":6,""Q4"":6,""Q5"":6,""Q6"":6,""Q7"":4,""Q8"":6,""Q9"":5,""Q10"":6,""Q11"":6,""Q12"":6,""Q13"":5}",,,likert_gender
4999,,,survey-text,408,2268138,0.0-24.0,42389,List1B,black,man,,,,,"{""Q0"":""ccc""}",,,worker_id
23319,,,external-html,409,2291723,0.0-25.0,42389,List1B,black,man,debrief.html,,,,,,,
