rt,stimulus,button_pressed,trial_type,trial_index,time_elapsed,internal_node_id,subject,list,ppt_race,ppt_gender,url,first_guess,correct,key_press,responses,image_type,phrase_type,test_part
3311,Welcome to the experiment. Press Continue to begin.,0,html-button-response,0,3320,0.0-0.0,4372,List1B,black,man,,,,,,,,
101822,,,external-html,1,106262,0.0-1.0,4372,List1B,black,man,consent.html,,,,,,,
20137,"<p>On the next page, you will see portraits of 8 people and their names.</p><p>Your first task is to take a few minutes to memorise the names of these people.</p><p>You will have to recall their names during the rest of the experiment, so it is</p><p>essential that you try to memorise these people and their names as best as you can.</p><br><p><strong>You will then be tested on your memory of these names and portraits.</strong></p><br><p>The experiment will start after you have completed this memory test.</p><br><p>Ready?</p>",0,html-button-response,2,126405,0.0-2.0,4372,List1B,black,man,,,,,,,,
161211,"<img src='img/portrait_matrix_list1.JPG' style='width:900px;height:500px;''></img><p>If you have memorised all the portraits and names and are ready to start, press Continue.</p><p><strong>Please note: Your memory of these faces will be tested 4 times during this experiment.</strong></p>",0,html-button-response,3,288623,0.0-3.0-0.0,4372,List1B,black,man,,,,,,,,
7116,"<img src=""portrait/WM2.jpg""style=""width:400px;height:400px;""></img>",7,html-button-response,4,296750,0.0-3.0-1.0,4372,List1B,black,man,,TRUE,7,,,,,
null,CORRECT,,html-keyboard-response,5,298263,0.0-3.0-2.0-0.0,4372,List1B,black,man,,,,null,,,,
4681,"<img src=""portrait/BM1.jpg""style=""width:400px;height:400px;""></img>",4,html-button-response,6,302954,0.0-3.0-4.0,4372,List1B,black,man,,TRUE,4,,,,,
null,CORRECT,,html-keyboard-response,7,304468,0.0-3.0-5.0-0.0,4372,List1B,black,man,,,,null,,,,
5222,"<img src=""portrait/WW1.jpg""style=""width:400px;height:400px;""></img>",1,html-button-response,8,309694,0.0-3.0-7.0,4372,List1B,black,man,,TRUE,1,,,,,
null,CORRECT,,html-keyboard-response,9,311205,0.0-3.0-8.0-0.0,4372,List1B,black,man,,,,null,,,,
4632,"<img src=""portrait/BM2.jpg""style=""width:400px;height:400px;""></img>",5,html-button-response,10,315845,0.0-3.0-10.0,4372,List1B,black,man,,TRUE,5,,,,,
null,CORRECT,,html-keyboard-response,11,317354,0.0-3.0-11.0-0.0,4372,List1B,black,man,,,,null,,,,
3686,"<img src=""portrait/WW2.jpg""style=""width:400px;height:400px;""></img>",3,html-button-response,12,321047,0.0-3.0-13.0,4372,List1B,black,man,,TRUE,3,,,,,
null,CORRECT,,html-keyboard-response,13,322556,0.0-3.0-14.0-0.0,4372,List1B,black,man,,,,null,,,,
10966,"<img src=""portrait/BW1.jpg""style=""width:400px;height:400px;""></img>",0,html-button-response,14,333528,0.0-3.0-16.0,4372,List1B,black,man,,TRUE,0,,,,,
null,CORRECT,,html-keyboard-response,15,335034,0.0-3.0-17.0-0.0,4372,List1B,black,man,,,,null,,,,
2895,"<img src=""portrait/BW2.jpg""style=""width:400px;height:400px;""></img>",2,html-button-response,16,337937,0.0-3.0-19.0,4372,List1B,black,man,,TRUE,2,,,,,
null,CORRECT,,html-keyboard-response,17,339446,0.0-3.0-20.0-0.0,4372,List1B,black,man,,,,null,,,,
5250,"<img src=""portrait/WM1.jpg""style=""width:400px;height:400px;""></img>",6,html-button-response,18,344704,0.0-3.0-22.0,4372,List1B,black,man,,TRUE,6,,,,,
null,CORRECT,,html-keyboard-response,19,346212,0.0-3.0-23.0-0.0,4372,List1B,black,man,,,,null,,,,
2863,<p>You got 8 out of 8 right first time. Press Continue.</p>,0,html-button-response,20,349083,0.0-3.0-25.0,4372,List1B,black,man,,,,,,,,
120929,"<p>In this experiment, you will view photographs of the people from the memory game interacting.</p><p>By using the <strong>exact</strong> phrase given <i>after</i> the photograph appears and recalling the correct names of the people in the photographs, form a sentence describing the interaction. You do not need to capitalise names.</p><p>Type your answer in the space provided. Please complete every sentence before moving onto the next trial.</p><p>You will only have a few seconds to memorise each given photograph and phrase before you can respond, so try your best to focus.</p><p>An example is given below. Press 'Continue' when you are ready.</p><img src='img/speaking_example_v2.jpg' style='width:800px;height:460px;''></img>",0,html-button-response,21,471025,0.0-4.0,4372,List1B,black,man,,,,,,,,
5605,"<p>Before the experiment starts, you will watch two example trials. Press 'Continue'.</p>",0,html-button-response,22,477641,0.0-5.0,4372,List1B,black,man,,,,,,,,
null,<img src='img/speaking_WW.gif'></img>,,html-keyboard-response,23,480646,0.0-6.0,4372,List1B,black,man,,,,null,,,,
null,<p>is speaking to</p>,,html-keyboard-response,24,482652,0.0-7.0,4372,List1B,black,man,,,,null,,,,
3518,<p><b>Answer:</b> kate is speaking to beth</p>,0,html-button-response,25,486176,0.0-8.0,4372,List1B,black,man,,,,,,,,
null,<img src='img/pointing_BM.gif'></img>,,html-keyboard-response,26,489182,0.0-9.0,4372,List1B,black,man,,,,null,,,,
null,<p>are pointing at each other</p>,,html-keyboard-response,27,491186,0.0-10.0,4372,List1B,black,man,,,,null,,,,
11241,<p><b>Answer:</b> luke and dave are pointing at each other</p>,0,html-button-response,28,502431,0.0-11.0,4372,List1B,black,man,,,,,,,,
27895,"<p>Ready to start the experiment?</p><br><p><strong>Remember to describe the picture using a full sentence,</strong></p><p><strong>that combines the names of the people with the given phrase.</strong></p><p><strong>If you do not do this correctly you will not be paid.</strong></p><p><strong> You do not need to capitalise names or use punctuation.</strong></p><br><p>Press 'Continue' to begin.</p>",0,html-button-response,29,531331,0.0-12.0,4372,List1B,black,man,,,,,,,,
null,"<div style=""font-size:60px;"">+</div>",,html-keyboard-response,30,532839,0.0-13.0-0.0,4372,List1B,black,man,,,,null,,,,
null,"<img src=""stim_listB/touch3.gif""</stim_listB>",,html-keyboard-response,31,534851,0.0-13.0-1.0,4372,List1B,black,man,,,,null,,,,
null,is touching,,html-keyboard-response,32,536857,0.0-13.0-2.0,4372,List1B,black,man,,,,null,,,,
46238,,,survey-text,33,583106,0.0-13.0-3.0,4372,List1B,black,man,,,,,"{""Q0"":""Dave is touching jane""}","<img src=""stim_listB/touch3.gif""</stim_listB>",is touching,
null,"<div style=""font-size:60px;"">+</div>",,html-keyboard-response,34,583613,0.0-13.0-0.1,4372,List1B,black,man,,,,null,,,,
null,"<img src=""stim_listB/shout3.gif""</stim_listB>",,html-keyboard-response,35,585618,0.0-13.0-1.1,4372,List1B,black,man,,,,null,,,,
null,is shouting at,,html-keyboard-response,36,587622,0.0-13.0-2.1,4372,List1B,black,man,,,,null,,,,
99050,,,survey-text,37,686679,0.0-13.0-3.1,4372,List1B,black,man,,,,,"{""Q0"":""Luke is shouting at Ruth""}","<img src=""stim_listB/shout3.gif""</stim_listB>",is shouting at,
null,"<div style=""font-size:60px;"">+</div>",,html-keyboard-response,38,687183,0.0-13.0-0.2,4372,List1B,black,man,,,,null,,,,
null,"<img src=""stim_listB/kiss1.gif""</stim_listB>",,html-keyboard-response,39,689190,0.0-13.0-1.2,4372,List1B,black,man,,,,null,,,,
null,is kissing,,html-keyboard-response,40,691197,0.0-13.0-2.2,4372,List1B,black,man,,,,null,,,,
38210,,,survey-text,41,729413,0.0-13.0-3.2,4372,List1B,black,man,,,,,"{""Q0"":""Fred is kissing beth""}","<img src=""stim_listB/kiss1.gif""</stim_listB>",is kissing,
null,"<div style=""font-size:60px;"">+</div>",,html-keyboard-response,42,729919,0.0-13.0-0.3,4372,List1B,black,man,,,,null,,,,
null,"<img src=""stim_listB/marry5.gif""</stim_listB>",,html-keyboard-response,43,731927,0.0-13.0-1.3,4372,List1B,black,man,,,,null,,,,
null,is marrying,,html-keyboard-response,44,733931,0.0-13.0-2.3,4372,List1B,black,man,,,,null,,,,
23700,,,survey-text,45,757638,0.0-13.0-3.3,4372,List1B,black,man,,,,,"{""Q0"":""Mike is marrying Luke""}","<img src=""stim_listB/marry5.gif""</stim_listB>",is marrying,
null,"<div style=""font-size:60px;"">+</div>",,html-keyboard-response,46,758145,0.0-13.0-0.4,4372,List1B,black,man,,,,null,,,,
null,"<img src=""stim_listB/argue8.gif""</stim_listB>",,html-keyboard-response,47,760153,0.0-13.0-1.4,4372,List1B,black,man,,,,null,,,,
null,are arguing with each other,,html-keyboard-response,48,762158,0.0-13.0-2.4,4372,List1B,black,man,,,,null,,,,
26320,,,survey-text,49,788485,0.0-13.0-3.4,4372,List1B,black,man,,,,,"{""Q0"":""Jane and Kate are pointing at each other""}","<img src=""stim_listB/argue8.gif""</stim_listB>",are arguing with each other,
null,"<div style=""font-size:60px;"">+</div>",,html-keyboard-response,50,788991,0.0-13.0-0.5,4372,List1B,black,man,,,,null,,,,
null,"<img src=""stim_listB/dance5.gif""</stim_listB>",,html-keyboard-response,51,791000,0.0-13.0-1.5,4372,List1B,black,man,,,,null,,,,
null,is dancing with,,html-keyboard-response,52,793007,0.0-13.0-2.5,4372,List1B,black,man,,,,null,,,,
15882,,,survey-text,53,808894,0.0-13.0-3.5,4372,List1B,black,man,,,,,"{""Q0"":""Fred is dancing with dave""}","<img src=""stim_listB/dance5.gif""</stim_listB>",is dancing with,
null,"<div style=""font-size:60px;"">+</div>",,html-keyboard-response,54,809399,0.0-13.0-0.6,4372,List1B,black,man,,,,null,,,,
null,"<img src=""stim_listB/hug7.gif""</stim_listB>",,html-keyboard-response,55,811406,0.0-13.0-1.6,4372,List1B,black,man,,,,null,,,,
null,is hugging,,html-keyboard-response,56,813412,0.0-13.0-2.6,4372,List1B,black,man,,,,null,,,,
24221,,,survey-text,57,837638,0.0-13.0-3.6,4372,List1B,black,man,,,,,"{""Q0"":""Beth is hugging ruth""}","<img src=""stim_listB/hug7.gif""</stim_listB>",is hugging,
null,"<div style=""font-size:60px;"">+</div>",,html-keyboard-response,58,838145,0.0-13.0-0.7,4372,List1B,black,man,,,,null,,,,
null,"<img src=""stim_listB/marry8.gif""</stim_listB>",,html-keyboard-response,59,840152,0.0-13.0-1.7,4372,List1B,black,man,,,,null,,,,
null,are marrying each other,,html-keyboard-response,60,842157,0.0-13.0-2.7,4372,List1B,black,man,,,,null,,,,
18549,,,survey-text,61,860713,0.0-13.0-3.7,4372,List1B,black,man,,,,,"{""Q0"":""Jane and ruth are marrying each other""}","<img src=""stim_listB/marry8.gif""</stim_listB>",are marrying each other,
null,"<div style=""font-size:60px;"">+</div>",,html-keyboard-response,62,861218,0.0-13.0-0.8,4372,List1B,black,man,,,,null,,,,
null,"<img src=""stim_listB/argue1.gif""</stim_listB>",,html-keyboard-response,63,863225,0.0-13.0-1.8,4372,List1B,black,man,,,,null,,,,
null,is arguing with,,html-keyboard-response,64,865229,0.0-13.0-2.8,4372,List1B,black,man,,,,null,,,,
21276,,,survey-text,65,886512,0.0-13.0-3.8,4372,List1B,black,man,,,,,"{""Q0"":""Mike is arguing with Beth""}","<img src=""stim_listB/argue1.gif""</stim_listB>",is arguing with,
null,"<div style=""font-size:60px;"">+</div>",,html-keyboard-response,66,887031,0.0-13.0-0.9,4372,List1B,black,man,,,,null,,,,
null,"<img src=""stim_listB/kiss2.gif""</stim_listB>",,html-keyboard-response,67,889040,0.0-13.0-1.9,4372,List1B,black,man,,,,null,,,,
null,are kissing each other,,html-keyboard-response,68,891047,0.0-13.0-2.9,4372,List1B,black,man,,,,null,,,,
15264,,,survey-text,69,906319,0.0-13.0-3.9,4372,List1B,black,man,,,,,"{""Q0"":""Mike and Kate are kissing each other""}","<img src=""stim_listB/kiss2.gif""</stim_listB>",are kissing each other,
null,"<div style=""font-size:60px;"">+</div>",,html-keyboard-response,70,906826,0.0-13.0-0.10,4372,List1B,black,man,,,,null,,,,
null,"<img src=""stim_listB/kiss5.gif""</stim_listB>",,html-keyboard-response,71,908832,0.0-13.0-1.10,4372,List1B,black,man,,,,null,,,,
null,is kissing,,html-keyboard-response,72,910836,0.0-13.0-2.10,4372,List1B,black,man,,,,null,,,,
16618,,,survey-text,73,927460,0.0-13.0-3.10,4372,List1B,black,man,,,,,"{""Q0"":""Luke is kissing Fred""}","<img src=""stim_listB/kiss5.gif""</stim_listB>",is kissing,
null,"<div style=""font-size:60px;"">+</div>",,html-keyboard-response,74,927966,0.0-13.0-0.11,4372,List1B,black,man,,,,null,,,,
null,"<img src=""stim_listB/meet3.gif""</stim_listB>",,html-keyboard-response,75,929973,0.0-13.0-1.11,4372,List1B,black,man,,,,null,,,,
null,is meeting,,html-keyboard-response,76,931978,0.0-13.0-2.11,4372,List1B,black,man,,,,null,,,,
14439,,,survey-text,77,946423,0.0-13.0-3.11,4372,List1B,black,man,,,,,"{""Q0"":""Jane is meeting dave""}","<img src=""stim_listB/meet3.gif""</stim_listB>",is meeting,
null,"<div style=""font-size:60px;"">+</div>",,html-keyboard-response,78,946928,0.0-13.0-0.12,4372,List1B,black,man,,,,null,,,,
null,"<img src=""stim_listB/marry1.gif""</stim_listB>",,html-keyboard-response,79,948936,0.0-13.0-1.12,4372,List1B,black,man,,,,null,,,,
null,is marrying,,html-keyboard-response,80,950941,0.0-13.0-2.12,4372,List1B,black,man,,,,null,,,,
19611,,,survey-text,81,970557,0.0-13.0-3.12,4372,List1B,black,man,,,,,"{""Q0"":""Mike is marrying Beth""}","<img src=""stim_listB/marry1.gif""</stim_listB>",is marrying,
null,"<div style=""font-size:60px;"">+</div>",,html-keyboard-response,82,971062,0.0-13.0-0.13,4372,List1B,black,man,,,,null,,,,
null,"<img src=""stim_listB/touch5.gif""</stim_listB>",,html-keyboard-response,83,973070,0.0-13.0-1.13,4372,List1B,black,man,,,,null,,,,
null,is touching,,html-keyboard-response,84,975076,0.0-13.0-2.13,4372,List1B,black,man,,,,null,,,,
20998,,,survey-text,85,996081,0.0-13.0-3.13,4372,List1B,black,man,,,,,"{""Q0"":""Mike is touching dave""}","<img src=""stim_listB/touch5.gif""</stim_listB>",is touching,
null,"<div style=""font-size:60px;"">+</div>",,html-keyboard-response,86,996588,0.0-13.0-0.14,4372,List1B,black,man,,,,null,,,,
null,"<img src=""stim_listB/marry6.gif""</stim_listB>",,html-keyboard-response,87,998596,0.0-13.0-1.14,4372,List1B,black,man,,,,null,,,,
null,are marrying each other,,html-keyboard-response,88,1000602,0.0-13.0-2.14,4372,List1B,black,man,,,,null,,,,
14723,,,survey-text,89,1015332,0.0-13.0-3.14,4372,List1B,black,man,,,,,"{""Q0"":""Fred and dave are marrying each other""}","<img src=""stim_listB/marry6.gif""</stim_listB>",are marrying each other,
null,"<div style=""font-size:60px;"">+</div>",,html-keyboard-response,90,1015838,0.0-13.0-0.15,4372,List1B,black,man,,,,null,,,,
null,"<img src=""stim_listB/dance7.gif""</stim_listB>",,html-keyboard-response,91,1017845,0.0-13.0-1.15,4372,List1B,black,man,,,,null,,,,
null,is dancing with,,html-keyboard-response,92,1019850,0.0-13.0-2.15,4372,List1B,black,man,,,,null,,,,
17380,,,survey-text,93,1037237,0.0-13.0-3.15,4372,List1B,black,man,,,,,"{""Q0"":""Jane is dancing with Beth""}","<img src=""stim_listB/dance7.gif""</stim_listB>",is dancing with,
null,"<div style=""font-size:60px;"">+</div>",,html-keyboard-response,94,1037742,0.0-13.0-0.16,4372,List1B,black,man,,,,null,,,,
null,"<img src=""stim_listB/shout1.gif""</stim_listB>",,html-keyboard-response,95,1039749,0.0-13.0-1.16,4372,List1B,black,man,,,,null,,,,
null,is shouting at,,html-keyboard-response,96,1041753,0.0-13.0-2.16,4372,List1B,black,man,,,,null,,,,
22495,,,survey-text,97,1064254,0.0-13.0-3.16,4372,List1B,black,man,,,,,"{""Q0"":""Fred and Beth are shouting at each other ""}","<img src=""stim_listB/shout1.gif""</stim_listB>",is shouting at,
null,"<div style=""font-size:60px;"">+</div>",,html-keyboard-response,98,1064758,0.0-13.0-0.17,4372,List1B,black,man,,,,null,,,,
null,"<img src=""stim_listB/kiss6.gif""</stim_listB>",,html-keyboard-response,99,1066767,0.0-13.0-1.17,4372,List1B,black,man,,,,null,,,,
null,are kissing each other,,html-keyboard-response,100,1068773,0.0-13.0-2.17,4372,List1B,black,man,,,,null,,,,
11903,,,survey-text,101,1080682,0.0-13.0-3.17,4372,List1B,black,man,,,,,"{""Q0"":""Dave and Mike are kissing each other ""}","<img src=""stim_listB/kiss6.gif""</stim_listB>",are kissing each other,
null,"<div style=""font-size:60px;"">+</div>",,html-keyboard-response,102,1081187,0.0-13.0-0.18,4372,List1B,black,man,,,,null,,,,
null,"<img src=""stim_listB/dance1.gif""</stim_listB>",,html-keyboard-response,103,1083194,0.0-13.0-1.18,4372,List1B,black,man,,,,null,,,,
null,is dancing with,,html-keyboard-response,104,1085200,0.0-13.0-2.18,4372,List1B,black,man,,,,null,,,,
16379,,,survey-text,105,1101585,0.0-13.0-3.18,4372,List1B,black,man,,,,,"{""Q0"":""Kate is dancing with Fred""}","<img src=""stim_listB/dance1.gif""</stim_listB>",is dancing with,
null,"<div style=""font-size:60px;"">+</div>",,html-keyboard-response,106,1102089,0.0-13.0-0.19,4372,List1B,black,man,,,,null,,,,
null,"<img src=""stim_listB/kiss4.gif""</stim_listB>",,html-keyboard-response,107,1104097,0.0-13.0-1.19,4372,List1B,black,man,,,,null,,,,
null,are kissing each other,,html-keyboard-response,108,1106102,0.0-13.0-2.19,4372,List1B,black,man,,,,null,,,,
102356,,,survey-text,109,1208463,0.0-13.0-3.19,4372,List1B,black,man,,,,,"{""Q0"":""Jane and Dave are kissing each other ""}","<img src=""stim_listB/kiss4.gif""</stim_listB>",are kissing each other,
15069,"<img src='img/portrait_matrix_list1.JPG' style='width:900px;height:500px;''></img><p>If you have memorised all the portraits and names and are ready to start, press Continue.</p><p><strong>Please note: Your memory of these faces will be tested 4 times during this experiment.</strong></p>",0,html-button-response,110,1223538,0.0-14.0-0.0,4372,List1B,black,man,,,,,,,,
3661,"<img src=""portrait/WM1.jpg""style=""width:400px;height:400px;""></img>",6,html-button-response,111,1228208,0.0-14.0-1.0,4372,List1B,black,man,,TRUE,6,,,,,
null,CORRECT,,html-keyboard-response,112,1229714,0.0-14.0-2.0-0.0,4372,List1B,black,man,,,,null,,,,
2606,"<img src=""portrait/WM2.jpg""style=""width:400px;height:400px;""></img>",7,html-button-response,113,1232329,0.0-14.0-4.0,4372,List1B,black,man,,TRUE,7,,,,,
null,CORRECT,,html-keyboard-response,114,1233839,0.0-14.0-5.0-0.0,4372,List1B,black,man,,,,null,,,,
6293,"<img src=""portrait/BM1.jpg""style=""width:400px;height:400px;""></img>",4,html-button-response,115,1240140,0.0-14.0-7.0,4372,List1B,black,man,,TRUE,4,,,,,
null,CORRECT,,html-keyboard-response,116,1241652,0.0-14.0-8.0-0.0,4372,List1B,black,man,,,,null,,,,
1919,"<img src=""portrait/WW2.jpg""style=""width:400px;height:400px;""></img>",3,html-button-response,117,1243579,0.0-14.0-10.0,4372,List1B,black,man,,TRUE,3,,,,,
null,CORRECT,,html-keyboard-response,118,1245087,0.0-14.0-11.0-0.0,4372,List1B,black,man,,,,null,,,,
3443,"<img src=""portrait/BW1.jpg""style=""width:400px;height:400px;""></img>",1,html-button-response,119,1248539,0.0-14.0-13.0,4372,List1B,black,man,,TRUE,0,,,,,
8991,"<img src=""portrait/BW1.jpg""style=""width:400px;height:400px;""></img>",0,html-button-response,120,1258542,0.0-14.0-15.0-0.0,4372,List1B,black,man,,FALSE,0,,,,,
null,CORRECT,,html-keyboard-response,121,1260053,0.0-14.0-15.0-1.0-0.0,4372,List1B,black,man,,,,null,,,,
3558,"<img src=""portrait/BW2.jpg""style=""width:400px;height:400px;""></img>",2,html-button-response,122,1263621,0.0-14.0-16.0,4372,List1B,black,man,,TRUE,2,,,,,
null,CORRECT,,html-keyboard-response,123,1265129,0.0-14.0-17.0-0.0,4372,List1B,black,man,,,,null,,,,
5028,"<img src=""portrait/BM2.jpg""style=""width:400px;height:400px;""></img>",5,html-button-response,124,1270167,0.0-14.0-19.0,4372,List1B,black,man,,TRUE,5,,,,,
null,CORRECT,,html-keyboard-response,125,1271675,0.0-14.0-20.0-0.0,4372,List1B,black,man,,,,null,,,,
7052,"<img src=""portrait/WW1.jpg""style=""width:400px;height:400px;""></img>",1,html-button-response,126,1278735,0.0-14.0-22.0,4372,List1B,black,man,,TRUE,1,,,,,
null,CORRECT,,html-keyboard-response,127,1280245,0.0-14.0-23.0-0.0,4372,List1B,black,man,,,,null,,,,
2497,<p>You got 7 out of 8 right first time. Press Continue.</p>,0,html-button-response,128,1282750,0.0-14.0-25.0,4372,List1B,black,man,,,,,,,,
4054,"As you did not score 100%, the memory game will repeat. Press Continue.",0,html-button-response,129,1287811,0.0-14.0-26.0-0.0,4372,List1B,black,man,,,,,,,,
11429,"<img src='img/portrait_matrix_list1.JPG' style='width:900px;height:500px;''></img><p>If you have memorised all the portraits and names and are ready to start, press Continue.</p><p><strong>Please note: Your memory of these faces will be tested 4 times during this experiment.</strong></p>",0,html-button-response,130,1300252,0.0-14.1-0.1,4372,List1B,black,man,,,,,,,,
4076,"<img src=""portrait/WM1.jpg""style=""width:400px;height:400px;""></img>",6,html-button-response,131,1305339,0.0-14.1-1.1,4372,List1B,black,man,,TRUE,6,,,,,
null,CORRECT,,html-keyboard-response,132,1306850,0.0-14.1-2.1-0.1,4372,List1B,black,man,,,,null,,,,
3022,"<img src=""portrait/WM2.jpg""style=""width:400px;height:400px;""></img>",7,html-button-response,133,1309881,0.0-14.1-4.1,4372,List1B,black,man,,TRUE,7,,,,,
null,CORRECT,,html-keyboard-response,134,1311389,0.0-14.1-5.1-0.1,4372,List1B,black,man,,,,null,,,,
2509,"<img src=""portrait/BM1.jpg""style=""width:400px;height:400px;""></img>",4,html-button-response,135,1313907,0.0-14.1-7.1,4372,List1B,black,man,,TRUE,4,,,,,
null,CORRECT,,html-keyboard-response,136,1315416,0.0-14.1-8.1-0.1,4372,List1B,black,man,,,,null,,,,
4151,"<img src=""portrait/WW2.jpg""style=""width:400px;height:400px;""></img>",3,html-button-response,137,1319575,0.0-14.1-10.1,4372,List1B,black,man,,TRUE,3,,,,,
null,CORRECT,,html-keyboard-response,138,1321086,0.0-14.1-11.1-0.1,4372,List1B,black,man,,,,null,,,,
5288,"<img src=""portrait/BW1.jpg""style=""width:400px;height:400px;""></img>",0,html-button-response,139,1326382,0.0-14.1-13.1,4372,List1B,black,man,,TRUE,0,,,,,
null,CORRECT,,html-keyboard-response,140,1327893,0.0-14.1-14.1-0.1,4372,List1B,black,man,,,,null,,,,
1848,"<img src=""portrait/BW2.jpg""style=""width:400px;height:400px;""></img>",2,html-button-response,141,1329749,0.0-14.1-16.1,4372,List1B,black,man,,TRUE,2,,,,,
null,CORRECT,,html-keyboard-response,142,1331258,0.0-14.1-17.1-0.1,4372,List1B,black,man,,,,null,,,,
2826,"<img src=""portrait/BM2.jpg""style=""width:400px;height:400px;""></img>",5,html-button-response,143,1334092,0.0-14.1-19.1,4372,List1B,black,man,,TRUE,5,,,,,
null,CORRECT,,html-keyboard-response,144,1335604,0.0-14.1-20.1-0.1,4372,List1B,black,man,,,,null,,,,
4652,"<img src=""portrait/WW1.jpg""style=""width:400px;height:400px;""></img>",1,html-button-response,145,1340264,0.0-14.1-22.1,4372,List1B,black,man,,TRUE,1,,,,,
null,CORRECT,,html-keyboard-response,146,1341776,0.0-14.1-23.1-0.1,4372,List1B,black,man,,,,null,,,,
1924,<p>You got 8 out of 8 right first time. Press Continue.</p>,0,html-button-response,147,1343708,0.0-14.1-25.1,4372,List1B,black,man,,,,,,,,
null,"<div style=""font-size:60px;"">+</div>",,html-keyboard-response,148,1345229,0.0-15.0-0.0,4372,List1B,black,man,,,,null,,,,
null,"<img src=""stim_listB/dance6.gif""</stim_listB>",,html-keyboard-response,149,1347237,0.0-15.0-1.0,4372,List1B,black,man,,,,null,,,,
null,are dancing with each other,,html-keyboard-response,150,1349242,0.0-15.0-2.0,4372,List1B,black,man,,,,null,,,,
32982,,,survey-text,151,1382231,0.0-15.0-3.0,4372,List1B,black,man,,,,,"{""Q0"":""Luke and Mike are dancing with each other ""}","<img src=""stim_listB/dance6.gif""</stim_listB>",are dancing with each other,
null,"<div style=""font-size:60px;"">+</div>",,html-keyboard-response,152,1382739,0.0-15.0-0.1,4372,List1B,black,man,,,,null,,,,
null,"<img src=""stim_listB/hug6.gif""</stim_listB>",,html-keyboard-response,153,1384748,0.0-15.0-1.1,4372,List1B,black,man,,,,null,,,,
null,are hugging each other,,html-keyboard-response,154,1386754,0.0-15.0-2.1,4372,List1B,black,man,,,,null,,,,
19310,,,survey-text,155,1406070,0.0-15.0-3.1,4372,List1B,black,man,,,,,"{""Q0"":""Dave and Mike are hugging each other ""}","<img src=""stim_listB/hug6.gif""</stim_listB>",are hugging each other,
null,"<div style=""font-size:60px;"">+</div>",,html-keyboard-response,156,1406574,0.0-15.0-0.2,4372,List1B,black,man,,,,null,,,,
null,"<img src=""stim_listB/hug1.gif""</stim_listB>",,html-keyboard-response,157,1408579,0.0-15.0-1.2,4372,List1B,black,man,,,,null,,,,
null,is hugging,,html-keyboard-response,158,1410585,0.0-15.0-2.2,4372,List1B,black,man,,,,null,,,,
11654,,,survey-text,159,1422244,0.0-15.0-3.2,4372,List1B,black,man,,,,,"{""Q0"":""Fred is hugging Beth ""}","<img src=""stim_listB/hug1.gif""</stim_listB>",is hugging,
null,"<div style=""font-size:60px;"">+</div>",,html-keyboard-response,160,1422749,0.0-15.0-0.3,4372,List1B,black,man,,,,null,,,,
null,"<img src=""stim_listB/shout6.gif""</stim_listB>",,html-keyboard-response,161,1424756,0.0-15.0-1.3,4372,List1B,black,man,,,,null,,,,
null,are shouting at each other,,html-keyboard-response,162,1426761,0.0-15.0-2.3,4372,List1B,black,man,,,,null,,,,
29656,,,survey-text,163,1456420,0.0-15.0-3.3,4372,List1B,black,man,,,,,"{""Q0"":""Mike and dave are shouting at each other ""}","<img src=""stim_listB/shout6.gif""</stim_listB>",are shouting at each other,
null,"<div style=""font-size:60px;"">+</div>",,html-keyboard-response,164,1456924,0.0-15.0-0.4,4372,List1B,black,man,,,,null,,,,
null,"<img src=""stim_listB/kiss3.gif""</stim_listB>",,html-keyboard-response,165,1458931,0.0-15.0-1.4,4372,List1B,black,man,,,,null,,,,
null,is kissing,,html-keyboard-response,166,1460935,0.0-15.0-2.4,4372,List1B,black,man,,,,null,,,,
31578,,,survey-text,167,1492519,0.0-15.0-3.4,4372,List1B,black,man,,,,,"{""Q0"":""Ruth is kissing Luke""}","<img src=""stim_listB/kiss3.gif""</stim_listB>",is kissing,
null,"<div style=""font-size:60px;"">+</div>",,html-keyboard-response,168,1493024,0.0-15.0-0.5,4372,List1B,black,man,,,,null,,,,
null,"<img src=""stim_listB/talk7.gif""</stim_listB>",,html-keyboard-response,169,1495031,0.0-15.0-1.5,4372,List1B,black,man,,,,null,,,,
null,is talking to,,html-keyboard-response,170,1497035,0.0-15.0-2.5,4372,List1B,black,man,,,,null,,,,
39455,,,survey-text,171,1536496,0.0-15.0-3.5,4372,List1B,black,man,,,,,"{""Q0"":""Jane is pointing at beth""}","<img src=""stim_listB/talk7.gif""</stim_listB>",is talking to,
null,"<div style=""font-size:60px;"">+</div>",,html-keyboard-response,172,1537004,0.0-15.0-0.6,4372,List1B,black,man,,,,null,,,,
null,"<img src=""stim_listB/kiss8.gif""</stim_listB>",,html-keyboard-response,173,1539012,0.0-15.0-1.6,4372,List1B,black,man,,,,null,,,,
null,are kissing each other,,html-keyboard-response,174,1541018,0.0-15.0-2.6,4372,List1B,black,man,,,,null,,,,
37144,,,survey-text,175,1578168,0.0-15.0-3.6,4372,List1B,black,man,,,,,"{""Q0"":""Jane and Kate are kissing each other""}","<img src=""stim_listB/kiss8.gif""</stim_listB>",are kissing each other,
null,"<div style=""font-size:60px;"">+</div>",,html-keyboard-response,176,1578674,0.0-15.0-0.7,4372,List1B,black,man,,,,null,,,,
null,"<img src=""stim_listB/meet4.gif""</stim_listB>",,html-keyboard-response,177,1580682,0.0-15.0-1.7,4372,List1B,black,man,,,,null,,,,
null,are meeting each other,,html-keyboard-response,178,1582686,0.0-15.0-2.7,4372,List1B,black,man,,,,null,,,,
13536,,,survey-text,179,1596226,0.0-15.0-3.7,4372,List1B,black,man,,,,,"{""Q0"":""Luke and ruth are meeting each other ""}","<img src=""stim_listB/meet4.gif""</stim_listB>",are meeting each other,
null,"<div style=""font-size:60px;"">+</div>",,html-keyboard-response,180,1596732,0.0-15.0-0.8,4372,List1B,black,man,,,,null,,,,
null,"<img src=""stim_listB/fight3.gif""</stim_listB>",,html-keyboard-response,181,1598739,0.0-15.0-1.8,4372,List1B,black,man,,,,null,,,,
null,is fighting,,html-keyboard-response,182,1600746,0.0-15.0-2.8,4372,List1B,black,man,,,,null,,,,
11390,,,survey-text,183,1612144,0.0-15.0-3.8,4372,List1B,black,man,,,,,"{""Q0"":""Dave is fighting Jane""}","<img src=""stim_listB/fight3.gif""</stim_listB>",is fighting,
null,"<div style=""font-size:60px;"">+</div>",,html-keyboard-response,184,1612650,0.0-15.0-0.9,4372,List1B,black,man,,,,null,,,,
null,"<img src=""stim_listB/hug8.gif""</stim_listB>",,html-keyboard-response,185,1614657,0.0-15.0-1.9,4372,List1B,black,man,,,,null,,,,
null,are hugging each other,,html-keyboard-response,186,1616663,0.0-15.0-2.9,4372,List1B,black,man,,,,null,,,,
10984,,,survey-text,187,1627653,0.0-15.0-3.9,4372,List1B,black,man,,,,,"{""Q0"":""Kate and Jane are hugging each other ""}","<img src=""stim_listB/hug8.gif""</stim_listB>",are hugging each other,
null,"<div style=""font-size:60px;"">+</div>",,html-keyboard-response,188,1628158,0.0-15.0-0.10,4372,List1B,black,man,,,,null,,,,
null,"<img src=""stim_listB/argue7.gif""</stim_listB>",,html-keyboard-response,189,1630166,0.0-15.0-1.10,4372,List1B,black,man,,,,null,,,,
null,is arguing with,,html-keyboard-response,190,1632172,0.0-15.0-2.10,4372,List1B,black,man,,,,null,,,,
12790,,,survey-text,191,1644970,0.0-15.0-3.10,4372,List1B,black,man,,,,,"{""Q0"":""Kate is arguing with ruth""}","<img src=""stim_listB/argue7.gif""</stim_listB>",is arguing with,
null,"<div style=""font-size:60px;"">+</div>",,html-keyboard-response,192,1645476,0.0-15.0-0.11,4372,List1B,black,man,,,,null,,,,
null,"<img src=""stim_listB/talk1.gif""</stim_listB>",,html-keyboard-response,193,1647485,0.0-15.0-1.11,4372,List1B,black,man,,,,null,,,,
null,is talking to,,html-keyboard-response,194,1649490,0.0-15.0-2.11,4372,List1B,black,man,,,,null,,,,
8671,,,survey-text,195,1658169,0.0-15.0-3.11,4372,List1B,black,man,,,,,"{""Q0"":""Fred is talking to kate""}","<img src=""stim_listB/talk1.gif""</stim_listB>",is talking to,
null,"<div style=""font-size:60px;"">+</div>",,html-keyboard-response,196,1658677,0.0-15.0-0.12,4372,List1B,black,man,,,,null,,,,
null,"<img src=""stim_listB/meet1.gif""</stim_listB>",,html-keyboard-response,197,1660684,0.0-15.0-1.12,4372,List1B,black,man,,,,null,,,,
null,is meeting,,html-keyboard-response,198,1662689,0.0-15.0-2.12,4372,List1B,black,man,,,,null,,,,
18556,,,survey-text,199,1681250,0.0-15.0-3.12,4372,List1B,black,man,,,,,"{""Q0"":""Mike is meeting kate""}","<img src=""stim_listB/meet1.gif""</stim_listB>",is meeting,
null,"<div style=""font-size:60px;"">+</div>",,html-keyboard-response,200,1681756,0.0-15.0-0.13,4372,List1B,black,man,,,,null,,,,
null,"<img src=""stim_listB/marry4.gif""</stim_listB>",,html-keyboard-response,201,1683763,0.0-15.0-1.13,4372,List1B,black,man,,,,null,,,,
null,are marrying each other,,html-keyboard-response,202,1685768,0.0-15.0-2.13,4372,List1B,black,man,,,,null,,,,
18376,,,survey-text,203,1704150,0.0-15.0-3.13,4372,List1B,black,man,,,,,"{""Q0"":""Luke and Jane are marrying each other ""}","<img src=""stim_listB/marry4.gif""</stim_listB>",are marrying each other,
null,"<div style=""font-size:60px;"">+</div>",,html-keyboard-response,204,1704653,0.0-15.0-0.14,4372,List1B,black,man,,,,null,,,,
null,"<img src=""stim_listB/meet6.gif""</stim_listB>",,html-keyboard-response,205,1706662,0.0-15.0-1.14,4372,List1B,black,man,,,,null,,,,
null,are meeting each other,,html-keyboard-response,206,1708668,0.0-15.0-2.14,4372,List1B,black,man,,,,null,,,,
10209,,,survey-text,207,1718884,0.0-15.0-3.14,4372,List1B,black,man,,,,,"{""Q0"":""Luke and fred are meeting each other ""}","<img src=""stim_listB/meet6.gif""</stim_listB>",are meeting each other,
null,"<div style=""font-size:60px;"">+</div>",,html-keyboard-response,208,1719389,0.0-15.0-0.15,4372,List1B,black,man,,,,null,,,,
null,"<img src=""stim_listB/meet8.gif""</stim_listB>",,html-keyboard-response,209,1721397,0.0-15.0-1.15,4372,List1B,black,man,,,,null,,,,
null,are meeting each other,,html-keyboard-response,210,1723403,0.0-15.0-2.15,4372,List1B,black,man,,,,null,,,,
12745,,,survey-text,211,1736155,0.0-15.0-3.15,4372,List1B,black,man,,,,,"{""Q0"":""Ruth and Beth are meeting each other ""}","<img src=""stim_listB/meet8.gif""</stim_listB>",are meeting each other,
null,"<div style=""font-size:60px;"">+</div>",,html-keyboard-response,212,1736661,0.0-15.0-0.16,4372,List1B,black,man,,,,null,,,,
null,"<img src=""stim_listB/shout4.gif""</stim_listB>",,html-keyboard-response,213,1738669,0.0-15.0-1.16,4372,List1B,black,man,,,,null,,,,
null,are shouting at each other,,html-keyboard-response,214,1740674,0.0-15.0-2.16,4372,List1B,black,man,,,,null,,,,
12455,,,survey-text,215,1753136,0.0-15.0-3.16,4372,List1B,black,man,,,,,"{""Q0"":""Jane and Dave are shouting at each other ""}","<img src=""stim_listB/shout4.gif""</stim_listB>",are shouting at each other,
null,"<div style=""font-size:60px;"">+</div>",,html-keyboard-response,216,1753641,0.0-15.0-0.17,4372,List1B,black,man,,,,null,,,,
null,"<img src=""stim_listB/fight6.gif""</stim_listB>",,html-keyboard-response,217,1755648,0.0-15.0-1.17,4372,List1B,black,man,,,,null,,,,
null,are fighting each other,,html-keyboard-response,218,1757652,0.0-15.0-2.17,4372,List1B,black,man,,,,null,,,,
14852,,,survey-text,219,1772512,0.0-15.0-3.17,4372,List1B,black,man,,,,,"{""Q0"":""Fred and Luke are fighting each other ""}","<img src=""stim_listB/fight6.gif""</stim_listB>",are fighting each other,
null,"<div style=""font-size:60px;"">+</div>",,html-keyboard-response,220,1773017,0.0-15.0-0.18,4372,List1B,black,man,,,,null,,,,
null,"<img src=""stim_listB/meet5.gif""</stim_listB>",,html-keyboard-response,221,1775026,0.0-15.0-1.18,4372,List1B,black,man,,,,null,,,,
null,is meeting,,html-keyboard-response,222,1777031,0.0-15.0-2.18,4372,List1B,black,man,,,,null,,,,
10819,,,survey-text,223,1787858,0.0-15.0-3.18,4372,List1B,black,man,,,,,"{""Q0"":""Dave is meeting Mike ""}","<img src=""stim_listB/meet5.gif""</stim_listB>",is meeting,
null,"<div style=""font-size:60px;"">+</div>",,html-keyboard-response,224,1788365,0.0-15.0-0.19,4372,List1B,black,man,,,,null,,,,
null,"<img src=""stim_listB/shout7.gif""</stim_listB>",,html-keyboard-response,225,1790373,0.0-15.0-1.19,4372,List1B,black,man,,,,null,,,,
null,is shouting at,,html-keyboard-response,226,1792379,0.0-15.0-2.19,4372,List1B,black,man,,,,null,,,,
11784,,,survey-text,227,1804170,0.0-15.0-3.19,4372,List1B,black,man,,,,,"{""Q0"":""Ruth is shouting at Beth ""}","<img src=""stim_listB/shout7.gif""</stim_listB>",is shouting at,
36880,"<img src='img/portrait_matrix_list1.JPG' style='width:900px;height:500px;''></img><p>If you have memorised all the portraits and names and are ready to start, press Continue.</p><p><strong>Please note: Your memory of these faces will be tested 4 times during this experiment.</strong></p>",0,html-button-response,228,1841059,0.0-16.0-0.0,4372,List1B,black,man,,,,,,,,
5253,"<img src=""portrait/WW1.jpg""style=""width:400px;height:400px;""></img>",1,html-button-response,229,1847326,0.0-16.0-1.0,4372,List1B,black,man,,TRUE,1,,,,,
null,CORRECT,,html-keyboard-response,230,1848834,0.0-16.0-2.0-0.0,4372,List1B,black,man,,,,null,,,,
3088,"<img src=""portrait/BM2.jpg""style=""width:400px;height:400px;""></img>",5,html-button-response,231,1851932,0.0-16.0-4.0,4372,List1B,black,man,,TRUE,5,,,,,
null,CORRECT,,html-keyboard-response,232,1853439,0.0-16.0-5.0-0.0,4372,List1B,black,man,,,,null,,,,
2716,"<img src=""portrait/BW1.jpg""style=""width:400px;height:400px;""></img>",0,html-button-response,233,1856163,0.0-16.0-7.0,4372,List1B,black,man,,TRUE,0,,,,,
null,CORRECT,,html-keyboard-response,234,1857668,0.0-16.0-8.0-0.0,4372,List1B,black,man,,,,null,,,,
2163,"<img src=""portrait/WW2.jpg""style=""width:400px;height:400px;""></img>",3,html-button-response,235,1859839,0.0-16.0-10.0,4372,List1B,black,man,,TRUE,3,,,,,
null,CORRECT,,html-keyboard-response,236,1861346,0.0-16.0-11.0-0.0,4372,List1B,black,man,,,,null,,,,
5173,"<img src=""portrait/BM1.jpg""style=""width:400px;height:400px;""></img>",4,html-button-response,237,1866528,0.0-16.0-13.0,4372,List1B,black,man,,TRUE,4,,,,,
null,CORRECT,,html-keyboard-response,238,1868036,0.0-16.0-14.0-0.0,4372,List1B,black,man,,,,null,,,,
3472,"<img src=""portrait/WM1.jpg""style=""width:400px;height:400px;""></img>",6,html-button-response,239,1871517,0.0-16.0-16.0,4372,List1B,black,man,,TRUE,6,,,,,
null,CORRECT,,html-keyboard-response,240,1873027,0.0-16.0-17.0-0.0,4372,List1B,black,man,,,,null,,,,
2670,"<img src=""portrait/WM2.jpg""style=""width:400px;height:400px;""></img>",7,html-button-response,241,1875716,0.0-16.0-19.0,4372,List1B,black,man,,TRUE,7,,,,,
null,CORRECT,,html-keyboard-response,242,1877225,0.0-16.0-20.0-0.0,4372,List1B,black,man,,,,null,,,,
2350,"<img src=""portrait/BW2.jpg""style=""width:400px;height:400px;""></img>",2,html-button-response,243,1879581,0.0-16.0-22.0,4372,List1B,black,man,,TRUE,2,,,,,
null,CORRECT,,html-keyboard-response,244,1881089,0.0-16.0-23.0-0.0,4372,List1B,black,man,,,,null,,,,
2249,<p>You got 8 out of 8 right first time. Press Continue.</p>,0,html-button-response,245,1883346,0.0-16.0-25.0,4372,List1B,black,man,,,,,,,,
null,"<div style=""font-size:60px;"">+</div>",,html-keyboard-response,246,1884855,0.0-17.0-0.0,4372,List1B,black,man,,,,null,,,,
null,"<img src=""stim_listB/hug3.gif""</stim_listB>",,html-keyboard-response,247,1886863,0.0-17.0-1.0,4372,List1B,black,man,,,,null,,,,
null,is hugging,,html-keyboard-response,248,1888870,0.0-17.0-2.0,4372,List1B,black,man,,,,null,,,,
15538,,,survey-text,249,1904414,0.0-17.0-3.0,4372,List1B,black,man,,,,,"{""Q0"":""Luke is hugging Ruth""}","<img src=""stim_listB/hug3.gif""</stim_listB>",is hugging,
null,"<div style=""font-size:60px;"">+</div>",,html-keyboard-response,250,1904918,0.0-17.0-0.1,4372,List1B,black,man,,,,null,,,,
null,"<img src=""stim_listB/dance2.gif""</stim_listB>",,html-keyboard-response,251,1906926,0.0-17.0-1.1,4372,List1B,black,man,,,,null,,,,
null,are dancing with each other,,html-keyboard-response,252,1908932,0.0-17.0-2.1,4372,List1B,black,man,,,,null,,,,
14485,,,survey-text,253,1923424,0.0-17.0-3.1,4372,List1B,black,man,,,,,"{""Q0"":""Mike and Beth are dancing with each other ""}","<img src=""stim_listB/dance2.gif""</stim_listB>",are dancing with each other,
null,"<div style=""font-size:60px;"">+</div>",,html-keyboard-response,254,1923931,0.0-17.0-0.2,4372,List1B,black,man,,,,null,,,,
null,"<img src=""stim_listB/argue6.gif""</stim_listB>",,html-keyboard-response,255,1925939,0.0-17.0-1.2,4372,List1B,black,man,,,,null,,,,
null,are arguing with each other,,html-keyboard-response,256,1927944,0.0-17.0-2.2,4372,List1B,black,man,,,,null,,,,
13609,,,survey-text,257,1941560,0.0-17.0-3.2,4372,List1B,black,man,,,,,"{""Q0"":""Fred and Dave are arguing with each other ""}","<img src=""stim_listB/argue6.gif""</stim_listB>",are arguing with each other,
null,"<div style=""font-size:60px;"">+</div>",,html-keyboard-response,258,1942068,0.0-17.0-0.3,4372,List1B,black,man,,,,null,,,,
null,"<img src=""stim_listB/hug4.gif""</stim_listB>",,html-keyboard-response,259,1944076,0.0-17.0-1.3,4372,List1B,black,man,,,,null,,,,
null,are hugging each other,,html-keyboard-response,260,1946082,0.0-17.0-2.3,4372,List1B,black,man,,,,null,,,,
11314,,,survey-text,261,1957402,0.0-17.0-3.3,4372,List1B,black,man,,,,,"{""Q0"":""Dave and Jane are hugging each other ""}","<img src=""stim_listB/hug4.gif""</stim_listB>",are hugging each other,
null,"<div style=""font-size:60px;"">+</div>",,html-keyboard-response,262,1957908,0.0-17.0-0.4,4372,List1B,black,man,,,,null,,,,
null,"<img src=""stim_listB/talk4.gif""</stim_listB>",,html-keyboard-response,263,1959915,0.0-17.0-1.4,4372,List1B,black,man,,,,null,,,,
null,are talking to each other,,html-keyboard-response,264,1961921,0.0-17.0-2.4,4372,List1B,black,man,,,,null,,,,
11653,,,survey-text,265,1973581,0.0-17.0-3.4,4372,List1B,black,man,,,,,"{""Q0"":""Dave and ruth are talking to each other ""}","<img src=""stim_listB/talk4.gif""</stim_listB>",are talking to each other,
null,"<div style=""font-size:60px;"">+</div>",,html-keyboard-response,266,1974089,0.0-17.0-0.5,4372,List1B,black,man,,,,null,,,,
null,"<img src=""stim_listB/fight8.gif""</stim_listB>",,html-keyboard-response,267,1976097,0.0-17.0-1.5,4372,List1B,black,man,,,,null,,,,
null,are fighting each other,,html-keyboard-response,268,1978102,0.0-17.0-2.5,4372,List1B,black,man,,,,null,,,,
13344,,,survey-text,269,1991453,0.0-17.0-3.5,4372,List1B,black,man,,,,,"{""Q0"":""Ruth and Beth are fighting each other ""}","<img src=""stim_listB/fight8.gif""</stim_listB>",are fighting each other,
null,"<div style=""font-size:60px;"">+</div>",,html-keyboard-response,270,1991960,0.0-17.0-0.6,4372,List1B,black,man,,,,null,,,,
null,"<img src=""stim_listB/shout8.gif""</stim_listB>",,html-keyboard-response,271,1993968,0.0-17.0-1.6,4372,List1B,black,man,,,,null,,,,
null,are shouting at each other,,html-keyboard-response,272,1995974,0.0-17.0-2.6,4372,List1B,black,man,,,,null,,,,
12427,,,survey-text,273,2008407,0.0-17.0-3.6,4372,List1B,black,man,,,,,"{""Q0"":""Kate and Jane are shouting at each other ""}","<img src=""stim_listB/shout8.gif""</stim_listB>",are shouting at each other,
null,"<div style=""font-size:60px;"">+</div>",,html-keyboard-response,274,2008914,0.0-17.0-0.7,4372,List1B,black,man,,,,null,,,,
null,"<img src=""stim_listB/touch2.gif""</stim_listB>",,html-keyboard-response,275,2010921,0.0-17.0-1.7,4372,List1B,black,man,,,,null,,,,
null,are touching each other,,html-keyboard-response,276,2012927,0.0-17.0-2.7,4372,List1B,black,man,,,,null,,,,
19966,,,survey-text,277,2032900,0.0-17.0-3.7,4372,List1B,black,man,,,,,"{""Q0"":""Fred and Beth are touching each other""}","<img src=""stim_listB/touch2.gif""</stim_listB>",are touching each other,
null,"<div style=""font-size:60px;"">+</div>",,html-keyboard-response,278,2033408,0.0-17.0-0.8,4372,List1B,black,man,,,,null,,,,
null,"<img src=""stim_listB/touch6.gif""</stim_listB>",,html-keyboard-response,279,2035416,0.0-17.0-1.8,4372,List1B,black,man,,,,null,,,,
null,are touching each other,,html-keyboard-response,280,2037422,0.0-17.0-2.8,4372,List1B,black,man,,,,null,,,,
12341,,,survey-text,281,2049770,0.0-17.0-3.8,4372,List1B,black,man,,,,,"{""Q0"":""Fred and Luke are touching each other ""}","<img src=""stim_listB/touch6.gif""</stim_listB>",are touching each other,
null,"<div style=""font-size:60px;"">+</div>",,html-keyboard-response,282,2050277,0.0-17.0-0.9,4372,List1B,black,man,,,,null,,,,
null,"<img src=""stim_listB/touch8.gif""</stim_listB>",,html-keyboard-response,283,2052285,0.0-17.0-1.9,4372,List1B,black,man,,,,null,,,,
null,are touching each other,,html-keyboard-response,284,2054291,0.0-17.0-2.9,4372,List1B,black,man,,,,null,,,,
11398,,,survey-text,285,2065695,0.0-17.0-3.9,4372,List1B,black,man,,,,,"{""Q0"":""Ruth and Beth are touching each other ""}","<img src=""stim_listB/touch8.gif""</stim_listB>",are touching each other,
null,"<div style=""font-size:60px;"">+</div>",,html-keyboard-response,286,2066202,0.0-17.0-0.10,4372,List1B,black,man,,,,null,,,,
null,"<img src=""stim_listB/kiss7.gif""</stim_listB>",,html-keyboard-response,287,2068209,0.0-17.0-1.10,4372,List1B,black,man,,,,null,,,,
null,is kissing,,html-keyboard-response,288,2070212,0.0-17.0-2.10,4372,List1B,black,man,,,,null,,,,
10345,,,survey-text,289,2080562,0.0-17.0-3.10,4372,List1B,black,man,,,,,"{""Q0"":""Ruth is kissing beth""}","<img src=""stim_listB/kiss7.gif""</stim_listB>",is kissing,
null,"<div style=""font-size:60px;"">+</div>",,html-keyboard-response,290,2081066,0.0-17.0-0.11,4372,List1B,black,man,,,,null,,,,
null,"<img src=""stim_listB/talk2.gif""</stim_listB>",,html-keyboard-response,291,2083074,0.0-17.0-1.11,4372,List1B,black,man,,,,null,,,,
null,are talking to each other,,html-keyboard-response,292,2085079,0.0-17.0-2.11,4372,List1B,black,man,,,,null,,,,
13598,,,survey-text,293,2098682,0.0-17.0-3.11,4372,List1B,black,man,,,,,"{""Q0"":""Mike and Beth are talking to each other ""}","<img src=""stim_listB/talk2.gif""</stim_listB>",are talking to each other,
null,"<div style=""font-size:60px;"">+</div>",,html-keyboard-response,294,2099187,0.0-17.0-0.12,4372,List1B,black,man,,,,null,,,,
null,"<img src=""stim_listB/touch1.gif""</stim_listB>",,html-keyboard-response,295,2101195,0.0-17.0-1.12,4372,List1B,black,man,,,,null,,,,
null,is touching,,html-keyboard-response,296,2103200,0.0-17.0-2.12,4372,List1B,black,man,,,,null,,,,
30172,,,survey-text,297,2133379,0.0-17.0-3.12,4372,List1B,black,man,,,,,"{""Q0"":""Kate is touching Mike ""}","<img src=""stim_listB/touch1.gif""</stim_listB>",is touching,
null,"<div style=""font-size:60px;"">+</div>",,html-keyboard-response,298,2133886,0.0-17.0-0.13,4372,List1B,black,man,,,,null,,,,
null,"<img src=""stim_listB/meet7.gif""</stim_listB>",,html-keyboard-response,299,2135893,0.0-17.0-1.13,4372,List1B,black,man,,,,null,,,,
null,is meeting,,html-keyboard-response,300,2137898,0.0-17.0-2.13,4372,List1B,black,man,,,,null,,,,
12080,,,survey-text,301,2149985,0.0-17.0-3.13,4372,List1B,black,man,,,,,"{""Q0"":""Kate is meeting Jane""}","<img src=""stim_listB/meet7.gif""</stim_listB>",is meeting,
null,"<div style=""font-size:60px;"">+</div>",,html-keyboard-response,302,2150491,0.0-17.0-0.14,4372,List1B,black,man,,,,null,,,,
null,"<img src=""stim_listB/hug5.gif""</stim_listB>",,html-keyboard-response,303,2152499,0.0-17.0-1.14,4372,List1B,black,man,,,,null,,,,
null,is hugging,,html-keyboard-response,304,2154504,0.0-17.0-2.14,4372,List1B,black,man,,,,null,,,,
9092,,,survey-text,305,2163601,0.0-17.0-3.14,4372,List1B,black,man,,,,,"{""Q0"":""Fred is hugging Luke""}","<img src=""stim_listB/hug5.gif""</stim_listB>",is hugging,
null,"<div style=""font-size:60px;"">+</div>",,html-keyboard-response,306,2164106,0.0-17.0-0.15,4372,List1B,black,man,,,,null,,,,
null,"<img src=""stim_listB/hug2.gif""</stim_listB>",,html-keyboard-response,307,2166114,0.0-17.0-1.15,4372,List1B,black,man,,,,null,,,,
null,are hugging each other,,html-keyboard-response,308,2168120,0.0-17.0-2.15,4372,List1B,black,man,,,,null,,,,
10038,,,survey-text,309,2178165,0.0-17.0-3.15,4372,List1B,black,man,,,,,"{""Q0"":""Kate and Mike are hugging each other ""}","<img src=""stim_listB/hug2.gif""</stim_listB>",are hugging each other,
null,"<div style=""font-size:60px;"">+</div>",,html-keyboard-response,310,2178673,0.0-17.0-0.16,4372,List1B,black,man,,,,null,,,,
null,"<img src=""stim_listB/fight1.gif""</stim_listB>",,html-keyboard-response,311,2180681,0.0-17.0-1.16,4372,List1B,black,man,,,,null,,,,
null,is fighting,,html-keyboard-response,312,2182687,0.0-17.0-2.16,4372,List1B,black,man,,,,null,,,,
9185,,,survey-text,313,2191880,0.0-17.0-3.16,4372,List1B,black,man,,,,,"{""Q0"":""Kate is fighting Mike""}","<img src=""stim_listB/fight1.gif""</stim_listB>",is fighting,
null,"<div style=""font-size:60px;"">+</div>",,html-keyboard-response,314,2192388,0.0-17.0-0.17,4372,List1B,black,man,,,,null,,,,
null,"<img src=""stim_listB/meet2.gif""</stim_listB>",,html-keyboard-response,315,2194394,0.0-17.0-1.17,4372,List1B,black,man,,,,null,,,,
null,are meeting each other,,html-keyboard-response,316,2196397,0.0-17.0-2.17,4372,List1B,black,man,,,,null,,,,
10935,,,survey-text,317,2207339,0.0-17.0-3.17,4372,List1B,black,man,,,,,"{""Q0"":""Fred and Beth are meeting each other ""}","<img src=""stim_listB/meet2.gif""</stim_listB>",are meeting each other,
null,"<div style=""font-size:60px;"">+</div>",,html-keyboard-response,318,2207848,0.0-17.0-0.18,4372,List1B,black,man,,,,null,,,,
null,"<img src=""stim_listB/marry7.gif""</stim_listB>",,html-keyboard-response,319,2209856,0.0-17.0-1.18,4372,List1B,black,man,,,,null,,,,
null,is marrying,,html-keyboard-response,320,2211862,0.0-17.0-2.18,4372,List1B,black,man,,,,null,,,,
9222,,,survey-text,321,2221092,0.0-17.0-3.18,4372,List1B,black,man,,,,,"{""Q0"":""Ruth is marrying Kate""}","<img src=""stim_listB/marry7.gif""</stim_listB>",is marrying,
null,"<div style=""font-size:60px;"">+</div>",,html-keyboard-response,322,2221600,0.0-17.0-0.19,4372,List1B,black,man,,,,null,,,,
null,"<img src=""stim_listB/argue2.gif""</stim_listB>",,html-keyboard-response,323,2223619,0.0-17.0-1.19,4372,List1B,black,man,,,,null,,,,
null,are arguing with each other,,html-keyboard-response,324,2225627,0.0-17.0-2.19,4372,List1B,black,man,,,,null,,,,
11367,,,survey-text,325,2237001,0.0-17.0-3.19,4372,List1B,black,man,,,,,"{""Q0"":""Fred and Katevare arguing with each other ""}","<img src=""stim_listB/argue2.gif""</stim_listB>",are arguing with each other,
11562,"<img src='img/portrait_matrix_list1.JPG' style='width:900px;height:500px;''></img><p>If you have memorised all the portraits and names and are ready to start, press Continue.</p><p><strong>Please note: Your memory of these faces will be tested 4 times during this experiment.</strong></p>",0,html-button-response,326,2248570,0.0-18.0-0.0,4372,List1B,black,man,,,,,,,,
10398,"<img src=""portrait/WW1.jpg""style=""width:400px;height:400px;""></img>",1,html-button-response,327,2259978,0.0-18.0-1.0,4372,List1B,black,man,,TRUE,1,,,,,
null,CORRECT,,html-keyboard-response,328,2261488,0.0-18.0-2.0-0.0,4372,List1B,black,man,,,,null,,,,
2669,"<img src=""portrait/WW2.jpg""style=""width:400px;height:400px;""></img>",3,html-button-response,329,2264166,0.0-18.0-4.0,4372,List1B,black,man,,TRUE,3,,,,,
null,CORRECT,,html-keyboard-response,330,2265677,0.0-18.0-5.0-0.0,4372,List1B,black,man,,,,null,,,,
2850,"<img src=""portrait/BM1.jpg""style=""width:400px;height:400px;""></img>",4,html-button-response,331,2268536,0.0-18.0-7.0,4372,List1B,black,man,,TRUE,4,,,,,
null,CORRECT,,html-keyboard-response,332,2270045,0.0-18.0-8.0-0.0,4372,List1B,black,man,,,,null,,,,
8024,"<img src=""portrait/WM1.jpg""style=""width:400px;height:400px;""></img>",6,html-button-response,333,2278078,0.0-18.0-10.0,4372,List1B,black,man,,TRUE,6,,,,,
null,CORRECT,,html-keyboard-response,334,2279587,0.0-18.0-11.0-0.0,4372,List1B,black,man,,,,null,,,,
3489,"<img src=""portrait/WM2.jpg""style=""width:400px;height:400px;""></img>",7,html-button-response,335,2283086,0.0-18.0-13.0,4372,List1B,black,man,,TRUE,7,,,,,
null,CORRECT,,html-keyboard-response,336,2284596,0.0-18.0-14.0-0.0,4372,List1B,black,man,,,,null,,,,
3194,"<img src=""portrait/BW1.jpg""style=""width:400px;height:400px;""></img>",0,html-button-response,337,2287797,0.0-18.0-16.0,4372,List1B,black,man,,TRUE,0,,,,,
null,CORRECT,,html-keyboard-response,338,2289307,0.0-18.0-17.0-0.0,4372,List1B,black,man,,,,null,,,,
3187,"<img src=""portrait/BM2.jpg""style=""width:400px;height:400px;""></img>",5,html-button-response,339,2292502,0.0-18.0-19.0,4372,List1B,black,man,,TRUE,5,,,,,
null,CORRECT,,html-keyboard-response,340,2294010,0.0-18.0-20.0-0.0,4372,List1B,black,man,,,,null,,,,
3602,"<img src=""portrait/BW2.jpg""style=""width:400px;height:400px;""></img>",2,html-button-response,341,2297623,0.0-18.0-22.0,4372,List1B,black,man,,TRUE,2,,,,,
null,CORRECT,,html-keyboard-response,342,2299135,0.0-18.0-23.0-0.0,4372,List1B,black,man,,,,null,,,,
2594,<p>You got 8 out of 8 right first time. Press Continue.</p>,0,html-button-response,343,2301736,0.0-18.0-25.0,4372,List1B,black,man,,,,,,,,
null,"<div style=""font-size:60px;"">+</div>",,html-keyboard-response,344,2303249,0.0-19.0-0.0,4372,List1B,black,man,,,,null,,,,
null,"<img src=""stim_listB/talk8.gif""</stim_listB>",,html-keyboard-response,345,2305257,0.0-19.0-1.0,4372,List1B,black,man,,,,null,,,,
null,are talking to each other,,html-keyboard-response,346,2307265,0.0-19.0-2.0,4372,List1B,black,man,,,,null,,,,
14716,,,survey-text,347,2321990,0.0-19.0-3.0,4372,List1B,black,man,,,,,"{""Q0"":""Jane and Ruth are talking to each other ""}","<img src=""stim_listB/talk8.gif""</stim_listB>",are talking to each other,
null,"<div style=""font-size:60px;"">+</div>",,html-keyboard-response,348,2322496,0.0-19.0-0.1,4372,List1B,black,man,,,,null,,,,
null,"<img src=""stim_listB/dance8.gif""</stim_listB>",,html-keyboard-response,349,2324503,0.0-19.0-1.1,4372,List1B,black,man,,,,null,,,,
null,are dancing with each other,,html-keyboard-response,350,2326507,0.0-19.0-2.1,4372,List1B,black,man,,,,null,,,,
15607,,,survey-text,351,2342120,0.0-19.0-3.1,4372,List1B,black,man,,,,,"{""Q0"":""Jane and Ruth are dancing with each other ""}","<img src=""stim_listB/dance8.gif""</stim_listB>",are dancing with each other,
null,"<div style=""font-size:60px;"">+</div>",,html-keyboard-response,352,2342626,0.0-19.0-0.2,4372,List1B,black,man,,,,null,,,,
null,"<img src=""stim_listB/dance3.gif""</stim_listB>",,html-keyboard-response,353,2344632,0.0-19.0-1.2,4372,List1B,black,man,,,,null,,,,
null,is dancing with,,html-keyboard-response,354,2346636,0.0-19.0-2.2,4372,List1B,black,man,,,,null,,,,
9495,,,survey-text,355,2356137,0.0-19.0-3.2,4372,List1B,black,man,,,,,"{""Q0"":""Jane is dancing with Luke""}","<img src=""stim_listB/dance3.gif""</stim_listB>",is dancing with,
null,"<div style=""font-size:60px;"">+</div>",,html-keyboard-response,356,2356643,0.0-19.0-0.3,4372,List1B,black,man,,,,null,,,,
null,"<img src=""stim_listB/talk3.gif""</stim_listB>",,html-keyboard-response,357,2358651,0.0-19.0-1.3,4372,List1B,black,man,,,,null,,,,
null,is talking to,,html-keyboard-response,358,2360658,0.0-19.0-2.3,4372,List1B,black,man,,,,null,,,,
8229,,,survey-text,359,2368894,0.0-19.0-3.3,4372,List1B,black,man,,,,,"{""Q0"":""Jane is talking to Luke ""}","<img src=""stim_listB/talk3.gif""</stim_listB>",is talking to,
null,"<div style=""font-size:60px;"">+</div>",,html-keyboard-response,360,2369400,0.0-19.0-0.4,4372,List1B,black,man,,,,null,,,,
null,"<img src=""stim_listB/fight7.gif""</stim_listB>",,html-keyboard-response,361,2371406,0.0-19.0-1.4,4372,List1B,black,man,,,,null,,,,
null,is fighting,,html-keyboard-response,362,2373410,0.0-19.0-2.4,4372,List1B,black,man,,,,null,,,,
8232,,,survey-text,363,2381649,0.0-19.0-3.4,4372,List1B,black,man,,,,,"{""Q0"":""Jane is fighting Kate ""}","<img src=""stim_listB/fight7.gif""</stim_listB>",is fighting,
null,"<div style=""font-size:60px;"">+</div>",,html-keyboard-response,364,2382156,0.0-19.0-0.5,4372,List1B,black,man,,,,null,,,,
null,"<img src=""stim_listB/touch7.gif""</stim_listB>",,html-keyboard-response,365,2384164,0.0-19.0-1.5,4372,List1B,black,man,,,,null,,,,
null,is touching,,html-keyboard-response,366,2386169,0.0-19.0-2.5,4372,List1B,black,man,,,,null,,,,
10745,,,survey-text,367,2396921,0.0-19.0-3.5,4372,List1B,black,man,,,,,"{""Q0"":""Jane is touching Kate ""}","<img src=""stim_listB/touch7.gif""</stim_listB>",is touching,
null,"<div style=""font-size:60px;"">+</div>",,html-keyboard-response,368,2397428,0.0-19.0-0.6,4372,List1B,black,man,,,,null,,,,
null,"<img src=""stim_listB/marry2.gif""</stim_listB>",,html-keyboard-response,369,2399436,0.0-19.0-1.6,4372,List1B,black,man,,,,null,,,,
null,are marrying each other,,html-keyboard-response,370,2401442,0.0-19.0-2.6,4372,List1B,black,man,,,,null,,,,
12959,,,survey-text,371,2414407,0.0-19.0-3.6,4372,List1B,black,man,,,,,"{""Q0"":""Fred and Kate are marrying each other ""}","<img src=""stim_listB/marry2.gif""</stim_listB>",are marrying each other,
null,"<div style=""font-size:60px;"">+</div>",,html-keyboard-response,372,2414911,0.0-19.0-0.7,4372,List1B,black,man,,,,null,,,,
null,"<img src=""stim_listB/talk5.gif""</stim_listB>",,html-keyboard-response,373,2416921,0.0-19.0-1.7,4372,List1B,black,man,,,,null,,,,
null,is talking to,,html-keyboard-response,374,2418927,0.0-19.0-2.7,4372,List1B,black,man,,,,null,,,,
8428,,,survey-text,375,2427362,0.0-19.0-3.7,4372,List1B,black,man,,,,,"{""Q0"":""Fred is talking to Dave""}","<img src=""stim_listB/talk5.gif""</stim_listB>",is talking to,
null,"<div style=""font-size:60px;"">+</div>",,html-keyboard-response,376,2427868,0.0-19.0-0.8,4372,List1B,black,man,,,,null,,,,
null,"<img src=""stim_listB/fight5.gif""</stim_listB>",,html-keyboard-response,377,2429873,0.0-19.0-1.8,4372,List1B,black,man,,,,null,,,,
null,is fighting,,html-keyboard-response,378,2431880,0.0-19.0-2.8,4372,List1B,black,man,,,,null,,,,
8000,,,survey-text,379,2439888,0.0-19.0-3.8,4372,List1B,black,man,,,,,"{""Q0"":""Dave is fighting Mike ""}","<img src=""stim_listB/fight5.gif""</stim_listB>",is fighting,
null,"<div style=""font-size:60px;"">+</div>",,html-keyboard-response,380,2440397,0.0-19.0-0.9,4372,List1B,black,man,,,,null,,,,
null,"<img src=""stim_listB/fight2.gif""</stim_listB>",,html-keyboard-response,381,2442410,0.0-19.0-1.9,4372,List1B,black,man,,,,null,,,,
null,are fighting each other,,html-keyboard-response,382,2444415,0.0-19.0-2.9,4372,List1B,black,man,,,,null,,,,
10899,,,survey-text,383,2455319,0.0-19.0-3.9,4372,List1B,black,man,,,,,"{""Q0"":""Fred and Beth are fighting each other ""}","<img src=""stim_listB/fight2.gif""</stim_listB>",are fighting each other,
null,"<div style=""font-size:60px;"">+</div>",,html-keyboard-response,384,2455826,0.0-19.0-0.10,4372,List1B,black,man,,,,null,,,,
null,"<img src=""stim_listB/argue4.gif""</stim_listB>",,html-keyboard-response,385,2457834,0.0-19.0-1.10,4372,List1B,black,man,,,,null,,,,
null,are arguing with each other,,html-keyboard-response,386,2459840,0.0-19.0-2.10,4372,List1B,black,man,,,,null,,,,
11631,,,survey-text,387,2471478,0.0-19.0-3.10,4372,List1B,black,man,,,,,"{""Q0"":""Luke and Jane are arguing with each other ""}","<img src=""stim_listB/argue4.gif""</stim_listB>",are arguing with each other,
null,"<div style=""font-size:60px;"">+</div>",,html-keyboard-response,388,2471984,0.0-19.0-0.11,4372,List1B,black,man,,,,null,,,,
null,"<img src=""stim_listB/marry3.gif""</stim_listB>",,html-keyboard-response,389,2473992,0.0-19.0-1.11,4372,List1B,black,man,,,,null,,,,
null,is marrying,,html-keyboard-response,390,2475998,0.0-19.0-2.11,4372,List1B,black,man,,,,null,,,,
12448,,,survey-text,391,2488455,0.0-19.0-3.11,4372,List1B,black,man,,,,,"{""Q0"":""Dave is marrying Ruth""}","<img src=""stim_listB/marry3.gif""</stim_listB>",is marrying,
null,"<div style=""font-size:60px;"">+</div>",,html-keyboard-response,392,2488959,0.0-19.0-0.12,4372,List1B,black,man,,,,null,,,,
null,"<img src=""stim_listB/talk6.gif""</stim_listB>",,html-keyboard-response,393,2490968,0.0-19.0-1.12,4372,List1B,black,man,,,,null,,,,
null,are talking to each other,,html-keyboard-response,394,2492974,0.0-19.0-2.12,4372,List1B,black,man,,,,null,,,,
17095,,,survey-text,395,2510075,0.0-19.0-3.12,4372,List1B,black,man,,,,,"{""Q0"":""Mike and Luke are talking to each other ""}","<img src=""stim_listB/talk6.gif""</stim_listB>",are talking to each other,
null,"<div style=""font-size:60px;"">+</div>",,html-keyboard-response,396,2510581,0.0-19.0-0.13,4372,List1B,black,man,,,,null,,,,
null,"<img src=""stim_listB/argue3.gif""</stim_listB>",,html-keyboard-response,397,2512590,0.0-19.0-1.13,4372,List1B,black,man,,,,null,,,,
null,is arguing with,,html-keyboard-response,398,2514596,0.0-19.0-2.13,4372,List1B,black,man,,,,null,,,,
10817,,,survey-text,399,2525421,0.0-19.0-3.13,4372,List1B,black,man,,,,,"{""Q0"":""Dave is arguing with Ruth""}","<img src=""stim_listB/argue3.gif""</stim_listB>",is arguing with,
null,"<div style=""font-size:60px;"">+</div>",,html-keyboard-response,400,2525930,0.0-19.0-0.14,4372,List1B,black,man,,,,null,,,,
null,"<img src=""stim_listB/fight4.gif""</stim_listB>",,html-keyboard-response,401,2527937,0.0-19.0-1.14,4372,List1B,black,man,,,,null,,,,
null,are fighting each other,,html-keyboard-response,402,2529943,0.0-19.0-2.14,4372,List1B,black,man,,,,null,,,,
12865,,,survey-text,403,2542813,0.0-19.0-3.14,4372,List1B,black,man,,,,,"{""Q0"":""Ruth and Luke are fighting each other ""}","<img src=""stim_listB/fight4.gif""</stim_listB>",are fighting each other,
null,"<div style=""font-size:60px;"">+</div>",,html-keyboard-response,404,2543320,0.0-19.0-0.15,4372,List1B,black,man,,,,null,,,,
null,"<img src=""stim_listB/dance4.gif""</stim_listB>",,html-keyboard-response,405,2545330,0.0-19.0-1.15,4372,List1B,black,man,,,,null,,,,
null,are dancing with each other,,html-keyboard-response,406,2547336,0.0-19.0-2.15,4372,List1B,black,man,,,,null,,,,
11580,,,survey-text,407,2558923,0.0-19.0-3.15,4372,List1B,black,man,,,,,"{""Q0"":""Ruth and Dave are dancing with each other ""}","<img src=""stim_listB/dance4.gif""</stim_listB>",are dancing with each other,
null,"<div style=""font-size:60px;"">+</div>",,html-keyboard-response,408,2559432,0.0-19.0-0.16,4372,List1B,black,man,,,,null,,,,
null,"<img src=""stim_listB/touch4.gif""</stim_listB>",,html-keyboard-response,409,2561441,0.0-19.0-1.16,4372,List1B,black,man,,,,null,,,,
null,are touching each other,,html-keyboard-response,410,2563447,0.0-19.0-2.16,4372,List1B,black,man,,,,null,,,,
34122,,,survey-text,411,2597576,0.0-19.0-3.16,4372,List1B,black,man,,,,,"{""Q0"":""Luke and ruth are touching each other ""}","<img src=""stim_listB/touch4.gif""</stim_listB>",are touching each other,
null,"<div style=""font-size:60px;"">+</div>",,html-keyboard-response,412,2598081,0.0-19.0-0.17,4372,List1B,black,man,,,,null,,,,
null,"<img src=""stim_listB/shout2.gif""</stim_listB>",,html-keyboard-response,413,2600089,0.0-19.0-1.17,4372,List1B,black,man,,,,null,,,,
null,are shouting at each other,,html-keyboard-response,414,2602095,0.0-19.0-2.17,4372,List1B,black,man,,,,null,,,,
11042,,,survey-text,415,2613145,0.0-19.0-3.17,4372,List1B,black,man,,,,,"{""Q0"":""Mike and Jane are shouting at each other ""}","<img src=""stim_listB/shout2.gif""</stim_listB>",are shouting at each other,
null,"<div style=""font-size:60px;"">+</div>",,html-keyboard-response,416,2613652,0.0-19.0-0.18,4372,List1B,black,man,,,,null,,,,
null,"<img src=""stim_listB/argue5.gif""</stim_listB>",,html-keyboard-response,417,2615661,0.0-19.0-1.18,4372,List1B,black,man,,,,null,,,,
null,is arguing with,,html-keyboard-response,418,2617666,0.0-19.0-2.18,4372,List1B,black,man,,,,null,,,,
8951,,,survey-text,419,2626625,0.0-19.0-3.18,4372,List1B,black,man,,,,,"{""Q0"":""Mike is arguing with Luke ""}","<img src=""stim_listB/argue5.gif""</stim_listB>",is arguing with,
null,"<div style=""font-size:60px;"">+</div>",,html-keyboard-response,420,2627130,0.0-19.0-0.19,4372,List1B,black,man,,,,null,,,,
null,"<img src=""stim_listB/shout5.gif""</stim_listB>",,html-keyboard-response,421,2629138,0.0-19.0-1.19,4372,List1B,black,man,,,,null,,,,
null,is shouting at,,html-keyboard-response,422,2631143,0.0-19.0-2.19,4372,List1B,black,man,,,,null,,,,
14702,,,survey-text,423,2645852,0.0-19.0-3.19,4372,List1B,black,man,,,,,"{""Q0"":""Luke is arguing with Fred ""}","<img src=""stim_listB/shout5.gif""</stim_listB>",is shouting at,
2941,<p>Thank you for completing that task.</p><p>The final part of this session is a short questionnaire.</p><p>Press Continue.</p>,0,html-button-response,424,2648799,0.0-20.0,4372,List1B,black,man,,,,,,,,
45498,,,survey-text,425,2695311,0.0-21.0,4372,List1B,black,man,,,,,"{""Q0"":""35"",""Q1"":""English "",""Q2"":""English "",""Q3"":""United Kingdom "",""Q4"":""African"",""Q5"":""Male""}",,,demographics
62137,,,survey-likert,426,2757491,0.0-22.0,4372,List1B,black,man,,,,,"{""Q0"":5,""Q1"":5,""Q2"":5,""Q3"":6,""Q4"":4,""Q5"":4,""Q6"":5,""Q7"":1,""Q8"":5,""Q9"":5,""Q10"":5,""Q11"":3,""Q12"":5,""Q13"":4}",,,likert_race
57830,,,survey-likert,427,2815342,0.0-23.0,4372,List1B,black,man,,,,,"{""Q0"":3,""Q1"":3,""Q2"":4,""Q3"":6,""Q4"":6,""Q5"":6,""Q6"":6,""Q7"":1,""Q8"":6,""Q9"":6,""Q10"":5,""Q11"":5,""Q12"":6,""Q13"":4}",,,likert_gender
6581,,,survey-text,428,2821939,0.0-24.0,4372,List1B,black,man,,,,,"{""Q0"":""ccc""}",,,worker_id
33267,,,external-html,429,2855343,0.0-25.0,4372,List1B,black,man,debrief.html,,,,,,,
