rt,stimulus,button_pressed,trial_type,trial_index,time_elapsed,internal_node_id,subject,list,ppt_race,ppt_gender,url,first_guess,correct,key_press,responses,image_type,phrase_type,test_part
3252,Welcome to the experiment. Press Continue to begin.,0,html-button-response,0,3261,0.0-0.0,43770,List2A,white,man,,,,,,,,
49015,,,external-html,1,53319,0.0-1.0,43770,List2A,white,man,consent.html,,,,,,,
14994,"<p>On the next page, you will see portraits of 8 people and their names.</p><p>Your first task is to take a few minutes to memorise the names of these people.</p><p>You will have to recall their names during the rest of the experiment, so it is</p><p>essential that you try to memorise these people and their names as best as you can.</p><br><p><strong>You will then be tested on your memory of these names and portraits.</strong></p><br><p>The experiment will start after you have completed this memory test.</p><br><p>Ready?</p>",0,html-button-response,2,68318,0.0-2.0,43770,List2A,white,man,,,,,,,,
114819,"<img src='img/portrait_matrix_list2.JPG' style='width:900px;height:500px;''></img><p>If you have memorised all the portraits and names and are ready to start, press Continue.</p><p><strong>Please note: Your memory of these faces will be tested 4 times during this experiment.</strong></p>",0,html-button-response,3,184160,0.0-3.0-0.0,43770,List2A,white,man,,,,,,,,
4053,"<img src=""portrait/BM2.jpg""style=""width:400px;height:400px;""></img>",4,html-button-response,4,189224,0.0-3.0-1.0,43770,List2A,white,man,,TRUE,5,,,,,
9897,"<img src=""portrait/BM2.jpg""style=""width:400px;height:400px;""></img>",5,html-button-response,5,200142,0.0-3.0-3.0-0.0,43770,List2A,white,man,,FALSE,5,,,,,
null,CORRECT,,html-keyboard-response,6,201666,0.0-3.0-3.0-1.0-0.0,43770,List2A,white,man,,,,null,,,,
4976,"<img src=""portrait/WM2.jpg""style=""width:400px;height:400px;""></img>",7,html-button-response,7,206649,0.0-3.0-4.0,43770,List2A,white,man,,TRUE,7,,,,,
null,CORRECT,,html-keyboard-response,8,208196,0.0-3.0-5.0-0.0,43770,List2A,white,man,,,,null,,,,
1781,"<img src=""portrait/WW2.jpg""style=""width:400px;height:400px;""></img>",3,html-button-response,9,209980,0.0-3.0-7.0,43770,List2A,white,man,,TRUE,3,,,,,
null,CORRECT,,html-keyboard-response,10,211489,0.0-3.0-8.0-0.0,43770,List2A,white,man,,,,null,,,,
4570,"<img src=""portrait/WM1.jpg""style=""width:400px;height:400px;""></img>",6,html-button-response,11,216063,0.0-3.0-10.0,43770,List2A,white,man,,TRUE,6,,,,,
null,CORRECT,,html-keyboard-response,12,217569,0.0-3.0-11.0-0.0,43770,List2A,white,man,,,,null,,,,
2543,"<img src=""portrait/WW1.jpg""style=""width:400px;height:400px;""></img>",3,html-button-response,13,220116,0.0-3.0-13.0,43770,List2A,white,man,,TRUE,1,,,,,
5335,"<img src=""portrait/WW1.jpg""style=""width:400px;height:400px;""></img>",1,html-button-response,14,226456,0.0-3.0-15.0-0.0,43770,List2A,white,man,,FALSE,1,,,,,
null,CORRECT,,html-keyboard-response,15,227977,0.0-3.0-15.0-1.0-0.0,43770,List2A,white,man,,,,null,,,,
5214,"<img src=""portrait/BW2.jpg""style=""width:400px;height:400px;""></img>",2,html-button-response,16,233194,0.0-3.0-16.0,43770,List2A,white,man,,TRUE,2,,,,,
null,CORRECT,,html-keyboard-response,17,234709,0.0-3.0-17.0-0.0,43770,List2A,white,man,,,,null,,,,
3716,"<img src=""portrait/BM1.jpg""style=""width:400px;height:400px;""></img>",4,html-button-response,18,238429,0.0-3.0-19.0,43770,List2A,white,man,,TRUE,4,,,,,
null,CORRECT,,html-keyboard-response,19,239949,0.0-3.0-20.0-0.0,43770,List2A,white,man,,,,null,,,,
3308,"<img src=""portrait/BW1.jpg""style=""width:400px;height:400px;""></img>",0,html-button-response,20,243259,0.0-3.0-22.0,43770,List2A,white,man,,TRUE,0,,,,,
null,CORRECT,,html-keyboard-response,21,244789,0.0-3.0-23.0-0.0,43770,List2A,white,man,,,,null,,,,
1514,<p>You got 6 out of 8 right first time. Press Continue.</p>,0,html-button-response,22,246306,0.0-3.0-25.0,43770,List2A,white,man,,,,,,,,
3272,"As you did not score 100%, the memory game will repeat. Press Continue.",0,html-button-response,23,250582,0.0-3.0-26.0-0.0,43770,List2A,white,man,,,,,,,,
2711,"<img src='img/portrait_matrix_list2.JPG' style='width:900px;height:500px;''></img><p>If you have memorised all the portraits and names and are ready to start, press Continue.</p><p><strong>Please note: Your memory of these faces will be tested 4 times during this experiment.</strong></p>",0,html-button-response,24,254300,0.0-3.1-0.1,43770,List2A,white,man,,,,,,,,
3113,"<img src=""portrait/BM2.jpg""style=""width:400px;height:400px;""></img>",5,html-button-response,25,258432,0.0-3.1-1.1,43770,List2A,white,man,,TRUE,5,,,,,
null,CORRECT,,html-keyboard-response,26,259951,0.0-3.1-2.1-0.1,43770,List2A,white,man,,,,null,,,,
3674,"<img src=""portrait/WM2.jpg""style=""width:400px;height:400px;""></img>",7,html-button-response,27,263629,0.0-3.1-4.1,43770,List2A,white,man,,TRUE,7,,,,,
null,CORRECT,,html-keyboard-response,28,265164,0.0-3.1-5.1-0.1,43770,List2A,white,man,,,,null,,,,
10411,"<img src=""portrait/WW2.jpg""style=""width:400px;height:400px;""></img>",3,html-button-response,29,275580,0.0-3.1-7.1,43770,List2A,white,man,,TRUE,3,,,,,
null,CORRECT,,html-keyboard-response,30,277101,0.0-3.1-8.1-0.1,43770,List2A,white,man,,,,null,,,,
3322,"<img src=""portrait/WM1.jpg""style=""width:400px;height:400px;""></img>",6,html-button-response,31,280426,0.0-3.1-10.1,43770,List2A,white,man,,TRUE,6,,,,,
null,CORRECT,,html-keyboard-response,32,281933,0.0-3.1-11.1-0.1,43770,List2A,white,man,,,,null,,,,
6082,"<img src=""portrait/WW1.jpg""style=""width:400px;height:400px;""></img>",1,html-button-response,33,288019,0.0-3.1-13.1,43770,List2A,white,man,,TRUE,1,,,,,
null,CORRECT,,html-keyboard-response,34,289532,0.0-3.1-14.1-0.1,43770,List2A,white,man,,,,null,,,,
1840,"<img src=""portrait/BW2.jpg""style=""width:400px;height:400px;""></img>",2,html-button-response,35,291375,0.0-3.1-16.1,43770,List2A,white,man,,TRUE,2,,,,,
null,CORRECT,,html-keyboard-response,36,292880,0.0-3.1-17.1-0.1,43770,List2A,white,man,,,,null,,,,
3948,"<img src=""portrait/BM1.jpg""style=""width:400px;height:400px;""></img>",4,html-button-response,37,296832,0.0-3.1-19.1,43770,List2A,white,man,,TRUE,4,,,,,
null,CORRECT,,html-keyboard-response,38,298363,0.0-3.1-20.1-0.1,43770,List2A,white,man,,,,null,,,,
3913,"<img src=""portrait/BW1.jpg""style=""width:400px;height:400px;""></img>",0,html-button-response,39,302279,0.0-3.1-22.1,43770,List2A,white,man,,TRUE,0,,,,,
null,CORRECT,,html-keyboard-response,40,303810,0.0-3.1-23.1-0.1,43770,List2A,white,man,,,,null,,,,
1110,<p>You got 8 out of 8 right first time. Press Continue.</p>,0,html-button-response,41,304923,0.0-3.1-25.1,43770,List2A,white,man,,,,,,,,
49094,"<p>In this experiment, you will view photographs of the people from the memory game interacting.</p><p>By using the <strong>exact</strong> phrase given <i>after</i> the photograph appears and recalling the correct names of the people in the photographs, form a sentence describing the interaction. You do not need to capitalise names.</p><p>Type your answer in the space provided. Please complete every sentence before moving onto the next trial.</p><p>You will only have a few seconds to memorise each given photograph and phrase before you can respond, so try your best to focus.</p><p>An example is given below. Press 'Continue' when you are ready.</p><img src='img/speaking_example_v2.jpg' style='width:800px;height:460px;''></img>",0,html-button-response,42,355023,0.0-4.0,43770,List2A,white,man,,,,,,,,
3140,"<p>Before the experiment starts, you will watch two example trials. Press 'Continue'.</p>",0,html-button-response,43,359167,0.0-5.0,43770,List2A,white,man,,,,,,,,
null,<img src='img/speaking_WW.gif'></img>,,html-keyboard-response,44,362179,0.0-6.0,43770,List2A,white,man,,,,null,,,,
null,<p>is speaking to</p>,,html-keyboard-response,45,364195,0.0-7.0,43770,List2A,white,man,,,,null,,,,
5097,<p><b>Answer:</b> jane is speaking to ruth</p>,0,html-button-response,46,369294,0.0-8.0,43770,List2A,white,man,,,,,,,,
null,<img src='img/pointing_BM.gif'></img>,,html-keyboard-response,47,372312,0.0-9.0,43770,List2A,white,man,,,,null,,,,
null,<p>are pointing at each other</p>,,html-keyboard-response,48,374333,0.0-10.0,43770,List2A,white,man,,,,null,,,,
2708,<p><b>Answer:</b> fred and mike are pointing at each other</p>,0,html-button-response,49,377043,0.0-11.0,43770,List2A,white,man,,,,,,,,
7909,"<p>Ready to start the experiment?</p><br><p><strong>Remember to describe the picture using a full sentence,</strong></p><p><strong>that combines the names of the people with the given phrase.</strong></p><p><strong>If you do not do this correctly you will not be paid.</strong></p><p><strong> You do not need to capitalise names or use punctuation.</strong></p><br><p>Press 'Continue' to begin.</p>",0,html-button-response,50,385956,0.0-12.0,43770,List2A,white,man,,,,,,,,
null,"<div style=""font-size:60px;"">+</div>",,html-keyboard-response,51,387477,0.0-13.0-0.0,43770,List2A,white,man,,,,null,,,,
null,"<img src=""stim_listA/kiss7.gif""</stim_listA>",,html-keyboard-response,52,389497,0.0-13.0-1.0,43770,List2A,white,man,,,,null,,,,
null,is kissing,,html-keyboard-response,53,391510,0.0-13.0-2.0,43770,List2A,white,man,,,,null,,,,
12617,,,survey-text,54,404130,0.0-13.0-3.0,43770,List2A,white,man,,,,,"{""Q0"":""Beth is kissing Jane""}","<img src=""stim_listA/kiss7.gif""</stim_listA>",is kissing,
null,"<div style=""font-size:60px;"">+</div>",,html-keyboard-response,55,404637,0.0-13.0-0.1,43770,List2A,white,man,,,,null,,,,
null,"<img src=""stim_listA/fight4.gif""</stim_listA>",,html-keyboard-response,56,406648,0.0-13.0-1.1,43770,List2A,white,man,,,,null,,,,
null,are fighting each other,,html-keyboard-response,57,408651,0.0-13.0-2.1,43770,List2A,white,man,,,,null,,,,
22575,,,survey-text,58,431229,0.0-13.0-3.1,43770,List2A,white,man,,,,,"{""Q0"":""fred and beth are fighting each other""}","<img src=""stim_listA/fight4.gif""</stim_listA>",are fighting each other,
null,"<div style=""font-size:60px;"">+</div>",,html-keyboard-response,59,431736,0.0-13.0-0.2,43770,List2A,white,man,,,,null,,,,
null,"<img src=""stim_listA/argue6.gif""</stim_listA>",,html-keyboard-response,60,433740,0.0-13.0-1.2,43770,List2A,white,man,,,,null,,,,
null,are arguing with each other,,html-keyboard-response,61,435743,0.0-13.0-2.2,43770,List2A,white,man,,,,null,,,,
31225,,,survey-text,62,466970,0.0-13.0-3.2,43770,List2A,white,man,,,,,"{""Q0"":""Luke and Mike are pointing""}","<img src=""stim_listA/argue6.gif""</stim_listA>",are arguing with each other,
null,"<div style=""font-size:60px;"">+</div>",,html-keyboard-response,63,467476,0.0-13.0-0.3,43770,List2A,white,man,,,,null,,,,
null,"<img src=""stim_listA/hug3.gif""</stim_listA>",,html-keyboard-response,64,469492,0.0-13.0-1.3,43770,List2A,white,man,,,,null,,,,
null,is hugging,,html-keyboard-response,65,471494,0.0-13.0-2.3,43770,List2A,white,man,,,,null,,,,
24141,,,survey-text,66,495638,0.0-13.0-3.3,43770,List2A,white,man,,,,,"{""Q0"":""fred is hugging beth""}","<img src=""stim_listA/hug3.gif""</stim_listA>",is hugging,
null,"<div style=""font-size:60px;"">+</div>",,html-keyboard-response,67,496151,0.0-13.0-0.4,43770,List2A,white,man,,,,null,,,,
null,"<img src=""stim_listA/marry3.gif""</stim_listA>",,html-keyboard-response,68,498154,0.0-13.0-1.4,43770,List2A,white,man,,,,null,,,,
null,is marrying,,html-keyboard-response,69,500156,0.0-13.0-2.4,43770,List2A,white,man,,,,null,,,,
12088,,,survey-text,70,512246,0.0-13.0-3.4,43770,List2A,white,man,,,,,"{""Q0"":""beth is marrying mike""}","<img src=""stim_listA/marry3.gif""</stim_listA>",is marrying,
null,"<div style=""font-size:60px;"">+</div>",,html-keyboard-response,71,512754,0.0-13.0-0.5,43770,List2A,white,man,,,,null,,,,
null,"<img src=""stim_listA/meet2.gif""</stim_listA>",,html-keyboard-response,72,514764,0.0-13.0-1.5,43770,List2A,white,man,,,,null,,,,
null,are meeting each other,,html-keyboard-response,73,516767,0.0-13.0-2.5,43770,List2A,white,man,,,,null,,,,
13487,,,survey-text,74,530256,0.0-13.0-3.5,43770,List2A,white,man,,,,,"{""Q0"":""jane and luke are meeting each other""}","<img src=""stim_listA/meet2.gif""</stim_listA>",are meeting each other,
null,"<div style=""font-size:60px;"">+</div>",,html-keyboard-response,75,530772,0.0-13.0-0.6,43770,List2A,white,man,,,,null,,,,
null,"<img src=""stim_listA/touch3.gif""</stim_listA>",,html-keyboard-response,76,532780,0.0-13.0-1.6,43770,List2A,white,man,,,,null,,,,
null,is touching,,html-keyboard-response,77,534783,0.0-13.0-2.6,43770,List2A,white,man,,,,null,,,,
24144,,,survey-text,78,558929,0.0-13.0-3.6,43770,List2A,white,man,,,,,"{""Q0"":""mike is touching kate""}","<img src=""stim_listA/touch3.gif""</stim_listA>",is touching,
null,"<div style=""font-size:60px;"">+</div>",,html-keyboard-response,79,559432,0.0-13.0-0.7,43770,List2A,white,man,,,,null,,,,
null,"<img src=""stim_listA/kiss3.gif""</stim_listA>",,html-keyboard-response,80,561445,0.0-13.0-1.7,43770,List2A,white,man,,,,null,,,,
null,is kissing,,html-keyboard-response,81,563449,0.0-13.0-2.7,43770,List2A,white,man,,,,null,,,,
16160,,,survey-text,82,579612,0.0-13.0-3.7,43770,List2A,white,man,,,,,"{""Q0"":""Fred is kissing beth""}","<img src=""stim_listA/kiss3.gif""</stim_listA>",is kissing,
null,"<div style=""font-size:60px;"">+</div>",,html-keyboard-response,83,580118,0.0-13.0-0.8,43770,List2A,white,man,,,,null,,,,
null,"<img src=""stim_listA/touch5.gif""</stim_listA>",,html-keyboard-response,84,582125,0.0-13.0-1.8,43770,List2A,white,man,,,,null,,,,
null,is touching,,html-keyboard-response,85,584128,0.0-13.0-2.8,43770,List2A,white,man,,,,null,,,,
10525,,,survey-text,86,594655,0.0-13.0-3.8,43770,List2A,white,man,,,,,"{""Q0"":""Dave is touching Mike""}","<img src=""stim_listA/touch5.gif""</stim_listA>",is touching,
null,"<div style=""font-size:60px;"">+</div>",,html-keyboard-response,87,595164,0.0-13.0-0.9,43770,List2A,white,man,,,,null,,,,
null,"<img src=""stim_listA/dance6.gif""</stim_listA>",,html-keyboard-response,88,597176,0.0-13.0-1.9,43770,List2A,white,man,,,,null,,,,
null,are dancing with each other,,html-keyboard-response,89,599193,0.0-13.0-2.9,43770,List2A,white,man,,,,null,,,,
16234,,,survey-text,90,615430,0.0-13.0-3.9,43770,List2A,white,man,,,,,"{""Q0"":""fred and dave are dancing with each other""}","<img src=""stim_listA/dance6.gif""</stim_listA>",are dancing with each other,
null,"<div style=""font-size:60px;"">+</div>",,html-keyboard-response,91,615943,0.0-13.0-0.10,43770,List2A,white,man,,,,null,,,,
null,"<img src=""stim_listA/fight7.gif""</stim_listA>",,html-keyboard-response,92,617960,0.0-13.0-1.10,43770,List2A,white,man,,,,null,,,,
null,is fighting,,html-keyboard-response,93,619962,0.0-13.0-2.10,43770,List2A,white,man,,,,null,,,,
15637,,,survey-text,94,635602,0.0-13.0-3.10,43770,List2A,white,man,,,,,"{""Q0"":""jane and kate are fighting""}","<img src=""stim_listA/fight7.gif""</stim_listA>",is fighting,
null,"<div style=""font-size:60px;"">+</div>",,html-keyboard-response,95,636105,0.0-13.0-0.11,43770,List2A,white,man,,,,null,,,,
null,"<img src=""stim_listA/talk5.gif""</stim_listA>",,html-keyboard-response,96,638120,0.0-13.0-1.11,43770,List2A,white,man,,,,null,,,,
null,is talking to,,html-keyboard-response,97,640132,0.0-13.0-2.11,43770,List2A,white,man,,,,null,,,,
7028,,,survey-text,98,647162,0.0-13.0-3.11,43770,List2A,white,man,,,,,"{""Q0"":""luke is talking to mike""}","<img src=""stim_listA/talk5.gif""</stim_listA>",is talking to,
null,"<div style=""font-size:60px;"">+</div>",,html-keyboard-response,99,647664,0.0-13.0-0.12,43770,List2A,white,man,,,,null,,,,
null,"<img src=""stim_listA/marry6.gif""</stim_listA>",,html-keyboard-response,100,649668,0.0-13.0-1.12,43770,List2A,white,man,,,,null,,,,
null,are marrying each other,,html-keyboard-response,101,651671,0.0-13.0-2.12,43770,List2A,white,man,,,,null,,,,
10123,,,survey-text,102,661796,0.0-13.0-3.12,43770,List2A,white,man,,,,,"{""Q0"":""luke and mike are marrying each other""}","<img src=""stim_listA/marry6.gif""</stim_listA>",are marrying each other,
null,"<div style=""font-size:60px;"">+</div>",,html-keyboard-response,103,662308,0.0-13.0-0.13,43770,List2A,white,man,,,,null,,,,
null,"<img src=""stim_listA/marry1.gif""</stim_listA>",,html-keyboard-response,104,664324,0.0-13.0-1.13,43770,List2A,white,man,,,,null,,,,
null,is marrying,,html-keyboard-response,105,666332,0.0-13.0-2.13,43770,List2A,white,man,,,,null,,,,
23319,,,survey-text,106,689653,0.0-13.0-3.13,43770,List2A,white,man,,,,,"{""Q0"":""dave is marrying ruth""}","<img src=""stim_listA/marry1.gif""</stim_listA>",is marrying,
null,"<div style=""font-size:60px;"">+</div>",,html-keyboard-response,107,690164,0.0-13.0-0.14,43770,List2A,white,man,,,,null,,,,
null,"<img src=""stim_listA/meet3.gif""</stim_listA>",,html-keyboard-response,108,692172,0.0-13.0-1.14,43770,List2A,white,man,,,,null,,,,
null,is meeting,,html-keyboard-response,109,694180,0.0-13.0-2.14,43770,List2A,white,man,,,,null,,,,
12577,,,survey-text,110,706760,0.0-13.0-3.14,43770,List2A,white,man,,,,,"{""Q0"":""kate is meeting mike""}","<img src=""stim_listA/meet3.gif""</stim_listA>",is meeting,
null,"<div style=""font-size:60px;"">+</div>",,html-keyboard-response,111,707270,0.0-13.0-0.15,43770,List2A,white,man,,,,null,,,,
null,"<img src=""stim_listA/shout5.gif""</stim_listA>",,html-keyboard-response,112,709292,0.0-13.0-1.15,43770,List2A,white,man,,,,null,,,,
null,is shouting at,,html-keyboard-response,113,711299,0.0-13.0-2.15,43770,List2A,white,man,,,,null,,,,
12056,,,survey-text,114,723357,0.0-13.0-3.15,43770,List2A,white,man,,,,,"{""Q0"":""luke is shouting at fred""}","<img src=""stim_listA/shout5.gif""</stim_listA>",is shouting at,
null,"<div style=""font-size:60px;"">+</div>",,html-keyboard-response,115,723867,0.0-13.0-0.16,43770,List2A,white,man,,,,null,,,,
null,"<img src=""stim_listA/touch4.gif""</stim_listA>",,html-keyboard-response,116,725883,0.0-13.0-1.16,43770,List2A,white,man,,,,null,,,,
null,are touching each other,,html-keyboard-response,117,727896,0.0-13.0-2.16,43770,List2A,white,man,,,,null,,,,
11409,,,survey-text,118,739307,0.0-13.0-3.16,43770,List2A,white,man,,,,,"{""Q0"":""beth and fred are touching each other""}","<img src=""stim_listA/touch4.gif""</stim_listA>",are touching each other,
null,"<div style=""font-size:60px;"">+</div>",,html-keyboard-response,119,739810,0.0-13.0-0.17,43770,List2A,white,man,,,,null,,,,
null,"<img src=""stim_listA/argue8.gif""</stim_listA>",,html-keyboard-response,120,741819,0.0-13.0-1.17,43770,List2A,white,man,,,,null,,,,
null,are arguing with each other,,html-keyboard-response,121,743824,0.0-13.0-2.17,43770,List2A,white,man,,,,null,,,,
10311,,,survey-text,122,754137,0.0-13.0-3.17,43770,List2A,white,man,,,,,"{""Q0"":""kate and ruth are arguing with each other""}","<img src=""stim_listA/argue8.gif""</stim_listA>",are arguing with each other,
null,"<div style=""font-size:60px;"">+</div>",,html-keyboard-response,123,754652,0.0-13.0-0.18,43770,List2A,white,man,,,,null,,,,
null,"<img src=""stim_listA/argue4.gif""</stim_listA>",,html-keyboard-response,124,756657,0.0-13.0-1.18,43770,List2A,white,man,,,,null,,,,
null,are arguing with each other,,html-keyboard-response,125,758659,0.0-13.0-2.18,43770,List2A,white,man,,,,null,,,,
9211,,,survey-text,126,767872,0.0-13.0-3.18,43770,List2A,white,man,,,,,"{""Q0"":""fred and kate are arguing with each other""}","<img src=""stim_listA/argue4.gif""</stim_listA>",are arguing with each other,
null,"<div style=""font-size:60px;"">+</div>",,html-keyboard-response,127,768375,0.0-13.0-0.19,43770,List2A,white,man,,,,null,,,,
null,"<img src=""stim_listA/meet6.gif""</stim_listA>",,html-keyboard-response,128,770388,0.0-13.0-1.19,43770,List2A,white,man,,,,null,,,,
null,are meeting each other,,html-keyboard-response,129,772391,0.0-13.0-2.19,43770,List2A,white,man,,,,null,,,,
8047,,,survey-text,130,780440,0.0-13.0-3.19,43770,List2A,white,man,,,,,"{""Q0"":""luke and fred are meeting each other""}","<img src=""stim_listA/meet6.gif""</stim_listA>",are meeting each other,
18272,"<img src='img/portrait_matrix_list2.JPG' style='width:900px;height:500px;''></img><p>If you have memorised all the portraits and names and are ready to start, press Continue.</p><p><strong>Please note: Your memory of these faces will be tested 4 times during this experiment.</strong></p>",0,html-button-response,131,798716,0.0-14.0-0.0,43770,List2A,white,man,,,,,,,,
3171,"<img src=""portrait/BW1.jpg""style=""width:400px;height:400px;""></img>",0,html-button-response,132,802903,0.0-14.0-1.0,43770,List2A,white,man,,TRUE,0,,,,,
null,CORRECT,,html-keyboard-response,133,804420,0.0-14.0-2.0-0.0,43770,List2A,white,man,,,,null,,,,
2774,"<img src=""portrait/WW2.jpg""style=""width:400px;height:400px;""></img>",3,html-button-response,134,807198,0.0-14.0-4.0,43770,List2A,white,man,,TRUE,3,,,,,
null,CORRECT,,html-keyboard-response,135,808716,0.0-14.0-5.0-0.0,43770,List2A,white,man,,,,null,,,,
1923,"<img src=""portrait/WM1.jpg""style=""width:400px;height:400px;""></img>",6,html-button-response,136,810643,0.0-14.0-7.0,43770,List2A,white,man,,TRUE,6,,,,,
null,CORRECT,,html-keyboard-response,137,812152,0.0-14.0-8.0-0.0,43770,List2A,white,man,,,,null,,,,
1523,"<img src=""portrait/BM2.jpg""style=""width:400px;height:400px;""></img>",4,html-button-response,138,813679,0.0-14.0-10.0,43770,List2A,white,man,,TRUE,5,,,,,
7809,"<img src=""portrait/BM2.jpg""style=""width:400px;height:400px;""></img>",5,html-button-response,139,822513,0.0-14.0-12.0-0.0,43770,List2A,white,man,,FALSE,5,,,,,
null,CORRECT,,html-keyboard-response,140,824041,0.0-14.0-12.0-1.0-0.0,43770,List2A,white,man,,,,null,,,,
4924,"<img src=""portrait/WW1.jpg""style=""width:400px;height:400px;""></img>",1,html-button-response,141,828969,0.0-14.0-13.0,43770,List2A,white,man,,TRUE,1,,,,,
null,CORRECT,,html-keyboard-response,142,830496,0.0-14.0-14.0-0.0,43770,List2A,white,man,,,,null,,,,
1640,"<img src=""portrait/WM2.jpg""style=""width:400px;height:400px;""></img>",7,html-button-response,143,832139,0.0-14.0-16.0,43770,List2A,white,man,,TRUE,7,,,,,
null,CORRECT,,html-keyboard-response,144,833644,0.0-14.0-17.0-0.0,43770,List2A,white,man,,,,null,,,,
1545,"<img src=""portrait/BM1.jpg""style=""width:400px;height:400px;""></img>",4,html-button-response,145,835192,0.0-14.0-19.0,43770,List2A,white,man,,TRUE,4,,,,,
null,CORRECT,,html-keyboard-response,146,836708,0.0-14.0-20.0-0.0,43770,List2A,white,man,,,,null,,,,
2237,"<img src=""portrait/BW2.jpg""style=""width:400px;height:400px;""></img>",2,html-button-response,147,838948,0.0-14.0-22.0,43770,List2A,white,man,,TRUE,2,,,,,
null,CORRECT,,html-keyboard-response,148,840462,0.0-14.0-23.0-0.0,43770,List2A,white,man,,,,null,,,,
1212,<p>You got 7 out of 8 right first time. Press Continue.</p>,0,html-button-response,149,841676,0.0-14.0-25.0,43770,List2A,white,man,,,,,,,,
1586,"As you did not score 100%, the memory game will repeat. Press Continue.",0,html-button-response,150,844269,0.0-14.0-26.0-0.0,43770,List2A,white,man,,,,,,,,
1462,"<img src='img/portrait_matrix_list2.JPG' style='width:900px;height:500px;''></img><p>If you have memorised all the portraits and names and are ready to start, press Continue.</p><p><strong>Please note: Your memory of these faces will be tested 4 times during this experiment.</strong></p>",0,html-button-response,151,846741,0.0-14.1-0.1,43770,List2A,white,man,,,,,,,,
2065,"<img src=""portrait/BW1.jpg""style=""width:400px;height:400px;""></img>",0,html-button-response,152,849817,0.0-14.1-1.1,43770,List2A,white,man,,TRUE,0,,,,,
null,CORRECT,,html-keyboard-response,153,851343,0.0-14.1-2.1-0.1,43770,List2A,white,man,,,,null,,,,
3667,"<img src=""portrait/WW2.jpg""style=""width:400px;height:400px;""></img>",3,html-button-response,154,855014,0.0-14.1-4.1,43770,List2A,white,man,,TRUE,3,,,,,
null,CORRECT,,html-keyboard-response,155,856534,0.0-14.1-5.1-0.1,43770,List2A,white,man,,,,null,,,,
1435,"<img src=""portrait/WM1.jpg""style=""width:400px;height:400px;""></img>",6,html-button-response,156,857972,0.0-14.1-7.1,43770,List2A,white,man,,TRUE,6,,,,,
null,CORRECT,,html-keyboard-response,157,859490,0.0-14.1-8.1-0.1,43770,List2A,white,man,,,,null,,,,
2230,"<img src=""portrait/BM2.jpg""style=""width:400px;height:400px;""></img>",5,html-button-response,158,861724,0.0-14.1-10.1,43770,List2A,white,man,,TRUE,5,,,,,
null,CORRECT,,html-keyboard-response,159,863228,0.0-14.1-11.1-0.1,43770,List2A,white,man,,,,null,,,,
4434,"<img src=""portrait/WW1.jpg""style=""width:400px;height:400px;""></img>",1,html-button-response,160,867664,0.0-14.1-13.1,43770,List2A,white,man,,TRUE,1,,,,,
null,CORRECT,,html-keyboard-response,161,869182,0.0-14.1-14.1-0.1,43770,List2A,white,man,,,,null,,,,
1241,"<img src=""portrait/WM2.jpg""style=""width:400px;height:400px;""></img>",7,html-button-response,162,870426,0.0-14.1-16.1,43770,List2A,white,man,,TRUE,7,,,,,
null,CORRECT,,html-keyboard-response,163,871929,0.0-14.1-17.1-0.1,43770,List2A,white,man,,,,null,,,,
1575,"<img src=""portrait/BM1.jpg""style=""width:400px;height:400px;""></img>",4,html-button-response,164,873508,0.0-14.1-19.1,43770,List2A,white,man,,TRUE,4,,,,,
null,CORRECT,,html-keyboard-response,165,875038,0.0-14.1-20.1-0.1,43770,List2A,white,man,,,,null,,,,
1324,"<img src=""portrait/BW2.jpg""style=""width:400px;height:400px;""></img>",2,html-button-response,166,876365,0.0-14.1-22.1,43770,List2A,white,man,,TRUE,2,,,,,
null,CORRECT,,html-keyboard-response,167,877887,0.0-14.1-23.1-0.1,43770,List2A,white,man,,,,null,,,,
1284,<p>You got 8 out of 8 right first time. Press Continue.</p>,0,html-button-response,168,879173,0.0-14.1-25.1,43770,List2A,white,man,,,,,,,,
null,"<div style=""font-size:60px;"">+</div>",,html-keyboard-response,169,880697,0.0-15.0-0.0,43770,List2A,white,man,,,,null,,,,
null,"<img src=""stim_listA/shout1.gif""</stim_listA>",,html-keyboard-response,170,882715,0.0-15.0-1.0,43770,List2A,white,man,,,,null,,,,
null,is shouting at,,html-keyboard-response,171,884719,0.0-15.0-2.0,43770,List2A,white,man,,,,null,,,,
7881,,,survey-text,172,892602,0.0-15.0-3.0,43770,List2A,white,man,,,,,"{""Q0"":""ruth is shouting at luke""}","<img src=""stim_listA/shout1.gif""</stim_listA>",is shouting at,
null,"<div style=""font-size:60px;"">+</div>",,html-keyboard-response,173,893107,0.0-15.0-0.1,43770,List2A,white,man,,,,null,,,,
null,"<img src=""stim_listA/touch2.gif""</stim_listA>",,html-keyboard-response,174,895117,0.0-15.0-1.1,43770,List2A,white,man,,,,null,,,,
null,are touching each other,,html-keyboard-response,175,897119,0.0-15.0-2.1,43770,List2A,white,man,,,,null,,,,
9166,,,survey-text,176,906287,0.0-15.0-3.1,43770,List2A,white,man,,,,,"{""Q0"":""luke and ruth are touching each other""}","<img src=""stim_listA/touch2.gif""</stim_listA>",are touching each other,
null,"<div style=""font-size:60px;"">+</div>",,html-keyboard-response,177,906801,0.0-15.0-0.2,43770,List2A,white,man,,,,null,,,,
null,"<img src=""stim_listA/argue3.gif""</stim_listA>",,html-keyboard-response,178,908813,0.0-15.0-1.2,43770,List2A,white,man,,,,null,,,,
null,is arguing with,,html-keyboard-response,179,910826,0.0-15.0-2.2,43770,List2A,white,man,,,,null,,,,
10906,,,survey-text,180,921735,0.0-15.0-3.2,43770,List2A,white,man,,,,,"{""Q0"":""mike is arguing with beth""}","<img src=""stim_listA/argue3.gif""</stim_listA>",is arguing with,
null,"<div style=""font-size:60px;"">+</div>",,html-keyboard-response,181,922247,0.0-15.0-0.3,43770,List2A,white,man,,,,null,,,,
null,"<img src=""stim_listA/talk2.gif""</stim_listA>",,html-keyboard-response,182,924251,0.0-15.0-1.3,43770,List2A,white,man,,,,null,,,,
null,are talking to each other,,html-keyboard-response,183,926257,0.0-15.0-2.3,43770,List2A,white,man,,,,null,,,,
10014,,,survey-text,184,936273,0.0-15.0-3.3,43770,List2A,white,man,,,,,"{""Q0"":""ruth and dave are talking to each other""}","<img src=""stim_listA/talk2.gif""</stim_listA>",are talking to each other,
null,"<div style=""font-size:60px;"">+</div>",,html-keyboard-response,185,936789,0.0-15.0-0.4,43770,List2A,white,man,,,,null,,,,
null,"<img src=""stim_listA/touch7.gif""</stim_listA>",,html-keyboard-response,186,938805,0.0-15.0-1.4,43770,List2A,white,man,,,,null,,,,
null,is touching,,html-keyboard-response,187,940808,0.0-15.0-2.4,43770,List2A,white,man,,,,null,,,,
8030,,,survey-text,188,948840,0.0-15.0-3.4,43770,List2A,white,man,,,,,"{""Q0"":""jane is touching kate""}","<img src=""stim_listA/touch7.gif""</stim_listA>",is touching,
null,"<div style=""font-size:60px;"">+</div>",,html-keyboard-response,189,949343,0.0-15.0-0.5,43770,List2A,white,man,,,,null,,,,
null,"<img src=""stim_listA/meet8.gif""</stim_listA>",,html-keyboard-response,190,951355,0.0-15.0-1.5,43770,List2A,white,man,,,,null,,,,
null,are meeting each other,,html-keyboard-response,191,953366,0.0-15.0-2.5,43770,List2A,white,man,,,,null,,,,
8312,,,survey-text,192,961680,0.0-15.0-3.5,43770,List2A,white,man,,,,,"{""Q0"":""ruth and beth are meeting each other""}","<img src=""stim_listA/meet8.gif""</stim_listA>",are meeting each other,
null,"<div style=""font-size:60px;"">+</div>",,html-keyboard-response,193,962183,0.0-15.0-0.6,43770,List2A,white,man,,,,null,,,,
null,"<img src=""stim_listA/dance1.gif""</stim_listA>",,html-keyboard-response,194,964193,0.0-15.0-1.6,43770,List2A,white,man,,,,null,,,,
null,is dancing with,,html-keyboard-response,195,966195,0.0-15.0-2.6,43770,List2A,white,man,,,,null,,,,
9772,,,survey-text,196,975970,0.0-15.0-3.6,43770,List2A,white,man,,,,,"{""Q0"":""luke is dancing with jane""}","<img src=""stim_listA/dance1.gif""</stim_listA>",is dancing with,
null,"<div style=""font-size:60px;"">+</div>",,html-keyboard-response,197,976472,0.0-15.0-0.7,43770,List2A,white,man,,,,null,,,,
null,"<img src=""stim_listA/kiss4.gif""</stim_listA>",,html-keyboard-response,198,978488,0.0-15.0-1.7,43770,List2A,white,man,,,,null,,,,
null,are kissing each other,,html-keyboard-response,199,980501,0.0-15.0-2.7,43770,List2A,white,man,,,,null,,,,
10276,,,survey-text,200,990779,0.0-15.0-3.7,43770,List2A,white,man,,,,,"{""Q0"":""mike and kate are kissing each other""}","<img src=""stim_listA/kiss4.gif""</stim_listA>",are kissing each other,
null,"<div style=""font-size:60px;"">+</div>",,html-keyboard-response,201,991288,0.0-15.0-0.8,43770,List2A,white,man,,,,null,,,,
null,"<img src=""stim_listA/talk4.gif""</stim_listA>",,html-keyboard-response,202,993306,0.0-15.0-1.8,43770,List2A,white,man,,,,null,,,,
null,are talking to each other,,html-keyboard-response,203,995307,0.0-15.0-2.8,43770,List2A,white,man,,,,null,,,,
13859,,,survey-text,204,1009168,0.0-15.0-3.8,43770,List2A,white,man,,,,,"{""Q0"":""beth and mike are talking to each other""}","<img src=""stim_listA/talk4.gif""</stim_listA>",are talking to each other,
null,"<div style=""font-size:60px;"">+</div>",,html-keyboard-response,205,1009679,0.0-15.0-0.9,43770,List2A,white,man,,,,null,,,,
null,"<img src=""stim_listA/kiss6.gif""</stim_listA>",,html-keyboard-response,206,1011681,0.0-15.0-1.9,43770,List2A,white,man,,,,null,,,,
null,are kissing each other,,html-keyboard-response,207,1013691,0.0-15.0-2.9,43770,List2A,white,man,,,,null,,,,
9763,,,survey-text,208,1023456,0.0-15.0-3.9,43770,List2A,white,man,,,,,"{""Q0"":""dave and mike are kissing each other""}","<img src=""stim_listA/kiss6.gif""</stim_listA>",are kissing each other,
null,"<div style=""font-size:60px;"">+</div>",,html-keyboard-response,209,1023960,0.0-15.0-0.10,43770,List2A,white,man,,,,null,,,,
null,"<img src=""stim_listA/shout8.gif""</stim_listA>",,html-keyboard-response,210,1025962,0.0-15.0-1.10,43770,List2A,white,man,,,,null,,,,
null,are shouting at each other,,html-keyboard-response,211,1027979,0.0-15.0-2.10,43770,List2A,white,man,,,,null,,,,
10649,,,survey-text,212,1038630,0.0-15.0-3.10,43770,List2A,white,man,,,,,"{""Q0"":""jane and kate are shouting at each other""}","<img src=""stim_listA/shout8.gif""</stim_listA>",are shouting at each other,
null,"<div style=""font-size:60px;"">+</div>",,html-keyboard-response,213,1039137,0.0-15.0-0.11,43770,List2A,white,man,,,,null,,,,
null,"<img src=""stim_listA/marry2.gif""</stim_listA>",,html-keyboard-response,214,1041139,0.0-15.0-1.11,43770,List2A,white,man,,,,null,,,,
null,are marrying each other,,html-keyboard-response,215,1043142,0.0-15.0-2.11,43770,List2A,white,man,,,,null,,,,
7886,,,survey-text,216,1051030,0.0-15.0-3.11,43770,List2A,white,man,,,,,"{""Q0"":""luke and jane are marrying each other""}","<img src=""stim_listA/marry2.gif""</stim_listA>",are marrying each other,
null,"<div style=""font-size:60px;"">+</div>",,html-keyboard-response,217,1051532,0.0-15.0-0.12,43770,List2A,white,man,,,,null,,,,
null,"<img src=""stim_listA/marry8.gif""</stim_listA>",,html-keyboard-response,218,1053537,0.0-15.0-1.12,43770,List2A,white,man,,,,null,,,,
null,are marrying each other,,html-keyboard-response,219,1055540,0.0-15.0-2.12,43770,List2A,white,man,,,,null,,,,
7936,,,survey-text,220,1063478,0.0-15.0-3.12,43770,List2A,white,man,,,,,"{""Q0"":""ruth and kate are marrying each other""}","<img src=""stim_listA/marry8.gif""</stim_listA>",are marrying each other,
null,"<div style=""font-size:60px;"">+</div>",,html-keyboard-response,221,1063980,0.0-15.0-0.13,43770,List2A,white,man,,,,null,,,,
null,"<img src=""stim_listA/dance2.gif""</stim_listA>",,html-keyboard-response,222,1065990,0.0-15.0-1.13,43770,List2A,white,man,,,,null,,,,
null,are dancing with each other,,html-keyboard-response,223,1067992,0.0-15.0-2.13,43770,List2A,white,man,,,,null,,,,
8471,,,survey-text,224,1076465,0.0-15.0-3.13,43770,List2A,white,man,,,,,"{""Q0"":""dave and ruth are dancing with each other""}","<img src=""stim_listA/dance2.gif""</stim_listA>",are dancing with each other,
null,"<div style=""font-size:60px;"">+</div>",,html-keyboard-response,225,1076975,0.0-15.0-0.14,43770,List2A,white,man,,,,null,,,,
null,"<img src=""stim_listA/fight2.gif""</stim_listA>",,html-keyboard-response,226,1078994,0.0-15.0-1.14,43770,List2A,white,man,,,,null,,,,
null,are fighting each other,,html-keyboard-response,227,1080996,0.0-15.0-2.14,43770,List2A,white,man,,,,null,,,,
11278,,,survey-text,228,1092278,0.0-15.0-3.14,43770,List2A,white,man,,,,,"{""Q0"":""luke and ruth are fighting each other""}","<img src=""stim_listA/fight2.gif""</stim_listA>",are fighting each other,
null,"<div style=""font-size:60px;"">+</div>",,html-keyboard-response,229,1092794,0.0-15.0-0.15,43770,List2A,white,man,,,,null,,,,
null,"<img src=""stim_listA/shout3.gif""</stim_listA>",,html-keyboard-response,230,1094802,0.0-15.0-1.15,43770,List2A,white,man,,,,null,,,,
null,is shouting at,,html-keyboard-response,231,1096822,0.0-15.0-2.15,43770,List2A,white,man,,,,null,,,,
8577,,,survey-text,232,1105402,0.0-15.0-3.15,43770,List2A,white,man,,,,,"{""Q0"":""fred is shouting at beth""}","<img src=""stim_listA/shout3.gif""</stim_listA>",is shouting at,
null,"<div style=""font-size:60px;"">+</div>",,html-keyboard-response,233,1105914,0.0-15.0-0.16,43770,List2A,white,man,,,,null,,,,
null,"<img src=""stim_listA/kiss8.gif""</stim_listA>",,html-keyboard-response,234,1107932,0.0-15.0-1.16,43770,List2A,white,man,,,,null,,,,
null,are kissing each other,,html-keyboard-response,235,1109934,0.0-15.0-2.16,43770,List2A,white,man,,,,null,,,,
16787,,,survey-text,236,1126724,0.0-15.0-3.16,43770,List2A,white,man,,,,,"{""Q0"":""beth and jane are kissing each other""}","<img src=""stim_listA/kiss8.gif""</stim_listA>",are kissing each other,
null,"<div style=""font-size:60px;"">+</div>",,html-keyboard-response,237,1127243,0.0-15.0-0.17,43770,List2A,white,man,,,,null,,,,
null,"<img src=""stim_listA/kiss5.gif""</stim_listA>",,html-keyboard-response,238,1129257,0.0-15.0-1.17,43770,List2A,white,man,,,,null,,,,
null,is kissing,,html-keyboard-response,239,1131259,0.0-15.0-2.17,43770,List2A,white,man,,,,null,,,,
6930,,,survey-text,240,1138191,0.0-15.0-3.17,43770,List2A,white,man,,,,,"{""Q0"":""luke is kissing fred""}","<img src=""stim_listA/kiss5.gif""</stim_listA>",is kissing,
null,"<div style=""font-size:60px;"">+</div>",,html-keyboard-response,241,1138695,0.0-15.0-0.18,43770,List2A,white,man,,,,null,,,,
null,"<img src=""stim_listA/touch1.gif""</stim_listA>",,html-keyboard-response,242,1140707,0.0-15.0-1.18,43770,List2A,white,man,,,,null,,,,
null,is touching,,html-keyboard-response,243,1142710,0.0-15.0-2.18,43770,List2A,white,man,,,,null,,,,
5964,,,survey-text,244,1148676,0.0-15.0-3.18,43770,List2A,white,man,,,,,"{""Q0"":""jane is touching dave""}","<img src=""stim_listA/touch1.gif""</stim_listA>",is touching,
null,"<div style=""font-size:60px;"">+</div>",,html-keyboard-response,245,1149191,0.0-15.0-0.19,43770,List2A,white,man,,,,null,,,,
null,"<img src=""stim_listA/fight8.gif""</stim_listA>",,html-keyboard-response,246,1151198,0.0-15.0-1.19,43770,List2A,white,man,,,,null,,,,
null,are fighting each other,,html-keyboard-response,247,1153200,0.0-15.0-2.19,43770,List2A,white,man,,,,null,,,,
12784,,,survey-text,248,1165986,0.0-15.0-3.19,43770,List2A,white,man,,,,,"{""Q0"":""ruth and beth are fighting each other""}","<img src=""stim_listA/fight8.gif""</stim_listA>",are fighting each other,
10436,"<img src='img/portrait_matrix_list2.JPG' style='width:900px;height:500px;''></img><p>If you have memorised all the portraits and names and are ready to start, press Continue.</p><p><strong>Please note: Your memory of these faces will be tested 4 times during this experiment.</strong></p>",0,html-button-response,249,1176424,0.0-16.0-0.0,43770,List2A,white,man,,,,,,,,
2863,"<img src=""portrait/BW1.jpg""style=""width:400px;height:400px;""></img>",0,html-button-response,250,1180299,0.0-16.0-1.0,43770,List2A,white,man,,TRUE,0,,,,,
null,CORRECT,,html-keyboard-response,251,1181808,0.0-16.0-2.0-0.0,43770,List2A,white,man,,,,null,,,,
2406,"<img src=""portrait/BW2.jpg""style=""width:400px;height:400px;""></img>",2,html-button-response,252,1184217,0.0-16.0-4.0,43770,List2A,white,man,,TRUE,2,,,,,
null,CORRECT,,html-keyboard-response,253,1185737,0.0-16.0-5.0-0.0,43770,List2A,white,man,,,,null,,,,
2866,"<img src=""portrait/WW1.jpg""style=""width:400px;height:400px;""></img>",1,html-button-response,254,1188606,0.0-16.0-7.0,43770,List2A,white,man,,TRUE,1,,,,,
null,CORRECT,,html-keyboard-response,255,1190121,0.0-16.0-8.0-0.0,43770,List2A,white,man,,,,null,,,,
1518,"<img src=""portrait/WM1.jpg""style=""width:400px;height:400px;""></img>",6,html-button-response,256,1191643,0.0-16.0-10.0,43770,List2A,white,man,,TRUE,6,,,,,
null,CORRECT,,html-keyboard-response,257,1193176,0.0-16.0-11.0-0.0,43770,List2A,white,man,,,,null,,,,
2047,"<img src=""portrait/WW2.jpg""style=""width:400px;height:400px;""></img>",3,html-button-response,258,1195227,0.0-16.0-13.0,43770,List2A,white,man,,TRUE,3,,,,,
null,CORRECT,,html-keyboard-response,259,1196746,0.0-16.0-14.0-0.0,43770,List2A,white,man,,,,null,,,,
4871,"<img src=""portrait/BM1.jpg""style=""width:400px;height:400px;""></img>",4,html-button-response,260,1201620,0.0-16.0-16.0,43770,List2A,white,man,,TRUE,4,,,,,
null,CORRECT,,html-keyboard-response,261,1203131,0.0-16.0-17.0-0.0,43770,List2A,white,man,,,,null,,,,
2199,"<img src=""portrait/BM2.jpg""style=""width:400px;height:400px;""></img>",5,html-button-response,262,1205334,0.0-16.0-19.0,43770,List2A,white,man,,TRUE,5,,,,,
null,CORRECT,,html-keyboard-response,263,1206857,0.0-16.0-20.0-0.0,43770,List2A,white,man,,,,null,,,,
1336,"<img src=""portrait/WM2.jpg""style=""width:400px;height:400px;""></img>",7,html-button-response,264,1208197,0.0-16.0-22.0,43770,List2A,white,man,,TRUE,7,,,,,
null,CORRECT,,html-keyboard-response,265,1209724,0.0-16.0-23.0-0.0,43770,List2A,white,man,,,,null,,,,
2121,<p>You got 8 out of 8 right first time. Press Continue.</p>,0,html-button-response,266,1211851,0.0-16.0-25.0,43770,List2A,white,man,,,,,,,,
null,"<div style=""font-size:60px;"">+</div>",,html-keyboard-response,267,1213361,0.0-17.0-0.0,43770,List2A,white,man,,,,null,,,,
null,"<img src=""stim_listA/talk6.gif""</stim_listA>",,html-keyboard-response,268,1215373,0.0-17.0-1.0,43770,List2A,white,man,,,,null,,,,
null,are talking to each other,,html-keyboard-response,269,1217375,0.0-17.0-2.0,43770,List2A,white,man,,,,null,,,,
8486,,,survey-text,270,1225863,0.0-17.0-3.0,43770,List2A,white,man,,,,,"{""Q0"":""dave and fred are talking to each other""}","<img src=""stim_listA/talk6.gif""</stim_listA>",are talking to each other,
null,"<div style=""font-size:60px;"">+</div>",,html-keyboard-response,271,1226366,0.0-17.0-0.1,43770,List2A,white,man,,,,null,,,,
null,"<img src=""stim_listA/meet1.gif""</stim_listA>",,html-keyboard-response,272,1228379,0.0-17.0-1.1,43770,List2A,white,man,,,,null,,,,
null,is meeting,,html-keyboard-response,273,1230381,0.0-17.0-2.1,43770,List2A,white,man,,,,null,,,,
6888,,,survey-text,274,1237271,0.0-17.0-3.1,43770,List2A,white,man,,,,,"{""Q0"":""jane is meeting dave""}","<img src=""stim_listA/meet1.gif""</stim_listA>",is meeting,
null,"<div style=""font-size:60px;"">+</div>",,html-keyboard-response,275,1237778,0.0-17.0-0.2,43770,List2A,white,man,,,,null,,,,
null,"<img src=""stim_listA/hug4.gif""</stim_listA>",,html-keyboard-response,276,1239790,0.0-17.0-1.2,43770,List2A,white,man,,,,null,,,,
null,are hugging each other,,html-keyboard-response,277,1241793,0.0-17.0-2.2,43770,List2A,white,man,,,,null,,,,
9571,,,survey-text,278,1251366,0.0-17.0-3.2,43770,List2A,white,man,,,,,"{""Q0"":""mike and kate are hugging each other""}","<img src=""stim_listA/hug4.gif""</stim_listA>",are hugging each other,
null,"<div style=""font-size:60px;"">+</div>",,html-keyboard-response,279,1251869,0.0-17.0-0.3,43770,List2A,white,man,,,,null,,,,
null,"<img src=""stim_listA/argue7.gif""</stim_listA>",,html-keyboard-response,280,1253871,0.0-17.0-1.3,43770,List2A,white,man,,,,null,,,,
null,is arguing with,,html-keyboard-response,281,1255873,0.0-17.0-2.3,43770,List2A,white,man,,,,null,,,,
10718,,,survey-text,282,1266593,0.0-17.0-3.3,43770,List2A,white,man,,,,,"{""Q0"":""jane is arguing with beth""}","<img src=""stim_listA/argue7.gif""</stim_listA>",is arguing with,
null,"<div style=""font-size:60px;"">+</div>",,html-keyboard-response,283,1267095,0.0-17.0-0.4,43770,List2A,white,man,,,,null,,,,
null,"<img src=""stim_listA/touch8.gif""</stim_listA>",,html-keyboard-response,284,1269102,0.0-17.0-1.4,43770,List2A,white,man,,,,null,,,,
null,are touching each other,,html-keyboard-response,285,1271103,0.0-17.0-2.4,43770,List2A,white,man,,,,null,,,,
18064,,,survey-text,286,1289169,0.0-17.0-3.4,43770,List2A,white,man,,,,,"{""Q0"":""ruth and beth are touching each other""}","<img src=""stim_listA/touch8.gif""</stim_listA>",are touching each other,
null,"<div style=""font-size:60px;"">+</div>",,html-keyboard-response,287,1289675,0.0-17.0-0.5,43770,List2A,white,man,,,,null,,,,
null,"<img src=""stim_listA/dance4.gif""</stim_listA>",,html-keyboard-response,288,1291699,0.0-17.0-1.5,43770,List2A,white,man,,,,null,,,,
null,are dancing with each other,,html-keyboard-response,289,1293700,0.0-17.0-2.5,43770,List2A,white,man,,,,null,,,,
8414,,,survey-text,290,1302117,0.0-17.0-3.5,43770,List2A,white,man,,,,,"{""Q0"":""mike and beth are dancing with each other""}","<img src=""stim_listA/dance4.gif""</stim_listA>",are dancing with each other,
null,"<div style=""font-size:60px;"">+</div>",,html-keyboard-response,291,1302629,0.0-17.0-0.6,43770,List2A,white,man,,,,null,,,,
null,"<img src=""stim_listA/meet4.gif""</stim_listA>",,html-keyboard-response,292,1304634,0.0-17.0-1.6,43770,List2A,white,man,,,,null,,,,
null,are meeting each other,,html-keyboard-response,293,1306639,0.0-17.0-2.6,43770,List2A,white,man,,,,null,,,,
7046,,,survey-text,294,1313687,0.0-17.0-3.6,43770,List2A,white,man,,,,,"{""Q0"":""beth and fred are meeting each other""}","<img src=""stim_listA/meet4.gif""</stim_listA>",are meeting each other,
null,"<div style=""font-size:60px;"">+</div>",,html-keyboard-response,295,1314198,0.0-17.0-0.7,43770,List2A,white,man,,,,null,,,,
null,"<img src=""stim_listA/talk7.gif""</stim_listA>",,html-keyboard-response,296,1316210,0.0-17.0-1.7,43770,List2A,white,man,,,,null,,,,
null,is talking to,,html-keyboard-response,297,1318225,0.0-17.0-2.7,43770,List2A,white,man,,,,null,,,,
6584,,,survey-text,298,1324812,0.0-17.0-3.7,43770,List2A,white,man,,,,,"{""Q0"":""ruth is talking to kate""}","<img src=""stim_listA/talk7.gif""</stim_listA>",is talking to,
null,"<div style=""font-size:60px;"">+</div>",,html-keyboard-response,299,1325327,0.0-17.0-0.8,43770,List2A,white,man,,,,null,,,,
null,"<img src=""stim_listA/fight5.gif""</stim_listA>",,html-keyboard-response,300,1327332,0.0-17.0-1.8,43770,List2A,white,man,,,,null,,,,
null,is fighting,,html-keyboard-response,301,1329335,0.0-17.0-2.8,43770,List2A,white,man,,,,null,,,,
6523,,,survey-text,302,1335860,0.0-17.0-3.8,43770,List2A,white,man,,,,,"{""Q0"":""dave is fighting mike""}","<img src=""stim_listA/fight5.gif""</stim_listA>",is fighting,
null,"<div style=""font-size:60px;"">+</div>",,html-keyboard-response,303,1336363,0.0-17.0-0.9,43770,List2A,white,man,,,,null,,,,
null,"<img src=""stim_listA/shout4.gif""</stim_listA>",,html-keyboard-response,304,1338368,0.0-17.0-1.9,43770,List2A,white,man,,,,null,,,,
null,are shouting at each other,,html-keyboard-response,305,1340373,0.0-17.0-2.9,43770,List2A,white,man,,,,null,,,,
8631,,,survey-text,306,1349006,0.0-17.0-3.9,43770,List2A,white,man,,,,,"{""Q0"":""kate and mike are shouting at each other""}","<img src=""stim_listA/shout4.gif""</stim_listA>",are shouting at each other,
null,"<div style=""font-size:60px;"">+</div>",,html-keyboard-response,307,1349512,0.0-17.0-0.10,43770,List2A,white,man,,,,null,,,,
null,"<img src=""stim_listA/touch6.gif""</stim_listA>",,html-keyboard-response,308,1351523,0.0-17.0-1.10,43770,List2A,white,man,,,,null,,,,
null,are touching each other,,html-keyboard-response,309,1353531,0.0-17.0-2.10,43770,List2A,white,man,,,,null,,,,
11472,,,survey-text,310,1365007,0.0-17.0-3.10,43770,List2A,white,man,,,,,"{""Q0"":""fred and luke are touching each other""}","<img src=""stim_listA/touch6.gif""</stim_listA>",are touching each other,
null,"<div style=""font-size:60px;"">+</div>",,html-keyboard-response,311,1365517,0.0-17.0-0.11,43770,List2A,white,man,,,,null,,,,
null,"<img src=""stim_listA/marry4.gif""</stim_listA>",,html-keyboard-response,312,1367521,0.0-17.0-1.11,43770,List2A,white,man,,,,null,,,,
null,are marrying each other,,html-keyboard-response,313,1369537,0.0-17.0-2.11,43770,List2A,white,man,,,,null,,,,
9784,,,survey-text,314,1379323,0.0-17.0-3.11,43770,List2A,white,man,,,,,"{""Q0"":""fred and kate are marrying each other""}","<img src=""stim_listA/marry4.gif""</stim_listA>",are marrying each other,
null,"<div style=""font-size:60px;"">+</div>",,html-keyboard-response,315,1379825,0.0-17.0-0.12,43770,List2A,white,man,,,,null,,,,
null,"<img src=""stim_listA/kiss2.gif""</stim_listA>",,html-keyboard-response,316,1381827,0.0-17.0-1.12,43770,List2A,white,man,,,,null,,,,
null,are kissing each other,,html-keyboard-response,317,1383829,0.0-17.0-2.12,43770,List2A,white,man,,,,null,,,,
13011,,,survey-text,318,1396842,0.0-17.0-3.12,43770,List2A,white,man,,,,,"{""Q0"":""jane and dave are kissing each other""}","<img src=""stim_listA/kiss2.gif""</stim_listA>",are kissing each other,
null,"<div style=""font-size:60px;"">+</div>",,html-keyboard-response,319,1397345,0.0-17.0-0.13,43770,List2A,white,man,,,,null,,,,
null,"<img src=""stim_listA/hug7.gif""</stim_listA>",,html-keyboard-response,320,1399352,0.0-17.0-1.13,43770,List2A,white,man,,,,null,,,,
null,is hugging,,html-keyboard-response,321,1401353,0.0-17.0-2.13,43770,List2A,white,man,,,,null,,,,
7471,,,survey-text,322,1408826,0.0-17.0-3.13,43770,List2A,white,man,,,,,"{""Q0"":""beth is hugging ruth""}","<img src=""stim_listA/hug7.gif""</stim_listA>",is hugging,
null,"<div style=""font-size:60px;"">+</div>",,html-keyboard-response,323,1409334,0.0-17.0-0.14,43770,List2A,white,man,,,,null,,,,
null,"<img src=""stim_listA/dance3.gif""</stim_listA>",,html-keyboard-response,324,1411343,0.0-17.0-1.14,43770,List2A,white,man,,,,null,,,,
null,is dancing with,,html-keyboard-response,325,1413345,0.0-17.0-2.14,43770,List2A,white,man,,,,null,,,,
7253,,,survey-text,326,1420600,0.0-17.0-3.14,43770,List2A,white,man,,,,,"{""Q0"":""kate is dancing with fred""}","<img src=""stim_listA/dance3.gif""</stim_listA>",is dancing with,
null,"<div style=""font-size:60px;"">+</div>",,html-keyboard-response,327,1421125,0.0-17.0-0.15,43770,List2A,white,man,,,,null,,,,
null,"<img src=""stim_listA/dance5.gif""</stim_listA>",,html-keyboard-response,328,1423140,0.0-17.0-1.15,43770,List2A,white,man,,,,null,,,,
null,is dancing with,,html-keyboard-response,329,1425155,0.0-17.0-2.15,43770,List2A,white,man,,,,null,,,,
6724,,,survey-text,330,1431881,0.0-17.0-3.15,43770,List2A,white,man,,,,,"{""Q0"":""mike is dancing with luke""}","<img src=""stim_listA/dance5.gif""</stim_listA>",is dancing with,
null,"<div style=""font-size:60px;"">+</div>",,html-keyboard-response,331,1432400,0.0-17.0-0.16,43770,List2A,white,man,,,,null,,,,
null,"<img src=""stim_listA/hug5.gif""</stim_listA>",,html-keyboard-response,332,1434407,0.0-17.0-1.16,43770,List2A,white,man,,,,null,,,,
null,is hugging,,html-keyboard-response,333,1436412,0.0-17.0-2.16,43770,List2A,white,man,,,,null,,,,
5793,,,survey-text,334,1442208,0.0-17.0-3.16,43770,List2A,white,man,,,,,"{""Q0"":""luke is hugging fred""}","<img src=""stim_listA/hug5.gif""</stim_listA>",is hugging,
null,"<div style=""font-size:60px;"">+</div>",,html-keyboard-response,335,1442711,0.0-17.0-0.17,43770,List2A,white,man,,,,null,,,,
null,"<img src=""stim_listA/hug8.gif""</stim_listA>",,html-keyboard-response,336,1444722,0.0-17.0-1.17,43770,List2A,white,man,,,,null,,,,
null,are hugging each other,,html-keyboard-response,337,1446734,0.0-17.0-2.17,43770,List2A,white,man,,,,null,,,,
10806,,,survey-text,338,1457542,0.0-17.0-3.17,43770,List2A,white,man,,,,,"{""Q0"":""jane and kate are hugging each other""}","<img src=""stim_listA/hug8.gif""</stim_listA>",are hugging each other,
null,"<div style=""font-size:60px;"">+</div>",,html-keyboard-response,339,1458044,0.0-17.0-0.18,43770,List2A,white,man,,,,null,,,,
null,"<img src=""stim_listA/shout2.gif""</stim_listA>",,html-keyboard-response,340,1460054,0.0-17.0-1.18,43770,List2A,white,man,,,,null,,,,
null,are shouting at each other,,html-keyboard-response,341,1462071,0.0-17.0-2.18,43770,List2A,white,man,,,,null,,,,
10600,,,survey-text,342,1472673,0.0-17.0-3.18,43770,List2A,white,man,,,,,"{""Q0"":""jane and dave are shouting at each other""}","<img src=""stim_listA/shout2.gif""</stim_listA>",are shouting at each other,
null,"<div style=""font-size:60px;"">+</div>",,html-keyboard-response,343,1473178,0.0-17.0-0.19,43770,List2A,white,man,,,,null,,,,
null,"<img src=""stim_listA/kiss1.gif""</stim_listA>",,html-keyboard-response,344,1475180,0.0-17.0-1.19,43770,List2A,white,man,,,,null,,,,
null,is kissing,,html-keyboard-response,345,1477182,0.0-17.0-2.19,43770,List2A,white,man,,,,null,,,,
5807,,,survey-text,346,1482992,0.0-17.0-3.19,43770,List2A,white,man,,,,,"{""Q0"":""luke is kissing ruth""}","<img src=""stim_listA/kiss1.gif""</stim_listA>",is kissing,
4825,"<img src='img/portrait_matrix_list2.JPG' style='width:900px;height:500px;''></img><p>If you have memorised all the portraits and names and are ready to start, press Continue.</p><p><strong>Please note: Your memory of these faces will be tested 4 times during this experiment.</strong></p>",0,html-button-response,347,1487821,0.0-18.0-0.0,43770,List2A,white,man,,,,,,,,
3917,"<img src=""portrait/BM1.jpg""style=""width:400px;height:400px;""></img>",4,html-button-response,348,1492758,0.0-18.0-1.0,43770,List2A,white,man,,TRUE,4,,,,,
null,CORRECT,,html-keyboard-response,349,1494282,0.0-18.0-2.0-0.0,43770,List2A,white,man,,,,null,,,,
1584,"<img src=""portrait/BM2.jpg""style=""width:400px;height:400px;""></img>",5,html-button-response,350,1495872,0.0-18.0-4.0,43770,List2A,white,man,,TRUE,5,,,,,
null,CORRECT,,html-keyboard-response,351,1497377,0.0-18.0-5.0-0.0,43770,List2A,white,man,,,,null,,,,
1852,"<img src=""portrait/BW2.jpg""style=""width:400px;height:400px;""></img>",2,html-button-response,352,1499233,0.0-18.0-7.0,43770,List2A,white,man,,TRUE,2,,,,,
null,CORRECT,,html-keyboard-response,353,1500750,0.0-18.0-8.0-0.0,43770,List2A,white,man,,,,null,,,,
2081,"<img src=""portrait/WW2.jpg""style=""width:400px;height:400px;""></img>",3,html-button-response,354,1502835,0.0-18.0-10.0,43770,List2A,white,man,,TRUE,3,,,,,
null,CORRECT,,html-keyboard-response,355,1504358,0.0-18.0-11.0-0.0,43770,List2A,white,man,,,,null,,,,
1772,"<img src=""portrait/WW1.jpg""style=""width:400px;height:400px;""></img>",1,html-button-response,356,1506134,0.0-18.0-13.0,43770,List2A,white,man,,TRUE,1,,,,,
null,CORRECT,,html-keyboard-response,357,1507650,0.0-18.0-14.0-0.0,43770,List2A,white,man,,,,null,,,,
1119,"<img src=""portrait/WM2.jpg""style=""width:400px;height:400px;""></img>",7,html-button-response,358,1508772,0.0-18.0-16.0,43770,List2A,white,man,,TRUE,7,,,,,
null,CORRECT,,html-keyboard-response,359,1510293,0.0-18.0-17.0-0.0,43770,List2A,white,man,,,,null,,,,
1832,"<img src=""portrait/BW1.jpg""style=""width:400px;height:400px;""></img>",0,html-button-response,360,1512129,0.0-18.0-19.0,43770,List2A,white,man,,TRUE,0,,,,,
null,CORRECT,,html-keyboard-response,361,1513644,0.0-18.0-20.0-0.0,43770,List2A,white,man,,,,null,,,,
1524,"<img src=""portrait/WM1.jpg""style=""width:400px;height:400px;""></img>",6,html-button-response,362,1515171,0.0-18.0-22.0,43770,List2A,white,man,,TRUE,6,,,,,
null,CORRECT,,html-keyboard-response,363,1516711,0.0-18.0-23.0-0.0,43770,List2A,white,man,,,,null,,,,
1633,<p>You got 8 out of 8 right first time. Press Continue.</p>,0,html-button-response,364,1518347,0.0-18.0-25.0,43770,List2A,white,man,,,,,,,,
null,"<div style=""font-size:60px;"">+</div>",,html-keyboard-response,365,1519866,0.0-19.0-0.0,43770,List2A,white,man,,,,null,,,,
null,"<img src=""stim_listA/meet5.gif""</stim_listA>",,html-keyboard-response,366,1521884,0.0-19.0-1.0,43770,List2A,white,man,,,,null,,,,
null,is meeting,,html-keyboard-response,367,1523897,0.0-19.0-2.0,43770,List2A,white,man,,,,null,,,,
5715,,,survey-text,368,1529614,0.0-19.0-3.0,43770,List2A,white,man,,,,,"{""Q0"":""mike is meeting dave""}","<img src=""stim_listA/meet5.gif""</stim_listA>",is meeting,
null,"<div style=""font-size:60px;"">+</div>",,html-keyboard-response,369,1530131,0.0-19.0-0.1,43770,List2A,white,man,,,,null,,,,
null,"<img src=""stim_listA/fight3.gif""</stim_listA>",,html-keyboard-response,370,1532141,0.0-19.0-1.1,43770,List2A,white,man,,,,null,,,,
null,is fighting,,html-keyboard-response,371,1534143,0.0-19.0-2.1,43770,List2A,white,man,,,,null,,,,
5833,,,survey-text,372,1539978,0.0-19.0-3.1,43770,List2A,white,man,,,,,"{""Q0"":""mike is fighting kate""}","<img src=""stim_listA/fight3.gif""</stim_listA>",is fighting,
null,"<div style=""font-size:60px;"">+</div>",,html-keyboard-response,373,1540481,0.0-19.0-0.2,43770,List2A,white,man,,,,null,,,,
null,"<img src=""stim_listA/talk8.gif""</stim_listA>",,html-keyboard-response,374,1542492,0.0-19.0-1.2,43770,List2A,white,man,,,,null,,,,
null,are talking to each other,,html-keyboard-response,375,1544515,0.0-19.0-2.2,43770,List2A,white,man,,,,null,,,,
8152,,,survey-text,376,1552669,0.0-19.0-3.2,43770,List2A,white,man,,,,,"{""Q0"":""beth and jane are talking to each other""}","<img src=""stim_listA/talk8.gif""</stim_listA>",are talking to each other,
null,"<div style=""font-size:60px;"">+</div>",,html-keyboard-response,377,1553172,0.0-19.0-0.3,43770,List2A,white,man,,,,null,,,,
null,"<img src=""stim_listA/hug1.gif""</stim_listA>",,html-keyboard-response,378,1555177,0.0-19.0-1.3,43770,List2A,white,man,,,,null,,,,
null,is hugging,,html-keyboard-response,379,1557190,0.0-19.0-2.3,43770,List2A,white,man,,,,null,,,,
6499,,,survey-text,380,1563691,0.0-19.0-3.3,43770,List2A,white,man,,,,,"{""Q0"":""luke is hugging ruth""}","<img src=""stim_listA/hug1.gif""</stim_listA>",is hugging,
null,"<div style=""font-size:60px;"">+</div>",,html-keyboard-response,381,1564197,0.0-19.0-0.4,43770,List2A,white,man,,,,null,,,,
null,"<img src=""stim_listA/meet7.gif""</stim_listA>",,html-keyboard-response,382,1566201,0.0-19.0-1.4,43770,List2A,white,man,,,,null,,,,
null,is meeting,,html-keyboard-response,383,1568203,0.0-19.0-2.4,43770,List2A,white,man,,,,null,,,,
4607,,,survey-text,384,1572812,0.0-19.0-3.4,43770,List2A,white,man,,,,,"{""Q0"":""jane is meeting kate""}","<img src=""stim_listA/meet7.gif""</stim_listA>",is meeting,
null,"<div style=""font-size:60px;"">+</div>",,html-keyboard-response,385,1573325,0.0-19.0-0.5,43770,List2A,white,man,,,,null,,,,
null,"<img src=""stim_listA/shout7.gif""</stim_listA>",,html-keyboard-response,386,1575332,0.0-19.0-1.5,43770,List2A,white,man,,,,null,,,,
null,is shouting at,,html-keyboard-response,387,1577335,0.0-19.0-2.5,43770,List2A,white,man,,,,null,,,,
7054,,,survey-text,388,1584391,0.0-19.0-3.5,43770,List2A,white,man,,,,,"{""Q0"":""ruth is shouting at beth""}","<img src=""stim_listA/shout7.gif""</stim_listA>",is shouting at,
null,"<div style=""font-size:60px;"">+</div>",,html-keyboard-response,389,1584893,0.0-19.0-0.6,43770,List2A,white,man,,,,null,,,,
null,"<img src=""stim_listA/fight1.gif""</stim_listA>",,html-keyboard-response,390,1586896,0.0-19.0-1.6,43770,List2A,white,man,,,,null,,,,
null,is fighting,,html-keyboard-response,391,1588898,0.0-19.0-2.6,43770,List2A,white,man,,,,null,,,,
5060,,,survey-text,392,1593960,0.0-19.0-3.6,43770,List2A,white,man,,,,,"{""Q0"":""dave is fighting jane""}","<img src=""stim_listA/fight1.gif""</stim_listA>",is fighting,
null,"<div style=""font-size:60px;"">+</div>",,html-keyboard-response,393,1594472,0.0-19.0-0.7,43770,List2A,white,man,,,,null,,,,
null,"<img src=""stim_listA/fight6.gif""</stim_listA>",,html-keyboard-response,394,1596477,0.0-19.0-1.7,43770,List2A,white,man,,,,null,,,,
null,are fighting each other,,html-keyboard-response,395,1598479,0.0-19.0-2.7,43770,List2A,white,man,,,,null,,,,
13455,,,survey-text,396,1611936,0.0-19.0-3.7,43770,List2A,white,man,,,,,"{""Q0"":""fred and luke are fighting each other""}","<img src=""stim_listA/fight6.gif""</stim_listA>",are fighting each other,
null,"<div style=""font-size:60px;"">+</div>",,html-keyboard-response,397,1612438,0.0-19.0-0.8,43770,List2A,white,man,,,,null,,,,
null,"<img src=""stim_listA/talk3.gif""</stim_listA>",,html-keyboard-response,398,1614448,0.0-19.0-1.8,43770,List2A,white,man,,,,null,,,,
null,is talking to,,html-keyboard-response,399,1616462,0.0-19.0-2.8,43770,List2A,white,man,,,,null,,,,
5971,,,survey-text,400,1622435,0.0-19.0-3.8,43770,List2A,white,man,,,,,"{""Q0"":""fred is talking to kate""}","<img src=""stim_listA/talk3.gif""</stim_listA>",is talking to,
null,"<div style=""font-size:60px;"">+</div>",,html-keyboard-response,401,1622938,0.0-19.0-0.9,43770,List2A,white,man,,,,null,,,,
null,"<img src=""stim_listA/marry7.gif""</stim_listA>",,html-keyboard-response,402,1624951,0.0-19.0-1.9,43770,List2A,white,man,,,,null,,,,
null,is marrying,,html-keyboard-response,403,1626956,0.0-19.0-2.9,43770,List2A,white,man,,,,null,,,,
8605,,,survey-text,404,1635564,0.0-19.0-3.9,43770,List2A,white,man,,,,,"{""Q0"":""jane is marrying beth""}","<img src=""stim_listA/marry7.gif""</stim_listA>",is marrying,
null,"<div style=""font-size:60px;"">+</div>",,html-keyboard-response,405,1636067,0.0-19.0-0.10,43770,List2A,white,man,,,,null,,,,
null,"<img src=""stim_listA/shout6.gif""</stim_listA>",,html-keyboard-response,406,1638071,0.0-19.0-1.10,43770,List2A,white,man,,,,null,,,,
null,are shouting at each other,,html-keyboard-response,407,1640072,0.0-19.0-2.10,43770,List2A,white,man,,,,null,,,,
8622,,,survey-text,408,1648697,0.0-19.0-3.10,43770,List2A,white,man,,,,,"{""Q0"":""mike and dave are shouting at each other""}","<img src=""stim_listA/shout6.gif""</stim_listA>",are shouting at each other,
null,"<div style=""font-size:60px;"">+</div>",,html-keyboard-response,409,1649200,0.0-19.0-0.11,43770,List2A,white,man,,,,null,,,,
null,"<img src=""stim_listA/hug2.gif""</stim_listA>",,html-keyboard-response,410,1651208,0.0-19.0-1.11,43770,List2A,white,man,,,,null,,,,
null,are hugging each other,,html-keyboard-response,411,1653211,0.0-19.0-2.11,43770,List2A,white,man,,,,null,,,,
10289,,,survey-text,412,1663504,0.0-19.0-3.11,43770,List2A,white,man,,,,,"{""Q0"":""dave and jane are hugging each other""}","<img src=""stim_listA/hug2.gif""</stim_listA>",are hugging each other,
null,"<div style=""font-size:60px;"">+</div>",,html-keyboard-response,413,1664018,0.0-19.0-0.12,43770,List2A,white,man,,,,null,,,,
null,"<img src=""stim_listA/hug6.gif""</stim_listA>",,html-keyboard-response,414,1666036,0.0-19.0-1.12,43770,List2A,white,man,,,,null,,,,
null,are hugging each other,,html-keyboard-response,415,1668039,0.0-19.0-2.12,43770,List2A,white,man,,,,null,,,,
12218,,,survey-text,416,1680260,0.0-19.0-3.12,43770,List2A,white,man,,,,,"{""Q0"":""mike and dave are hugging each other""}","<img src=""stim_listA/hug6.gif""</stim_listA>",are hugging each other,
null,"<div style=""font-size:60px;"">+</div>",,html-keyboard-response,417,1680767,0.0-19.0-0.13,43770,List2A,white,man,,,,null,,,,
null,"<img src=""stim_listA/argue1.gif""</stim_listA>",,html-keyboard-response,418,1682774,0.0-19.0-1.13,43770,List2A,white,man,,,,null,,,,
null,is arguing with,,html-keyboard-response,419,1684789,0.0-19.0-2.13,43770,List2A,white,man,,,,null,,,,
7146,,,survey-text,420,1691939,0.0-19.0-3.13,43770,List2A,white,man,,,,,"{""Q0"":""dave is arguing with ruth""}","<img src=""stim_listA/argue1.gif""</stim_listA>",is arguing with,
null,"<div style=""font-size:60px;"">+</div>",,html-keyboard-response,421,1692442,0.0-19.0-0.14,43770,List2A,white,man,,,,null,,,,
null,"<img src=""stim_listA/dance8.gif""</stim_listA>",,html-keyboard-response,422,1694460,0.0-19.0-1.14,43770,List2A,white,man,,,,null,,,,
null,are dancing with each other,,html-keyboard-response,423,1696462,0.0-19.0-2.14,43770,List2A,white,man,,,,null,,,,
8608,,,survey-text,424,1705073,0.0-19.0-3.14,43770,List2A,white,man,,,,,"{""Q0"":""jane and beth are dancing with each other""}","<img src=""stim_listA/dance8.gif""</stim_listA>",are dancing with each other,
null,"<div style=""font-size:60px;"">+</div>",,html-keyboard-response,425,1705590,0.0-19.0-0.15,43770,List2A,white,man,,,,null,,,,
null,"<img src=""stim_listA/talk1.gif""</stim_listA>",,html-keyboard-response,426,1707598,0.0-19.0-1.15,43770,List2A,white,man,,,,null,,,,
null,is talking to,,html-keyboard-response,427,1709600,0.0-19.0-2.15,43770,List2A,white,man,,,,null,,,,
11881,,,survey-text,428,1721484,0.0-19.0-3.15,43770,List2A,white,man,,,,,"{""Q0"":""luke is talking to jane""}","<img src=""stim_listA/talk1.gif""</stim_listA>",is talking to,
null,"<div style=""font-size:60px;"">+</div>",,html-keyboard-response,429,1721987,0.0-19.0-0.16,43770,List2A,white,man,,,,null,,,,
null,"<img src=""stim_listA/argue2.gif""</stim_listA>",,html-keyboard-response,430,1723990,0.0-19.0-1.16,43770,List2A,white,man,,,,null,,,,
null,are arguing with each other,,html-keyboard-response,431,1725993,0.0-19.0-2.16,43770,List2A,white,man,,,,null,,,,
8107,,,survey-text,432,1734102,0.0-19.0-3.16,43770,List2A,white,man,,,,,"{""Q0"":""jane and luke are arguing with each other""}","<img src=""stim_listA/argue2.gif""</stim_listA>",are arguing with each other,
null,"<div style=""font-size:60px;"">+</div>",,html-keyboard-response,433,1734611,0.0-19.0-0.17,43770,List2A,white,man,,,,null,,,,
null,"<img src=""stim_listA/marry5.gif""</stim_listA>",,html-keyboard-response,434,1736618,0.0-19.0-1.17,43770,List2A,white,man,,,,null,,,,
null,is marrying,,html-keyboard-response,435,1738620,0.0-19.0-2.17,43770,List2A,white,man,,,,null,,,,
5821,,,survey-text,436,1744443,0.0-19.0-3.17,43770,List2A,white,man,,,,,"{""Q0"":""dave is marrying fred""}","<img src=""stim_listA/marry5.gif""</stim_listA>",is marrying,
null,"<div style=""font-size:60px;"">+</div>",,html-keyboard-response,437,1744946,0.0-19.0-0.18,43770,List2A,white,man,,,,null,,,,
null,"<img src=""stim_listA/argue5.gif""</stim_listA>",,html-keyboard-response,438,1746951,0.0-19.0-1.18,43770,List2A,white,man,,,,null,,,,
null,is arguing with,,html-keyboard-response,439,1748958,0.0-19.0-2.18,43770,List2A,white,man,,,,null,,,,
7466,,,survey-text,440,1756427,0.0-19.0-3.18,43770,List2A,white,man,,,,,"{""Q0"":""dave is arguing with fred""}","<img src=""stim_listA/argue5.gif""</stim_listA>",is arguing with,
null,"<div style=""font-size:60px;"">+</div>",,html-keyboard-response,441,1756933,0.0-19.0-0.19,43770,List2A,white,man,,,,null,,,,
null,"<img src=""stim_listA/dance7.gif""</stim_listA>",,html-keyboard-response,442,1758936,0.0-19.0-1.19,43770,List2A,white,man,,,,null,,,,
null,is dancing with,,html-keyboard-response,443,1760937,0.0-19.0-2.19,43770,List2A,white,man,,,,null,,,,
6170,,,survey-text,444,1767111,0.0-19.0-3.19,43770,List2A,white,man,,,,,"{""Q0"":""ruth is dancing with kate""}","<img src=""stim_listA/dance7.gif""</stim_listA>",is dancing with,
2580,<p>Thank you for completing that task.</p><p>The final part of this session is a short questionnaire.</p><p>Press Continue.</p>,0,html-button-response,445,1769693,0.0-20.0,43770,List2A,white,man,,,,,,,,
33363,,,survey-text,446,1804069,0.0-21.0,43770,List2A,white,man,,,,,"{""Q0"":""35"",""Q1"":""English"",""Q2"":""English"",""Q3"":""United Kingdom"",""Q4"":""White"",""Q5"":""Male""}",,,demographics
63174,,,survey-likert,447,1867260,0.0-22.0,43770,List2A,white,man,,,,,"{""Q0"":5,""Q1"":3,""Q2"":5,""Q3"":6,""Q4"":5,""Q5"":5,""Q6"":5,""Q7"":1,""Q8"":5,""Q9"":5,""Q10"":6,""Q11"":5,""Q12"":6,""Q13"":4}",,,likert_race
58253,,,survey-likert,448,1925540,0.0-23.0,43770,List2A,white,man,,,,,"{""Q0"":5,""Q1"":3,""Q2"":5,""Q3"":5,""Q4"":5,""Q5"":5,""Q6"":5,""Q7"":1,""Q8"":5,""Q9"":5,""Q10"":6,""Q11"":5,""Q12"":5,""Q13"":4}",,,likert_gender
5671,,,survey-text,449,1931224,0.0-24.0,43770,List2A,white,man,,,,,"{""Q0"":""ccc""}",,,worker_id
13405,,,external-html,450,1944719,0.0-25.0,43770,List2A,white,man,debrief.html,,,,,,,
