rt,stimulus,button_pressed,trial_type,trial_index,time_elapsed,internal_node_id,subject,list,ppt_race,ppt_gender,url,first_guess,correct,key_press,responses,image_type,phrase_type,test_part
3155,Welcome to the experiment. Press Continue to begin.,0,html-button-response,0,3159,0.0-0.0,43832,List2A,white,man,,,,,,,,
6674,,,external-html,1,10876,0.0-1.0,43832,List2A,white,man,consent.html,,,,,,,
14059,"<p>On the next page, you will see portraits of 8 people and their names.</p><p>Your first task is to take a few minutes to memorise the names of these people.</p><p>You will have to recall their names during the rest of the experiment, so it is</p><p>essential that you try to memorise these people and their names as best as you can.</p><br><p><strong>You will then be tested on your memory of these names and portraits.</strong></p><br><p>The experiment will start after you have completed this memory test.</p><br><p>Ready?</p>",0,html-button-response,2,24936,0.0-2.0,43832,List2A,white,man,,,,,,,,
62324,"<img src='img/portrait_matrix_list2.JPG' style='width:900px;height:500px;''></img><p>If you have memorised all the portraits and names and are ready to start, press Continue.</p><p><strong>Please note: Your memory of these faces will be tested 4 times during this experiment.</strong></p>",0,html-button-response,3,88264,0.0-3.0-0.0,43832,List2A,white,man,,,,,,,,
3394,"<img src=""portrait/WM1.jpg""style=""width:400px;height:400px;""></img>",6,html-button-response,4,92675,0.0-3.0-1.0,43832,List2A,white,man,,TRUE,6,,,,,
null,CORRECT,,html-keyboard-response,5,94190,0.0-3.0-2.0-0.0,43832,List2A,white,man,,,,null,,,,
4649,"<img src=""portrait/BW2.jpg""style=""width:400px;height:400px;""></img>",2,html-button-response,6,98841,0.0-3.0-4.0,43832,List2A,white,man,,TRUE,2,,,,,
null,CORRECT,,html-keyboard-response,7,100354,0.0-3.0-5.0-0.0,43832,List2A,white,man,,,,null,,,,
5429,"<img src=""portrait/BM1.jpg""style=""width:400px;height:400px;""></img>",4,html-button-response,8,105783,0.0-3.0-7.0,43832,List2A,white,man,,TRUE,4,,,,,
null,CORRECT,,html-keyboard-response,9,107302,0.0-3.0-8.0-0.0,43832,List2A,white,man,,,,null,,,,
6146,"<img src=""portrait/BM2.jpg""style=""width:400px;height:400px;""></img>",5,html-button-response,10,113451,0.0-3.0-10.0,43832,List2A,white,man,,TRUE,5,,,,,
null,CORRECT,,html-keyboard-response,11,114972,0.0-3.0-11.0-0.0,43832,List2A,white,man,,,,null,,,,
4885,"<img src=""portrait/BW1.jpg""style=""width:400px;height:400px;""></img>",0,html-button-response,12,119859,0.0-3.0-13.0,43832,List2A,white,man,,TRUE,0,,,,,
null,CORRECT,,html-keyboard-response,13,121380,0.0-3.0-14.0-0.0,43832,List2A,white,man,,,,null,,,,
3307,"<img src=""portrait/WM2.jpg""style=""width:400px;height:400px;""></img>",7,html-button-response,14,124688,0.0-3.0-16.0,43832,List2A,white,man,,TRUE,7,,,,,
null,CORRECT,,html-keyboard-response,15,126210,0.0-3.0-17.0-0.0,43832,List2A,white,man,,,,null,,,,
15266,"<img src=""portrait/WW1.jpg""style=""width:400px;height:400px;""></img>",1,html-button-response,16,141478,0.0-3.0-19.0,43832,List2A,white,man,,TRUE,1,,,,,
null,CORRECT,,html-keyboard-response,17,142986,0.0-3.0-20.0-0.0,43832,List2A,white,man,,,,null,,,,
4604,"<img src=""portrait/WW2.jpg""style=""width:400px;height:400px;""></img>",3,html-button-response,18,147592,0.0-3.0-22.0,43832,List2A,white,man,,TRUE,3,,,,,
null,CORRECT,,html-keyboard-response,19,149100,0.0-3.0-23.0-0.0,43832,List2A,white,man,,,,null,,,,
2115,<p>You got 8 out of 8 right first time. Press Continue.</p>,0,html-button-response,20,151216,0.0-3.0-25.0,43832,List2A,white,man,,,,,,,,
29893,"<p>In this experiment, you will view photographs of the people from the memory game interacting.</p><p>By using the <strong>exact</strong> phrase given <i>after</i> the photograph appears and recalling the correct names of the people in the photographs, form a sentence describing the interaction. You do not need to capitalise names.</p><p>Type your answer in the space provided. Please complete every sentence before moving onto the next trial.</p><p>You will only have a few seconds to memorise each given photograph and phrase before you can respond, so try your best to focus.</p><p>An example is given below. Press 'Continue' when you are ready.</p><img src='img/speaking_example_v2.jpg' style='width:800px;height:460px;''></img>",0,html-button-response,21,182116,0.0-4.0,43832,List2A,white,man,,,,,,,,
4069,"<p>Before the experiment starts, you will watch two example trials. Press 'Continue'.</p>",0,html-button-response,22,187199,0.0-5.0,43832,List2A,white,man,,,,,,,,
null,<img src='img/speaking_WW.gif'></img>,,html-keyboard-response,23,190215,0.0-6.0,43832,List2A,white,man,,,,null,,,,
null,<p>is speaking to</p>,,html-keyboard-response,24,192228,0.0-7.0,43832,List2A,white,man,,,,null,,,,
20813,<p><b>Answer:</b> jane is speaking to ruth</p>,0,html-button-response,25,213042,0.0-8.0,43832,List2A,white,man,,,,,,,,
null,<img src='img/pointing_BM.gif'></img>,,html-keyboard-response,26,216054,0.0-9.0,43832,List2A,white,man,,,,null,,,,
null,<p>are pointing at each other</p>,,html-keyboard-response,27,218068,0.0-10.0,43832,List2A,white,man,,,,null,,,,
1701,<p><b>Answer:</b> fred and mike are pointing at each other</p>,0,html-button-response,28,219770,0.0-11.0,43832,List2A,white,man,,,,,,,,
1913,"<p>Ready to start the experiment?</p><br><p><strong>Remember to describe the picture using a full sentence,</strong></p><p><strong>that combines the names of the people with the given phrase.</strong></p><p><strong>If you do not do this correctly you will not be paid.</strong></p><p><strong> You do not need to capitalise names or use punctuation.</strong></p><br><p>Press 'Continue' to begin.</p>",0,html-button-response,29,222689,0.0-12.0,43832,List2A,white,man,,,,,,,,
null,"<div style=""font-size:60px;"">+</div>",,html-keyboard-response,30,224200,0.0-13.0-0.0,43832,List2A,white,man,,,,null,,,,
null,"<img src=""stim_listA/marry4.gif""</stim_listA>",,html-keyboard-response,31,226211,0.0-13.0-1.0,43832,List2A,white,man,,,,null,,,,
null,are marrying each other,,html-keyboard-response,32,228223,0.0-13.0-2.0,43832,List2A,white,man,,,,null,,,,
13142,,,survey-text,33,241366,0.0-13.0-3.0,43832,List2A,white,man,,,,,"{""Q0"":""kate and fred are marrying each other""}","<img src=""stim_listA/marry4.gif""</stim_listA>",are marrying each other,
null,"<div style=""font-size:60px;"">+</div>",,html-keyboard-response,34,241881,0.0-13.0-0.1,43832,List2A,white,man,,,,null,,,,
null,"<img src=""stim_listA/dance5.gif""</stim_listA>",,html-keyboard-response,35,243892,0.0-13.0-1.1,43832,List2A,white,man,,,,null,,,,
null,is dancing with,,html-keyboard-response,36,245905,0.0-13.0-2.1,43832,List2A,white,man,,,,null,,,,
23546,,,survey-text,37,269452,0.0-13.0-3.1,43832,List2A,white,man,,,,,"{""Q0"":""mike and dave are dancing with each other""}","<img src=""stim_listA/dance5.gif""</stim_listA>",is dancing with,
null,"<div style=""font-size:60px;"">+</div>",,html-keyboard-response,38,269957,0.0-13.0-0.2,43832,List2A,white,man,,,,null,,,,
null,"<img src=""stim_listA/argue3.gif""</stim_listA>",,html-keyboard-response,39,271972,0.0-13.0-1.2,43832,List2A,white,man,,,,null,,,,
null,is arguing with,,html-keyboard-response,40,273975,0.0-13.0-2.2,43832,List2A,white,man,,,,null,,,,
15605,,,survey-text,41,289582,0.0-13.0-3.2,43832,List2A,white,man,,,,,"{""Q0"":""mike and beth are arguing""}","<img src=""stim_listA/argue3.gif""</stim_listA>",is arguing with,
null,"<div style=""font-size:60px;"">+</div>",,html-keyboard-response,42,290083,0.0-13.0-0.3,43832,List2A,white,man,,,,null,,,,
null,"<img src=""stim_listA/hug6.gif""</stim_listA>",,html-keyboard-response,43,292096,0.0-13.0-1.3,43832,List2A,white,man,,,,null,,,,
null,are hugging each other,,html-keyboard-response,44,294110,0.0-13.0-2.3,43832,List2A,white,man,,,,null,,,,
11183,,,survey-text,45,305295,0.0-13.0-3.3,43832,List2A,white,man,,,,,"{""Q0"":""mike and dave are hugging""}","<img src=""stim_listA/hug6.gif""</stim_listA>",are hugging each other,
null,"<div style=""font-size:60px;"">+</div>",,html-keyboard-response,46,305805,0.0-13.0-0.4,43832,List2A,white,man,,,,null,,,,
null,"<img src=""stim_listA/dance1.gif""</stim_listA>",,html-keyboard-response,47,307818,0.0-13.0-1.4,43832,List2A,white,man,,,,null,,,,
null,is dancing with,,html-keyboard-response,48,309833,0.0-13.0-2.4,43832,List2A,white,man,,,,null,,,,
13765,,,survey-text,49,323599,0.0-13.0-3.4,43832,List2A,white,man,,,,,"{""Q0"":""luke and jane are dancing""}","<img src=""stim_listA/dance1.gif""</stim_listA>",is dancing with,
null,"<div style=""font-size:60px;"">+</div>",,html-keyboard-response,50,324102,0.0-13.0-0.5,43832,List2A,white,man,,,,null,,,,
null,"<img src=""stim_listA/shout5.gif""</stim_listA>",,html-keyboard-response,51,326103,0.0-13.0-1.5,43832,List2A,white,man,,,,null,,,,
null,is shouting at,,html-keyboard-response,52,328107,0.0-13.0-2.5,43832,List2A,white,man,,,,null,,,,
13683,,,survey-text,53,341791,0.0-13.0-3.5,43832,List2A,white,man,,,,,"{""Q0"":""fred and luke are shouting""}","<img src=""stim_listA/shout5.gif""</stim_listA>",is shouting at,
null,"<div style=""font-size:60px;"">+</div>",,html-keyboard-response,54,342293,0.0-13.0-0.6,43832,List2A,white,man,,,,null,,,,
null,"<img src=""stim_listA/talk1.gif""</stim_listA>",,html-keyboard-response,55,344299,0.0-13.0-1.6,43832,List2A,white,man,,,,null,,,,
null,is talking to,,html-keyboard-response,56,346313,0.0-13.0-2.6,43832,List2A,white,man,,,,null,,,,
10913,,,survey-text,57,357228,0.0-13.0-3.6,43832,List2A,white,man,,,,,"{""Q0"":""jane is talking to luke""}","<img src=""stim_listA/talk1.gif""</stim_listA>",is talking to,
null,"<div style=""font-size:60px;"">+</div>",,html-keyboard-response,58,357730,0.0-13.0-0.7,43832,List2A,white,man,,,,null,,,,
null,"<img src=""stim_listA/dance2.gif""</stim_listA>",,html-keyboard-response,59,359745,0.0-13.0-1.7,43832,List2A,white,man,,,,null,,,,
null,are dancing with each other,,html-keyboard-response,60,361749,0.0-13.0-2.7,43832,List2A,white,man,,,,null,,,,
8777,,,survey-text,61,370528,0.0-13.0-3.7,43832,List2A,white,man,,,,,"{""Q0"":""ruth is dancing with dave""}","<img src=""stim_listA/dance2.gif""</stim_listA>",are dancing with each other,
null,"<div style=""font-size:60px;"">+</div>",,html-keyboard-response,62,371031,0.0-13.0-0.8,43832,List2A,white,man,,,,null,,,,
null,"<img src=""stim_listA/talk2.gif""</stim_listA>",,html-keyboard-response,63,373033,0.0-13.0-1.8,43832,List2A,white,man,,,,null,,,,
null,are talking to each other,,html-keyboard-response,64,375049,0.0-13.0-2.8,43832,List2A,white,man,,,,null,,,,
15700,,,survey-text,65,390751,0.0-13.0-3.8,43832,List2A,white,man,,,,,"{""Q0"":""ruth and dave are talking""}","<img src=""stim_listA/talk2.gif""</stim_listA>",are talking to each other,
null,"<div style=""font-size:60px;"">+</div>",,html-keyboard-response,66,391260,0.0-13.0-0.9,43832,List2A,white,man,,,,null,,,,
null,"<img src=""stim_listA/kiss6.gif""</stim_listA>",,html-keyboard-response,67,393267,0.0-13.0-1.9,43832,List2A,white,man,,,,null,,,,
null,are kissing each other,,html-keyboard-response,68,395269,0.0-13.0-2.9,43832,List2A,white,man,,,,null,,,,
10905,,,survey-text,69,406176,0.0-13.0-3.9,43832,List2A,white,man,,,,,"{""Q0"":""mike and dave are kissing""}","<img src=""stim_listA/kiss6.gif""</stim_listA>",are kissing each other,
null,"<div style=""font-size:60px;"">+</div>",,html-keyboard-response,70,406678,0.0-13.0-0.10,43832,List2A,white,man,,,,null,,,,
null,"<img src=""stim_listA/meet3.gif""</stim_listA>",,html-keyboard-response,71,408687,0.0-13.0-1.10,43832,List2A,white,man,,,,null,,,,
null,is meeting,,html-keyboard-response,72,410700,0.0-13.0-2.10,43832,List2A,white,man,,,,null,,,,
9461,,,survey-text,73,420161,0.0-13.0-3.10,43832,List2A,white,man,,,,,"{""Q0"":""mike and kate is meeting""}","<img src=""stim_listA/meet3.gif""</stim_listA>",is meeting,
null,"<div style=""font-size:60px;"">+</div>",,html-keyboard-response,74,420666,0.0-13.0-0.11,43832,List2A,white,man,,,,null,,,,
null,"<img src=""stim_listA/talk5.gif""</stim_listA>",,html-keyboard-response,75,422674,0.0-13.0-1.11,43832,List2A,white,man,,,,null,,,,
null,is talking to,,html-keyboard-response,76,424680,0.0-13.0-2.11,43832,List2A,white,man,,,,null,,,,
6864,,,survey-text,77,431544,0.0-13.0-3.11,43832,List2A,white,man,,,,,"{""Q0"":""mike is talking to luke""}","<img src=""stim_listA/talk5.gif""</stim_listA>",is talking to,
null,"<div style=""font-size:60px;"">+</div>",,html-keyboard-response,78,432055,0.0-13.0-0.12,43832,List2A,white,man,,,,null,,,,
null,"<img src=""stim_listA/fight1.gif""</stim_listA>",,html-keyboard-response,79,434070,0.0-13.0-1.12,43832,List2A,white,man,,,,null,,,,
null,is fighting,,html-keyboard-response,80,436084,0.0-13.0-2.12,43832,List2A,white,man,,,,null,,,,
8538,,,survey-text,81,444623,0.0-13.0-3.12,43832,List2A,white,man,,,,,"{""Q0"":""jane and dave is fighting""}","<img src=""stim_listA/fight1.gif""</stim_listA>",is fighting,
null,"<div style=""font-size:60px;"">+</div>",,html-keyboard-response,82,445133,0.0-13.0-0.13,43832,List2A,white,man,,,,null,,,,
null,"<img src=""stim_listA/touch1.gif""</stim_listA>",,html-keyboard-response,83,447140,0.0-13.0-1.13,43832,List2A,white,man,,,,null,,,,
null,is touching,,html-keyboard-response,84,449155,0.0-13.0-2.13,43832,List2A,white,man,,,,null,,,,
11405,,,survey-text,85,460561,0.0-13.0-3.13,43832,List2A,white,man,,,,,"{""Q0"":""jane and dave is touching""}","<img src=""stim_listA/touch1.gif""</stim_listA>",is touching,
null,"<div style=""font-size:60px;"">+</div>",,html-keyboard-response,86,461064,0.0-13.0-0.14,43832,List2A,white,man,,,,null,,,,
null,"<img src=""stim_listA/shout1.gif""</stim_listA>",,html-keyboard-response,87,463079,0.0-13.0-1.14,43832,List2A,white,man,,,,null,,,,
null,is shouting at,,html-keyboard-response,88,465092,0.0-13.0-2.14,43832,List2A,white,man,,,,null,,,,
8648,,,survey-text,89,473742,0.0-13.0-3.14,43832,List2A,white,man,,,,,"{""Q0"":""luke is shouting at ruth""}","<img src=""stim_listA/shout1.gif""</stim_listA>",is shouting at,
null,"<div style=""font-size:60px;"">+</div>",,html-keyboard-response,90,474256,0.0-13.0-0.15,43832,List2A,white,man,,,,null,,,,
null,"<img src=""stim_listA/meet4.gif""</stim_listA>",,html-keyboard-response,91,476258,0.0-13.0-1.15,43832,List2A,white,man,,,,null,,,,
null,are meeting each other,,html-keyboard-response,92,478259,0.0-13.0-2.15,43832,List2A,white,man,,,,null,,,,
17992,,,survey-text,93,496252,0.0-13.0-3.15,43832,List2A,white,man,,,,,"{""Q0"":""ruth and fred are meeting each other""}","<img src=""stim_listA/meet4.gif""</stim_listA>",are meeting each other,
null,"<div style=""font-size:60px;"">+</div>",,html-keyboard-response,94,496756,0.0-13.0-0.16,43832,List2A,white,man,,,,null,,,,
null,"<img src=""stim_listA/fight2.gif""</stim_listA>",,html-keyboard-response,95,498765,0.0-13.0-1.16,43832,List2A,white,man,,,,null,,,,
null,are fighting each other,,html-keyboard-response,96,500766,0.0-13.0-2.16,43832,List2A,white,man,,,,null,,,,
12514,,,survey-text,97,513282,0.0-13.0-3.16,43832,List2A,white,man,,,,,"{""Q0"":""ruth and luke are fighting each other""}","<img src=""stim_listA/fight2.gif""</stim_listA>",are fighting each other,
null,"<div style=""font-size:60px;"">+</div>",,html-keyboard-response,98,513783,0.0-13.0-0.17,43832,List2A,white,man,,,,null,,,,
null,"<img src=""stim_listA/touch3.gif""</stim_listA>",,html-keyboard-response,99,515799,0.0-13.0-1.17,43832,List2A,white,man,,,,null,,,,
null,is touching,,html-keyboard-response,100,517813,0.0-13.0-2.17,43832,List2A,white,man,,,,null,,,,
12492,,,survey-text,101,530306,0.0-13.0-3.17,43832,List2A,white,man,,,,,"{""Q0"":""mike and kate is touching""}","<img src=""stim_listA/touch3.gif""</stim_listA>",is touching,
null,"<div style=""font-size:60px;"">+</div>",,html-keyboard-response,102,530809,0.0-13.0-0.18,43832,List2A,white,man,,,,null,,,,
null,"<img src=""stim_listA/talk8.gif""</stim_listA>",,html-keyboard-response,103,532811,0.0-13.0-1.18,43832,List2A,white,man,,,,null,,,,
null,are talking to each other,,html-keyboard-response,104,534812,0.0-13.0-2.18,43832,List2A,white,man,,,,null,,,,
14602,,,survey-text,105,549415,0.0-13.0-3.18,43832,List2A,white,man,,,,,"{""Q0"":""jane and beth are touching each other""}","<img src=""stim_listA/talk8.gif""</stim_listA>",are talking to each other,
null,"<div style=""font-size:60px;"">+</div>",,html-keyboard-response,106,549917,0.0-13.0-0.19,43832,List2A,white,man,,,,null,,,,
null,"<img src=""stim_listA/talk7.gif""</stim_listA>",,html-keyboard-response,107,551921,0.0-13.0-1.19,43832,List2A,white,man,,,,null,,,,
null,is talking to,,html-keyboard-response,108,553931,0.0-13.0-2.19,43832,List2A,white,man,,,,null,,,,
11268,,,survey-text,109,565201,0.0-13.0-3.19,43832,List2A,white,man,,,,,"{""Q0"":""kate is talking to ruth""}","<img src=""stim_listA/talk7.gif""</stim_listA>",is talking to,
5142,"<img src='img/portrait_matrix_list2.JPG' style='width:900px;height:500px;''></img><p>If you have memorised all the portraits and names and are ready to start, press Continue.</p><p><strong>Please note: Your memory of these faces will be tested 4 times during this experiment.</strong></p>",0,html-button-response,110,570345,0.0-14.0-0.0,43832,List2A,white,man,,,,,,,,
3130,"<img src=""portrait/BW2.jpg""style=""width:400px;height:400px;""></img>",2,html-button-response,111,574488,0.0-14.0-1.0,43832,List2A,white,man,,TRUE,2,,,,,
null,CORRECT,,html-keyboard-response,112,576006,0.0-14.0-2.0-0.0,43832,List2A,white,man,,,,null,,,,
3807,"<img src=""portrait/BM1.jpg""style=""width:400px;height:400px;""></img>",4,html-button-response,113,579815,0.0-14.0-4.0,43832,List2A,white,man,,TRUE,4,,,,,
null,CORRECT,,html-keyboard-response,114,581335,0.0-14.0-5.0-0.0,43832,List2A,white,man,,,,null,,,,
3092,"<img src=""portrait/WM2.jpg""style=""width:400px;height:400px;""></img>",7,html-button-response,115,584428,0.0-14.0-7.0,43832,List2A,white,man,,TRUE,7,,,,,
null,CORRECT,,html-keyboard-response,116,585948,0.0-14.0-8.0-0.0,43832,List2A,white,man,,,,null,,,,
2203,"<img src=""portrait/WW2.jpg""style=""width:400px;height:400px;""></img>",3,html-button-response,117,588153,0.0-14.0-10.0,43832,List2A,white,man,,TRUE,3,,,,,
null,CORRECT,,html-keyboard-response,118,589683,0.0-14.0-11.0-0.0,43832,List2A,white,man,,,,null,,,,
2602,"<img src=""portrait/BM2.jpg""style=""width:400px;height:400px;""></img>",5,html-button-response,119,592287,0.0-14.0-13.0,43832,List2A,white,man,,TRUE,5,,,,,
null,CORRECT,,html-keyboard-response,120,593797,0.0-14.0-14.0-0.0,43832,List2A,white,man,,,,null,,,,
2877,"<img src=""portrait/WW1.jpg""style=""width:400px;height:400px;""></img>",1,html-button-response,121,596676,0.0-14.0-16.0,43832,List2A,white,man,,TRUE,1,,,,,
null,CORRECT,,html-keyboard-response,122,598192,0.0-14.0-17.0-0.0,43832,List2A,white,man,,,,null,,,,
3014,"<img src=""portrait/BW1.jpg""style=""width:400px;height:400px;""></img>",0,html-button-response,123,601207,0.0-14.0-19.0,43832,List2A,white,man,,TRUE,0,,,,,
null,CORRECT,,html-keyboard-response,124,602726,0.0-14.0-20.0-0.0,43832,List2A,white,man,,,,null,,,,
2679,"<img src=""portrait/WM1.jpg""style=""width:400px;height:400px;""></img>",6,html-button-response,125,605406,0.0-14.0-22.0,43832,List2A,white,man,,TRUE,6,,,,,
null,CORRECT,,html-keyboard-response,126,606920,0.0-14.0-23.0-0.0,43832,List2A,white,man,,,,null,,,,
1229,<p>You got 8 out of 8 right first time. Press Continue.</p>,0,html-button-response,127,608151,0.0-14.0-25.0,43832,List2A,white,man,,,,,,,,
null,"<div style=""font-size:60px;"">+</div>",,html-keyboard-response,128,609676,0.0-15.0-0.0,43832,List2A,white,man,,,,null,,,,
null,"<img src=""stim_listA/shout7.gif""</stim_listA>",,html-keyboard-response,129,611692,0.0-15.0-1.0,43832,List2A,white,man,,,,null,,,,
null,is shouting at,,html-keyboard-response,130,613702,0.0-15.0-2.0,43832,List2A,white,man,,,,null,,,,
6205,,,survey-text,131,619909,0.0-15.0-3.0,43832,List2A,white,man,,,,,"{""Q0"":""ruth is shouting at beth""}","<img src=""stim_listA/shout7.gif""</stim_listA>",is shouting at,
null,"<div style=""font-size:60px;"">+</div>",,html-keyboard-response,132,620422,0.0-15.0-0.1,43832,List2A,white,man,,,,null,,,,
null,"<img src=""stim_listA/touch7.gif""</stim_listA>",,html-keyboard-response,133,622429,0.0-15.0-1.1,43832,List2A,white,man,,,,null,,,,
null,is touching,,html-keyboard-response,134,624431,0.0-15.0-2.1,43832,List2A,white,man,,,,null,,,,
5774,,,survey-text,135,630206,0.0-15.0-3.1,43832,List2A,white,man,,,,,"{""Q0"":""jane is touching kate""}","<img src=""stim_listA/touch7.gif""</stim_listA>",is touching,
null,"<div style=""font-size:60px;"">+</div>",,html-keyboard-response,136,630721,0.0-15.0-0.2,43832,List2A,white,man,,,,null,,,,
null,"<img src=""stim_listA/touch2.gif""</stim_listA>",,html-keyboard-response,137,632726,0.0-15.0-1.2,43832,List2A,white,man,,,,null,,,,
null,are touching each other,,html-keyboard-response,138,634740,0.0-15.0-2.2,43832,List2A,white,man,,,,null,,,,
7164,,,survey-text,139,641906,0.0-15.0-3.2,43832,List2A,white,man,,,,,"{""Q0"":""luke is touching kate""}","<img src=""stim_listA/touch2.gif""</stim_listA>",are touching each other,
null,"<div style=""font-size:60px;"">+</div>",,html-keyboard-response,140,642415,0.0-15.0-0.3,43832,List2A,white,man,,,,null,,,,
null,"<img src=""stim_listA/hug7.gif""</stim_listA>",,html-keyboard-response,141,644424,0.0-15.0-1.3,43832,List2A,white,man,,,,null,,,,
null,is hugging,,html-keyboard-response,142,646437,0.0-15.0-2.3,43832,List2A,white,man,,,,null,,,,
6938,,,survey-text,143,653376,0.0-15.0-3.3,43832,List2A,white,man,,,,,"{""Q0"":""beth is hugging ruth""}","<img src=""stim_listA/hug7.gif""</stim_listA>",is hugging,
null,"<div style=""font-size:60px;"">+</div>",,html-keyboard-response,144,653888,0.0-15.0-0.4,43832,List2A,white,man,,,,null,,,,
null,"<img src=""stim_listA/shout8.gif""</stim_listA>",,html-keyboard-response,145,655894,0.0-15.0-1.4,43832,List2A,white,man,,,,null,,,,
null,are shouting at each other,,html-keyboard-response,146,657906,0.0-15.0-2.4,43832,List2A,white,man,,,,null,,,,
8623,,,survey-text,147,666529,0.0-15.0-3.4,43832,List2A,white,man,,,,,"{""Q0"":""jane is shouting at kate""}","<img src=""stim_listA/shout8.gif""</stim_listA>",are shouting at each other,
null,"<div style=""font-size:60px;"">+</div>",,html-keyboard-response,148,667044,0.0-15.0-0.5,43832,List2A,white,man,,,,null,,,,
null,"<img src=""stim_listA/marry6.gif""</stim_listA>",,html-keyboard-response,149,669051,0.0-15.0-1.5,43832,List2A,white,man,,,,null,,,,
null,are marrying each other,,html-keyboard-response,150,671063,0.0-15.0-2.5,43832,List2A,white,man,,,,null,,,,
9962,,,survey-text,151,681026,0.0-15.0-3.5,43832,List2A,white,man,,,,,"{""Q0"":""luke and mike are marrying each other""}","<img src=""stim_listA/marry6.gif""</stim_listA>",are marrying each other,
null,"<div style=""font-size:60px;"">+</div>",,html-keyboard-response,152,681527,0.0-15.0-0.6,43832,List2A,white,man,,,,null,,,,
null,"<img src=""stim_listA/kiss4.gif""</stim_listA>",,html-keyboard-response,153,683540,0.0-15.0-1.6,43832,List2A,white,man,,,,null,,,,
null,are kissing each other,,html-keyboard-response,154,685555,0.0-15.0-2.6,43832,List2A,white,man,,,,null,,,,
9806,,,survey-text,155,695362,0.0-15.0-3.6,43832,List2A,white,man,,,,,"{""Q0"":""mike and kate are kissing each other""}","<img src=""stim_listA/kiss4.gif""</stim_listA>",are kissing each other,
null,"<div style=""font-size:60px;"">+</div>",,html-keyboard-response,156,695877,0.0-15.0-0.7,43832,List2A,white,man,,,,null,,,,
null,"<img src=""stim_listA/argue1.gif""</stim_listA>",,html-keyboard-response,157,697891,0.0-15.0-1.7,43832,List2A,white,man,,,,null,,,,
null,is arguing with,,html-keyboard-response,158,699906,0.0-15.0-2.7,43832,List2A,white,man,,,,null,,,,
13629,,,survey-text,159,713535,0.0-15.0-3.7,43832,List2A,white,man,,,,,"{""Q0"":""dave is arguing with ruth""}","<img src=""stim_listA/argue1.gif""</stim_listA>",is arguing with,
null,"<div style=""font-size:60px;"">+</div>",,html-keyboard-response,160,714039,0.0-15.0-0.8,43832,List2A,white,man,,,,null,,,,
null,"<img src=""stim_listA/dance6.gif""</stim_listA>",,html-keyboard-response,161,716049,0.0-15.0-1.8,43832,List2A,white,man,,,,null,,,,
null,are dancing with each other,,html-keyboard-response,162,718065,0.0-15.0-2.8,43832,List2A,white,man,,,,null,,,,
13146,,,survey-text,163,731212,0.0-15.0-3.8,43832,List2A,white,man,,,,,"{""Q0"":""fred and dave are dancing with each other""}","<img src=""stim_listA/dance6.gif""</stim_listA>",are dancing with each other,
null,"<div style=""font-size:60px;"">+</div>",,html-keyboard-response,164,731722,0.0-15.0-0.9,43832,List2A,white,man,,,,null,,,,
null,"<img src=""stim_listA/shout4.gif""</stim_listA>",,html-keyboard-response,165,733727,0.0-15.0-1.9,43832,List2A,white,man,,,,null,,,,
null,are shouting at each other,,html-keyboard-response,166,735742,0.0-15.0-2.9,43832,List2A,white,man,,,,null,,,,
13184,,,survey-text,167,748927,0.0-15.0-3.9,43832,List2A,white,man,,,,,"{""Q0"":""mike and kate are shouting at each other""}","<img src=""stim_listA/shout4.gif""</stim_listA>",are shouting at each other,
null,"<div style=""font-size:60px;"">+</div>",,html-keyboard-response,168,749441,0.0-15.0-0.10,43832,List2A,white,man,,,,null,,,,
null,"<img src=""stim_listA/hug1.gif""</stim_listA>",,html-keyboard-response,169,751444,0.0-15.0-1.10,43832,List2A,white,man,,,,null,,,,
null,is hugging,,html-keyboard-response,170,753445,0.0-15.0-2.10,43832,List2A,white,man,,,,null,,,,
8552,,,survey-text,171,761997,0.0-15.0-3.10,43832,List2A,white,man,,,,,"{""Q0"":""ruth is hugging luke""}","<img src=""stim_listA/hug1.gif""</stim_listA>",is hugging,
null,"<div style=""font-size:60px;"">+</div>",,html-keyboard-response,172,762509,0.0-15.0-0.11,43832,List2A,white,man,,,,null,,,,
null,"<img src=""stim_listA/argue7.gif""</stim_listA>",,html-keyboard-response,173,764515,0.0-15.0-1.11,43832,List2A,white,man,,,,null,,,,
null,is arguing with,,html-keyboard-response,174,766526,0.0-15.0-2.11,43832,List2A,white,man,,,,null,,,,
11506,,,survey-text,175,778033,0.0-15.0-3.11,43832,List2A,white,man,,,,,"{""Q0"":""beth is arguing with jane""}","<img src=""stim_listA/argue7.gif""</stim_listA>",is arguing with,
null,"<div style=""font-size:60px;"">+</div>",,html-keyboard-response,176,778534,0.0-15.0-0.12,43832,List2A,white,man,,,,null,,,,
null,"<img src=""stim_listA/meet6.gif""</stim_listA>",,html-keyboard-response,177,780544,0.0-15.0-1.12,43832,List2A,white,man,,,,null,,,,
null,are meeting each other,,html-keyboard-response,178,782557,0.0-15.0-2.12,43832,List2A,white,man,,,,null,,,,
10021,,,survey-text,179,792580,0.0-15.0-3.12,43832,List2A,white,man,,,,,"{""Q0"":""fred and luke are meeting each other""}","<img src=""stim_listA/meet6.gif""</stim_listA>",are meeting each other,
null,"<div style=""font-size:60px;"">+</div>",,html-keyboard-response,180,793084,0.0-15.0-0.13,43832,List2A,white,man,,,,null,,,,
null,"<img src=""stim_listA/marry1.gif""</stim_listA>",,html-keyboard-response,181,795087,0.0-15.0-1.13,43832,List2A,white,man,,,,null,,,,
null,is marrying,,html-keyboard-response,182,797091,0.0-15.0-2.13,43832,List2A,white,man,,,,null,,,,
10283,,,survey-text,183,807376,0.0-15.0-3.13,43832,List2A,white,man,,,,,"{""Q0"":""dave is marrying luke""}","<img src=""stim_listA/marry1.gif""</stim_listA>",is marrying,
null,"<div style=""font-size:60px;"">+</div>",,html-keyboard-response,184,807878,0.0-15.0-0.14,43832,List2A,white,man,,,,null,,,,
null,"<img src=""stim_listA/marry2.gif""</stim_listA>",,html-keyboard-response,185,809892,0.0-15.0-1.14,43832,List2A,white,man,,,,null,,,,
null,are marrying each other,,html-keyboard-response,186,811895,0.0-15.0-2.14,43832,List2A,white,man,,,,null,,,,
10526,,,survey-text,187,822422,0.0-15.0-3.14,43832,List2A,white,man,,,,,"{""Q0"":""luke is marrying jane""}","<img src=""stim_listA/marry2.gif""</stim_listA>",are marrying each other,
null,"<div style=""font-size:60px;"">+</div>",,html-keyboard-response,188,822930,0.0-15.0-0.15,43832,List2A,white,man,,,,null,,,,
null,"<img src=""stim_listA/dance8.gif""</stim_listA>",,html-keyboard-response,189,824942,0.0-15.0-1.15,43832,List2A,white,man,,,,null,,,,
null,are dancing with each other,,html-keyboard-response,190,826955,0.0-15.0-2.15,43832,List2A,white,man,,,,null,,,,
19688,,,survey-text,191,846644,0.0-15.0-3.15,43832,List2A,white,man,,,,,"{""Q0"":""beth and jane are dancing with each other""}","<img src=""stim_listA/dance8.gif""</stim_listA>",are dancing with each other,
null,"<div style=""font-size:60px;"">+</div>",,html-keyboard-response,192,847145,0.0-15.0-0.16,43832,List2A,white,man,,,,null,,,,
null,"<img src=""stim_listA/hug8.gif""</stim_listA>",,html-keyboard-response,193,849147,0.0-15.0-1.16,43832,List2A,white,man,,,,null,,,,
null,are hugging each other,,html-keyboard-response,194,851160,0.0-15.0-2.16,43832,List2A,white,man,,,,null,,,,
8535,,,survey-text,195,859695,0.0-15.0-3.16,43832,List2A,white,man,,,,,"{""Q0"":""jane and kate are hugging each other""}","<img src=""stim_listA/hug8.gif""</stim_listA>",are hugging each other,
null,"<div style=""font-size:60px;"">+</div>",,html-keyboard-response,196,860197,0.0-15.0-0.17,43832,List2A,white,man,,,,null,,,,
null,"<img src=""stim_listA/kiss7.gif""</stim_listA>",,html-keyboard-response,197,862208,0.0-15.0-1.17,43832,List2A,white,man,,,,null,,,,
null,is kissing,,html-keyboard-response,198,864221,0.0-15.0-2.17,43832,List2A,white,man,,,,null,,,,
7989,,,survey-text,199,872211,0.0-15.0-3.17,43832,List2A,white,man,,,,,"{""Q0"":""beth and kate are kissing""}","<img src=""stim_listA/kiss7.gif""</stim_listA>",is kissing,
null,"<div style=""font-size:60px;"">+</div>",,html-keyboard-response,200,872713,0.0-15.0-0.18,43832,List2A,white,man,,,,null,,,,
null,"<img src=""stim_listA/meet8.gif""</stim_listA>",,html-keyboard-response,201,874727,0.0-15.0-1.18,43832,List2A,white,man,,,,null,,,,
null,are meeting each other,,html-keyboard-response,202,876737,0.0-15.0-2.18,43832,List2A,white,man,,,,null,,,,
10114,,,survey-text,203,886852,0.0-15.0-3.18,43832,List2A,white,man,,,,,"{""Q0"":""beth is meeting ruth""}","<img src=""stim_listA/meet8.gif""</stim_listA>",are meeting each other,
null,"<div style=""font-size:60px;"">+</div>",,html-keyboard-response,204,887366,0.0-15.0-0.19,43832,List2A,white,man,,,,null,,,,
null,"<img src=""stim_listA/hug5.gif""</stim_listA>",,html-keyboard-response,205,889381,0.0-15.0-1.19,43832,List2A,white,man,,,,null,,,,
null,is hugging,,html-keyboard-response,206,891397,0.0-15.0-2.19,43832,List2A,white,man,,,,null,,,,
5403,,,survey-text,207,896800,0.0-15.0-3.19,43832,List2A,white,man,,,,,"{""Q0"":""luke is hugging dave""}","<img src=""stim_listA/hug5.gif""</stim_listA>",is hugging,
3499,"<img src='img/portrait_matrix_list2.JPG' style='width:900px;height:500px;''></img><p>If you have memorised all the portraits and names and are ready to start, press Continue.</p><p><strong>Please note: Your memory of these faces will be tested 4 times during this experiment.</strong></p>",0,html-button-response,208,900300,0.0-16.0-0.0,43832,List2A,white,man,,,,,,,,
17643,"<img src=""portrait/WW1.jpg""style=""width:400px;height:400px;""></img>",1,html-button-response,209,918960,0.0-16.0-1.0,43832,List2A,white,man,,TRUE,1,,,,,
null,CORRECT,,html-keyboard-response,210,920478,0.0-16.0-2.0-0.0,43832,List2A,white,man,,,,null,,,,
3879,"<img src=""portrait/BW2.jpg""style=""width:400px;height:400px;""></img>",2,html-button-response,211,924358,0.0-16.0-4.0,43832,List2A,white,man,,TRUE,2,,,,,
null,CORRECT,,html-keyboard-response,212,925874,0.0-16.0-5.0-0.0,43832,List2A,white,man,,,,null,,,,
2933,"<img src=""portrait/WW2.jpg""style=""width:400px;height:400px;""></img>",3,html-button-response,213,928808,0.0-16.0-7.0,43832,List2A,white,man,,TRUE,3,,,,,
null,CORRECT,,html-keyboard-response,214,930321,0.0-16.0-8.0-0.0,43832,List2A,white,man,,,,null,,,,
2986,"<img src=""portrait/WM2.jpg""style=""width:400px;height:400px;""></img>",7,html-button-response,215,933309,0.0-16.0-10.0,43832,List2A,white,man,,TRUE,7,,,,,
null,CORRECT,,html-keyboard-response,216,934839,0.0-16.0-11.0-0.0,43832,List2A,white,man,,,,null,,,,
5144,"<img src=""portrait/BM1.jpg""style=""width:400px;height:400px;""></img>",4,html-button-response,217,939984,0.0-16.0-13.0,43832,List2A,white,man,,TRUE,4,,,,,
null,CORRECT,,html-keyboard-response,218,941494,0.0-16.0-14.0-0.0,43832,List2A,white,man,,,,null,,,,
4590,"<img src=""portrait/BM2.jpg""style=""width:400px;height:400px;""></img>",5,html-button-response,219,946086,0.0-16.0-16.0,43832,List2A,white,man,,TRUE,5,,,,,
null,CORRECT,,html-keyboard-response,220,947616,0.0-16.0-17.0-0.0,43832,List2A,white,man,,,,null,,,,
3643,"<img src=""portrait/BW1.jpg""style=""width:400px;height:400px;""></img>",0,html-button-response,221,951260,0.0-16.0-19.0,43832,List2A,white,man,,TRUE,0,,,,,
null,CORRECT,,html-keyboard-response,222,952777,0.0-16.0-20.0-0.0,43832,List2A,white,man,,,,null,,,,
4278,"<img src=""portrait/WM1.jpg""style=""width:400px;height:400px;""></img>",6,html-button-response,223,957057,0.0-16.0-22.0,43832,List2A,white,man,,TRUE,6,,,,,
null,CORRECT,,html-keyboard-response,224,958574,0.0-16.0-23.0-0.0,43832,List2A,white,man,,,,null,,,,
6389,<p>You got 8 out of 8 right first time. Press Continue.</p>,0,html-button-response,225,964965,0.0-16.0-25.0,43832,List2A,white,man,,,,,,,,
null,"<div style=""font-size:60px;"">+</div>",,html-keyboard-response,226,966486,0.0-17.0-0.0,43832,List2A,white,man,,,,null,,,,
null,"<img src=""stim_listA/dance3.gif""</stim_listA>",,html-keyboard-response,227,968489,0.0-17.0-1.0,43832,List2A,white,man,,,,null,,,,
null,is dancing with,,html-keyboard-response,228,970502,0.0-17.0-2.0,43832,List2A,white,man,,,,null,,,,
35385,,,survey-text,229,1005888,0.0-17.0-3.0,43832,List2A,white,man,,,,,"{""Q0"":""dave is hugging beth""}","<img src=""stim_listA/dance3.gif""</stim_listA>",is dancing with,
null,"<div style=""font-size:60px;"">+</div>",,html-keyboard-response,230,1006392,0.0-17.0-0.1,43832,List2A,white,man,,,,null,,,,
null,"<img src=""stim_listA/talk6.gif""</stim_listA>",,html-keyboard-response,231,1008400,0.0-17.0-1.1,43832,List2A,white,man,,,,null,,,,
null,are talking to each other,,html-keyboard-response,232,1010406,0.0-17.0-2.1,43832,List2A,white,man,,,,null,,,,
8923,,,survey-text,233,1019330,0.0-17.0-3.1,43832,List2A,white,man,,,,,"{""Q0"":""fred is talking to dave""}","<img src=""stim_listA/talk6.gif""</stim_listA>",are talking to each other,
null,"<div style=""font-size:60px;"">+</div>",,html-keyboard-response,234,1019839,0.0-17.0-0.2,43832,List2A,white,man,,,,null,,,,
null,"<img src=""stim_listA/argue5.gif""</stim_listA>",,html-keyboard-response,235,1021844,0.0-17.0-1.2,43832,List2A,white,man,,,,null,,,,
null,is arguing with,,html-keyboard-response,236,1023845,0.0-17.0-2.2,43832,List2A,white,man,,,,null,,,,
9439,,,survey-text,237,1033286,0.0-17.0-3.2,43832,List2A,white,man,,,,,"{""Q0"":""fred is arguing with dave""}","<img src=""stim_listA/argue5.gif""</stim_listA>",is arguing with,
null,"<div style=""font-size:60px;"">+</div>",,html-keyboard-response,238,1033788,0.0-17.0-0.3,43832,List2A,white,man,,,,null,,,,
null,"<img src=""stim_listA/marry7.gif""</stim_listA>",,html-keyboard-response,239,1035795,0.0-17.0-1.3,43832,List2A,white,man,,,,null,,,,
null,is marrying,,html-keyboard-response,240,1037797,0.0-17.0-2.3,43832,List2A,white,man,,,,null,,,,
5366,,,survey-text,241,1043165,0.0-17.0-3.3,43832,List2A,white,man,,,,,"{""Q0"":""beth is marrying jane""}","<img src=""stim_listA/marry7.gif""</stim_listA>",is marrying,
null,"<div style=""font-size:60px;"">+</div>",,html-keyboard-response,242,1043674,0.0-17.0-0.4,43832,List2A,white,man,,,,null,,,,
null,"<img src=""stim_listA/talk4.gif""</stim_listA>",,html-keyboard-response,243,1045677,0.0-17.0-1.4,43832,List2A,white,man,,,,null,,,,
null,are talking to each other,,html-keyboard-response,244,1047680,0.0-17.0-2.4,43832,List2A,white,man,,,,null,,,,
6170,,,survey-text,245,1053851,0.0-17.0-3.4,43832,List2A,white,man,,,,,"{""Q0"":""mike is talking to beth""}","<img src=""stim_listA/talk4.gif""</stim_listA>",are talking to each other,
null,"<div style=""font-size:60px;"">+</div>",,html-keyboard-response,246,1054360,0.0-17.0-0.5,43832,List2A,white,man,,,,null,,,,
null,"<img src=""stim_listA/touch4.gif""</stim_listA>",,html-keyboard-response,247,1056364,0.0-17.0-1.5,43832,List2A,white,man,,,,null,,,,
null,are touching each other,,html-keyboard-response,248,1058376,0.0-17.0-2.5,43832,List2A,white,man,,,,null,,,,
10320,,,survey-text,249,1068698,0.0-17.0-3.5,43832,List2A,white,man,,,,,"{""Q0"":""beth and fred are touching each other""}","<img src=""stim_listA/touch4.gif""</stim_listA>",are touching each other,
null,"<div style=""font-size:60px;"">+</div>",,html-keyboard-response,250,1069201,0.0-17.0-0.6,43832,List2A,white,man,,,,null,,,,
null,"<img src=""stim_listA/marry5.gif""</stim_listA>",,html-keyboard-response,251,1071212,0.0-17.0-1.6,43832,List2A,white,man,,,,null,,,,
null,is marrying,,html-keyboard-response,252,1073226,0.0-17.0-2.6,43832,List2A,white,man,,,,null,,,,
10628,,,survey-text,253,1083854,0.0-17.0-3.6,43832,List2A,white,man,,,,,"{""Q0"":""fred is marrying dave""}","<img src=""stim_listA/marry5.gif""</stim_listA>",is marrying,
null,"<div style=""font-size:60px;"">+</div>",,html-keyboard-response,254,1084355,0.0-17.0-0.7,43832,List2A,white,man,,,,null,,,,
null,"<img src=""stim_listA/fight3.gif""</stim_listA>",,html-keyboard-response,255,1086356,0.0-17.0-1.7,43832,List2A,white,man,,,,null,,,,
null,is fighting,,html-keyboard-response,256,1088370,0.0-17.0-2.7,43832,List2A,white,man,,,,null,,,,
9555,,,survey-text,257,1097927,0.0-17.0-3.7,43832,List2A,white,man,,,,,"{""Q0"":""mike is fighting kate""}","<img src=""stim_listA/fight3.gif""</stim_listA>",is fighting,
null,"<div style=""font-size:60px;"">+</div>",,html-keyboard-response,258,1098429,0.0-17.0-0.8,43832,List2A,white,man,,,,null,,,,
null,"<img src=""stim_listA/shout6.gif""</stim_listA>",,html-keyboard-response,259,1100442,0.0-17.0-1.8,43832,List2A,white,man,,,,null,,,,
null,are shouting at each other,,html-keyboard-response,260,1102454,0.0-17.0-2.8,43832,List2A,white,man,,,,null,,,,
10412,,,survey-text,261,1112869,0.0-17.0-3.8,43832,List2A,white,man,,,,,"{""Q0"":""mike and dave are shouting at each other""}","<img src=""stim_listA/shout6.gif""</stim_listA>",are shouting at each other,
null,"<div style=""font-size:60px;"">+</div>",,html-keyboard-response,262,1113379,0.0-17.0-0.9,43832,List2A,white,man,,,,null,,,,
null,"<img src=""stim_listA/talk3.gif""</stim_listA>",,html-keyboard-response,263,1115381,0.0-17.0-1.9,43832,List2A,white,man,,,,null,,,,
null,is talking to,,html-keyboard-response,264,1117381,0.0-17.0-2.9,43832,List2A,white,man,,,,null,,,,
7636,,,survey-text,265,1125018,0.0-17.0-3.9,43832,List2A,white,man,,,,,"{""Q0"":""kate is talking to fred""}","<img src=""stim_listA/talk3.gif""</stim_listA>",is talking to,
null,"<div style=""font-size:60px;"">+</div>",,html-keyboard-response,266,1125527,0.0-17.0-0.10,43832,List2A,white,man,,,,null,,,,
null,"<img src=""stim_listA/meet2.gif""</stim_listA>",,html-keyboard-response,267,1127530,0.0-17.0-1.10,43832,List2A,white,man,,,,null,,,,
null,are meeting each other,,html-keyboard-response,268,1129544,0.0-17.0-2.10,43832,List2A,white,man,,,,null,,,,
10431,,,survey-text,269,1139976,0.0-17.0-3.10,43832,List2A,white,man,,,,,"{""Q0"":""luke and ruth are meeting each other""}","<img src=""stim_listA/meet2.gif""</stim_listA>",are meeting each other,
null,"<div style=""font-size:60px;"">+</div>",,html-keyboard-response,270,1140492,0.0-17.0-0.11,43832,List2A,white,man,,,,null,,,,
null,"<img src=""stim_listA/argue2.gif""</stim_listA>",,html-keyboard-response,271,1142503,0.0-17.0-1.11,43832,List2A,white,man,,,,null,,,,
null,are arguing with each other,,html-keyboard-response,272,1144506,0.0-17.0-2.11,43832,List2A,white,man,,,,null,,,,
8422,,,survey-text,273,1152929,0.0-17.0-3.11,43832,List2A,white,man,,,,,"{""Q0"":""luke and jane are arguing with each other""}","<img src=""stim_listA/argue2.gif""</stim_listA>",are arguing with each other,
null,"<div style=""font-size:60px;"">+</div>",,html-keyboard-response,274,1153439,0.0-17.0-0.12,43832,List2A,white,man,,,,null,,,,
null,"<img src=""stim_listA/kiss5.gif""</stim_listA>",,html-keyboard-response,275,1155449,0.0-17.0-1.12,43832,List2A,white,man,,,,null,,,,
null,is kissing,,html-keyboard-response,276,1157450,0.0-17.0-2.12,43832,List2A,white,man,,,,null,,,,
6457,,,survey-text,277,1163908,0.0-17.0-3.12,43832,List2A,white,man,,,,,"{""Q0"":""luke and fred are kissing""}","<img src=""stim_listA/kiss5.gif""</stim_listA>",is kissing,
null,"<div style=""font-size:60px;"">+</div>",,html-keyboard-response,278,1164422,0.0-17.0-0.13,43832,List2A,white,man,,,,null,,,,
null,"<img src=""stim_listA/touch5.gif""</stim_listA>",,html-keyboard-response,279,1166425,0.0-17.0-1.13,43832,List2A,white,man,,,,null,,,,
null,is touching,,html-keyboard-response,280,1168436,0.0-17.0-2.13,43832,List2A,white,man,,,,null,,,,
9142,,,survey-text,281,1177579,0.0-17.0-3.13,43832,List2A,white,man,,,,,"{""Q0"":""mike and dave are touching""}","<img src=""stim_listA/touch5.gif""</stim_listA>",is touching,
null,"<div style=""font-size:60px;"">+</div>",,html-keyboard-response,282,1178089,0.0-17.0-0.14,43832,List2A,white,man,,,,null,,,,
null,"<img src=""stim_listA/fight5.gif""</stim_listA>",,html-keyboard-response,283,1180099,0.0-17.0-1.14,43832,List2A,white,man,,,,null,,,,
null,is fighting,,html-keyboard-response,284,1182112,0.0-17.0-2.14,43832,List2A,white,man,,,,null,,,,
6935,,,survey-text,285,1189047,0.0-17.0-3.14,43832,List2A,white,man,,,,,"{""Q0"":""mike and dave are fighting""}","<img src=""stim_listA/fight5.gif""</stim_listA>",is fighting,
null,"<div style=""font-size:60px;"">+</div>",,html-keyboard-response,286,1189558,0.0-17.0-0.15,43832,List2A,white,man,,,,null,,,,
null,"<img src=""stim_listA/meet5.gif""</stim_listA>",,html-keyboard-response,287,1191573,0.0-17.0-1.15,43832,List2A,white,man,,,,null,,,,
null,is meeting,,html-keyboard-response,288,1193585,0.0-17.0-2.15,43832,List2A,white,man,,,,null,,,,
6135,,,survey-text,289,1199722,0.0-17.0-3.15,43832,List2A,white,man,,,,,"{""Q0"":""mike and dave is meeting""}","<img src=""stim_listA/meet5.gif""</stim_listA>",is meeting,
null,"<div style=""font-size:60px;"">+</div>",,html-keyboard-response,290,1200226,0.0-17.0-0.16,43832,List2A,white,man,,,,null,,,,
null,"<img src=""stim_listA/argue6.gif""</stim_listA>",,html-keyboard-response,291,1202240,0.0-17.0-1.16,43832,List2A,white,man,,,,null,,,,
null,are arguing with each other,,html-keyboard-response,292,1204243,0.0-17.0-2.16,43832,List2A,white,man,,,,null,,,,
11320,,,survey-text,293,1215564,0.0-17.0-3.16,43832,List2A,white,man,,,,,"{""Q0"":""luke and mike are arguing with each other""}","<img src=""stim_listA/argue6.gif""</stim_listA>",are arguing with each other,
null,"<div style=""font-size:60px;"">+</div>",,html-keyboard-response,294,1216078,0.0-17.0-0.17,43832,List2A,white,man,,,,null,,,,
null,"<img src=""stim_listA/kiss1.gif""</stim_listA>",,html-keyboard-response,295,1218094,0.0-17.0-1.17,43832,List2A,white,man,,,,null,,,,
null,is kissing,,html-keyboard-response,296,1220102,0.0-17.0-2.17,43832,List2A,white,man,,,,null,,,,
9081,,,survey-text,297,1229184,0.0-17.0-3.17,43832,List2A,white,man,,,,,"{""Q0"":""luke and ruth is kissing""}","<img src=""stim_listA/kiss1.gif""</stim_listA>",is kissing,
null,"<div style=""font-size:60px;"">+</div>",,html-keyboard-response,298,1229686,0.0-17.0-0.18,43832,List2A,white,man,,,,null,,,,
null,"<img src=""stim_listA/dance4.gif""</stim_listA>",,html-keyboard-response,299,1231700,0.0-17.0-1.18,43832,List2A,white,man,,,,null,,,,
null,are dancing with each other,,html-keyboard-response,300,1233704,0.0-17.0-2.18,43832,List2A,white,man,,,,null,,,,
14155,,,survey-text,301,1247859,0.0-17.0-3.18,43832,List2A,white,man,,,,,"{""Q0"":""mike and beth are dancing with each other""}","<img src=""stim_listA/dance4.gif""</stim_listA>",are dancing with each other,
null,"<div style=""font-size:60px;"">+</div>",,html-keyboard-response,302,1248370,0.0-17.0-0.19,43832,List2A,white,man,,,,null,,,,
null,"<img src=""stim_listA/meet1.gif""</stim_listA>",,html-keyboard-response,303,1250373,0.0-17.0-1.19,43832,List2A,white,man,,,,null,,,,
null,is meeting,,html-keyboard-response,304,1252385,0.0-17.0-2.19,43832,List2A,white,man,,,,null,,,,
8371,,,survey-text,305,1260758,0.0-17.0-3.19,43832,List2A,white,man,,,,,"{""Q0"":""dave and jane are meeting each other ""}","<img src=""stim_listA/meet1.gif""</stim_listA>",is meeting,
26154,"<img src='img/portrait_matrix_list2.JPG' style='width:900px;height:500px;''></img><p>If you have memorised all the portraits and names and are ready to start, press Continue.</p><p><strong>Please note: Your memory of these faces will be tested 4 times during this experiment.</strong></p>",0,html-button-response,306,1286913,0.0-18.0-0.0,43832,List2A,white,man,,,,,,,,
3970,"<img src=""portrait/BM2.jpg""style=""width:400px;height:400px;""></img>",5,html-button-response,307,1291892,0.0-18.0-1.0,43832,List2A,white,man,,TRUE,5,,,,,
null,CORRECT,,html-keyboard-response,308,1293404,0.0-18.0-2.0-0.0,43832,List2A,white,man,,,,null,,,,
2924,"<img src=""portrait/BW2.jpg""style=""width:400px;height:400px;""></img>",2,html-button-response,309,1296330,0.0-18.0-4.0,43832,List2A,white,man,,TRUE,2,,,,,
null,CORRECT,,html-keyboard-response,310,1297843,0.0-18.0-5.0-0.0,43832,List2A,white,man,,,,null,,,,
3611,"<img src=""portrait/WW2.jpg""style=""width:400px;height:400px;""></img>",3,html-button-response,311,1301456,0.0-18.0-7.0,43832,List2A,white,man,,TRUE,3,,,,,
null,CORRECT,,html-keyboard-response,312,1302969,0.0-18.0-8.0-0.0,43832,List2A,white,man,,,,null,,,,
3874,"<img src=""portrait/WW1.jpg""style=""width:400px;height:400px;""></img>",1,html-button-response,313,1306843,0.0-18.0-10.0,43832,List2A,white,man,,TRUE,1,,,,,
null,CORRECT,,html-keyboard-response,314,1308347,0.0-18.0-11.0-0.0,43832,List2A,white,man,,,,null,,,,
3178,"<img src=""portrait/WM1.jpg""style=""width:400px;height:400px;""></img>",6,html-button-response,315,1311527,0.0-18.0-13.0,43832,List2A,white,man,,TRUE,6,,,,,
null,CORRECT,,html-keyboard-response,316,1313044,0.0-18.0-14.0-0.0,43832,List2A,white,man,,,,null,,,,
5155,"<img src=""portrait/BM1.jpg""style=""width:400px;height:400px;""></img>",4,html-button-response,317,1318201,0.0-18.0-16.0,43832,List2A,white,man,,TRUE,4,,,,,
null,CORRECT,,html-keyboard-response,318,1319711,0.0-18.0-17.0-0.0,43832,List2A,white,man,,,,null,,,,
3081,"<img src=""portrait/WM2.jpg""style=""width:400px;height:400px;""></img>",7,html-button-response,319,1322793,0.0-18.0-19.0,43832,List2A,white,man,,TRUE,7,,,,,
null,CORRECT,,html-keyboard-response,320,1324314,0.0-18.0-20.0-0.0,43832,List2A,white,man,,,,null,,,,
3477,"<img src=""portrait/BW1.jpg""style=""width:400px;height:400px;""></img>",0,html-button-response,321,1327793,0.0-18.0-22.0,43832,List2A,white,man,,TRUE,0,,,,,
null,CORRECT,,html-keyboard-response,322,1329310,0.0-18.0-23.0-0.0,43832,List2A,white,man,,,,null,,,,
1982,<p>You got 8 out of 8 right first time. Press Continue.</p>,0,html-button-response,323,1331293,0.0-18.0-25.0,43832,List2A,white,man,,,,,,,,
null,"<div style=""font-size:60px;"">+</div>",,html-keyboard-response,324,1332813,0.0-19.0-0.0,43832,List2A,white,man,,,,null,,,,
null,"<img src=""stim_listA/touch6.gif""</stim_listA>",,html-keyboard-response,325,1334823,0.0-19.0-1.0,43832,List2A,white,man,,,,null,,,,
null,are touching each other,,html-keyboard-response,326,1336824,0.0-19.0-2.0,43832,List2A,white,man,,,,null,,,,
8963,,,survey-text,327,1345789,0.0-19.0-3.0,43832,List2A,white,man,,,,,"{""Q0"":""luke and fred are touching each other""}","<img src=""stim_listA/touch6.gif""</stim_listA>",are touching each other,
null,"<div style=""font-size:60px;"">+</div>",,html-keyboard-response,328,1346293,0.0-19.0-0.1,43832,List2A,white,man,,,,null,,,,
null,"<img src=""stim_listA/argue4.gif""</stim_listA>",,html-keyboard-response,329,1348306,0.0-19.0-1.1,43832,List2A,white,man,,,,null,,,,
null,are arguing with each other,,html-keyboard-response,330,1350319,0.0-19.0-2.1,43832,List2A,white,man,,,,null,,,,
9769,,,survey-text,331,1360089,0.0-19.0-3.1,43832,List2A,white,man,,,,,"{""Q0"":""kate and fred are arguing with each other""}","<img src=""stim_listA/argue4.gif""</stim_listA>",are arguing with each other,
null,"<div style=""font-size:60px;"">+</div>",,html-keyboard-response,332,1360596,0.0-19.0-0.2,43832,List2A,white,man,,,,null,,,,
null,"<img src=""stim_listA/shout2.gif""</stim_listA>",,html-keyboard-response,333,1362611,0.0-19.0-1.2,43832,List2A,white,man,,,,null,,,,
null,are shouting at each other,,html-keyboard-response,334,1364626,0.0-19.0-2.2,43832,List2A,white,man,,,,null,,,,
7799,,,survey-text,335,1372426,0.0-19.0-3.2,43832,List2A,white,man,,,,,"{""Q0"":""jane and dave are shouting at each other""}","<img src=""stim_listA/shout2.gif""</stim_listA>",are shouting at each other,
null,"<div style=""font-size:60px;"">+</div>",,html-keyboard-response,336,1372927,0.0-19.0-0.3,43832,List2A,white,man,,,,null,,,,
null,"<img src=""stim_listA/marry8.gif""</stim_listA>",,html-keyboard-response,337,1374932,0.0-19.0-1.3,43832,List2A,white,man,,,,null,,,,
null,are marrying each other,,html-keyboard-response,338,1376942,0.0-19.0-2.3,43832,List2A,white,man,,,,null,,,,
10115,,,survey-text,339,1387057,0.0-19.0-3.3,43832,List2A,white,man,,,,,"{""Q0"":""ruth and kate are marrying each other ""}","<img src=""stim_listA/marry8.gif""</stim_listA>",are marrying each other,
null,"<div style=""font-size:60px;"">+</div>",,html-keyboard-response,340,1387569,0.0-19.0-0.4,43832,List2A,white,man,,,,null,,,,
null,"<img src=""stim_listA/fight4.gif""</stim_listA>",,html-keyboard-response,341,1389582,0.0-19.0-1.4,43832,List2A,white,man,,,,null,,,,
null,are fighting each other,,html-keyboard-response,342,1391595,0.0-19.0-2.4,43832,List2A,white,man,,,,null,,,,
8520,,,survey-text,343,1400116,0.0-19.0-3.4,43832,List2A,white,man,,,,,"{""Q0"":""kate and dave are fighting each other ""}","<img src=""stim_listA/fight4.gif""</stim_listA>",are fighting each other,
null,"<div style=""font-size:60px;"">+</div>",,html-keyboard-response,344,1400623,0.0-19.0-0.5,43832,List2A,white,man,,,,null,,,,
null,"<img src=""stim_listA/argue8.gif""</stim_listA>",,html-keyboard-response,345,1402630,0.0-19.0-1.5,43832,List2A,white,man,,,,null,,,,
null,are arguing with each other,,html-keyboard-response,346,1404640,0.0-19.0-2.5,43832,List2A,white,man,,,,null,,,,
9969,,,survey-text,347,1414610,0.0-19.0-3.5,43832,List2A,white,man,,,,,"{""Q0"":""ruth and kate are arguing with each other""}","<img src=""stim_listA/argue8.gif""</stim_listA>",are arguing with each other,
null,"<div style=""font-size:60px;"">+</div>",,html-keyboard-response,348,1415121,0.0-19.0-0.6,43832,List2A,white,man,,,,null,,,,
null,"<img src=""stim_listA/meet7.gif""</stim_listA>",,html-keyboard-response,349,1417134,0.0-19.0-1.6,43832,List2A,white,man,,,,null,,,,
null,is meeting,,html-keyboard-response,350,1419146,0.0-19.0-2.6,43832,List2A,white,man,,,,null,,,,
5256,,,survey-text,351,1424403,0.0-19.0-3.6,43832,List2A,white,man,,,,,"{""Q0"":""jane is meeting kate""}","<img src=""stim_listA/meet7.gif""</stim_listA>",is meeting,
null,"<div style=""font-size:60px;"">+</div>",,html-keyboard-response,352,1424918,0.0-19.0-0.7,43832,List2A,white,man,,,,null,,,,
null,"<img src=""stim_listA/kiss8.gif""</stim_listA>",,html-keyboard-response,353,1426934,0.0-19.0-1.7,43832,List2A,white,man,,,,null,,,,
null,are kissing each other,,html-keyboard-response,354,1428947,0.0-19.0-2.7,43832,List2A,white,man,,,,null,,,,
14948,,,survey-text,355,1443896,0.0-19.0-3.7,43832,List2A,white,man,,,,,"{""Q0"":""jane and kate is kissing each other""}","<img src=""stim_listA/kiss8.gif""</stim_listA>",are kissing each other,
null,"<div style=""font-size:60px;"">+</div>",,html-keyboard-response,356,1444403,0.0-19.0-0.8,43832,List2A,white,man,,,,null,,,,
null,"<img src=""stim_listA/dance7.gif""</stim_listA>",,html-keyboard-response,357,1446418,0.0-19.0-1.8,43832,List2A,white,man,,,,null,,,,
null,is dancing with,,html-keyboard-response,358,1448432,0.0-19.0-2.8,43832,List2A,white,man,,,,null,,,,
9468,,,survey-text,359,1457903,0.0-19.0-3.8,43832,List2A,white,man,,,,,"{""Q0"":""ruth is dancing with kate""}","<img src=""stim_listA/dance7.gif""</stim_listA>",is dancing with,
null,"<div style=""font-size:60px;"">+</div>",,html-keyboard-response,360,1458416,0.0-19.0-0.9,43832,List2A,white,man,,,,null,,,,
null,"<img src=""stim_listA/kiss3.gif""</stim_listA>",,html-keyboard-response,361,1460426,0.0-19.0-1.9,43832,List2A,white,man,,,,null,,,,
null,is kissing,,html-keyboard-response,362,1462438,0.0-19.0-2.9,43832,List2A,white,man,,,,null,,,,
6244,,,survey-text,363,1468685,0.0-19.0-3.9,43832,List2A,white,man,,,,,"{""Q0"":""beth is kissing fred""}","<img src=""stim_listA/kiss3.gif""</stim_listA>",is kissing,
null,"<div style=""font-size:60px;"">+</div>",,html-keyboard-response,364,1469197,0.0-19.0-0.10,43832,List2A,white,man,,,,null,,,,
null,"<img src=""stim_listA/marry3.gif""</stim_listA>",,html-keyboard-response,365,1471213,0.0-19.0-1.10,43832,List2A,white,man,,,,null,,,,
null,is marrying,,html-keyboard-response,366,1473225,0.0-19.0-2.10,43832,List2A,white,man,,,,null,,,,
6070,,,survey-text,367,1479296,0.0-19.0-3.10,43832,List2A,white,man,,,,,"{""Q0"":""mike is marrying beth""}","<img src=""stim_listA/marry3.gif""</stim_listA>",is marrying,
null,"<div style=""font-size:60px;"">+</div>",,html-keyboard-response,368,1479809,0.0-19.0-0.11,43832,List2A,white,man,,,,null,,,,
null,"<img src=""stim_listA/fight8.gif""</stim_listA>",,html-keyboard-response,369,1481821,0.0-19.0-1.11,43832,List2A,white,man,,,,null,,,,
null,are fighting each other,,html-keyboard-response,370,1483847,0.0-19.0-2.11,43832,List2A,white,man,,,,null,,,,
10487,,,survey-text,371,1494335,0.0-19.0-3.11,43832,List2A,white,man,,,,,"{""Q0"":""beth and ruth is fighting each other""}","<img src=""stim_listA/fight8.gif""</stim_listA>",are fighting each other,
null,"<div style=""font-size:60px;"">+</div>",,html-keyboard-response,372,1494849,0.0-19.0-0.12,43832,List2A,white,man,,,,null,,,,
null,"<img src=""stim_listA/touch8.gif""</stim_listA>",,html-keyboard-response,373,1496851,0.0-19.0-1.12,43832,List2A,white,man,,,,null,,,,
null,are touching each other,,html-keyboard-response,374,1498868,0.0-19.0-2.12,43832,List2A,white,man,,,,null,,,,
9488,,,survey-text,375,1508357,0.0-19.0-3.12,43832,List2A,white,man,,,,,"{""Q0"":""beth and ruth are touching each other""}","<img src=""stim_listA/touch8.gif""</stim_listA>",are touching each other,
null,"<div style=""font-size:60px;"">+</div>",,html-keyboard-response,376,1508860,0.0-19.0-0.13,43832,List2A,white,man,,,,null,,,,
null,"<img src=""stim_listA/fight6.gif""</stim_listA>",,html-keyboard-response,377,1510875,0.0-19.0-1.13,43832,List2A,white,man,,,,null,,,,
null,are fighting each other,,html-keyboard-response,378,1512889,0.0-19.0-2.13,43832,List2A,white,man,,,,null,,,,
9124,,,survey-text,379,1522013,0.0-19.0-3.13,43832,List2A,white,man,,,,,"{""Q0"":""luke and fred are fighting each other ""}","<img src=""stim_listA/fight6.gif""</stim_listA>",are fighting each other,
null,"<div style=""font-size:60px;"">+</div>",,html-keyboard-response,380,1522525,0.0-19.0-0.14,43832,List2A,white,man,,,,null,,,,
null,"<img src=""stim_listA/shout3.gif""</stim_listA>",,html-keyboard-response,381,1524534,0.0-19.0-1.14,43832,List2A,white,man,,,,null,,,,
null,is shouting at,,html-keyboard-response,382,1526546,0.0-19.0-2.14,43832,List2A,white,man,,,,null,,,,
7483,,,survey-text,383,1534030,0.0-19.0-3.14,43832,List2A,white,man,,,,,"{""Q0"":""beth is shouting at fred""}","<img src=""stim_listA/shout3.gif""</stim_listA>",is shouting at,
null,"<div style=""font-size:60px;"">+</div>",,html-keyboard-response,384,1534535,0.0-19.0-0.15,43832,List2A,white,man,,,,null,,,,
null,"<img src=""stim_listA/fight7.gif""</stim_listA>",,html-keyboard-response,385,1536551,0.0-19.0-1.15,43832,List2A,white,man,,,,null,,,,
null,is fighting,,html-keyboard-response,386,1538565,0.0-19.0-2.15,43832,List2A,white,man,,,,null,,,,
9443,,,survey-text,387,1548009,0.0-19.0-3.15,43832,List2A,white,man,,,,,"{""Q0"":""jane is fighting with kate""}","<img src=""stim_listA/fight7.gif""</stim_listA>",is fighting,
null,"<div style=""font-size:60px;"">+</div>",,html-keyboard-response,388,1548510,0.0-19.0-0.16,43832,List2A,white,man,,,,null,,,,
null,"<img src=""stim_listA/hug4.gif""</stim_listA>",,html-keyboard-response,389,1550521,0.0-19.0-1.16,43832,List2A,white,man,,,,null,,,,
null,are hugging each other,,html-keyboard-response,390,1552534,0.0-19.0-2.16,43832,List2A,white,man,,,,null,,,,
8526,,,survey-text,391,1561060,0.0-19.0-3.16,43832,List2A,white,man,,,,,"{""Q0"":""mike and kate are hugging each other""}","<img src=""stim_listA/hug4.gif""</stim_listA>",are hugging each other,
null,"<div style=""font-size:60px;"">+</div>",,html-keyboard-response,392,1561567,0.0-19.0-0.17,43832,List2A,white,man,,,,null,,,,
null,"<img src=""stim_listA/hug3.gif""</stim_listA>",,html-keyboard-response,393,1563584,0.0-19.0-1.17,43832,List2A,white,man,,,,null,,,,
null,is hugging,,html-keyboard-response,394,1565597,0.0-19.0-2.17,43832,List2A,white,man,,,,null,,,,
7899,,,survey-text,395,1573498,0.0-19.0-3.17,43832,List2A,white,man,,,,,"{""Q0"":""beth and fred is hugging""}","<img src=""stim_listA/hug3.gif""</stim_listA>",is hugging,
null,"<div style=""font-size:60px;"">+</div>",,html-keyboard-response,396,1574000,0.0-19.0-0.18,43832,List2A,white,man,,,,null,,,,
null,"<img src=""stim_listA/kiss2.gif""</stim_listA>",,html-keyboard-response,397,1576016,0.0-19.0-1.18,43832,List2A,white,man,,,,null,,,,
null,are kissing each other,,html-keyboard-response,398,1578029,0.0-19.0-2.18,43832,List2A,white,man,,,,null,,,,
8273,,,survey-text,399,1586303,0.0-19.0-3.18,43832,List2A,white,man,,,,,"{""Q0"":""jane and dave are kissing each other""}","<img src=""stim_listA/kiss2.gif""</stim_listA>",are kissing each other,
null,"<div style=""font-size:60px;"">+</div>",,html-keyboard-response,400,1586805,0.0-19.0-0.19,43832,List2A,white,man,,,,null,,,,
null,"<img src=""stim_listA/hug2.gif""</stim_listA>",,html-keyboard-response,401,1588810,0.0-19.0-1.19,43832,List2A,white,man,,,,null,,,,
null,are hugging each other,,html-keyboard-response,402,1590812,0.0-19.0-2.19,43832,List2A,white,man,,,,null,,,,
14983,,,survey-text,403,1605796,0.0-19.0-3.19,43832,List2A,white,man,,,,,"{""Q0"":""jane and dave are hugging each other""}","<img src=""stim_listA/hug2.gif""</stim_listA>",are hugging each other,
2948,<p>Thank you for completing that task.</p><p>The final part of this session is a short questionnaire.</p><p>Press Continue.</p>,0,html-button-response,404,1608746,0.0-20.0,43832,List2A,white,man,,,,,,,,
34664,,,survey-text,405,1644413,0.0-21.0,43832,List2A,white,man,,,,,"{""Q0"":""28"",""Q1"":""English"",""Q2"":""English"",""Q3"":""England"",""Q4"":""White"",""Q5"":""Male""}",,,demographics
61402,,,survey-likert,406,1705824,0.0-22.0,43832,List2A,white,man,,,,,"{""Q0"":6,""Q1"":4,""Q2"":6,""Q3"":6,""Q4"":6,""Q5"":6,""Q6"":6,""Q7"":5,""Q8"":6,""Q9"":6,""Q10"":3,""Q11"":3,""Q12"":4,""Q13"":4}",,,likert_race
39032,,,survey-likert,407,1744861,0.0-23.0,43832,List2A,white,man,,,,,"{""Q0"":6,""Q1"":6,""Q2"":6,""Q3"":6,""Q4"":6,""Q5"":6,""Q6"":6,""Q7"":6,""Q8"":6,""Q9"":6,""Q10"":3,""Q11"":3,""Q12"":3,""Q13"":3}",,,likert_gender
8640,,,survey-text,408,1753503,0.0-24.0,43832,List2A,white,man,,,,,"{""Q0"":""ccc""}",,,worker_id
20212,,,external-html,409,1773780,0.0-25.0,43832,List2A,white,man,debrief.html,,,,,,,
