rt,stimulus,button_pressed,trial_type,trial_index,time_elapsed,internal_node_id,subject,list,ppt_race,ppt_gender,url,first_guess,correct,key_press,responses,image_type,phrase_type,test_part
4361,Welcome to the experiment. Press Continue to begin.,0,html-button-response,0,4366,0.0-0.0,43912,List2B,black,man,,,,,,,,
65200,,,external-html,1,70659,0.0-1.0,43912,List2B,black,man,consent.html,,,,,,,
36222,"<p>On the next page, you will see portraits of 8 people and their names.</p><p>Your first task is to take a few minutes to memorise the names of these people.</p><p>You will have to recall their names during the rest of the experiment, so it is</p><p>essential that you try to memorise these people and their names as best as you can.</p><br><p><strong>You will then be tested on your memory of these names and portraits.</strong></p><br><p>The experiment will start after you have completed this memory test.</p><br><p>Ready?</p>",0,html-button-response,2,106884,0.0-2.0,43912,List2B,black,man,,,,,,,,
38992,"<img src='img/portrait_matrix_list2.JPG' style='width:900px;height:500px;''></img><p>If you have memorised all the portraits and names and are ready to start, press Continue.</p><p><strong>Please note: Your memory of these faces will be tested 4 times during this experiment.</strong></p>",0,html-button-response,3,146878,0.0-3.0-0.0,43912,List2B,black,man,,,,,,,,
2469,"<img src=""portrait/BM1.jpg""style=""width:400px;height:400px;""></img>",4,html-button-response,4,150351,0.0-3.0-1.0,43912,List2B,black,man,,TRUE,4,,,,,
null,CORRECT,,html-keyboard-response,5,151859,0.0-3.0-2.0-0.0,43912,List2B,black,man,,,,null,,,,
2577,"<img src=""portrait/BW1.jpg""style=""width:400px;height:400px;""></img>",0,html-button-response,6,154437,0.0-3.0-4.0,43912,List2B,black,man,,TRUE,0,,,,,
null,CORRECT,,html-keyboard-response,7,155946,0.0-3.0-5.0-0.0,43912,List2B,black,man,,,,null,,,,
20169,"<img src=""portrait/WM1.jpg""style=""width:400px;height:400px;""></img>",6,html-button-response,8,176116,0.0-3.0-7.0,43912,List2B,black,man,,TRUE,6,,,,,
null,CORRECT,,html-keyboard-response,9,177626,0.0-3.0-8.0-0.0,43912,List2B,black,man,,,,null,,,,
6500,"<img src=""portrait/WM2.jpg""style=""width:400px;height:400px;""></img>",7,html-button-response,10,184127,0.0-3.0-10.0,43912,List2B,black,man,,TRUE,7,,,,,
null,CORRECT,,html-keyboard-response,11,185635,0.0-3.0-11.0-0.0,43912,List2B,black,man,,,,null,,,,
4150,"<img src=""portrait/WW1.jpg""style=""width:400px;height:400px;""></img>",1,html-button-response,12,189786,0.0-3.0-13.0,43912,List2B,black,man,,TRUE,1,,,,,
null,CORRECT,,html-keyboard-response,13,191289,0.0-3.0-14.0-0.0,43912,List2B,black,man,,,,null,,,,
3928,"<img src=""portrait/WW2.jpg""style=""width:400px;height:400px;""></img>",3,html-button-response,14,195218,0.0-3.0-16.0,43912,List2B,black,man,,TRUE,3,,,,,
null,CORRECT,,html-keyboard-response,15,196724,0.0-3.0-17.0-0.0,43912,List2B,black,man,,,,null,,,,
5638,"<img src=""portrait/BM2.jpg""style=""width:400px;height:400px;""></img>",5,html-button-response,16,202363,0.0-3.0-19.0,43912,List2B,black,man,,TRUE,5,,,,,
null,CORRECT,,html-keyboard-response,17,203864,0.0-3.0-20.0-0.0,43912,List2B,black,man,,,,null,,,,
5588,"<img src=""portrait/BW2.jpg""style=""width:400px;height:400px;""></img>",2,html-button-response,18,209454,0.0-3.0-22.0,43912,List2B,black,man,,TRUE,2,,,,,
null,CORRECT,,html-keyboard-response,19,210960,0.0-3.0-23.0-0.0,43912,List2B,black,man,,,,null,,,,
2543,<p>You got 8 out of 8 right first time. Press Continue.</p>,0,html-button-response,20,213504,0.0-3.0-25.0,43912,List2B,black,man,,,,,,,,
46573,"<p>In this experiment, you will view photographs of the people from the memory game interacting.</p><p>By using the <strong>exact</strong> phrase given <i>after</i> the photograph appears and recalling the correct names of the people in the photographs, form a sentence describing the interaction. You do not need to capitalise names.</p><p>Type your answer in the space provided. Please complete every sentence before moving onto the next trial.</p><p>You will only have a few seconds to memorise each given photograph and phrase before you can respond, so try your best to focus.</p><p>An example is given below. Press 'Continue' when you are ready.</p><img src='img/speaking_example_v2.jpg' style='width:800px;height:460px;''></img>",0,html-button-response,21,261083,0.0-4.0,43912,List2B,black,man,,,,,,,,
4590,"<p>Before the experiment starts, you will watch two example trials. Press 'Continue'.</p>",0,html-button-response,22,266675,0.0-5.0,43912,List2B,black,man,,,,,,,,
null,<img src='img/speaking_WW.gif'></img>,,html-keyboard-response,23,269685,0.0-6.0,43912,List2B,black,man,,,,null,,,,
null,<p>is speaking to</p>,,html-keyboard-response,24,271689,0.0-7.0,43912,List2B,black,man,,,,null,,,,
14409,<p><b>Answer:</b> jane is speaking to ruth</p>,0,html-button-response,25,286100,0.0-8.0,43912,List2B,black,man,,,,,,,,
null,<img src='img/pointing_BM.gif'></img>,,html-keyboard-response,26,289109,0.0-9.0,43912,List2B,black,man,,,,null,,,,
null,<p>are pointing at each other</p>,,html-keyboard-response,27,291110,0.0-10.0,43912,List2B,black,man,,,,null,,,,
2133,<p><b>Answer:</b> fred and mike are pointing at each other</p>,0,html-button-response,28,293243,0.0-11.0,43912,List2B,black,man,,,,,,,,
3435,"<p>Ready to start the experiment?</p><br><p><strong>Remember to describe the picture using a full sentence,</strong></p><p><strong>that combines the names of the people with the given phrase.</strong></p><p><strong>If you do not do this correctly you will not be paid.</strong></p><p><strong> You do not need to capitalise names or use punctuation.</strong></p><br><p>Press 'Continue' to begin.</p>",0,html-button-response,29,297682,0.0-12.0,43912,List2B,black,man,,,,,,,,
null,"<div style=""font-size:60px;"">+</div>",,html-keyboard-response,30,299189,0.0-13.0-0.0,43912,List2B,black,man,,,,null,,,,
null,"<img src=""stim_listB/fight8.gif""</stim_listB>",,html-keyboard-response,31,301191,0.0-13.0-1.0,43912,List2B,black,man,,,,null,,,,
null,are fighting each other,,html-keyboard-response,32,303195,0.0-13.0-2.0,43912,List2B,black,man,,,,null,,,,
18909,,,survey-text,33,322105,0.0-13.0-3.0,43912,List2B,black,man,,,,,"{""Q0"":""Beth and Jane are fighting ""}","<img src=""stim_listB/fight8.gif""</stim_listB>",are fighting each other,
null,"<div style=""font-size:60px;"">+</div>",,html-keyboard-response,34,322608,0.0-13.0-0.1,43912,List2B,black,man,,,,null,,,,
null,"<img src=""stim_listB/talk4.gif""</stim_listB>",,html-keyboard-response,35,324614,0.0-13.0-1.1,43912,List2B,black,man,,,,null,,,,
null,are talking to each other,,html-keyboard-response,36,326619,0.0-13.0-2.1,43912,List2B,black,man,,,,null,,,,
25441,,,survey-text,37,352060,0.0-13.0-3.1,43912,List2B,black,man,,,,,"{""Q0"":""Mike and beth are talking to each other""}","<img src=""stim_listB/talk4.gif""</stim_listB>",are talking to each other,
null,"<div style=""font-size:60px;"">+</div>",,html-keyboard-response,38,352562,0.0-13.0-0.2,43912,List2B,black,man,,,,null,,,,
null,"<img src=""stim_listB/hug6.gif""</stim_listB>",,html-keyboard-response,39,354566,0.0-13.0-1.2,43912,List2B,black,man,,,,null,,,,
null,are hugging each other,,html-keyboard-response,40,356569,0.0-13.0-2.2,43912,List2B,black,man,,,,null,,,,
19113,,,survey-text,41,375684,0.0-13.0-3.2,43912,List2B,black,man,,,,,"{""Q0"":""mike and dave are hugging each other ""}","<img src=""stim_listB/hug6.gif""</stim_listB>",are hugging each other,
null,"<div style=""font-size:60px;"">+</div>",,html-keyboard-response,42,376188,0.0-13.0-0.3,43912,List2B,black,man,,,,null,,,,
null,"<img src=""stim_listB/kiss7.gif""</stim_listB>",,html-keyboard-response,43,378194,0.0-13.0-1.3,43912,List2B,black,man,,,,null,,,,
null,is kissing,,html-keyboard-response,44,380197,0.0-13.0-2.3,43912,List2B,black,man,,,,null,,,,
15750,,,survey-text,45,395947,0.0-13.0-3.3,43912,List2B,black,man,,,,,"{""Q0"":""beth and ruth is kissing""}","<img src=""stim_listB/kiss7.gif""</stim_listB>",is kissing,
null,"<div style=""font-size:60px;"">+</div>",,html-keyboard-response,46,396452,0.0-13.0-0.4,43912,List2B,black,man,,,,null,,,,
null,"<img src=""stim_listB/touch1.gif""</stim_listB>",,html-keyboard-response,47,398458,0.0-13.0-1.4,43912,List2B,black,man,,,,null,,,,
null,is touching,,html-keyboard-response,48,400461,0.0-13.0-2.4,43912,List2B,black,man,,,,null,,,,
14575,,,survey-text,49,415038,0.0-13.0-3.4,43912,List2B,black,man,,,,,"{""Q0"":""jane and dave is touching ""}","<img src=""stim_listB/touch1.gif""</stim_listB>",is touching,
null,"<div style=""font-size:60px;"">+</div>",,html-keyboard-response,50,415540,0.0-13.0-0.5,43912,List2B,black,man,,,,null,,,,
null,"<img src=""stim_listB/meet3.gif""</stim_listB>",,html-keyboard-response,51,417541,0.0-13.0-1.5,43912,List2B,black,man,,,,null,,,,
null,is meeting,,html-keyboard-response,52,419545,0.0-13.0-2.5,43912,List2B,black,man,,,,null,,,,
25897,,,survey-text,53,445443,0.0-13.0-3.5,43912,List2B,black,man,,,,,"{""Q0"":""kate is meeting mike""}","<img src=""stim_listB/meet3.gif""</stim_listB>",is meeting,
null,"<div style=""font-size:60px;"">+</div>",,html-keyboard-response,54,445947,0.0-13.0-0.6,43912,List2B,black,man,,,,null,,,,
null,"<img src=""stim_listB/shout2.gif""</stim_listB>",,html-keyboard-response,55,447952,0.0-13.0-1.6,43912,List2B,black,man,,,,null,,,,
null,are shouting at each other,,html-keyboard-response,56,449956,0.0-13.0-2.6,43912,List2B,black,man,,,,null,,,,
33917,,,survey-text,57,483874,0.0-13.0-3.6,43912,List2B,black,man,,,,,"{""Q0"":""Jane and Dave are shouting at each other""}","<img src=""stim_listB/shout2.gif""</stim_listB>",are shouting at each other,
null,"<div style=""font-size:60px;"">+</div>",,html-keyboard-response,58,484380,0.0-13.0-0.7,43912,List2B,black,man,,,,null,,,,
null,"<img src=""stim_listB/marry7.gif""</stim_listB>",,html-keyboard-response,59,486381,0.0-13.0-1.7,43912,List2B,black,man,,,,null,,,,
null,is marrying,,html-keyboard-response,60,488384,0.0-13.0-2.7,43912,List2B,black,man,,,,null,,,,
24662,,,survey-text,61,513047,0.0-13.0-3.7,43912,List2B,black,man,,,,,"{""Q0"":""beth and jane is marrying ""}","<img src=""stim_listB/marry7.gif""</stim_listB>",is marrying,
null,"<div style=""font-size:60px;"">+</div>",,html-keyboard-response,62,513553,0.0-13.0-0.8,43912,List2B,black,man,,,,null,,,,
null,"<img src=""stim_listB/hug7.gif""</stim_listB>",,html-keyboard-response,63,515559,0.0-13.0-1.8,43912,List2B,black,man,,,,null,,,,
null,is hugging,,html-keyboard-response,64,517562,0.0-13.0-2.8,43912,List2B,black,man,,,,null,,,,
11611,,,survey-text,65,529174,0.0-13.0-3.8,43912,List2B,black,man,,,,,"{""Q0"":""beth and ruth is hugging ""}","<img src=""stim_listB/hug7.gif""</stim_listB>",is hugging,
null,"<div style=""font-size:60px;"">+</div>",,html-keyboard-response,66,529676,0.0-13.0-0.9,43912,List2B,black,man,,,,null,,,,
null,"<img src=""stim_listB/touch8.gif""</stim_listB>",,html-keyboard-response,67,531681,0.0-13.0-1.9,43912,List2B,black,man,,,,null,,,,
null,are touching each other,,html-keyboard-response,68,533682,0.0-13.0-2.9,43912,List2B,black,man,,,,null,,,,
17709,,,survey-text,69,551391,0.0-13.0-3.9,43912,List2B,black,man,,,,,"{""Q0"":""beth and ruth is touching""}","<img src=""stim_listB/touch8.gif""</stim_listB>",are touching each other,
null,"<div style=""font-size:60px;"">+</div>",,html-keyboard-response,70,551895,0.0-13.0-0.10,43912,List2B,black,man,,,,null,,,,
null,"<img src=""stim_listB/fight1.gif""</stim_listB>",,html-keyboard-response,71,553901,0.0-13.0-1.10,43912,List2B,black,man,,,,null,,,,
null,is fighting,,html-keyboard-response,72,555902,0.0-13.0-2.10,43912,List2B,black,man,,,,null,,,,
12980,,,survey-text,73,568883,0.0-13.0-3.10,43912,List2B,black,man,,,,,"{""Q0"":""jane and dave is fighting ""}","<img src=""stim_listB/fight1.gif""</stim_listB>",is fighting,
null,"<div style=""font-size:60px;"">+</div>",,html-keyboard-response,74,569389,0.0-13.0-0.11,43912,List2B,black,man,,,,null,,,,
null,"<img src=""stim_listB/talk8.gif""</stim_listB>",,html-keyboard-response,75,571392,0.0-13.0-1.11,43912,List2B,black,man,,,,null,,,,
null,are talking to each other,,html-keyboard-response,76,573394,0.0-13.0-2.11,43912,List2B,black,man,,,,null,,,,
15916,,,survey-text,77,589310,0.0-13.0-3.11,43912,List2B,black,man,,,,,"{""Q0"":""beth and jane are talking to each other ""}","<img src=""stim_listB/talk8.gif""</stim_listB>",are talking to each other,
null,"<div style=""font-size:60px;"">+</div>",,html-keyboard-response,78,589815,0.0-13.0-0.12,43912,List2B,black,man,,,,null,,,,
null,"<img src=""stim_listB/shout5.gif""</stim_listB>",,html-keyboard-response,79,591819,0.0-13.0-1.12,43912,List2B,black,man,,,,null,,,,
null,is shouting at,,html-keyboard-response,80,593822,0.0-13.0-2.12,43912,List2B,black,man,,,,null,,,,
18512,,,survey-text,81,612335,0.0-13.0-3.12,43912,List2B,black,man,,,,,"{""Q0"":""fred and luke is shouting at each other""}","<img src=""stim_listB/shout5.gif""</stim_listB>",is shouting at,
null,"<div style=""font-size:60px;"">+</div>",,html-keyboard-response,82,612838,0.0-13.0-0.13,43912,List2B,black,man,,,,null,,,,
null,"<img src=""stim_listB/fight2.gif""</stim_listB>",,html-keyboard-response,83,614842,0.0-13.0-1.13,43912,List2B,black,man,,,,null,,,,
null,are fighting each other,,html-keyboard-response,84,616843,0.0-13.0-2.13,43912,List2B,black,man,,,,null,,,,
25101,,,survey-text,85,641945,0.0-13.0-3.13,43912,List2B,black,man,,,,,"{""Q0"":""luke and ruth are fighting each other ""}","<img src=""stim_listB/fight2.gif""</stim_listB>",are fighting each other,
null,"<div style=""font-size:60px;"">+</div>",,html-keyboard-response,86,642449,0.0-13.0-0.14,43912,List2B,black,man,,,,null,,,,
null,"<img src=""stim_listB/touch3.gif""</stim_listB>",,html-keyboard-response,87,644453,0.0-13.0-1.14,43912,List2B,black,man,,,,null,,,,
null,is touching,,html-keyboard-response,88,646454,0.0-13.0-2.14,43912,List2B,black,man,,,,null,,,,
21107,,,survey-text,89,667563,0.0-13.0-3.14,43912,List2B,black,man,,,,,"{""Q0"":""mike and kate is touching ""}","<img src=""stim_listB/touch3.gif""</stim_listB>",is touching,
null,"<div style=""font-size:60px;"">+</div>",,html-keyboard-response,90,668066,0.0-13.0-0.15,43912,List2B,black,man,,,,null,,,,
null,"<img src=""stim_listB/shout7.gif""</stim_listB>",,html-keyboard-response,91,670069,0.0-13.0-1.15,43912,List2B,black,man,,,,null,,,,
null,is shouting at,,html-keyboard-response,92,672070,0.0-13.0-2.15,43912,List2B,black,man,,,,null,,,,
11239,,,survey-text,93,683310,0.0-13.0-3.15,43912,List2B,black,man,,,,,"{""Q0"":""Beth is shouting at Ruth""}","<img src=""stim_listB/shout7.gif""</stim_listB>",is shouting at,
null,"<div style=""font-size:60px;"">+</div>",,html-keyboard-response,94,683815,0.0-13.0-0.16,43912,List2B,black,man,,,,null,,,,
null,"<img src=""stim_listB/meet1.gif""</stim_listB>",,html-keyboard-response,95,685819,0.0-13.0-1.16,43912,List2B,black,man,,,,null,,,,
null,is meeting,,html-keyboard-response,96,687821,0.0-13.0-2.16,43912,List2B,black,man,,,,null,,,,
10876,,,survey-text,97,698698,0.0-13.0-3.16,43912,List2B,black,man,,,,,"{""Q0"":""Dave and Jane is meeting ""}","<img src=""stim_listB/meet1.gif""</stim_listB>",is meeting,
null,"<div style=""font-size:60px;"">+</div>",,html-keyboard-response,98,699199,0.0-13.0-0.17,43912,List2B,black,man,,,,null,,,,
null,"<img src=""stim_listB/meet4.gif""</stim_listB>",,html-keyboard-response,99,701204,0.0-13.0-1.17,43912,List2B,black,man,,,,null,,,,
null,are meeting each other,,html-keyboard-response,100,703205,0.0-13.0-2.17,43912,List2B,black,man,,,,null,,,,
12170,,,survey-text,101,715376,0.0-13.0-3.17,43912,List2B,black,man,,,,,"{""Q0"":""Fred and Beth are meeting each other ""}","<img src=""stim_listB/meet4.gif""</stim_listB>",are meeting each other,
null,"<div style=""font-size:60px;"">+</div>",,html-keyboard-response,102,715880,0.0-13.0-0.18,43912,List2B,black,man,,,,null,,,,
null,"<img src=""stim_listB/dance3.gif""</stim_listB>",,html-keyboard-response,103,717883,0.0-13.0-1.18,43912,List2B,black,man,,,,null,,,,
null,is dancing with,,html-keyboard-response,104,719884,0.0-13.0-2.18,43912,List2B,black,man,,,,null,,,,
14814,,,survey-text,105,734699,0.0-13.0-3.18,43912,List2B,black,man,,,,,"{""Q0"":""Fred is dancing with Kate""}","<img src=""stim_listB/dance3.gif""</stim_listB>",is dancing with,
null,"<div style=""font-size:60px;"">+</div>",,html-keyboard-response,106,735204,0.0-13.0-0.19,43912,List2B,black,man,,,,null,,,,
null,"<img src=""stim_listB/touch6.gif""</stim_listB>",,html-keyboard-response,107,737206,0.0-13.0-1.19,43912,List2B,black,man,,,,null,,,,
null,are touching each other,,html-keyboard-response,108,739209,0.0-13.0-2.19,43912,List2B,black,man,,,,null,,,,
13974,,,survey-text,109,753183,0.0-13.0-3.19,43912,List2B,black,man,,,,,"{""Q0"":""Fred and Luke are touching each other ""}","<img src=""stim_listB/touch6.gif""</stim_listB>",are touching each other,
13874,"<img src='img/portrait_matrix_list2.JPG' style='width:900px;height:500px;''></img><p>If you have memorised all the portraits and names and are ready to start, press Continue.</p><p><strong>Please note: Your memory of these faces will be tested 4 times during this experiment.</strong></p>",0,html-button-response,110,767058,0.0-14.0-0.0,43912,List2B,black,man,,,,,,,,
2340,"<img src=""portrait/BW2.jpg""style=""width:400px;height:400px;""></img>",2,html-button-response,111,770400,0.0-14.0-1.0,43912,List2B,black,man,,TRUE,2,,,,,
null,CORRECT,,html-keyboard-response,112,771906,0.0-14.0-2.0-0.0,43912,List2B,black,man,,,,null,,,,
1459,"<img src=""portrait/BM1.jpg""style=""width:400px;height:400px;""></img>",4,html-button-response,113,773367,0.0-14.0-4.0,43912,List2B,black,man,,TRUE,4,,,,,
null,CORRECT,,html-keyboard-response,114,774875,0.0-14.0-5.0-0.0,43912,List2B,black,man,,,,null,,,,
1479,"<img src=""portrait/BW1.jpg""style=""width:400px;height:400px;""></img>",0,html-button-response,115,776355,0.0-14.0-7.0,43912,List2B,black,man,,TRUE,0,,,,,
null,CORRECT,,html-keyboard-response,116,777863,0.0-14.0-8.0-0.0,43912,List2B,black,man,,,,null,,,,
1622,"<img src=""portrait/WM2.jpg""style=""width:400px;height:400px;""></img>",7,html-button-response,117,779486,0.0-14.0-10.0,43912,List2B,black,man,,TRUE,7,,,,,
null,CORRECT,,html-keyboard-response,118,780994,0.0-14.0-11.0-0.0,43912,List2B,black,man,,,,null,,,,
2463,"<img src=""portrait/WM1.jpg""style=""width:400px;height:400px;""></img>",6,html-button-response,119,783459,0.0-14.0-13.0,43912,List2B,black,man,,TRUE,6,,,,,
null,CORRECT,,html-keyboard-response,120,784962,0.0-14.0-14.0-0.0,43912,List2B,black,man,,,,null,,,,
2432,"<img src=""portrait/WW1.jpg""style=""width:400px;height:400px;""></img>",1,html-button-response,121,787395,0.0-14.0-16.0,43912,List2B,black,man,,TRUE,1,,,,,
null,CORRECT,,html-keyboard-response,122,788901,0.0-14.0-17.0-0.0,43912,List2B,black,man,,,,null,,,,
1879,"<img src=""portrait/BM2.jpg""style=""width:400px;height:400px;""></img>",5,html-button-response,123,790782,0.0-14.0-19.0,43912,List2B,black,man,,TRUE,5,,,,,
null,CORRECT,,html-keyboard-response,124,792288,0.0-14.0-20.0-0.0,43912,List2B,black,man,,,,null,,,,
1952,"<img src=""portrait/WW2.jpg""style=""width:400px;height:400px;""></img>",3,html-button-response,125,794242,0.0-14.0-22.0,43912,List2B,black,man,,TRUE,3,,,,,
null,CORRECT,,html-keyboard-response,126,795751,0.0-14.0-23.0-0.0,43912,List2B,black,man,,,,null,,,,
5296,<p>You got 8 out of 8 right first time. Press Continue.</p>,0,html-button-response,127,801049,0.0-14.0-25.0,43912,List2B,black,man,,,,,,,,
null,"<div style=""font-size:60px;"">+</div>",,html-keyboard-response,128,802551,0.0-15.0-0.0,43912,List2B,black,man,,,,null,,,,
null,"<img src=""stim_listB/fight4.gif""</stim_listB>",,html-keyboard-response,129,804554,0.0-15.0-1.0,43912,List2B,black,man,,,,null,,,,
null,are fighting each other,,html-keyboard-response,130,806555,0.0-15.0-2.0,43912,List2B,black,man,,,,null,,,,
15944,,,survey-text,131,822500,0.0-15.0-3.0,43912,List2B,black,man,,,,,"{""Q0"":""Fred and Beth are fighting each other""}","<img src=""stim_listB/fight4.gif""</stim_listB>",are fighting each other,
null,"<div style=""font-size:60px;"">+</div>",,html-keyboard-response,132,823002,0.0-15.0-0.1,43912,List2B,black,man,,,,null,,,,
null,"<img src=""stim_listB/kiss8.gif""</stim_listB>",,html-keyboard-response,133,825004,0.0-15.0-1.1,43912,List2B,black,man,,,,null,,,,
null,are kissing each other,,html-keyboard-response,134,827009,0.0-15.0-2.1,43912,List2B,black,man,,,,null,,,,
10623,,,survey-text,135,837633,0.0-15.0-3.1,43912,List2B,black,man,,,,,"{""Q0"":""Kate and Jane are kissing each other""}","<img src=""stim_listB/kiss8.gif""</stim_listB>",are kissing each other,
null,"<div style=""font-size:60px;"">+</div>",,html-keyboard-response,136,838135,0.0-15.0-0.2,43912,List2B,black,man,,,,null,,,,
null,"<img src=""stim_listB/hug3.gif""</stim_listB>",,html-keyboard-response,137,840141,0.0-15.0-1.2,43912,List2B,black,man,,,,null,,,,
null,is hugging,,html-keyboard-response,138,842143,0.0-15.0-2.2,43912,List2B,black,man,,,,null,,,,
12161,,,survey-text,139,854306,0.0-15.0-3.2,43912,List2B,black,man,,,,,"{""Q0"":""Fred and Beth is hugging ""}","<img src=""stim_listB/hug3.gif""</stim_listB>",is hugging,
null,"<div style=""font-size:60px;"">+</div>",,html-keyboard-response,140,854810,0.0-15.0-0.3,43912,List2B,black,man,,,,null,,,,
null,"<img src=""stim_listB/hug5.gif""</stim_listB>",,html-keyboard-response,141,856812,0.0-15.0-1.3,43912,List2B,black,man,,,,null,,,,
null,is hugging,,html-keyboard-response,142,858816,0.0-15.0-2.3,43912,List2B,black,man,,,,null,,,,
10313,,,survey-text,143,869130,0.0-15.0-3.3,43912,List2B,black,man,,,,,"{""Q0"":""Fred and Luke is hugging ""}","<img src=""stim_listB/hug5.gif""</stim_listB>",is hugging,
null,"<div style=""font-size:60px;"">+</div>",,html-keyboard-response,144,869633,0.0-15.0-0.4,43912,List2B,black,man,,,,null,,,,
null,"<img src=""stim_listB/shout3.gif""</stim_listB>",,html-keyboard-response,145,871637,0.0-15.0-1.4,43912,List2B,black,man,,,,null,,,,
null,is shouting at,,html-keyboard-response,146,873641,0.0-15.0-2.4,43912,List2B,black,man,,,,null,,,,
11834,,,survey-text,147,885476,0.0-15.0-3.4,43912,List2B,black,man,,,,,"{""Q0"":""Beth is shouting at Fred ""}","<img src=""stim_listB/shout3.gif""</stim_listB>",is shouting at,
null,"<div style=""font-size:60px;"">+</div>",,html-keyboard-response,148,885977,0.0-15.0-0.5,43912,List2B,black,man,,,,null,,,,
null,"<img src=""stim_listB/dance2.gif""</stim_listB>",,html-keyboard-response,149,887983,0.0-15.0-1.5,43912,List2B,black,man,,,,null,,,,
null,are dancing with each other,,html-keyboard-response,150,889984,0.0-15.0-2.5,43912,List2B,black,man,,,,null,,,,
17220,,,survey-text,151,907205,0.0-15.0-3.5,43912,List2B,black,man,,,,,"{""Q0"":""Dave and Ruth are dancing with each other ""}","<img src=""stim_listB/dance2.gif""</stim_listB>",are dancing with each other,
null,"<div style=""font-size:60px;"">+</div>",,html-keyboard-response,152,907708,0.0-15.0-0.6,43912,List2B,black,man,,,,null,,,,
null,"<img src=""stim_listB/talk2.gif""</stim_listB>",,html-keyboard-response,153,909713,0.0-15.0-1.6,43912,List2B,black,man,,,,null,,,,
null,are talking to each other,,html-keyboard-response,154,911714,0.0-15.0-2.6,43912,List2B,black,man,,,,null,,,,
12619,,,survey-text,155,924334,0.0-15.0-3.6,43912,List2B,black,man,,,,,"{""Q0"":""Dave and Ruth are talking to each other ""}","<img src=""stim_listB/talk2.gif""</stim_listB>",are talking to each other,
null,"<div style=""font-size:60px;"">+</div>",,html-keyboard-response,156,924837,0.0-15.0-0.7,43912,List2B,black,man,,,,null,,,,
null,"<img src=""stim_listB/kiss6.gif""</stim_listB>",,html-keyboard-response,157,926839,0.0-15.0-1.7,43912,List2B,black,man,,,,null,,,,
null,are kissing each other,,html-keyboard-response,158,928843,0.0-15.0-2.7,43912,List2B,black,man,,,,null,,,,
15394,,,survey-text,159,944238,0.0-15.0-3.7,43912,List2B,black,man,,,,,"{""Q0"":""mike and dave are kissing each other ""}","<img src=""stim_listB/kiss6.gif""</stim_listB>",are kissing each other,
null,"<div style=""font-size:60px;"">+</div>",,html-keyboard-response,160,944744,0.0-15.0-0.8,43912,List2B,black,man,,,,null,,,,
null,"<img src=""stim_listB/argue7.gif""</stim_listB>",,html-keyboard-response,161,946749,0.0-15.0-1.8,43912,List2B,black,man,,,,null,,,,
null,is arguing with,,html-keyboard-response,162,948754,0.0-15.0-2.8,43912,List2B,black,man,,,,null,,,,
16420,,,survey-text,163,965175,0.0-15.0-3.8,43912,List2B,black,man,,,,,"{""Q0"":""Beth is arguing with Jane ""}","<img src=""stim_listB/argue7.gif""</stim_listB>",is arguing with,
null,"<div style=""font-size:60px;"">+</div>",,html-keyboard-response,164,965679,0.0-15.0-0.9,43912,List2B,black,man,,,,null,,,,
null,"<img src=""stim_listB/marry5.gif""</stim_listB>",,html-keyboard-response,165,967680,0.0-15.0-1.9,43912,List2B,black,man,,,,null,,,,
null,is marrying,,html-keyboard-response,166,969685,0.0-15.0-2.9,43912,List2B,black,man,,,,null,,,,
25972,,,survey-text,167,995658,0.0-15.0-3.9,43912,List2B,black,man,,,,,"{""Q0"":""Dave and Fred is Marrying ""}","<img src=""stim_listB/marry5.gif""</stim_listB>",is marrying,
null,"<div style=""font-size:60px;"">+</div>",,html-keyboard-response,168,996164,0.0-15.0-0.10,43912,List2B,black,man,,,,null,,,,
null,"<img src=""stim_listB/fight6.gif""</stim_listB>",,html-keyboard-response,169,998165,0.0-15.0-1.10,43912,List2B,black,man,,,,null,,,,
null,are fighting each other,,html-keyboard-response,170,1000167,0.0-15.0-2.10,43912,List2B,black,man,,,,null,,,,
12212,,,survey-text,171,1012380,0.0-15.0-3.10,43912,List2B,black,man,,,,,"{""Q0"":""Fred and luke are fighting each other ""}","<img src=""stim_listB/fight6.gif""</stim_listB>",are fighting each other,
null,"<div style=""font-size:60px;"">+</div>",,html-keyboard-response,172,1012885,0.0-15.0-0.11,43912,List2B,black,man,,,,null,,,,
null,"<img src=""stim_listB/marry1.gif""</stim_listB>",,html-keyboard-response,173,1014889,0.0-15.0-1.11,43912,List2B,black,man,,,,null,,,,
null,is marrying,,html-keyboard-response,174,1016891,0.0-15.0-2.11,43912,List2B,black,man,,,,null,,,,
14647,,,survey-text,175,1031538,0.0-15.0-3.11,43912,List2B,black,man,,,,,"{""Q0"":""Dave is marrying Ruth""}","<img src=""stim_listB/marry1.gif""</stim_listB>",is marrying,
null,"<div style=""font-size:60px;"">+</div>",,html-keyboard-response,176,1032040,0.0-15.0-0.12,43912,List2B,black,man,,,,null,,,,
null,"<img src=""stim_listB/talk7.gif""</stim_listB>",,html-keyboard-response,177,1034041,0.0-15.0-1.12,43912,List2B,black,man,,,,null,,,,
null,is talking to,,html-keyboard-response,178,1036046,0.0-15.0-2.12,43912,List2B,black,man,,,,null,,,,
19277,,,survey-text,179,1055326,0.0-15.0-3.12,43912,List2B,black,man,,,,,"{""Q0"":""Ruth is talking to Kate ""}","<img src=""stim_listB/talk7.gif""</stim_listB>",is talking to,
null,"<div style=""font-size:60px;"">+</div>",,html-keyboard-response,180,1055830,0.0-15.0-0.13,43912,List2B,black,man,,,,null,,,,
null,"<img src=""stim_listB/touch5.gif""</stim_listB>",,html-keyboard-response,181,1057835,0.0-15.0-1.13,43912,List2B,black,man,,,,null,,,,
null,is touching,,html-keyboard-response,182,1059836,0.0-15.0-2.13,43912,List2B,black,man,,,,null,,,,
12260,,,survey-text,183,1072097,0.0-15.0-3.13,43912,List2B,black,man,,,,,"{""Q0"":""Mike is touching Dave""}","<img src=""stim_listB/touch5.gif""</stim_listB>",is touching,
null,"<div style=""font-size:60px;"">+</div>",,html-keyboard-response,184,1072602,0.0-15.0-0.14,43912,List2B,black,man,,,,null,,,,
null,"<img src=""stim_listB/argue8.gif""</stim_listB>",,html-keyboard-response,185,1074604,0.0-15.0-1.14,43912,List2B,black,man,,,,null,,,,
null,are arguing with each other,,html-keyboard-response,186,1076607,0.0-15.0-2.14,43912,List2B,black,man,,,,null,,,,
18848,,,survey-text,187,1095455,0.0-15.0-3.14,43912,List2B,black,man,,,,,"{""Q0"":""Ruth is arguing with Kate ""}","<img src=""stim_listB/argue8.gif""</stim_listB>",are arguing with each other,
null,"<div style=""font-size:60px;"">+</div>",,html-keyboard-response,188,1095960,0.0-15.0-0.15,43912,List2B,black,man,,,,null,,,,
null,"<img src=""stim_listB/fight3.gif""</stim_listB>",,html-keyboard-response,189,1097962,0.0-15.0-1.15,43912,List2B,black,man,,,,null,,,,
null,is fighting,,html-keyboard-response,190,1099963,0.0-15.0-2.15,43912,List2B,black,man,,,,null,,,,
10672,,,survey-text,191,1110636,0.0-15.0-3.15,43912,List2B,black,man,,,,,"{""Q0"":""Kate is fighting Mike""}","<img src=""stim_listB/fight3.gif""</stim_listB>",is fighting,
null,"<div style=""font-size:60px;"">+</div>",,html-keyboard-response,192,1111137,0.0-15.0-0.16,43912,List2B,black,man,,,,null,,,,
null,"<img src=""stim_listB/touch2.gif""</stim_listB>",,html-keyboard-response,193,1113142,0.0-15.0-1.16,43912,List2B,black,man,,,,null,,,,
null,are touching each other,,html-keyboard-response,194,1115143,0.0-15.0-2.16,43912,List2B,black,man,,,,null,,,,
18296,,,survey-text,195,1133441,0.0-15.0-3.16,43912,List2B,black,man,,,,,"{""Q0"":""ruth and luke is touching each other ""}","<img src=""stim_listB/touch2.gif""</stim_listB>",are touching each other,
null,"<div style=""font-size:60px;"">+</div>",,html-keyboard-response,196,1133942,0.0-15.0-0.17,43912,List2B,black,man,,,,null,,,,
null,"<img src=""stim_listB/talk3.gif""</stim_listB>",,html-keyboard-response,197,1135943,0.0-15.0-1.17,43912,List2B,black,man,,,,null,,,,
null,is talking to,,html-keyboard-response,198,1137947,0.0-15.0-2.17,43912,List2B,black,man,,,,null,,,,
11464,,,survey-text,199,1149413,0.0-15.0-3.17,43912,List2B,black,man,,,,,"{""Q0"":""Kate is talking to fred""}","<img src=""stim_listB/talk3.gif""</stim_listB>",is talking to,
null,"<div style=""font-size:60px;"">+</div>",,html-keyboard-response,200,1149914,0.0-15.0-0.18,43912,List2B,black,man,,,,null,,,,
null,"<img src=""stim_listB/kiss1.gif""</stim_listB>",,html-keyboard-response,201,1151917,0.0-15.0-1.18,43912,List2B,black,man,,,,null,,,,
null,is kissing,,html-keyboard-response,202,1153922,0.0-15.0-2.18,43912,List2B,black,man,,,,null,,,,
20572,,,survey-text,203,1174494,0.0-15.0-3.18,43912,List2B,black,man,,,,,"{""Q0"":""ruth and luke is kissing ""}","<img src=""stim_listB/kiss1.gif""</stim_listB>",is kissing,
null,"<div style=""font-size:60px;"">+</div>",,html-keyboard-response,204,1175000,0.0-15.0-0.19,43912,List2B,black,man,,,,null,,,,
null,"<img src=""stim_listB/dance1.gif""</stim_listB>",,html-keyboard-response,205,1177006,0.0-15.0-1.19,43912,List2B,black,man,,,,null,,,,
null,is dancing with,,html-keyboard-response,206,1179009,0.0-15.0-2.19,43912,List2B,black,man,,,,null,,,,
15061,,,survey-text,207,1194070,0.0-15.0-3.19,43912,List2B,black,man,,,,,"{""Q0"":""Jane is dancing with Luke""}","<img src=""stim_listB/dance1.gif""</stim_listB>",is dancing with,
11793,"<img src='img/portrait_matrix_list2.JPG' style='width:900px;height:500px;''></img><p>If you have memorised all the portraits and names and are ready to start, press Continue.</p><p><strong>Please note: Your memory of these faces will be tested 4 times during this experiment.</strong></p>",0,html-button-response,208,1205864,0.0-16.0-0.0,43912,List2B,black,man,,,,,,,,
1544,"<img src=""portrait/WM1.jpg""style=""width:400px;height:400px;""></img>",6,html-button-response,209,1208411,0.0-16.0-1.0,43912,List2B,black,man,,TRUE,6,,,,,
null,CORRECT,,html-keyboard-response,210,1209918,0.0-16.0-2.0-0.0,43912,List2B,black,man,,,,null,,,,
1261,"<img src=""portrait/WM2.jpg""style=""width:400px;height:400px;""></img>",7,html-button-response,211,1211180,0.0-16.0-4.0,43912,List2B,black,man,,TRUE,7,,,,,
null,CORRECT,,html-keyboard-response,212,1212687,0.0-16.0-5.0-0.0,43912,List2B,black,man,,,,null,,,,
2001,"<img src=""portrait/BM1.jpg""style=""width:400px;height:400px;""></img>",4,html-button-response,213,1214689,0.0-16.0-7.0,43912,List2B,black,man,,TRUE,4,,,,,
null,CORRECT,,html-keyboard-response,214,1216195,0.0-16.0-8.0-0.0,43912,List2B,black,man,,,,null,,,,
2786,"<img src=""portrait/WW2.jpg""style=""width:400px;height:400px;""></img>",3,html-button-response,215,1218983,0.0-16.0-10.0,43912,List2B,black,man,,TRUE,3,,,,,
null,CORRECT,,html-keyboard-response,216,1220487,0.0-16.0-11.0-0.0,43912,List2B,black,man,,,,null,,,,
2528,"<img src=""portrait/WW1.jpg""style=""width:400px;height:400px;""></img>",1,html-button-response,217,1223016,0.0-16.0-13.0,43912,List2B,black,man,,TRUE,1,,,,,
null,CORRECT,,html-keyboard-response,218,1224524,0.0-16.0-14.0-0.0,43912,List2B,black,man,,,,null,,,,
1308,"<img src=""portrait/BW1.jpg""style=""width:400px;height:400px;""></img>",0,html-button-response,219,1225833,0.0-16.0-16.0,43912,List2B,black,man,,TRUE,0,,,,,
null,CORRECT,,html-keyboard-response,220,1227340,0.0-16.0-17.0-0.0,43912,List2B,black,man,,,,null,,,,
1931,"<img src=""portrait/BM2.jpg""style=""width:400px;height:400px;""></img>",5,html-button-response,221,1229273,0.0-16.0-19.0,43912,List2B,black,man,,TRUE,5,,,,,
null,CORRECT,,html-keyboard-response,222,1230777,0.0-16.0-20.0-0.0,43912,List2B,black,man,,,,null,,,,
2323,"<img src=""portrait/BW2.jpg""style=""width:400px;height:400px;""></img>",2,html-button-response,223,1233102,0.0-16.0-22.0,43912,List2B,black,man,,TRUE,2,,,,,
null,CORRECT,,html-keyboard-response,224,1234611,0.0-16.0-23.0-0.0,43912,List2B,black,man,,,,null,,,,
1934,<p>You got 8 out of 8 right first time. Press Continue.</p>,0,html-button-response,225,1236546,0.0-16.0-25.0,43912,List2B,black,man,,,,,,,,
null,"<div style=""font-size:60px;"">+</div>",,html-keyboard-response,226,1238051,0.0-17.0-0.0,43912,List2B,black,man,,,,null,,,,
null,"<img src=""stim_listB/kiss3.gif""</stim_listB>",,html-keyboard-response,227,1240056,0.0-17.0-1.0,43912,List2B,black,man,,,,null,,,,
null,is kissing,,html-keyboard-response,228,1242057,0.0-17.0-2.0,43912,List2B,black,man,,,,null,,,,
12948,,,survey-text,229,1255006,0.0-17.0-3.0,43912,List2B,black,man,,,,,"{""Q0"":""beth is kissing fred""}","<img src=""stim_listB/kiss3.gif""</stim_listB>",is kissing,
null,"<div style=""font-size:60px;"">+</div>",,html-keyboard-response,230,1255508,0.0-17.0-0.1,43912,List2B,black,man,,,,null,,,,
null,"<img src=""stim_listB/marry8.gif""</stim_listB>",,html-keyboard-response,231,1257510,0.0-17.0-1.1,43912,List2B,black,man,,,,null,,,,
null,are marrying each other,,html-keyboard-response,232,1259512,0.0-17.0-2.1,43912,List2B,black,man,,,,null,,,,
13776,,,survey-text,233,1273289,0.0-17.0-3.1,43912,List2B,black,man,,,,,"{""Q0"":""Kate and ruth are marrying each other ""}","<img src=""stim_listB/marry8.gif""</stim_listB>",are marrying each other,
null,"<div style=""font-size:60px;"">+</div>",,html-keyboard-response,234,1273791,0.0-17.0-0.2,43912,List2B,black,man,,,,null,,,,
null,"<img src=""stim_listB/dance4.gif""</stim_listB>",,html-keyboard-response,235,1275793,0.0-17.0-1.2,43912,List2B,black,man,,,,null,,,,
null,are dancing with each other,,html-keyboard-response,236,1277797,0.0-17.0-2.2,43912,List2B,black,man,,,,null,,,,
28536,,,survey-text,237,1306333,0.0-17.0-3.2,43912,List2B,black,man,,,,,"{""Q0"":""Beth and Mike are dancing with each other""}","<img src=""stim_listB/dance4.gif""</stim_listB>",are dancing with each other,
null,"<div style=""font-size:60px;"">+</div>",,html-keyboard-response,238,1306838,0.0-17.0-0.3,43912,List2B,black,man,,,,null,,,,
null,"<img src=""stim_listB/kiss4.gif""</stim_listB>",,html-keyboard-response,239,1308840,0.0-17.0-1.3,43912,List2B,black,man,,,,null,,,,
null,are kissing each other,,html-keyboard-response,240,1310841,0.0-17.0-2.3,43912,List2B,black,man,,,,null,,,,
42951,,,survey-text,241,1353793,0.0-17.0-3.3,43912,List2B,black,man,,,,,"{""Q0"":""Kate and mike kissing each other ""}","<img src=""stim_listB/kiss4.gif""</stim_listB>",are kissing each other,
null,"<div style=""font-size:60px;"">+</div>",,html-keyboard-response,242,1354297,0.0-17.0-0.4,43912,List2B,black,man,,,,null,,,,
null,"<img src=""stim_listB/shout8.gif""</stim_listB>",,html-keyboard-response,243,1356303,0.0-17.0-1.4,43912,List2B,black,man,,,,null,,,,
null,are shouting at each other,,html-keyboard-response,244,1358304,0.0-17.0-2.4,43912,List2B,black,man,,,,null,,,,
40903,,,survey-text,245,1399208,0.0-17.0-3.4,43912,List2B,black,man,,,,,"{""Q0"":""kate and jane arguing ""}","<img src=""stim_listB/shout8.gif""</stim_listB>",are shouting at each other,
null,"<div style=""font-size:60px;"">+</div>",,html-keyboard-response,246,1399710,0.0-17.0-0.5,43912,List2B,black,man,,,,null,,,,
null,"<img src=""stim_listB/talk5.gif""</stim_listB>",,html-keyboard-response,247,1401712,0.0-17.0-1.5,43912,List2B,black,man,,,,null,,,,
null,is talking to,,html-keyboard-response,248,1403715,0.0-17.0-2.5,43912,List2B,black,man,,,,null,,,,
26207,,,survey-text,249,1429924,0.0-17.0-3.5,43912,List2B,black,man,,,,,"{""Q0"":""mike is talking to luke""}","<img src=""stim_listB/talk5.gif""</stim_listB>",is talking to,
null,"<div style=""font-size:60px;"">+</div>",,html-keyboard-response,250,1430426,0.0-17.0-0.6,43912,List2B,black,man,,,,null,,,,
null,"<img src=""stim_listB/argue6.gif""</stim_listB>",,html-keyboard-response,251,1432431,0.0-17.0-1.6,43912,List2B,black,man,,,,null,,,,
null,are arguing with each other,,html-keyboard-response,252,1434434,0.0-17.0-2.6,43912,List2B,black,man,,,,null,,,,
30156,,,survey-text,253,1464592,0.0-17.0-3.6,43912,List2B,black,man,,,,,"{""Q0"":""mike arguing with luke ""}","<img src=""stim_listB/argue6.gif""</stim_listB>",are arguing with each other,
null,"<div style=""font-size:60px;"">+</div>",,html-keyboard-response,254,1465095,0.0-17.0-0.7,43912,List2B,black,man,,,,null,,,,
null,"<img src=""stim_listB/argue3.gif""</stim_listB>",,html-keyboard-response,255,1467101,0.0-17.0-1.7,43912,List2B,black,man,,,,null,,,,
null,is arguing with,,html-keyboard-response,256,1469103,0.0-17.0-2.7,43912,List2B,black,man,,,,null,,,,
20372,,,survey-text,257,1489476,0.0-17.0-3.7,43912,List2B,black,man,,,,,"{""Q0"":""beth and mike how ever""}","<img src=""stim_listB/argue3.gif""</stim_listB>",is arguing with,
null,"<div style=""font-size:60px;"">+</div>",,html-keyboard-response,258,1489981,0.0-17.0-0.8,43912,List2B,black,man,,,,null,,,,
null,"<img src=""stim_listB/touch7.gif""</stim_listB>",,html-keyboard-response,259,1491985,0.0-17.0-1.8,43912,List2B,black,man,,,,null,,,,
null,is touching,,html-keyboard-response,260,1493990,0.0-17.0-2.8,43912,List2B,black,man,,,,null,,,,
9125,,,survey-text,261,1503117,0.0-17.0-3.8,43912,List2B,black,man,,,,,"{""Q0"":""Jane and Kate is Touching ""}","<img src=""stim_listB/touch7.gif""</stim_listB>",is touching,
null,"<div style=""font-size:60px;"">+</div>",,html-keyboard-response,262,1503622,0.0-17.0-0.9,43912,List2B,black,man,,,,null,,,,
null,"<img src=""stim_listB/kiss2.gif""</stim_listB>",,html-keyboard-response,263,1505628,0.0-17.0-1.9,43912,List2B,black,man,,,,null,,,,
null,are kissing each other,,html-keyboard-response,264,1507631,0.0-17.0-2.9,43912,List2B,black,man,,,,null,,,,
49059,,,survey-text,265,1556690,0.0-17.0-3.9,43912,List2B,black,man,,,,,"{""Q0"":""jane and dave are kissing""}","<img src=""stim_listB/kiss2.gif""</stim_listB>",are kissing each other,
null,"<div style=""font-size:60px;"">+</div>",,html-keyboard-response,266,1557193,0.0-17.0-0.10,43912,List2B,black,man,,,,null,,,,
null,"<img src=""stim_listB/fight7.gif""</stim_listB>",,html-keyboard-response,267,1559195,0.0-17.0-1.10,43912,List2B,black,man,,,,null,,,,
null,is fighting,,html-keyboard-response,268,1561200,0.0-17.0-2.10,43912,List2B,black,man,,,,null,,,,
36865,,,survey-text,269,1598066,0.0-17.0-3.10,43912,List2B,black,man,,,,,"{""Q0"":""jane is fighting kate ""}","<img src=""stim_listB/fight7.gif""</stim_listB>",is fighting,
null,"<div style=""font-size:60px;"">+</div>",,html-keyboard-response,270,1598571,0.0-17.0-0.11,43912,List2B,black,man,,,,null,,,,
null,"<img src=""stim_listB/shout1.gif""</stim_listB>",,html-keyboard-response,271,1600572,0.0-17.0-1.11,43912,List2B,black,man,,,,null,,,,
null,is shouting at,,html-keyboard-response,272,1602577,0.0-17.0-2.11,43912,List2B,black,man,,,,null,,,,
18041,,,survey-text,273,1620618,0.0-17.0-3.11,43912,List2B,black,man,,,,,"{""Q0"":""luke is shouting at ruth ""}","<img src=""stim_listB/shout1.gif""</stim_listB>",is shouting at,
null,"<div style=""font-size:60px;"">+</div>",,html-keyboard-response,274,1621119,0.0-17.0-0.12,43912,List2B,black,man,,,,null,,,,
null,"<img src=""stim_listB/kiss5.gif""</stim_listB>",,html-keyboard-response,275,1623121,0.0-17.0-1.12,43912,List2B,black,man,,,,null,,,,
null,is kissing,,html-keyboard-response,276,1625126,0.0-17.0-2.12,43912,List2B,black,man,,,,null,,,,
41049,,,survey-text,277,1666176,0.0-17.0-3.12,43912,List2B,black,man,,,,,"{""Q0"":""Fred is Kissing luke""}","<img src=""stim_listB/kiss5.gif""</stim_listB>",is kissing,
null,"<div style=""font-size:60px;"">+</div>",,html-keyboard-response,278,1666682,0.0-17.0-0.13,43912,List2B,black,man,,,,null,,,,
null,"<img src=""stim_listB/meet7.gif""</stim_listB>",,html-keyboard-response,279,1668686,0.0-17.0-1.13,43912,List2B,black,man,,,,null,,,,
null,is meeting,,html-keyboard-response,280,1670689,0.0-17.0-2.13,43912,List2B,black,man,,,,null,,,,
8837,,,survey-text,281,1679528,0.0-17.0-3.13,43912,List2B,black,man,,,,,"{""Q0"":""kate is meeting jane ""}","<img src=""stim_listB/meet7.gif""</stim_listB>",is meeting,
null,"<div style=""font-size:60px;"">+</div>",,html-keyboard-response,282,1680030,0.0-17.0-0.14,43912,List2B,black,man,,,,null,,,,
null,"<img src=""stim_listB/dance6.gif""</stim_listB>",,html-keyboard-response,283,1682031,0.0-17.0-1.14,43912,List2B,black,man,,,,null,,,,
null,are dancing with each other,,html-keyboard-response,284,1684032,0.0-17.0-2.14,43912,List2B,black,man,,,,null,,,,
34877,,,survey-text,285,1718910,0.0-17.0-3.14,43912,List2B,black,man,,,,,"{""Q0"":""Fred and Dave are dancing  with each other ""}","<img src=""stim_listB/dance6.gif""</stim_listB>",are dancing with each other,
null,"<div style=""font-size:60px;"">+</div>",,html-keyboard-response,286,1719411,0.0-17.0-0.15,43912,List2B,black,man,,,,null,,,,
null,"<img src=""stim_listB/meet5.gif""</stim_listB>",,html-keyboard-response,287,1721412,0.0-17.0-1.15,43912,List2B,black,man,,,,null,,,,
null,is meeting,,html-keyboard-response,288,1723413,0.0-17.0-2.15,43912,List2B,black,man,,,,null,,,,
22467,,,survey-text,289,1745881,0.0-17.0-3.15,43912,List2B,black,man,,,,,"{""Q0"":""dave and Mike are shacking hands ""}","<img src=""stim_listB/meet5.gif""</stim_listB>",is meeting,
null,"<div style=""font-size:60px;"">+</div>",,html-keyboard-response,290,1746385,0.0-17.0-0.16,43912,List2B,black,man,,,,null,,,,
null,"<img src=""stim_listB/marry2.gif""</stim_listB>",,html-keyboard-response,291,1748390,0.0-17.0-1.16,43912,List2B,black,man,,,,null,,,,
null,are marrying each other,,html-keyboard-response,292,1750391,0.0-17.0-2.16,43912,List2B,black,man,,,,null,,,,
53650,,,survey-text,293,1804041,0.0-17.0-3.16,43912,List2B,black,man,,,,,"{""Q0"":""Jane and Luke are marrying each other""}","<img src=""stim_listB/marry2.gif""</stim_listB>",are marrying each other,
null,"<div style=""font-size:60px;"">+</div>",,html-keyboard-response,294,1804543,0.0-17.0-0.17,43912,List2B,black,man,,,,null,,,,
null,"<img src=""stim_listB/argue5.gif""</stim_listB>",,html-keyboard-response,295,1806545,0.0-17.0-1.17,43912,List2B,black,man,,,,null,,,,
null,is arguing with,,html-keyboard-response,296,1808546,0.0-17.0-2.17,43912,List2B,black,man,,,,null,,,,
31255,,,survey-text,297,1839802,0.0-17.0-3.17,43912,List2B,black,man,,,,,"{""Q0"":""Dave is arguing with fred""}","<img src=""stim_listB/argue5.gif""</stim_listB>",is arguing with,
null,"<div style=""font-size:60px;"">+</div>",,html-keyboard-response,298,1840305,0.0-17.0-0.18,43912,List2B,black,man,,,,null,,,,
null,"<img src=""stim_listB/meet8.gif""</stim_listB>",,html-keyboard-response,299,1842307,0.0-17.0-1.18,43912,List2B,black,man,,,,null,,,,
null,are meeting each other,,html-keyboard-response,300,1844307,0.0-17.0-2.18,43912,List2B,black,man,,,,null,,,,
61983,,,survey-text,301,1906291,0.0-17.0-3.18,43912,List2B,black,man,,,,,"{""Q0"":""beth and ruth are talking with each other ""}","<img src=""stim_listB/meet8.gif""</stim_listB>",are meeting each other,
null,"<div style=""font-size:60px;"">+</div>",,html-keyboard-response,302,1906794,0.0-17.0-0.19,43912,List2B,black,man,,,,null,,,,
null,"<img src=""stim_listB/shout6.gif""</stim_listB>",,html-keyboard-response,303,1908798,0.0-17.0-1.19,43912,List2B,black,man,,,,null,,,,
null,are shouting at each other,,html-keyboard-response,304,1910799,0.0-17.0-2.19,43912,List2B,black,man,,,,null,,,,
21466,,,survey-text,305,1932266,0.0-17.0-3.19,43912,List2B,black,man,,,,,"{""Q0"":""Mike and Dave are talking ""}","<img src=""stim_listB/shout6.gif""</stim_listB>",are shouting at each other,
6325,"<img src='img/portrait_matrix_list2.JPG' style='width:900px;height:500px;''></img><p>If you have memorised all the portraits and names and are ready to start, press Continue.</p><p><strong>Please note: Your memory of these faces will be tested 4 times during this experiment.</strong></p>",0,html-button-response,306,1938592,0.0-18.0-0.0,43912,List2B,black,man,,,,,,,,
1712,"<img src=""portrait/BW1.jpg""style=""width:400px;height:400px;""></img>",0,html-button-response,307,1941309,0.0-18.0-1.0,43912,List2B,black,man,,TRUE,0,,,,,
null,CORRECT,,html-keyboard-response,308,1942816,0.0-18.0-2.0-0.0,43912,List2B,black,man,,,,null,,,,
1194,"<img src=""portrait/WW1.jpg""style=""width:400px;height:400px;""></img>",1,html-button-response,309,1944012,0.0-18.0-4.0,43912,List2B,black,man,,TRUE,1,,,,,
null,CORRECT,,html-keyboard-response,310,1945515,0.0-18.0-5.0-0.0,43912,List2B,black,man,,,,null,,,,
2275,"<img src=""portrait/WM2.jpg""style=""width:400px;height:400px;""></img>",7,html-button-response,311,1947791,0.0-18.0-7.0,43912,List2B,black,man,,TRUE,7,,,,,
null,CORRECT,,html-keyboard-response,312,1949297,0.0-18.0-8.0-0.0,43912,List2B,black,man,,,,null,,,,
2416,"<img src=""portrait/BM1.jpg""style=""width:400px;height:400px;""></img>",4,html-button-response,313,1951716,0.0-18.0-10.0,43912,List2B,black,man,,TRUE,4,,,,,
null,CORRECT,,html-keyboard-response,314,1953222,0.0-18.0-11.0-0.0,43912,List2B,black,man,,,,null,,,,
2784,"<img src=""portrait/BM2.jpg""style=""width:400px;height:400px;""></img>",5,html-button-response,315,1956008,0.0-18.0-13.0,43912,List2B,black,man,,TRUE,5,,,,,
null,CORRECT,,html-keyboard-response,316,1957514,0.0-18.0-14.0-0.0,43912,List2B,black,man,,,,null,,,,
2407,"<img src=""portrait/BW2.jpg""style=""width:400px;height:400px;""></img>",2,html-button-response,317,1959923,0.0-18.0-16.0,43912,List2B,black,man,,TRUE,2,,,,,
null,CORRECT,,html-keyboard-response,318,1961427,0.0-18.0-17.0-0.0,43912,List2B,black,man,,,,null,,,,
4230,"<img src=""portrait/WW2.jpg""style=""width:400px;height:400px;""></img>",3,html-button-response,319,1965658,0.0-18.0-19.0,43912,List2B,black,man,,TRUE,3,,,,,
null,CORRECT,,html-keyboard-response,320,1967166,0.0-18.0-20.0-0.0,43912,List2B,black,man,,,,null,,,,
2605,"<img src=""portrait/WM1.jpg""style=""width:400px;height:400px;""></img>",6,html-button-response,321,1969773,0.0-18.0-22.0,43912,List2B,black,man,,TRUE,6,,,,,
null,CORRECT,,html-keyboard-response,322,1971274,0.0-18.0-23.0-0.0,43912,List2B,black,man,,,,null,,,,
5645,<p>You got 8 out of 8 right first time. Press Continue.</p>,0,html-button-response,323,1976921,0.0-18.0-25.0,43912,List2B,black,man,,,,,,,,
null,"<div style=""font-size:60px;"">+</div>",,html-keyboard-response,324,1978432,0.0-19.0-0.0,43912,List2B,black,man,,,,null,,,,
null,"<img src=""stim_listB/shout4.gif""</stim_listB>",,html-keyboard-response,325,1980434,0.0-19.0-1.0,43912,List2B,black,man,,,,null,,,,
null,are shouting at each other,,html-keyboard-response,326,1982435,0.0-19.0-2.0,43912,List2B,black,man,,,,null,,,,
22259,,,survey-text,327,2004695,0.0-19.0-3.0,43912,List2B,black,man,,,,,"{""Q0"":""kate and mike are shouting at each other""}","<img src=""stim_listB/shout4.gif""</stim_listB>",are shouting at each other,
null,"<div style=""font-size:60px;"">+</div>",,html-keyboard-response,328,2005201,0.0-19.0-0.1,43912,List2B,black,man,,,,null,,,,
null,"<img src=""stim_listB/marry6.gif""</stim_listB>",,html-keyboard-response,329,2007204,0.0-19.0-1.1,43912,List2B,black,man,,,,null,,,,
null,are marrying each other,,html-keyboard-response,330,2009209,0.0-19.0-2.1,43912,List2B,black,man,,,,null,,,,
40403,,,survey-text,331,2049612,0.0-19.0-3.1,43912,List2B,black,man,,,,,"{""Q0"":""mike and luke are marrying each other ""}","<img src=""stim_listB/marry6.gif""</stim_listB>",are marrying each other,
null,"<div style=""font-size:60px;"">+</div>",,html-keyboard-response,332,2050114,0.0-19.0-0.2,43912,List2B,black,man,,,,null,,,,
null,"<img src=""stim_listB/hug2.gif""</stim_listB>",,html-keyboard-response,333,2052120,0.0-19.0-1.2,43912,List2B,black,man,,,,null,,,,
null,are hugging each other,,html-keyboard-response,334,2054124,0.0-19.0-2.2,43912,List2B,black,man,,,,null,,,,
25029,,,survey-text,335,2079154,0.0-19.0-3.2,43912,List2B,black,man,,,,,"{""Q0"":""dave and jane are hugging ""}","<img src=""stim_listB/hug2.gif""</stim_listB>",are hugging each other,
null,"<div style=""font-size:60px;"">+</div>",,html-keyboard-response,336,2079658,0.0-19.0-0.3,43912,List2B,black,man,,,,null,,,,
null,"<img src=""stim_listB/hug1.gif""</stim_listB>",,html-keyboard-response,337,2081663,0.0-19.0-1.3,43912,List2B,black,man,,,,null,,,,
null,is hugging,,html-keyboard-response,338,2083666,0.0-19.0-2.3,43912,List2B,black,man,,,,null,,,,
47263,,,survey-text,339,2130931,0.0-19.0-3.3,43912,List2B,black,man,,,,,"{""Q0"":""ruth and luke are hugging  ""}","<img src=""stim_listB/hug1.gif""</stim_listB>",is hugging,
null,"<div style=""font-size:60px;"">+</div>",,html-keyboard-response,340,2131435,0.0-19.0-0.4,43912,List2B,black,man,,,,null,,,,
null,"<img src=""stim_listB/argue1.gif""</stim_listB>",,html-keyboard-response,341,2133440,0.0-19.0-1.4,43912,List2B,black,man,,,,null,,,,
null,is arguing with,,html-keyboard-response,342,2135444,0.0-19.0-2.4,43912,List2B,black,man,,,,null,,,,
19446,,,survey-text,343,2154892,0.0-19.0-3.4,43912,List2B,black,man,,,,,"{""Q0"":""dave is arguing with ruth""}","<img src=""stim_listB/argue1.gif""</stim_listB>",is arguing with,
null,"<div style=""font-size:60px;"">+</div>",,html-keyboard-response,344,2155396,0.0-19.0-0.5,43912,List2B,black,man,,,,null,,,,
null,"<img src=""stim_listB/dance5.gif""</stim_listB>",,html-keyboard-response,345,2157400,0.0-19.0-1.5,43912,List2B,black,man,,,,null,,,,
null,is dancing with,,html-keyboard-response,346,2159403,0.0-19.0-2.5,43912,List2B,black,man,,,,null,,,,
23685,,,survey-text,347,2183090,0.0-19.0-3.5,43912,List2B,black,man,,,,,"{""Q0"":""ruth is dancing with luke ""}","<img src=""stim_listB/dance5.gif""</stim_listB>",is dancing with,
null,"<div style=""font-size:60px;"">+</div>",,html-keyboard-response,348,2183591,0.0-19.0-0.6,43912,List2B,black,man,,,,null,,,,
null,"<img src=""stim_listB/argue2.gif""</stim_listB>",,html-keyboard-response,349,2185594,0.0-19.0-1.6,43912,List2B,black,man,,,,null,,,,
null,are arguing with each other,,html-keyboard-response,350,2187598,0.0-19.0-2.6,43912,List2B,black,man,,,,null,,,,
28290,,,survey-text,351,2215889,0.0-19.0-3.6,43912,List2B,black,man,,,,,"{""Q0"":""Jane and luke are arguing with each other ""}","<img src=""stim_listB/argue2.gif""</stim_listB>",are arguing with each other,
null,"<div style=""font-size:60px;"">+</div>",,html-keyboard-response,352,2216394,0.0-19.0-0.7,43912,List2B,black,man,,,,null,,,,
null,"<img src=""stim_listB/meet2.gif""</stim_listB>",,html-keyboard-response,353,2218396,0.0-19.0-1.7,43912,List2B,black,man,,,,null,,,,
null,are meeting each other,,html-keyboard-response,354,2220400,0.0-19.0-2.7,43912,List2B,black,man,,,,null,,,,
35947,,,survey-text,355,2256348,0.0-19.0-3.7,43912,List2B,black,man,,,,,"{""Q0"":""Luke and ruth are talking to each other ""}","<img src=""stim_listB/meet2.gif""</stim_listB>",are meeting each other,
null,"<div style=""font-size:60px;"">+</div>",,html-keyboard-response,356,2256854,0.0-19.0-0.8,43912,List2B,black,man,,,,null,,,,
null,"<img src=""stim_listB/hug8.gif""</stim_listB>",,html-keyboard-response,357,2258858,0.0-19.0-1.8,43912,List2B,black,man,,,,null,,,,
null,are hugging each other,,html-keyboard-response,358,2260862,0.0-19.0-2.8,43912,List2B,black,man,,,,null,,,,
32321,,,survey-text,359,2293184,0.0-19.0-3.8,43912,List2B,black,man,,,,,"{""Q0"":""Luke is hugging jane ""}","<img src=""stim_listB/hug8.gif""</stim_listB>",are hugging each other,
null,"<div style=""font-size:60px;"">+</div>",,html-keyboard-response,360,2293686,0.0-19.0-0.9,43912,List2B,black,man,,,,null,,,,
null,"<img src=""stim_listB/marry4.gif""</stim_listB>",,html-keyboard-response,361,2295689,0.0-19.0-1.9,43912,List2B,black,man,,,,null,,,,
null,are marrying each other,,html-keyboard-response,362,2297690,0.0-19.0-2.9,43912,List2B,black,man,,,,null,,,,
28234,,,survey-text,363,2325924,0.0-19.0-3.9,43912,List2B,black,man,,,,,"{""Q0"":""fred and kate is marrying each other ""}","<img src=""stim_listB/marry4.gif""</stim_listB>",are marrying each other,
null,"<div style=""font-size:60px;"">+</div>",,html-keyboard-response,364,2326428,0.0-19.0-0.10,43912,List2B,black,man,,,,null,,,,
null,"<img src=""stim_listB/fight5.gif""</stim_listB>",,html-keyboard-response,365,2328431,0.0-19.0-1.10,43912,List2B,black,man,,,,null,,,,
null,is fighting,,html-keyboard-response,366,2330435,0.0-19.0-2.10,43912,List2B,black,man,,,,null,,,,
11392,,,survey-text,367,2341829,0.0-19.0-3.10,43912,List2B,black,man,,,,,"{""Q0"":""dave and mike is fighting ""}","<img src=""stim_listB/fight5.gif""</stim_listB>",is fighting,
null,"<div style=""font-size:60px;"">+</div>",,html-keyboard-response,368,2342333,0.0-19.0-0.11,43912,List2B,black,man,,,,null,,,,
null,"<img src=""stim_listB/talk6.gif""</stim_listB>",,html-keyboard-response,369,2344335,0.0-19.0-1.11,43912,List2B,black,man,,,,null,,,,
null,are talking to each other,,html-keyboard-response,370,2346338,0.0-19.0-2.11,43912,List2B,black,man,,,,null,,,,
28000,,,survey-text,371,2374339,0.0-19.0-3.11,43912,List2B,black,man,,,,,"{""Q0"":""fred and dave is talking to each other ""}","<img src=""stim_listB/talk6.gif""</stim_listB>",are talking to each other,
null,"<div style=""font-size:60px;"">+</div>",,html-keyboard-response,372,2374845,0.0-19.0-0.12,43912,List2B,black,man,,,,null,,,,
null,"<img src=""stim_listB/marry3.gif""</stim_listB>",,html-keyboard-response,373,2376849,0.0-19.0-1.12,43912,List2B,black,man,,,,null,,,,
null,is marrying,,html-keyboard-response,374,2378854,0.0-19.0-2.12,43912,List2B,black,man,,,,null,,,,
12808,,,survey-text,375,2391664,0.0-19.0-3.12,43912,List2B,black,man,,,,,"{""Q0"":""Mike is Marrying Beth ""}","<img src=""stim_listB/marry3.gif""</stim_listB>",is marrying,
null,"<div style=""font-size:60px;"">+</div>",,html-keyboard-response,376,2392169,0.0-19.0-0.13,43912,List2B,black,man,,,,null,,,,
null,"<img src=""stim_listB/touch4.gif""</stim_listB>",,html-keyboard-response,377,2394174,0.0-19.0-1.13,43912,List2B,black,man,,,,null,,,,
null,are touching each other,,html-keyboard-response,378,2396176,0.0-19.0-2.13,43912,List2B,black,man,,,,null,,,,
15442,,,survey-text,379,2411618,0.0-19.0-3.13,43912,List2B,black,man,,,,,"{""Q0"":""beth and fred is touching each other ""}","<img src=""stim_listB/touch4.gif""</stim_listB>",are touching each other,
null,"<div style=""font-size:60px;"">+</div>",,html-keyboard-response,380,2412123,0.0-19.0-0.14,43912,List2B,black,man,,,,null,,,,
null,"<img src=""stim_listB/dance7.gif""</stim_listB>",,html-keyboard-response,381,2414129,0.0-19.0-1.14,43912,List2B,black,man,,,,null,,,,
null,is dancing with,,html-keyboard-response,382,2416130,0.0-19.0-2.14,43912,List2B,black,man,,,,null,,,,
10535,,,survey-text,383,2426666,0.0-19.0-3.14,43912,List2B,black,man,,,,,"{""Q0"":""ruth is dancing with Kate ""}","<img src=""stim_listB/dance7.gif""</stim_listB>",is dancing with,
null,"<div style=""font-size:60px;"">+</div>",,html-keyboard-response,384,2427167,0.0-19.0-0.15,43912,List2B,black,man,,,,null,,,,
null,"<img src=""stim_listB/dance8.gif""</stim_listB>",,html-keyboard-response,385,2429169,0.0-19.0-1.15,43912,List2B,black,man,,,,null,,,,
null,are dancing with each other,,html-keyboard-response,386,2431174,0.0-19.0-2.15,43912,List2B,black,man,,,,null,,,,
18114,,,survey-text,387,2449289,0.0-19.0-3.15,43912,List2B,black,man,,,,,"{""Q0"":""beth and jane is dancing with each other ""}","<img src=""stim_listB/dance8.gif""</stim_listB>",are dancing with each other,
null,"<div style=""font-size:60px;"">+</div>",,html-keyboard-response,388,2449793,0.0-19.0-0.16,43912,List2B,black,man,,,,null,,,,
null,"<img src=""stim_listB/argue4.gif""</stim_listB>",,html-keyboard-response,389,2451797,0.0-19.0-1.16,43912,List2B,black,man,,,,null,,,,
null,are arguing with each other,,html-keyboard-response,390,2453798,0.0-19.0-2.16,43912,List2B,black,man,,,,null,,,,
15022,,,survey-text,391,2468822,0.0-19.0-3.16,43912,List2B,black,man,,,,,"{""Q0"":""fred and kate are arguing with each other ""}","<img src=""stim_listB/argue4.gif""</stim_listB>",are arguing with each other,
null,"<div style=""font-size:60px;"">+</div>",,html-keyboard-response,392,2469323,0.0-19.0-0.17,43912,List2B,black,man,,,,null,,,,
null,"<img src=""stim_listB/talk1.gif""</stim_listB>",,html-keyboard-response,393,2471329,0.0-19.0-1.17,43912,List2B,black,man,,,,null,,,,
null,is talking to,,html-keyboard-response,394,2473334,0.0-19.0-2.17,43912,List2B,black,man,,,,null,,,,
12161,,,survey-text,395,2485495,0.0-19.0-3.17,43912,List2B,black,man,,,,,"{""Q0"":""jane and luke is talking""}","<img src=""stim_listB/talk1.gif""</stim_listB>",is talking to,
null,"<div style=""font-size:60px;"">+</div>",,html-keyboard-response,396,2485998,0.0-19.0-0.18,43912,List2B,black,man,,,,null,,,,
null,"<img src=""stim_listB/hug4.gif""</stim_listB>",,html-keyboard-response,397,2488003,0.0-19.0-1.18,43912,List2B,black,man,,,,null,,,,
null,are hugging each other,,html-keyboard-response,398,2490004,0.0-19.0-2.18,43912,List2B,black,man,,,,null,,,,
22123,,,survey-text,399,2512128,0.0-19.0-3.18,43912,List2B,black,man,,,,,"{""Q0"":""mike and  kate is hugging each other ""}","<img src=""stim_listB/hug4.gif""</stim_listB>",are hugging each other,
null,"<div style=""font-size:60px;"">+</div>",,html-keyboard-response,400,2512632,0.0-19.0-0.19,43912,List2B,black,man,,,,null,,,,
null,"<img src=""stim_listB/meet6.gif""</stim_listB>",,html-keyboard-response,401,2514637,0.0-19.0-1.19,43912,List2B,black,man,,,,null,,,,
null,are meeting each other,,html-keyboard-response,402,2516638,0.0-19.0-2.19,43912,List2B,black,man,,,,null,,,,
14952,,,survey-text,403,2531591,0.0-19.0-3.19,43912,List2B,black,man,,,,,"{""Q0"":""Fred and Luke is meeting  each other""}","<img src=""stim_listB/meet6.gif""</stim_listB>",are meeting each other,
3647,<p>Thank you for completing that task.</p><p>The final part of this session is a short questionnaire.</p><p>Press Continue.</p>,0,html-button-response,404,2535240,0.0-20.0,43912,List2B,black,man,,,,,,,,
32756,,,survey-text,405,2569000,0.0-21.0,43912,List2B,black,man,,,,,"{""Q0"":""34"",""Q1"":""English"",""Q2"":""English"",""Q3"":""UK"",""Q4"":""Black "",""Q5"":""Male""}",,,demographics
86690,,,survey-likert,406,2655696,0.0-22.0,43912,List2B,black,man,,,,,"{""Q0"":5,""Q1"":5,""Q2"":5,""Q3"":"""",""Q4"":"""",""Q5"":6,""Q6"":6,""Q7"":5,""Q8"":6,""Q9"":6,""Q10"":1,""Q11"":4,""Q12"":4,""Q13"":2}",,,likert_race
38479,,,survey-likert,407,2694180,0.0-23.0,43912,List2B,black,man,,,,,"{""Q0"":5,""Q1"":5,""Q2"":5,""Q3"":5,""Q4"":5,""Q5"":"""",""Q6"":"""",""Q7"":"""",""Q8"":"""",""Q9"":"""",""Q10"":"""",""Q11"":5,""Q12"":5,""Q13"":5}",,,likert_gender
11156,,,survey-text,408,2705337,0.0-24.0,43912,List2B,black,man,,,,,"{""Q0"":""ccc""}",,,worker_id
10206,,,external-html,409,2715624,0.0-25.0,43912,List2B,black,man,debrief.html,,,,,,,
