rt,stimulus,button_pressed,trial_type,trial_index,time_elapsed,internal_node_id,subject,list,ppt_race,ppt_gender,url,first_guess,correct,key_press,responses,image_type,phrase_type,test_part
2264,Welcome to the experiment. Press Continue to begin.,0,html-button-response,0,2273,0.0-0.0,44227,List2A,white,woman,,,,,,,,
17715,,,external-html,1,21051,0.0-1.0,44227,List2A,white,woman,consent.html,,,,,,,
6604,"<p>On the next page, you will see portraits of 8 people and their names.</p><p>Your first task is to take a few minutes to memorise the names of these people.</p><p>You will have to recall their names during the rest of the experiment, so it is</p><p>essential that you try to memorise these people and their names as best as you can.</p><br><p><strong>You will then be tested on your memory of these names and portraits.</strong></p><br><p>The experiment will start after you have completed this memory test.</p><br><p>Ready?</p>",0,html-button-response,2,27660,0.0-2.0,44227,List2A,white,woman,,,,,,,,
64647,"<img src='img/portrait_matrix_list2.JPG' style='width:900px;height:500px;''></img><p>If you have memorised all the portraits and names and are ready to start, press Continue.</p><p><strong>Please note: Your memory of these faces will be tested 4 times during this experiment.</strong></p>",0,html-button-response,3,93320,0.0-3.0-0.0,44227,List2A,white,woman,,,,,,,,
2371,"<img src=""portrait/WW2.jpg""style=""width:400px;height:400px;""></img>",3,html-button-response,4,96696,0.0-3.0-1.0,44227,List2A,white,woman,,TRUE,3,,,,,
null,CORRECT,,html-keyboard-response,5,98207,0.0-3.0-2.0-0.0,44227,List2A,white,woman,,,,null,,,,
3234,"<img src=""portrait/WM1.jpg""style=""width:400px;height:400px;""></img>",6,html-button-response,6,101447,0.0-3.0-4.0,44227,List2A,white,woman,,TRUE,6,,,,,
null,CORRECT,,html-keyboard-response,7,102951,0.0-3.0-5.0-0.0,44227,List2A,white,woman,,,,null,,,,
3168,"<img src=""portrait/BW1.jpg""style=""width:400px;height:400px;""></img>",0,html-button-response,8,106125,0.0-3.0-7.0,44227,List2A,white,woman,,TRUE,0,,,,,
null,CORRECT,,html-keyboard-response,9,107630,0.0-3.0-8.0-0.0,44227,List2A,white,woman,,,,null,,,,
3072,"<img src=""portrait/BW2.jpg""style=""width:400px;height:400px;""></img>",2,html-button-response,10,110708,0.0-3.0-10.0,44227,List2A,white,woman,,TRUE,2,,,,,
null,CORRECT,,html-keyboard-response,11,112213,0.0-3.0-11.0-0.0,44227,List2A,white,woman,,,,null,,,,
4118,"<img src=""portrait/WW1.jpg""style=""width:400px;height:400px;""></img>",1,html-button-response,12,116348,0.0-3.0-13.0,44227,List2A,white,woman,,TRUE,1,,,,,
null,CORRECT,,html-keyboard-response,13,117854,0.0-3.0-14.0-0.0,44227,List2A,white,woman,,,,null,,,,
2200,"<img src=""portrait/BM2.jpg""style=""width:400px;height:400px;""></img>",5,html-button-response,14,120061,0.0-3.0-16.0,44227,List2A,white,woman,,TRUE,5,,,,,
null,CORRECT,,html-keyboard-response,15,121566,0.0-3.0-17.0-0.0,44227,List2A,white,woman,,,,null,,,,
2480,"<img src=""portrait/WM2.jpg""style=""width:400px;height:400px;""></img>",7,html-button-response,16,124054,0.0-3.0-19.0,44227,List2A,white,woman,,TRUE,7,,,,,
null,CORRECT,,html-keyboard-response,17,125559,0.0-3.0-20.0-0.0,44227,List2A,white,woman,,,,null,,,,
2441,"<img src=""portrait/BM1.jpg""style=""width:400px;height:400px;""></img>",4,html-button-response,18,128006,0.0-3.0-22.0,44227,List2A,white,woman,,TRUE,4,,,,,
null,CORRECT,,html-keyboard-response,19,129510,0.0-3.0-23.0-0.0,44227,List2A,white,woman,,,,null,,,,
1720,<p>You got 8 out of 8 right first time. Press Continue.</p>,0,html-button-response,20,131235,0.0-3.0-25.0,44227,List2A,white,woman,,,,,,,,
25822,"<p>In this experiment, you will view photographs of the people from the memory game interacting.</p><p>By using the <strong>exact</strong> phrase given <i>after</i> the photograph appears and recalling the correct names of the people in the photographs, form a sentence describing the interaction. You do not need to capitalise names.</p><p>Type your answer in the space provided. Please complete every sentence before moving onto the next trial.</p><p>You will only have a few seconds to memorise each given photograph and phrase before you can respond, so try your best to focus.</p><p>An example is given below. Press 'Continue' when you are ready.</p><img src='img/speaking_example_v2.jpg' style='width:800px;height:460px;''></img>",0,html-button-response,21,158066,0.0-4.0,44227,List2A,white,woman,,,,,,,,
2153,"<p>Before the experiment starts, you will watch two example trials. Press 'Continue'.</p>",0,html-button-response,22,161223,0.0-5.0,44227,List2A,white,woman,,,,,,,,
null,<img src='img/speaking_WW.gif'></img>,,html-keyboard-response,23,164229,0.0-6.0,44227,List2A,white,woman,,,,null,,,,
null,<p>is speaking to</p>,,html-keyboard-response,24,166232,0.0-7.0,44227,List2A,white,woman,,,,null,,,,
4262,<p><b>Answer:</b> jane is speaking to ruth</p>,0,html-button-response,25,170500,0.0-8.0,44227,List2A,white,woman,,,,,,,,
null,<img src='img/pointing_BM.gif'></img>,,html-keyboard-response,26,173505,0.0-9.0,44227,List2A,white,woman,,,,null,,,,
null,<p>are pointing at each other</p>,,html-keyboard-response,27,175509,0.0-10.0,44227,List2A,white,woman,,,,null,,,,
4405,<p><b>Answer:</b> fred and mike are pointing at each other</p>,0,html-button-response,28,179917,0.0-11.0,44227,List2A,white,woman,,,,,,,,
6050,"<p>Ready to start the experiment?</p><br><p><strong>Remember to describe the picture using a full sentence,</strong></p><p><strong>that combines the names of the people with the given phrase.</strong></p><p><strong>If you do not do this correctly you will not be paid.</strong></p><p><strong> You do not need to capitalise names or use punctuation.</strong></p><br><p>Press 'Continue' to begin.</p>",0,html-button-response,29,186972,0.0-12.0,44227,List2A,white,woman,,,,,,,,
null,"<div style=""font-size:60px;"">+</div>",,html-keyboard-response,30,188476,0.0-13.0-0.0,44227,List2A,white,woman,,,,null,,,,
null,"<img src=""stim_listA/shout3.gif""</stim_listA>",,html-keyboard-response,31,190483,0.0-13.0-1.0,44227,List2A,white,woman,,,,null,,,,
null,is shouting at,,html-keyboard-response,32,192487,0.0-13.0-2.0,44227,List2A,white,woman,,,,null,,,,
20874,,,survey-text,33,213372,0.0-13.0-3.0,44227,List2A,white,woman,,,,,"{""Q0"":""Fred is shouting at Ruth ""}","<img src=""stim_listA/shout3.gif""</stim_listA>",is shouting at,
null,"<div style=""font-size:60px;"">+</div>",,html-keyboard-response,34,213885,0.0-13.0-0.1,44227,List2A,white,woman,,,,null,,,,
null,"<img src=""stim_listA/talk1.gif""</stim_listA>",,html-keyboard-response,35,215893,0.0-13.0-1.1,44227,List2A,white,woman,,,,null,,,,
null,is talking to,,html-keyboard-response,36,217898,0.0-13.0-2.1,44227,List2A,white,woman,,,,null,,,,
10323,,,survey-text,37,228226,0.0-13.0-3.1,44227,List2A,white,woman,,,,,"{""Q0"":""Luke is talking to Jane ""}","<img src=""stim_listA/talk1.gif""</stim_listA>",is talking to,
null,"<div style=""font-size:60px;"">+</div>",,html-keyboard-response,38,228731,0.0-13.0-0.2,44227,List2A,white,woman,,,,null,,,,
null,"<img src=""stim_listA/meet5.gif""</stim_listA>",,html-keyboard-response,39,230737,0.0-13.0-1.2,44227,List2A,white,woman,,,,null,,,,
null,is meeting,,html-keyboard-response,40,232741,0.0-13.0-2.2,44227,List2A,white,woman,,,,null,,,,
8161,,,survey-text,41,240906,0.0-13.0-3.2,44227,List2A,white,woman,,,,,"{""Q0"":""Dave is meeting mike""}","<img src=""stim_listA/meet5.gif""</stim_listA>",is meeting,
null,"<div style=""font-size:60px;"">+</div>",,html-keyboard-response,42,241410,0.0-13.0-0.3,44227,List2A,white,woman,,,,null,,,,
null,"<img src=""stim_listA/kiss8.gif""</stim_listA>",,html-keyboard-response,43,243414,0.0-13.0-1.3,44227,List2A,white,woman,,,,null,,,,
null,are kissing each other,,html-keyboard-response,44,245419,0.0-13.0-2.3,44227,List2A,white,woman,,,,null,,,,
11052,,,survey-text,45,256478,0.0-13.0-3.3,44227,List2A,white,woman,,,,,"{""Q0"":""Kate and Jane are kissing each other""}","<img src=""stim_listA/kiss8.gif""</stim_listA>",are kissing each other,
null,"<div style=""font-size:60px;"">+</div>",,html-keyboard-response,46,256984,0.0-13.0-0.4,44227,List2A,white,woman,,,,null,,,,
null,"<img src=""stim_listA/talk8.gif""</stim_listA>",,html-keyboard-response,47,258989,0.0-13.0-1.4,44227,List2A,white,woman,,,,null,,,,
null,are talking to each other,,html-keyboard-response,48,260994,0.0-13.0-2.4,44227,List2A,white,woman,,,,null,,,,
18484,,,survey-text,49,279483,0.0-13.0-3.4,44227,List2A,white,woman,,,,,"{""Q0"":""Jane and Beth are talking to each other""}","<img src=""stim_listA/talk8.gif""</stim_listA>",are talking to each other,
null,"<div style=""font-size:60px;"">+</div>",,html-keyboard-response,50,279987,0.0-13.0-0.5,44227,List2A,white,woman,,,,null,,,,
null,"<img src=""stim_listA/dance7.gif""</stim_listA>",,html-keyboard-response,51,281991,0.0-13.0-1.5,44227,List2A,white,woman,,,,null,,,,
null,is dancing with,,html-keyboard-response,52,283994,0.0-13.0-2.5,44227,List2A,white,woman,,,,null,,,,
15096,,,survey-text,53,299094,0.0-13.0-3.5,44227,List2A,white,woman,,,,,"{""Q0"":""Ruth is dancing with kate""}","<img src=""stim_listA/dance7.gif""</stim_listA>",is dancing with,
null,"<div style=""font-size:60px;"">+</div>",,html-keyboard-response,54,299601,0.0-13.0-0.6,44227,List2A,white,woman,,,,null,,,,
null,"<img src=""stim_listA/kiss6.gif""</stim_listA>",,html-keyboard-response,55,301608,0.0-13.0-1.6,44227,List2A,white,woman,,,,null,,,,
null,are kissing each other,,html-keyboard-response,56,303612,0.0-13.0-2.6,44227,List2A,white,woman,,,,null,,,,
11728,,,survey-text,57,315344,0.0-13.0-3.6,44227,List2A,white,woman,,,,,"{""Q0"":""Mike and Dave are kissing each other""}","<img src=""stim_listA/kiss6.gif""</stim_listA>",are kissing each other,
null,"<div style=""font-size:60px;"">+</div>",,html-keyboard-response,58,315848,0.0-13.0-0.7,44227,List2A,white,woman,,,,null,,,,
null,"<img src=""stim_listA/hug1.gif""</stim_listA>",,html-keyboard-response,59,317853,0.0-13.0-1.7,44227,List2A,white,woman,,,,null,,,,
null,is hugging,,html-keyboard-response,60,319857,0.0-13.0-2.7,44227,List2A,white,woman,,,,null,,,,
9815,,,survey-text,61,329677,0.0-13.0-3.7,44227,List2A,white,woman,,,,,"{""Q0"":""Luke is hugging Ruth ""}","<img src=""stim_listA/hug1.gif""</stim_listA>",is hugging,
null,"<div style=""font-size:60px;"">+</div>",,html-keyboard-response,62,330186,0.0-13.0-0.8,44227,List2A,white,woman,,,,null,,,,
null,"<img src=""stim_listA/fight4.gif""</stim_listA>",,html-keyboard-response,63,332191,0.0-13.0-1.8,44227,List2A,white,woman,,,,null,,,,
null,are fighting each other,,html-keyboard-response,64,334195,0.0-13.0-2.8,44227,List2A,white,woman,,,,null,,,,
11769,,,survey-text,65,345968,0.0-13.0-3.8,44227,List2A,white,woman,,,,,"{""Q0"":""Fred and Beth are fighting each other""}","<img src=""stim_listA/fight4.gif""</stim_listA>",are fighting each other,
null,"<div style=""font-size:60px;"">+</div>",,html-keyboard-response,66,346473,0.0-13.0-0.9,44227,List2A,white,woman,,,,null,,,,
null,"<img src=""stim_listA/hug4.gif""</stim_listA>",,html-keyboard-response,67,348478,0.0-13.0-1.9,44227,List2A,white,woman,,,,null,,,,
null,are hugging each other,,html-keyboard-response,68,350481,0.0-13.0-2.9,44227,List2A,white,woman,,,,null,,,,
14809,,,survey-text,69,365294,0.0-13.0-3.9,44227,List2A,white,woman,,,,,"{""Q0"":""Mike and Kate are hugging each other""}","<img src=""stim_listA/hug4.gif""</stim_listA>",are hugging each other,
null,"<div style=""font-size:60px;"">+</div>",,html-keyboard-response,70,365800,0.0-13.0-0.10,44227,List2A,white,woman,,,,null,,,,
null,"<img src=""stim_listA/argue5.gif""</stim_listA>",,html-keyboard-response,71,367809,0.0-13.0-1.10,44227,List2A,white,woman,,,,null,,,,
null,is arguing with,,html-keyboard-response,72,369812,0.0-13.0-2.10,44227,List2A,white,woman,,,,null,,,,
13800,,,survey-text,73,383615,0.0-13.0-3.10,44227,List2A,white,woman,,,,,"{""Q0"":""Fred is arguing with Dave ""}","<img src=""stim_listA/argue5.gif""</stim_listA>",is arguing with,
null,"<div style=""font-size:60px;"">+</div>",,html-keyboard-response,74,384121,0.0-13.0-0.11,44227,List2A,white,woman,,,,null,,,,
null,"<img src=""stim_listA/fight1.gif""</stim_listA>",,html-keyboard-response,75,386126,0.0-13.0-1.11,44227,List2A,white,woman,,,,null,,,,
null,is fighting,,html-keyboard-response,76,388131,0.0-13.0-2.11,44227,List2A,white,woman,,,,null,,,,
8803,,,survey-text,77,396938,0.0-13.0-3.11,44227,List2A,white,woman,,,,,"{""Q0"":""Jane is fighting Dave ""}","<img src=""stim_listA/fight1.gif""</stim_listA>",is fighting,
null,"<div style=""font-size:60px;"">+</div>",,html-keyboard-response,78,397441,0.0-13.0-0.12,44227,List2A,white,woman,,,,null,,,,
null,"<img src=""stim_listA/kiss5.gif""</stim_listA>",,html-keyboard-response,79,399446,0.0-13.0-1.12,44227,List2A,white,woman,,,,null,,,,
null,is kissing,,html-keyboard-response,80,401459,0.0-13.0-2.12,44227,List2A,white,woman,,,,null,,,,
11524,,,survey-text,81,412987,0.0-13.0-3.12,44227,List2A,white,woman,,,,,"{""Q0"":""Luke is kissing Fred ""}","<img src=""stim_listA/kiss5.gif""</stim_listA>",is kissing,
null,"<div style=""font-size:60px;"">+</div>",,html-keyboard-response,82,413492,0.0-13.0-0.13,44227,List2A,white,woman,,,,null,,,,
null,"<img src=""stim_listA/kiss2.gif""</stim_listA>",,html-keyboard-response,83,415497,0.0-13.0-1.13,44227,List2A,white,woman,,,,null,,,,
null,are kissing each other,,html-keyboard-response,84,417502,0.0-13.0-2.13,44227,List2A,white,woman,,,,null,,,,
13400,,,survey-text,85,430905,0.0-13.0-3.13,44227,List2A,white,woman,,,,,"{""Q0"":""Jane and Fred are kissing each other""}","<img src=""stim_listA/kiss2.gif""</stim_listA>",are kissing each other,
null,"<div style=""font-size:60px;"">+</div>",,html-keyboard-response,86,431409,0.0-13.0-0.14,44227,List2A,white,woman,,,,null,,,,
null,"<img src=""stim_listA/kiss4.gif""</stim_listA>",,html-keyboard-response,87,433414,0.0-13.0-1.14,44227,List2A,white,woman,,,,null,,,,
null,are kissing each other,,html-keyboard-response,88,435423,0.0-13.0-2.14,44227,List2A,white,woman,,,,null,,,,
12241,,,survey-text,89,447668,0.0-13.0-3.14,44227,List2A,white,woman,,,,,"{""Q0"":""Mike and Kate are kissing each other""}","<img src=""stim_listA/kiss4.gif""</stim_listA>",are kissing each other,
null,"<div style=""font-size:60px;"">+</div>",,html-keyboard-response,90,448173,0.0-13.0-0.15,44227,List2A,white,woman,,,,null,,,,
null,"<img src=""stim_listA/meet8.gif""</stim_listA>",,html-keyboard-response,91,450178,0.0-13.0-1.15,44227,List2A,white,woman,,,,null,,,,
null,are meeting each other,,html-keyboard-response,92,452182,0.0-13.0-2.15,44227,List2A,white,woman,,,,null,,,,
15727,,,survey-text,93,467913,0.0-13.0-3.15,44227,List2A,white,woman,,,,,"{""Q0"":""Ruth and Beth are meeting each other""}","<img src=""stim_listA/meet8.gif""</stim_listA>",are meeting each other,
null,"<div style=""font-size:60px;"">+</div>",,html-keyboard-response,94,468419,0.0-13.0-0.16,44227,List2A,white,woman,,,,null,,,,
null,"<img src=""stim_listA/marry6.gif""</stim_listA>",,html-keyboard-response,95,470426,0.0-13.0-1.16,44227,List2A,white,woman,,,,null,,,,
null,are marrying each other,,html-keyboard-response,96,472431,0.0-13.0-2.16,44227,List2A,white,woman,,,,null,,,,
14219,,,survey-text,97,486655,0.0-13.0-3.16,44227,List2A,white,woman,,,,,"{""Q0"":""Luke and mike are marrying each other ""}","<img src=""stim_listA/marry6.gif""</stim_listA>",are marrying each other,
null,"<div style=""font-size:60px;"">+</div>",,html-keyboard-response,98,487160,0.0-13.0-0.17,44227,List2A,white,woman,,,,null,,,,
null,"<img src=""stim_listA/shout4.gif""</stim_listA>",,html-keyboard-response,99,489165,0.0-13.0-1.17,44227,List2A,white,woman,,,,null,,,,
null,are shouting at each other,,html-keyboard-response,100,491169,0.0-13.0-2.17,44227,List2A,white,woman,,,,null,,,,
14569,,,survey-text,101,505742,0.0-13.0-3.17,44227,List2A,white,woman,,,,,"{""Q0"":""Kate and mike are shouting at each other""}","<img src=""stim_listA/shout4.gif""</stim_listA>",are shouting at each other,
null,"<div style=""font-size:60px;"">+</div>",,html-keyboard-response,102,506246,0.0-13.0-0.18,44227,List2A,white,woman,,,,null,,,,
null,"<img src=""stim_listA/marry3.gif""</stim_listA>",,html-keyboard-response,103,508250,0.0-13.0-1.18,44227,List2A,white,woman,,,,null,,,,
null,is marrying,,html-keyboard-response,104,510254,0.0-13.0-2.18,44227,List2A,white,woman,,,,null,,,,
15202,,,survey-text,105,525459,0.0-13.0-3.18,44227,List2A,white,woman,,,,,"{""Q0"":""Beth is marrying mike""}","<img src=""stim_listA/marry3.gif""</stim_listA>",is marrying,
null,"<div style=""font-size:60px;"">+</div>",,html-keyboard-response,106,525964,0.0-13.0-0.19,44227,List2A,white,woman,,,,null,,,,
null,"<img src=""stim_listA/kiss3.gif""</stim_listA>",,html-keyboard-response,107,527969,0.0-13.0-1.19,44227,List2A,white,woman,,,,null,,,,
null,is kissing,,html-keyboard-response,108,529973,0.0-13.0-2.19,44227,List2A,white,woman,,,,null,,,,
9430,,,survey-text,109,539409,0.0-13.0-3.19,44227,List2A,white,woman,,,,,"{""Q0"":""Beth is kissing Fred ""}","<img src=""stim_listA/kiss3.gif""</stim_listA>",is kissing,
47360,"<img src='img/portrait_matrix_list2.JPG' style='width:900px;height:500px;''></img><p>If you have memorised all the portraits and names and are ready to start, press Continue.</p><p><strong>Please note: Your memory of these faces will be tested 4 times during this experiment.</strong></p>",0,html-button-response,110,586784,0.0-14.0-0.0,44227,List2A,white,woman,,,,,,,,
2408,"<img src=""portrait/BW2.jpg""style=""width:400px;height:400px;""></img>",2,html-button-response,111,590200,0.0-14.0-1.0,44227,List2A,white,woman,,TRUE,2,,,,,
null,CORRECT,,html-keyboard-response,112,591709,0.0-14.0-2.0-0.0,44227,List2A,white,woman,,,,null,,,,
1920,"<img src=""portrait/WM2.jpg""style=""width:400px;height:400px;""></img>",7,html-button-response,113,593635,0.0-14.0-4.0,44227,List2A,white,woman,,TRUE,7,,,,,
null,CORRECT,,html-keyboard-response,114,595140,0.0-14.0-5.0-0.0,44227,List2A,white,woman,,,,null,,,,
2343,"<img src=""portrait/BW1.jpg""style=""width:400px;height:400px;""></img>",0,html-button-response,115,597489,0.0-14.0-7.0,44227,List2A,white,woman,,TRUE,0,,,,,
null,CORRECT,,html-keyboard-response,116,598994,0.0-14.0-8.0-0.0,44227,List2A,white,woman,,,,null,,,,
1346,"<img src=""portrait/WW1.jpg""style=""width:400px;height:400px;""></img>",1,html-button-response,117,600345,0.0-14.0-10.0,44227,List2A,white,woman,,TRUE,1,,,,,
null,CORRECT,,html-keyboard-response,118,601848,0.0-14.0-11.0-0.0,44227,List2A,white,woman,,,,null,,,,
2089,"<img src=""portrait/WW2.jpg""style=""width:400px;height:400px;""></img>",3,html-button-response,119,603941,0.0-14.0-13.0,44227,List2A,white,woman,,TRUE,3,,,,,
null,CORRECT,,html-keyboard-response,120,605446,0.0-14.0-14.0-0.0,44227,List2A,white,woman,,,,null,,,,
1767,"<img src=""portrait/BM2.jpg""style=""width:400px;height:400px;""></img>",5,html-button-response,121,607217,0.0-14.0-16.0,44227,List2A,white,woman,,TRUE,5,,,,,
null,CORRECT,,html-keyboard-response,122,608722,0.0-14.0-17.0-0.0,44227,List2A,white,woman,,,,null,,,,
1711,"<img src=""portrait/BM1.jpg""style=""width:400px;height:400px;""></img>",4,html-button-response,123,610439,0.0-14.0-19.0,44227,List2A,white,woman,,TRUE,4,,,,,
null,CORRECT,,html-keyboard-response,124,611943,0.0-14.0-20.0-0.0,44227,List2A,white,woman,,,,null,,,,
1878,"<img src=""portrait/WM1.jpg""style=""width:400px;height:400px;""></img>",6,html-button-response,125,613828,0.0-14.0-22.0,44227,List2A,white,woman,,TRUE,6,,,,,
null,CORRECT,,html-keyboard-response,126,615334,0.0-14.0-23.0-0.0,44227,List2A,white,woman,,,,null,,,,
1361,<p>You got 8 out of 8 right first time. Press Continue.</p>,0,html-button-response,127,616700,0.0-14.0-25.0,44227,List2A,white,woman,,,,,,,,
null,"<div style=""font-size:60px;"">+</div>",,html-keyboard-response,128,618207,0.0-15.0-0.0,44227,List2A,white,woman,,,,null,,,,
null,"<img src=""stim_listA/argue3.gif""</stim_listA>",,html-keyboard-response,129,620214,0.0-15.0-1.0,44227,List2A,white,woman,,,,null,,,,
null,is arguing with,,html-keyboard-response,130,622218,0.0-15.0-2.0,44227,List2A,white,woman,,,,null,,,,
10011,,,survey-text,131,632233,0.0-15.0-3.0,44227,List2A,white,woman,,,,,"{""Q0"":""Beth is arguing with mike""}","<img src=""stim_listA/argue3.gif""</stim_listA>",is arguing with,
null,"<div style=""font-size:60px;"">+</div>",,html-keyboard-response,132,632740,0.0-15.0-0.1,44227,List2A,white,woman,,,,null,,,,
null,"<img src=""stim_listA/hug7.gif""</stim_listA>",,html-keyboard-response,133,634745,0.0-15.0-1.1,44227,List2A,white,woman,,,,null,,,,
null,is hugging,,html-keyboard-response,134,636750,0.0-15.0-2.1,44227,List2A,white,woman,,,,null,,,,
8843,,,survey-text,135,645597,0.0-15.0-3.1,44227,List2A,white,woman,,,,,"{""Q0"":""Ruth is hugging Beth ""}","<img src=""stim_listA/hug7.gif""</stim_listA>",is hugging,
null,"<div style=""font-size:60px;"">+</div>",,html-keyboard-response,136,646103,0.0-15.0-0.2,44227,List2A,white,woman,,,,null,,,,
null,"<img src=""stim_listA/touch3.gif""</stim_listA>",,html-keyboard-response,137,648109,0.0-15.0-1.2,44227,List2A,white,woman,,,,null,,,,
null,is touching,,html-keyboard-response,138,650113,0.0-15.0-2.2,44227,List2A,white,woman,,,,null,,,,
9840,,,survey-text,139,659957,0.0-15.0-3.2,44227,List2A,white,woman,,,,,"{""Q0"":""Mike is touching Kate ""}","<img src=""stim_listA/touch3.gif""</stim_listA>",is touching,
null,"<div style=""font-size:60px;"">+</div>",,html-keyboard-response,140,660462,0.0-15.0-0.3,44227,List2A,white,woman,,,,null,,,,
null,"<img src=""stim_listA/fight6.gif""</stim_listA>",,html-keyboard-response,141,662478,0.0-15.0-1.3,44227,List2A,white,woman,,,,null,,,,
null,are fighting each other,,html-keyboard-response,142,664482,0.0-15.0-2.3,44227,List2A,white,woman,,,,null,,,,
14278,,,survey-text,143,678763,0.0-15.0-3.3,44227,List2A,white,woman,,,,,"{""Q0"":""Luke and Fred are fighting each other""}","<img src=""stim_listA/fight6.gif""</stim_listA>",are fighting each other,
null,"<div style=""font-size:60px;"">+</div>",,html-keyboard-response,144,679269,0.0-15.0-0.4,44227,List2A,white,woman,,,,null,,,,
null,"<img src=""stim_listA/touch1.gif""</stim_listA>",,html-keyboard-response,145,681273,0.0-15.0-1.4,44227,List2A,white,woman,,,,null,,,,
null,is touching,,html-keyboard-response,146,683277,0.0-15.0-2.4,44227,List2A,white,woman,,,,null,,,,
15208,,,survey-text,147,698489,0.0-15.0-3.4,44227,List2A,white,woman,,,,,"{""Q0"":""Jane is touching Dave ""}","<img src=""stim_listA/touch1.gif""</stim_listA>",is touching,
null,"<div style=""font-size:60px;"">+</div>",,html-keyboard-response,148,698994,0.0-15.0-0.5,44227,List2A,white,woman,,,,null,,,,
null,"<img src=""stim_listA/argue7.gif""</stim_listA>",,html-keyboard-response,149,701000,0.0-15.0-1.5,44227,List2A,white,woman,,,,null,,,,
null,is arguing with,,html-keyboard-response,150,703004,0.0-15.0-2.5,44227,List2A,white,woman,,,,null,,,,
8871,,,survey-text,151,711879,0.0-15.0-3.5,44227,List2A,white,woman,,,,,"{""Q0"":""Beth is arguing with Jane ""}","<img src=""stim_listA/argue7.gif""</stim_listA>",is arguing with,
null,"<div style=""font-size:60px;"">+</div>",,html-keyboard-response,152,712384,0.0-15.0-0.6,44227,List2A,white,woman,,,,null,,,,
null,"<img src=""stim_listA/argue2.gif""</stim_listA>",,html-keyboard-response,153,714389,0.0-15.0-1.6,44227,List2A,white,woman,,,,null,,,,
null,are arguing with each other,,html-keyboard-response,154,716393,0.0-15.0-2.6,44227,List2A,white,woman,,,,null,,,,
18332,,,survey-text,155,734730,0.0-15.0-3.6,44227,List2A,white,woman,,,,,"{""Q0"":""Jane and Luke are arguing with each other ""}","<img src=""stim_listA/argue2.gif""</stim_listA>",are arguing with each other,
null,"<div style=""font-size:60px;"">+</div>",,html-keyboard-response,156,735235,0.0-15.0-0.7,44227,List2A,white,woman,,,,null,,,,
null,"<img src=""stim_listA/argue8.gif""</stim_listA>",,html-keyboard-response,157,737240,0.0-15.0-1.7,44227,List2A,white,woman,,,,null,,,,
null,are arguing with each other,,html-keyboard-response,158,739244,0.0-15.0-2.7,44227,List2A,white,woman,,,,null,,,,
15007,,,survey-text,159,754256,0.0-15.0-3.7,44227,List2A,white,woman,,,,,"{""Q0"":""Kate and Ruth are arguing with each other""}","<img src=""stim_listA/argue8.gif""</stim_listA>",are arguing with each other,
null,"<div style=""font-size:60px;"">+</div>",,html-keyboard-response,160,754761,0.0-15.0-0.8,44227,List2A,white,woman,,,,null,,,,
null,"<img src=""stim_listA/fight2.gif""</stim_listA>",,html-keyboard-response,161,756766,0.0-15.0-1.8,44227,List2A,white,woman,,,,null,,,,
null,are fighting each other,,html-keyboard-response,162,758771,0.0-15.0-2.8,44227,List2A,white,woman,,,,null,,,,
13319,,,survey-text,163,772098,0.0-15.0-3.8,44227,List2A,white,woman,,,,,"{""Q0"":""Ruth and Luke are fighting each other ""}","<img src=""stim_listA/fight2.gif""</stim_listA>",are fighting each other,
null,"<div style=""font-size:60px;"">+</div>",,html-keyboard-response,164,772601,0.0-15.0-0.9,44227,List2A,white,woman,,,,null,,,,
null,"<img src=""stim_listA/argue4.gif""</stim_listA>",,html-keyboard-response,165,774607,0.0-15.0-1.9,44227,List2A,white,woman,,,,null,,,,
null,are arguing with each other,,html-keyboard-response,166,776610,0.0-15.0-2.9,44227,List2A,white,woman,,,,null,,,,
16668,,,survey-text,167,793283,0.0-15.0-3.9,44227,List2A,white,woman,,,,,"{""Q0"":""Fred and Kate are arguing with each other ""}","<img src=""stim_listA/argue4.gif""</stim_listA>",are arguing with each other,
null,"<div style=""font-size:60px;"">+</div>",,html-keyboard-response,168,793786,0.0-15.0-0.10,44227,List2A,white,woman,,,,null,,,,
null,"<img src=""stim_listA/talk4.gif""</stim_listA>",,html-keyboard-response,169,795792,0.0-15.0-1.10,44227,List2A,white,woman,,,,null,,,,
null,are talking to each other,,html-keyboard-response,170,797796,0.0-15.0-2.10,44227,List2A,white,woman,,,,null,,,,
13533,,,survey-text,171,811333,0.0-15.0-3.10,44227,List2A,white,woman,,,,,"{""Q0"":""Beth and mike are talking to each other""}","<img src=""stim_listA/talk4.gif""</stim_listA>",are talking to each other,
null,"<div style=""font-size:60px;"">+</div>",,html-keyboard-response,172,811837,0.0-15.0-0.11,44227,List2A,white,woman,,,,null,,,,
null,"<img src=""stim_listA/fight7.gif""</stim_listA>",,html-keyboard-response,173,813841,0.0-15.0-1.11,44227,List2A,white,woman,,,,null,,,,
null,is fighting,,html-keyboard-response,174,815845,0.0-15.0-2.11,44227,List2A,white,woman,,,,null,,,,
10267,,,survey-text,175,826115,0.0-15.0-3.11,44227,List2A,white,woman,,,,,"{""Q0"":""Jane is fighting Kate ""}","<img src=""stim_listA/fight7.gif""</stim_listA>",is fighting,
null,"<div style=""font-size:60px;"">+</div>",,html-keyboard-response,176,826619,0.0-15.0-0.12,44227,List2A,white,woman,,,,null,,,,
null,"<img src=""stim_listA/talk5.gif""</stim_listA>",,html-keyboard-response,177,828625,0.0-15.0-1.12,44227,List2A,white,woman,,,,null,,,,
null,is talking to,,html-keyboard-response,178,830629,0.0-15.0-2.12,44227,List2A,white,woman,,,,null,,,,
14903,,,survey-text,179,845536,0.0-15.0-3.12,44227,List2A,white,woman,,,,,"{""Q0"":""Luke is talking to mike""}","<img src=""stim_listA/talk5.gif""</stim_listA>",is talking to,
null,"<div style=""font-size:60px;"">+</div>",,html-keyboard-response,180,846041,0.0-15.0-0.13,44227,List2A,white,woman,,,,null,,,,
null,"<img src=""stim_listA/talk7.gif""</stim_listA>",,html-keyboard-response,181,848046,0.0-15.0-1.13,44227,List2A,white,woman,,,,null,,,,
null,is talking to,,html-keyboard-response,182,850050,0.0-15.0-2.13,44227,List2A,white,woman,,,,null,,,,
9498,,,survey-text,183,859552,0.0-15.0-3.13,44227,List2A,white,woman,,,,,"{""Q0"":""Ruth is talking to Kate ""}","<img src=""stim_listA/talk7.gif""</stim_listA>",is talking to,
null,"<div style=""font-size:60px;"">+</div>",,html-keyboard-response,184,860056,0.0-15.0-0.14,44227,List2A,white,woman,,,,null,,,,
null,"<img src=""stim_listA/meet4.gif""</stim_listA>",,html-keyboard-response,185,862062,0.0-15.0-1.14,44227,List2A,white,woman,,,,null,,,,
null,are meeting each other,,html-keyboard-response,186,864066,0.0-15.0-2.14,44227,List2A,white,woman,,,,null,,,,
11614,,,survey-text,187,875684,0.0-15.0-3.14,44227,List2A,white,woman,,,,,"{""Q0"":""Beth and Fred are meeting each other ""}","<img src=""stim_listA/meet4.gif""</stim_listA>",are meeting each other,
null,"<div style=""font-size:60px;"">+</div>",,html-keyboard-response,188,876188,0.0-15.0-0.15,44227,List2A,white,woman,,,,null,,,,
null,"<img src=""stim_listA/dance2.gif""</stim_listA>",,html-keyboard-response,189,878194,0.0-15.0-1.15,44227,List2A,white,woman,,,,null,,,,
null,are dancing with each other,,html-keyboard-response,190,880197,0.0-15.0-2.15,44227,List2A,white,woman,,,,null,,,,
16770,,,survey-text,191,896971,0.0-15.0-3.15,44227,List2A,white,woman,,,,,"{""Q0"":""Ruth and Dave are dancing with each other""}","<img src=""stim_listA/dance2.gif""</stim_listA>",are dancing with each other,
null,"<div style=""font-size:60px;"">+</div>",,html-keyboard-response,192,897475,0.0-15.0-0.16,44227,List2A,white,woman,,,,null,,,,
null,"<img src=""stim_listA/dance5.gif""</stim_listA>",,html-keyboard-response,193,899480,0.0-15.0-1.16,44227,List2A,white,woman,,,,null,,,,
null,is dancing with,,html-keyboard-response,194,901484,0.0-15.0-2.16,44227,List2A,white,woman,,,,null,,,,
10195,,,survey-text,195,911689,0.0-15.0-3.16,44227,List2A,white,woman,,,,,"{""Q0"":""Luke is dancing with mike""}","<img src=""stim_listA/dance5.gif""</stim_listA>",is dancing with,
null,"<div style=""font-size:60px;"">+</div>",,html-keyboard-response,196,912193,0.0-15.0-0.17,44227,List2A,white,woman,,,,null,,,,
null,"<img src=""stim_listA/meet1.gif""</stim_listA>",,html-keyboard-response,197,914199,0.0-15.0-1.17,44227,List2A,white,woman,,,,null,,,,
null,is meeting,,html-keyboard-response,198,916203,0.0-15.0-2.17,44227,List2A,white,woman,,,,null,,,,
8761,,,survey-text,199,924968,0.0-15.0-3.17,44227,List2A,white,woman,,,,,"{""Q0"":""Jane is meeting Dave ""}","<img src=""stim_listA/meet1.gif""</stim_listA>",is meeting,
null,"<div style=""font-size:60px;"">+</div>",,html-keyboard-response,200,925471,0.0-15.0-0.18,44227,List2A,white,woman,,,,null,,,,
null,"<img src=""stim_listA/shout1.gif""</stim_listA>",,html-keyboard-response,201,927477,0.0-15.0-1.18,44227,List2A,white,woman,,,,null,,,,
null,is shouting at,,html-keyboard-response,202,929481,0.0-15.0-2.18,44227,List2A,white,woman,,,,null,,,,
10717,,,survey-text,203,940201,0.0-15.0-3.18,44227,List2A,white,woman,,,,,"{""Q0"":""Luke is shouting at ruth""}","<img src=""stim_listA/shout1.gif""</stim_listA>",is shouting at,
null,"<div style=""font-size:60px;"">+</div>",,html-keyboard-response,204,940705,0.0-15.0-0.19,44227,List2A,white,woman,,,,null,,,,
null,"<img src=""stim_listA/touch4.gif""</stim_listA>",,html-keyboard-response,205,942710,0.0-15.0-1.19,44227,List2A,white,woman,,,,null,,,,
null,are touching each other,,html-keyboard-response,206,944715,0.0-15.0-2.19,44227,List2A,white,woman,,,,null,,,,
25679,,,survey-text,207,970398,0.0-15.0-3.19,44227,List2A,white,woman,,,,,"{""Q0"":""Fred and Beth are touching each other ""}","<img src=""stim_listA/touch4.gif""</stim_listA>",are touching each other,
114494,"<img src='img/portrait_matrix_list2.JPG' style='width:900px;height:500px;''></img><p>If you have memorised all the portraits and names and are ready to start, press Continue.</p><p><strong>Please note: Your memory of these faces will be tested 4 times during this experiment.</strong></p>",0,html-button-response,208,1084902,0.0-16.0-0.0,44227,List2A,white,woman,,,,,,,,
1830,"<img src=""portrait/BW2.jpg""style=""width:400px;height:400px;""></img>",2,html-button-response,209,1087755,0.0-16.0-1.0,44227,List2A,white,woman,,TRUE,2,,,,,
null,CORRECT,,html-keyboard-response,210,1089268,0.0-16.0-2.0-0.0,44227,List2A,white,woman,,,,null,,,,
1917,"<img src=""portrait/BM1.jpg""style=""width:400px;height:400px;""></img>",4,html-button-response,211,1091193,0.0-16.0-4.0,44227,List2A,white,woman,,TRUE,4,,,,,
null,CORRECT,,html-keyboard-response,212,1092701,0.0-16.0-5.0-0.0,44227,List2A,white,woman,,,,null,,,,
5497,"<img src=""portrait/BM2.jpg""style=""width:400px;height:400px;""></img>",5,html-button-response,213,1098208,0.0-16.0-7.0,44227,List2A,white,woman,,TRUE,5,,,,,
null,CORRECT,,html-keyboard-response,214,1099714,0.0-16.0-8.0-0.0,44227,List2A,white,woman,,,,null,,,,
1470,"<img src=""portrait/WW2.jpg""style=""width:400px;height:400px;""></img>",3,html-button-response,215,1101189,0.0-16.0-10.0,44227,List2A,white,woman,,TRUE,3,,,,,
null,CORRECT,,html-keyboard-response,216,1102694,0.0-16.0-11.0-0.0,44227,List2A,white,woman,,,,null,,,,
3059,"<img src=""portrait/WM2.jpg""style=""width:400px;height:400px;""></img>",7,html-button-response,217,1105766,0.0-16.0-13.0,44227,List2A,white,woman,,TRUE,7,,,,,
null,CORRECT,,html-keyboard-response,218,1107274,0.0-16.0-14.0-0.0,44227,List2A,white,woman,,,,null,,,,
2766,"<img src=""portrait/BW1.jpg""style=""width:400px;height:400px;""></img>",0,html-button-response,219,1110046,0.0-16.0-16.0,44227,List2A,white,woman,,TRUE,0,,,,,
null,CORRECT,,html-keyboard-response,220,1111551,0.0-16.0-17.0-0.0,44227,List2A,white,woman,,,,null,,,,
2006,"<img src=""portrait/WW1.jpg""style=""width:400px;height:400px;""></img>",1,html-button-response,221,1113564,0.0-16.0-19.0,44227,List2A,white,woman,,TRUE,1,,,,,
null,CORRECT,,html-keyboard-response,222,1115069,0.0-16.0-20.0-0.0,44227,List2A,white,woman,,,,null,,,,
1479,"<img src=""portrait/WM1.jpg""style=""width:400px;height:400px;""></img>",6,html-button-response,223,1116555,0.0-16.0-22.0,44227,List2A,white,woman,,TRUE,6,,,,,
null,CORRECT,,html-keyboard-response,224,1118060,0.0-16.0-23.0-0.0,44227,List2A,white,woman,,,,null,,,,
1968,<p>You got 8 out of 8 right first time. Press Continue.</p>,0,html-button-response,225,1120035,0.0-16.0-25.0,44227,List2A,white,woman,,,,,,,,
null,"<div style=""font-size:60px;"">+</div>",,html-keyboard-response,226,1121546,0.0-17.0-0.0,44227,List2A,white,woman,,,,null,,,,
null,"<img src=""stim_listA/meet2.gif""</stim_listA>",,html-keyboard-response,227,1123553,0.0-17.0-1.0,44227,List2A,white,woman,,,,null,,,,
null,are meeting each other,,html-keyboard-response,228,1125558,0.0-17.0-2.0,44227,List2A,white,woman,,,,null,,,,
17104,,,survey-text,229,1142674,0.0-17.0-3.0,44227,List2A,white,woman,,,,,"{""Q0"":""Luke and Ruth are meeting each other ""}","<img src=""stim_listA/meet2.gif""</stim_listA>",are meeting each other,
null,"<div style=""font-size:60px;"">+</div>",,html-keyboard-response,230,1143179,0.0-17.0-0.1,44227,List2A,white,woman,,,,null,,,,
null,"<img src=""stim_listA/dance6.gif""</stim_listA>",,html-keyboard-response,231,1145184,0.0-17.0-1.1,44227,List2A,white,woman,,,,null,,,,
null,are dancing with each other,,html-keyboard-response,232,1147187,0.0-17.0-2.1,44227,List2A,white,woman,,,,null,,,,
14945,,,survey-text,233,1162135,0.0-17.0-3.1,44227,List2A,white,woman,,,,,"{""Q0"":""Fred and Dave are dancing with each other ""}","<img src=""stim_listA/dance6.gif""</stim_listA>",are dancing with each other,
null,"<div style=""font-size:60px;"">+</div>",,html-keyboard-response,234,1162638,0.0-17.0-0.2,44227,List2A,white,woman,,,,null,,,,
null,"<img src=""stim_listA/marry5.gif""</stim_listA>",,html-keyboard-response,235,1164643,0.0-17.0-1.2,44227,List2A,white,woman,,,,null,,,,
null,is marrying,,html-keyboard-response,236,1166644,0.0-17.0-2.2,44227,List2A,white,woman,,,,null,,,,
9565,,,survey-text,237,1176211,0.0-17.0-3.2,44227,List2A,white,woman,,,,,"{""Q0"":""Fred is marrying Dave ""}","<img src=""stim_listA/marry5.gif""</stim_listA>",is marrying,
null,"<div style=""font-size:60px;"">+</div>",,html-keyboard-response,238,1176715,0.0-17.0-0.3,44227,List2A,white,woman,,,,null,,,,
null,"<img src=""stim_listA/argue6.gif""</stim_listA>",,html-keyboard-response,239,1178718,0.0-17.0-1.3,44227,List2A,white,woman,,,,null,,,,
null,are arguing with each other,,html-keyboard-response,240,1180720,0.0-17.0-2.3,44227,List2A,white,woman,,,,null,,,,
13349,,,survey-text,241,1194071,0.0-17.0-3.3,44227,List2A,white,woman,,,,,"{""Q0"":""Luke and mike are arguing with each other ""}","<img src=""stim_listA/argue6.gif""</stim_listA>",are arguing with each other,
null,"<div style=""font-size:60px;"">+</div>",,html-keyboard-response,242,1194575,0.0-17.0-0.4,44227,List2A,white,woman,,,,null,,,,
null,"<img src=""stim_listA/shout8.gif""</stim_listA>",,html-keyboard-response,243,1196579,0.0-17.0-1.4,44227,List2A,white,woman,,,,null,,,,
null,are shouting at each other,,html-keyboard-response,244,1198582,0.0-17.0-2.4,44227,List2A,white,woman,,,,null,,,,
18813,,,survey-text,245,1217396,0.0-17.0-3.4,44227,List2A,white,woman,,,,,"{""Q0"":""Kate and Jane are shouting at each other ""}","<img src=""stim_listA/shout8.gif""</stim_listA>",are shouting at each other,
null,"<div style=""font-size:60px;"">+</div>",,html-keyboard-response,246,1217900,0.0-17.0-0.5,44227,List2A,white,woman,,,,null,,,,
null,"<img src=""stim_listA/fight5.gif""</stim_listA>",,html-keyboard-response,247,1219903,0.0-17.0-1.5,44227,List2A,white,woman,,,,null,,,,
null,is fighting,,html-keyboard-response,248,1221906,0.0-17.0-2.5,44227,List2A,white,woman,,,,null,,,,
11914,,,survey-text,249,1233824,0.0-17.0-3.5,44227,List2A,white,woman,,,,,"{""Q0"":""Dave is fighting mike""}","<img src=""stim_listA/fight5.gif""</stim_listA>",is fighting,
null,"<div style=""font-size:60px;"">+</div>",,html-keyboard-response,250,1234329,0.0-17.0-0.6,44227,List2A,white,woman,,,,null,,,,
null,"<img src=""stim_listA/hug3.gif""</stim_listA>",,html-keyboard-response,251,1236335,0.0-17.0-1.6,44227,List2A,white,woman,,,,null,,,,
null,is hugging,,html-keyboard-response,252,1238339,0.0-17.0-2.6,44227,List2A,white,woman,,,,null,,,,
12050,,,survey-text,253,1250390,0.0-17.0-3.6,44227,List2A,white,woman,,,,,"{""Q0"":""Beth is hugging Fred ""}","<img src=""stim_listA/hug3.gif""</stim_listA>",is hugging,
null,"<div style=""font-size:60px;"">+</div>",,html-keyboard-response,254,1250893,0.0-17.0-0.7,44227,List2A,white,woman,,,,null,,,,
null,"<img src=""stim_listA/dance8.gif""</stim_listA>",,html-keyboard-response,255,1252902,0.0-17.0-1.7,44227,List2A,white,woman,,,,null,,,,
null,are dancing with each other,,html-keyboard-response,256,1254906,0.0-17.0-2.7,44227,List2A,white,woman,,,,null,,,,
14613,,,survey-text,257,1269522,0.0-17.0-3.7,44227,List2A,white,woman,,,,,"{""Q0"":""Jane and Beth are dancing with each other ""}","<img src=""stim_listA/dance8.gif""</stim_listA>",are dancing with each other,
null,"<div style=""font-size:60px;"">+</div>",,html-keyboard-response,258,1270026,0.0-17.0-0.8,44227,List2A,white,woman,,,,null,,,,
null,"<img src=""stim_listA/kiss7.gif""</stim_listA>",,html-keyboard-response,259,1272037,0.0-17.0-1.8,44227,List2A,white,woman,,,,null,,,,
null,is kissing,,html-keyboard-response,260,1274039,0.0-17.0-2.8,44227,List2A,white,woman,,,,null,,,,
13580,,,survey-text,261,1287622,0.0-17.0-3.8,44227,List2A,white,woman,,,,,"{""Q0"":""Ruth is kissing Beth ""}","<img src=""stim_listA/kiss7.gif""</stim_listA>",is kissing,
null,"<div style=""font-size:60px;"">+</div>",,html-keyboard-response,262,1288126,0.0-17.0-0.9,44227,List2A,white,woman,,,,null,,,,
null,"<img src=""stim_listA/meet7.gif""</stim_listA>",,html-keyboard-response,263,1290131,0.0-17.0-1.9,44227,List2A,white,woman,,,,null,,,,
null,is meeting,,html-keyboard-response,264,1292134,0.0-17.0-2.9,44227,List2A,white,woman,,,,null,,,,
10789,,,survey-text,265,1302926,0.0-17.0-3.9,44227,List2A,white,woman,,,,,"{""Q0"":""Kate is meeting Jane ""}","<img src=""stim_listA/meet7.gif""</stim_listA>",is meeting,
null,"<div style=""font-size:60px;"">+</div>",,html-keyboard-response,266,1303429,0.0-17.0-0.10,44227,List2A,white,woman,,,,null,,,,
null,"<img src=""stim_listA/shout2.gif""</stim_listA>",,html-keyboard-response,267,1305434,0.0-17.0-1.10,44227,List2A,white,woman,,,,null,,,,
null,are shouting at each other,,html-keyboard-response,268,1307438,0.0-17.0-2.10,44227,List2A,white,woman,,,,null,,,,
20931,,,survey-text,269,1328371,0.0-17.0-3.10,44227,List2A,white,woman,,,,,"{""Q0"":""Dave and Jane are shouting at each other ""}","<img src=""stim_listA/shout2.gif""</stim_listA>",are shouting at each other,
null,"<div style=""font-size:60px;"">+</div>",,html-keyboard-response,270,1328875,0.0-17.0-0.11,44227,List2A,white,woman,,,,null,,,,
null,"<img src=""stim_listA/hug6.gif""</stim_listA>",,html-keyboard-response,271,1330879,0.0-17.0-1.11,44227,List2A,white,woman,,,,null,,,,
null,are hugging each other,,html-keyboard-response,272,1332881,0.0-17.0-2.11,44227,List2A,white,woman,,,,null,,,,
15288,,,survey-text,273,1348171,0.0-17.0-3.11,44227,List2A,white,woman,,,,,"{""Q0"":""Mike and Dave are hugging each other ""}","<img src=""stim_listA/hug6.gif""</stim_listA>",are hugging each other,
null,"<div style=""font-size:60px;"">+</div>",,html-keyboard-response,274,1348674,0.0-17.0-0.12,44227,List2A,white,woman,,,,null,,,,
null,"<img src=""stim_listA/marry1.gif""</stim_listA>",,html-keyboard-response,275,1350678,0.0-17.0-1.12,44227,List2A,white,woman,,,,null,,,,
null,is marrying,,html-keyboard-response,276,1352680,0.0-17.0-2.12,44227,List2A,white,woman,,,,null,,,,
12188,,,survey-text,277,1364871,0.0-17.0-3.12,44227,List2A,white,woman,,,,,"{""Q0"":""Ruth is marrying Dave ""}","<img src=""stim_listA/marry1.gif""</stim_listA>",is marrying,
null,"<div style=""font-size:60px;"">+</div>",,html-keyboard-response,278,1365375,0.0-17.0-0.13,44227,List2A,white,woman,,,,null,,,,
null,"<img src=""stim_listA/shout5.gif""</stim_listA>",,html-keyboard-response,279,1367384,0.0-17.0-1.13,44227,List2A,white,woman,,,,null,,,,
null,is shouting at,,html-keyboard-response,280,1369387,0.0-17.0-2.13,44227,List2A,white,woman,,,,null,,,,
13518,,,survey-text,281,1382915,0.0-17.0-3.13,44227,List2A,white,woman,,,,,"{""Q0"":""Luke is shouting at Fred ""}","<img src=""stim_listA/shout5.gif""</stim_listA>",is shouting at,
null,"<div style=""font-size:60px;"">+</div>",,html-keyboard-response,282,1383420,0.0-17.0-0.14,44227,List2A,white,woman,,,,null,,,,
null,"<img src=""stim_listA/fight8.gif""</stim_listA>",,html-keyboard-response,283,1385424,0.0-17.0-1.14,44227,List2A,white,woman,,,,null,,,,
null,are fighting each other,,html-keyboard-response,284,1387427,0.0-17.0-2.14,44227,List2A,white,woman,,,,null,,,,
17221,,,survey-text,285,1404654,0.0-17.0-3.14,44227,List2A,white,woman,,,,,"{""Q0"":""Ruth and Beth are fighting each other ""}","<img src=""stim_listA/fight8.gif""</stim_listA>",are fighting each other,
null,"<div style=""font-size:60px;"">+</div>",,html-keyboard-response,286,1405158,0.0-17.0-0.15,44227,List2A,white,woman,,,,null,,,,
null,"<img src=""stim_listA/touch8.gif""</stim_listA>",,html-keyboard-response,287,1407160,0.0-17.0-1.15,44227,List2A,white,woman,,,,null,,,,
null,are touching each other,,html-keyboard-response,288,1409163,0.0-17.0-2.15,44227,List2A,white,woman,,,,null,,,,
19247,,,survey-text,289,1428413,0.0-17.0-3.15,44227,List2A,white,woman,,,,,"{""Q0"":""Ruth and Beth are touching each other ""}","<img src=""stim_listA/touch8.gif""</stim_listA>",are touching each other,
null,"<div style=""font-size:60px;"">+</div>",,html-keyboard-response,290,1428917,0.0-17.0-0.16,44227,List2A,white,woman,,,,null,,,,
null,"<img src=""stim_listA/hug2.gif""</stim_listA>",,html-keyboard-response,291,1430923,0.0-17.0-1.16,44227,List2A,white,woman,,,,null,,,,
null,are hugging each other,,html-keyboard-response,292,1432927,0.0-17.0-2.16,44227,List2A,white,woman,,,,null,,,,
13092,,,survey-text,293,1446028,0.0-17.0-3.16,44227,List2A,white,woman,,,,,"{""Q0"":""Dave and Jane are hugging each other ""}","<img src=""stim_listA/hug2.gif""</stim_listA>",are hugging each other,
null,"<div style=""font-size:60px;"">+</div>",,html-keyboard-response,294,1446530,0.0-17.0-0.17,44227,List2A,white,woman,,,,null,,,,
null,"<img src=""stim_listA/hug5.gif""</stim_listA>",,html-keyboard-response,295,1448534,0.0-17.0-1.17,44227,List2A,white,woman,,,,null,,,,
null,is hugging,,html-keyboard-response,296,1450537,0.0-17.0-2.17,44227,List2A,white,woman,,,,null,,,,
14070,,,survey-text,297,1464609,0.0-17.0-3.17,44227,List2A,white,woman,,,,,"{""Q0"":""Luke is hugging Fred ""}","<img src=""stim_listA/hug5.gif""</stim_listA>",is hugging,
null,"<div style=""font-size:60px;"">+</div>",,html-keyboard-response,298,1465113,0.0-17.0-0.18,44227,List2A,white,woman,,,,null,,,,
null,"<img src=""stim_listA/hug8.gif""</stim_listA>",,html-keyboard-response,299,1467117,0.0-17.0-1.18,44227,List2A,white,woman,,,,null,,,,
null,are hugging each other,,html-keyboard-response,300,1469120,0.0-17.0-2.18,44227,List2A,white,woman,,,,null,,,,
17155,,,survey-text,301,1486279,0.0-17.0-3.18,44227,List2A,white,woman,,,,,"{""Q0"":""Kate and Jane are hugging each other ""}","<img src=""stim_listA/hug8.gif""</stim_listA>",are hugging each other,
null,"<div style=""font-size:60px;"">+</div>",,html-keyboard-response,302,1486782,0.0-17.0-0.19,44227,List2A,white,woman,,,,null,,,,
null,"<img src=""stim_listA/talk3.gif""</stim_listA>",,html-keyboard-response,303,1488788,0.0-17.0-1.19,44227,List2A,white,woman,,,,null,,,,
null,is talking to,,html-keyboard-response,304,1490791,0.0-17.0-2.19,44227,List2A,white,woman,,,,null,,,,
17389,,,survey-text,305,1508181,0.0-17.0-3.19,44227,List2A,white,woman,,,,,"{""Q0"":""Fred is talking to kate""}","<img src=""stim_listA/talk3.gif""</stim_listA>",is talking to,
77884,"<img src='img/portrait_matrix_list2.JPG' style='width:900px;height:500px;''></img><p>If you have memorised all the portraits and names and are ready to start, press Continue.</p><p><strong>Please note: Your memory of these faces will be tested 4 times during this experiment.</strong></p>",0,html-button-response,306,1586068,0.0-18.0-0.0,44227,List2A,white,woman,,,,,,,,
1966,"<img src=""portrait/BM2.jpg""style=""width:400px;height:400px;""></img>",5,html-button-response,307,1589049,0.0-18.0-1.0,44227,List2A,white,woman,,TRUE,5,,,,,
null,CORRECT,,html-keyboard-response,308,1590558,0.0-18.0-2.0-0.0,44227,List2A,white,woman,,,,null,,,,
2411,"<img src=""portrait/WW1.jpg""style=""width:400px;height:400px;""></img>",1,html-button-response,309,1592972,0.0-18.0-4.0,44227,List2A,white,woman,,TRUE,1,,,,,
null,CORRECT,,html-keyboard-response,310,1594479,0.0-18.0-5.0-0.0,44227,List2A,white,woman,,,,null,,,,
1475,"<img src=""portrait/BM1.jpg""style=""width:400px;height:400px;""></img>",4,html-button-response,311,1595961,0.0-18.0-7.0,44227,List2A,white,woman,,TRUE,4,,,,,
null,CORRECT,,html-keyboard-response,312,1597465,0.0-18.0-8.0-0.0,44227,List2A,white,woman,,,,null,,,,
1748,"<img src=""portrait/WM2.jpg""style=""width:400px;height:400px;""></img>",7,html-button-response,313,1599216,0.0-18.0-10.0,44227,List2A,white,woman,,TRUE,7,,,,,
null,CORRECT,,html-keyboard-response,314,1600721,0.0-18.0-11.0-0.0,44227,List2A,white,woman,,,,null,,,,
2158,"<img src=""portrait/BW2.jpg""style=""width:400px;height:400px;""></img>",2,html-button-response,315,1602883,0.0-18.0-13.0,44227,List2A,white,woman,,TRUE,2,,,,,
null,CORRECT,,html-keyboard-response,316,1604387,0.0-18.0-14.0-0.0,44227,List2A,white,woman,,,,null,,,,
1724,"<img src=""portrait/BW1.jpg""style=""width:400px;height:400px;""></img>",0,html-button-response,317,1606115,0.0-18.0-16.0,44227,List2A,white,woman,,TRUE,0,,,,,
null,CORRECT,,html-keyboard-response,318,1607618,0.0-18.0-17.0-0.0,44227,List2A,white,woman,,,,null,,,,
1375,"<img src=""portrait/WW2.jpg""style=""width:400px;height:400px;""></img>",3,html-button-response,319,1609000,0.0-18.0-19.0,44227,List2A,white,woman,,TRUE,3,,,,,
null,CORRECT,,html-keyboard-response,320,1610503,0.0-18.0-20.0-0.0,44227,List2A,white,woman,,,,null,,,,
1687,"<img src=""portrait/WM1.jpg""style=""width:400px;height:400px;""></img>",6,html-button-response,321,1612194,0.0-18.0-22.0,44227,List2A,white,woman,,TRUE,6,,,,,
null,CORRECT,,html-keyboard-response,322,1613698,0.0-18.0-23.0-0.0,44227,List2A,white,woman,,,,null,,,,
2930,<p>You got 8 out of 8 right first time. Press Continue.</p>,0,html-button-response,323,1616633,0.0-18.0-25.0,44227,List2A,white,woman,,,,,,,,
null,"<div style=""font-size:60px;"">+</div>",,html-keyboard-response,324,1618138,0.0-19.0-0.0,44227,List2A,white,woman,,,,null,,,,
null,"<img src=""stim_listA/touch7.gif""</stim_listA>",,html-keyboard-response,325,1620142,0.0-19.0-1.0,44227,List2A,white,woman,,,,null,,,,
null,is touching,,html-keyboard-response,326,1622145,0.0-19.0-2.0,44227,List2A,white,woman,,,,null,,,,
14532,,,survey-text,327,1636681,0.0-19.0-3.0,44227,List2A,white,woman,,,,,"{""Q0"":""Jane is touching Kate ""}","<img src=""stim_listA/touch7.gif""</stim_listA>",is touching,
null,"<div style=""font-size:60px;"">+</div>",,html-keyboard-response,328,1637188,0.0-19.0-0.1,44227,List2A,white,woman,,,,null,,,,
null,"<img src=""stim_listA/shout7.gif""</stim_listA>",,html-keyboard-response,329,1639194,0.0-19.0-1.1,44227,List2A,white,woman,,,,null,,,,
null,is shouting at,,html-keyboard-response,330,1641196,0.0-19.0-2.1,44227,List2A,white,woman,,,,null,,,,
10612,,,survey-text,331,1651810,0.0-19.0-3.1,44227,List2A,white,woman,,,,,"{""Q0"":""Ruth is shouting at Beth ""}","<img src=""stim_listA/shout7.gif""</stim_listA>",is shouting at,
null,"<div style=""font-size:60px;"">+</div>",,html-keyboard-response,332,1652314,0.0-19.0-0.2,44227,List2A,white,woman,,,,null,,,,
null,"<img src=""stim_listA/marry7.gif""</stim_listA>",,html-keyboard-response,333,1654318,0.0-19.0-1.2,44227,List2A,white,woman,,,,null,,,,
null,is marrying,,html-keyboard-response,334,1656320,0.0-19.0-2.2,44227,List2A,white,woman,,,,null,,,,
11756,,,survey-text,335,1668080,0.0-19.0-3.2,44227,List2A,white,woman,,,,,"{""Q0"":""Beth is marrying Jane ""}","<img src=""stim_listA/marry7.gif""</stim_listA>",is marrying,
null,"<div style=""font-size:60px;"">+</div>",,html-keyboard-response,336,1668584,0.0-19.0-0.3,44227,List2A,white,woman,,,,null,,,,
null,"<img src=""stim_listA/touch2.gif""</stim_listA>",,html-keyboard-response,337,1670589,0.0-19.0-1.3,44227,List2A,white,woman,,,,null,,,,
null,are touching each other,,html-keyboard-response,338,1672592,0.0-19.0-2.3,44227,List2A,white,woman,,,,null,,,,
16754,,,survey-text,339,1689350,0.0-19.0-3.3,44227,List2A,white,woman,,,,,"{""Q0"":""Ruth and Luke are touching each other""}","<img src=""stim_listA/touch2.gif""</stim_listA>",are touching each other,
null,"<div style=""font-size:60px;"">+</div>",,html-keyboard-response,340,1689854,0.0-19.0-0.4,44227,List2A,white,woman,,,,null,,,,
null,"<img src=""stim_listA/shout6.gif""</stim_listA>",,html-keyboard-response,341,1691857,0.0-19.0-1.4,44227,List2A,white,woman,,,,null,,,,
null,are shouting at each other,,html-keyboard-response,342,1693860,0.0-19.0-2.4,44227,List2A,white,woman,,,,null,,,,
12323,,,survey-text,343,1706185,0.0-19.0-3.4,44227,List2A,white,woman,,,,,"{""Q0"":""Mike and Dave are shouting at each other ""}","<img src=""stim_listA/shout6.gif""</stim_listA>",are shouting at each other,
null,"<div style=""font-size:60px;"">+</div>",,html-keyboard-response,344,1706691,0.0-19.0-0.5,44227,List2A,white,woman,,,,null,,,,
null,"<img src=""stim_listA/argue1.gif""</stim_listA>",,html-keyboard-response,345,1708697,0.0-19.0-1.5,44227,List2A,white,woman,,,,null,,,,
null,is arguing with,,html-keyboard-response,346,1710699,0.0-19.0-2.5,44227,List2A,white,woman,,,,null,,,,
19243,,,survey-text,347,1729945,0.0-19.0-3.5,44227,List2A,white,woman,,,,,"{""Q0"":""Ruth is arguing with dave""}","<img src=""stim_listA/argue1.gif""</stim_listA>",is arguing with,
null,"<div style=""font-size:60px;"">+</div>",,html-keyboard-response,348,1730448,0.0-19.0-0.6,44227,List2A,white,woman,,,,null,,,,
null,"<img src=""stim_listA/fight3.gif""</stim_listA>",,html-keyboard-response,349,1732452,0.0-19.0-1.6,44227,List2A,white,woman,,,,null,,,,
null,is fighting,,html-keyboard-response,350,1734454,0.0-19.0-2.6,44227,List2A,white,woman,,,,null,,,,
17993,,,survey-text,351,1752456,0.0-19.0-3.6,44227,List2A,white,woman,,,,,"{""Q0"":""Mike is fighting Kate ""}","<img src=""stim_listA/fight3.gif""</stim_listA>",is fighting,
null,"<div style=""font-size:60px;"">+</div>",,html-keyboard-response,352,1752961,0.0-19.0-0.7,44227,List2A,white,woman,,,,null,,,,
null,"<img src=""stim_listA/talk2.gif""</stim_listA>",,html-keyboard-response,353,1754965,0.0-19.0-1.7,44227,List2A,white,woman,,,,null,,,,
null,are talking to each other,,html-keyboard-response,354,1756968,0.0-19.0-2.7,44227,List2A,white,woman,,,,null,,,,
19737,,,survey-text,355,1776707,0.0-19.0-3.7,44227,List2A,white,woman,,,,,"{""Q0"":""Ruth and Dave are talking to each other ""}","<img src=""stim_listA/talk2.gif""</stim_listA>",are talking to each other,
null,"<div style=""font-size:60px;"">+</div>",,html-keyboard-response,356,1777211,0.0-19.0-0.8,44227,List2A,white,woman,,,,null,,,,
null,"<img src=""stim_listA/touch5.gif""</stim_listA>",,html-keyboard-response,357,1779217,0.0-19.0-1.8,44227,List2A,white,woman,,,,null,,,,
null,is touching,,html-keyboard-response,358,1781220,0.0-19.0-2.8,44227,List2A,white,woman,,,,null,,,,
20623,,,survey-text,359,1801848,0.0-19.0-3.8,44227,List2A,white,woman,,,,,"{""Q0"":""Mike is touching dave""}","<img src=""stim_listA/touch5.gif""</stim_listA>",is touching,
null,"<div style=""font-size:60px;"">+</div>",,html-keyboard-response,360,1802351,0.0-19.0-0.9,44227,List2A,white,woman,,,,null,,,,
null,"<img src=""stim_listA/dance4.gif""</stim_listA>",,html-keyboard-response,361,1804361,0.0-19.0-1.9,44227,List2A,white,woman,,,,null,,,,
null,are dancing with each other,,html-keyboard-response,362,1806364,0.0-19.0-2.9,44227,List2A,white,woman,,,,null,,,,
14325,,,survey-text,363,1820697,0.0-19.0-3.9,44227,List2A,white,woman,,,,,"{""Q0"":""Beth and mike are dancing with each other ""}","<img src=""stim_listA/dance4.gif""</stim_listA>",are dancing with each other,
null,"<div style=""font-size:60px;"">+</div>",,html-keyboard-response,364,1821202,0.0-19.0-0.10,44227,List2A,white,woman,,,,null,,,,
null,"<img src=""stim_listA/meet3.gif""</stim_listA>",,html-keyboard-response,365,1823207,0.0-19.0-1.10,44227,List2A,white,woman,,,,null,,,,
null,is meeting,,html-keyboard-response,366,1825210,0.0-19.0-2.10,44227,List2A,white,woman,,,,null,,,,
9452,,,survey-text,367,1834666,0.0-19.0-3.10,44227,List2A,white,woman,,,,,"{""Q0"":""Kate is meeting mike ""}","<img src=""stim_listA/meet3.gif""</stim_listA>",is meeting,
null,"<div style=""font-size:60px;"">+</div>",,html-keyboard-response,368,1835171,0.0-19.0-0.11,44227,List2A,white,woman,,,,null,,,,
null,"<img src=""stim_listA/kiss1.gif""</stim_listA>",,html-keyboard-response,369,1837176,0.0-19.0-1.11,44227,List2A,white,woman,,,,null,,,,
null,is kissing,,html-keyboard-response,370,1839179,0.0-19.0-2.11,44227,List2A,white,woman,,,,null,,,,
9267,,,survey-text,371,1848449,0.0-19.0-3.11,44227,List2A,white,woman,,,,,"{""Q0"":""Luke is kissing ruth""}","<img src=""stim_listA/kiss1.gif""</stim_listA>",is kissing,
null,"<div style=""font-size:60px;"">+</div>",,html-keyboard-response,372,1848952,0.0-19.0-0.12,44227,List2A,white,woman,,,,null,,,,
null,"<img src=""stim_listA/meet6.gif""</stim_listA>",,html-keyboard-response,373,1850955,0.0-19.0-1.12,44227,List2A,white,woman,,,,null,,,,
null,are meeting each other,,html-keyboard-response,374,1852958,0.0-19.0-2.12,44227,List2A,white,woman,,,,null,,,,
12805,,,survey-text,375,1865769,0.0-19.0-3.12,44227,List2A,white,woman,,,,,"{""Q0"":""Luke and Fred are meeting each other""}","<img src=""stim_listA/meet6.gif""</stim_listA>",are meeting each other,
null,"<div style=""font-size:60px;"">+</div>",,html-keyboard-response,376,1866272,0.0-19.0-0.13,44227,List2A,white,woman,,,,null,,,,
null,"<img src=""stim_listA/dance1.gif""</stim_listA>",,html-keyboard-response,377,1868276,0.0-19.0-1.13,44227,List2A,white,woman,,,,null,,,,
null,is dancing with,,html-keyboard-response,378,1870279,0.0-19.0-2.13,44227,List2A,white,woman,,,,null,,,,
10021,,,survey-text,379,1880302,0.0-19.0-3.13,44227,List2A,white,woman,,,,,"{""Q0"":""Jane is dancing with Luke ""}","<img src=""stim_listA/dance1.gif""</stim_listA>",is dancing with,
null,"<div style=""font-size:60px;"">+</div>",,html-keyboard-response,380,1880804,0.0-19.0-0.14,44227,List2A,white,woman,,,,null,,,,
null,"<img src=""stim_listA/dance3.gif""</stim_listA>",,html-keyboard-response,381,1882808,0.0-19.0-1.14,44227,List2A,white,woman,,,,null,,,,
null,is dancing with,,html-keyboard-response,382,1884813,0.0-19.0-2.14,44227,List2A,white,woman,,,,null,,,,
13807,,,survey-text,383,1898625,0.0-19.0-3.14,44227,List2A,white,woman,,,,,"{""Q0"":""Kate is dancing with Fred ""}","<img src=""stim_listA/dance3.gif""</stim_listA>",is dancing with,
null,"<div style=""font-size:60px;"">+</div>",,html-keyboard-response,384,1899128,0.0-19.0-0.15,44227,List2A,white,woman,,,,null,,,,
null,"<img src=""stim_listA/touch6.gif""</stim_listA>",,html-keyboard-response,385,1901133,0.0-19.0-1.15,44227,List2A,white,woman,,,,null,,,,
null,are touching each other,,html-keyboard-response,386,1903136,0.0-19.0-2.15,44227,List2A,white,woman,,,,null,,,,
23573,,,survey-text,387,1926720,0.0-19.0-3.15,44227,List2A,white,woman,,,,,"{""Q0"":""Luke and Fred are touching each other ""}","<img src=""stim_listA/touch6.gif""</stim_listA>",are touching each other,
null,"<div style=""font-size:60px;"">+</div>",,html-keyboard-response,388,1927223,0.0-19.0-0.16,44227,List2A,white,woman,,,,null,,,,
null,"<img src=""stim_listA/talk6.gif""</stim_listA>",,html-keyboard-response,389,1929227,0.0-19.0-1.16,44227,List2A,white,woman,,,,null,,,,
null,are talking to each other,,html-keyboard-response,390,1931229,0.0-19.0-2.16,44227,List2A,white,woman,,,,null,,,,
14011,,,survey-text,391,1945242,0.0-19.0-3.16,44227,List2A,white,woman,,,,,"{""Q0"":""Dave and Fred are talking to each other ""}","<img src=""stim_listA/talk6.gif""</stim_listA>",are talking to each other,
null,"<div style=""font-size:60px;"">+</div>",,html-keyboard-response,392,1945745,0.0-19.0-0.17,44227,List2A,white,woman,,,,null,,,,
null,"<img src=""stim_listA/marry4.gif""</stim_listA>",,html-keyboard-response,393,1947749,0.0-19.0-1.17,44227,List2A,white,woman,,,,null,,,,
null,are marrying each other,,html-keyboard-response,394,1949754,0.0-19.0-2.17,44227,List2A,white,woman,,,,null,,,,
13373,,,survey-text,395,1963130,0.0-19.0-3.17,44227,List2A,white,woman,,,,,"{""Q0"":""Kate and Fred are marrying each other""}","<img src=""stim_listA/marry4.gif""</stim_listA>",are marrying each other,
null,"<div style=""font-size:60px;"">+</div>",,html-keyboard-response,396,1963633,0.0-19.0-0.18,44227,List2A,white,woman,,,,null,,,,
null,"<img src=""stim_listA/marry8.gif""</stim_listA>",,html-keyboard-response,397,1965642,0.0-19.0-1.18,44227,List2A,white,woman,,,,null,,,,
null,are marrying each other,,html-keyboard-response,398,1967644,0.0-19.0-2.18,44227,List2A,white,woman,,,,null,,,,
14913,,,survey-text,399,1982558,0.0-19.0-3.18,44227,List2A,white,woman,,,,,"{""Q0"":""Kate and Ruth are marrying each other ""}","<img src=""stim_listA/marry8.gif""</stim_listA>",are marrying each other,
null,"<div style=""font-size:60px;"">+</div>",,html-keyboard-response,400,1983062,0.0-19.0-0.19,44227,List2A,white,woman,,,,null,,,,
null,"<img src=""stim_listA/marry2.gif""</stim_listA>",,html-keyboard-response,401,1985067,0.0-19.0-1.19,44227,List2A,white,woman,,,,null,,,,
null,are marrying each other,,html-keyboard-response,402,1987070,0.0-19.0-2.19,44227,List2A,white,woman,,,,null,,,,
15127,,,survey-text,403,2002201,0.0-19.0-3.19,44227,List2A,white,woman,,,,,"{""Q0"":""Luke and Jane are marrying each other""}","<img src=""stim_listA/marry2.gif""</stim_listA>",are marrying each other,
2474,<p>Thank you for completing that task.</p><p>The final part of this session is a short questionnaire.</p><p>Press Continue.</p>,0,html-button-response,404,2004678,0.0-20.0,44227,List2A,white,woman,,,,,,,,
28824,,,survey-text,405,2034509,0.0-21.0,44227,List2A,white,woman,,,,,"{""Q0"":""18"",""Q1"":""English "",""Q2"":""English "",""Q3"":""United Kingdom "",""Q4"":""White"",""Q5"":""Female""}",,,demographics
40444,,,survey-likert,406,2074967,0.0-22.0,44227,List2A,white,woman,,,,,"{""Q0"":3,""Q1"":2,""Q2"":2,""Q3"":3,""Q4"":1,""Q5"":4,""Q6"":3,""Q7"":4,""Q8"":3,""Q9"":2,""Q10"":3,""Q11"":4,""Q12"":4,""Q13"":3}",,,likert_race
36259,,,survey-likert,407,2111235,0.0-23.0,44227,List2A,white,woman,,,,,"{""Q0"":5,""Q1"":5,""Q2"":5,""Q3"":5,""Q4"":5,""Q5"":1,""Q6"":5,""Q7"":5,""Q8"":6,""Q9"":5,""Q10"":3,""Q11"":3,""Q12"":3,""Q13"":3}",,,likert_gender
10400,,,survey-text,408,2121641,0.0-24.0,44227,List2A,white,woman,,,,,"{""Q0"":""ccc""}",,,worker_id
5452,,,external-html,409,2127221,0.0-25.0,44227,List2A,white,woman,debrief.html,,,,,,,
