rt,stimulus,button_pressed,trial_type,trial_index,time_elapsed,internal_node_id,subject,list,ppt_race,ppt_gender,url,first_guess,correct,key_press,responses,image_type,phrase_type,test_part
1691,Welcome to the experiment. Press Continue to begin.,0,html-button-response,0,1726,0.0-0.0,4438,List1B,white,man,,,,,,,,
31367,,,external-html,1,34124,0.0-1.0,4438,List1B,white,man,consent.html,,,,,,,
13966,"<p>On the next page, you will see portraits of 8 people and their names.</p><p>Your first task is to take a few minutes to memorise the names of these people.</p><p>You will have to recall their names during the rest of the experiment, so it is</p><p>essential that you try to memorise these people and their names as best as you can.</p><br><p><strong>You will then be tested on your memory of these names and portraits.</strong></p><br><p>The experiment will start after you have completed this memory test.</p><br><p>Ready?</p>",0,html-button-response,2,48093,0.0-2.0,4438,List1B,white,man,,,,,,,,
103085,"<img src='img/portrait_matrix_list1.JPG' style='width:900px;height:500px;''></img><p>If you have memorised all the portraits and names and are ready to start, press Continue.</p><p><strong>Please note: Your memory of these faces will be tested 4 times during this experiment.</strong></p>",0,html-button-response,3,152180,0.0-3.0-0.0,4438,List1B,white,man,,,,,,,,
10438,"<img src=""portrait/BM2.jpg""style=""width:400px;height:400px;""></img>",4,html-button-response,4,163620,0.0-3.0-1.0,4438,List1B,white,man,,TRUE,5,,,,,
7413,"<img src=""portrait/BM2.jpg""style=""width:400px;height:400px;""></img>",5,html-button-response,5,172036,0.0-3.0-3.0-0.0,4438,List1B,white,man,,FALSE,5,,,,,
null,CORRECT,,html-keyboard-response,6,173539,0.0-3.0-3.0-1.0-0.0,4438,List1B,white,man,,,,null,,,,
247333,"<img src=""portrait/BW1.jpg""style=""width:400px;height:400px;""></img>",0,html-button-response,7,420874,0.0-3.0-4.0,4438,List1B,white,man,,TRUE,0,,,,,
null,CORRECT,,html-keyboard-response,8,422377,0.0-3.0-5.0-0.0,4438,List1B,white,man,,,,null,,,,
8096,"<img src=""portrait/BW2.jpg""style=""width:400px;height:400px;""></img>",2,html-button-response,9,430473,0.0-3.0-7.0,4438,List1B,white,man,,TRUE,2,,,,,
null,CORRECT,,html-keyboard-response,10,431975,0.0-3.0-8.0-0.0,4438,List1B,white,man,,,,null,,,,
9120,"<img src=""portrait/WM2.jpg""style=""width:400px;height:400px;""></img>",7,html-button-response,11,441097,0.0-3.0-10.0,4438,List1B,white,man,,TRUE,7,,,,,
null,CORRECT,,html-keyboard-response,12,442599,0.0-3.0-11.0-0.0,4438,List1B,white,man,,,,null,,,,
4449,"<img src=""portrait/WM1.jpg""style=""width:400px;height:400px;""></img>",6,html-button-response,13,447049,0.0-3.0-13.0,4438,List1B,white,man,,TRUE,6,,,,,
null,CORRECT,,html-keyboard-response,14,448551,0.0-3.0-14.0-0.0,4438,List1B,white,man,,,,null,,,,
14936,"<img src=""portrait/WW1.jpg""style=""width:400px;height:400px;""></img>",3,html-button-response,15,463488,0.0-3.0-16.0,4438,List1B,white,man,,TRUE,1,,,,,
3134,"<img src=""portrait/WW1.jpg""style=""width:400px;height:400px;""></img>",1,html-button-response,16,467624,0.0-3.0-18.0-0.0,4438,List1B,white,man,,FALSE,1,,,,,
null,CORRECT,,html-keyboard-response,17,469127,0.0-3.0-18.0-1.0-0.0,4438,List1B,white,man,,,,null,,,,
6624,"<img src=""portrait/WW2.jpg""style=""width:400px;height:400px;""></img>",3,html-button-response,18,475752,0.0-3.0-19.0,4438,List1B,white,man,,TRUE,3,,,,,
null,CORRECT,,html-keyboard-response,19,477254,0.0-3.0-20.0-0.0,4438,List1B,white,man,,,,null,,,,
11811,"<img src=""portrait/BM1.jpg""style=""width:400px;height:400px;""></img>",4,html-button-response,20,489066,0.0-3.0-22.0,4438,List1B,white,man,,TRUE,4,,,,,
null,CORRECT,,html-keyboard-response,21,490567,0.0-3.0-23.0-0.0,4438,List1B,white,man,,,,null,,,,
2497,<p>You got 6 out of 8 right first time. Press Continue.</p>,0,html-button-response,22,493065,0.0-3.0-25.0,4438,List1B,white,man,,,,,,,,
4462,"As you did not score 100%, the memory game will repeat. Press Continue.",0,html-button-response,23,498529,0.0-3.0-26.0-0.0,4438,List1B,white,man,,,,,,,,
58629,"<img src='img/portrait_matrix_list1.JPG' style='width:900px;height:500px;''></img><p>If you have memorised all the portraits and names and are ready to start, press Continue.</p><p><strong>Please note: Your memory of these faces will be tested 4 times during this experiment.</strong></p>",0,html-button-response,24,558160,0.0-3.1-0.1,4438,List1B,white,man,,,,,,,,
9398,"<img src=""portrait/BM2.jpg""style=""width:400px;height:400px;""></img>",5,html-button-response,25,568560,0.0-3.1-1.1,4438,List1B,white,man,,TRUE,5,,,,,
null,CORRECT,,html-keyboard-response,26,570062,0.0-3.1-2.1-0.1,4438,List1B,white,man,,,,null,,,,
5128,"<img src=""portrait/BW1.jpg""style=""width:400px;height:400px;""></img>",0,html-button-response,27,575192,0.0-3.1-4.1,4438,List1B,white,man,,TRUE,0,,,,,
null,CORRECT,,html-keyboard-response,28,576694,0.0-3.1-5.1-0.1,4438,List1B,white,man,,,,null,,,,
3952,"<img src=""portrait/BW2.jpg""style=""width:400px;height:400px;""></img>",2,html-button-response,29,580648,0.0-3.1-7.1,4438,List1B,white,man,,TRUE,2,,,,,
null,CORRECT,,html-keyboard-response,30,582150,0.0-3.1-8.1-0.1,4438,List1B,white,man,,,,null,,,,
7721,"<img src=""portrait/WM2.jpg""style=""width:400px;height:400px;""></img>",7,html-button-response,31,589872,0.0-3.1-10.1,4438,List1B,white,man,,TRUE,7,,,,,
null,CORRECT,,html-keyboard-response,32,591374,0.0-3.1-11.1-0.1,4438,List1B,white,man,,,,null,,,,
3288,"<img src=""portrait/WM1.jpg""style=""width:400px;height:400px;""></img>",6,html-button-response,33,594664,0.0-3.1-13.1,4438,List1B,white,man,,TRUE,6,,,,,
null,CORRECT,,html-keyboard-response,34,596165,0.0-3.1-14.1-0.1,4438,List1B,white,man,,,,null,,,,
5553,"<img src=""portrait/WW1.jpg""style=""width:400px;height:400px;""></img>",1,html-button-response,35,601719,0.0-3.1-16.1,4438,List1B,white,man,,TRUE,1,,,,,
null,CORRECT,,html-keyboard-response,36,603221,0.0-3.1-17.1-0.1,4438,List1B,white,man,,,,null,,,,
12576,"<img src=""portrait/WW2.jpg""style=""width:400px;height:400px;""></img>",1,html-button-response,37,615799,0.0-3.1-19.1,4438,List1B,white,man,,TRUE,3,,,,,
4984,"<img src=""portrait/WW2.jpg""style=""width:400px;height:400px;""></img>",3,html-button-response,38,621784,0.0-3.1-21.1-0.1,4438,List1B,white,man,,FALSE,3,,,,,
null,CORRECT,,html-keyboard-response,39,623287,0.0-3.1-21.1-1.1-0.1,4438,List1B,white,man,,,,null,,,,
7961,"<img src=""portrait/BM1.jpg""style=""width:400px;height:400px;""></img>",4,html-button-response,40,631248,0.0-3.1-22.1,4438,List1B,white,man,,TRUE,4,,,,,
null,CORRECT,,html-keyboard-response,41,632750,0.0-3.1-23.1-0.1,4438,List1B,white,man,,,,null,,,,
1112,<p>You got 7 out of 8 right first time. Press Continue.</p>,0,html-button-response,42,633864,0.0-3.1-25.1,4438,List1B,white,man,,,,,,,,
1366,"As you did not score 100%, the memory game will repeat. Press Continue.",0,html-button-response,43,636232,0.0-3.1-26.1-0.1,4438,List1B,white,man,,,,,,,,
1302,"<img src='img/portrait_matrix_list1.JPG' style='width:900px;height:500px;''></img><p>If you have memorised all the portraits and names and are ready to start, press Continue.</p><p><strong>Please note: Your memory of these faces will be tested 4 times during this experiment.</strong></p>",0,html-button-response,44,638536,0.0-3.2-0.2,4438,List1B,white,man,,,,,,,,
4198,"<img src=""portrait/BM2.jpg""style=""width:400px;height:400px;""></img>",5,html-button-response,45,643736,0.0-3.2-1.2,4438,List1B,white,man,,TRUE,5,,,,,
null,CORRECT,,html-keyboard-response,46,645237,0.0-3.2-2.2-0.2,4438,List1B,white,man,,,,null,,,,
5729,"<img src=""portrait/BW1.jpg""style=""width:400px;height:400px;""></img>",0,html-button-response,47,650967,0.0-3.2-4.2,4438,List1B,white,man,,TRUE,0,,,,,
null,CORRECT,,html-keyboard-response,48,652470,0.0-3.2-5.2-0.2,4438,List1B,white,man,,,,null,,,,
3433,"<img src=""portrait/BW2.jpg""style=""width:400px;height:400px;""></img>",2,html-button-response,49,655903,0.0-3.2-7.2,4438,List1B,white,man,,TRUE,2,,,,,
null,CORRECT,,html-keyboard-response,50,657405,0.0-3.2-8.2-0.2,4438,List1B,white,man,,,,null,,,,
8336,"<img src=""portrait/WM2.jpg""style=""width:400px;height:400px;""></img>",7,html-button-response,51,665743,0.0-3.2-10.2,4438,List1B,white,man,,TRUE,7,,,,,
null,CORRECT,,html-keyboard-response,52,667245,0.0-3.2-11.2-0.2,4438,List1B,white,man,,,,null,,,,
2200,"<img src=""portrait/WM1.jpg""style=""width:400px;height:400px;""></img>",6,html-button-response,53,669447,0.0-3.2-13.2,4438,List1B,white,man,,TRUE,6,,,,,
null,CORRECT,,html-keyboard-response,54,670950,0.0-3.2-14.2-0.2,4438,List1B,white,man,,,,null,,,,
4135,"<img src=""portrait/WW1.jpg""style=""width:400px;height:400px;""></img>",1,html-button-response,55,675087,0.0-3.2-16.2,4438,List1B,white,man,,TRUE,1,,,,,
null,CORRECT,,html-keyboard-response,56,676589,0.0-3.2-17.2-0.2,4438,List1B,white,man,,,,null,,,,
9146,"<img src=""portrait/WW2.jpg""style=""width:400px;height:400px;""></img>",3,html-button-response,57,685736,0.0-3.2-19.2,4438,List1B,white,man,,TRUE,3,,,,,
null,CORRECT,,html-keyboard-response,58,687238,0.0-3.2-20.2-0.2,4438,List1B,white,man,,,,null,,,,
6888,"<img src=""portrait/BM1.jpg""style=""width:400px;height:400px;""></img>",4,html-button-response,59,694128,0.0-3.2-22.2,4438,List1B,white,man,,TRUE,4,,,,,
null,CORRECT,,html-keyboard-response,60,695629,0.0-3.2-23.2-0.2,4438,List1B,white,man,,,,null,,,,
1025,<p>You got 8 out of 8 right first time. Press Continue.</p>,0,html-button-response,61,696655,0.0-3.2-25.2,4438,List1B,white,man,,,,,,,,
14102,"<p>In this experiment, you will view photographs of the people from the memory game interacting.</p><p>By using the <strong>exact</strong> phrase given <i>after</i> the photograph appears and recalling the correct names of the people in the photographs, form a sentence describing the interaction. You do not need to capitalise names.</p><p>Type your answer in the space provided. Please complete every sentence before moving onto the next trial.</p><p>You will only have a few seconds to memorise each given photograph and phrase before you can respond, so try your best to focus.</p><p>An example is given below. Press 'Continue' when you are ready.</p><img src='img/speaking_example_v2.jpg' style='width:800px;height:460px;''></img>",0,html-button-response,62,711759,0.0-4.0,4438,List1B,white,man,,,,,,,,
2222,"<p>Before the experiment starts, you will watch two example trials. Press 'Continue'.</p>",0,html-button-response,63,714983,0.0-5.0,4438,List1B,white,man,,,,,,,,
null,<img src='img/speaking_WW.gif'></img>,,html-keyboard-response,64,717984,0.0-6.0,4438,List1B,white,man,,,,null,,,,
null,<p>is speaking to</p>,,html-keyboard-response,65,719985,0.0-7.0,4438,List1B,white,man,,,,null,,,,
2908,<p><b>Answer:</b> kate is speaking to beth</p>,0,html-button-response,66,722895,0.0-8.0,4438,List1B,white,man,,,,,,,,
null,<img src='img/pointing_BM.gif'></img>,,html-keyboard-response,67,725897,0.0-9.0,4438,List1B,white,man,,,,null,,,,
null,<p>are pointing at each other</p>,,html-keyboard-response,68,727898,0.0-10.0,4438,List1B,white,man,,,,null,,,,
1484,<p><b>Answer:</b> luke and dave are pointing at each other</p>,0,html-button-response,69,729382,0.0-11.0,4438,List1B,white,man,,,,,,,,
2079,"<p>Ready to start the experiment?</p><br><p><strong>Remember to describe the picture using a full sentence,</strong></p><p><strong>that combines the names of the people with the given phrase.</strong></p><p><strong>If you do not do this correctly you will not be paid.</strong></p><p><strong> You do not need to capitalise names or use punctuation.</strong></p><br><p>Press 'Continue' to begin.</p>",0,html-button-response,70,732462,0.0-12.0,4438,List1B,white,man,,,,,,,,
null,"<div style=""font-size:60px;"">+</div>",,html-keyboard-response,71,733964,0.0-13.0-0.0,4438,List1B,white,man,,,,null,,,,
null,"<img src=""stim_listB/dance4.gif""</stim_listB>",,html-keyboard-response,72,735966,0.0-13.0-1.0,4438,List1B,white,man,,,,null,,,,
null,are dancing with each other,,html-keyboard-response,73,737967,0.0-13.0-2.0,4438,List1B,white,man,,,,null,,,,
24447,,,survey-text,74,762415,0.0-13.0-3.0,4438,List1B,white,man,,,,,"{""Q0"":""dave and ruth dancing""}","<img src=""stim_listB/dance4.gif""</stim_listB>",are dancing with each other,
null,"<div style=""font-size:60px;"">+</div>",,html-keyboard-response,75,762916,0.0-13.0-0.1,4438,List1B,white,man,,,,null,,,,
null,"<img src=""stim_listB/dance8.gif""</stim_listB>",,html-keyboard-response,76,764917,0.0-13.0-1.1,4438,List1B,white,man,,,,null,,,,
null,are dancing with each other,,html-keyboard-response,77,766919,0.0-13.0-2.1,4438,List1B,white,man,,,,null,,,,
18063,,,survey-text,78,784982,0.0-13.0-3.1,4438,List1B,white,man,,,,,"{""Q0"":""kate and ruth dancing""}","<img src=""stim_listB/dance8.gif""</stim_listB>",are dancing with each other,
null,"<div style=""font-size:60px;"">+</div>",,html-keyboard-response,79,785483,0.0-13.0-0.2,4438,List1B,white,man,,,,null,,,,
null,"<img src=""stim_listB/meet4.gif""</stim_listB>",,html-keyboard-response,80,787484,0.0-13.0-1.2,4438,List1B,white,man,,,,null,,,,
null,are meeting each other,,html-keyboard-response,81,789486,0.0-13.0-2.2,4438,List1B,white,man,,,,null,,,,
23911,,,survey-text,82,813399,0.0-13.0-3.2,4438,List1B,white,man,,,,,"{""Q0"":""ruth and luke shaking hands""}","<img src=""stim_listB/meet4.gif""</stim_listB>",are meeting each other,
null,"<div style=""font-size:60px;"">+</div>",,html-keyboard-response,83,813899,0.0-13.0-0.3,4438,List1B,white,man,,,,null,,,,
null,"<img src=""stim_listB/dance3.gif""</stim_listB>",,html-keyboard-response,84,815901,0.0-13.0-1.3,4438,List1B,white,man,,,,null,,,,
null,is dancing with,,html-keyboard-response,85,817902,0.0-13.0-2.3,4438,List1B,white,man,,,,null,,,,
11808,,,survey-text,86,829710,0.0-13.0-3.3,4438,List1B,white,man,,,,,"{""Q0"":""luke is dancing with jane""}","<img src=""stim_listB/dance3.gif""</stim_listB>",is dancing with,
null,"<div style=""font-size:60px;"">+</div>",,html-keyboard-response,87,830211,0.0-13.0-0.4,4438,List1B,white,man,,,,null,,,,
null,"<img src=""stim_listB/meet6.gif""</stim_listB>",,html-keyboard-response,88,832212,0.0-13.0-1.4,4438,List1B,white,man,,,,null,,,,
null,are meeting each other,,html-keyboard-response,89,834213,0.0-13.0-2.4,4438,List1B,white,man,,,,null,,,,
11295,,,survey-text,90,845510,0.0-13.0-3.4,4438,List1B,white,man,,,,,"{""Q0"":""luke is shaking hands with fred""}","<img src=""stim_listB/meet6.gif""</stim_listB>",are meeting each other,
null,"<div style=""font-size:60px;"">+</div>",,html-keyboard-response,91,846011,0.0-13.0-0.5,4438,List1B,white,man,,,,null,,,,
null,"<img src=""stim_listB/touch6.gif""</stim_listB>",,html-keyboard-response,92,848012,0.0-13.0-1.5,4438,List1B,white,man,,,,null,,,,
null,are touching each other,,html-keyboard-response,93,850013,0.0-13.0-2.5,4438,List1B,white,man,,,,null,,,,
13544,,,survey-text,94,863557,0.0-13.0-3.5,4438,List1B,white,man,,,,,"{""Q0"":""luke is touching fred""}","<img src=""stim_listB/touch6.gif""</stim_listB>",are touching each other,
null,"<div style=""font-size:60px;"">+</div>",,html-keyboard-response,95,864058,0.0-13.0-0.6,4438,List1B,white,man,,,,null,,,,
null,"<img src=""stim_listB/dance1.gif""</stim_listB>",,html-keyboard-response,96,866061,0.0-13.0-1.6,4438,List1B,white,man,,,,null,,,,
null,is dancing with,,html-keyboard-response,97,868062,0.0-13.0-2.6,4438,List1B,white,man,,,,null,,,,
9640,,,survey-text,98,877702,0.0-13.0-3.6,4438,List1B,white,man,,,,,"{""Q0"":""fred and kate dancing""}","<img src=""stim_listB/dance1.gif""</stim_listB>",is dancing with,
null,"<div style=""font-size:60px;"">+</div>",,html-keyboard-response,99,878203,0.0-13.0-0.7,4438,List1B,white,man,,,,null,,,,
null,"<img src=""stim_listB/touch1.gif""</stim_listB>",,html-keyboard-response,100,880204,0.0-13.0-1.7,4438,List1B,white,man,,,,null,,,,
null,is touching,,html-keyboard-response,101,882205,0.0-13.0-2.7,4438,List1B,white,man,,,,null,,,,
16639,,,survey-text,102,898846,0.0-13.0-3.7,4438,List1B,white,man,,,,,"{""Q0"":""kate and mike touching""}","<img src=""stim_listB/touch1.gif""</stim_listB>",is touching,
null,"<div style=""font-size:60px;"">+</div>",,html-keyboard-response,103,899347,0.0-13.0-0.8,4438,List1B,white,man,,,,null,,,,
null,"<img src=""stim_listB/fight6.gif""</stim_listB>",,html-keyboard-response,104,901348,0.0-13.0-1.8,4438,List1B,white,man,,,,null,,,,
null,are fighting each other,,html-keyboard-response,105,903349,0.0-13.0-2.8,4438,List1B,white,man,,,,null,,,,
13056,,,survey-text,106,916405,0.0-13.0-3.8,4438,List1B,white,man,,,,,"{""Q0"":""fred and luke are fighting""}","<img src=""stim_listB/fight6.gif""</stim_listB>",are fighting each other,
null,"<div style=""font-size:60px;"">+</div>",,html-keyboard-response,107,916907,0.0-13.0-0.9,4438,List1B,white,man,,,,null,,,,
null,"<img src=""stim_listB/hug3.gif""</stim_listB>",,html-keyboard-response,108,918908,0.0-13.0-1.9,4438,List1B,white,man,,,,null,,,,
null,is hugging,,html-keyboard-response,109,920909,0.0-13.0-2.9,4438,List1B,white,man,,,,null,,,,
12160,,,survey-text,110,933070,0.0-13.0-3.9,4438,List1B,white,man,,,,,"{""Q0"":""luke and ruth are cuddling""}","<img src=""stim_listB/hug3.gif""</stim_listB>",is hugging,
null,"<div style=""font-size:60px;"">+</div>",,html-keyboard-response,111,933571,0.0-13.0-0.10,4438,List1B,white,man,,,,null,,,,
null,"<img src=""stim_listB/fight3.gif""</stim_listB>",,html-keyboard-response,112,935572,0.0-13.0-1.10,4438,List1B,white,man,,,,null,,,,
null,is fighting,,html-keyboard-response,113,937573,0.0-13.0-2.10,4438,List1B,white,man,,,,null,,,,
15071,,,survey-text,114,952645,0.0-13.0-3.10,4438,List1B,white,man,,,,,"{""Q0"":""dave and jane are fighting""}","<img src=""stim_listB/fight3.gif""</stim_listB>",is fighting,
null,"<div style=""font-size:60px;"">+</div>",,html-keyboard-response,115,953146,0.0-13.0-0.11,4438,List1B,white,man,,,,null,,,,
null,"<img src=""stim_listB/meet3.gif""</stim_listB>",,html-keyboard-response,116,955147,0.0-13.0-1.11,4438,List1B,white,man,,,,null,,,,
null,is meeting,,html-keyboard-response,117,957148,0.0-13.0-2.11,4438,List1B,white,man,,,,null,,,,
13704,,,survey-text,118,970853,0.0-13.0-3.11,4438,List1B,white,man,,,,,"{""Q0"":""dave and jones are meeting""}","<img src=""stim_listB/meet3.gif""</stim_listB>",is meeting,
null,"<div style=""font-size:60px;"">+</div>",,html-keyboard-response,119,971353,0.0-13.0-0.12,4438,List1B,white,man,,,,null,,,,
null,"<img src=""stim_listB/marry3.gif""</stim_listB>",,html-keyboard-response,120,973354,0.0-13.0-1.12,4438,List1B,white,man,,,,null,,,,
null,is marrying,,html-keyboard-response,121,975355,0.0-13.0-2.12,4438,List1B,white,man,,,,null,,,,
23848,,,survey-text,122,999205,0.0-13.0-3.12,4438,List1B,white,man,,,,,"{""Q0"":""dave and ruth are marrying""}","<img src=""stim_listB/marry3.gif""</stim_listB>",is marrying,
null,"<div style=""font-size:60px;"">+</div>",,html-keyboard-response,123,999705,0.0-13.0-0.13,4438,List1B,white,man,,,,null,,,,
null,"<img src=""stim_listB/fight7.gif""</stim_listB>",,html-keyboard-response,124,1001707,0.0-13.0-1.13,4438,List1B,white,man,,,,null,,,,
null,is fighting,,html-keyboard-response,125,1003708,0.0-13.0-2.13,4438,List1B,white,man,,,,null,,,,
15304,,,survey-text,126,1019012,0.0-13.0-3.13,4438,List1B,white,man,,,,,"{""Q0"":""jane is fighting kate""}","<img src=""stim_listB/fight7.gif""</stim_listB>",is fighting,
null,"<div style=""font-size:60px;"">+</div>",,html-keyboard-response,127,1019513,0.0-13.0-0.14,4438,List1B,white,man,,,,null,,,,
null,"<img src=""stim_listB/meet1.gif""</stim_listB>",,html-keyboard-response,128,1021514,0.0-13.0-1.14,4438,List1B,white,man,,,,null,,,,
null,is meeting,,html-keyboard-response,129,1023515,0.0-13.0-2.14,4438,List1B,white,man,,,,null,,,,
10999,,,survey-text,130,1034516,0.0-13.0-3.14,4438,List1B,white,man,,,,,"{""Q0"":""kate and mike are meeting""}","<img src=""stim_listB/meet1.gif""</stim_listB>",is meeting,
null,"<div style=""font-size:60px;"">+</div>",,html-keyboard-response,131,1035017,0.0-13.0-0.15,4438,List1B,white,man,,,,null,,,,
null,"<img src=""stim_listB/meet8.gif""</stim_listB>",,html-keyboard-response,132,1037018,0.0-13.0-1.15,4438,List1B,white,man,,,,null,,,,
null,are meeting each other,,html-keyboard-response,133,1039019,0.0-13.0-2.15,4438,List1B,white,man,,,,null,,,,
13041,,,survey-text,134,1052060,0.0-13.0-3.15,4438,List1B,white,man,,,,,"{""Q0"":""ruth is meeting beth""}","<img src=""stim_listB/meet8.gif""</stim_listB>",are meeting each other,
null,"<div style=""font-size:60px;"">+</div>",,html-keyboard-response,135,1052562,0.0-13.0-0.16,4438,List1B,white,man,,,,null,,,,
null,"<img src=""stim_listB/talk3.gif""</stim_listB>",,html-keyboard-response,136,1054563,0.0-13.0-1.16,4438,List1B,white,man,,,,null,,,,
null,is talking to,,html-keyboard-response,137,1056564,0.0-13.0-2.16,4438,List1B,white,man,,,,null,,,,
18311,,,survey-text,138,1074876,0.0-13.0-3.16,4438,List1B,white,man,,,,,"{""Q0"":""luke and jane talking""}","<img src=""stim_listB/talk3.gif""</stim_listB>",is talking to,
null,"<div style=""font-size:60px;"">+</div>",,html-keyboard-response,139,1075377,0.0-13.0-0.17,4438,List1B,white,man,,,,null,,,,
null,"<img src=""stim_listB/argue5.gif""</stim_listB>",,html-keyboard-response,140,1077378,0.0-13.0-1.17,4438,List1B,white,man,,,,null,,,,
null,is arguing with,,html-keyboard-response,141,1079380,0.0-13.0-2.17,4438,List1B,white,man,,,,null,,,,
11967,,,survey-text,142,1091347,0.0-13.0-3.17,4438,List1B,white,man,,,,,"{""Q0"":""mike is arguing with luke""}","<img src=""stim_listB/argue5.gif""</stim_listB>",is arguing with,
null,"<div style=""font-size:60px;"">+</div>",,html-keyboard-response,143,1091849,0.0-13.0-0.18,4438,List1B,white,man,,,,null,,,,
null,"<img src=""stim_listB/kiss4.gif""</stim_listB>",,html-keyboard-response,144,1093850,0.0-13.0-1.18,4438,List1B,white,man,,,,null,,,,
null,are kissing each other,,html-keyboard-response,145,1095851,0.0-13.0-2.18,4438,List1B,white,man,,,,null,,,,
13425,,,survey-text,146,1109277,0.0-13.0-3.18,4438,List1B,white,man,,,,,"{""Q0"":""dave is kissing jane""}","<img src=""stim_listB/kiss4.gif""</stim_listB>",are kissing each other,
null,"<div style=""font-size:60px;"">+</div>",,html-keyboard-response,147,1109778,0.0-13.0-0.19,4438,List1B,white,man,,,,null,,,,
null,"<img src=""stim_listB/marry2.gif""</stim_listB>",,html-keyboard-response,148,1111779,0.0-13.0-1.19,4438,List1B,white,man,,,,null,,,,
null,are marrying each other,,html-keyboard-response,149,1113780,0.0-13.0-2.19,4438,List1B,white,man,,,,null,,,,
10880,,,survey-text,150,1124661,0.0-13.0-3.19,4438,List1B,white,man,,,,,"{""Q0"":""fred is marrying kate""}","<img src=""stim_listB/marry2.gif""</stim_listB>",are marrying each other,
4334,"<img src='img/portrait_matrix_list1.JPG' style='width:900px;height:500px;''></img><p>If you have memorised all the portraits and names and are ready to start, press Continue.</p><p><strong>Please note: Your memory of these faces will be tested 4 times during this experiment.</strong></p>",0,html-button-response,151,1128996,0.0-14.0-0.0,4438,List1B,white,man,,,,,,,,
7606,"<img src=""portrait/WW1.jpg""style=""width:400px;height:400px;""></img>",1,html-button-response,152,1137605,0.0-14.0-1.0,4438,List1B,white,man,,TRUE,1,,,,,
null,CORRECT,,html-keyboard-response,153,1139107,0.0-14.0-2.0-0.0,4438,List1B,white,man,,,,null,,,,
1920,"<img src=""portrait/WM1.jpg""style=""width:400px;height:400px;""></img>",6,html-button-response,154,1141028,0.0-14.0-4.0,4438,List1B,white,man,,TRUE,6,,,,,
null,CORRECT,,html-keyboard-response,155,1142530,0.0-14.0-5.0-0.0,4438,List1B,white,man,,,,null,,,,
1513,"<img src=""portrait/BM1.jpg""style=""width:400px;height:400px;""></img>",4,html-button-response,156,1144044,0.0-14.0-7.0,4438,List1B,white,man,,TRUE,4,,,,,
null,CORRECT,,html-keyboard-response,157,1145546,0.0-14.0-8.0-0.0,4438,List1B,white,man,,,,null,,,,
3864,"<img src=""portrait/BW2.jpg""style=""width:400px;height:400px;""></img>",2,html-button-response,158,1149412,0.0-14.0-10.0,4438,List1B,white,man,,TRUE,2,,,,,
null,CORRECT,,html-keyboard-response,159,1150914,0.0-14.0-11.0-0.0,4438,List1B,white,man,,,,null,,,,
5888,"<img src=""portrait/BW1.jpg""style=""width:400px;height:400px;""></img>",0,html-button-response,160,1156804,0.0-14.0-13.0,4438,List1B,white,man,,TRUE,0,,,,,
null,CORRECT,,html-keyboard-response,161,1158306,0.0-14.0-14.0-0.0,4438,List1B,white,man,,,,null,,,,
3153,"<img src=""portrait/WM2.jpg""style=""width:400px;height:400px;""></img>",7,html-button-response,162,1161460,0.0-14.0-16.0,4438,List1B,white,man,,TRUE,7,,,,,
null,CORRECT,,html-keyboard-response,163,1162962,0.0-14.0-17.0-0.0,4438,List1B,white,man,,,,null,,,,
4042,"<img src=""portrait/WW2.jpg""style=""width:400px;height:400px;""></img>",3,html-button-response,164,1167004,0.0-14.0-19.0,4438,List1B,white,man,,TRUE,3,,,,,
null,CORRECT,,html-keyboard-response,165,1168507,0.0-14.0-20.0-0.0,4438,List1B,white,man,,,,null,,,,
4161,"<img src=""portrait/BM2.jpg""style=""width:400px;height:400px;""></img>",5,html-button-response,166,1172668,0.0-14.0-22.0,4438,List1B,white,man,,TRUE,5,,,,,
null,CORRECT,,html-keyboard-response,167,1174170,0.0-14.0-23.0-0.0,4438,List1B,white,man,,,,null,,,,
1305,<p>You got 8 out of 8 right first time. Press Continue.</p>,0,html-button-response,168,1175476,0.0-14.0-25.0,4438,List1B,white,man,,,,,,,,
null,"<div style=""font-size:60px;"">+</div>",,html-keyboard-response,169,1176978,0.0-15.0-0.0,4438,List1B,white,man,,,,null,,,,
null,"<img src=""stim_listB/marry6.gif""</stim_listB>",,html-keyboard-response,170,1178979,0.0-15.0-1.0,4438,List1B,white,man,,,,null,,,,
null,are marrying each other,,html-keyboard-response,171,1180980,0.0-15.0-2.0,4438,List1B,white,man,,,,null,,,,
20599,,,survey-text,172,1201579,0.0-15.0-3.0,4438,List1B,white,man,,,,,"{""Q0"":""dave is marrying fred""}","<img src=""stim_listB/marry6.gif""</stim_listB>",are marrying each other,
null,"<div style=""font-size:60px;"">+</div>",,html-keyboard-response,173,1202080,0.0-15.0-0.1,4438,List1B,white,man,,,,null,,,,
null,"<img src=""stim_listB/hug5.gif""</stim_listB>",,html-keyboard-response,174,1204081,0.0-15.0-1.1,4438,List1B,white,man,,,,null,,,,
null,is hugging,,html-keyboard-response,175,1206082,0.0-15.0-2.1,4438,List1B,white,man,,,,null,,,,
12152,,,survey-text,176,1218235,0.0-15.0-3.1,4438,List1B,white,man,,,,,"{""Q0"":""fred is hugging luke""}","<img src=""stim_listB/hug5.gif""</stim_listB>",is hugging,
null,"<div style=""font-size:60px;"">+</div>",,html-keyboard-response,177,1218736,0.0-15.0-0.2,4438,List1B,white,man,,,,null,,,,
null,"<img src=""stim_listB/shout1.gif""</stim_listB>",,html-keyboard-response,178,1220738,0.0-15.0-1.2,4438,List1B,white,man,,,,null,,,,
null,is shouting at,,html-keyboard-response,179,1222739,0.0-15.0-2.2,4438,List1B,white,man,,,,null,,,,
11344,,,survey-text,180,1234084,0.0-15.0-3.2,4438,List1B,white,man,,,,,"{""Q0"":""fred is shouting at beth""}","<img src=""stim_listB/shout1.gif""</stim_listB>",is shouting at,
null,"<div style=""font-size:60px;"">+</div>",,html-keyboard-response,181,1234585,0.0-15.0-0.3,4438,List1B,white,man,,,,null,,,,
null,"<img src=""stim_listB/talk6.gif""</stim_listB>",,html-keyboard-response,182,1236586,0.0-15.0-1.3,4438,List1B,white,man,,,,null,,,,
null,are talking to each other,,html-keyboard-response,183,1238587,0.0-15.0-2.3,4438,List1B,white,man,,,,null,,,,
14504,,,survey-text,184,1253091,0.0-15.0-3.3,4438,List1B,white,man,,,,,"{""Q0"":""mike is talking to luke""}","<img src=""stim_listB/talk6.gif""</stim_listB>",are talking to each other,
null,"<div style=""font-size:60px;"">+</div>",,html-keyboard-response,185,1253592,0.0-15.0-0.4,4438,List1B,white,man,,,,null,,,,
null,"<img src=""stim_listB/fight4.gif""</stim_listB>",,html-keyboard-response,186,1255593,0.0-15.0-1.4,4438,List1B,white,man,,,,null,,,,
null,are fighting each other,,html-keyboard-response,187,1257594,0.0-15.0-2.4,4438,List1B,white,man,,,,null,,,,
14839,,,survey-text,188,1272435,0.0-15.0-3.4,4438,List1B,white,man,,,,,"{""Q0"":""luke and ruth are fighting each other""}","<img src=""stim_listB/fight4.gif""</stim_listB>",are fighting each other,
null,"<div style=""font-size:60px;"">+</div>",,html-keyboard-response,189,1272936,0.0-15.0-0.5,4438,List1B,white,man,,,,null,,,,
null,"<img src=""stim_listB/touch4.gif""</stim_listB>",,html-keyboard-response,190,1274937,0.0-15.0-1.5,4438,List1B,white,man,,,,null,,,,
null,are touching each other,,html-keyboard-response,191,1276938,0.0-15.0-2.5,4438,List1B,white,man,,,,null,,,,
14512,,,survey-text,192,1291451,0.0-15.0-3.5,4438,List1B,white,man,,,,,"{""Q0"":""luke and ruth are touching each other""}","<img src=""stim_listB/touch4.gif""</stim_listB>",are touching each other,
null,"<div style=""font-size:60px;"">+</div>",,html-keyboard-response,193,1291953,0.0-15.0-0.6,4438,List1B,white,man,,,,null,,,,
null,"<img src=""stim_listB/marry1.gif""</stim_listB>",,html-keyboard-response,194,1293954,0.0-15.0-1.6,4438,List1B,white,man,,,,null,,,,
null,is marrying,,html-keyboard-response,195,1295955,0.0-15.0-2.6,4438,List1B,white,man,,,,null,,,,
17199,,,survey-text,196,1313155,0.0-15.0-3.6,4438,List1B,white,man,,,,,"{""Q0"":""mike and beth are marrying each other""}","<img src=""stim_listB/marry1.gif""</stim_listB>",is marrying,
null,"<div style=""font-size:60px;"">+</div>",,html-keyboard-response,197,1313656,0.0-15.0-0.7,4438,List1B,white,man,,,,null,,,,
null,"<img src=""stim_listB/kiss6.gif""</stim_listB>",,html-keyboard-response,198,1315657,0.0-15.0-1.7,4438,List1B,white,man,,,,null,,,,
null,are kissing each other,,html-keyboard-response,199,1317658,0.0-15.0-2.7,4438,List1B,white,man,,,,null,,,,
16015,,,survey-text,200,1333674,0.0-15.0-3.7,4438,List1B,white,man,,,,,"{""Q0"":""mike and dave are kissing each other""}","<img src=""stim_listB/kiss6.gif""</stim_listB>",are kissing each other,
null,"<div style=""font-size:60px;"">+</div>",,html-keyboard-response,201,1334175,0.0-15.0-0.8,4438,List1B,white,man,,,,null,,,,
null,"<img src=""stim_listB/talk5.gif""</stim_listB>",,html-keyboard-response,202,1336176,0.0-15.0-1.8,4438,List1B,white,man,,,,null,,,,
null,is talking to,,html-keyboard-response,203,1338177,0.0-15.0-2.8,4438,List1B,white,man,,,,null,,,,
26192,,,survey-text,204,1364370,0.0-15.0-3.8,4438,List1B,white,man,,,,,"{""Q0"":""fred and dave are talking to each other""}","<img src=""stim_listB/talk5.gif""</stim_listB>",is talking to,
null,"<div style=""font-size:60px;"">+</div>",,html-keyboard-response,205,1364872,0.0-15.0-0.9,4438,List1B,white,man,,,,null,,,,
null,"<img src=""stim_listB/marry7.gif""</stim_listB>",,html-keyboard-response,206,1366873,0.0-15.0-1.9,4438,List1B,white,man,,,,null,,,,
null,is marrying,,html-keyboard-response,207,1368874,0.0-15.0-2.9,4438,List1B,white,man,,,,null,,,,
50464,,,survey-text,208,1419339,0.0-15.0-3.9,4438,List1B,white,man,,,,,"{""Q0"":""ruth and kate are marrying""}","<img src=""stim_listB/marry7.gif""</stim_listB>",is marrying,
null,"<div style=""font-size:60px;"">+</div>",,html-keyboard-response,209,1419840,0.0-15.0-0.10,4438,List1B,white,man,,,,null,,,,
null,"<img src=""stim_listB/touch8.gif""</stim_listB>",,html-keyboard-response,210,1421841,0.0-15.0-1.10,4438,List1B,white,man,,,,null,,,,
null,are touching each other,,html-keyboard-response,211,1423842,0.0-15.0-2.10,4438,List1B,white,man,,,,null,,,,
30462,,,survey-text,212,1454306,0.0-15.0-3.10,4438,List1B,white,man,,,,,"{""Q0"":""kate is talking to beth""}","<img src=""stim_listB/touch8.gif""</stim_listB>",are touching each other,
null,"<div style=""font-size:60px;"">+</div>",,html-keyboard-response,213,1454807,0.0-15.0-0.11,4438,List1B,white,man,,,,null,,,,
null,"<img src=""stim_listB/hug6.gif""</stim_listB>",,html-keyboard-response,214,1456808,0.0-15.0-1.11,4438,List1B,white,man,,,,null,,,,
null,are hugging each other,,html-keyboard-response,215,1458809,0.0-15.0-2.11,4438,List1B,white,man,,,,null,,,,
9632,,,survey-text,216,1468441,0.0-15.0-3.11,4438,List1B,white,man,,,,,"{""Q0"":""dave is hugging mike""}","<img src=""stim_listB/hug6.gif""</stim_listB>",are hugging each other,
null,"<div style=""font-size:60px;"">+</div>",,html-keyboard-response,217,1468942,0.0-15.0-0.12,4438,List1B,white,man,,,,null,,,,
null,"<img src=""stim_listB/argue1.gif""</stim_listB>",,html-keyboard-response,218,1470943,0.0-15.0-1.12,4438,List1B,white,man,,,,null,,,,
null,is arguing with,,html-keyboard-response,219,1472944,0.0-15.0-2.12,4438,List1B,white,man,,,,null,,,,
17528,,,survey-text,220,1490473,0.0-15.0-3.12,4438,List1B,white,man,,,,,"{""Q0"":""mike is arguing with beth""}","<img src=""stim_listB/argue1.gif""</stim_listB>",is arguing with,
null,"<div style=""font-size:60px;"">+</div>",,html-keyboard-response,221,1490975,0.0-15.0-0.13,4438,List1B,white,man,,,,null,,,,
null,"<img src=""stim_listB/kiss2.gif""</stim_listB>",,html-keyboard-response,222,1492976,0.0-15.0-1.13,4438,List1B,white,man,,,,null,,,,
null,are kissing each other,,html-keyboard-response,223,1494977,0.0-15.0-2.13,4438,List1B,white,man,,,,null,,,,
14128,,,survey-text,224,1509105,0.0-15.0-3.13,4438,List1B,white,man,,,,,"{""Q0"":""mike and kate are kissing""}","<img src=""stim_listB/kiss2.gif""</stim_listB>",are kissing each other,
null,"<div style=""font-size:60px;"">+</div>",,html-keyboard-response,225,1509606,0.0-15.0-0.14,4438,List1B,white,man,,,,null,,,,
null,"<img src=""stim_listB/meet5.gif""</stim_listB>",,html-keyboard-response,226,1511608,0.0-15.0-1.14,4438,List1B,white,man,,,,null,,,,
null,is meeting,,html-keyboard-response,227,1513609,0.0-15.0-2.14,4438,List1B,white,man,,,,null,,,,
9343,,,survey-text,228,1522953,0.0-15.0-3.14,4438,List1B,white,man,,,,,"{""Q0"":""mike is meeting dave""}","<img src=""stim_listB/meet5.gif""</stim_listB>",is meeting,
null,"<div style=""font-size:60px;"">+</div>",,html-keyboard-response,229,1523454,0.0-15.0-0.15,4438,List1B,white,man,,,,null,,,,
null,"<img src=""stim_listB/talk4.gif""</stim_listB>",,html-keyboard-response,230,1525455,0.0-15.0-1.15,4438,List1B,white,man,,,,null,,,,
null,are talking to each other,,html-keyboard-response,231,1527457,0.0-15.0-2.15,4438,List1B,white,man,,,,null,,,,
41295,,,survey-text,232,1568753,0.0-15.0-3.15,4438,List1B,white,man,,,,,"{""Q0"":""didn't see it""}","<img src=""stim_listB/talk4.gif""</stim_listB>",are talking to each other,
null,"<div style=""font-size:60px;"">+</div>",,html-keyboard-response,233,1569254,0.0-15.0-0.16,4438,List1B,white,man,,,,null,,,,
null,"<img src=""stim_listB/kiss5.gif""</stim_listB>",,html-keyboard-response,234,1571255,0.0-15.0-1.16,4438,List1B,white,man,,,,null,,,,
null,is kissing,,html-keyboard-response,235,1573256,0.0-15.0-2.16,4438,List1B,white,man,,,,null,,,,
9120,,,survey-text,236,1582376,0.0-15.0-3.16,4438,List1B,white,man,,,,,"{""Q0"":""luke and fred are kissing""}","<img src=""stim_listB/kiss5.gif""</stim_listB>",is kissing,
null,"<div style=""font-size:60px;"">+</div>",,html-keyboard-response,237,1582877,0.0-15.0-0.17,4438,List1B,white,man,,,,null,,,,
null,"<img src=""stim_listB/shout8.gif""</stim_listB>",,html-keyboard-response,238,1584878,0.0-15.0-1.17,4438,List1B,white,man,,,,null,,,,
null,are shouting at each other,,html-keyboard-response,239,1586879,0.0-15.0-2.17,4438,List1B,white,man,,,,null,,,,
18023,,,survey-text,240,1604904,0.0-15.0-3.17,4438,List1B,white,man,,,,,"{""Q0"":""jane and kate are arguing""}","<img src=""stim_listB/shout8.gif""</stim_listB>",are shouting at each other,
null,"<div style=""font-size:60px;"">+</div>",,html-keyboard-response,241,1605405,0.0-15.0-0.18,4438,List1B,white,man,,,,null,,,,
null,"<img src=""stim_listB/shout7.gif""</stim_listB>",,html-keyboard-response,242,1607408,0.0-15.0-1.18,4438,List1B,white,man,,,,null,,,,
null,is shouting at,,html-keyboard-response,243,1609408,0.0-15.0-2.18,4438,List1B,white,man,,,,null,,,,
10807,,,survey-text,244,1620217,0.0-15.0-3.18,4438,List1B,white,man,,,,,"{""Q0"":""beth is shouting at jane""}","<img src=""stim_listB/shout7.gif""</stim_listB>",is shouting at,
null,"<div style=""font-size:60px;"">+</div>",,html-keyboard-response,245,1620718,0.0-15.0-0.19,4438,List1B,white,man,,,,null,,,,
null,"<img src=""stim_listB/marry5.gif""</stim_listB>",,html-keyboard-response,246,1622719,0.0-15.0-1.19,4438,List1B,white,man,,,,null,,,,
null,is marrying,,html-keyboard-response,247,1624720,0.0-15.0-2.19,4438,List1B,white,man,,,,null,,,,
7735,,,survey-text,248,1632456,0.0-15.0-3.19,4438,List1B,white,man,,,,,"{""Q0"":""mike is marrying luke""}","<img src=""stim_listB/marry5.gif""</stim_listB>",is marrying,
1895,"<img src='img/portrait_matrix_list1.JPG' style='width:900px;height:500px;''></img><p>If you have memorised all the portraits and names and are ready to start, press Continue.</p><p><strong>Please note: Your memory of these faces will be tested 4 times during this experiment.</strong></p>",0,html-button-response,249,1634352,0.0-16.0-0.0,4438,List1B,white,man,,,,,,,,
3695,"<img src=""portrait/WW2.jpg""style=""width:400px;height:400px;""></img>",3,html-button-response,250,1639048,0.0-16.0-1.0,4438,List1B,white,man,,TRUE,3,,,,,
null,CORRECT,,html-keyboard-response,251,1640550,0.0-16.0-2.0-0.0,4438,List1B,white,man,,,,null,,,,
3369,"<img src=""portrait/WW1.jpg""style=""width:400px;height:400px;""></img>",1,html-button-response,252,1643920,0.0-16.0-4.0,4438,List1B,white,man,,TRUE,1,,,,,
null,CORRECT,,html-keyboard-response,253,1645422,0.0-16.0-5.0-0.0,4438,List1B,white,man,,,,null,,,,
1256,"<img src=""portrait/BW2.jpg""style=""width:400px;height:400px;""></img>",2,html-button-response,254,1646680,0.0-16.0-7.0,4438,List1B,white,man,,TRUE,2,,,,,
null,CORRECT,,html-keyboard-response,255,1648182,0.0-16.0-8.0-0.0,4438,List1B,white,man,,,,null,,,,
4696,"<img src=""portrait/BW1.jpg""style=""width:400px;height:400px;""></img>",0,html-button-response,256,1652880,0.0-16.0-10.0,4438,List1B,white,man,,TRUE,0,,,,,
null,CORRECT,,html-keyboard-response,257,1654381,0.0-16.0-11.0-0.0,4438,List1B,white,man,,,,null,,,,
2329,"<img src=""portrait/BM1.jpg""style=""width:400px;height:400px;""></img>",4,html-button-response,258,1656712,0.0-16.0-13.0,4438,List1B,white,man,,TRUE,4,,,,,
null,CORRECT,,html-keyboard-response,259,1658214,0.0-16.0-14.0-0.0,4438,List1B,white,man,,,,null,,,,
1697,"<img src=""portrait/WM1.jpg""style=""width:400px;height:400px;""></img>",6,html-button-response,260,1659912,0.0-16.0-16.0,4438,List1B,white,man,,TRUE,6,,,,,
null,CORRECT,,html-keyboard-response,261,1661414,0.0-16.0-17.0-0.0,4438,List1B,white,man,,,,null,,,,
2177,"<img src=""portrait/WM2.jpg""style=""width:400px;height:400px;""></img>",7,html-button-response,262,1663592,0.0-16.0-19.0,4438,List1B,white,man,,TRUE,7,,,,,
null,CORRECT,,html-keyboard-response,263,1665094,0.0-16.0-20.0-0.0,4438,List1B,white,man,,,,null,,,,
3859,"<img src=""portrait/BM2.jpg""style=""width:400px;height:400px;""></img>",5,html-button-response,264,1668953,0.0-16.0-22.0,4438,List1B,white,man,,TRUE,5,,,,,
null,CORRECT,,html-keyboard-response,265,1670455,0.0-16.0-23.0-0.0,4438,List1B,white,man,,,,null,,,,
2816,<p>You got 8 out of 8 right first time. Press Continue.</p>,0,html-button-response,266,1673273,0.0-16.0-25.0,4438,List1B,white,man,,,,,,,,
null,"<div style=""font-size:60px;"">+</div>",,html-keyboard-response,267,1674775,0.0-17.0-0.0,4438,List1B,white,man,,,,null,,,,
null,"<img src=""stim_listB/shout4.gif""</stim_listB>",,html-keyboard-response,268,1676776,0.0-17.0-1.0,4438,List1B,white,man,,,,null,,,,
null,are shouting at each other,,html-keyboard-response,269,1678777,0.0-17.0-2.0,4438,List1B,white,man,,,,null,,,,
14543,,,survey-text,270,1693320,0.0-17.0-3.0,4438,List1B,white,man,,,,,"{""Q0"":""jane is arguing with dave""}","<img src=""stim_listB/shout4.gif""</stim_listB>",are shouting at each other,
null,"<div style=""font-size:60px;"">+</div>",,html-keyboard-response,271,1693821,0.0-17.0-0.1,4438,List1B,white,man,,,,null,,,,
null,"<img src=""stim_listB/marry8.gif""</stim_listB>",,html-keyboard-response,272,1695823,0.0-17.0-1.1,4438,List1B,white,man,,,,null,,,,
null,are marrying each other,,html-keyboard-response,273,1697824,0.0-17.0-2.1,4438,List1B,white,man,,,,null,,,,
11919,,,survey-text,274,1709744,0.0-17.0-3.1,4438,List1B,white,man,,,,,"{""Q0"":""jane is marrying beth""}","<img src=""stim_listB/marry8.gif""</stim_listB>",are marrying each other,
null,"<div style=""font-size:60px;"">+</div>",,html-keyboard-response,275,1710245,0.0-17.0-0.2,4438,List1B,white,man,,,,null,,,,
null,"<img src=""stim_listB/fight8.gif""</stim_listB>",,html-keyboard-response,276,1712246,0.0-17.0-1.2,4438,List1B,white,man,,,,null,,,,
null,are fighting each other,,html-keyboard-response,277,1714247,0.0-17.0-2.2,4438,List1B,white,man,,,,null,,,,
12663,,,survey-text,278,1726911,0.0-17.0-3.2,4438,List1B,white,man,,,,,"{""Q0"":""beth and ruth are fighting each other""}","<img src=""stim_listB/fight8.gif""</stim_listB>",are fighting each other,
null,"<div style=""font-size:60px;"">+</div>",,html-keyboard-response,279,1727413,0.0-17.0-0.3,4438,List1B,white,man,,,,null,,,,
null,"<img src=""stim_listB/fight5.gif""</stim_listB>",,html-keyboard-response,280,1729415,0.0-17.0-1.3,4438,List1B,white,man,,,,null,,,,
null,is fighting,,html-keyboard-response,281,1731416,0.0-17.0-2.3,4438,List1B,white,man,,,,null,,,,
10383,,,survey-text,282,1741800,0.0-17.0-3.3,4438,List1B,white,man,,,,,"{""Q0"":""dave and mike are fighting""}","<img src=""stim_listB/fight5.gif""</stim_listB>",is fighting,
null,"<div style=""font-size:60px;"">+</div>",,html-keyboard-response,283,1742302,0.0-17.0-0.4,4438,List1B,white,man,,,,null,,,,
null,"<img src=""stim_listB/kiss1.gif""</stim_listB>",,html-keyboard-response,284,1744303,0.0-17.0-1.4,4438,List1B,white,man,,,,null,,,,
null,is kissing,,html-keyboard-response,285,1746304,0.0-17.0-2.4,4438,List1B,white,man,,,,null,,,,
13823,,,survey-text,286,1760128,0.0-17.0-3.4,4438,List1B,white,man,,,,,"{""Q0"":""beth and fred are fighting""}","<img src=""stim_listB/kiss1.gif""</stim_listB>",is kissing,
null,"<div style=""font-size:60px;"">+</div>",,html-keyboard-response,287,1760629,0.0-17.0-0.5,4438,List1B,white,man,,,,null,,,,
null,"<img src=""stim_listB/shout2.gif""</stim_listB>",,html-keyboard-response,288,1762630,0.0-17.0-1.5,4438,List1B,white,man,,,,null,,,,
null,are shouting at each other,,html-keyboard-response,289,1764631,0.0-17.0-2.5,4438,List1B,white,man,,,,null,,,,
14375,,,survey-text,290,1779007,0.0-17.0-3.5,4438,List1B,white,man,,,,,"{""Q0"":""kate and mike are shouting at each other""}","<img src=""stim_listB/shout2.gif""</stim_listB>",are shouting at each other,
null,"<div style=""font-size:60px;"">+</div>",,html-keyboard-response,291,1779509,0.0-17.0-0.6,4438,List1B,white,man,,,,null,,,,
null,"<img src=""stim_listB/shout6.gif""</stim_listB>",,html-keyboard-response,292,1781510,0.0-17.0-1.6,4438,List1B,white,man,,,,null,,,,
null,are shouting at each other,,html-keyboard-response,293,1783511,0.0-17.0-2.6,4438,List1B,white,man,,,,null,,,,
14329,,,survey-text,294,1797840,0.0-17.0-3.6,4438,List1B,white,man,,,,,"{""Q0"":""mike and dave are shouting at each other""}","<img src=""stim_listB/shout6.gif""</stim_listB>",are shouting at each other,
null,"<div style=""font-size:60px;"">+</div>",,html-keyboard-response,295,1798341,0.0-17.0-0.7,4438,List1B,white,man,,,,null,,,,
null,"<img src=""stim_listB/touch3.gif""</stim_listB>",,html-keyboard-response,296,1800342,0.0-17.0-1.7,4438,List1B,white,man,,,,null,,,,
null,is touching,,html-keyboard-response,297,1802343,0.0-17.0-2.7,4438,List1B,white,man,,,,null,,,,
11311,,,survey-text,298,1813655,0.0-17.0-3.7,4438,List1B,white,man,,,,,"{""Q0"":""dave and jane are touching""}","<img src=""stim_listB/touch3.gif""</stim_listB>",is touching,
null,"<div style=""font-size:60px;"">+</div>",,html-keyboard-response,299,1814157,0.0-17.0-0.8,4438,List1B,white,man,,,,null,,,,
null,"<img src=""stim_listB/dance5.gif""</stim_listB>",,html-keyboard-response,300,1816158,0.0-17.0-1.8,4438,List1B,white,man,,,,null,,,,
null,is dancing with,,html-keyboard-response,301,1818159,0.0-17.0-2.8,4438,List1B,white,man,,,,null,,,,
8752,,,survey-text,302,1826911,0.0-17.0-3.8,4438,List1B,white,man,,,,,"{""Q0"":""dave is dancing with fred""}","<img src=""stim_listB/dance5.gif""</stim_listB>",is dancing with,
null,"<div style=""font-size:60px;"">+</div>",,html-keyboard-response,303,1827412,0.0-17.0-0.9,4438,List1B,white,man,,,,null,,,,
null,"<img src=""stim_listB/hug2.gif""</stim_listB>",,html-keyboard-response,304,1829413,0.0-17.0-1.9,4438,List1B,white,man,,,,null,,,,
null,are hugging each other,,html-keyboard-response,305,1831414,0.0-17.0-2.9,4438,List1B,white,man,,,,null,,,,
12399,,,survey-text,306,1843815,0.0-17.0-3.9,4438,List1B,white,man,,,,,"{""Q0"":""kate and mike are hugging each other""}","<img src=""stim_listB/hug2.gif""</stim_listB>",are hugging each other,
null,"<div style=""font-size:60px;"">+</div>",,html-keyboard-response,307,1844316,0.0-17.0-0.10,4438,List1B,white,man,,,,null,,,,
null,"<img src=""stim_listB/argue2.gif""</stim_listB>",,html-keyboard-response,308,1846317,0.0-17.0-1.10,4438,List1B,white,man,,,,null,,,,
null,are arguing with each other,,html-keyboard-response,309,1848319,0.0-17.0-2.10,4438,List1B,white,man,,,,null,,,,
12104,,,survey-text,310,1860423,0.0-17.0-3.10,4438,List1B,white,man,,,,,"{""Q0"":""fred and kate are arguing""}","<img src=""stim_listB/argue2.gif""</stim_listB>",are arguing with each other,
null,"<div style=""font-size:60px;"">+</div>",,html-keyboard-response,311,1860924,0.0-17.0-0.11,4438,List1B,white,man,,,,null,,,,
null,"<img src=""stim_listB/shout5.gif""</stim_listB>",,html-keyboard-response,312,1862925,0.0-17.0-1.11,4438,List1B,white,man,,,,null,,,,
null,is shouting at,,html-keyboard-response,313,1864927,0.0-17.0-2.11,4438,List1B,white,man,,,,null,,,,
8408,,,survey-text,314,1873335,0.0-17.0-3.11,4438,List1B,white,man,,,,,"{""Q0"":""luke is shouting at fred""}","<img src=""stim_listB/shout5.gif""</stim_listB>",is shouting at,
null,"<div style=""font-size:60px;"">+</div>",,html-keyboard-response,315,1873836,0.0-17.0-0.12,4438,List1B,white,man,,,,null,,,,
null,"<img src=""stim_listB/hug8.gif""</stim_listB>",,html-keyboard-response,316,1875837,0.0-17.0-1.12,4438,List1B,white,man,,,,null,,,,
null,are hugging each other,,html-keyboard-response,317,1877838,0.0-17.0-2.12,4438,List1B,white,man,,,,null,,,,
11360,,,survey-text,318,1889198,0.0-17.0-3.12,4438,List1B,white,man,,,,,"{""Q0"":""kate and jane are hugging""}","<img src=""stim_listB/hug8.gif""</stim_listB>",are hugging each other,
null,"<div style=""font-size:60px;"">+</div>",,html-keyboard-response,319,1889699,0.0-17.0-0.13,4438,List1B,white,man,,,,null,,,,
null,"<img src=""stim_listB/marry4.gif""</stim_listB>",,html-keyboard-response,320,1891700,0.0-17.0-1.13,4438,List1B,white,man,,,,null,,,,
null,are marrying each other,,html-keyboard-response,321,1893702,0.0-17.0-2.13,4438,List1B,white,man,,,,null,,,,
8296,,,survey-text,322,1901998,0.0-17.0-3.13,4438,List1B,white,man,,,,,"{""Q0"":""jane is marrying luke""}","<img src=""stim_listB/marry4.gif""</stim_listB>",are marrying each other,
null,"<div style=""font-size:60px;"">+</div>",,html-keyboard-response,323,1902500,0.0-17.0-0.14,4438,List1B,white,man,,,,null,,,,
null,"<img src=""stim_listB/fight1.gif""</stim_listB>",,html-keyboard-response,324,1904501,0.0-17.0-1.14,4438,List1B,white,man,,,,null,,,,
null,is fighting,,html-keyboard-response,325,1906502,0.0-17.0-2.14,4438,List1B,white,man,,,,null,,,,
8832,,,survey-text,326,1915335,0.0-17.0-3.14,4438,List1B,white,man,,,,,"{""Q0"":""kate and mike are fighting""}","<img src=""stim_listB/fight1.gif""</stim_listB>",is fighting,
null,"<div style=""font-size:60px;"">+</div>",,html-keyboard-response,327,1915836,0.0-17.0-0.15,4438,List1B,white,man,,,,null,,,,
null,"<img src=""stim_listB/kiss3.gif""</stim_listB>",,html-keyboard-response,328,1917838,0.0-17.0-1.15,4438,List1B,white,man,,,,null,,,,
null,is kissing,,html-keyboard-response,329,1919838,0.0-17.0-2.15,4438,List1B,white,man,,,,null,,,,
7071,,,survey-text,330,1926911,0.0-17.0-3.15,4438,List1B,white,man,,,,,"{""Q0"":""ruth is kissing mike""}","<img src=""stim_listB/kiss3.gif""</stim_listB>",is kissing,
null,"<div style=""font-size:60px;"">+</div>",,html-keyboard-response,331,1927412,0.0-17.0-0.16,4438,List1B,white,man,,,,null,,,,
null,"<img src=""stim_listB/argue7.gif""</stim_listB>",,html-keyboard-response,332,1929413,0.0-17.0-1.16,4438,List1B,white,man,,,,null,,,,
null,is arguing with,,html-keyboard-response,333,1931414,0.0-17.0-2.16,4438,List1B,white,man,,,,null,,,,
19104,,,survey-text,334,1950518,0.0-17.0-3.16,4438,List1B,white,man,,,,,"{""Q0"":""kate is arguing with ruth""}","<img src=""stim_listB/argue7.gif""</stim_listB>",is arguing with,
null,"<div style=""font-size:60px;"">+</div>",,html-keyboard-response,335,1951019,0.0-17.0-0.17,4438,List1B,white,man,,,,null,,,,
null,"<img src=""stim_listB/argue8.gif""</stim_listB>",,html-keyboard-response,336,1953020,0.0-17.0-1.17,4438,List1B,white,man,,,,null,,,,
null,are arguing with each other,,html-keyboard-response,337,1955021,0.0-17.0-2.17,4438,List1B,white,man,,,,null,,,,
9632,,,survey-text,338,1964653,0.0-17.0-3.17,4438,List1B,white,man,,,,,"{""Q0"":""beth and jane are arguing""}","<img src=""stim_listB/argue8.gif""</stim_listB>",are arguing with each other,
null,"<div style=""font-size:60px;"">+</div>",,html-keyboard-response,339,1965154,0.0-17.0-0.18,4438,List1B,white,man,,,,null,,,,
null,"<img src=""stim_listB/touch5.gif""</stim_listB>",,html-keyboard-response,340,1967155,0.0-17.0-1.18,4438,List1B,white,man,,,,null,,,,
null,is touching,,html-keyboard-response,341,1969156,0.0-17.0-2.18,4438,List1B,white,man,,,,null,,,,
9041,,,survey-text,342,1978198,0.0-17.0-3.18,4438,List1B,white,man,,,,,"{""Q0"":""dave and mike are touching""}","<img src=""stim_listB/touch5.gif""</stim_listB>",is touching,
null,"<div style=""font-size:60px;"">+</div>",,html-keyboard-response,343,1978700,0.0-17.0-0.19,4438,List1B,white,man,,,,null,,,,
null,"<img src=""stim_listB/hug1.gif""</stim_listB>",,html-keyboard-response,344,1980701,0.0-17.0-1.19,4438,List1B,white,man,,,,null,,,,
null,is hugging,,html-keyboard-response,345,1982702,0.0-17.0-2.19,4438,List1B,white,man,,,,null,,,,
20255,,,survey-text,346,2002958,0.0-17.0-3.19,4438,List1B,white,man,,,,,"{""Q0"":""beth and fred are hugging""}","<img src=""stim_listB/hug1.gif""</stim_listB>",is hugging,
1823,"<img src='img/portrait_matrix_list1.JPG' style='width:900px;height:500px;''></img><p>If you have memorised all the portraits and names and are ready to start, press Continue.</p><p><strong>Please note: Your memory of these faces will be tested 4 times during this experiment.</strong></p>",0,html-button-response,347,2004782,0.0-18.0-0.0,4438,List1B,white,man,,,,,,,,
4206,"<img src=""portrait/WW1.jpg""style=""width:400px;height:400px;""></img>",1,html-button-response,348,2009990,0.0-18.0-1.0,4438,List1B,white,man,,TRUE,1,,,,,
null,CORRECT,,html-keyboard-response,349,2011491,0.0-18.0-2.0-0.0,4438,List1B,white,man,,,,null,,,,
2729,"<img src=""portrait/BW2.jpg""style=""width:400px;height:400px;""></img>",2,html-button-response,350,2014221,0.0-18.0-4.0,4438,List1B,white,man,,TRUE,2,,,,,
null,CORRECT,,html-keyboard-response,351,2015723,0.0-18.0-5.0-0.0,4438,List1B,white,man,,,,null,,,,
3281,"<img src=""portrait/BM2.jpg""style=""width:400px;height:400px;""></img>",5,html-button-response,352,2019005,0.0-18.0-7.0,4438,List1B,white,man,,TRUE,5,,,,,
null,CORRECT,,html-keyboard-response,353,2020507,0.0-18.0-8.0-0.0,4438,List1B,white,man,,,,null,,,,
2145,"<img src=""portrait/WM1.jpg""style=""width:400px;height:400px;""></img>",6,html-button-response,354,2022653,0.0-18.0-10.0,4438,List1B,white,man,,TRUE,6,,,,,
null,CORRECT,,html-keyboard-response,355,2024156,0.0-18.0-11.0-0.0,4438,List1B,white,man,,,,null,,,,
1537,"<img src=""portrait/BM1.jpg""style=""width:400px;height:400px;""></img>",4,html-button-response,356,2025693,0.0-18.0-13.0,4438,List1B,white,man,,TRUE,4,,,,,
null,CORRECT,,html-keyboard-response,357,2027195,0.0-18.0-14.0-0.0,4438,List1B,white,man,,,,null,,,,
7250,"<img src=""portrait/BW1.jpg""style=""width:400px;height:400px;""></img>",0,html-button-response,358,2034446,0.0-18.0-16.0,4438,List1B,white,man,,TRUE,0,,,,,
null,CORRECT,,html-keyboard-response,359,2035948,0.0-18.0-17.0-0.0,4438,List1B,white,man,,,,null,,,,
1592,"<img src=""portrait/WM2.jpg""style=""width:400px;height:400px;""></img>",7,html-button-response,360,2037542,0.0-18.0-19.0,4438,List1B,white,man,,TRUE,7,,,,,
null,CORRECT,,html-keyboard-response,361,2039044,0.0-18.0-20.0-0.0,4438,List1B,white,man,,,,null,,,,
3480,"<img src=""portrait/WW2.jpg""style=""width:400px;height:400px;""></img>",3,html-button-response,362,2042526,0.0-18.0-22.0,4438,List1B,white,man,,TRUE,3,,,,,
null,CORRECT,,html-keyboard-response,363,2044027,0.0-18.0-23.0-0.0,4438,List1B,white,man,,,,null,,,,
1385,<p>You got 8 out of 8 right first time. Press Continue.</p>,0,html-button-response,364,2045413,0.0-18.0-25.0,4438,List1B,white,man,,,,,,,,
null,"<div style=""font-size:60px;"">+</div>",,html-keyboard-response,365,2046915,0.0-19.0-0.0,4438,List1B,white,man,,,,null,,,,
null,"<img src=""stim_listB/dance2.gif""</stim_listB>",,html-keyboard-response,366,2048916,0.0-19.0-1.0,4438,List1B,white,man,,,,null,,,,
null,are dancing with each other,,html-keyboard-response,367,2050918,0.0-19.0-2.0,4438,List1B,white,man,,,,null,,,,
11663,,,survey-text,368,2062581,0.0-19.0-3.0,4438,List1B,white,man,,,,,"{""Q0"":""beth and mike are dancing""}","<img src=""stim_listB/dance2.gif""</stim_listB>",are dancing with each other,
null,"<div style=""font-size:60px;"">+</div>",,html-keyboard-response,369,2063082,0.0-19.0-0.1,4438,List1B,white,man,,,,null,,,,
null,"<img src=""stim_listB/dance7.gif""</stim_listB>",,html-keyboard-response,370,2065083,0.0-19.0-1.1,4438,List1B,white,man,,,,null,,,,
null,is dancing with,,html-keyboard-response,371,2067084,0.0-19.0-2.1,4438,List1B,white,man,,,,null,,,,
10215,,,survey-text,372,2077301,0.0-19.0-3.1,4438,List1B,white,man,,,,,"{""Q0"":""beth is dancing with jane""}","<img src=""stim_listB/dance7.gif""</stim_listB>",is dancing with,
null,"<div style=""font-size:60px;"">+</div>",,html-keyboard-response,373,2077802,0.0-19.0-0.2,4438,List1B,white,man,,,,null,,,,
null,"<img src=""stim_listB/talk7.gif""</stim_listB>",,html-keyboard-response,374,2079803,0.0-19.0-1.2,4438,List1B,white,man,,,,null,,,,
null,is talking to,,html-keyboard-response,375,2081805,0.0-19.0-2.2,4438,List1B,white,man,,,,null,,,,
11983,,,survey-text,376,2093788,0.0-19.0-3.2,4438,List1B,white,man,,,,,"{""Q0"":""beth is talking to jane""}","<img src=""stim_listB/talk7.gif""</stim_listB>",is talking to,
null,"<div style=""font-size:60px;"">+</div>",,html-keyboard-response,377,2094289,0.0-19.0-0.3,4438,List1B,white,man,,,,null,,,,
null,"<img src=""stim_listB/argue3.gif""</stim_listB>",,html-keyboard-response,378,2096291,0.0-19.0-1.3,4438,List1B,white,man,,,,null,,,,
null,is arguing with,,html-keyboard-response,379,2098292,0.0-19.0-2.3,4438,List1B,white,man,,,,null,,,,
10543,,,survey-text,380,2108837,0.0-19.0-3.3,4438,List1B,white,man,,,,,"{""Q0"":""dave is arguing with ruth""}","<img src=""stim_listB/argue3.gif""</stim_listB>",is arguing with,
null,"<div style=""font-size:60px;"">+</div>",,html-keyboard-response,381,2109338,0.0-19.0-0.4,4438,List1B,white,man,,,,null,,,,
null,"<img src=""stim_listB/talk2.gif""</stim_listB>",,html-keyboard-response,382,2111339,0.0-19.0-1.4,4438,List1B,white,man,,,,null,,,,
null,are talking to each other,,html-keyboard-response,383,2113340,0.0-19.0-2.4,4438,List1B,white,man,,,,null,,,,
23912,,,survey-text,384,2137252,0.0-19.0-3.4,4438,List1B,white,man,,,,,"{""Q0"":""mike and ruth are talking to each other""}","<img src=""stim_listB/talk2.gif""</stim_listB>",are talking to each other,
null,"<div style=""font-size:60px;"">+</div>",,html-keyboard-response,385,2137753,0.0-19.0-0.5,4438,List1B,white,man,,,,null,,,,
null,"<img src=""stim_listB/fight2.gif""</stim_listB>",,html-keyboard-response,386,2139754,0.0-19.0-1.5,4438,List1B,white,man,,,,null,,,,
null,are fighting each other,,html-keyboard-response,387,2141755,0.0-19.0-2.5,4438,List1B,white,man,,,,null,,,,
12592,,,survey-text,388,2154348,0.0-19.0-3.5,4438,List1B,white,man,,,,,"{""Q0"":""fred and beth are fighting each other""}","<img src=""stim_listB/fight2.gif""</stim_listB>",are fighting each other,
null,"<div style=""font-size:60px;"">+</div>",,html-keyboard-response,389,2154850,0.0-19.0-0.6,4438,List1B,white,man,,,,null,,,,
null,"<img src=""stim_listB/talk8.gif""</stim_listB>",,html-keyboard-response,390,2156852,0.0-19.0-1.6,4438,List1B,white,man,,,,null,,,,
null,are talking to each other,,html-keyboard-response,391,2158853,0.0-19.0-2.6,4438,List1B,white,man,,,,null,,,,
16912,,,survey-text,392,2175765,0.0-19.0-3.6,4438,List1B,white,man,,,,,"{""Q0"":""kate and ruth are talking to each other""}","<img src=""stim_listB/talk8.gif""</stim_listB>",are talking to each other,
null,"<div style=""font-size:60px;"">+</div>",,html-keyboard-response,393,2176266,0.0-19.0-0.7,4438,List1B,white,man,,,,null,,,,
null,"<img src=""stim_listB/meet7.gif""</stim_listB>",,html-keyboard-response,394,2178267,0.0-19.0-1.7,4438,List1B,white,man,,,,null,,,,
null,is meeting,,html-keyboard-response,395,2180268,0.0-19.0-2.7,4438,List1B,white,man,,,,null,,,,
15895,,,survey-text,396,2196164,0.0-19.0-3.7,4438,List1B,white,man,,,,,"{""Q0"":""kate and jane are meeting each other""}","<img src=""stim_listB/meet7.gif""</stim_listB>",is meeting,
null,"<div style=""font-size:60px;"">+</div>",,html-keyboard-response,397,2196666,0.0-19.0-0.8,4438,List1B,white,man,,,,null,,,,
null,"<img src=""stim_listB/argue6.gif""</stim_listB>",,html-keyboard-response,398,2198667,0.0-19.0-1.8,4438,List1B,white,man,,,,null,,,,
null,are arguing with each other,,html-keyboard-response,399,2200668,0.0-19.0-2.8,4438,List1B,white,man,,,,null,,,,
13454,,,survey-text,400,2214124,0.0-19.0-3.8,4438,List1B,white,man,,,,,"{""Q0"":""fred and dave are arguing with each other""}","<img src=""stim_listB/argue6.gif""</stim_listB>",are arguing with each other,
null,"<div style=""font-size:60px;"">+</div>",,html-keyboard-response,401,2214625,0.0-19.0-0.9,4438,List1B,white,man,,,,null,,,,
null,"<img src=""stim_listB/shout3.gif""</stim_listB>",,html-keyboard-response,402,2216627,0.0-19.0-1.9,4438,List1B,white,man,,,,null,,,,
null,is shouting at,,html-keyboard-response,403,2218628,0.0-19.0-2.9,4438,List1B,white,man,,,,null,,,,
11616,,,survey-text,404,2230244,0.0-19.0-3.9,4438,List1B,white,man,,,,,"{""Q0"":""luke is shouting at ruth""}","<img src=""stim_listB/shout3.gif""</stim_listB>",is shouting at,
null,"<div style=""font-size:60px;"">+</div>",,html-keyboard-response,405,2230745,0.0-19.0-0.10,4438,List1B,white,man,,,,null,,,,
null,"<img src=""stim_listB/touch2.gif""</stim_listB>",,html-keyboard-response,406,2232746,0.0-19.0-1.10,4438,List1B,white,man,,,,null,,,,
null,are touching each other,,html-keyboard-response,407,2234747,0.0-19.0-2.10,4438,List1B,white,man,,,,null,,,,
13127,,,survey-text,408,2247876,0.0-19.0-3.10,4438,List1B,white,man,,,,,"{""Q0"":""fred and beth are touching each other""}","<img src=""stim_listB/touch2.gif""</stim_listB>",are touching each other,
null,"<div style=""font-size:60px;"">+</div>",,html-keyboard-response,409,2248377,0.0-19.0-0.11,4438,List1B,white,man,,,,null,,,,
null,"<img src=""stim_listB/argue4.gif""</stim_listB>",,html-keyboard-response,410,2250378,0.0-19.0-1.11,4438,List1B,white,man,,,,null,,,,
null,are arguing with each other,,html-keyboard-response,411,2252380,0.0-19.0-2.11,4438,List1B,white,man,,,,null,,,,
14879,,,survey-text,412,2267259,0.0-19.0-3.11,4438,List1B,white,man,,,,,"{""Q0"":""luke and jane are arguing with each other""}","<img src=""stim_listB/argue4.gif""</stim_listB>",are arguing with each other,
null,"<div style=""font-size:60px;"">+</div>",,html-keyboard-response,413,2267760,0.0-19.0-0.12,4438,List1B,white,man,,,,null,,,,
null,"<img src=""stim_listB/hug4.gif""</stim_listB>",,html-keyboard-response,414,2269761,0.0-19.0-1.12,4438,List1B,white,man,,,,null,,,,
null,are hugging each other,,html-keyboard-response,415,2271762,0.0-19.0-2.12,4438,List1B,white,man,,,,null,,,,
12265,,,survey-text,416,2284029,0.0-19.0-3.12,4438,List1B,white,man,,,,,"{""Q0"":""jane and dave are hugging each other""}","<img src=""stim_listB/hug4.gif""</stim_listB>",are hugging each other,
null,"<div style=""font-size:60px;"">+</div>",,html-keyboard-response,417,2284530,0.0-19.0-0.13,4438,List1B,white,man,,,,null,,,,
null,"<img src=""stim_listB/kiss8.gif""</stim_listB>",,html-keyboard-response,418,2286531,0.0-19.0-1.13,4438,List1B,white,man,,,,null,,,,
null,are kissing each other,,html-keyboard-response,419,2288532,0.0-19.0-2.13,4438,List1B,white,man,,,,null,,,,
14287,,,survey-text,420,2302820,0.0-19.0-3.13,4438,List1B,white,man,,,,,"{""Q0"":""kate and jane are kissing each other""}","<img src=""stim_listB/kiss8.gif""</stim_listB>",are kissing each other,
null,"<div style=""font-size:60px;"">+</div>",,html-keyboard-response,421,2303321,0.0-19.0-0.14,4438,List1B,white,man,,,,null,,,,
null,"<img src=""stim_listB/talk1.gif""</stim_listB>",,html-keyboard-response,422,2305322,0.0-19.0-1.14,4438,List1B,white,man,,,,null,,,,
null,is talking to,,html-keyboard-response,423,2307323,0.0-19.0-2.14,4438,List1B,white,man,,,,null,,,,
11184,,,survey-text,424,2318508,0.0-19.0-3.14,4438,List1B,white,man,,,,,"{""Q0"":""kate is talking to fred""}","<img src=""stim_listB/talk1.gif""</stim_listB>",is talking to,
null,"<div style=""font-size:60px;"">+</div>",,html-keyboard-response,425,2319009,0.0-19.0-0.15,4438,List1B,white,man,,,,null,,,,
null,"<img src=""stim_listB/meet2.gif""</stim_listB>",,html-keyboard-response,426,2321010,0.0-19.0-1.15,4438,List1B,white,man,,,,null,,,,
null,are meeting each other,,html-keyboard-response,427,2323011,0.0-19.0-2.15,4438,List1B,white,man,,,,null,,,,
11783,,,survey-text,428,2334795,0.0-19.0-3.15,4438,List1B,white,man,,,,,"{""Q0"":""fred and beth are meeting each other""}","<img src=""stim_listB/meet2.gif""</stim_listB>",are meeting each other,
null,"<div style=""font-size:60px;"">+</div>",,html-keyboard-response,429,2335298,0.0-19.0-0.16,4438,List1B,white,man,,,,null,,,,
null,"<img src=""stim_listB/dance6.gif""</stim_listB>",,html-keyboard-response,430,2337299,0.0-19.0-1.16,4438,List1B,white,man,,,,null,,,,
null,are dancing with each other,,html-keyboard-response,431,2339300,0.0-19.0-2.16,4438,List1B,white,man,,,,null,,,,
12847,,,survey-text,432,2352148,0.0-19.0-3.16,4438,List1B,white,man,,,,,"{""Q0"":""mike and luke are dancing with each other""}","<img src=""stim_listB/dance6.gif""</stim_listB>",are dancing with each other,
null,"<div style=""font-size:60px;"">+</div>",,html-keyboard-response,433,2352649,0.0-19.0-0.17,4438,List1B,white,man,,,,null,,,,
null,"<img src=""stim_listB/kiss7.gif""</stim_listB>",,html-keyboard-response,434,2354651,0.0-19.0-1.17,4438,List1B,white,man,,,,null,,,,
null,is kissing,,html-keyboard-response,435,2356652,0.0-19.0-2.17,4438,List1B,white,man,,,,null,,,,
21535,,,survey-text,436,2378187,0.0-19.0-3.17,4438,List1B,white,man,,,,,"{""Q0"":""ruth and beth are kissing""}","<img src=""stim_listB/kiss7.gif""</stim_listB>",is kissing,
null,"<div style=""font-size:60px;"">+</div>",,html-keyboard-response,437,2378688,0.0-19.0-0.18,4438,List1B,white,man,,,,null,,,,
null,"<img src=""stim_listB/hug7.gif""</stim_listB>",,html-keyboard-response,438,2380689,0.0-19.0-1.18,4438,List1B,white,man,,,,null,,,,
null,is hugging,,html-keyboard-response,439,2382690,0.0-19.0-2.18,4438,List1B,white,man,,,,null,,,,
9959,,,survey-text,440,2392651,0.0-19.0-3.18,4438,List1B,white,man,,,,,"{""Q0"":""beth and ruth are hugging""}","<img src=""stim_listB/hug7.gif""</stim_listB>",is hugging,
null,"<div style=""font-size:60px;"">+</div>",,html-keyboard-response,441,2393152,0.0-19.0-0.19,4438,List1B,white,man,,,,null,,,,
null,"<img src=""stim_listB/touch7.gif""</stim_listB>",,html-keyboard-response,442,2395153,0.0-19.0-1.19,4438,List1B,white,man,,,,null,,,,
null,is touching,,html-keyboard-response,443,2397155,0.0-19.0-2.19,4438,List1B,white,man,,,,null,,,,
10535,,,survey-text,444,2407691,0.0-19.0-3.19,4438,List1B,white,man,,,,,"{""Q0"":""jane is touching kate""}","<img src=""stim_listB/touch7.gif""</stim_listB>",is touching,
2111,<p>Thank you for completing that task.</p><p>The final part of this session is a short questionnaire.</p><p>Press Continue.</p>,0,html-button-response,445,2409803,0.0-20.0,4438,List1B,white,man,,,,,,,,
30349,,,survey-text,446,2441155,0.0-21.0,4438,List1B,white,man,,,,,"{""Q0"":""30"",""Q1"":""English"",""Q2"":""English"",""Q3"":""England"",""Q4"":""White"",""Q5"":""Male""}",,,demographics
35190,,,survey-likert,447,2476350,0.0-22.0,4438,List1B,white,man,,,,,"{""Q0"":5,""Q1"":5,""Q2"":5,""Q3"":5,""Q4"":6,""Q5"":4,""Q6"":5,""Q7"":5,""Q8"":5,""Q9"":5,""Q10"":5,""Q11"":5,""Q12"":5,""Q13"":5}",,,likert_race
37926,,,survey-likert,448,2514285,0.0-23.0,4438,List1B,white,man,,,,,"{""Q0"":4,""Q1"":5,""Q2"":5,""Q3"":5,""Q4"":5,""Q5"":4,""Q6"":5,""Q7"":5,""Q8"":5,""Q9"":5,""Q10"":5,""Q11"":5,""Q12"":5,""Q13"":5}",,,likert_gender
8761,,,survey-text,449,2523051,0.0-24.0,4438,List1B,white,man,,,,,"{""Q0"":""ccc""}",,,worker_id
12246,,,external-html,450,2535346,0.0-25.0,4438,List1B,white,man,debrief.html,,,,,,,
