rt,stimulus,button_pressed,trial_type,trial_index,time_elapsed,internal_node_id,subject,list,ppt_race,ppt_gender,url,first_guess,correct,key_press,responses,image_type,phrase_type,test_part
20834,Welcome to the experiment. Press Continue to begin.,0,html-button-response,0,20842,0.0-0.0,44619,List1B,black,man,,,,,,,,
211203,,,external-html,1,233357,0.0-1.0,44619,List1B,black,man,consent.html,,,,,,,
8806,"<p>On the next page, you will see portraits of 8 people and their names.</p><p>Your first task is to take a few minutes to memorise the names of these people.</p><p>You will have to recall their names during the rest of the experiment, so it is</p><p>essential that you try to memorise these people and their names as best as you can.</p><br><p><strong>You will then be tested on your memory of these names and portraits.</strong></p><br><p>The experiment will start after you have completed this memory test.</p><br><p>Ready?</p>",0,html-button-response,2,242166,0.0-2.0,44619,List1B,black,man,,,,,,,,
174120,"<img src='img/portrait_matrix_list1.JPG' style='width:900px;height:500px;''></img><p>If you have memorised all the portraits and names and are ready to start, press Continue.</p><p><strong>Please note: Your memory of these faces will be tested 4 times during this experiment.</strong></p>",0,html-button-response,3,417298,0.0-3.0-0.0,44619,List1B,black,man,,,,,,,,
14701,"<img src=""portrait/WM2.jpg""style=""width:400px;height:400px;""></img>",7,html-button-response,4,433007,0.0-3.0-1.0,44619,List1B,black,man,,TRUE,7,,,,,
null,CORRECT,,html-keyboard-response,5,434530,0.0-3.0-2.0-0.0,44619,List1B,black,man,,,,null,,,,
29363,"<img src=""portrait/BW1.jpg""style=""width:400px;height:400px;""></img>",0,html-button-response,6,463897,0.0-3.0-4.0,44619,List1B,black,man,,TRUE,0,,,,,
null,CORRECT,,html-keyboard-response,7,465422,0.0-3.0-5.0-0.0,44619,List1B,black,man,,,,null,,,,
3605,"<img src=""portrait/WM1.jpg""style=""width:400px;height:400px;""></img>",6,html-button-response,8,469032,0.0-3.0-7.0,44619,List1B,black,man,,TRUE,6,,,,,
null,CORRECT,,html-keyboard-response,9,470539,0.0-3.0-8.0-0.0,44619,List1B,black,man,,,,null,,,,
2239,"<img src=""portrait/BM2.jpg""style=""width:400px;height:400px;""></img>",5,html-button-response,10,472781,0.0-3.0-10.0,44619,List1B,black,man,,TRUE,5,,,,,
null,CORRECT,,html-keyboard-response,11,474289,0.0-3.0-11.0-0.0,44619,List1B,black,man,,,,null,,,,
3876,"<img src=""portrait/WW1.jpg""style=""width:400px;height:400px;""></img>",1,html-button-response,12,478169,0.0-3.0-13.0,44619,List1B,black,man,,TRUE,1,,,,,
null,CORRECT,,html-keyboard-response,13,479679,0.0-3.0-14.0-0.0,44619,List1B,black,man,,,,null,,,,
8359,"<img src=""portrait/BM1.jpg""style=""width:400px;height:400px;""></img>",4,html-button-response,14,488042,0.0-3.0-16.0,44619,List1B,black,man,,TRUE,4,,,,,
null,CORRECT,,html-keyboard-response,15,489561,0.0-3.0-17.0-0.0,44619,List1B,black,man,,,,null,,,,
2836,"<img src=""portrait/WW2.jpg""style=""width:400px;height:400px;""></img>",3,html-button-response,16,492400,0.0-3.0-19.0,44619,List1B,black,man,,TRUE,3,,,,,
null,CORRECT,,html-keyboard-response,17,493914,0.0-3.0-20.0-0.0,44619,List1B,black,man,,,,null,,,,
6511,"<img src=""portrait/BW2.jpg""style=""width:400px;height:400px;""></img>",2,html-button-response,18,500428,0.0-3.0-22.0,44619,List1B,black,man,,TRUE,2,,,,,
null,CORRECT,,html-keyboard-response,19,501937,0.0-3.0-23.0-0.0,44619,List1B,black,man,,,,null,,,,
2130,<p>You got 8 out of 8 right first time. Press Continue.</p>,0,html-button-response,20,504069,0.0-3.0-25.0,44619,List1B,black,man,,,,,,,,
187141,"<p>In this experiment, you will view photographs of the people from the memory game interacting.</p><p>By using the <strong>exact</strong> phrase given <i>after</i> the photograph appears and recalling the correct names of the people in the photographs, form a sentence describing the interaction. You do not need to capitalise names.</p><p>Type your answer in the space provided. Please complete every sentence before moving onto the next trial.</p><p>You will only have a few seconds to memorise each given photograph and phrase before you can respond, so try your best to focus.</p><p>An example is given below. Press 'Continue' when you are ready.</p><img src='img/speaking_example_v2.jpg' style='width:800px;height:460px;''></img>",0,html-button-response,21,692228,0.0-4.0,44619,List1B,black,man,,,,,,,,
2430,"<p>Before the experiment starts, you will watch two example trials. Press 'Continue'.</p>",0,html-button-response,22,695666,0.0-5.0,44619,List1B,black,man,,,,,,,,
null,<img src='img/speaking_WW.gif'></img>,,html-keyboard-response,23,698694,0.0-6.0,44619,List1B,black,man,,,,null,,,,
null,<p>is speaking to</p>,,html-keyboard-response,24,700696,0.0-7.0,44619,List1B,black,man,,,,null,,,,
90968,<p><b>Answer:</b> kate is speaking to beth</p>,0,html-button-response,25,791665,0.0-8.0,44619,List1B,black,man,,,,,,,,
null,<img src='img/pointing_BM.gif'></img>,,html-keyboard-response,26,794682,0.0-9.0,44619,List1B,black,man,,,,null,,,,
null,<p>are pointing at each other</p>,,html-keyboard-response,27,796685,0.0-10.0,44619,List1B,black,man,,,,null,,,,
9086,<p><b>Answer:</b> luke and dave are pointing at each other</p>,0,html-button-response,28,805772,0.0-11.0,44619,List1B,black,man,,,,,,,,
265350,"<p>Ready to start the experiment?</p><br><p><strong>Remember to describe the picture using a full sentence,</strong></p><p><strong>that combines the names of the people with the given phrase.</strong></p><p><strong>If you do not do this correctly you will not be paid.</strong></p><p><strong> You do not need to capitalise names or use punctuation.</strong></p><br><p>Press 'Continue' to begin.</p>",0,html-button-response,29,1072125,0.0-12.0,44619,List1B,black,man,,,,,,,,
null,"<div style=""font-size:60px;"">+</div>",,html-keyboard-response,30,1073648,0.0-13.0-0.0,44619,List1B,black,man,,,,null,,,,
null,"<img src=""stim_listB/hug3.gif""</stim_listB>",,html-keyboard-response,31,1075659,0.0-13.0-1.0,44619,List1B,black,man,,,,null,,,,
null,is hugging,,html-keyboard-response,32,1077673,0.0-13.0-2.0,44619,List1B,black,man,,,,null,,,,
47517,,,survey-text,33,1125195,0.0-13.0-3.0,44619,List1B,black,man,,,,,"{""Q0"":""Ruth and Luke are hugging""}","<img src=""stim_listB/hug3.gif""</stim_listB>",is hugging,
null,"<div style=""font-size:60px;"">+</div>",,html-keyboard-response,34,1125700,0.0-13.0-0.1,44619,List1B,black,man,,,,null,,,,
null,"<img src=""stim_listB/shout8.gif""</stim_listB>",,html-keyboard-response,35,1127704,0.0-13.0-1.1,44619,List1B,black,man,,,,null,,,,
null,are shouting at each other,,html-keyboard-response,36,1129709,0.0-13.0-2.1,44619,List1B,black,man,,,,null,,,,
23584,,,survey-text,37,1153294,0.0-13.0-3.1,44619,List1B,black,man,,,,,"{""Q0"":""Jane and kate are shouting at each other""}","<img src=""stim_listB/shout8.gif""</stim_listB>",are shouting at each other,
null,"<div style=""font-size:60px;"">+</div>",,html-keyboard-response,38,1153802,0.0-13.0-0.2,44619,List1B,black,man,,,,null,,,,
null,"<img src=""stim_listB/meet3.gif""</stim_listB>",,html-keyboard-response,39,1155810,0.0-13.0-1.2,44619,List1B,black,man,,,,null,,,,
null,is meeting,,html-keyboard-response,40,1157811,0.0-13.0-2.2,44619,List1B,black,man,,,,null,,,,
16108,,,survey-text,41,1173921,0.0-13.0-3.2,44619,List1B,black,man,,,,,"{""Q0"":""dave is meeting jane""}","<img src=""stim_listB/meet3.gif""</stim_listB>",is meeting,
null,"<div style=""font-size:60px;"">+</div>",,html-keyboard-response,42,1174438,0.0-13.0-0.3,44619,List1B,black,man,,,,null,,,,
null,"<img src=""stim_listB/meet1.gif""</stim_listB>",,html-keyboard-response,43,1176450,0.0-13.0-1.3,44619,List1B,black,man,,,,null,,,,
null,is meeting,,html-keyboard-response,44,1178465,0.0-13.0-2.3,44619,List1B,black,man,,,,null,,,,
40608,,,survey-text,45,1219075,0.0-13.0-3.3,44619,List1B,black,man,,,,,"{""Q0"":""mike is meeting kate""}","<img src=""stim_listB/meet1.gif""</stim_listB>",is meeting,
null,"<div style=""font-size:60px;"">+</div>",,html-keyboard-response,46,1219585,0.0-13.0-0.4,44619,List1B,black,man,,,,null,,,,
null,"<img src=""stim_listB/meet2.gif""</stim_listB>",,html-keyboard-response,47,1221596,0.0-13.0-1.4,44619,List1B,black,man,,,,null,,,,
null,are meeting each other,,html-keyboard-response,48,1223597,0.0-13.0-2.4,44619,List1B,black,man,,,,null,,,,
15415,,,survey-text,49,1239015,0.0-13.0-3.4,44619,List1B,black,man,,,,,"{""Q0"":""beth is meeting fred""}","<img src=""stim_listB/meet2.gif""</stim_listB>",are meeting each other,
null,"<div style=""font-size:60px;"">+</div>",,html-keyboard-response,50,1239522,0.0-13.0-0.5,44619,List1B,black,man,,,,null,,,,
null,"<img src=""stim_listB/meet6.gif""</stim_listB>",,html-keyboard-response,51,1241531,0.0-13.0-1.5,44619,List1B,black,man,,,,null,,,,
null,are meeting each other,,html-keyboard-response,52,1243543,0.0-13.0-2.5,44619,List1B,black,man,,,,null,,,,
17686,,,survey-text,53,1261231,0.0-13.0-3.5,44619,List1B,black,man,,,,,"{""Q0"":""fred and luke are meeting each other""}","<img src=""stim_listB/meet6.gif""</stim_listB>",are meeting each other,
null,"<div style=""font-size:60px;"">+</div>",,html-keyboard-response,54,1261746,0.0-13.0-0.6,44619,List1B,black,man,,,,null,,,,
null,"<img src=""stim_listB/fight2.gif""</stim_listB>",,html-keyboard-response,55,1263757,0.0-13.0-1.6,44619,List1B,black,man,,,,null,,,,
null,are fighting each other,,html-keyboard-response,56,1265759,0.0-13.0-2.6,44619,List1B,black,man,,,,null,,,,
43420,,,survey-text,57,1309182,0.0-13.0-3.6,44619,List1B,black,man,,,,,"{""Q0"":""fred and beth are fighting each other""}","<img src=""stim_listB/fight2.gif""</stim_listB>",are fighting each other,
null,"<div style=""font-size:60px;"">+</div>",,html-keyboard-response,58,1309684,0.0-13.0-0.7,44619,List1B,black,man,,,,null,,,,
null,"<img src=""stim_listB/dance2.gif""</stim_listB>",,html-keyboard-response,59,1311686,0.0-13.0-1.7,44619,List1B,black,man,,,,null,,,,
null,are dancing with each other,,html-keyboard-response,60,1313700,0.0-13.0-2.7,44619,List1B,black,man,,,,null,,,,
24520,,,survey-text,61,1338222,0.0-13.0-3.7,44619,List1B,black,man,,,,,"{""Q0"":""mike and beth are dancing with each other""}","<img src=""stim_listB/dance2.gif""</stim_listB>",are dancing with each other,
null,"<div style=""font-size:60px;"">+</div>",,html-keyboard-response,62,1338733,0.0-13.0-0.8,44619,List1B,black,man,,,,null,,,,
null,"<img src=""stim_listB/marry1.gif""</stim_listB>",,html-keyboard-response,63,1340745,0.0-13.0-1.8,44619,List1B,black,man,,,,null,,,,
null,is marrying,,html-keyboard-response,64,1342762,0.0-13.0-2.8,44619,List1B,black,man,,,,null,,,,
19525,,,survey-text,65,1362289,0.0-13.0-3.8,44619,List1B,black,man,,,,,"{""Q0"":""mike and beth are marrying""}","<img src=""stim_listB/marry1.gif""</stim_listB>",is marrying,
null,"<div style=""font-size:60px;"">+</div>",,html-keyboard-response,66,1362805,0.0-13.0-0.9,44619,List1B,black,man,,,,null,,,,
null,"<img src=""stim_listB/hug5.gif""</stim_listB>",,html-keyboard-response,67,1364815,0.0-13.0-1.9,44619,List1B,black,man,,,,null,,,,
null,is hugging,,html-keyboard-response,68,1366830,0.0-13.0-2.9,44619,List1B,black,man,,,,null,,,,
15664,,,survey-text,69,1382495,0.0-13.0-3.9,44619,List1B,black,man,,,,,"{""Q0"":""fred is hugging luke""}","<img src=""stim_listB/hug5.gif""</stim_listB>",is hugging,
null,"<div style=""font-size:60px;"">+</div>",,html-keyboard-response,70,1383009,0.0-13.0-0.10,44619,List1B,black,man,,,,null,,,,
null,"<img src=""stim_listB/argue5.gif""</stim_listB>",,html-keyboard-response,71,1385019,0.0-13.0-1.10,44619,List1B,black,man,,,,null,,,,
null,is arguing with,,html-keyboard-response,72,1387021,0.0-13.0-2.10,44619,List1B,black,man,,,,null,,,,
10317,,,survey-text,73,1397339,0.0-13.0-3.10,44619,List1B,black,man,,,,,"{""Q0"":""luke is arguing with mike""}","<img src=""stim_listB/argue5.gif""</stim_listB>",is arguing with,
null,"<div style=""font-size:60px;"">+</div>",,html-keyboard-response,74,1397848,0.0-13.0-0.11,44619,List1B,black,man,,,,null,,,,
null,"<img src=""stim_listB/meet5.gif""</stim_listB>",,html-keyboard-response,75,1399857,0.0-13.0-1.11,44619,List1B,black,man,,,,null,,,,
null,is meeting,,html-keyboard-response,76,1401859,0.0-13.0-2.11,44619,List1B,black,man,,,,null,,,,
7727,,,survey-text,77,1409587,0.0-13.0-3.11,44619,List1B,black,man,,,,,"{""Q0"":""mike is meeting with dave""}","<img src=""stim_listB/meet5.gif""</stim_listB>",is meeting,
null,"<div style=""font-size:60px;"">+</div>",,html-keyboard-response,78,1410090,0.0-13.0-0.12,44619,List1B,black,man,,,,null,,,,
null,"<img src=""stim_listB/fight3.gif""</stim_listB>",,html-keyboard-response,79,1412094,0.0-13.0-1.12,44619,List1B,black,man,,,,null,,,,
null,is fighting,,html-keyboard-response,80,1414096,0.0-13.0-2.12,44619,List1B,black,man,,,,null,,,,
8633,,,survey-text,81,1422731,0.0-13.0-3.12,44619,List1B,black,man,,,,,"{""Q0"":""jane is fighting with dave""}","<img src=""stim_listB/fight3.gif""</stim_listB>",is fighting,
null,"<div style=""font-size:60px;"">+</div>",,html-keyboard-response,82,1423244,0.0-13.0-0.13,44619,List1B,black,man,,,,null,,,,
null,"<img src=""stim_listB/talk5.gif""</stim_listB>",,html-keyboard-response,83,1425262,0.0-13.0-1.13,44619,List1B,black,man,,,,null,,,,
null,is talking to,,html-keyboard-response,84,1427264,0.0-13.0-2.13,44619,List1B,black,man,,,,null,,,,
8359,,,survey-text,85,1435625,0.0-13.0-3.13,44619,List1B,black,man,,,,,"{""Q0"":""fred is talking to dave""}","<img src=""stim_listB/talk5.gif""</stim_listB>",is talking to,
null,"<div style=""font-size:60px;"">+</div>",,html-keyboard-response,86,1436139,0.0-13.0-0.14,44619,List1B,black,man,,,,null,,,,
null,"<img src=""stim_listB/hug4.gif""</stim_listB>",,html-keyboard-response,87,1438142,0.0-13.0-1.14,44619,List1B,black,man,,,,null,,,,
null,are hugging each other,,html-keyboard-response,88,1440154,0.0-13.0-2.14,44619,List1B,black,man,,,,null,,,,
18857,,,survey-text,89,1459013,0.0-13.0-3.14,44619,List1B,black,man,,,,,"{""Q0"":""dave and jane are hugging each other""}","<img src=""stim_listB/hug4.gif""</stim_listB>",are hugging each other,
null,"<div style=""font-size:60px;"">+</div>",,html-keyboard-response,90,1459531,0.0-13.0-0.15,44619,List1B,black,man,,,,null,,,,
null,"<img src=""stim_listB/argue6.gif""</stim_listB>",,html-keyboard-response,91,1461543,0.0-13.0-1.15,44619,List1B,black,man,,,,null,,,,
null,are arguing with each other,,html-keyboard-response,92,1463545,0.0-13.0-2.15,44619,List1B,black,man,,,,null,,,,
23864,,,survey-text,93,1487412,0.0-13.0-3.15,44619,List1B,black,man,,,,,"{""Q0"":""fred and dave are arguing with each other""}","<img src=""stim_listB/argue6.gif""</stim_listB>",are arguing with each other,
null,"<div style=""font-size:60px;"">+</div>",,html-keyboard-response,94,1487915,0.0-13.0-0.16,44619,List1B,black,man,,,,null,,,,
null,"<img src=""stim_listB/marry4.gif""</stim_listB>",,html-keyboard-response,95,1489920,0.0-13.0-1.16,44619,List1B,black,man,,,,null,,,,
null,are marrying each other,,html-keyboard-response,96,1491932,0.0-13.0-2.16,44619,List1B,black,man,,,,null,,,,
11545,,,survey-text,97,1503479,0.0-13.0-3.16,44619,List1B,black,man,,,,,"{""Q0"":""Luke and jane are marrying each other""}","<img src=""stim_listB/marry4.gif""</stim_listB>",are marrying each other,
null,"<div style=""font-size:60px;"">+</div>",,html-keyboard-response,98,1503993,0.0-13.0-0.17,44619,List1B,black,man,,,,null,,,,
null,"<img src=""stim_listB/hug6.gif""</stim_listB>",,html-keyboard-response,99,1506000,0.0-13.0-1.17,44619,List1B,black,man,,,,null,,,,
null,are hugging each other,,html-keyboard-response,100,1508017,0.0-13.0-2.17,44619,List1B,black,man,,,,null,,,,
18580,,,survey-text,101,1526599,0.0-13.0-3.17,44619,List1B,black,man,,,,,"{""Q0"":""Dave and mike are hugging each other""}","<img src=""stim_listB/hug6.gif""</stim_listB>",are hugging each other,
null,"<div style=""font-size:60px;"">+</div>",,html-keyboard-response,102,1527100,0.0-13.0-0.18,44619,List1B,black,man,,,,null,,,,
null,"<img src=""stim_listB/shout4.gif""</stim_listB>",,html-keyboard-response,103,1529106,0.0-13.0-1.18,44619,List1B,black,man,,,,null,,,,
null,are shouting at each other,,html-keyboard-response,104,1531108,0.0-13.0-2.18,44619,List1B,black,man,,,,null,,,,
9029,,,survey-text,105,1540139,0.0-13.0-3.18,44619,List1B,black,man,,,,,"{""Q0"":""dave and jane are shouting at each other""}","<img src=""stim_listB/shout4.gif""</stim_listB>",are shouting at each other,
null,"<div style=""font-size:60px;"">+</div>",,html-keyboard-response,106,1540642,0.0-13.0-0.19,44619,List1B,black,man,,,,null,,,,
null,"<img src=""stim_listB/argue8.gif""</stim_listB>",,html-keyboard-response,107,1542658,0.0-13.0-1.19,44619,List1B,black,man,,,,null,,,,
null,are arguing with each other,,html-keyboard-response,108,1544675,0.0-13.0-2.19,44619,List1B,black,man,,,,null,,,,
14073,,,survey-text,109,1558749,0.0-13.0-3.19,44619,List1B,black,man,,,,,"{""Q0"":""Jane and beth are pointing at each other""}","<img src=""stim_listB/argue8.gif""</stim_listB>",are arguing with each other,
3555,"<img src='img/portrait_matrix_list1.JPG' style='width:900px;height:500px;''></img><p>If you have memorised all the portraits and names and are ready to start, press Continue.</p><p><strong>Please note: Your memory of these faces will be tested 4 times during this experiment.</strong></p>",0,html-button-response,110,1562306,0.0-14.0-0.0,44619,List1B,black,man,,,,,,,,
2731,"<img src=""portrait/WM1.jpg""style=""width:400px;height:400px;""></img>",6,html-button-response,111,1566052,0.0-14.0-1.0,44619,List1B,black,man,,TRUE,6,,,,,
null,CORRECT,,html-keyboard-response,112,1567580,0.0-14.0-2.0-0.0,44619,List1B,black,man,,,,null,,,,
1504,"<img src=""portrait/BW2.jpg""style=""width:400px;height:400px;""></img>",2,html-button-response,113,1569088,0.0-14.0-4.0,44619,List1B,black,man,,TRUE,2,,,,,
null,CORRECT,,html-keyboard-response,114,1570611,0.0-14.0-5.0-0.0,44619,List1B,black,man,,,,null,,,,
5781,"<img src=""portrait/WW2.jpg""style=""width:400px;height:400px;""></img>",3,html-button-response,115,1576395,0.0-14.0-7.0,44619,List1B,black,man,,TRUE,3,,,,,
null,CORRECT,,html-keyboard-response,116,1577914,0.0-14.0-8.0-0.0,44619,List1B,black,man,,,,null,,,,
1915,"<img src=""portrait/WM2.jpg""style=""width:400px;height:400px;""></img>",7,html-button-response,117,1579832,0.0-14.0-10.0,44619,List1B,black,man,,TRUE,7,,,,,
null,CORRECT,,html-keyboard-response,118,1581346,0.0-14.0-11.0-0.0,44619,List1B,black,man,,,,null,,,,
1626,"<img src=""portrait/WW1.jpg""style=""width:400px;height:400px;""></img>",1,html-button-response,119,1582976,0.0-14.0-13.0,44619,List1B,black,man,,TRUE,1,,,,,
null,CORRECT,,html-keyboard-response,120,1584481,0.0-14.0-14.0-0.0,44619,List1B,black,man,,,,null,,,,
8077,"<img src=""portrait/BW1.jpg""style=""width:400px;height:400px;""></img>",0,html-button-response,121,1592562,0.0-14.0-16.0,44619,List1B,black,man,,TRUE,0,,,,,
null,CORRECT,,html-keyboard-response,122,1594083,0.0-14.0-17.0-0.0,44619,List1B,black,man,,,,null,,,,
1837,"<img src=""portrait/BM1.jpg""style=""width:400px;height:400px;""></img>",4,html-button-response,123,1595923,0.0-14.0-19.0,44619,List1B,black,man,,TRUE,4,,,,,
null,CORRECT,,html-keyboard-response,124,1597435,0.0-14.0-20.0-0.0,44619,List1B,black,man,,,,null,,,,
1603,"<img src=""portrait/BM2.jpg""style=""width:400px;height:400px;""></img>",5,html-button-response,125,1599043,0.0-14.0-22.0,44619,List1B,black,man,,TRUE,5,,,,,
null,CORRECT,,html-keyboard-response,126,1600553,0.0-14.0-23.0-0.0,44619,List1B,black,man,,,,null,,,,
1131,<p>You got 8 out of 8 right first time. Press Continue.</p>,0,html-button-response,127,1601687,0.0-14.0-25.0,44619,List1B,black,man,,,,,,,,
null,"<div style=""font-size:60px;"">+</div>",,html-keyboard-response,128,1603202,0.0-15.0-0.0,44619,List1B,black,man,,,,null,,,,
null,"<img src=""stim_listB/kiss8.gif""</stim_listB>",,html-keyboard-response,129,1605212,0.0-15.0-1.0,44619,List1B,black,man,,,,null,,,,
null,are kissing each other,,html-keyboard-response,130,1607216,0.0-15.0-2.0,44619,List1B,black,man,,,,null,,,,
13663,,,survey-text,131,1620881,0.0-15.0-3.0,44619,List1B,black,man,,,,,"{""Q0"":""Jane and kate are kissing each other""}","<img src=""stim_listB/kiss8.gif""</stim_listB>",are kissing each other,
null,"<div style=""font-size:60px;"">+</div>",,html-keyboard-response,132,1621383,0.0-15.0-0.1,44619,List1B,black,man,,,,null,,,,
null,"<img src=""stim_listB/marry6.gif""</stim_listB>",,html-keyboard-response,133,1623399,0.0-15.0-1.1,44619,List1B,black,man,,,,null,,,,
null,are marrying each other,,html-keyboard-response,134,1625401,0.0-15.0-2.1,44619,List1B,black,man,,,,null,,,,
16126,,,survey-text,135,1641528,0.0-15.0-3.1,44619,List1B,black,man,,,,,"{""Q0"":""fred and dave are marrying each other""}","<img src=""stim_listB/marry6.gif""</stim_listB>",are marrying each other,
null,"<div style=""font-size:60px;"">+</div>",,html-keyboard-response,136,1642032,0.0-15.0-0.2,44619,List1B,black,man,,,,null,,,,
null,"<img src=""stim_listB/dance7.gif""</stim_listB>",,html-keyboard-response,137,1644039,0.0-15.0-1.2,44619,List1B,black,man,,,,null,,,,
null,is dancing with,,html-keyboard-response,138,1646052,0.0-15.0-2.2,44619,List1B,black,man,,,,null,,,,
15843,,,survey-text,139,1661897,0.0-15.0-3.2,44619,List1B,black,man,,,,,"{""Q0"":""jane is dancing with beth""}","<img src=""stim_listB/dance7.gif""</stim_listB>",is dancing with,
null,"<div style=""font-size:60px;"">+</div>",,html-keyboard-response,140,1662401,0.0-15.0-0.3,44619,List1B,black,man,,,,null,,,,
null,"<img src=""stim_listB/talk2.gif""</stim_listB>",,html-keyboard-response,141,1664412,0.0-15.0-1.3,44619,List1B,black,man,,,,null,,,,
null,are talking to each other,,html-keyboard-response,142,1666414,0.0-15.0-2.3,44619,List1B,black,man,,,,null,,,,
12653,,,survey-text,143,1679069,0.0-15.0-3.3,44619,List1B,black,man,,,,,"{""Q0"":""beth and mike are talking to each other""}","<img src=""stim_listB/talk2.gif""</stim_listB>",are talking to each other,
null,"<div style=""font-size:60px;"">+</div>",,html-keyboard-response,144,1679573,0.0-15.0-0.4,44619,List1B,black,man,,,,null,,,,
null,"<img src=""stim_listB/shout5.gif""</stim_listB>",,html-keyboard-response,145,1681589,0.0-15.0-1.4,44619,List1B,black,man,,,,null,,,,
null,is shouting at,,html-keyboard-response,146,1683603,0.0-15.0-2.4,44619,List1B,black,man,,,,null,,,,
20822,,,survey-text,147,1704428,0.0-15.0-3.4,44619,List1B,black,man,,,,,"{""Q0"":""luke and fred are shouting at each other""}","<img src=""stim_listB/shout5.gif""</stim_listB>",is shouting at,
null,"<div style=""font-size:60px;"">+</div>",,html-keyboard-response,148,1704931,0.0-15.0-0.5,44619,List1B,black,man,,,,null,,,,
null,"<img src=""stim_listB/touch3.gif""</stim_listB>",,html-keyboard-response,149,1706946,0.0-15.0-1.5,44619,List1B,black,man,,,,null,,,,
null,is touching,,html-keyboard-response,150,1708959,0.0-15.0-2.5,44619,List1B,black,man,,,,null,,,,
11267,,,survey-text,151,1720228,0.0-15.0-3.5,44619,List1B,black,man,,,,,"{""Q0"":""dave is touching jane""}","<img src=""stim_listB/touch3.gif""</stim_listB>",is touching,
null,"<div style=""font-size:60px;"">+</div>",,html-keyboard-response,152,1720731,0.0-15.0-0.6,44619,List1B,black,man,,,,null,,,,
null,"<img src=""stim_listB/dance8.gif""</stim_listB>",,html-keyboard-response,153,1722738,0.0-15.0-1.6,44619,List1B,black,man,,,,null,,,,
null,are dancing with each other,,html-keyboard-response,154,1724742,0.0-15.0-2.6,44619,List1B,black,man,,,,null,,,,
15338,,,survey-text,155,1740082,0.0-15.0-3.6,44619,List1B,black,man,,,,,"{""Q0"":""ruth and kate are dancing with each other""}","<img src=""stim_listB/dance8.gif""</stim_listB>",are dancing with each other,
null,"<div style=""font-size:60px;"">+</div>",,html-keyboard-response,156,1740589,0.0-15.0-0.7,44619,List1B,black,man,,,,null,,,,
null,"<img src=""stim_listB/meet7.gif""</stim_listB>",,html-keyboard-response,157,1742593,0.0-15.0-1.7,44619,List1B,black,man,,,,null,,,,
null,is meeting,,html-keyboard-response,158,1744594,0.0-15.0-2.7,44619,List1B,black,man,,,,null,,,,
16414,,,survey-text,159,1761009,0.0-15.0-3.7,44619,List1B,black,man,,,,,"{""Q0"":""jane is meeting kate""}","<img src=""stim_listB/meet7.gif""</stim_listB>",is meeting,
null,"<div style=""font-size:60px;"">+</div>",,html-keyboard-response,160,1761514,0.0-15.0-0.8,44619,List1B,black,man,,,,null,,,,
null,"<img src=""stim_listB/fight1.gif""</stim_listB>",,html-keyboard-response,161,1763517,0.0-15.0-1.8,44619,List1B,black,man,,,,null,,,,
null,is fighting,,html-keyboard-response,162,1765519,0.0-15.0-2.8,44619,List1B,black,man,,,,null,,,,
15661,,,survey-text,163,1781182,0.0-15.0-3.8,44619,List1B,black,man,,,,,"{""Q0"":""mike is fighting with kate""}","<img src=""stim_listB/fight1.gif""</stim_listB>",is fighting,
null,"<div style=""font-size:60px;"">+</div>",,html-keyboard-response,164,1781691,0.0-15.0-0.9,44619,List1B,black,man,,,,null,,,,
null,"<img src=""stim_listB/dance1.gif""</stim_listB>",,html-keyboard-response,165,1783695,0.0-15.0-1.9,44619,List1B,black,man,,,,null,,,,
null,is dancing with,,html-keyboard-response,166,1785697,0.0-15.0-2.9,44619,List1B,black,man,,,,null,,,,
9423,,,survey-text,167,1795121,0.0-15.0-3.9,44619,List1B,black,man,,,,,"{""Q0"":""kate is dancing with fred""}","<img src=""stim_listB/dance1.gif""</stim_listB>",is dancing with,
null,"<div style=""font-size:60px;"">+</div>",,html-keyboard-response,168,1795632,0.0-15.0-0.10,44619,List1B,black,man,,,,null,,,,
null,"<img src=""stim_listB/talk1.gif""</stim_listB>",,html-keyboard-response,169,1797635,0.0-15.0-1.10,44619,List1B,black,man,,,,null,,,,
null,is talking to,,html-keyboard-response,170,1799639,0.0-15.0-2.10,44619,List1B,black,man,,,,null,,,,
8526,,,survey-text,171,1808167,0.0-15.0-3.10,44619,List1B,black,man,,,,,"{""Q0"":""fred is talking to kate""}","<img src=""stim_listB/talk1.gif""</stim_listB>",is talking to,
null,"<div style=""font-size:60px;"">+</div>",,html-keyboard-response,172,1808681,0.0-15.0-0.11,44619,List1B,black,man,,,,null,,,,
null,"<img src=""stim_listB/marry2.gif""</stim_listB>",,html-keyboard-response,173,1810684,0.0-15.0-1.11,44619,List1B,black,man,,,,null,,,,
null,are marrying each other,,html-keyboard-response,174,1812694,0.0-15.0-2.11,44619,List1B,black,man,,,,null,,,,
419,,,survey-text,175,1813115,0.0-15.0-3.11,44619,List1B,black,man,,,,,"{""Q0"":""""}","<img src=""stim_listB/marry2.gif""</stim_listB>",are marrying each other,
null,"<div style=""font-size:60px;"">+</div>",,html-keyboard-response,176,1813617,0.0-15.0-0.12,44619,List1B,black,man,,,,null,,,,
null,"<img src=""stim_listB/kiss2.gif""</stim_listB>",,html-keyboard-response,177,1815630,0.0-15.0-1.12,44619,List1B,black,man,,,,null,,,,
null,are kissing each other,,html-keyboard-response,178,1817635,0.0-15.0-2.12,44619,List1B,black,man,,,,null,,,,
20357,,,survey-text,179,1837993,0.0-15.0-3.12,44619,List1B,black,man,,,,,"{""Q0"":""mike and kate are kissing each other""}","<img src=""stim_listB/kiss2.gif""</stim_listB>",are kissing each other,
null,"<div style=""font-size:60px;"">+</div>",,html-keyboard-response,180,1838496,0.0-15.0-0.13,44619,List1B,black,man,,,,null,,,,
null,"<img src=""stim_listB/dance5.gif""</stim_listB>",,html-keyboard-response,181,1840501,0.0-15.0-1.13,44619,List1B,black,man,,,,null,,,,
null,is dancing with,,html-keyboard-response,182,1842507,0.0-15.0-2.13,44619,List1B,black,man,,,,null,,,,
14816,,,survey-text,183,1857325,0.0-15.0-3.13,44619,List1B,black,man,,,,,"{""Q0"":""dave is dancing with fred""}","<img src=""stim_listB/dance5.gif""</stim_listB>",is dancing with,
null,"<div style=""font-size:60px;"">+</div>",,html-keyboard-response,184,1857838,0.0-15.0-0.14,44619,List1B,black,man,,,,null,,,,
null,"<img src=""stim_listB/argue4.gif""</stim_listB>",,html-keyboard-response,185,1859844,0.0-15.0-1.14,44619,List1B,black,man,,,,null,,,,
null,are arguing with each other,,html-keyboard-response,186,1861850,0.0-15.0-2.14,44619,List1B,black,man,,,,null,,,,
11373,,,survey-text,187,1873225,0.0-15.0-3.14,44619,List1B,black,man,,,,,"{""Q0"":""luke and jane are arguing with each other""}","<img src=""stim_listB/argue4.gif""</stim_listB>",are arguing with each other,
null,"<div style=""font-size:60px;"">+</div>",,html-keyboard-response,188,1873743,0.0-15.0-0.15,44619,List1B,black,man,,,,null,,,,
null,"<img src=""stim_listB/shout2.gif""</stim_listB>",,html-keyboard-response,189,1875748,0.0-15.0-1.15,44619,List1B,black,man,,,,null,,,,
null,are shouting at each other,,html-keyboard-response,190,1877753,0.0-15.0-2.15,44619,List1B,black,man,,,,null,,,,
12328,,,survey-text,191,1890083,0.0-15.0-3.15,44619,List1B,black,man,,,,,"{""Q0"":""mike and kate are shouting at each other""}","<img src=""stim_listB/shout2.gif""</stim_listB>",are shouting at each other,
null,"<div style=""font-size:60px;"">+</div>",,html-keyboard-response,192,1890595,0.0-15.0-0.16,44619,List1B,black,man,,,,null,,,,
null,"<img src=""stim_listB/kiss1.gif""</stim_listB>",,html-keyboard-response,193,1892614,0.0-15.0-1.16,44619,List1B,black,man,,,,null,,,,
null,is kissing,,html-keyboard-response,194,1894615,0.0-15.0-2.16,44619,List1B,black,man,,,,null,,,,
13871,,,survey-text,195,1908489,0.0-15.0-3.16,44619,List1B,black,man,,,,,"{""Q0"":""fred and beth are kissing each other""}","<img src=""stim_listB/kiss1.gif""</stim_listB>",is kissing,
null,"<div style=""font-size:60px;"">+</div>",,html-keyboard-response,196,1908991,0.0-15.0-0.17,44619,List1B,black,man,,,,null,,,,
null,"<img src=""stim_listB/hug2.gif""</stim_listB>",,html-keyboard-response,197,1910995,0.0-15.0-1.17,44619,List1B,black,man,,,,null,,,,
null,are hugging each other,,html-keyboard-response,198,1912999,0.0-15.0-2.17,44619,List1B,black,man,,,,null,,,,
12126,,,survey-text,199,1925127,0.0-15.0-3.17,44619,List1B,black,man,,,,,"{""Q0"":""kate and mike are hugging each other""}","<img src=""stim_listB/hug2.gif""</stim_listB>",are hugging each other,
null,"<div style=""font-size:60px;"">+</div>",,html-keyboard-response,200,1925649,0.0-15.0-0.18,44619,List1B,black,man,,,,null,,,,
null,"<img src=""stim_listB/dance3.gif""</stim_listB>",,html-keyboard-response,201,1927652,0.0-15.0-1.18,44619,List1B,black,man,,,,null,,,,
null,is dancing with,,html-keyboard-response,202,1929668,0.0-15.0-2.18,44619,List1B,black,man,,,,null,,,,
16573,,,survey-text,203,1946244,0.0-15.0-3.18,44619,List1B,black,man,,,,,"{""Q0"":""Luke is dancing with Jane""}","<img src=""stim_listB/dance3.gif""</stim_listB>",is dancing with,
null,"<div style=""font-size:60px;"">+</div>",,html-keyboard-response,204,1946748,0.0-15.0-0.19,44619,List1B,black,man,,,,null,,,,
null,"<img src=""stim_listB/talk6.gif""</stim_listB>",,html-keyboard-response,205,1948753,0.0-15.0-1.19,44619,List1B,black,man,,,,null,,,,
null,are talking to each other,,html-keyboard-response,206,1950758,0.0-15.0-2.19,44619,List1B,black,man,,,,null,,,,
11165,,,survey-text,207,1961926,0.0-15.0-3.19,44619,List1B,black,man,,,,,"{""Q0"":""Mike and Luke are talking to each other""}","<img src=""stim_listB/talk6.gif""</stim_listB>",are talking to each other,
9469,"<img src='img/portrait_matrix_list1.JPG' style='width:900px;height:500px;''></img><p>If you have memorised all the portraits and names and are ready to start, press Continue.</p><p><strong>Please note: Your memory of these faces will be tested 4 times during this experiment.</strong></p>",0,html-button-response,208,1971399,0.0-16.0-0.0,44619,List1B,black,man,,,,,,,,
2124,"<img src=""portrait/BM2.jpg""style=""width:400px;height:400px;""></img>",5,html-button-response,209,1974534,0.0-16.0-1.0,44619,List1B,black,man,,TRUE,5,,,,,
null,CORRECT,,html-keyboard-response,210,1976044,0.0-16.0-2.0-0.0,44619,List1B,black,man,,,,null,,,,
1317,"<img src=""portrait/BW2.jpg""style=""width:400px;height:400px;""></img>",2,html-button-response,211,1977364,0.0-16.0-4.0,44619,List1B,black,man,,TRUE,2,,,,,
null,CORRECT,,html-keyboard-response,212,1978893,0.0-16.0-5.0-0.0,44619,List1B,black,man,,,,null,,,,
1534,"<img src=""portrait/BM1.jpg""style=""width:400px;height:400px;""></img>",4,html-button-response,213,1980430,0.0-16.0-7.0,44619,List1B,black,man,,TRUE,4,,,,,
null,CORRECT,,html-keyboard-response,214,1981946,0.0-16.0-8.0-0.0,44619,List1B,black,man,,,,null,,,,
3279,"<img src=""portrait/WM2.jpg""style=""width:400px;height:400px;""></img>",7,html-button-response,215,1985228,0.0-16.0-10.0,44619,List1B,black,man,,TRUE,7,,,,,
null,CORRECT,,html-keyboard-response,216,1986747,0.0-16.0-11.0-0.0,44619,List1B,black,man,,,,null,,,,
1341,"<img src=""portrait/WM1.jpg""style=""width:400px;height:400px;""></img>",6,html-button-response,217,1988092,0.0-16.0-13.0,44619,List1B,black,man,,TRUE,6,,,,,
null,CORRECT,,html-keyboard-response,218,1989596,0.0-16.0-14.0-0.0,44619,List1B,black,man,,,,null,,,,
2448,"<img src=""portrait/WW1.jpg""style=""width:400px;height:400px;""></img>",1,html-button-response,219,1992046,0.0-16.0-16.0,44619,List1B,black,man,,TRUE,1,,,,,
null,CORRECT,,html-keyboard-response,220,1993552,0.0-16.0-17.0-0.0,44619,List1B,black,man,,,,null,,,,
1868,"<img src=""portrait/BW1.jpg""style=""width:400px;height:400px;""></img>",0,html-button-response,221,1995422,0.0-16.0-19.0,44619,List1B,black,man,,TRUE,0,,,,,
null,CORRECT,,html-keyboard-response,222,1996935,0.0-16.0-20.0-0.0,44619,List1B,black,man,,,,null,,,,
576,"<img src=""portrait/WW2.jpg""style=""width:400px;height:400px;""></img>",3,html-button-response,223,1997514,0.0-16.0-22.0,44619,List1B,black,man,,TRUE,3,,,,,
null,CORRECT,,html-keyboard-response,224,1999027,0.0-16.0-23.0-0.0,44619,List1B,black,man,,,,null,,,,
972,<p>You got 8 out of 8 right first time. Press Continue.</p>,0,html-button-response,225,2000001,0.0-16.0-25.0,44619,List1B,black,man,,,,,,,,
null,"<div style=""font-size:60px;"">+</div>",,html-keyboard-response,226,2001526,0.0-17.0-0.0,44619,List1B,black,man,,,,null,,,,
null,"<img src=""stim_listB/fight7.gif""</stim_listB>",,html-keyboard-response,227,2003539,0.0-17.0-1.0,44619,List1B,black,man,,,,null,,,,
null,is fighting,,html-keyboard-response,228,2005541,0.0-17.0-2.0,44619,List1B,black,man,,,,null,,,,
17654,,,survey-text,229,2023196,0.0-17.0-3.0,44619,List1B,black,man,,,,,"{""Q0"":""Kate is fighting Jane""}","<img src=""stim_listB/fight7.gif""</stim_listB>",is fighting,
null,"<div style=""font-size:60px;"">+</div>",,html-keyboard-response,230,2023699,0.0-17.0-0.1,44619,List1B,black,man,,,,null,,,,
null,"<img src=""stim_listB/argue2.gif""</stim_listB>",,html-keyboard-response,231,2025712,0.0-17.0-1.1,44619,List1B,black,man,,,,null,,,,
null,are arguing with each other,,html-keyboard-response,232,2027724,0.0-17.0-2.1,44619,List1B,black,man,,,,null,,,,
21033,,,survey-text,233,2048758,0.0-17.0-3.1,44619,List1B,black,man,,,,,"{""Q0"":""Kate and Fred are arguing with each other""}","<img src=""stim_listB/argue2.gif""</stim_listB>",are arguing with each other,
null,"<div style=""font-size:60px;"">+</div>",,html-keyboard-response,234,2049273,0.0-17.0-0.2,44619,List1B,black,man,,,,null,,,,
null,"<img src=""stim_listB/touch4.gif""</stim_listB>",,html-keyboard-response,235,2051288,0.0-17.0-1.2,44619,List1B,black,man,,,,null,,,,
null,are touching each other,,html-keyboard-response,236,2053300,0.0-17.0-2.2,44619,List1B,black,man,,,,null,,,,
17819,,,survey-text,237,2071121,0.0-17.0-3.2,44619,List1B,black,man,,,,,"{""Q0"":""Ruth and Luke are touching each other""}","<img src=""stim_listB/touch4.gif""</stim_listB>",are touching each other,
null,"<div style=""font-size:60px;"">+</div>",,html-keyboard-response,238,2071631,0.0-17.0-0.3,44619,List1B,black,man,,,,null,,,,
null,"<img src=""stim_listB/talk4.gif""</stim_listB>",,html-keyboard-response,239,2073639,0.0-17.0-1.3,44619,List1B,black,man,,,,null,,,,
null,are talking to each other,,html-keyboard-response,240,2075643,0.0-17.0-2.3,44619,List1B,black,man,,,,null,,,,
16433,,,survey-text,241,2092078,0.0-17.0-3.3,44619,List1B,black,man,,,,,"{""Q0"":""Dave and Ruth are talking to each other""}","<img src=""stim_listB/talk4.gif""</stim_listB>",are talking to each other,
null,"<div style=""font-size:60px;"">+</div>",,html-keyboard-response,242,2092580,0.0-17.0-0.4,44619,List1B,black,man,,,,null,,,,
null,"<img src=""stim_listB/fight6.gif""</stim_listB>",,html-keyboard-response,243,2094595,0.0-17.0-1.4,44619,List1B,black,man,,,,null,,,,
null,are fighting each other,,html-keyboard-response,244,2096596,0.0-17.0-2.4,44619,List1B,black,man,,,,null,,,,
9690,,,survey-text,245,2106288,0.0-17.0-3.4,44619,List1B,black,man,,,,,"{""Q0"":""Fred and Luke are fighting each other""}","<img src=""stim_listB/fight6.gif""</stim_listB>",are fighting each other,
null,"<div style=""font-size:60px;"">+</div>",,html-keyboard-response,246,2106791,0.0-17.0-0.5,44619,List1B,black,man,,,,null,,,,
null,"<img src=""stim_listB/talk8.gif""</stim_listB>",,html-keyboard-response,247,2108799,0.0-17.0-1.5,44619,List1B,black,man,,,,null,,,,
null,are talking to each other,,html-keyboard-response,248,2110802,0.0-17.0-2.5,44619,List1B,black,man,,,,null,,,,
14760,,,survey-text,249,2125564,0.0-17.0-3.5,44619,List1B,black,man,,,,,"{""Q0"":""Kate and Ruth are talking to each other""}","<img src=""stim_listB/talk8.gif""</stim_listB>",are talking to each other,
null,"<div style=""font-size:60px;"">+</div>",,html-keyboard-response,250,2126075,0.0-17.0-0.6,44619,List1B,black,man,,,,null,,,,
null,"<img src=""stim_listB/shout1.gif""</stim_listB>",,html-keyboard-response,251,2128083,0.0-17.0-1.6,44619,List1B,black,man,,,,null,,,,
null,is shouting at,,html-keyboard-response,252,2130084,0.0-17.0-2.6,44619,List1B,black,man,,,,null,,,,
12137,,,survey-text,253,2142222,0.0-17.0-3.6,44619,List1B,black,man,,,,,"{""Q0"":""Fred is shouting at Beth""}","<img src=""stim_listB/shout1.gif""</stim_listB>",is shouting at,
null,"<div style=""font-size:60px;"">+</div>",,html-keyboard-response,254,2142729,0.0-17.0-0.7,44619,List1B,black,man,,,,null,,,,
null,"<img src=""stim_listB/meet8.gif""</stim_listB>",,html-keyboard-response,255,2144736,0.0-17.0-1.7,44619,List1B,black,man,,,,null,,,,
null,are meeting each other,,html-keyboard-response,256,2146753,0.0-17.0-2.7,44619,List1B,black,man,,,,null,,,,
19674,,,survey-text,257,2166429,0.0-17.0-3.7,44619,List1B,black,man,,,,,"{""Q0"":""Ruth and Beth are meeting each other""}","<img src=""stim_listB/meet8.gif""</stim_listB>",are meeting each other,
null,"<div style=""font-size:60px;"">+</div>",,html-keyboard-response,258,2166935,0.0-17.0-0.8,44619,List1B,black,man,,,,null,,,,
null,"<img src=""stim_listB/shout7.gif""</stim_listB>",,html-keyboard-response,259,2168944,0.0-17.0-1.8,44619,List1B,black,man,,,,null,,,,
null,is shouting at,,html-keyboard-response,260,2170946,0.0-17.0-2.8,44619,List1B,black,man,,,,null,,,,
10163,,,survey-text,261,2181111,0.0-17.0-3.8,44619,List1B,black,man,,,,,"{""Q0"":""Ruth is shouting at Beth""}","<img src=""stim_listB/shout7.gif""</stim_listB>",is shouting at,
null,"<div style=""font-size:60px;"">+</div>",,html-keyboard-response,262,2181613,0.0-17.0-0.9,44619,List1B,black,man,,,,null,,,,
null,"<img src=""stim_listB/marry5.gif""</stim_listB>",,html-keyboard-response,263,2183625,0.0-17.0-1.9,44619,List1B,black,man,,,,null,,,,
null,is marrying,,html-keyboard-response,264,2185638,0.0-17.0-2.9,44619,List1B,black,man,,,,null,,,,
12471,,,survey-text,265,2198110,0.0-17.0-3.9,44619,List1B,black,man,,,,,"{""Q0"":""Luke is marrying Mike""}","<img src=""stim_listB/marry5.gif""</stim_listB>",is marrying,
null,"<div style=""font-size:60px;"">+</div>",,html-keyboard-response,266,2198613,0.0-17.0-0.10,44619,List1B,black,man,,,,null,,,,
null,"<img src=""stim_listB/touch6.gif""</stim_listB>",,html-keyboard-response,267,2200615,0.0-17.0-1.10,44619,List1B,black,man,,,,null,,,,
null,are touching each other,,html-keyboard-response,268,2202616,0.0-17.0-2.10,44619,List1B,black,man,,,,null,,,,
11327,,,survey-text,269,2213945,0.0-17.0-3.10,44619,List1B,black,man,,,,,"{""Q0"":""Luke and Fred are touching each other""}","<img src=""stim_listB/touch6.gif""</stim_listB>",are touching each other,
null,"<div style=""font-size:60px;"">+</div>",,html-keyboard-response,270,2214454,0.0-17.0-0.11,44619,List1B,black,man,,,,null,,,,
null,"<img src=""stim_listB/kiss3.gif""</stim_listB>",,html-keyboard-response,271,2216465,0.0-17.0-1.11,44619,List1B,black,man,,,,null,,,,
null,is kissing,,html-keyboard-response,272,2218467,0.0-17.0-2.11,44619,List1B,black,man,,,,null,,,,
7516,,,survey-text,273,2225986,0.0-17.0-3.11,44619,List1B,black,man,,,,,"{""Q0"":""Ruth is kissing Luke""}","<img src=""stim_listB/kiss3.gif""</stim_listB>",is kissing,
null,"<div style=""font-size:60px;"">+</div>",,html-keyboard-response,274,2226487,0.0-17.0-0.12,44619,List1B,black,man,,,,null,,,,
null,"<img src=""stim_listB/talk7.gif""</stim_listB>",,html-keyboard-response,275,2228500,0.0-17.0-1.12,44619,List1B,black,man,,,,null,,,,
null,is talking to,,html-keyboard-response,276,2230512,0.0-17.0-2.12,44619,List1B,black,man,,,,null,,,,
6985,,,survey-text,277,2237499,0.0-17.0-3.12,44619,List1B,black,man,,,,,"{""Q0"":""Jane is talking to Beth""}","<img src=""stim_listB/talk7.gif""</stim_listB>",is talking to,
null,"<div style=""font-size:60px;"">+</div>",,html-keyboard-response,278,2238007,0.0-17.0-0.13,44619,List1B,black,man,,,,null,,,,
null,"<img src=""stim_listB/hug1.gif""</stim_listB>",,html-keyboard-response,279,2240014,0.0-17.0-1.13,44619,List1B,black,man,,,,null,,,,
null,is hugging,,html-keyboard-response,280,2242024,0.0-17.0-2.13,44619,List1B,black,man,,,,null,,,,
8796,,,survey-text,281,2250822,0.0-17.0-3.13,44619,List1B,black,man,,,,,"{""Q0"":""Fred is hugging Beth""}","<img src=""stim_listB/hug1.gif""</stim_listB>",is hugging,
null,"<div style=""font-size:60px;"">+</div>",,html-keyboard-response,282,2251326,0.0-17.0-0.14,44619,List1B,black,man,,,,null,,,,
null,"<img src=""stim_listB/shout6.gif""</stim_listB>",,html-keyboard-response,283,2253340,0.0-17.0-1.14,44619,List1B,black,man,,,,null,,,,
null,are shouting at each other,,html-keyboard-response,284,2255341,0.0-17.0-2.14,44619,List1B,black,man,,,,null,,,,
11024,,,survey-text,285,2266367,0.0-17.0-3.14,44619,List1B,black,man,,,,,"{""Q0"":""Mike and Dave are shouting at each other""}","<img src=""stim_listB/shout6.gif""</stim_listB>",are shouting at each other,
null,"<div style=""font-size:60px;"">+</div>",,html-keyboard-response,286,2266879,0.0-17.0-0.15,44619,List1B,black,man,,,,null,,,,
null,"<img src=""stim_listB/kiss7.gif""</stim_listB>",,html-keyboard-response,287,2268888,0.0-17.0-1.15,44619,List1B,black,man,,,,null,,,,
null,is kissing,,html-keyboard-response,288,2270905,0.0-17.0-2.15,44619,List1B,black,man,,,,null,,,,
7568,,,survey-text,289,2278475,0.0-17.0-3.15,44619,List1B,black,man,,,,,"{""Q0"":""Ruth is kissing Beth""}","<img src=""stim_listB/kiss7.gif""</stim_listB>",is kissing,
null,"<div style=""font-size:60px;"">+</div>",,html-keyboard-response,290,2278979,0.0-17.0-0.16,44619,List1B,black,man,,,,null,,,,
null,"<img src=""stim_listB/argue7.gif""</stim_listB>",,html-keyboard-response,291,2280993,0.0-17.0-1.16,44619,List1B,black,man,,,,null,,,,
null,is arguing with,,html-keyboard-response,292,2283004,0.0-17.0-2.16,44619,List1B,black,man,,,,null,,,,
9556,,,survey-text,293,2292561,0.0-17.0-3.16,44619,List1B,black,man,,,,,"{""Q0"":""Ruth is arguing with Kate""}","<img src=""stim_listB/argue7.gif""</stim_listB>",is arguing with,
null,"<div style=""font-size:60px;"">+</div>",,html-keyboard-response,294,2293068,0.0-17.0-0.17,44619,List1B,black,man,,,,null,,,,
null,"<img src=""stim_listB/fight4.gif""</stim_listB>",,html-keyboard-response,295,2295092,0.0-17.0-1.17,44619,List1B,black,man,,,,null,,,,
null,are fighting each other,,html-keyboard-response,296,2297099,0.0-17.0-2.17,44619,List1B,black,man,,,,null,,,,
20085,,,survey-text,297,2317186,0.0-17.0-3.17,44619,List1B,black,man,,,,,"{""Q0"":""Ruth and Luke fighting each other""}","<img src=""stim_listB/fight4.gif""</stim_listB>",are fighting each other,
null,"<div style=""font-size:60px;"">+</div>",,html-keyboard-response,298,2317690,0.0-17.0-0.18,44619,List1B,black,man,,,,null,,,,
null,"<img src=""stim_listB/touch7.gif""</stim_listB>",,html-keyboard-response,299,2319700,0.0-17.0-1.18,44619,List1B,black,man,,,,null,,,,
null,is touching,,html-keyboard-response,300,2321709,0.0-17.0-2.18,44619,List1B,black,man,,,,null,,,,
7462,,,survey-text,301,2329173,0.0-17.0-3.18,44619,List1B,black,man,,,,,"{""Q0"":""Kate is touching Jane""}","<img src=""stim_listB/touch7.gif""</stim_listB>",is touching,
null,"<div style=""font-size:60px;"">+</div>",,html-keyboard-response,302,2329675,0.0-17.0-0.19,44619,List1B,black,man,,,,null,,,,
null,"<img src=""stim_listB/meet4.gif""</stim_listB>",,html-keyboard-response,303,2331684,0.0-17.0-1.19,44619,List1B,black,man,,,,null,,,,
null,are meeting each other,,html-keyboard-response,304,2333686,0.0-17.0-2.19,44619,List1B,black,man,,,,null,,,,
13201,,,survey-text,305,2346889,0.0-17.0-3.19,44619,List1B,black,man,,,,,"{""Q0"":""Ruth and Luke are meeting each other""}","<img src=""stim_listB/meet4.gif""</stim_listB>",are meeting each other,
1747,"<img src='img/portrait_matrix_list1.JPG' style='width:900px;height:500px;''></img><p>If you have memorised all the portraits and names and are ready to start, press Continue.</p><p><strong>Please note: Your memory of these faces will be tested 4 times during this experiment.</strong></p>",0,html-button-response,306,2348638,0.0-18.0-0.0,44619,List1B,black,man,,,,,,,,
1560,"<img src=""portrait/BM2.jpg""style=""width:400px;height:400px;""></img>",5,html-button-response,307,2351213,0.0-18.0-1.0,44619,List1B,black,man,,TRUE,5,,,,,
null,CORRECT,,html-keyboard-response,308,2352730,0.0-18.0-2.0-0.0,44619,List1B,black,man,,,,null,,,,
1718,"<img src=""portrait/WM2.jpg""style=""width:400px;height:400px;""></img>",7,html-button-response,309,2354451,0.0-18.0-4.0,44619,List1B,black,man,,TRUE,7,,,,,
null,CORRECT,,html-keyboard-response,310,2355961,0.0-18.0-5.0-0.0,44619,List1B,black,man,,,,null,,,,
1155,"<img src=""portrait/WW1.jpg""style=""width:400px;height:400px;""></img>",1,html-button-response,311,2357118,0.0-18.0-7.0,44619,List1B,black,man,,TRUE,1,,,,,
null,CORRECT,,html-keyboard-response,312,2358620,0.0-18.0-8.0-0.0,44619,List1B,black,man,,,,null,,,,
679,"<img src=""portrait/WW2.jpg""style=""width:400px;height:400px;""></img>",3,html-button-response,313,2359302,0.0-18.0-10.0,44619,List1B,black,man,,TRUE,3,,,,,
null,CORRECT,,html-keyboard-response,314,2360810,0.0-18.0-11.0-0.0,44619,List1B,black,man,,,,null,,,,
675,"<img src=""portrait/BW1.jpg""style=""width:400px;height:400px;""></img>",0,html-button-response,315,2361488,0.0-18.0-13.0,44619,List1B,black,man,,TRUE,0,,,,,
null,CORRECT,,html-keyboard-response,316,2363003,0.0-18.0-14.0-0.0,44619,List1B,black,man,,,,null,,,,
1265,"<img src=""portrait/BM1.jpg""style=""width:400px;height:400px;""></img>",4,html-button-response,317,2364273,0.0-18.0-16.0,44619,List1B,black,man,,TRUE,4,,,,,
null,CORRECT,,html-keyboard-response,318,2365801,0.0-18.0-17.0-0.0,44619,List1B,black,man,,,,null,,,,
1034,"<img src=""portrait/BW2.jpg""style=""width:400px;height:400px;""></img>",2,html-button-response,319,2366838,0.0-18.0-19.0,44619,List1B,black,man,,TRUE,2,,,,,
null,CORRECT,,html-keyboard-response,320,2368355,0.0-18.0-20.0-0.0,44619,List1B,black,man,,,,null,,,,
2019,"<img src=""portrait/WM1.jpg""style=""width:400px;height:400px;""></img>",6,html-button-response,321,2370376,0.0-18.0-22.0,44619,List1B,black,man,,TRUE,6,,,,,
null,CORRECT,,html-keyboard-response,322,2371904,0.0-18.0-23.0-0.0,44619,List1B,black,man,,,,null,,,,
906,<p>You got 8 out of 8 right first time. Press Continue.</p>,0,html-button-response,323,2372813,0.0-18.0-25.0,44619,List1B,black,man,,,,,,,,
null,"<div style=""font-size:60px;"">+</div>",,html-keyboard-response,324,2374339,0.0-19.0-0.0,44619,List1B,black,man,,,,null,,,,
null,"<img src=""stim_listB/shout3.gif""</stim_listB>",,html-keyboard-response,325,2376348,0.0-19.0-1.0,44619,List1B,black,man,,,,null,,,,
null,is shouting at,,html-keyboard-response,326,2378360,0.0-19.0-2.0,44619,List1B,black,man,,,,null,,,,
7438,,,survey-text,327,2385800,0.0-19.0-3.0,44619,List1B,black,man,,,,,"{""Q0"":""Ruth is shouting at Luke""}","<img src=""stim_listB/shout3.gif""</stim_listB>",is shouting at,
null,"<div style=""font-size:60px;"">+</div>",,html-keyboard-response,328,2386309,0.0-19.0-0.1,44619,List1B,black,man,,,,null,,,,
null,"<img src=""stim_listB/touch1.gif""</stim_listB>",,html-keyboard-response,329,2388312,0.0-19.0-1.1,44619,List1B,black,man,,,,null,,,,
null,is touching,,html-keyboard-response,330,2390316,0.0-19.0-2.1,44619,List1B,black,man,,,,null,,,,
5770,,,survey-text,331,2396088,0.0-19.0-3.1,44619,List1B,black,man,,,,,"{""Q0"":""Kate is touching Mike""}","<img src=""stim_listB/touch1.gif""</stim_listB>",is touching,
null,"<div style=""font-size:60px;"">+</div>",,html-keyboard-response,332,2396594,0.0-19.0-0.2,44619,List1B,black,man,,,,null,,,,
null,"<img src=""stim_listB/touch2.gif""</stim_listB>",,html-keyboard-response,333,2398596,0.0-19.0-1.2,44619,List1B,black,man,,,,null,,,,
null,are touching each other,,html-keyboard-response,334,2400601,0.0-19.0-2.2,44619,List1B,black,man,,,,null,,,,
10433,,,survey-text,335,2411037,0.0-19.0-3.2,44619,List1B,black,man,,,,,"{""Q0"":""Beth and Fred are touching each other""}","<img src=""stim_listB/touch2.gif""</stim_listB>",are touching each other,
null,"<div style=""font-size:60px;"">+</div>",,html-keyboard-response,336,2411548,0.0-19.0-0.3,44619,List1B,black,man,,,,null,,,,
null,"<img src=""stim_listB/marry3.gif""</stim_listB>",,html-keyboard-response,337,2413556,0.0-19.0-1.3,44619,List1B,black,man,,,,null,,,,
null,is marrying,,html-keyboard-response,338,2415570,0.0-19.0-2.3,44619,List1B,black,man,,,,null,,,,
12414,,,survey-text,339,2427987,0.0-19.0-3.3,44619,List1B,black,man,,,,,"{""Q0"":""Dave is marrying Ruth""}","<img src=""stim_listB/marry3.gif""</stim_listB>",is marrying,
null,"<div style=""font-size:60px;"">+</div>",,html-keyboard-response,340,2428496,0.0-19.0-0.4,44619,List1B,black,man,,,,null,,,,
null,"<img src=""stim_listB/kiss6.gif""</stim_listB>",,html-keyboard-response,341,2430505,0.0-19.0-1.4,44619,List1B,black,man,,,,null,,,,
null,are kissing each other,,html-keyboard-response,342,2432508,0.0-19.0-2.4,44619,List1B,black,man,,,,null,,,,
41159,,,survey-text,343,2473669,0.0-19.0-3.4,44619,List1B,black,man,,,,,"{""Q0"":""Dave and Mike are kissing each other""}","<img src=""stim_listB/kiss6.gif""</stim_listB>",are kissing each other,
null,"<div style=""font-size:60px;"">+</div>",,html-keyboard-response,344,2474174,0.0-19.0-0.5,44619,List1B,black,man,,,,null,,,,
null,"<img src=""stim_listB/dance4.gif""</stim_listB>",,html-keyboard-response,345,2476185,0.0-19.0-1.5,44619,List1B,black,man,,,,null,,,,
null,are dancing with each other,,html-keyboard-response,346,2478200,0.0-19.0-2.5,44619,List1B,black,man,,,,null,,,,
53935,,,survey-text,347,2532137,0.0-19.0-3.5,44619,List1B,black,man,,,,,"{""Q0"":""Dave and Ruth are dancing with each other""}","<img src=""stim_listB/dance4.gif""</stim_listB>",are dancing with each other,
null,"<div style=""font-size:60px;"">+</div>",,html-keyboard-response,348,2532654,0.0-19.0-0.6,44619,List1B,black,man,,,,null,,,,
null,"<img src=""stim_listB/marry8.gif""</stim_listB>",,html-keyboard-response,349,2534671,0.0-19.0-1.6,44619,List1B,black,man,,,,null,,,,
null,are marrying each other,,html-keyboard-response,350,2536688,0.0-19.0-2.6,44619,List1B,black,man,,,,null,,,,
17850,,,survey-text,351,2554540,0.0-19.0-3.6,44619,List1B,black,man,,,,,"{""Q0"":""Jane and Beth are marrying each other""}","<img src=""stim_listB/marry8.gif""</stim_listB>",are marrying each other,
null,"<div style=""font-size:60px;"">+</div>",,html-keyboard-response,352,2555042,0.0-19.0-0.7,44619,List1B,black,man,,,,null,,,,
null,"<img src=""stim_listB/kiss4.gif""</stim_listB>",,html-keyboard-response,353,2557046,0.0-19.0-1.7,44619,List1B,black,man,,,,null,,,,
null,are kissing each other,,html-keyboard-response,354,2559055,0.0-19.0-2.7,44619,List1B,black,man,,,,null,,,,
17849,,,survey-text,355,2576905,0.0-19.0-3.7,44619,List1B,black,man,,,,,"{""Q0"":""Jane and Dave are kissing each other""}","<img src=""stim_listB/kiss4.gif""</stim_listB>",are kissing each other,
null,"<div style=""font-size:60px;"">+</div>",,html-keyboard-response,356,2577408,0.0-19.0-0.8,44619,List1B,black,man,,,,null,,,,
null,"<img src=""stim_listB/marry7.gif""</stim_listB>",,html-keyboard-response,357,2579417,0.0-19.0-1.8,44619,List1B,black,man,,,,null,,,,
null,is marrying,,html-keyboard-response,358,2581419,0.0-19.0-2.8,44619,List1B,black,man,,,,null,,,,
8618,,,survey-text,359,2590038,0.0-19.0-3.8,44619,List1B,black,man,,,,,"{""Q0"":""Ruth is marrying Kate""}","<img src=""stim_listB/marry7.gif""</stim_listB>",is marrying,
null,"<div style=""font-size:60px;"">+</div>",,html-keyboard-response,360,2590544,0.0-19.0-0.9,44619,List1B,black,man,,,,null,,,,
null,"<img src=""stim_listB/fight5.gif""</stim_listB>",,html-keyboard-response,361,2592560,0.0-19.0-1.9,44619,List1B,black,man,,,,null,,,,
null,is fighting,,html-keyboard-response,362,2594564,0.0-19.0-2.9,44619,List1B,black,man,,,,null,,,,
8668,,,survey-text,363,2603234,0.0-19.0-3.9,44619,List1B,black,man,,,,,"{""Q0"":""Mike is fighting Dave""}","<img src=""stim_listB/fight5.gif""</stim_listB>",is fighting,
null,"<div style=""font-size:60px;"">+</div>",,html-keyboard-response,364,2603736,0.0-19.0-0.10,44619,List1B,black,man,,,,null,,,,
null,"<img src=""stim_listB/talk3.gif""</stim_listB>",,html-keyboard-response,365,2605747,0.0-19.0-1.10,44619,List1B,black,man,,,,null,,,,
null,is talking to,,html-keyboard-response,366,2607748,0.0-19.0-2.10,44619,List1B,black,man,,,,null,,,,
14429,,,survey-text,367,2622179,0.0-19.0-3.10,44619,List1B,black,man,,,,,"{""Q0"":""Luke is talking to Jane""}","<img src=""stim_listB/talk3.gif""</stim_listB>",is talking to,
null,"<div style=""font-size:60px;"">+</div>",,html-keyboard-response,368,2622684,0.0-19.0-0.11,44619,List1B,black,man,,,,null,,,,
null,"<img src=""stim_listB/dance6.gif""</stim_listB>",,html-keyboard-response,369,2624701,0.0-19.0-1.11,44619,List1B,black,man,,,,null,,,,
null,are dancing with each other,,html-keyboard-response,370,2626712,0.0-19.0-2.11,44619,List1B,black,man,,,,null,,,,
15576,,,survey-text,371,2642291,0.0-19.0-3.11,44619,List1B,black,man,,,,,"{""Q0"":""Luke and Mike are dancing with each other""}","<img src=""stim_listB/dance6.gif""</stim_listB>",are dancing with each other,
null,"<div style=""font-size:60px;"">+</div>",,html-keyboard-response,372,2642795,0.0-19.0-0.12,44619,List1B,black,man,,,,null,,,,
null,"<img src=""stim_listB/kiss5.gif""</stim_listB>",,html-keyboard-response,373,2644797,0.0-19.0-1.12,44619,List1B,black,man,,,,null,,,,
null,is kissing,,html-keyboard-response,374,2646806,0.0-19.0-2.12,44619,List1B,black,man,,,,null,,,,
8313,,,survey-text,375,2655121,0.0-19.0-3.12,44619,List1B,black,man,,,,,"{""Q0"":""Fred is kissing Luke""}","<img src=""stim_listB/kiss5.gif""</stim_listB>",is kissing,
null,"<div style=""font-size:60px;"">+</div>",,html-keyboard-response,376,2655630,0.0-19.0-0.13,44619,List1B,black,man,,,,null,,,,
null,"<img src=""stim_listB/touch8.gif""</stim_listB>",,html-keyboard-response,377,2657644,0.0-19.0-1.13,44619,List1B,black,man,,,,null,,,,
null,are touching each other,,html-keyboard-response,378,2659646,0.0-19.0-2.13,44619,List1B,black,man,,,,null,,,,
11246,,,survey-text,379,2670894,0.0-19.0-3.13,44619,List1B,black,man,,,,,"{""Q0"":""Beth and Ruth are touching each other""}","<img src=""stim_listB/touch8.gif""</stim_listB>",are touching each other,
null,"<div style=""font-size:60px;"">+</div>",,html-keyboard-response,380,2671403,0.0-19.0-0.14,44619,List1B,black,man,,,,null,,,,
null,"<img src=""stim_listB/argue1.gif""</stim_listB>",,html-keyboard-response,381,2673412,0.0-19.0-1.14,44619,List1B,black,man,,,,null,,,,
null,is arguing with,,html-keyboard-response,382,2675415,0.0-19.0-2.14,44619,List1B,black,man,,,,null,,,,
8570,,,survey-text,383,2683987,0.0-19.0-3.14,44619,List1B,black,man,,,,,"{""Q0"":""Beth is arguing with Mike""}","<img src=""stim_listB/argue1.gif""</stim_listB>",is arguing with,
null,"<div style=""font-size:60px;"">+</div>",,html-keyboard-response,384,2684491,0.0-19.0-0.15,44619,List1B,black,man,,,,null,,,,
null,"<img src=""stim_listB/touch5.gif""</stim_listB>",,html-keyboard-response,385,2686502,0.0-19.0-1.15,44619,List1B,black,man,,,,null,,,,
null,is touching,,html-keyboard-response,386,2688514,0.0-19.0-2.15,44619,List1B,black,man,,,,null,,,,
9207,,,survey-text,387,2697725,0.0-19.0-3.15,44619,List1B,black,man,,,,,"{""Q0"":""Dave is touching Mike""}","<img src=""stim_listB/touch5.gif""</stim_listB>",is touching,
null,"<div style=""font-size:60px;"">+</div>",,html-keyboard-response,388,2698242,0.0-19.0-0.16,44619,List1B,black,man,,,,null,,,,
null,"<img src=""stim_listB/hug7.gif""</stim_listB>",,html-keyboard-response,389,2700252,0.0-19.0-1.16,44619,List1B,black,man,,,,null,,,,
null,is hugging,,html-keyboard-response,390,2702265,0.0-19.0-2.16,44619,List1B,black,man,,,,null,,,,
6166,,,survey-text,391,2708433,0.0-19.0-3.16,44619,List1B,black,man,,,,,"{""Q0"":""Ruth is hugging Beth""}","<img src=""stim_listB/hug7.gif""</stim_listB>",is hugging,
null,"<div style=""font-size:60px;"">+</div>",,html-keyboard-response,392,2708944,0.0-19.0-0.17,44619,List1B,black,man,,,,null,,,,
null,"<img src=""stim_listB/fight8.gif""</stim_listB>",,html-keyboard-response,393,2710954,0.0-19.0-1.17,44619,List1B,black,man,,,,null,,,,
null,are fighting each other,,html-keyboard-response,394,2712959,0.0-19.0-2.17,44619,List1B,black,man,,,,null,,,,
101889,,,survey-text,395,2814850,0.0-19.0-3.17,44619,List1B,black,man,,,,,"{""Q0"":""Ruth and Beth are fighting each other""}","<img src=""stim_listB/fight8.gif""</stim_listB>",are fighting each other,
null,"<div style=""font-size:60px;"">+</div>",,html-keyboard-response,396,2815360,0.0-19.0-0.18,44619,List1B,black,man,,,,null,,,,
null,"<img src=""stim_listB/argue3.gif""</stim_listB>",,html-keyboard-response,397,2817375,0.0-19.0-1.18,44619,List1B,black,man,,,,null,,,,
null,is arguing with,,html-keyboard-response,398,2819389,0.0-19.0-2.18,44619,List1B,black,man,,,,null,,,,
8510,,,survey-text,399,2827901,0.0-19.0-3.18,44619,List1B,black,man,,,,,"{""Q0"":""Ruth is arguing with Dave""}","<img src=""stim_listB/argue3.gif""</stim_listB>",is arguing with,
null,"<div style=""font-size:60px;"">+</div>",,html-keyboard-response,400,2828403,0.0-19.0-0.19,44619,List1B,black,man,,,,null,,,,
null,"<img src=""stim_listB/hug8.gif""</stim_listB>",,html-keyboard-response,401,2830422,0.0-19.0-1.19,44619,List1B,black,man,,,,null,,,,
null,are hugging each other,,html-keyboard-response,402,2832432,0.0-19.0-2.19,44619,List1B,black,man,,,,null,,,,
10761,,,survey-text,403,2843197,0.0-19.0-3.19,44619,List1B,black,man,,,,,"{""Q0"":""Kate and Jane are hugging each other""}","<img src=""stim_listB/hug8.gif""</stim_listB>",are hugging each other,
2090,<p>Thank you for completing that task.</p><p>The final part of this session is a short questionnaire.</p><p>Press Continue.</p>,0,html-button-response,404,2845289,0.0-20.0,44619,List1B,black,man,,,,,,,,
31562,,,survey-text,405,2877865,0.0-21.0,44619,List1B,black,man,,,,,"{""Q0"":""22"",""Q1"":""English"",""Q2"":""English"",""Q3"":""England"",""Q4"":""Black-British"",""Q5"":""Male""}",,,demographics
63215,,,survey-likert,406,2941095,0.0-22.0,44619,List1B,black,man,,,,,"{""Q0"":5,""Q1"":5,""Q2"":4,""Q3"":5,""Q4"":5,""Q5"":5,""Q6"":5,""Q7"":5,""Q8"":5,""Q9"":5,""Q10"":5,""Q11"":5,""Q12"":2,""Q13"":2}",,,likert_race
71994,,,survey-likert,407,3013103,0.0-23.0,44619,List1B,black,man,,,,,"{""Q0"":4,""Q1"":4,""Q2"":5,""Q3"":5,""Q4"":5,""Q5"":"""",""Q6"":4,""Q7"":1,""Q8"":1,""Q9"":4,""Q10"":4,""Q11"":4,""Q12"":4,""Q13"":2}",,,likert_gender
13408,,,survey-text,408,3026514,0.0-24.0,44619,List1B,black,man,,,,,"{""Q0"":""ccc""}",,,worker_id
10765,,,external-html,409,3037407,0.0-25.0,44619,List1B,black,man,debrief.html,,,,,,,
