rt,stimulus,button_pressed,trial_type,trial_index,time_elapsed,internal_node_id,subject,list,ppt_race,ppt_gender,url,first_guess,correct,key_press,responses,image_type,phrase_type,test_part
4238,Welcome to the experiment. Press Continue to begin.,0,html-button-response,0,4241,0.0-0.0,45727,List1A,white,woman,,,,,,,,
22135,,,external-html,1,27441,0.0-1.0,45727,List1A,white,woman,consent.html,,,,,,,
7119,"<p>On the next page, you will see portraits of 8 people and their names.</p><p>Your first task is to take a few minutes to memorise the names of these people.</p><p>You will have to recall their names during the rest of the experiment, so it is</p><p>essential that you try to memorise these people and their names as best as you can.</p><br><p><strong>You will then be tested on your memory of these names and portraits.</strong></p><br><p>The experiment will start after you have completed this memory test.</p><br><p>Ready?</p>",0,html-button-response,2,34560,0.0-2.0,45727,List1A,white,woman,,,,,,,,
23014,"<img src='img/portrait_matrix_list1.JPG' style='width:900px;height:500px;''></img><p>If you have memorised all the portraits and names and are ready to start, press Continue.</p><p><strong>Please note: Your memory of these faces will be tested 4 times during this experiment.</strong></p>",0,html-button-response,3,58584,0.0-3.0-0.0,45727,List1A,white,woman,,,,,,,,
5228,"<img src=""portrait/WW2.jpg""style=""width:400px;height:400px;""></img>",3,html-button-response,4,64815,0.0-3.0-1.0,45727,List1A,white,woman,,TRUE,3,,,,,
null,CORRECT,,html-keyboard-response,5,66321,0.0-3.0-2.0-0.0,45727,List1A,white,woman,,,,null,,,,
4603,"<img src=""portrait/BM2.jpg""style=""width:400px;height:400px;""></img>",5,html-button-response,6,70927,0.0-3.0-4.0,45727,List1A,white,woman,,TRUE,5,,,,,
null,CORRECT,,html-keyboard-response,7,72430,0.0-3.0-5.0-0.0,45727,List1A,white,woman,,,,null,,,,
5742,"<img src=""portrait/WM1.jpg""style=""width:400px;height:400px;""></img>",6,html-button-response,8,78175,0.0-3.0-7.0,45727,List1A,white,woman,,TRUE,6,,,,,
null,CORRECT,,html-keyboard-response,9,79678,0.0-3.0-8.0-0.0,45727,List1A,white,woman,,,,null,,,,
2782,"<img src=""portrait/BW2.jpg""style=""width:400px;height:400px;""></img>",0,html-button-response,10,82463,0.0-3.0-10.0,45727,List1A,white,woman,,TRUE,2,,,,,
2998,"<img src=""portrait/BW2.jpg""style=""width:400px;height:400px;""></img>",2,html-button-response,11,86479,0.0-3.0-12.0-0.0,45727,List1A,white,woman,,FALSE,2,,,,,
null,CORRECT,,html-keyboard-response,12,87982,0.0-3.0-12.0-1.0-0.0,45727,List1A,white,woman,,,,null,,,,
2758,"<img src=""portrait/WM2.jpg""style=""width:400px;height:400px;""></img>",7,html-button-response,13,90743,0.0-3.0-13.0,45727,List1A,white,woman,,TRUE,7,,,,,
null,CORRECT,,html-keyboard-response,14,92261,0.0-3.0-14.0-0.0,45727,List1A,white,woman,,,,null,,,,
3985,"<img src=""portrait/WW1.jpg""style=""width:400px;height:400px;""></img>",1,html-button-response,15,96247,0.0-3.0-16.0,45727,List1A,white,woman,,TRUE,1,,,,,
null,CORRECT,,html-keyboard-response,16,97756,0.0-3.0-17.0-0.0,45727,List1A,white,woman,,,,null,,,,
1833,"<img src=""portrait/BW1.jpg""style=""width:400px;height:400px;""></img>",0,html-button-response,17,99591,0.0-3.0-19.0,45727,List1A,white,woman,,TRUE,0,,,,,
null,CORRECT,,html-keyboard-response,18,101103,0.0-3.0-20.0-0.0,45727,List1A,white,woman,,,,null,,,,
2973,"<img src=""portrait/BM1.jpg""style=""width:400px;height:400px;""></img>",4,html-button-response,19,104079,0.0-3.0-22.0,45727,List1A,white,woman,,TRUE,4,,,,,
null,CORRECT,,html-keyboard-response,20,105591,0.0-3.0-23.0-0.0,45727,List1A,white,woman,,,,null,,,,
1380,<p>You got 7 out of 8 right first time. Press Continue.</p>,0,html-button-response,21,106975,0.0-3.0-25.0,45727,List1A,white,woman,,,,,,,,
2606,"As you did not score 100%, the memory game will repeat. Press Continue.",0,html-button-response,22,110582,0.0-3.0-26.0-0.0,45727,List1A,white,woman,,,,,,,,
5914,"<img src='img/portrait_matrix_list1.JPG' style='width:900px;height:500px;''></img><p>If you have memorised all the portraits and names and are ready to start, press Continue.</p><p><strong>Please note: Your memory of these faces will be tested 4 times during this experiment.</strong></p>",0,html-button-response,23,117511,0.0-3.1-0.1,45727,List1A,white,woman,,,,,,,,
1800,"<img src=""portrait/WW2.jpg""style=""width:400px;height:400px;""></img>",3,html-button-response,24,120321,0.0-3.1-1.1,45727,List1A,white,woman,,TRUE,3,,,,,
null,CORRECT,,html-keyboard-response,25,121823,0.0-3.1-2.1-0.1,45727,List1A,white,woman,,,,null,,,,
1776,"<img src=""portrait/BM2.jpg""style=""width:400px;height:400px;""></img>",5,html-button-response,26,123601,0.0-3.1-4.1,45727,List1A,white,woman,,TRUE,5,,,,,
null,CORRECT,,html-keyboard-response,27,125129,0.0-3.1-5.1-0.1,45727,List1A,white,woman,,,,null,,,,
2039,"<img src=""portrait/WM1.jpg""style=""width:400px;height:400px;""></img>",6,html-button-response,28,127169,0.0-3.1-7.1,45727,List1A,white,woman,,TRUE,6,,,,,
null,CORRECT,,html-keyboard-response,29,128696,0.0-3.1-8.1-0.1,45727,List1A,white,woman,,,,null,,,,
1815,"<img src=""portrait/BW2.jpg""style=""width:400px;height:400px;""></img>",2,html-button-response,30,130513,0.0-3.1-10.1,45727,List1A,white,woman,,TRUE,2,,,,,
null,CORRECT,,html-keyboard-response,31,132031,0.0-3.1-11.1-0.1,45727,List1A,white,woman,,,,null,,,,
1865,"<img src=""portrait/WM2.jpg""style=""width:400px;height:400px;""></img>",7,html-button-response,32,133897,0.0-3.1-13.1,45727,List1A,white,woman,,TRUE,7,,,,,
null,CORRECT,,html-keyboard-response,33,135414,0.0-3.1-14.1-0.1,45727,List1A,white,woman,,,,null,,,,
3457,"<img src=""portrait/WW1.jpg""style=""width:400px;height:400px;""></img>",1,html-button-response,34,138873,0.0-3.1-16.1,45727,List1A,white,woman,,TRUE,1,,,,,
null,CORRECT,,html-keyboard-response,35,140379,0.0-3.1-17.1-0.1,45727,List1A,white,woman,,,,null,,,,
1493,"<img src=""portrait/BW1.jpg""style=""width:400px;height:400px;""></img>",0,html-button-response,36,141873,0.0-3.1-19.1,45727,List1A,white,woman,,TRUE,0,,,,,
null,CORRECT,,html-keyboard-response,37,143379,0.0-3.1-20.1-0.1,45727,List1A,white,woman,,,,null,,,,
2493,"<img src=""portrait/BM1.jpg""style=""width:400px;height:400px;""></img>",4,html-button-response,38,145873,0.0-3.1-22.1,45727,List1A,white,woman,,TRUE,4,,,,,
null,CORRECT,,html-keyboard-response,39,147383,0.0-3.1-23.1-0.1,45727,List1A,white,woman,,,,null,,,,
882,<p>You got 8 out of 8 right first time. Press Continue.</p>,0,html-button-response,40,148265,0.0-3.1-25.1,45727,List1A,white,woman,,,,,,,,
90677,"<p>In this experiment, you will view photographs of the people from the memory game interacting.</p><p>By using the <strong>exact</strong> phrase given <i>after</i> the photograph appears and recalling the correct names of the people in the photographs, form a sentence describing the interaction. You do not need to capitalise names.</p><p>Type your answer in the space provided. Please complete every sentence before moving onto the next trial.</p><p>You will only have a few seconds to memorise each given photograph and phrase before you can respond, so try your best to focus.</p><p>An example is given below. Press 'Continue' when you are ready.</p><img src='img/speaking_example_v2.jpg' style='width:800px;height:460px;''></img>",0,html-button-response,41,239947,0.0-4.0,45727,List1A,white,woman,,,,,,,,
1821,"<p>Before the experiment starts, you will watch two example trials. Press 'Continue'.</p>",0,html-button-response,42,242771,0.0-5.0,45727,List1A,white,woman,,,,,,,,
null,<img src='img/speaking_WW.gif'></img>,,html-keyboard-response,43,245774,0.0-6.0,45727,List1A,white,woman,,,,null,,,,
null,<p>is speaking to</p>,,html-keyboard-response,44,247776,0.0-7.0,45727,List1A,white,woman,,,,null,,,,
5067,<p><b>Answer:</b> kate is speaking to beth</p>,0,html-button-response,45,252844,0.0-8.0,45727,List1A,white,woman,,,,,,,,
null,<img src='img/pointing_BM.gif'></img>,,html-keyboard-response,46,255847,0.0-9.0,45727,List1A,white,woman,,,,null,,,,
null,<p>are pointing at each other</p>,,html-keyboard-response,47,257848,0.0-10.0,45727,List1A,white,woman,,,,null,,,,
1146,<p><b>Answer:</b> luke and dave are pointing at each other</p>,0,html-button-response,48,258996,0.0-11.0,45727,List1A,white,woman,,,,,,,,
3390,"<p>Ready to start the experiment?</p><br><p><strong>Remember to describe the picture using a full sentence,</strong></p><p><strong> that combines the names of the people with the given phrase.</strong></p><p><strong> You do not need to capitalise names or use punctuation.</strong></p><br><p>Press 'Continue' to begin.</p>",0,html-button-response,49,263387,0.0-12.0,45727,List1A,white,woman,,,,,,,,
null,"<div style=""font-size:60px;"">+</div>",,html-keyboard-response,50,264890,0.0-13.0-0.0,45727,List1A,white,woman,,,,null,,,,
null,"<img src=""stim_listA/touch3.gif""</stim_listA>",,html-keyboard-response,51,266894,0.0-13.0-1.0,45727,List1A,white,woman,,,,null,,,,
null,is touching,,html-keyboard-response,52,268896,0.0-13.0-2.0,45727,List1A,white,woman,,,,null,,,,
7993,,,survey-text,53,276892,0.0-13.0-3.0,45727,List1A,white,woman,,,,,"{""Q0"":""dave is touching jane""}","<img src=""stim_listA/touch3.gif""</stim_listA>",is touching,
null,"<div style=""font-size:60px;"">+</div>",,html-keyboard-response,54,277394,0.0-13.0-0.1,45727,List1A,white,woman,,,,null,,,,
null,"<img src=""stim_listA/dance4.gif""</stim_listA>",,html-keyboard-response,55,279396,0.0-13.0-1.1,45727,List1A,white,woman,,,,null,,,,
null,are dancing with each other,,html-keyboard-response,56,281403,0.0-13.0-2.1,45727,List1A,white,woman,,,,null,,,,
13935,,,survey-text,57,295339,0.0-13.0-3.1,45727,List1A,white,woman,,,,,"{""Q0"":""jane and dave are dancing with each other""}","<img src=""stim_listA/dance4.gif""</stim_listA>",are dancing with each other,
null,"<div style=""font-size:60px;"">+</div>",,html-keyboard-response,58,295841,0.0-13.0-0.2,45727,List1A,white,woman,,,,null,,,,
null,"<img src=""stim_listA/talk7.gif""</stim_listA>",,html-keyboard-response,59,297849,0.0-13.0-1.2,45727,List1A,white,woman,,,,null,,,,
null,is talking to,,html-keyboard-response,60,299851,0.0-13.0-2.2,45727,List1A,white,woman,,,,null,,,,
5927,,,survey-text,61,305779,0.0-13.0-3.2,45727,List1A,white,woman,,,,,"{""Q0"":""jane is talking to beth""}","<img src=""stim_listA/talk7.gif""</stim_listA>",is talking to,
null,"<div style=""font-size:60px;"">+</div>",,html-keyboard-response,62,306281,0.0-13.0-0.3,45727,List1A,white,woman,,,,null,,,,
null,"<img src=""stim_listA/shout5.gif""</stim_listA>",,html-keyboard-response,63,308282,0.0-13.0-1.3,45727,List1A,white,woman,,,,null,,,,
null,is shouting at,,html-keyboard-response,64,310284,0.0-13.0-2.3,45727,List1A,white,woman,,,,null,,,,
9087,,,survey-text,65,319373,0.0-13.0-3.3,45727,List1A,white,woman,,,,,"{""Q0"":""luke is shouting at fred""}","<img src=""stim_listA/shout5.gif""</stim_listA>",is shouting at,
null,"<div style=""font-size:60px;"">+</div>",,html-keyboard-response,66,319874,0.0-13.0-0.4,45727,List1A,white,woman,,,,null,,,,
null,"<img src=""stim_listA/argue2.gif""</stim_listA>",,html-keyboard-response,67,321877,0.0-13.0-1.4,45727,List1A,white,woman,,,,null,,,,
null,are arguing with each other,,html-keyboard-response,68,323878,0.0-13.0-2.4,45727,List1A,white,woman,,,,null,,,,
9109,,,survey-text,69,332989,0.0-13.0-3.4,45727,List1A,white,woman,,,,,"{""Q0"":""beth and mike are arguing with each other""}","<img src=""stim_listA/argue2.gif""</stim_listA>",are arguing with each other,
null,"<div style=""font-size:60px;"">+</div>",,html-keyboard-response,70,333489,0.0-13.0-0.5,45727,List1A,white,woman,,,,null,,,,
null,"<img src=""stim_listA/kiss5.gif""</stim_listA>",,html-keyboard-response,71,335504,0.0-13.0-1.5,45727,List1A,white,woman,,,,null,,,,
null,is kissing,,html-keyboard-response,72,337521,0.0-13.0-2.5,45727,List1A,white,woman,,,,null,,,,
12426,,,survey-text,73,349949,0.0-13.0-3.5,45727,List1A,white,woman,,,,,"{""Q0"":""dave is kissing luke""}","<img src=""stim_listA/kiss5.gif""</stim_listA>",is kissing,
null,"<div style=""font-size:60px;"">+</div>",,html-keyboard-response,74,350450,0.0-13.0-0.6,45727,List1A,white,woman,,,,null,,,,
null,"<img src=""stim_listA/marry3.gif""</stim_listA>",,html-keyboard-response,75,352453,0.0-13.0-1.6,45727,List1A,white,woman,,,,null,,,,
null,is marrying,,html-keyboard-response,76,354454,0.0-13.0-2.6,45727,List1A,white,woman,,,,null,,,,
5965,,,survey-text,77,360421,0.0-13.0-3.6,45727,List1A,white,woman,,,,,"{""Q0"":""jane is marrying dave""}","<img src=""stim_listA/marry3.gif""</stim_listA>",is marrying,
null,"<div style=""font-size:60px;"">+</div>",,html-keyboard-response,78,360922,0.0-13.0-0.7,45727,List1A,white,woman,,,,null,,,,
null,"<img src=""stim_listA/hug3.gif""</stim_listA>",,html-keyboard-response,79,362925,0.0-13.0-1.7,45727,List1A,white,woman,,,,null,,,,
null,is hugging,,html-keyboard-response,80,364927,0.0-13.0-2.7,45727,List1A,white,woman,,,,null,,,,
5348,,,survey-text,81,370276,0.0-13.0-3.7,45727,List1A,white,woman,,,,,"{""Q0"":""luke is hugging jane""}","<img src=""stim_listA/hug3.gif""</stim_listA>",is hugging,
null,"<div style=""font-size:60px;"">+</div>",,html-keyboard-response,82,370778,0.0-13.0-0.8,45727,List1A,white,woman,,,,null,,,,
null,"<img src=""stim_listA/fight6.gif""</stim_listA>",,html-keyboard-response,83,372782,0.0-13.0-1.8,45727,List1A,white,woman,,,,null,,,,
null,are fighting each other,,html-keyboard-response,84,374783,0.0-13.0-2.8,45727,List1A,white,woman,,,,null,,,,
9781,,,survey-text,85,384566,0.0-13.0-3.8,45727,List1A,white,woman,,,,,"{""Q0"":""fred and luke are fighting each other""}","<img src=""stim_listA/fight6.gif""</stim_listA>",are fighting each other,
null,"<div style=""font-size:60px;"">+</div>",,html-keyboard-response,86,385067,0.0-13.0-0.9,45727,List1A,white,woman,,,,null,,,,
null,"<img src=""stim_listA/kiss6.gif""</stim_listA>",,html-keyboard-response,87,387071,0.0-13.0-1.9,45727,List1A,white,woman,,,,null,,,,
null,are kissing each other,,html-keyboard-response,88,389085,0.0-13.0-2.9,45727,List1A,white,woman,,,,null,,,,
11144,,,survey-text,89,400230,0.0-13.0-3.9,45727,List1A,white,woman,,,,,"{""Q0"":""mike and dave are fighting each other""}","<img src=""stim_listA/kiss6.gif""</stim_listA>",are kissing each other,
null,"<div style=""font-size:60px;"">+</div>",,html-keyboard-response,90,400731,0.0-13.0-0.10,45727,List1A,white,woman,,,,null,,,,
null,"<img src=""stim_listA/marry5.gif""</stim_listA>",,html-keyboard-response,91,402734,0.0-13.0-1.10,45727,List1A,white,woman,,,,null,,,,
null,is marrying,,html-keyboard-response,92,404737,0.0-13.0-2.10,45727,List1A,white,woman,,,,null,,,,
6003,,,survey-text,93,410742,0.0-13.0-3.10,45727,List1A,white,woman,,,,,"{""Q0"":""mike is marrying luke""}","<img src=""stim_listA/marry5.gif""</stim_listA>",is marrying,
null,"<div style=""font-size:60px;"">+</div>",,html-keyboard-response,94,411243,0.0-13.0-0.11,45727,List1A,white,woman,,,,null,,,,
null,"<img src=""stim_listA/touch1.gif""</stim_listA>",,html-keyboard-response,95,413247,0.0-13.0-1.11,45727,List1A,white,woman,,,,null,,,,
null,is touching,,html-keyboard-response,96,415248,0.0-13.0-2.11,45727,List1A,white,woman,,,,null,,,,
5644,,,survey-text,97,420894,0.0-13.0-3.11,45727,List1A,white,woman,,,,,"{""Q0"":""mike is touching beth""}","<img src=""stim_listA/touch1.gif""</stim_listA>",is touching,
null,"<div style=""font-size:60px;"">+</div>",,html-keyboard-response,98,421395,0.0-13.0-0.12,45727,List1A,white,woman,,,,null,,,,
null,"<img src=""stim_listA/meet6.gif""</stim_listA>",,html-keyboard-response,99,423398,0.0-13.0-1.12,45727,List1A,white,woman,,,,null,,,,
null,are meeting each other,,html-keyboard-response,100,425404,0.0-13.0-2.12,45727,List1A,white,woman,,,,null,,,,
8425,,,survey-text,101,433830,0.0-13.0-3.12,45727,List1A,white,woman,,,,,"{""Q0"":""fred and luke are meeting each other""}","<img src=""stim_listA/meet6.gif""</stim_listA>",are meeting each other,
null,"<div style=""font-size:60px;"">+</div>",,html-keyboard-response,102,434331,0.0-13.0-0.13,45727,List1A,white,woman,,,,null,,,,
null,"<img src=""stim_listA/dance1.gif""</stim_listA>",,html-keyboard-response,103,436334,0.0-13.0-1.13,45727,List1A,white,woman,,,,null,,,,
null,is dancing with,,html-keyboard-response,104,438335,0.0-13.0-2.13,45727,List1A,white,woman,,,,null,,,,
7150,,,survey-text,105,445486,0.0-13.0-3.13,45727,List1A,white,woman,,,,,"{""Q0"":""fred is dancing with beth""}","<img src=""stim_listA/dance1.gif""</stim_listA>",is dancing with,
null,"<div style=""font-size:60px;"">+</div>",,html-keyboard-response,106,445988,0.0-13.0-0.14,45727,List1A,white,woman,,,,null,,,,
null,"<img src=""stim_listA/hug1.gif""</stim_listA>",,html-keyboard-response,107,447991,0.0-13.0-1.14,45727,List1A,white,woman,,,,null,,,,
null,is hugging,,html-keyboard-response,108,449993,0.0-13.0-2.14,45727,List1A,white,woman,,,,null,,,,
7140,,,survey-text,109,457134,0.0-13.0-3.14,45727,List1A,white,woman,,,,,"{""Q0"":""fred is hugging beth""}","<img src=""stim_listA/hug1.gif""</stim_listA>",is hugging,
null,"<div style=""font-size:60px;"">+</div>",,html-keyboard-response,110,457636,0.0-13.0-0.15,45727,List1A,white,woman,,,,null,,,,
null,"<img src=""stim_listA/marry1.gif""</stim_listA>",,html-keyboard-response,111,459640,0.0-13.0-1.15,45727,List1A,white,woman,,,,null,,,,
null,is marrying,,html-keyboard-response,112,461642,0.0-13.0-2.15,45727,List1A,white,woman,,,,null,,,,
5852,,,survey-text,113,467494,0.0-13.0-3.15,45727,List1A,white,woman,,,,,"{""Q0"":""fred is marrying beth""}","<img src=""stim_listA/marry1.gif""</stim_listA>",is marrying,
null,"<div style=""font-size:60px;"">+</div>",,html-keyboard-response,114,467996,0.0-13.0-0.16,45727,List1A,white,woman,,,,null,,,,
null,"<img src=""stim_listA/fight3.gif""</stim_listA>",,html-keyboard-response,115,469998,0.0-13.0-1.16,45727,List1A,white,woman,,,,null,,,,
null,is fighting,,html-keyboard-response,116,472000,0.0-13.0-2.16,45727,List1A,white,woman,,,,null,,,,
6965,,,survey-text,117,478966,0.0-13.0-3.16,45727,List1A,white,woman,,,,,"{""Q0"":""luke is fighting jane""}","<img src=""stim_listA/fight3.gif""</stim_listA>",is fighting,
null,"<div style=""font-size:60px;"">+</div>",,html-keyboard-response,118,479467,0.0-13.0-0.17,45727,List1A,white,woman,,,,null,,,,
null,"<img src=""stim_listA/fight4.gif""</stim_listA>",,html-keyboard-response,119,481470,0.0-13.0-1.17,45727,List1A,white,woman,,,,null,,,,
null,are fighting each other,,html-keyboard-response,120,483472,0.0-13.0-2.17,45727,List1A,white,woman,,,,null,,,,
125175,,,survey-text,121,608649,0.0-13.0-3.17,45727,List1A,white,woman,,,,,"{""Q0"":""luke is touching jane""}","<img src=""stim_listA/fight4.gif""</stim_listA>",are fighting each other,
null,"<div style=""font-size:60px;"">+</div>",,html-keyboard-response,122,609150,0.0-13.0-0.18,45727,List1A,white,woman,,,,null,,,,
null,"<img src=""stim_listA/argue4.gif""</stim_listA>",,html-keyboard-response,123,611152,0.0-13.0-1.18,45727,List1A,white,woman,,,,null,,,,
null,are arguing with each other,,html-keyboard-response,124,613155,0.0-13.0-2.18,45727,List1A,white,woman,,,,null,,,,
8956,,,survey-text,125,622113,0.0-13.0-3.18,45727,List1A,white,woman,,,,,"{""Q0"":""luke and jane are arguing with each other""}","<img src=""stim_listA/argue4.gif""</stim_listA>",are arguing with each other,
null,"<div style=""font-size:60px;"">+</div>",,html-keyboard-response,126,622613,0.0-13.0-0.19,45727,List1A,white,woman,,,,null,,,,
null,"<img src=""stim_listA/fight8.gif""</stim_listA>",,html-keyboard-response,127,624615,0.0-13.0-1.19,45727,List1A,white,woman,,,,null,,,,
null,are fighting each other,,html-keyboard-response,128,626617,0.0-13.0-2.19,45727,List1A,white,woman,,,,null,,,,
14199,,,survey-text,129,640817,0.0-13.0-3.19,45727,List1A,white,woman,,,,,"{""Q0"":""kate and jane are fighting each other""}","<img src=""stim_listA/fight8.gif""</stim_listA>",are fighting each other,
22503,"<img src='img/portrait_matrix_list1.JPG' style='width:900px;height:500px;''></img><p>If you have memorised all the portraits and names and are ready to start, press Continue.</p><p><strong>Please note: Your memory of these faces will be tested 4 times during this experiment.</strong></p>",0,html-button-response,130,663321,0.0-14.0-0.0,45727,List1A,white,woman,,,,,,,,
3134,"<img src=""portrait/WM1.jpg""style=""width:400px;height:400px;""></img>",6,html-button-response,131,667457,0.0-14.0-1.0,45727,List1A,white,woman,,TRUE,6,,,,,
null,CORRECT,,html-keyboard-response,132,668960,0.0-14.0-2.0-0.0,45727,List1A,white,woman,,,,null,,,,
4657,"<img src=""portrait/WW1.jpg""style=""width:400px;height:400px;""></img>",3,html-button-response,133,673617,0.0-14.0-4.0,45727,List1A,white,woman,,TRUE,1,,,,,
2798,"<img src=""portrait/WW1.jpg""style=""width:400px;height:400px;""></img>",1,html-button-response,134,677417,0.0-14.0-6.0-0.0,45727,List1A,white,woman,,FALSE,1,,,,,
null,CORRECT,,html-keyboard-response,135,678919,0.0-14.0-6.0-1.0-0.0,45727,List1A,white,woman,,,,null,,,,
1752,"<img src=""portrait/BM1.jpg""style=""width:400px;height:400px;""></img>",4,html-button-response,136,680673,0.0-14.0-7.0,45727,List1A,white,woman,,TRUE,4,,,,,
null,CORRECT,,html-keyboard-response,137,682177,0.0-14.0-8.0-0.0,45727,List1A,white,woman,,,,null,,,,
2207,"<img src=""portrait/BM2.jpg""style=""width:400px;height:400px;""></img>",5,html-button-response,138,684385,0.0-14.0-10.0,45727,List1A,white,woman,,TRUE,5,,,,,
null,CORRECT,,html-keyboard-response,139,685888,0.0-14.0-11.0-0.0,45727,List1A,white,woman,,,,null,,,,
3904,"<img src=""portrait/BW1.jpg""style=""width:400px;height:400px;""></img>",0,html-button-response,140,689793,0.0-14.0-13.0,45727,List1A,white,woman,,TRUE,0,,,,,
null,CORRECT,,html-keyboard-response,141,691298,0.0-14.0-14.0-0.0,45727,List1A,white,woman,,,,null,,,,
1679,"<img src=""portrait/BW2.jpg""style=""width:400px;height:400px;""></img>",2,html-button-response,142,692979,0.0-14.0-16.0,45727,List1A,white,woman,,TRUE,2,,,,,
null,CORRECT,,html-keyboard-response,143,694483,0.0-14.0-17.0-0.0,45727,List1A,white,woman,,,,null,,,,
1454,"<img src=""portrait/WM2.jpg""style=""width:400px;height:400px;""></img>",7,html-button-response,144,695939,0.0-14.0-19.0,45727,List1A,white,woman,,TRUE,7,,,,,
null,CORRECT,,html-keyboard-response,145,697441,0.0-14.0-20.0-0.0,45727,List1A,white,woman,,,,null,,,,
2672,"<img src=""portrait/WW2.jpg""style=""width:400px;height:400px;""></img>",3,html-button-response,146,700114,0.0-14.0-22.0,45727,List1A,white,woman,,TRUE,3,,,,,
null,CORRECT,,html-keyboard-response,147,701617,0.0-14.0-23.0-0.0,45727,List1A,white,woman,,,,null,,,,
1168,<p>You got 7 out of 8 right first time. Press Continue.</p>,0,html-button-response,148,702786,0.0-14.0-25.0,45727,List1A,white,woman,,,,,,,,
822,"As you did not score 100%, the memory game will repeat. Press Continue.",0,html-button-response,149,704610,0.0-14.0-26.0-0.0,45727,List1A,white,woman,,,,,,,,
2205,"<img src='img/portrait_matrix_list1.JPG' style='width:900px;height:500px;''></img><p>If you have memorised all the portraits and names and are ready to start, press Continue.</p><p><strong>Please note: Your memory of these faces will be tested 4 times during this experiment.</strong></p>",0,html-button-response,150,707818,0.0-14.1-0.1,45727,List1A,white,woman,,,,,,,,
20046,"<img src=""portrait/WM1.jpg""style=""width:400px;height:400px;""></img>",6,html-button-response,151,728867,0.0-14.1-1.1,45727,List1A,white,woman,,TRUE,6,,,,,
null,CORRECT,,html-keyboard-response,152,730375,0.0-14.1-2.1-0.1,45727,List1A,white,woman,,,,null,,,,
2481,"<img src=""portrait/WW1.jpg""style=""width:400px;height:400px;""></img>",1,html-button-response,153,732858,0.0-14.1-4.1,45727,List1A,white,woman,,TRUE,1,,,,,
null,CORRECT,,html-keyboard-response,154,734361,0.0-14.1-5.1-0.1,45727,List1A,white,woman,,,,null,,,,
1359,"<img src=""portrait/BM1.jpg""style=""width:400px;height:400px;""></img>",4,html-button-response,155,735722,0.0-14.1-7.1,45727,List1A,white,woman,,TRUE,4,,,,,
null,CORRECT,,html-keyboard-response,156,737226,0.0-14.1-8.1-0.1,45727,List1A,white,woman,,,,null,,,,
2095,"<img src=""portrait/BM2.jpg""style=""width:400px;height:400px;""></img>",5,html-button-response,157,739322,0.0-14.1-10.1,45727,List1A,white,woman,,TRUE,5,,,,,
null,CORRECT,,html-keyboard-response,158,740825,0.0-14.1-11.1-0.1,45727,List1A,white,woman,,,,null,,,,
9944,"<img src=""portrait/BW1.jpg""style=""width:400px;height:400px;""></img>",0,html-button-response,159,750770,0.0-14.1-13.1,45727,List1A,white,woman,,TRUE,0,,,,,
null,CORRECT,,html-keyboard-response,160,752275,0.0-14.1-14.1-0.1,45727,List1A,white,woman,,,,null,,,,
2503,"<img src=""portrait/BW2.jpg""style=""width:400px;height:400px;""></img>",2,html-button-response,161,754780,0.0-14.1-16.1,45727,List1A,white,woman,,TRUE,2,,,,,
null,CORRECT,,html-keyboard-response,162,756284,0.0-14.1-17.1-0.1,45727,List1A,white,woman,,,,null,,,,
1678,"<img src=""portrait/WM2.jpg""style=""width:400px;height:400px;""></img>",7,html-button-response,163,757964,0.0-14.1-19.1,45727,List1A,white,woman,,TRUE,7,,,,,
null,CORRECT,,html-keyboard-response,164,759468,0.0-14.1-20.1-0.1,45727,List1A,white,woman,,,,null,,,,
1182,"<img src=""portrait/WW2.jpg""style=""width:400px;height:400px;""></img>",3,html-button-response,165,760652,0.0-14.1-22.1,45727,List1A,white,woman,,TRUE,3,,,,,
null,CORRECT,,html-keyboard-response,166,762156,0.0-14.1-23.1-0.1,45727,List1A,white,woman,,,,null,,,,
1149,<p>You got 8 out of 8 right first time. Press Continue.</p>,0,html-button-response,167,763308,0.0-14.1-25.1,45727,List1A,white,woman,,,,,,,,
null,"<div style=""font-size:60px;"">+</div>",,html-keyboard-response,168,764813,0.0-15.0-0.0,45727,List1A,white,woman,,,,null,,,,
null,"<img src=""stim_listA/talk3.gif""</stim_listA>",,html-keyboard-response,169,766816,0.0-15.0-1.0,45727,List1A,white,woman,,,,null,,,,
null,is talking to,,html-keyboard-response,170,768819,0.0-15.0-2.0,45727,List1A,white,woman,,,,null,,,,
14878,,,survey-text,171,783700,0.0-15.0-3.0,45727,List1A,white,woman,,,,,"{""Q0"":""luke is talking to ruth""}","<img src=""stim_listA/talk3.gif""</stim_listA>",is talking to,
null,"<div style=""font-size:60px;"">+</div>",,html-keyboard-response,172,784201,0.0-15.0-0.1,45727,List1A,white,woman,,,,null,,,,
null,"<img src=""stim_listA/dance2.gif""</stim_listA>",,html-keyboard-response,173,786203,0.0-15.0-1.1,45727,List1A,white,woman,,,,null,,,,
null,are dancing with each other,,html-keyboard-response,174,788205,0.0-15.0-2.1,45727,List1A,white,woman,,,,null,,,,
8709,,,survey-text,175,796915,0.0-15.0-3.1,45727,List1A,white,woman,,,,,"{""Q0"":""beth and mike are dancing with each other""}","<img src=""stim_listA/dance2.gif""</stim_listA>",are dancing with each other,
null,"<div style=""font-size:60px;"">+</div>",,html-keyboard-response,176,797417,0.0-15.0-0.2,45727,List1A,white,woman,,,,null,,,,
null,"<img src=""stim_listA/meet7.gif""</stim_listA>",,html-keyboard-response,177,799420,0.0-15.0-1.2,45727,List1A,white,woman,,,,null,,,,
null,is meeting,,html-keyboard-response,178,801421,0.0-15.0-2.2,45727,List1A,white,woman,,,,null,,,,
4653,,,survey-text,179,806075,0.0-15.0-3.2,45727,List1A,white,woman,,,,,"{""Q0"":""kate is meeting jane""}","<img src=""stim_listA/meet7.gif""</stim_listA>",is meeting,
null,"<div style=""font-size:60px;"">+</div>",,html-keyboard-response,180,806577,0.0-15.0-0.3,45727,List1A,white,woman,,,,null,,,,
null,"<img src=""stim_listA/shout8.gif""</stim_listA>",,html-keyboard-response,181,808580,0.0-15.0-1.3,45727,List1A,white,woman,,,,null,,,,
null,are shouting at each other,,html-keyboard-response,182,810581,0.0-15.0-2.3,45727,List1A,white,woman,,,,null,,,,
7749,,,survey-text,183,818331,0.0-15.0-3.3,45727,List1A,white,woman,,,,,"{""Q0"":""kate and jane are shouting at each other""}","<img src=""stim_listA/shout8.gif""</stim_listA>",are shouting at each other,
null,"<div style=""font-size:60px;"">+</div>",,html-keyboard-response,184,818832,0.0-15.0-0.4,45727,List1A,white,woman,,,,null,,,,
null,"<img src=""stim_listA/touch2.gif""</stim_listA>",,html-keyboard-response,185,820835,0.0-15.0-1.4,45727,List1A,white,woman,,,,null,,,,
null,are touching each other,,html-keyboard-response,186,822837,0.0-15.0-2.4,45727,List1A,white,woman,,,,null,,,,
13701,,,survey-text,187,836539,0.0-15.0-3.4,45727,List1A,white,woman,,,,,"{""Q0"":""beth and fred are touching each other""}","<img src=""stim_listA/touch2.gif""</stim_listA>",are touching each other,
null,"<div style=""font-size:60px;"">+</div>",,html-keyboard-response,188,837040,0.0-15.0-0.5,45727,List1A,white,woman,,,,null,,,,
null,"<img src=""stim_listA/marry2.gif""</stim_listA>",,html-keyboard-response,189,839043,0.0-15.0-1.5,45727,List1A,white,woman,,,,null,,,,
null,are marrying each other,,html-keyboard-response,190,841044,0.0-15.0-2.5,45727,List1A,white,woman,,,,null,,,,
7022,,,survey-text,191,848067,0.0-15.0-3.5,45727,List1A,white,woman,,,,,"{""Q0"":""kate and fred are marrying each other""}","<img src=""stim_listA/marry2.gif""</stim_listA>",are marrying each other,
null,"<div style=""font-size:60px;"">+</div>",,html-keyboard-response,192,848569,0.0-15.0-0.6,45727,List1A,white,woman,,,,null,,,,
null,"<img src=""stim_listA/fight7.gif""</stim_listA>",,html-keyboard-response,193,850572,0.0-15.0-1.6,45727,List1A,white,woman,,,,null,,,,
null,is fighting,,html-keyboard-response,194,852573,0.0-15.0-2.6,45727,List1A,white,woman,,,,null,,,,
4821,,,survey-text,195,857395,0.0-15.0-3.6,45727,List1A,white,woman,,,,,"{""Q0"":""kate is fighting jane""}","<img src=""stim_listA/fight7.gif""</stim_listA>",is fighting,
null,"<div style=""font-size:60px;"">+</div>",,html-keyboard-response,196,857897,0.0-15.0-0.7,45727,List1A,white,woman,,,,null,,,,
null,"<img src=""stim_listA/dance7.gif""</stim_listA>",,html-keyboard-response,197,859901,0.0-15.0-1.7,45727,List1A,white,woman,,,,null,,,,
null,is dancing with,,html-keyboard-response,198,861902,0.0-15.0-2.7,45727,List1A,white,woman,,,,null,,,,
9372,,,survey-text,199,871275,0.0-15.0-3.7,45727,List1A,white,woman,,,,,"{""Q0"":""beth is dancing with jane""}","<img src=""stim_listA/dance7.gif""</stim_listA>",is dancing with,
null,"<div style=""font-size:60px;"">+</div>",,html-keyboard-response,200,871776,0.0-15.0-0.8,45727,List1A,white,woman,,,,null,,,,
null,"<img src=""stim_listA/hug4.gif""</stim_listA>",,html-keyboard-response,201,873782,0.0-15.0-1.8,45727,List1A,white,woman,,,,null,,,,
null,are hugging each other,,html-keyboard-response,202,875784,0.0-15.0-2.8,45727,List1A,white,woman,,,,null,,,,
9380,,,survey-text,203,885165,0.0-15.0-3.8,45727,List1A,white,woman,,,,,"{""Q0"":""dave and jane are hugging each other""}","<img src=""stim_listA/hug4.gif""</stim_listA>",are hugging each other,
null,"<div style=""font-size:60px;"">+</div>",,html-keyboard-response,204,885666,0.0-15.0-0.9,45727,List1A,white,woman,,,,null,,,,
null,"<img src=""stim_listA/fight5.gif""</stim_listA>",,html-keyboard-response,205,887672,0.0-15.0-1.9,45727,List1A,white,woman,,,,null,,,,
null,is fighting,,html-keyboard-response,206,889673,0.0-15.0-2.9,45727,List1A,white,woman,,,,null,,,,
4651,,,survey-text,207,894325,0.0-15.0-3.9,45727,List1A,white,woman,,,,,"{""Q0"":""dave is fighting mike""}","<img src=""stim_listA/fight5.gif""</stim_listA>",is fighting,
null,"<div style=""font-size:60px;"">+</div>",,html-keyboard-response,208,894826,0.0-15.0-0.10,45727,List1A,white,woman,,,,null,,,,
null,"<img src=""stim_listA/argue6.gif""</stim_listA>",,html-keyboard-response,209,896829,0.0-15.0-1.10,45727,List1A,white,woman,,,,null,,,,
null,are arguing with each other,,html-keyboard-response,210,898831,0.0-15.0-2.10,45727,List1A,white,woman,,,,null,,,,
6534,,,survey-text,211,905365,0.0-15.0-3.10,45727,List1A,white,woman,,,,,"{""Q0"":""fred and dave are arguing with each other""}","<img src=""stim_listA/argue6.gif""</stim_listA>",are arguing with each other,
null,"<div style=""font-size:60px;"">+</div>",,html-keyboard-response,212,905868,0.0-15.0-0.11,45727,List1A,white,woman,,,,null,,,,
null,"<img src=""stim_listA/marry8.gif""</stim_listA>",,html-keyboard-response,213,907871,0.0-15.0-1.11,45727,List1A,white,woman,,,,null,,,,
null,are marrying each other,,html-keyboard-response,214,909873,0.0-15.0-2.11,45727,List1A,white,woman,,,,null,,,,
8867,,,survey-text,215,918741,0.0-15.0-3.11,45727,List1A,white,woman,,,,,"{""Q0"":""jane and beth are marrying each other""}","<img src=""stim_listA/marry8.gif""</stim_listA>",are marrying each other,
null,"<div style=""font-size:60px;"">+</div>",,html-keyboard-response,216,919242,0.0-15.0-0.12,45727,List1A,white,woman,,,,null,,,,
null,"<img src=""stim_listA/hug7.gif""</stim_listA>",,html-keyboard-response,217,921247,0.0-15.0-1.12,45727,List1A,white,woman,,,,null,,,,
null,is hugging,,html-keyboard-response,218,923250,0.0-15.0-2.12,45727,List1A,white,woman,,,,null,,,,
4842,,,survey-text,219,928093,0.0-15.0-3.12,45727,List1A,white,woman,,,,,"{""Q0"":""ruth is hugging beth""}","<img src=""stim_listA/hug7.gif""</stim_listA>",is hugging,
null,"<div style=""font-size:60px;"">+</div>",,html-keyboard-response,220,928596,0.0-15.0-0.13,45727,List1A,white,woman,,,,null,,,,
null,"<img src=""stim_listA/shout4.gif""</stim_listA>",,html-keyboard-response,221,930599,0.0-15.0-1.13,45727,List1A,white,woman,,,,null,,,,
null,are shouting at each other,,html-keyboard-response,222,932601,0.0-15.0-2.13,45727,List1A,white,woman,,,,null,,,,
10356,,,survey-text,223,942959,0.0-15.0-3.13,45727,List1A,white,woman,,,,,"{""Q0"":""jane and dave are shouting at each other""}","<img src=""stim_listA/shout4.gif""</stim_listA>",are shouting at each other,
null,"<div style=""font-size:60px;"">+</div>",,html-keyboard-response,224,943460,0.0-15.0-0.14,45727,List1A,white,woman,,,,null,,,,
null,"<img src=""stim_listA/argue1.gif""</stim_listA>",,html-keyboard-response,225,945464,0.0-15.0-1.14,45727,List1A,white,woman,,,,null,,,,
null,is arguing with,,html-keyboard-response,226,947466,0.0-15.0-2.14,45727,List1A,white,woman,,,,null,,,,
7771,,,survey-text,227,955238,0.0-15.0-3.14,45727,List1A,white,woman,,,,,"{""Q0"":""beth is arguing with mike""}","<img src=""stim_listA/argue1.gif""</stim_listA>",is arguing with,
null,"<div style=""font-size:60px;"">+</div>",,html-keyboard-response,228,955740,0.0-15.0-0.15,45727,List1A,white,woman,,,,null,,,,
null,"<img src=""stim_listA/dance8.gif""</stim_listA>",,html-keyboard-response,229,957742,0.0-15.0-1.15,45727,List1A,white,woman,,,,null,,,,
null,are dancing with each other,,html-keyboard-response,230,959743,0.0-15.0-2.15,45727,List1A,white,woman,,,,null,,,,
9062,,,survey-text,231,968806,0.0-15.0-3.15,45727,List1A,white,woman,,,,,"{""Q0"":""kate and ruth are dancing with each other""}","<img src=""stim_listA/dance8.gif""</stim_listA>",are dancing with each other,
null,"<div style=""font-size:60px;"">+</div>",,html-keyboard-response,232,969308,0.0-15.0-0.16,45727,List1A,white,woman,,,,null,,,,
null,"<img src=""stim_listA/talk2.gif""</stim_listA>",,html-keyboard-response,233,971310,0.0-15.0-1.16,45727,List1A,white,woman,,,,null,,,,
null,are talking to each other,,html-keyboard-response,234,973312,0.0-15.0-2.16,45727,List1A,white,woman,,,,null,,,,
7357,,,survey-text,235,980670,0.0-15.0-3.16,45727,List1A,white,woman,,,,,"{""Q0"":""beth and mike are talking to each other""}","<img src=""stim_listA/talk2.gif""</stim_listA>",are talking to each other,
null,"<div style=""font-size:60px;"">+</div>",,html-keyboard-response,236,981172,0.0-15.0-0.17,45727,List1A,white,woman,,,,null,,,,
null,"<img src=""stim_listA/marry4.gif""</stim_listA>",,html-keyboard-response,237,983176,0.0-15.0-1.17,45727,List1A,white,woman,,,,null,,,,
null,are marrying each other,,html-keyboard-response,238,985179,0.0-15.0-2.17,45727,List1A,white,woman,,,,null,,,,
7362,,,survey-text,239,992542,0.0-15.0-3.17,45727,List1A,white,woman,,,,,"{""Q0"":""luke and ruth are marrying each other""}","<img src=""stim_listA/marry4.gif""</stim_listA>",are marrying each other,
null,"<div style=""font-size:60px;"">+</div>",,html-keyboard-response,240,993045,0.0-15.0-0.18,45727,List1A,white,woman,,,,null,,,,
null,"<img src=""stim_listA/dance5.gif""</stim_listA>",,html-keyboard-response,241,995048,0.0-15.0-1.18,45727,List1A,white,woman,,,,null,,,,
null,is dancing with,,html-keyboard-response,242,997050,0.0-15.0-2.18,45727,List1A,white,woman,,,,null,,,,
6229,,,survey-text,243,1003279,0.0-15.0-3.18,45727,List1A,white,woman,,,,,"{""Q0"":""fred is dancing with dave""}","<img src=""stim_listA/dance5.gif""</stim_listA>",is dancing with,
null,"<div style=""font-size:60px;"">+</div>",,html-keyboard-response,244,1003781,0.0-15.0-0.19,45727,List1A,white,woman,,,,null,,,,
null,"<img src=""stim_listA/touch4.gif""</stim_listA>",,html-keyboard-response,245,1005784,0.0-15.0-1.19,45727,List1A,white,woman,,,,null,,,,
null,are touching each other,,html-keyboard-response,246,1007786,0.0-15.0-2.19,45727,List1A,white,woman,,,,null,,,,
7340,,,survey-text,247,1015127,0.0-15.0-3.19,45727,List1A,white,woman,,,,,"{""Q0"":""ruth and luke are touching each other""}","<img src=""stim_listA/touch4.gif""</stim_listA>",are touching each other,
37191,"<img src='img/portrait_matrix_list1.JPG' style='width:900px;height:500px;''></img><p>If you have memorised all the portraits and names and are ready to start, press Continue.</p><p><strong>Please note: Your memory of these faces will be tested 4 times during this experiment.</strong></p>",0,html-button-response,248,1052319,0.0-16.0-0.0,45727,List1A,white,woman,,,,,,,,
3989,"<img src=""portrait/WM1.jpg""style=""width:400px;height:400px;""></img>",6,html-button-response,249,1057312,0.0-16.0-1.0,45727,List1A,white,woman,,TRUE,6,,,,,
null,CORRECT,,html-keyboard-response,250,1058814,0.0-16.0-2.0-0.0,45727,List1A,white,woman,,,,null,,,,
1776,"<img src=""portrait/WW1.jpg""style=""width:400px;height:400px;""></img>",1,html-button-response,251,1060592,0.0-16.0-4.0,45727,List1A,white,woman,,TRUE,1,,,,,
null,CORRECT,,html-keyboard-response,252,1062095,0.0-16.0-5.0-0.0,45727,List1A,white,woman,,,,null,,,,
1872,"<img src=""portrait/BM2.jpg""style=""width:400px;height:400px;""></img>",5,html-button-response,253,1063968,0.0-16.0-7.0,45727,List1A,white,woman,,TRUE,5,,,,,
null,CORRECT,,html-keyboard-response,254,1065473,0.0-16.0-8.0-0.0,45727,List1A,white,woman,,,,null,,,,
8382,"<img src=""portrait/BW1.jpg""style=""width:400px;height:400px;""></img>",0,html-button-response,255,1073856,0.0-16.0-10.0,45727,List1A,white,woman,,TRUE,0,,,,,
null,CORRECT,,html-keyboard-response,256,1075358,0.0-16.0-11.0-0.0,45727,List1A,white,woman,,,,null,,,,
1440,"<img src=""portrait/BW2.jpg""style=""width:400px;height:400px;""></img>",2,html-button-response,257,1076800,0.0-16.0-13.0,45727,List1A,white,woman,,TRUE,2,,,,,
null,CORRECT,,html-keyboard-response,258,1078303,0.0-16.0-14.0-0.0,45727,List1A,white,woman,,,,null,,,,
1376,"<img src=""portrait/BM1.jpg""style=""width:400px;height:400px;""></img>",4,html-button-response,259,1079680,0.0-16.0-16.0,45727,List1A,white,woman,,TRUE,4,,,,,
null,CORRECT,,html-keyboard-response,260,1081183,0.0-16.0-17.0-0.0,45727,List1A,white,woman,,,,null,,,,
3304,"<img src=""portrait/WM2.jpg""style=""width:400px;height:400px;""></img>",7,html-button-response,261,1084488,0.0-16.0-19.0,45727,List1A,white,woman,,TRUE,7,,,,,
null,CORRECT,,html-keyboard-response,262,1085991,0.0-16.0-20.0-0.0,45727,List1A,white,woman,,,,null,,,,
2400,"<img src=""portrait/WW2.jpg""style=""width:400px;height:400px;""></img>",3,html-button-response,263,1088392,0.0-16.0-22.0,45727,List1A,white,woman,,TRUE,3,,,,,
null,CORRECT,,html-keyboard-response,264,1089895,0.0-16.0-23.0-0.0,45727,List1A,white,woman,,,,null,,,,
656,<p>You got 8 out of 8 right first time. Press Continue.</p>,0,html-button-response,265,1090552,0.0-16.0-25.0,45727,List1A,white,woman,,,,,,,,
null,"<div style=""font-size:60px;"">+</div>",,html-keyboard-response,266,1092055,0.0-17.0-0.0,45727,List1A,white,woman,,,,null,,,,
null,"<img src=""stim_listA/meet1.gif""</stim_listA>",,html-keyboard-response,267,1094058,0.0-17.0-1.0,45727,List1A,white,woman,,,,null,,,,
null,is meeting,,html-keyboard-response,268,1096059,0.0-17.0-2.0,45727,List1A,white,woman,,,,null,,,,
659077,,,survey-text,269,1755138,0.0-17.0-3.0,45727,List1A,white,woman,,,,,"{""Q0"":""mike is meeting kate""}","<img src=""stim_listA/meet1.gif""</stim_listA>",is meeting,
null,"<div style=""font-size:60px;"">+</div>",,html-keyboard-response,270,1755639,0.0-17.0-0.1,45727,List1A,white,woman,,,,null,,,,
null,"<img src=""stim_listA/argue8.gif""</stim_listA>",,html-keyboard-response,271,1757642,0.0-17.0-1.1,45727,List1A,white,woman,,,,null,,,,
null,are arguing with each other,,html-keyboard-response,272,1759644,0.0-17.0-2.1,45727,List1A,white,woman,,,,null,,,,
8909,,,survey-text,273,1768554,0.0-17.0-3.1,45727,List1A,white,woman,,,,,"{""Q0"":""jane and beth are arguing with each other""}","<img src=""stim_listA/argue8.gif""</stim_listA>",are arguing with each other,
null,"<div style=""font-size:60px;"">+</div>",,html-keyboard-response,274,1769056,0.0-17.0-0.2,45727,List1A,white,woman,,,,null,,,,
null,"<img src=""stim_listA/shout7.gif""</stim_listA>",,html-keyboard-response,275,1771058,0.0-17.0-1.2,45727,List1A,white,woman,,,,null,,,,
null,is shouting at,,html-keyboard-response,276,1773060,0.0-17.0-2.2,45727,List1A,white,woman,,,,null,,,,
7060,,,survey-text,277,1780122,0.0-17.0-3.2,45727,List1A,white,woman,,,,,"{""Q0"":""ruth is shouting at beth""}","<img src=""stim_listA/shout7.gif""</stim_listA>",is shouting at,
null,"<div style=""font-size:60px;"">+</div>",,html-keyboard-response,278,1780623,0.0-17.0-0.3,45727,List1A,white,woman,,,,null,,,,
null,"<img src=""stim_listA/marry7.gif""</stim_listA>",,html-keyboard-response,279,1782626,0.0-17.0-1.3,45727,List1A,white,woman,,,,null,,,,
null,is marrying,,html-keyboard-response,280,1784628,0.0-17.0-2.3,45727,List1A,white,woman,,,,null,,,,
4956,,,survey-text,281,1789586,0.0-17.0-3.3,45727,List1A,white,woman,,,,,"{""Q0"":""kate is marrying ruth""}","<img src=""stim_listA/marry7.gif""</stim_listA>",is marrying,
null,"<div style=""font-size:60px;"">+</div>",,html-keyboard-response,282,1790087,0.0-17.0-0.4,45727,List1A,white,woman,,,,null,,,,
null,"<img src=""stim_listA/kiss3.gif""</stim_listA>",,html-keyboard-response,283,1792091,0.0-17.0-1.4,45727,List1A,white,woman,,,,null,,,,
null,is kissing,,html-keyboard-response,284,1794092,0.0-17.0-2.4,45727,List1A,white,woman,,,,null,,,,
5332,,,survey-text,285,1799426,0.0-17.0-3.4,45727,List1A,white,woman,,,,,"{""Q0"":""ruth is kissing luke""}","<img src=""stim_listA/kiss3.gif""</stim_listA>",is kissing,
null,"<div style=""font-size:60px;"">+</div>",,html-keyboard-response,286,1799927,0.0-17.0-0.5,45727,List1A,white,woman,,,,null,,,,
null,"<img src=""stim_listA/hug5.gif""</stim_listA>",,html-keyboard-response,287,1801930,0.0-17.0-1.5,45727,List1A,white,woman,,,,null,,,,
null,is hugging,,html-keyboard-response,288,1803932,0.0-17.0-2.5,45727,List1A,white,woman,,,,null,,,,
6188,,,survey-text,289,1810122,0.0-17.0-3.5,45727,List1A,white,woman,,,,,"{""Q0"":""fred is hugging luke""}","<img src=""stim_listA/hug5.gif""</stim_listA>",is hugging,
null,"<div style=""font-size:60px;"">+</div>",,html-keyboard-response,290,1810623,0.0-17.0-0.6,45727,List1A,white,woman,,,,null,,,,
null,"<img src=""stim_listA/meet5.gif""</stim_listA>",,html-keyboard-response,291,1812628,0.0-17.0-1.6,45727,List1A,white,woman,,,,null,,,,
null,is meeting,,html-keyboard-response,292,1814631,0.0-17.0-2.6,45727,List1A,white,woman,,,,null,,,,
5514,,,survey-text,293,1820146,0.0-17.0-3.6,45727,List1A,white,woman,,,,,"{""Q0"":""mike is meeting dave""}","<img src=""stim_listA/meet5.gif""</stim_listA>",is meeting,
null,"<div style=""font-size:60px;"">+</div>",,html-keyboard-response,294,1820648,0.0-17.0-0.7,45727,List1A,white,woman,,,,null,,,,
null,"<img src=""stim_listA/touch8.gif""</stim_listA>",,html-keyboard-response,295,1822651,0.0-17.0-1.7,45727,List1A,white,woman,,,,null,,,,
null,are touching each other,,html-keyboard-response,296,1824653,0.0-17.0-2.7,45727,List1A,white,woman,,,,null,,,,
12468,,,survey-text,297,1837122,0.0-17.0-3.7,45727,List1A,white,woman,,,,,"{""Q0"":""ruth and beth are touching each other""}","<img src=""stim_listA/touch8.gif""</stim_listA>",are touching each other,
null,"<div style=""font-size:60px;"">+</div>",,html-keyboard-response,298,1837624,0.0-17.0-0.8,45727,List1A,white,woman,,,,null,,,,
null,"<img src=""stim_listA/touch5.gif""</stim_listA>",,html-keyboard-response,299,1839628,0.0-17.0-1.8,45727,List1A,white,woman,,,,null,,,,
null,is touching,,html-keyboard-response,300,1841630,0.0-17.0-2.8,45727,List1A,white,woman,,,,null,,,,
8883,,,survey-text,301,1850514,0.0-17.0-3.8,45727,List1A,white,woman,,,,,"{""Q0"":""mike is touching dave""}","<img src=""stim_listA/touch5.gif""</stim_listA>",is touching,
null,"<div style=""font-size:60px;"">+</div>",,html-keyboard-response,302,1851015,0.0-17.0-0.9,45727,List1A,white,woman,,,,null,,,,
null,"<img src=""stim_listA/marry6.gif""</stim_listA>",,html-keyboard-response,303,1853018,0.0-17.0-1.9,45727,List1A,white,woman,,,,null,,,,
null,are marrying each other,,html-keyboard-response,304,1855020,0.0-17.0-2.9,45727,List1A,white,woman,,,,null,,,,
6925,,,survey-text,305,1861946,0.0-17.0-3.9,45727,List1A,white,woman,,,,,"{""Q0"":""fred and dave are marrying each other""}","<img src=""stim_listA/marry6.gif""</stim_listA>",are marrying each other,
null,"<div style=""font-size:60px;"">+</div>",,html-keyboard-response,306,1862448,0.0-17.0-0.10,45727,List1A,white,woman,,,,null,,,,
null,"<img src=""stim_listA/fight1.gif""</stim_listA>",,html-keyboard-response,307,1864450,0.0-17.0-1.10,45727,List1A,white,woman,,,,null,,,,
null,is fighting,,html-keyboard-response,308,1866453,0.0-17.0-2.10,45727,List1A,white,woman,,,,null,,,,
5045,,,survey-text,309,1871498,0.0-17.0-3.10,45727,List1A,white,woman,,,,,"{""Q0"":""mike is fighting kate""}","<img src=""stim_listA/fight1.gif""</stim_listA>",is fighting,
null,"<div style=""font-size:60px;"">+</div>",,html-keyboard-response,310,1872000,0.0-17.0-0.11,45727,List1A,white,woman,,,,null,,,,
null,"<img src=""stim_listA/touch7.gif""</stim_listA>",,html-keyboard-response,311,1874003,0.0-17.0-1.11,45727,List1A,white,woman,,,,null,,,,
null,is touching,,html-keyboard-response,312,1876006,0.0-17.0-2.11,45727,List1A,white,woman,,,,null,,,,
6148,,,survey-text,313,1882155,0.0-17.0-3.11,45727,List1A,white,woman,,,,,"{""Q0"":""kate is touching jane""}","<img src=""stim_listA/touch7.gif""</stim_listA>",is touching,
null,"<div style=""font-size:60px;"">+</div>",,html-keyboard-response,314,1882657,0.0-17.0-0.12,45727,List1A,white,woman,,,,null,,,,
null,"<img src=""stim_listA/argue5.gif""</stim_listA>",,html-keyboard-response,315,1884660,0.0-17.0-1.12,45727,List1A,white,woman,,,,null,,,,
null,is arguing with,,html-keyboard-response,316,1886662,0.0-17.0-2.12,45727,List1A,white,woman,,,,null,,,,
7316,,,survey-text,317,1893979,0.0-17.0-3.12,45727,List1A,white,woman,,,,,"{""Q0"":""mike is arguing with luke""}","<img src=""stim_listA/argue5.gif""</stim_listA>",is arguing with,
null,"<div style=""font-size:60px;"">+</div>",,html-keyboard-response,318,1894480,0.0-17.0-0.13,45727,List1A,white,woman,,,,null,,,,
null,"<img src=""stim_listA/kiss1.gif""</stim_listA>",,html-keyboard-response,319,1896483,0.0-17.0-1.13,45727,List1A,white,woman,,,,null,,,,
null,is kissing,,html-keyboard-response,320,1898486,0.0-17.0-2.13,45727,List1A,white,woman,,,,null,,,,
118326,,,survey-text,321,2016813,0.0-17.0-3.13,45727,List1A,white,woman,,,,,"{""Q0"":""beth is kissing fred""}","<img src=""stim_listA/kiss1.gif""</stim_listA>",is kissing,
null,"<div style=""font-size:60px;"">+</div>",,html-keyboard-response,322,2017315,0.0-17.0-0.14,45727,List1A,white,woman,,,,null,,,,
null,"<img src=""stim_listA/kiss2.gif""</stim_listA>",,html-keyboard-response,323,2019318,0.0-17.0-1.14,45727,List1A,white,woman,,,,null,,,,
null,are kissing each other,,html-keyboard-response,324,2021319,0.0-17.0-2.14,45727,List1A,white,woman,,,,null,,,,
8501,,,survey-text,325,2029821,0.0-17.0-3.14,45727,List1A,white,woman,,,,,"{""Q0"":""mike and kate are kissing each other""}","<img src=""stim_listA/kiss2.gif""</stim_listA>",are kissing each other,
null,"<div style=""font-size:60px;"">+</div>",,html-keyboard-response,326,2030324,0.0-17.0-0.15,45727,List1A,white,woman,,,,null,,,,
null,"<img src=""stim_listA/talk5.gif""</stim_listA>",,html-keyboard-response,327,2032326,0.0-17.0-1.15,45727,List1A,white,woman,,,,null,,,,
null,is talking to,,html-keyboard-response,328,2034328,0.0-17.0-2.15,45727,List1A,white,woman,,,,null,,,,
6028,,,survey-text,329,2040357,0.0-17.0-3.15,45727,List1A,white,woman,,,,,"{""Q0"":""fred is talking to dave""}","<img src=""stim_listA/talk5.gif""</stim_listA>",is talking to,
null,"<div style=""font-size:60px;"">+</div>",,html-keyboard-response,330,2040859,0.0-17.0-0.16,45727,List1A,white,woman,,,,null,,,,
null,"<img src=""stim_listA/meet4.gif""</stim_listA>",,html-keyboard-response,331,2042861,0.0-17.0-1.16,45727,List1A,white,woman,,,,null,,,,
null,are meeting each other,,html-keyboard-response,332,2044864,0.0-17.0-2.16,45727,List1A,white,woman,,,,null,,,,
8901,,,survey-text,333,2053765,0.0-17.0-3.16,45727,List1A,white,woman,,,,,"{""Q0"":""ruth and luke are meeting each other""}","<img src=""stim_listA/meet4.gif""</stim_listA>",are meeting each other,
null,"<div style=""font-size:60px;"">+</div>",,html-keyboard-response,334,2054267,0.0-17.0-0.17,45727,List1A,white,woman,,,,null,,,,
null,"<img src=""stim_listA/kiss7.gif""</stim_listA>",,html-keyboard-response,335,2056270,0.0-17.0-1.17,45727,List1A,white,woman,,,,null,,,,
null,is kissing,,html-keyboard-response,336,2058273,0.0-17.0-2.17,45727,List1A,white,woman,,,,null,,,,
33748,,,survey-text,337,2092022,0.0-17.0-3.17,45727,List1A,white,woman,,,,,"{""Q0"":""beth is kissing ruth""}","<img src=""stim_listA/kiss7.gif""</stim_listA>",is kissing,
null,"<div style=""font-size:60px;"">+</div>",,html-keyboard-response,338,2092524,0.0-17.0-0.18,45727,List1A,white,woman,,,,null,,,,
null,"<img src=""stim_listA/talk8.gif""</stim_listA>",,html-keyboard-response,339,2094526,0.0-17.0-1.18,45727,List1A,white,woman,,,,null,,,,
null,are talking to each other,,html-keyboard-response,340,2096528,0.0-17.0-2.18,45727,List1A,white,woman,,,,null,,,,
14637,,,survey-text,341,2111166,0.0-17.0-3.18,45727,List1A,white,woman,,,,,"{""Q0"":""ruth and kate are talking to each other""}","<img src=""stim_listA/talk8.gif""</stim_listA>",are talking to each other,
null,"<div style=""font-size:60px;"">+</div>",,html-keyboard-response,342,2111668,0.0-17.0-0.19,45727,List1A,white,woman,,,,null,,,,
null,"<img src=""stim_listA/talk4.gif""</stim_listA>",,html-keyboard-response,343,2113669,0.0-17.0-1.19,45727,List1A,white,woman,,,,null,,,,
null,are talking to each other,,html-keyboard-response,344,2115671,0.0-17.0-2.19,45727,List1A,white,woman,,,,null,,,,
7198,,,survey-text,345,2122870,0.0-17.0-3.19,45727,List1A,white,woman,,,,,"{""Q0"":""luke and ruth are talking to each other""}","<img src=""stim_listA/talk4.gif""</stim_listA>",are talking to each other,
3719,"<img src='img/portrait_matrix_list1.JPG' style='width:900px;height:500px;''></img><p>If you have memorised all the portraits and names and are ready to start, press Continue.</p><p><strong>Please note: Your memory of these faces will be tested 4 times during this experiment.</strong></p>",0,html-button-response,346,2126590,0.0-18.0-0.0,45727,List1A,white,woman,,,,,,,,
2934,"<img src=""portrait/WW1.jpg""style=""width:400px;height:400px;""></img>",1,html-button-response,347,2130526,0.0-18.0-1.0,45727,List1A,white,woman,,TRUE,1,,,,,
null,CORRECT,,html-keyboard-response,348,2132028,0.0-18.0-2.0-0.0,45727,List1A,white,woman,,,,null,,,,
2328,"<img src=""portrait/WM1.jpg""style=""width:400px;height:400px;""></img>",6,html-button-response,349,2134358,0.0-18.0-4.0,45727,List1A,white,woman,,TRUE,6,,,,,
null,CORRECT,,html-keyboard-response,350,2135861,0.0-18.0-5.0-0.0,45727,List1A,white,woman,,,,null,,,,
2128,"<img src=""portrait/BW1.jpg""style=""width:400px;height:400px;""></img>",0,html-button-response,351,2137990,0.0-18.0-7.0,45727,List1A,white,woman,,TRUE,0,,,,,
null,CORRECT,,html-keyboard-response,352,2139492,0.0-18.0-8.0-0.0,45727,List1A,white,woman,,,,null,,,,
1569,"<img src=""portrait/BW2.jpg""style=""width:400px;height:400px;""></img>",2,html-button-response,353,2141062,0.0-18.0-10.0,45727,List1A,white,woman,,TRUE,2,,,,,
null,CORRECT,,html-keyboard-response,354,2142565,0.0-18.0-11.0-0.0,45727,List1A,white,woman,,,,null,,,,
1465,"<img src=""portrait/WM2.jpg""style=""width:400px;height:400px;""></img>",7,html-button-response,355,2144030,0.0-18.0-13.0,45727,List1A,white,woman,,TRUE,7,,,,,
null,CORRECT,,html-keyboard-response,356,2145533,0.0-18.0-14.0-0.0,45727,List1A,white,woman,,,,null,,,,
1344,"<img src=""portrait/BM1.jpg""style=""width:400px;height:400px;""></img>",4,html-button-response,357,2146878,0.0-18.0-16.0,45727,List1A,white,woman,,TRUE,4,,,,,
null,CORRECT,,html-keyboard-response,358,2148381,0.0-18.0-17.0-0.0,45727,List1A,white,woman,,,,null,,,,
3600,"<img src=""portrait/BM2.jpg""style=""width:400px;height:400px;""></img>",5,html-button-response,359,2151983,0.0-18.0-19.0,45727,List1A,white,woman,,TRUE,5,,,,,
null,CORRECT,,html-keyboard-response,360,2153485,0.0-18.0-20.0-0.0,45727,List1A,white,woman,,,,null,,,,
1440,"<img src=""portrait/WW2.jpg""style=""width:400px;height:400px;""></img>",3,html-button-response,361,2154927,0.0-18.0-22.0,45727,List1A,white,woman,,TRUE,3,,,,,
null,CORRECT,,html-keyboard-response,362,2156430,0.0-18.0-23.0-0.0,45727,List1A,white,woman,,,,null,,,,
854,<p>You got 8 out of 8 right first time. Press Continue.</p>,0,html-button-response,363,2157287,0.0-18.0-25.0,45727,List1A,white,woman,,,,,,,,
null,"<div style=""font-size:60px;"">+</div>",,html-keyboard-response,364,2158791,0.0-19.0-0.0,45727,List1A,white,woman,,,,null,,,,
null,"<img src=""stim_listA/hug2.gif""</stim_listA>",,html-keyboard-response,365,2160793,0.0-19.0-1.0,45727,List1A,white,woman,,,,null,,,,
null,are hugging each other,,html-keyboard-response,366,2162796,0.0-19.0-2.0,45727,List1A,white,woman,,,,null,,,,
11386,,,survey-text,367,2174183,0.0-19.0-3.0,45727,List1A,white,woman,,,,,"{""Q0"":""mike and kate are hugging each other""}","<img src=""stim_listA/hug2.gif""</stim_listA>",are hugging each other,
null,"<div style=""font-size:60px;"">+</div>",,html-keyboard-response,368,2174684,0.0-19.0-0.1,45727,List1A,white,woman,,,,null,,,,
null,"<img src=""stim_listA/meet3.gif""</stim_listA>",,html-keyboard-response,369,2176688,0.0-19.0-1.1,45727,List1A,white,woman,,,,null,,,,
null,is meeting,,html-keyboard-response,370,2178691,0.0-19.0-2.1,45727,List1A,white,woman,,,,null,,,,
5651,,,survey-text,371,2184343,0.0-19.0-3.1,45727,List1A,white,woman,,,,,"{""Q0"":""dave is meeting jane""}","<img src=""stim_listA/meet3.gif""</stim_listA>",is meeting,
null,"<div style=""font-size:60px;"">+</div>",,html-keyboard-response,372,2184845,0.0-19.0-0.2,45727,List1A,white,woman,,,,null,,,,
null,"<img src=""stim_listA/shout2.gif""</stim_listA>",,html-keyboard-response,373,2186849,0.0-19.0-1.2,45727,List1A,white,woman,,,,null,,,,
null,are shouting at each other,,html-keyboard-response,374,2188850,0.0-19.0-2.2,45727,List1A,white,woman,,,,null,,,,
10804,,,survey-text,375,2199655,0.0-19.0-3.2,45727,List1A,white,woman,,,,,"{""Q0"":""kate and mike are shouting at each other""}","<img src=""stim_listA/shout2.gif""</stim_listA>",are shouting at each other,
null,"<div style=""font-size:60px;"">+</div>",,html-keyboard-response,376,2200156,0.0-19.0-0.3,45727,List1A,white,woman,,,,null,,,,
null,"<img src=""stim_listA/argue7.gif""</stim_listA>",,html-keyboard-response,377,2202159,0.0-19.0-1.3,45727,List1A,white,woman,,,,null,,,,
null,is arguing with,,html-keyboard-response,378,2204161,0.0-19.0-2.3,45727,List1A,white,woman,,,,null,,,,
5381,,,survey-text,379,2209543,0.0-19.0-3.3,45727,List1A,white,woman,,,,,"{""Q0"":""kate is arguing with ruth""}","<img src=""stim_listA/argue7.gif""</stim_listA>",is arguing with,
null,"<div style=""font-size:60px;"">+</div>",,html-keyboard-response,380,2210044,0.0-19.0-0.4,45727,List1A,white,woman,,,,null,,,,
null,"<img src=""stim_listA/talk1.gif""</stim_listA>",,html-keyboard-response,381,2212048,0.0-19.0-1.4,45727,List1A,white,woman,,,,null,,,,
null,is talking to,,html-keyboard-response,382,2214050,0.0-19.0-2.4,45727,List1A,white,woman,,,,null,,,,
5333,,,survey-text,383,2219384,0.0-19.0-3.4,45727,List1A,white,woman,,,,,"{""Q0"":""fred is talking to kate""}","<img src=""stim_listA/talk1.gif""</stim_listA>",is talking to,
null,"<div style=""font-size:60px;"">+</div>",,html-keyboard-response,384,2219885,0.0-19.0-0.5,45727,List1A,white,woman,,,,null,,,,
null,"<img src=""stim_listA/hug6.gif""</stim_listA>",,html-keyboard-response,385,2221888,0.0-19.0-1.5,45727,List1A,white,woman,,,,null,,,,
null,are hugging each other,,html-keyboard-response,386,2223889,0.0-19.0-2.5,45727,List1A,white,woman,,,,null,,,,
9253,,,survey-text,387,2233144,0.0-19.0-3.5,45727,List1A,white,woman,,,,,"{""Q0"":""dave and mike are hugging each other""}","<img src=""stim_listA/hug6.gif""</stim_listA>",are hugging each other,
null,"<div style=""font-size:60px;"">+</div>",,html-keyboard-response,388,2233646,0.0-19.0-0.6,45727,List1A,white,woman,,,,null,,,,
null,"<img src=""stim_listA/talk6.gif""</stim_listA>",,html-keyboard-response,389,2235647,0.0-19.0-1.6,45727,List1A,white,woman,,,,null,,,,
null,are talking to each other,,html-keyboard-response,390,2237650,0.0-19.0-2.6,45727,List1A,white,woman,,,,null,,,,
7837,,,survey-text,391,2245488,0.0-19.0-3.6,45727,List1A,white,woman,,,,,"{""Q0"":""mike and luke are talking to each other""}","<img src=""stim_listA/talk6.gif""</stim_listA>",are talking to each other,
null,"<div style=""font-size:60px;"">+</div>",,html-keyboard-response,392,2245990,0.0-19.0-0.7,45727,List1A,white,woman,,,,null,,,,
null,"<img src=""stim_listA/meet2.gif""</stim_listA>",,html-keyboard-response,393,2247993,0.0-19.0-1.7,45727,List1A,white,woman,,,,null,,,,
null,are meeting each other,,html-keyboard-response,394,2249994,0.0-19.0-2.7,45727,List1A,white,woman,,,,null,,,,
7468,,,survey-text,395,2257464,0.0-19.0-3.7,45727,List1A,white,woman,,,,,"{""Q0"":""beth and fred are meeting each other""}","<img src=""stim_listA/meet2.gif""</stim_listA>",are meeting each other,
null,"<div style=""font-size:60px;"">+</div>",,html-keyboard-response,396,2257966,0.0-19.0-0.8,45727,List1A,white,woman,,,,null,,,,
null,"<img src=""stim_listA/shout6.gif""</stim_listA>",,html-keyboard-response,397,2259969,0.0-19.0-1.8,45727,List1A,white,woman,,,,null,,,,
null,are shouting at each other,,html-keyboard-response,398,2261971,0.0-19.0-2.8,45727,List1A,white,woman,,,,null,,,,
10332,,,survey-text,399,2272305,0.0-19.0-3.8,45727,List1A,white,woman,,,,,"{""Q0"":""mike and dave are shouting at each other""}","<img src=""stim_listA/shout6.gif""</stim_listA>",are shouting at each other,
null,"<div style=""font-size:60px;"">+</div>",,html-keyboard-response,400,2272806,0.0-19.0-0.9,45727,List1A,white,woman,,,,null,,,,
null,"<img src=""stim_listA/argue3.gif""</stim_listA>",,html-keyboard-response,401,2274810,0.0-19.0-1.9,45727,List1A,white,woman,,,,null,,,,
null,is arguing with,,html-keyboard-response,402,2276811,0.0-19.0-2.9,45727,List1A,white,woman,,,,null,,,,
11596,,,survey-text,403,2288409,0.0-19.0-3.9,45727,List1A,white,woman,,,,,"{""Q0"":""ruth is arguing with dave""}","<img src=""stim_listA/argue3.gif""</stim_listA>",is arguing with,
null,"<div style=""font-size:60px;"">+</div>",,html-keyboard-response,404,2288911,0.0-19.0-0.10,45727,List1A,white,woman,,,,null,,,,
null,"<img src=""stim_listA/shout3.gif""</stim_listA>",,html-keyboard-response,405,2290915,0.0-19.0-1.10,45727,List1A,white,woman,,,,null,,,,
null,is shouting at,,html-keyboard-response,406,2292919,0.0-19.0-2.10,45727,List1A,white,woman,,,,null,,,,
5248,,,survey-text,407,2298169,0.0-19.0-3.10,45727,List1A,white,woman,,,,,"{""Q0"":""ruth is shouting at luke""}","<img src=""stim_listA/shout3.gif""</stim_listA>",is shouting at,
null,"<div style=""font-size:60px;"">+</div>",,html-keyboard-response,408,2298670,0.0-19.0-0.11,45727,List1A,white,woman,,,,null,,,,
null,"<img src=""stim_listA/meet8.gif""</stim_listA>",,html-keyboard-response,409,2300673,0.0-19.0-1.11,45727,List1A,white,woman,,,,null,,,,
null,are meeting each other,,html-keyboard-response,410,2302675,0.0-19.0-2.11,45727,List1A,white,woman,,,,null,,,,
13260,,,survey-text,411,2315937,0.0-19.0-3.11,45727,List1A,white,woman,,,,,"{""Q0"":""ruth and beth are meeting each other""}","<img src=""stim_listA/meet8.gif""</stim_listA>",are meeting each other,
null,"<div style=""font-size:60px;"">+</div>",,html-keyboard-response,412,2316439,0.0-19.0-0.12,45727,List1A,white,woman,,,,null,,,,
null,"<img src=""stim_listA/dance3.gif""</stim_listA>",,html-keyboard-response,413,2318442,0.0-19.0-1.12,45727,List1A,white,woman,,,,null,,,,
null,is dancing with,,html-keyboard-response,414,2320444,0.0-19.0-2.12,45727,List1A,white,woman,,,,null,,,,
7434,,,survey-text,415,2327881,0.0-19.0-3.12,45727,List1A,white,woman,,,,,"{""Q0"":""luke is dancing with jane""}","<img src=""stim_listA/dance3.gif""</stim_listA>",is dancing with,
null,"<div style=""font-size:60px;"">+</div>",,html-keyboard-response,416,2328382,0.0-19.0-0.13,45727,List1A,white,woman,,,,null,,,,
null,"<img src=""stim_listA/dance6.gif""</stim_listA>",,html-keyboard-response,417,2330385,0.0-19.0-1.13,45727,List1A,white,woman,,,,null,,,,
null,are dancing with each other,,html-keyboard-response,418,2332389,0.0-19.0-2.13,45727,List1A,white,woman,,,,null,,,,
9612,,,survey-text,419,2342002,0.0-19.0-3.13,45727,List1A,white,woman,,,,,"{""Q0"":""luke and mike are dancing with each other""}","<img src=""stim_listA/dance6.gif""</stim_listA>",are dancing with each other,
null,"<div style=""font-size:60px;"">+</div>",,html-keyboard-response,420,2342503,0.0-19.0-0.14,45727,List1A,white,woman,,,,null,,,,
null,"<img src=""stim_listA/hug8.gif""</stim_listA>",,html-keyboard-response,421,2344506,0.0-19.0-1.14,45727,List1A,white,woman,,,,null,,,,
null,are hugging each other,,html-keyboard-response,422,2346508,0.0-19.0-2.14,45727,List1A,white,woman,,,,null,,,,
12493,,,survey-text,423,2359002,0.0-19.0-3.14,45727,List1A,white,woman,,,,,"{""Q0"":""jane and kate are hugging each other""}","<img src=""stim_listA/hug8.gif""</stim_listA>",are hugging each other,
null,"<div style=""font-size:60px;"">+</div>",,html-keyboard-response,424,2359504,0.0-19.0-0.15,45727,List1A,white,woman,,,,null,,,,
null,"<img src=""stim_listA/kiss4.gif""</stim_listA>",,html-keyboard-response,425,2361507,0.0-19.0-1.15,45727,List1A,white,woman,,,,null,,,,
null,are kissing each other,,html-keyboard-response,426,2363509,0.0-19.0-2.15,45727,List1A,white,woman,,,,null,,,,
7564,,,survey-text,427,2371074,0.0-19.0-3.15,45727,List1A,white,woman,,,,,"{""Q0"":""jane and dave are kissing each other""}","<img src=""stim_listA/kiss4.gif""</stim_listA>",are kissing each other,
null,"<div style=""font-size:60px;"">+</div>",,html-keyboard-response,428,2371575,0.0-19.0-0.16,45727,List1A,white,woman,,,,null,,,,
null,"<img src=""stim_listA/fight2.gif""</stim_listA>",,html-keyboard-response,429,2373578,0.0-19.0-1.16,45727,List1A,white,woman,,,,null,,,,
null,are fighting each other,,html-keyboard-response,430,2375581,0.0-19.0-2.16,45727,List1A,white,woman,,,,null,,,,
303839,,,survey-text,431,2679422,0.0-19.0-3.16,45727,List1A,white,woman,,,,,"{""Q0"":""beth and fred are fighting each other""}","<img src=""stim_listA/fight2.gif""</stim_listA>",are fighting each other,
null,"<div style=""font-size:60px;"">+</div>",,html-keyboard-response,432,2679927,0.0-19.0-0.17,45727,List1A,white,woman,,,,null,,,,
null,"<img src=""stim_listA/touch6.gif""</stim_listA>",,html-keyboard-response,433,2681929,0.0-19.0-1.17,45727,List1A,white,woman,,,,null,,,,
null,are touching each other,,html-keyboard-response,434,2683932,0.0-19.0-2.17,45727,List1A,white,woman,,,,null,,,,
7256,,,survey-text,435,2691190,0.0-19.0-3.17,45727,List1A,white,woman,,,,,"{""Q0"":""luke and fred are touching each other""}","<img src=""stim_listA/touch6.gif""</stim_listA>",are touching each other,
null,"<div style=""font-size:60px;"">+</div>",,html-keyboard-response,436,2691691,0.0-19.0-0.18,45727,List1A,white,woman,,,,null,,,,
null,"<img src=""stim_listA/shout1.gif""</stim_listA>",,html-keyboard-response,437,2693694,0.0-19.0-1.18,45727,List1A,white,woman,,,,null,,,,
null,is shouting at,,html-keyboard-response,438,2695697,0.0-19.0-2.18,45727,List1A,white,woman,,,,null,,,,
5995,,,survey-text,439,2701694,0.0-19.0-3.18,45727,List1A,white,woman,,,,,"{""Q0"":""fred is shouting at beth""}","<img src=""stim_listA/shout1.gif""</stim_listA>",is shouting at,
null,"<div style=""font-size:60px;"">+</div>",,html-keyboard-response,440,2702196,0.0-19.0-0.19,45727,List1A,white,woman,,,,null,,,,
null,"<img src=""stim_listA/kiss8.gif""</stim_listA>",,html-keyboard-response,441,2704200,0.0-19.0-1.19,45727,List1A,white,woman,,,,null,,,,
null,are kissing each other,,html-keyboard-response,442,2706202,0.0-19.0-2.19,45727,List1A,white,woman,,,,null,,,,
10754,,,survey-text,443,2716958,0.0-19.0-3.19,45727,List1A,white,woman,,,,,"{""Q0"":""jane and kate are kissing each other""}","<img src=""stim_listA/kiss8.gif""</stim_listA>",are kissing each other,
2168,<p>Thank you for completing that task.</p><p>The final part of this session is a short questionnaire.</p><p>Press Continue.</p>,0,html-button-response,444,2719126,0.0-20.0,45727,List1A,white,woman,,,,,,,,
17955,,,survey-text,445,2738086,0.0-21.0,45727,List1A,white,woman,,,,,"{""Q0"":""23"",""Q1"":""English"",""Q2"":""English"",""Q3"":""Wales"",""Q4"":""White British"",""Q5"":""Female""}",,,demographics
49400,,,survey-likert,446,2787490,0.0-22.0,45727,List1A,white,woman,,,,,"{""Q0"":5,""Q1"":5,""Q2"":5,""Q3"":6,""Q4"":2,""Q5"":5,""Q6"":3,""Q7"":2,""Q8"":4,""Q9"":5,""Q10"":4,""Q11"":4,""Q12"":1,""Q13"":1}",,,likert_race
37014,,,survey-likert,447,2824507,0.0-23.0,45727,List1A,white,woman,,,,,"{""Q0"":5,""Q1"":6,""Q2"":6,""Q3"":6,""Q4"":5,""Q5"":4,""Q6"":5,""Q7"":5,""Q8"":1,""Q9"":5,""Q10"":1,""Q11"":2,""Q12"":4,""Q13"":2}",,,likert_gender
8084,,,survey-text,448,2832592,0.0-24.0,45727,List1A,white,woman,,,,,"{""Q0"":""ccc""}",,,worker_id
32882,,,external-html,449,2865530,0.0-25.0,45727,List1A,white,woman,debrief.html,,,,,,,
