rt,stimulus,button_pressed,trial_type,trial_index,time_elapsed,internal_node_id,subject,list,ppt_race,ppt_gender,url,first_guess,correct,key_press,responses,image_type,phrase_type,test_part
183031,Welcome to the experiment. Press Continue to begin.,0,html-button-response,0,183036,0.0-0.0,4626,List1B,white,man,,,,,,,,
14067,,,external-html,1,198172,0.0-1.0,4626,List1B,white,man,consent.html,,,,,,,
1057,"<p>On the next page, you will see portraits of 8 people and their names.</p><p>Your first task is to take a few minutes to memorise the names of these people.</p><p>You will have to recall their names during the rest of the experiment, so it is</p><p>essential that you try to memorise these people and their names as best as you can.</p><br><p><strong>You will then be tested on your memory of these names and portraits.</strong></p><br><p>The experiment will start after you have completed this memory test.</p><br><p>Ready?</p>",0,html-button-response,2,199230,0.0-2.0,4626,List1B,white,man,,,,,,,,
7528,"<img src='img/portrait_matrix_list1.JPG' style='width:900px;height:500px;''></img><p>If you have memorised all the portraits and names and are ready to start, press Continue.</p><p><strong>Please note: Your memory of these faces will be tested 4 times during this experiment.</strong></p>",0,html-button-response,3,207764,0.0-3.0-0.0,4626,List1B,white,man,,,,,,,,
4116,"<img src=""portrait/BW2.jpg""style=""width:400px;height:400px;""></img>",0,html-button-response,4,212888,0.0-3.0-1.0,4626,List1B,white,man,,TRUE,2,,,,,
4670,"<img src=""portrait/BW2.jpg""style=""width:400px;height:400px;""></img>",2,html-button-response,5,218564,0.0-3.0-3.0-0.0,4626,List1B,white,man,,FALSE,2,,,,,
null,CORRECT,,html-keyboard-response,6,220077,0.0-3.0-3.0-1.0-0.0,4626,List1B,white,man,,,,null,,,,
3796,"<img src=""portrait/BM2.jpg""style=""width:400px;height:400px;""></img>",7,html-button-response,7,223877,0.0-3.0-4.0,4626,List1B,white,man,,TRUE,5,,,,,
6080,"<img src=""portrait/BM2.jpg""style=""width:400px;height:400px;""></img>",5,html-button-response,8,230962,0.0-3.0-6.0-0.0,4626,List1B,white,man,,FALSE,5,,,,,
null,CORRECT,,html-keyboard-response,9,232470,0.0-3.0-6.0-1.0-0.0,4626,List1B,white,man,,,,null,,,,
4763,"<img src=""portrait/WM1.jpg""style=""width:400px;height:400px;""></img>",4,html-button-response,10,237235,0.0-3.0-7.0,4626,List1B,white,man,,TRUE,6,,,,,
1951,"<img src=""portrait/WM1.jpg""style=""width:400px;height:400px;""></img>",6,html-button-response,11,240191,0.0-3.0-9.0-0.0,4626,List1B,white,man,,FALSE,6,,,,,
null,CORRECT,,html-keyboard-response,12,241697,0.0-3.0-9.0-1.0-0.0,4626,List1B,white,man,,,,null,,,,
2373,"<img src=""portrait/WM2.jpg""style=""width:400px;height:400px;""></img>",7,html-button-response,13,244072,0.0-3.0-10.0,4626,List1B,white,man,,TRUE,7,,,,,
null,CORRECT,,html-keyboard-response,14,245582,0.0-3.0-11.0-0.0,4626,List1B,white,man,,,,null,,,,
2713,"<img src=""portrait/BW1.jpg""style=""width:400px;height:400px;""></img>",3,html-button-response,15,248297,0.0-3.0-13.0,4626,List1B,white,man,,TRUE,0,,,,,
1972,"<img src=""portrait/BW1.jpg""style=""width:400px;height:400px;""></img>",0,html-button-response,16,251273,0.0-3.0-15.0-0.0,4626,List1B,white,man,,FALSE,0,,,,,
null,CORRECT,,html-keyboard-response,17,252775,0.0-3.0-15.0-1.0-0.0,4626,List1B,white,man,,,,null,,,,
6118,"<img src=""portrait/BM1.jpg""style=""width:400px;height:400px;""></img>",4,html-button-response,18,258895,0.0-3.0-16.0,4626,List1B,white,man,,TRUE,4,,,,,
null,CORRECT,,html-keyboard-response,19,260398,0.0-3.0-17.0-0.0,4626,List1B,white,man,,,,null,,,,
3528,"<img src=""portrait/WW1.jpg""style=""width:400px;height:400px;""></img>",1,html-button-response,20,263928,0.0-3.0-19.0,4626,List1B,white,man,,TRUE,1,,,,,
null,CORRECT,,html-keyboard-response,21,265437,0.0-3.0-20.0-0.0,4626,List1B,white,man,,,,null,,,,
180305,"<img src=""portrait/WW2.jpg""style=""width:400px;height:400px;""></img>",1,html-button-response,22,445744,0.0-3.0-22.0,4626,List1B,white,man,,TRUE,3,,,,,
2316,"<img src=""portrait/WW2.jpg""style=""width:400px;height:400px;""></img>",3,html-button-response,23,449066,0.0-3.0-24.0-0.0,4626,List1B,white,man,,FALSE,3,,,,,
null,CORRECT,,html-keyboard-response,24,450570,0.0-3.0-24.0-1.0-0.0,4626,List1B,white,man,,,,null,,,,
2089,<p>You got 3 out of 8 right first time. Press Continue.</p>,0,html-button-response,25,452660,0.0-3.0-25.0,4626,List1B,white,man,,,,,,,,
3878,"As you did not score 100%, the memory game will repeat. Press Continue.",0,html-button-response,26,457542,0.0-3.0-26.0-0.0,4626,List1B,white,man,,,,,,,,
45739,"<img src='img/portrait_matrix_list1.JPG' style='width:900px;height:500px;''></img><p>If you have memorised all the portraits and names and are ready to start, press Continue.</p><p><strong>Please note: Your memory of these faces will be tested 4 times during this experiment.</strong></p>",0,html-button-response,27,504285,0.0-3.1-0.1,4626,List1B,white,man,,,,,,,,
3740,"<img src=""portrait/BW2.jpg""style=""width:400px;height:400px;""></img>",0,html-button-response,28,509033,0.0-3.1-1.1,4626,List1B,white,man,,TRUE,2,,,,,
6991,"<img src=""portrait/BW2.jpg""style=""width:400px;height:400px;""></img>",2,html-button-response,29,517029,0.0-3.1-3.1-0.1,4626,List1B,white,man,,FALSE,2,,,,,
null,CORRECT,,html-keyboard-response,30,518537,0.0-3.1-3.1-1.1-0.1,4626,List1B,white,man,,,,null,,,,
3854,"<img src=""portrait/BM2.jpg""style=""width:400px;height:400px;""></img>",5,html-button-response,31,522393,0.0-3.1-4.1,4626,List1B,white,man,,TRUE,5,,,,,
null,CORRECT,,html-keyboard-response,32,523896,0.0-3.1-5.1-0.1,4626,List1B,white,man,,,,null,,,,
4108,"<img src=""portrait/WM1.jpg""style=""width:400px;height:400px;""></img>",6,html-button-response,33,528007,0.0-3.1-7.1,4626,List1B,white,man,,TRUE,6,,,,,
null,CORRECT,,html-keyboard-response,34,529514,0.0-3.1-8.1-0.1,4626,List1B,white,man,,,,null,,,,
3919,"<img src=""portrait/WM2.jpg""style=""width:400px;height:400px;""></img>",7,html-button-response,35,533436,0.0-3.1-10.1,4626,List1B,white,man,,TRUE,7,,,,,
null,CORRECT,,html-keyboard-response,36,534940,0.0-3.1-11.1-0.1,4626,List1B,white,man,,,,null,,,,
2930,"<img src=""portrait/BW1.jpg""style=""width:400px;height:400px;""></img>",0,html-button-response,37,537873,0.0-3.1-13.1,4626,List1B,white,man,,TRUE,0,,,,,
null,CORRECT,,html-keyboard-response,38,539375,0.0-3.1-14.1-0.1,4626,List1B,white,man,,,,null,,,,
3163,"<img src=""portrait/BM1.jpg""style=""width:400px;height:400px;""></img>",4,html-button-response,39,542540,0.0-3.1-16.1,4626,List1B,white,man,,TRUE,4,,,,,
null,CORRECT,,html-keyboard-response,40,544044,0.0-3.1-17.1-0.1,4626,List1B,white,man,,,,null,,,,
4315,"<img src=""portrait/WW1.jpg""style=""width:400px;height:400px;""></img>",3,html-button-response,41,548361,0.0-3.1-19.1,4626,List1B,white,man,,TRUE,1,,,,,
8925,"<img src=""portrait/WW1.jpg""style=""width:400px;height:400px;""></img>",1,html-button-response,42,558295,0.0-3.1-21.1-0.1,4626,List1B,white,man,,FALSE,1,,,,,
null,CORRECT,,html-keyboard-response,43,559799,0.0-3.1-21.1-1.1-0.1,4626,List1B,white,man,,,,null,,,,
2986,"<img src=""portrait/WW2.jpg""style=""width:400px;height:400px;""></img>",3,html-button-response,44,562787,0.0-3.1-22.1,4626,List1B,white,man,,TRUE,3,,,,,
null,CORRECT,,html-keyboard-response,45,564295,0.0-3.1-23.1-0.1,4626,List1B,white,man,,,,null,,,,
1474,<p>You got 6 out of 8 right first time. Press Continue.</p>,0,html-button-response,46,565771,0.0-3.1-25.1,4626,List1B,white,man,,,,,,,,
831,"As you did not score 100%, the memory game will repeat. Press Continue.",0,html-button-response,47,567606,0.0-3.1-26.1-0.1,4626,List1B,white,man,,,,,,,,
1650,"<img src='img/portrait_matrix_list1.JPG' style='width:900px;height:500px;''></img><p>If you have memorised all the portraits and names and are ready to start, press Continue.</p><p><strong>Please note: Your memory of these faces will be tested 4 times during this experiment.</strong></p>",0,html-button-response,48,570261,0.0-3.2-0.2,4626,List1B,white,man,,,,,,,,
2439,"<img src=""portrait/BW2.jpg""style=""width:400px;height:400px;""></img>",2,html-button-response,49,573707,0.0-3.2-1.2,4626,List1B,white,man,,TRUE,2,,,,,
null,CORRECT,,html-keyboard-response,50,575213,0.0-3.2-2.2-0.2,4626,List1B,white,man,,,,null,,,,
3082,"<img src=""portrait/BM2.jpg""style=""width:400px;height:400px;""></img>",5,html-button-response,51,578297,0.0-3.2-4.2,4626,List1B,white,man,,TRUE,5,,,,,
null,CORRECT,,html-keyboard-response,52,579806,0.0-3.2-5.2-0.2,4626,List1B,white,man,,,,null,,,,
6936,"<img src=""portrait/WM1.jpg""style=""width:400px;height:400px;""></img>",6,html-button-response,53,586744,0.0-3.2-7.2,4626,List1B,white,man,,TRUE,6,,,,,
null,CORRECT,,html-keyboard-response,54,588253,0.0-3.2-8.2-0.2,4626,List1B,white,man,,,,null,,,,
4889,"<img src=""portrait/WM2.jpg""style=""width:400px;height:400px;""></img>",7,html-button-response,55,593145,0.0-3.2-10.2,4626,List1B,white,man,,TRUE,7,,,,,
null,CORRECT,,html-keyboard-response,56,594651,0.0-3.2-11.2-0.2,4626,List1B,white,man,,,,null,,,,
6125,"<img src=""portrait/BW1.jpg""style=""width:400px;height:400px;""></img>",0,html-button-response,57,600778,0.0-3.2-13.2,4626,List1B,white,man,,TRUE,0,,,,,
null,CORRECT,,html-keyboard-response,58,602286,0.0-3.2-14.2-0.2,4626,List1B,white,man,,,,null,,,,
8145,"<img src=""portrait/BM1.jpg""style=""width:400px;height:400px;""></img>",4,html-button-response,59,610433,0.0-3.2-16.2,4626,List1B,white,man,,TRUE,4,,,,,
null,CORRECT,,html-keyboard-response,60,611941,0.0-3.2-17.2-0.2,4626,List1B,white,man,,,,null,,,,
3374,"<img src=""portrait/WW1.jpg""style=""width:400px;height:400px;""></img>",1,html-button-response,61,615317,0.0-3.2-19.2,4626,List1B,white,man,,TRUE,1,,,,,
null,CORRECT,,html-keyboard-response,62,616824,0.0-3.2-20.2-0.2,4626,List1B,white,man,,,,null,,,,
2714,"<img src=""portrait/WW2.jpg""style=""width:400px;height:400px;""></img>",3,html-button-response,63,619540,0.0-3.2-22.2,4626,List1B,white,man,,TRUE,3,,,,,
null,CORRECT,,html-keyboard-response,64,621049,0.0-3.2-23.2-0.2,4626,List1B,white,man,,,,null,,,,
1097,<p>You got 8 out of 8 right first time. Press Continue.</p>,0,html-button-response,65,622148,0.0-3.2-25.2,4626,List1B,white,man,,,,,,,,
569047,"<p>In this experiment, you will view photographs of the people from the memory game interacting.</p><p>By using the <strong>exact</strong> phrase given <i>after</i> the photograph appears and recalling the correct names of the people in the photographs, form a sentence describing the interaction. You do not need to capitalise names.</p><p>Type your answer in the space provided. Please complete every sentence before moving onto the next trial.</p><p>You will only have a few seconds to memorise each given photograph and phrase before you can respond, so try your best to focus.</p><p>An example is given below. Press 'Continue' when you are ready.</p><img src='img/speaking_example_v2.jpg' style='width:800px;height:460px;''></img>",0,html-button-response,66,1192199,0.0-4.0,4626,List1B,white,man,,,,,,,,
2142,"<p>Before the experiment starts, you will watch two example trials. Press 'Continue'.</p>",0,html-button-response,67,1195344,0.0-5.0,4626,List1B,white,man,,,,,,,,
null,<img src='img/speaking_WW.gif'></img>,,html-keyboard-response,68,1198349,0.0-6.0,4626,List1B,white,man,,,,null,,,,
null,<p>is speaking to</p>,,html-keyboard-response,69,1200352,0.0-7.0,4626,List1B,white,man,,,,null,,,,
1329,<p><b>Answer:</b> kate is speaking to beth</p>,0,html-button-response,70,1201682,0.0-8.0,4626,List1B,white,man,,,,,,,,
null,<img src='img/pointing_BM.gif'></img>,,html-keyboard-response,71,1204691,0.0-9.0,4626,List1B,white,man,,,,null,,,,
null,<p>are pointing at each other</p>,,html-keyboard-response,72,1206695,0.0-10.0,4626,List1B,white,man,,,,null,,,,
4534,<p><b>Answer:</b> luke and dave are pointing at each other</p>,0,html-button-response,73,1211230,0.0-11.0,4626,List1B,white,man,,,,,,,,
9643,"<p>Ready to start the experiment?</p><br><p><strong>Remember to describe the picture using a full sentence,</strong></p><p><strong>that combines the names of the people with the given phrase.</strong></p><p><strong>If you do not do this correctly you will not be paid.</strong></p><p><strong> You do not need to capitalise names or use punctuation.</strong></p><br><p>Press 'Continue' to begin.</p>",0,html-button-response,74,1221878,0.0-12.0,4626,List1B,white,man,,,,,,,,
null,"<div style=""font-size:60px;"">+</div>",,html-keyboard-response,75,1223388,0.0-13.0-0.0,4626,List1B,white,man,,,,null,,,,
null,"<img src=""stim_listB/dance5.gif""</stim_listB>",,html-keyboard-response,76,1225392,0.0-13.0-1.0,4626,List1B,white,man,,,,null,,,,
null,is dancing with,,html-keyboard-response,77,1227395,0.0-13.0-2.0,4626,List1B,white,man,,,,null,,,,
15067,,,survey-text,78,1242464,0.0-13.0-3.0,4626,List1B,white,man,,,,,"{""Q0"":""Fred is dancing with Luke""}","<img src=""stim_listB/dance5.gif""</stim_listB>",is dancing with,
null,"<div style=""font-size:60px;"">+</div>",,html-keyboard-response,79,1242966,0.0-13.0-0.1,4626,List1B,white,man,,,,null,,,,
null,"<img src=""stim_listB/hug6.gif""</stim_listB>",,html-keyboard-response,80,1244970,0.0-13.0-1.1,4626,List1B,white,man,,,,null,,,,
null,are hugging each other,,html-keyboard-response,81,1246971,0.0-13.0-2.1,4626,List1B,white,man,,,,null,,,,
19437,,,survey-text,82,1266408,0.0-13.0-3.1,4626,List1B,white,man,,,,,"{""Q0"":""Mike is dancing with Luke""}","<img src=""stim_listB/hug6.gif""</stim_listB>",are hugging each other,
null,"<div style=""font-size:60px;"">+</div>",,html-keyboard-response,83,1266912,0.0-13.0-0.2,4626,List1B,white,man,,,,null,,,,
null,"<img src=""stim_listB/kiss6.gif""</stim_listB>",,html-keyboard-response,84,1268917,0.0-13.0-1.2,4626,List1B,white,man,,,,null,,,,
null,are kissing each other,,html-keyboard-response,85,1270921,0.0-13.0-2.2,4626,List1B,white,man,,,,null,,,,
9462,,,survey-text,86,1280385,0.0-13.0-3.2,4626,List1B,white,man,,,,,"{""Q0"":""Mike is kissing Luke""}","<img src=""stim_listB/kiss6.gif""</stim_listB>",are kissing each other,
null,"<div style=""font-size:60px;"">+</div>",,html-keyboard-response,87,1280889,0.0-13.0-0.3,4626,List1B,white,man,,,,null,,,,
null,"<img src=""stim_listB/marry2.gif""</stim_listB>",,html-keyboard-response,88,1282895,0.0-13.0-1.3,4626,List1B,white,man,,,,null,,,,
null,are marrying each other,,html-keyboard-response,89,1284897,0.0-13.0-2.3,4626,List1B,white,man,,,,null,,,,
9622,,,survey-text,90,1294520,0.0-13.0-3.3,4626,List1B,white,man,,,,,"{""Q0"":""Fred is dancing with Kate""}","<img src=""stim_listB/marry2.gif""</stim_listB>",are marrying each other,
null,"<div style=""font-size:60px;"">+</div>",,html-keyboard-response,91,1295022,0.0-13.0-0.4,4626,List1B,white,man,,,,null,,,,
null,"<img src=""stim_listB/shout4.gif""</stim_listB>",,html-keyboard-response,92,1297027,0.0-13.0-1.4,4626,List1B,white,man,,,,null,,,,
null,are shouting at each other,,html-keyboard-response,93,1299029,0.0-13.0-2.4,4626,List1B,white,man,,,,null,,,,
14433,,,survey-text,94,1313463,0.0-13.0-3.4,4626,List1B,white,man,,,,,"{""Q0"":""Dave is shouting at Jane""}","<img src=""stim_listB/shout4.gif""</stim_listB>",are shouting at each other,
null,"<div style=""font-size:60px;"">+</div>",,html-keyboard-response,95,1313968,0.0-13.0-0.5,4626,List1B,white,man,,,,null,,,,
null,"<img src=""stim_listB/dance4.gif""</stim_listB>",,html-keyboard-response,96,1315972,0.0-13.0-1.5,4626,List1B,white,man,,,,null,,,,
null,are dancing with each other,,html-keyboard-response,97,1317976,0.0-13.0-2.5,4626,List1B,white,man,,,,null,,,,
14263,,,survey-text,98,1332241,0.0-13.0-3.5,4626,List1B,white,man,,,,,"{""Q0"":""Dave is dancing with Ruth""}","<img src=""stim_listB/dance4.gif""</stim_listB>",are dancing with each other,
null,"<div style=""font-size:60px;"">+</div>",,html-keyboard-response,99,1332747,0.0-13.0-0.6,4626,List1B,white,man,,,,null,,,,
null,"<img src=""stim_listB/meet2.gif""</stim_listB>",,html-keyboard-response,100,1334751,0.0-13.0-1.6,4626,List1B,white,man,,,,null,,,,
null,are meeting each other,,html-keyboard-response,101,1336755,0.0-13.0-2.6,4626,List1B,white,man,,,,null,,,,
10142,,,survey-text,102,1346898,0.0-13.0-3.6,4626,List1B,white,man,,,,,"{""Q0"":""Fred is shaking hands with Beth""}","<img src=""stim_listB/meet2.gif""</stim_listB>",are meeting each other,
null,"<div style=""font-size:60px;"">+</div>",,html-keyboard-response,103,1347403,0.0-13.0-0.7,4626,List1B,white,man,,,,null,,,,
null,"<img src=""stim_listB/hug8.gif""</stim_listB>",,html-keyboard-response,104,1349406,0.0-13.0-1.7,4626,List1B,white,man,,,,null,,,,
null,are hugging each other,,html-keyboard-response,105,1351407,0.0-13.0-2.7,4626,List1B,white,man,,,,null,,,,
9060,,,survey-text,106,1360469,0.0-13.0-3.7,4626,List1B,white,man,,,,,"{""Q0"":""Kate is hugging Jane""}","<img src=""stim_listB/hug8.gif""</stim_listB>",are hugging each other,
null,"<div style=""font-size:60px;"">+</div>",,html-keyboard-response,107,1360975,0.0-13.0-0.8,4626,List1B,white,man,,,,null,,,,
null,"<img src=""stim_listB/meet8.gif""</stim_listB>",,html-keyboard-response,108,1362981,0.0-13.0-1.8,4626,List1B,white,man,,,,null,,,,
null,are meeting each other,,html-keyboard-response,109,1364984,0.0-13.0-2.8,4626,List1B,white,man,,,,null,,,,
10976,,,survey-text,110,1375961,0.0-13.0-3.8,4626,List1B,white,man,,,,,"{""Q0"":""Beth + Jane""}","<img src=""stim_listB/meet8.gif""</stim_listB>",are meeting each other,
null,"<div style=""font-size:60px;"">+</div>",,html-keyboard-response,111,1376465,0.0-13.0-0.9,4626,List1B,white,man,,,,null,,,,
null,"<img src=""stim_listB/touch7.gif""</stim_listB>",,html-keyboard-response,112,1378466,0.0-13.0-1.9,4626,List1B,white,man,,,,null,,,,
null,is touching,,html-keyboard-response,113,1380467,0.0-13.0-2.9,4626,List1B,white,man,,,,null,,,,
6959,,,survey-text,114,1387426,0.0-13.0-3.9,4626,List1B,white,man,,,,,"{""Q0"":""Kate is touching Jane""}","<img src=""stim_listB/touch7.gif""</stim_listB>",is touching,
null,"<div style=""font-size:60px;"">+</div>",,html-keyboard-response,115,1387931,0.0-13.0-0.10,4626,List1B,white,man,,,,null,,,,
null,"<img src=""stim_listB/touch1.gif""</stim_listB>",,html-keyboard-response,116,1389933,0.0-13.0-1.10,4626,List1B,white,man,,,,null,,,,
null,is touching,,html-keyboard-response,117,1391937,0.0-13.0-2.10,4626,List1B,white,man,,,,null,,,,
10051,,,survey-text,118,1401991,0.0-13.0-3.10,4626,List1B,white,man,,,,,"{""Q0"":""Mike is touching Kate""}","<img src=""stim_listB/touch1.gif""</stim_listB>",is touching,
null,"<div style=""font-size:60px;"">+</div>",,html-keyboard-response,119,1402494,0.0-13.0-0.11,4626,List1B,white,man,,,,null,,,,
null,"<img src=""stim_listB/meet7.gif""</stim_listB>",,html-keyboard-response,120,1404496,0.0-13.0-1.11,4626,List1B,white,man,,,,null,,,,
null,is meeting,,html-keyboard-response,121,1406497,0.0-13.0-2.11,4626,List1B,white,man,,,,null,,,,
5857,,,survey-text,122,1412356,0.0-13.0-3.11,4626,List1B,white,man,,,,,"{""Q0"":""Kate is meeting Jane""}","<img src=""stim_listB/meet7.gif""</stim_listB>",is meeting,
null,"<div style=""font-size:60px;"">+</div>",,html-keyboard-response,123,1412860,0.0-13.0-0.12,4626,List1B,white,man,,,,null,,,,
null,"<img src=""stim_listB/marry6.gif""</stim_listB>",,html-keyboard-response,124,1414865,0.0-13.0-1.12,4626,List1B,white,man,,,,null,,,,
null,are marrying each other,,html-keyboard-response,125,1416867,0.0-13.0-2.12,4626,List1B,white,man,,,,null,,,,
11406,,,survey-text,126,1428275,0.0-13.0-3.12,4626,List1B,white,man,,,,,"{""Q0"":""fred and dave are marrying each other""}","<img src=""stim_listB/marry6.gif""</stim_listB>",are marrying each other,
null,"<div style=""font-size:60px;"">+</div>",,html-keyboard-response,127,1428781,0.0-13.0-0.13,4626,List1B,white,man,,,,null,,,,
null,"<img src=""stim_listB/shout1.gif""</stim_listB>",,html-keyboard-response,128,1430787,0.0-13.0-1.13,4626,List1B,white,man,,,,null,,,,
null,is shouting at,,html-keyboard-response,129,1432789,0.0-13.0-2.13,4626,List1B,white,man,,,,null,,,,
8340,,,survey-text,130,1441131,0.0-13.0-3.13,4626,List1B,white,man,,,,,"{""Q0"":""fred is shouting at beth""}","<img src=""stim_listB/shout1.gif""</stim_listB>",is shouting at,
null,"<div style=""font-size:60px;"">+</div>",,html-keyboard-response,131,1441637,0.0-13.0-0.14,4626,List1B,white,man,,,,null,,,,
null,"<img src=""stim_listB/touch8.gif""</stim_listB>",,html-keyboard-response,132,1443641,0.0-13.0-1.14,4626,List1B,white,man,,,,null,,,,
null,are touching each other,,html-keyboard-response,133,1445643,0.0-13.0-2.14,4626,List1B,white,man,,,,null,,,,
10778,,,survey-text,134,1456423,0.0-13.0-3.14,4626,List1B,white,man,,,,,"{""Q0"":""beth and kate are touching each other""}","<img src=""stim_listB/touch8.gif""</stim_listB>",are touching each other,
null,"<div style=""font-size:60px;"">+</div>",,html-keyboard-response,135,1456925,0.0-13.0-0.15,4626,List1B,white,man,,,,null,,,,
null,"<img src=""stim_listB/kiss2.gif""</stim_listB>",,html-keyboard-response,136,1458930,0.0-13.0-1.15,4626,List1B,white,man,,,,null,,,,
null,are kissing each other,,html-keyboard-response,137,1460932,0.0-13.0-2.15,4626,List1B,white,man,,,,null,,,,
11432,,,survey-text,138,1472365,0.0-13.0-3.15,4626,List1B,white,man,,,,,"{""Q0"":""fred and kate are kissing each other""}","<img src=""stim_listB/kiss2.gif""</stim_listB>",are kissing each other,
null,"<div style=""font-size:60px;"">+</div>",,html-keyboard-response,139,1472869,0.0-13.0-0.16,4626,List1B,white,man,,,,null,,,,
null,"<img src=""stim_listB/touch5.gif""</stim_listB>",,html-keyboard-response,140,1474873,0.0-13.0-1.16,4626,List1B,white,man,,,,null,,,,
null,is touching,,html-keyboard-response,141,1476874,0.0-13.0-2.16,4626,List1B,white,man,,,,null,,,,
8921,,,survey-text,142,1485796,0.0-13.0-3.16,4626,List1B,white,man,,,,,"{""Q0"":""mike is touching dave""}","<img src=""stim_listB/touch5.gif""</stim_listB>",is touching,
null,"<div style=""font-size:60px;"">+</div>",,html-keyboard-response,143,1486301,0.0-13.0-0.17,4626,List1B,white,man,,,,null,,,,
null,"<img src=""stim_listB/meet1.gif""</stim_listB>",,html-keyboard-response,144,1488307,0.0-13.0-1.17,4626,List1B,white,man,,,,null,,,,
null,is meeting,,html-keyboard-response,145,1490309,0.0-13.0-2.17,4626,List1B,white,man,,,,null,,,,
6296,,,survey-text,146,1496606,0.0-13.0-3.17,4626,List1B,white,man,,,,,"{""Q0"":""mike is meeting kate""}","<img src=""stim_listB/meet1.gif""</stim_listB>",is meeting,
null,"<div style=""font-size:60px;"">+</div>",,html-keyboard-response,147,1497110,0.0-13.0-0.18,4626,List1B,white,man,,,,null,,,,
null,"<img src=""stim_listB/talk2.gif""</stim_listB>",,html-keyboard-response,148,1499111,0.0-13.0-1.18,4626,List1B,white,man,,,,null,,,,
null,are talking to each other,,html-keyboard-response,149,1501113,0.0-13.0-2.18,4626,List1B,white,man,,,,null,,,,
13389,,,survey-text,150,1514503,0.0-13.0-3.18,4626,List1B,white,man,,,,,"{""Q0"":""mike and beth are talking to each other""}","<img src=""stim_listB/talk2.gif""</stim_listB>",are talking to each other,
null,"<div style=""font-size:60px;"">+</div>",,html-keyboard-response,151,1515006,0.0-13.0-0.19,4626,List1B,white,man,,,,null,,,,
null,"<img src=""stim_listB/kiss4.gif""</stim_listB>",,html-keyboard-response,152,1517011,0.0-13.0-1.19,4626,List1B,white,man,,,,null,,,,
null,are kissing each other,,html-keyboard-response,153,1519015,0.0-13.0-2.19,4626,List1B,white,man,,,,null,,,,
15101,,,survey-text,154,1534117,0.0-13.0-3.19,4626,List1B,white,man,,,,,"{""Q0"":""dave and jane are kissing each other""}","<img src=""stim_listB/kiss4.gif""</stim_listB>",are kissing each other,
8667,"<img src='img/portrait_matrix_list1.JPG' style='width:900px;height:500px;''></img><p>If you have memorised all the portraits and names and are ready to start, press Continue.</p><p><strong>Please note: Your memory of these faces will be tested 4 times during this experiment.</strong></p>",0,html-button-response,155,1542787,0.0-14.0-0.0,4626,List1B,white,man,,,,,,,,
4581,"<img src=""portrait/BM2.jpg""style=""width:400px;height:400px;""></img>",5,html-button-response,156,1548371,0.0-14.0-1.0,4626,List1B,white,man,,TRUE,5,,,,,
null,CORRECT,,html-keyboard-response,157,1549877,0.0-14.0-2.0-0.0,4626,List1B,white,man,,,,null,,,,
3937,"<img src=""portrait/BM1.jpg""style=""width:400px;height:400px;""></img>",4,html-button-response,158,1553816,0.0-14.0-4.0,4626,List1B,white,man,,TRUE,4,,,,,
null,CORRECT,,html-keyboard-response,159,1555326,0.0-14.0-5.0-0.0,4626,List1B,white,man,,,,null,,,,
2777,"<img src=""portrait/BW2.jpg""style=""width:400px;height:400px;""></img>",2,html-button-response,160,1558105,0.0-14.0-7.0,4626,List1B,white,man,,TRUE,2,,,,,
null,CORRECT,,html-keyboard-response,161,1559613,0.0-14.0-8.0-0.0,4626,List1B,white,man,,,,null,,,,
3175,"<img src=""portrait/WM2.jpg""style=""width:400px;height:400px;""></img>",7,html-button-response,162,1562791,0.0-14.0-10.0,4626,List1B,white,man,,TRUE,7,,,,,
null,CORRECT,,html-keyboard-response,163,1564301,0.0-14.0-11.0-0.0,4626,List1B,white,man,,,,null,,,,
3383,"<img src=""portrait/WW1.jpg""style=""width:400px;height:400px;""></img>",1,html-button-response,164,1567686,0.0-14.0-13.0,4626,List1B,white,man,,TRUE,1,,,,,
null,CORRECT,,html-keyboard-response,165,1569194,0.0-14.0-14.0-0.0,4626,List1B,white,man,,,,null,,,,
3940,"<img src=""portrait/BW1.jpg""style=""width:400px;height:400px;""></img>",0,html-button-response,166,1573135,0.0-14.0-16.0,4626,List1B,white,man,,TRUE,0,,,,,
null,CORRECT,,html-keyboard-response,167,1574641,0.0-14.0-17.0-0.0,4626,List1B,white,man,,,,null,,,,
7913,"<img src=""portrait/WW2.jpg""style=""width:400px;height:400px;""></img>",3,html-button-response,168,1582556,0.0-14.0-19.0,4626,List1B,white,man,,TRUE,3,,,,,
null,CORRECT,,html-keyboard-response,169,1584061,0.0-14.0-20.0-0.0,4626,List1B,white,man,,,,null,,,,
3975,"<img src=""portrait/WM1.jpg""style=""width:400px;height:400px;""></img>",6,html-button-response,170,1588038,0.0-14.0-22.0,4626,List1B,white,man,,TRUE,6,,,,,
null,CORRECT,,html-keyboard-response,171,1589549,0.0-14.0-23.0-0.0,4626,List1B,white,man,,,,null,,,,
1341,<p>You got 8 out of 8 right first time. Press Continue.</p>,0,html-button-response,172,1590892,0.0-14.0-25.0,4626,List1B,white,man,,,,,,,,
null,"<div style=""font-size:60px;"">+</div>",,html-keyboard-response,173,1592396,0.0-15.0-0.0,4626,List1B,white,man,,,,null,,,,
null,"<img src=""stim_listB/shout6.gif""</stim_listB>",,html-keyboard-response,174,1594402,0.0-15.0-1.0,4626,List1B,white,man,,,,null,,,,
null,are shouting at each other,,html-keyboard-response,175,1596406,0.0-15.0-2.0,4626,List1B,white,man,,,,null,,,,
10306,,,survey-text,176,1606712,0.0-15.0-3.0,4626,List1B,white,man,,,,,"{""Q0"":""dave and mike are shouting at each other""}","<img src=""stim_listB/shout6.gif""</stim_listB>",are shouting at each other,
null,"<div style=""font-size:60px;"">+</div>",,html-keyboard-response,177,1607217,0.0-15.0-0.1,4626,List1B,white,man,,,,null,,,,
null,"<img src=""stim_listB/argue7.gif""</stim_listB>",,html-keyboard-response,178,1609222,0.0-15.0-1.1,4626,List1B,white,man,,,,null,,,,
null,is arguing with,,html-keyboard-response,179,1611224,0.0-15.0-2.1,4626,List1B,white,man,,,,null,,,,
10802,,,survey-text,180,1622026,0.0-15.0-3.1,4626,List1B,white,man,,,,,"{""Q0"":""ruth and kate are arguing with each other""}","<img src=""stim_listB/argue7.gif""</stim_listB>",is arguing with,
null,"<div style=""font-size:60px;"">+</div>",,html-keyboard-response,181,1622529,0.0-15.0-0.2,4626,List1B,white,man,,,,null,,,,
null,"<img src=""stim_listB/dance8.gif""</stim_listB>",,html-keyboard-response,182,1624535,0.0-15.0-1.2,4626,List1B,white,man,,,,null,,,,
null,are dancing with each other,,html-keyboard-response,183,1626539,0.0-15.0-2.2,4626,List1B,white,man,,,,null,,,,
8422,,,survey-text,184,1634963,0.0-15.0-3.2,4626,List1B,white,man,,,,,"{""Q0"":""ruth and kate are dancing with each other""}","<img src=""stim_listB/dance8.gif""</stim_listB>",are dancing with each other,
null,"<div style=""font-size:60px;"">+</div>",,html-keyboard-response,185,1635469,0.0-15.0-0.3,4626,List1B,white,man,,,,null,,,,
null,"<img src=""stim_listB/kiss8.gif""</stim_listB>",,html-keyboard-response,186,1637474,0.0-15.0-1.3,4626,List1B,white,man,,,,null,,,,
null,are kissing each other,,html-keyboard-response,187,1639476,0.0-15.0-2.3,4626,List1B,white,man,,,,null,,,,
6756,,,survey-text,188,1646233,0.0-15.0-3.3,4626,List1B,white,man,,,,,"{""Q0"":""ruth and kate are kissing each other""}","<img src=""stim_listB/kiss8.gif""</stim_listB>",are kissing each other,
null,"<div style=""font-size:60px;"">+</div>",,html-keyboard-response,189,1646734,0.0-15.0-0.4,4626,List1B,white,man,,,,null,,,,
null,"<img src=""stim_listB/kiss7.gif""</stim_listB>",,html-keyboard-response,190,1648740,0.0-15.0-1.4,4626,List1B,white,man,,,,null,,,,
null,is kissing,,html-keyboard-response,191,1650743,0.0-15.0-2.4,4626,List1B,white,man,,,,null,,,,
28559,,,survey-text,192,1679304,0.0-15.0-3.4,4626,List1B,white,man,,,,,"{""Q0"":""ruth is kissing beth""}","<img src=""stim_listB/kiss7.gif""</stim_listB>",is kissing,
null,"<div style=""font-size:60px;"">+</div>",,html-keyboard-response,193,1679807,0.0-15.0-0.5,4626,List1B,white,man,,,,null,,,,
null,"<img src=""stim_listB/fight7.gif""</stim_listB>",,html-keyboard-response,194,1681813,0.0-15.0-1.5,4626,List1B,white,man,,,,null,,,,
null,is fighting,,html-keyboard-response,195,1683814,0.0-15.0-2.5,4626,List1B,white,man,,,,null,,,,
8072,,,survey-text,196,1691886,0.0-15.0-3.5,4626,List1B,white,man,,,,,"{""Q0"":""kate is fighting ruth""}","<img src=""stim_listB/fight7.gif""</stim_listB>",is fighting,
null,"<div style=""font-size:60px;"">+</div>",,html-keyboard-response,197,1692391,0.0-15.0-0.6,4626,List1B,white,man,,,,null,,,,
null,"<img src=""stim_listB/touch6.gif""</stim_listB>",,html-keyboard-response,198,1694396,0.0-15.0-1.6,4626,List1B,white,man,,,,null,,,,
null,are touching each other,,html-keyboard-response,199,1696399,0.0-15.0-2.6,4626,List1B,white,man,,,,null,,,,
10072,,,survey-text,200,1706472,0.0-15.0-3.6,4626,List1B,white,man,,,,,"{""Q0"":""fred and luke are touching each other""}","<img src=""stim_listB/touch6.gif""</stim_listB>",are touching each other,
null,"<div style=""font-size:60px;"">+</div>",,html-keyboard-response,201,1706974,0.0-15.0-0.7,4626,List1B,white,man,,,,null,,,,
null,"<img src=""stim_listB/talk8.gif""</stim_listB>",,html-keyboard-response,202,1708980,0.0-15.0-1.7,4626,List1B,white,man,,,,null,,,,
null,are talking to each other,,html-keyboard-response,203,1710981,0.0-15.0-2.7,4626,List1B,white,man,,,,null,,,,
10734,,,survey-text,204,1721716,0.0-15.0-3.7,4626,List1B,white,man,,,,,"{""Q0"":""ruth and kate are talking to each other""}","<img src=""stim_listB/talk8.gif""</stim_listB>",are talking to each other,
null,"<div style=""font-size:60px;"">+</div>",,html-keyboard-response,205,1722219,0.0-15.0-0.8,4626,List1B,white,man,,,,null,,,,
null,"<img src=""stim_listB/fight8.gif""</stim_listB>",,html-keyboard-response,206,1724223,0.0-15.0-1.8,4626,List1B,white,man,,,,null,,,,
null,are fighting each other,,html-keyboard-response,207,1726227,0.0-15.0-2.8,4626,List1B,white,man,,,,null,,,,
8383,,,survey-text,208,1734612,0.0-15.0-3.8,4626,List1B,white,man,,,,,"{""Q0"":""ruth and beth are fighting each other""}","<img src=""stim_listB/fight8.gif""</stim_listB>",are fighting each other,
null,"<div style=""font-size:60px;"">+</div>",,html-keyboard-response,209,1735118,0.0-15.0-0.9,4626,List1B,white,man,,,,null,,,,
null,"<img src=""stim_listB/argue2.gif""</stim_listB>",,html-keyboard-response,210,1737122,0.0-15.0-1.9,4626,List1B,white,man,,,,null,,,,
null,are arguing with each other,,html-keyboard-response,211,1739126,0.0-15.0-2.9,4626,List1B,white,man,,,,null,,,,
9570,,,survey-text,212,1748697,0.0-15.0-3.9,4626,List1B,white,man,,,,,"{""Q0"":""kate and fred are fighting each other""}","<img src=""stim_listB/argue2.gif""</stim_listB>",are arguing with each other,
null,"<div style=""font-size:60px;"">+</div>",,html-keyboard-response,213,1749200,0.0-15.0-0.10,4626,List1B,white,man,,,,null,,,,
null,"<img src=""stim_listB/argue6.gif""</stim_listB>",,html-keyboard-response,214,1751205,0.0-15.0-1.10,4626,List1B,white,man,,,,null,,,,
null,are arguing with each other,,html-keyboard-response,215,1753210,0.0-15.0-2.10,4626,List1B,white,man,,,,null,,,,
9099,,,survey-text,216,1762310,0.0-15.0-3.10,4626,List1B,white,man,,,,,"{""Q0"":""dave and fred are arguing with each other""}","<img src=""stim_listB/argue6.gif""</stim_listB>",are arguing with each other,
null,"<div style=""font-size:60px;"">+</div>",,html-keyboard-response,217,1762812,0.0-15.0-0.11,4626,List1B,white,man,,,,null,,,,
null,"<img src=""stim_listB/touch2.gif""</stim_listB>",,html-keyboard-response,218,1764816,0.0-15.0-1.11,4626,List1B,white,man,,,,null,,,,
null,are touching each other,,html-keyboard-response,219,1766822,0.0-15.0-2.11,4626,List1B,white,man,,,,null,,,,
8038,,,survey-text,220,1774861,0.0-15.0-3.11,4626,List1B,white,man,,,,,"{""Q0"":""fred and beth are touching each other""}","<img src=""stim_listB/touch2.gif""</stim_listB>",are touching each other,
null,"<div style=""font-size:60px;"">+</div>",,html-keyboard-response,221,1775366,0.0-15.0-0.12,4626,List1B,white,man,,,,null,,,,
null,"<img src=""stim_listB/talk4.gif""</stim_listB>",,html-keyboard-response,222,1777372,0.0-15.0-1.12,4626,List1B,white,man,,,,null,,,,
null,are talking to each other,,html-keyboard-response,223,1779373,0.0-15.0-2.12,4626,List1B,white,man,,,,null,,,,
10146,,,survey-text,224,1789521,0.0-15.0-3.12,4626,List1B,white,man,,,,,"{""Q0"":""dave and ruth are talking to each other""}","<img src=""stim_listB/talk4.gif""</stim_listB>",are talking to each other,
null,"<div style=""font-size:60px;"">+</div>",,html-keyboard-response,225,1790023,0.0-15.0-0.13,4626,List1B,white,man,,,,null,,,,
null,"<img src=""stim_listB/dance7.gif""</stim_listB>",,html-keyboard-response,226,1792028,0.0-15.0-1.13,4626,List1B,white,man,,,,null,,,,
null,is dancing with,,html-keyboard-response,227,1794033,0.0-15.0-2.13,4626,List1B,white,man,,,,null,,,,
7581,,,survey-text,228,1801615,0.0-15.0-3.13,4626,List1B,white,man,,,,,"{""Q0"":""jane are ruth are daning to gether""}","<img src=""stim_listB/dance7.gif""</stim_listB>",is dancing with,
null,"<div style=""font-size:60px;"">+</div>",,html-keyboard-response,229,1802118,0.0-15.0-0.14,4626,List1B,white,man,,,,null,,,,
null,"<img src=""stim_listB/touch4.gif""</stim_listB>",,html-keyboard-response,230,1804123,0.0-15.0-1.14,4626,List1B,white,man,,,,null,,,,
null,are touching each other,,html-keyboard-response,231,1806124,0.0-15.0-2.14,4626,List1B,white,man,,,,null,,,,
13551,,,survey-text,232,1819677,0.0-15.0-3.14,4626,List1B,white,man,,,,,"{""Q0"":""luke and ruth are touching each other""}","<img src=""stim_listB/touch4.gif""</stim_listB>",are touching each other,
null,"<div style=""font-size:60px;"">+</div>",,html-keyboard-response,233,1820179,0.0-15.0-0.15,4626,List1B,white,man,,,,null,,,,
null,"<img src=""stim_listB/talk7.gif""</stim_listB>",,html-keyboard-response,234,1822183,0.0-15.0-1.15,4626,List1B,white,man,,,,null,,,,
null,is talking to,,html-keyboard-response,235,1824188,0.0-15.0-2.15,4626,List1B,white,man,,,,null,,,,
6514,,,survey-text,236,1830704,0.0-15.0-3.15,4626,List1B,white,man,,,,,"{""Q0"":""beth is talking to jane""}","<img src=""stim_listB/talk7.gif""</stim_listB>",is talking to,
null,"<div style=""font-size:60px;"">+</div>",,html-keyboard-response,237,1831207,0.0-15.0-0.16,4626,List1B,white,man,,,,null,,,,
null,"<img src=""stim_listB/fight2.gif""</stim_listB>",,html-keyboard-response,238,1833209,0.0-15.0-1.16,4626,List1B,white,man,,,,null,,,,
null,are fighting each other,,html-keyboard-response,239,1835210,0.0-15.0-2.16,4626,List1B,white,man,,,,null,,,,
10878,,,survey-text,240,1846091,0.0-15.0-3.16,4626,List1B,white,man,,,,,"{""Q0"":""fred and beth are fighting each other""}","<img src=""stim_listB/fight2.gif""</stim_listB>",are fighting each other,
null,"<div style=""font-size:60px;"">+</div>",,html-keyboard-response,241,1846597,0.0-15.0-0.17,4626,List1B,white,man,,,,null,,,,
null,"<img src=""stim_listB/meet5.gif""</stim_listB>",,html-keyboard-response,242,1848602,0.0-15.0-1.17,4626,List1B,white,man,,,,null,,,,
null,is meeting,,html-keyboard-response,243,1850606,0.0-15.0-2.17,4626,List1B,white,man,,,,null,,,,
9819,,,survey-text,244,1860427,0.0-15.0-3.17,4626,List1B,white,man,,,,,"{""Q0"":""dave is meeting mike""}","<img src=""stim_listB/meet5.gif""</stim_listB>",is meeting,
null,"<div style=""font-size:60px;"">+</div>",,html-keyboard-response,245,1860933,0.0-15.0-0.18,4626,List1B,white,man,,,,null,,,,
null,"<img src=""stim_listB/talk5.gif""</stim_listB>",,html-keyboard-response,246,1862935,0.0-15.0-1.18,4626,List1B,white,man,,,,null,,,,
null,is talking to,,html-keyboard-response,247,1864936,0.0-15.0-2.18,4626,List1B,white,man,,,,null,,,,
7458,,,survey-text,248,1872396,0.0-15.0-3.18,4626,List1B,white,man,,,,,"{""Q0"":""dave is talking to fred""}","<img src=""stim_listB/talk5.gif""</stim_listB>",is talking to,
null,"<div style=""font-size:60px;"">+</div>",,html-keyboard-response,249,1872900,0.0-15.0-0.19,4626,List1B,white,man,,,,null,,,,
null,"<img src=""stim_listB/shout7.gif""</stim_listB>",,html-keyboard-response,250,1874905,0.0-15.0-1.19,4626,List1B,white,man,,,,null,,,,
null,is shouting at,,html-keyboard-response,251,1876906,0.0-15.0-2.19,4626,List1B,white,man,,,,null,,,,
74916,,,survey-text,252,1951824,0.0-15.0-3.19,4626,List1B,white,man,,,,,"{""Q0"":""ruth is shouting at kate""}","<img src=""stim_listB/shout7.gif""</stim_listB>",is shouting at,
77559,"<img src='img/portrait_matrix_list1.JPG' style='width:900px;height:500px;''></img><p>If you have memorised all the portraits and names and are ready to start, press Continue.</p><p><strong>Please note: Your memory of these faces will be tested 4 times during this experiment.</strong></p>",0,html-button-response,253,2029384,0.0-16.0-0.0,4626,List1B,white,man,,,,,,,,
4876,"<img src=""portrait/BM1.jpg""style=""width:400px;height:400px;""></img>",4,html-button-response,254,2035268,0.0-16.0-1.0,4626,List1B,white,man,,TRUE,4,,,,,
null,CORRECT,,html-keyboard-response,255,2036775,0.0-16.0-2.0-0.0,4626,List1B,white,man,,,,null,,,,
4501,"<img src=""portrait/BM2.jpg""style=""width:400px;height:400px;""></img>",5,html-button-response,256,2041278,0.0-16.0-4.0,4626,List1B,white,man,,TRUE,5,,,,,
null,CORRECT,,html-keyboard-response,257,2042783,0.0-16.0-5.0-0.0,4626,List1B,white,man,,,,null,,,,
2894,"<img src=""portrait/WM1.jpg""style=""width:400px;height:400px;""></img>",6,html-button-response,258,2045680,0.0-16.0-7.0,4626,List1B,white,man,,TRUE,6,,,,,
null,CORRECT,,html-keyboard-response,259,2047186,0.0-16.0-8.0-0.0,4626,List1B,white,man,,,,null,,,,
2699,"<img src=""portrait/WW2.jpg""style=""width:400px;height:400px;""></img>",3,html-button-response,260,2049887,0.0-16.0-10.0,4626,List1B,white,man,,TRUE,3,,,,,
null,CORRECT,,html-keyboard-response,261,2051393,0.0-16.0-11.0-0.0,4626,List1B,white,man,,,,null,,,,
2908,"<img src=""portrait/BW1.jpg""style=""width:400px;height:400px;""></img>",0,html-button-response,262,2054303,0.0-16.0-13.0,4626,List1B,white,man,,TRUE,0,,,,,
null,CORRECT,,html-keyboard-response,263,2055810,0.0-16.0-14.0-0.0,4626,List1B,white,man,,,,null,,,,
2275,"<img src=""portrait/BW2.jpg""style=""width:400px;height:400px;""></img>",2,html-button-response,264,2058089,0.0-16.0-16.0,4626,List1B,white,man,,TRUE,2,,,,,
null,CORRECT,,html-keyboard-response,265,2059599,0.0-16.0-17.0-0.0,4626,List1B,white,man,,,,null,,,,
2658,"<img src=""portrait/WM2.jpg""style=""width:400px;height:400px;""></img>",7,html-button-response,266,2062259,0.0-16.0-19.0,4626,List1B,white,man,,TRUE,7,,,,,
null,CORRECT,,html-keyboard-response,267,2063769,0.0-16.0-20.0-0.0,4626,List1B,white,man,,,,null,,,,
282187,"<img src=""portrait/WW1.jpg""style=""width:400px;height:400px;""></img>",1,html-button-response,268,2345958,0.0-16.0-22.0,4626,List1B,white,man,,TRUE,1,,,,,
null,CORRECT,,html-keyboard-response,269,2347464,0.0-16.0-23.0-0.0,4626,List1B,white,man,,,,null,,,,
1661,<p>You got 8 out of 8 right first time. Press Continue.</p>,0,html-button-response,270,2349128,0.0-16.0-25.0,4626,List1B,white,man,,,,,,,,
null,"<div style=""font-size:60px;"">+</div>",,html-keyboard-response,271,2350631,0.0-17.0-0.0,4626,List1B,white,man,,,,null,,,,
null,"<img src=""stim_listB/talk3.gif""</stim_listB>",,html-keyboard-response,272,2352636,0.0-17.0-1.0,4626,List1B,white,man,,,,null,,,,
null,is talking to,,html-keyboard-response,273,2354641,0.0-17.0-2.0,4626,List1B,white,man,,,,null,,,,
49352,,,survey-text,274,2403995,0.0-17.0-3.0,4626,List1B,white,man,,,,,"{""Q0"":""jane is talking to luke""}","<img src=""stim_listB/talk3.gif""</stim_listB>",is talking to,
null,"<div style=""font-size:60px;"">+</div>",,html-keyboard-response,275,2404498,0.0-17.0-0.1,4626,List1B,white,man,,,,null,,,,
null,"<img src=""stim_listB/fight6.gif""</stim_listB>",,html-keyboard-response,276,2406504,0.0-17.0-1.1,4626,List1B,white,man,,,,null,,,,
null,are fighting each other,,html-keyboard-response,277,2408505,0.0-17.0-2.1,4626,List1B,white,man,,,,null,,,,
7158,,,survey-text,278,2415664,0.0-17.0-3.1,4626,List1B,white,man,,,,,"{""Q0"":""fred and dave are fighting each other""}","<img src=""stim_listB/fight6.gif""</stim_listB>",are fighting each other,
null,"<div style=""font-size:60px;"">+</div>",,html-keyboard-response,279,2416168,0.0-17.0-0.2,4626,List1B,white,man,,,,null,,,,
null,"<img src=""stim_listB/hug5.gif""</stim_listB>",,html-keyboard-response,280,2418171,0.0-17.0-1.2,4626,List1B,white,man,,,,null,,,,
null,is hugging,,html-keyboard-response,281,2420172,0.0-17.0-2.2,4626,List1B,white,man,,,,null,,,,
82848,,,survey-text,282,2503021,0.0-17.0-3.2,4626,List1B,white,man,,,,,"{""Q0"":""fred is hugging dave""}","<img src=""stim_listB/hug5.gif""</stim_listB>",is hugging,
null,"<div style=""font-size:60px;"">+</div>",,html-keyboard-response,283,2503526,0.0-17.0-0.3,4626,List1B,white,man,,,,null,,,,
null,"<img src=""stim_listB/argue5.gif""</stim_listB>",,html-keyboard-response,284,2505529,0.0-17.0-1.3,4626,List1B,white,man,,,,null,,,,
null,is arguing with,,html-keyboard-response,285,2507533,0.0-17.0-2.3,4626,List1B,white,man,,,,null,,,,
7426,,,survey-text,286,2514961,0.0-17.0-3.3,4626,List1B,white,man,,,,,"{""Q0"":""mike is arguing with luke""}","<img src=""stim_listB/argue5.gif""</stim_listB>",is arguing with,
null,"<div style=""font-size:60px;"">+</div>",,html-keyboard-response,287,2515464,0.0-17.0-0.4,4626,List1B,white,man,,,,null,,,,
null,"<img src=""stim_listB/meet6.gif""</stim_listB>",,html-keyboard-response,288,2517466,0.0-17.0-1.4,4626,List1B,white,man,,,,null,,,,
null,are meeting each other,,html-keyboard-response,289,2519467,0.0-17.0-2.4,4626,List1B,white,man,,,,null,,,,
9745,,,survey-text,290,2529214,0.0-17.0-3.4,4626,List1B,white,man,,,,,"{""Q0"":""luke and fred are meeting each other""}","<img src=""stim_listB/meet6.gif""</stim_listB>",are meeting each other,
null,"<div style=""font-size:60px;"">+</div>",,html-keyboard-response,291,2529718,0.0-17.0-0.5,4626,List1B,white,man,,,,null,,,,
null,"<img src=""stim_listB/talk1.gif""</stim_listB>",,html-keyboard-response,292,2531721,0.0-17.0-1.5,4626,List1B,white,man,,,,null,,,,
null,is talking to,,html-keyboard-response,293,2533726,0.0-17.0-2.5,4626,List1B,white,man,,,,null,,,,
9604,,,survey-text,294,2543331,0.0-17.0-3.5,4626,List1B,white,man,,,,,"{""Q0"":""fred is talking to kate""}","<img src=""stim_listB/talk1.gif""</stim_listB>",is talking to,
null,"<div style=""font-size:60px;"">+</div>",,html-keyboard-response,295,2543833,0.0-17.0-0.6,4626,List1B,white,man,,,,null,,,,
null,"<img src=""stim_listB/fight5.gif""</stim_listB>",,html-keyboard-response,296,2545838,0.0-17.0-1.6,4626,List1B,white,man,,,,null,,,,
null,is fighting,,html-keyboard-response,297,2547842,0.0-17.0-2.6,4626,List1B,white,man,,,,null,,,,
20648,,,survey-text,298,2568492,0.0-17.0-3.6,4626,List1B,white,man,,,,,"{""Q0"":""dave is fighting luke""}","<img src=""stim_listB/fight5.gif""</stim_listB>",is fighting,
null,"<div style=""font-size:60px;"">+</div>",,html-keyboard-response,299,2568997,0.0-17.0-0.7,4626,List1B,white,man,,,,null,,,,
null,"<img src=""stim_listB/dance2.gif""</stim_listB>",,html-keyboard-response,300,2571001,0.0-17.0-1.7,4626,List1B,white,man,,,,null,,,,
null,are dancing with each other,,html-keyboard-response,301,2573002,0.0-17.0-2.7,4626,List1B,white,man,,,,null,,,,
14612,,,survey-text,302,2587616,0.0-17.0-3.7,4626,List1B,white,man,,,,,"{""Q0"":""mike and kate are daning with each other""}","<img src=""stim_listB/dance2.gif""</stim_listB>",are dancing with each other,
null,"<div style=""font-size:60px;"">+</div>",,html-keyboard-response,303,2588120,0.0-17.0-0.8,4626,List1B,white,man,,,,null,,,,
null,"<img src=""stim_listB/marry1.gif""</stim_listB>",,html-keyboard-response,304,2590125,0.0-17.0-1.8,4626,List1B,white,man,,,,null,,,,
null,is marrying,,html-keyboard-response,305,2592131,0.0-17.0-2.8,4626,List1B,white,man,,,,null,,,,
5366,,,survey-text,306,2597499,0.0-17.0-3.8,4626,List1B,white,man,,,,,"{""Q0"":""mike is marrying beth""}","<img src=""stim_listB/marry1.gif""</stim_listB>",is marrying,
null,"<div style=""font-size:60px;"">+</div>",,html-keyboard-response,307,2598006,0.0-17.0-0.9,4626,List1B,white,man,,,,null,,,,
null,"<img src=""stim_listB/talk6.gif""</stim_listB>",,html-keyboard-response,308,2600011,0.0-17.0-1.9,4626,List1B,white,man,,,,null,,,,
null,are talking to each other,,html-keyboard-response,309,2602015,0.0-17.0-2.9,4626,List1B,white,man,,,,null,,,,
13379,,,survey-text,310,2615396,0.0-17.0-3.9,4626,List1B,white,man,,,,,"{""Q0"":""mikeand luke are talking to each other""}","<img src=""stim_listB/talk6.gif""</stim_listB>",are talking to each other,
null,"<div style=""font-size:60px;"">+</div>",,html-keyboard-response,311,2615898,0.0-17.0-0.10,4626,List1B,white,man,,,,null,,,,
null,"<img src=""stim_listB/dance1.gif""</stim_listB>",,html-keyboard-response,312,2617902,0.0-17.0-1.10,4626,List1B,white,man,,,,null,,,,
null,is dancing with,,html-keyboard-response,313,2619903,0.0-17.0-2.10,4626,List1B,white,man,,,,null,,,,
8086,,,survey-text,314,2627991,0.0-17.0-3.10,4626,List1B,white,man,,,,,"{""Q0"":""kate is dancing with fred""}","<img src=""stim_listB/dance1.gif""</stim_listB>",is dancing with,
null,"<div style=""font-size:60px;"">+</div>",,html-keyboard-response,315,2628496,0.0-17.0-0.11,4626,List1B,white,man,,,,null,,,,
null,"<img src=""stim_listB/hug7.gif""</stim_listB>",,html-keyboard-response,316,2630502,0.0-17.0-1.11,4626,List1B,white,man,,,,null,,,,
null,is hugging,,html-keyboard-response,317,2632505,0.0-17.0-2.11,4626,List1B,white,man,,,,null,,,,
8201,,,survey-text,318,2640708,0.0-17.0-3.11,4626,List1B,white,man,,,,,"{""Q0"":""ruth is hugging beth""}","<img src=""stim_listB/hug7.gif""</stim_listB>",is hugging,
null,"<div style=""font-size:60px;"">+</div>",,html-keyboard-response,319,2641214,0.0-17.0-0.12,4626,List1B,white,man,,,,null,,,,
null,"<img src=""stim_listB/kiss1.gif""</stim_listB>",,html-keyboard-response,320,2643216,0.0-17.0-1.12,4626,List1B,white,man,,,,null,,,,
null,is kissing,,html-keyboard-response,321,2645217,0.0-17.0-2.12,4626,List1B,white,man,,,,null,,,,
8232,,,survey-text,322,2653450,0.0-17.0-3.12,4626,List1B,white,man,,,,,"{""Q0"":""fred is kissing beth""}","<img src=""stim_listB/kiss1.gif""</stim_listB>",is kissing,
null,"<div style=""font-size:60px;"">+</div>",,html-keyboard-response,323,2653955,0.0-17.0-0.13,4626,List1B,white,man,,,,null,,,,
null,"<img src=""stim_listB/meet4.gif""</stim_listB>",,html-keyboard-response,324,2655962,0.0-17.0-1.13,4626,List1B,white,man,,,,null,,,,
null,are meeting each other,,html-keyboard-response,325,2657963,0.0-17.0-2.13,4626,List1B,white,man,,,,null,,,,
9314,,,survey-text,326,2667279,0.0-17.0-3.13,4626,List1B,white,man,,,,,"{""Q0"":""ruth and luke are meeting each other""}","<img src=""stim_listB/meet4.gif""</stim_listB>",are meeting each other,
null,"<div style=""font-size:60px;"">+</div>",,html-keyboard-response,327,2667781,0.0-17.0-0.14,4626,List1B,white,man,,,,null,,,,
null,"<img src=""stim_listB/argue1.gif""</stim_listB>",,html-keyboard-response,328,2669787,0.0-17.0-1.14,4626,List1B,white,man,,,,null,,,,
null,is arguing with,,html-keyboard-response,329,2671792,0.0-17.0-2.14,4626,List1B,white,man,,,,null,,,,
6208,,,survey-text,330,2678002,0.0-17.0-3.14,4626,List1B,white,man,,,,,"{""Q0"":""beth is arguing with mike""}","<img src=""stim_listB/argue1.gif""</stim_listB>",is arguing with,
null,"<div style=""font-size:60px;"">+</div>",,html-keyboard-response,331,2678508,0.0-17.0-0.15,4626,List1B,white,man,,,,null,,,,
null,"<img src=""stim_listB/meet3.gif""</stim_listB>",,html-keyboard-response,332,2680514,0.0-17.0-1.15,4626,List1B,white,man,,,,null,,,,
null,is meeting,,html-keyboard-response,333,2682515,0.0-17.0-2.15,4626,List1B,white,man,,,,null,,,,
7483,,,survey-text,334,2690000,0.0-17.0-3.15,4626,List1B,white,man,,,,,"{""Q0"":""ruth is meeting luke""}","<img src=""stim_listB/meet3.gif""</stim_listB>",is meeting,
null,"<div style=""font-size:60px;"">+</div>",,html-keyboard-response,335,2690505,0.0-17.0-0.16,4626,List1B,white,man,,,,null,,,,
null,"<img src=""stim_listB/fight4.gif""</stim_listB>",,html-keyboard-response,336,2692507,0.0-17.0-1.16,4626,List1B,white,man,,,,null,,,,
null,are fighting each other,,html-keyboard-response,337,2694512,0.0-17.0-2.16,4626,List1B,white,man,,,,null,,,,
8244,,,survey-text,338,2702758,0.0-17.0-3.16,4626,List1B,white,man,,,,,"{""Q0"":""ruth is fighting with luke""}","<img src=""stim_listB/fight4.gif""</stim_listB>",are fighting each other,
null,"<div style=""font-size:60px;"">+</div>",,html-keyboard-response,339,2703261,0.0-17.0-0.17,4626,List1B,white,man,,,,null,,,,
null,"<img src=""stim_listB/kiss5.gif""</stim_listB>",,html-keyboard-response,340,2705267,0.0-17.0-1.17,4626,List1B,white,man,,,,null,,,,
null,is kissing,,html-keyboard-response,341,2707270,0.0-17.0-2.17,4626,List1B,white,man,,,,null,,,,
5132,,,survey-text,342,2712404,0.0-17.0-3.17,4626,List1B,white,man,,,,,"{""Q0"":""luke is kissing fred""}","<img src=""stim_listB/kiss5.gif""</stim_listB>",is kissing,
null,"<div style=""font-size:60px;"">+</div>",,html-keyboard-response,343,2712906,0.0-17.0-0.18,4626,List1B,white,man,,,,null,,,,
null,"<img src=""stim_listB/shout5.gif""</stim_listB>",,html-keyboard-response,344,2714911,0.0-17.0-1.18,4626,List1B,white,man,,,,null,,,,
null,is shouting at,,html-keyboard-response,345,2716913,0.0-17.0-2.18,4626,List1B,white,man,,,,null,,,,
6121,,,survey-text,346,2723037,0.0-17.0-3.18,4626,List1B,white,man,,,,,"{""Q0"":""fred is shouting at luke""}","<img src=""stim_listB/shout5.gif""</stim_listB>",is shouting at,
null,"<div style=""font-size:60px;"">+</div>",,html-keyboard-response,347,2723543,0.0-17.0-0.19,4626,List1B,white,man,,,,null,,,,
null,"<img src=""stim_listB/hug4.gif""</stim_listB>",,html-keyboard-response,348,2725549,0.0-17.0-1.19,4626,List1B,white,man,,,,null,,,,
null,are hugging each other,,html-keyboard-response,349,2727550,0.0-17.0-2.19,4626,List1B,white,man,,,,null,,,,
12490,,,survey-text,350,2740042,0.0-17.0-3.19,4626,List1B,white,man,,,,,"{""Q0"":""dave and jane are hugging each other""}","<img src=""stim_listB/hug4.gif""</stim_listB>",are hugging each other,
2272,"<img src='img/portrait_matrix_list1.JPG' style='width:900px;height:500px;''></img><p>If you have memorised all the portraits and names and are ready to start, press Continue.</p><p><strong>Please note: Your memory of these faces will be tested 4 times during this experiment.</strong></p>",0,html-button-response,351,2742316,0.0-18.0-0.0,4626,List1B,white,man,,,,,,,,
1689,"<img src=""portrait/BM2.jpg""style=""width:400px;height:400px;""></img>",5,html-button-response,352,2745011,0.0-18.0-1.0,4626,List1B,white,man,,TRUE,5,,,,,
null,CORRECT,,html-keyboard-response,353,2746519,0.0-18.0-2.0-0.0,4626,List1B,white,man,,,,null,,,,
5430,"<img src=""portrait/WW1.jpg""style=""width:400px;height:400px;""></img>",1,html-button-response,354,2751951,0.0-18.0-4.0,4626,List1B,white,man,,TRUE,1,,,,,
null,CORRECT,,html-keyboard-response,355,2753457,0.0-18.0-5.0-0.0,4626,List1B,white,man,,,,null,,,,
3437,"<img src=""portrait/BM1.jpg""style=""width:400px;height:400px;""></img>",4,html-button-response,356,2756898,0.0-18.0-7.0,4626,List1B,white,man,,TRUE,4,,,,,
null,CORRECT,,html-keyboard-response,357,2758401,0.0-18.0-8.0-0.0,4626,List1B,white,man,,,,null,,,,
3392,"<img src=""portrait/BW1.jpg""style=""width:400px;height:400px;""></img>",0,html-button-response,358,2761795,0.0-18.0-10.0,4626,List1B,white,man,,TRUE,0,,,,,
null,CORRECT,,html-keyboard-response,359,2763301,0.0-18.0-11.0-0.0,4626,List1B,white,man,,,,null,,,,
3076,"<img src=""portrait/WM2.jpg""style=""width:400px;height:400px;""></img>",7,html-button-response,360,2766380,0.0-18.0-13.0,4626,List1B,white,man,,TRUE,7,,,,,
null,CORRECT,,html-keyboard-response,361,2767881,0.0-18.0-14.0-0.0,4626,List1B,white,man,,,,null,,,,
1508,"<img src=""portrait/WM1.jpg""style=""width:400px;height:400px;""></img>",6,html-button-response,362,2769391,0.0-18.0-16.0,4626,List1B,white,man,,TRUE,6,,,,,
null,CORRECT,,html-keyboard-response,363,2770899,0.0-18.0-17.0-0.0,4626,List1B,white,man,,,,null,,,,
3231,"<img src=""portrait/BW2.jpg""style=""width:400px;height:400px;""></img>",2,html-button-response,364,2774133,0.0-18.0-19.0,4626,List1B,white,man,,TRUE,2,,,,,
null,CORRECT,,html-keyboard-response,365,2775641,0.0-18.0-20.0-0.0,4626,List1B,white,man,,,,null,,,,
3964,"<img src=""portrait/WW2.jpg""style=""width:400px;height:400px;""></img>",3,html-button-response,366,2779607,0.0-18.0-22.0,4626,List1B,white,man,,TRUE,3,,,,,
null,CORRECT,,html-keyboard-response,367,2781117,0.0-18.0-23.0-0.0,4626,List1B,white,man,,,,null,,,,
1354,<p>You got 8 out of 8 right first time. Press Continue.</p>,0,html-button-response,368,2782473,0.0-18.0-25.0,4626,List1B,white,man,,,,,,,,
null,"<div style=""font-size:60px;"">+</div>",,html-keyboard-response,369,2783977,0.0-19.0-0.0,4626,List1B,white,man,,,,null,,,,
null,"<img src=""stim_listB/hug2.gif""</stim_listB>",,html-keyboard-response,370,2785982,0.0-19.0-1.0,4626,List1B,white,man,,,,null,,,,
null,are hugging each other,,html-keyboard-response,371,2787987,0.0-19.0-2.0,4626,List1B,white,man,,,,null,,,,
11362,,,survey-text,372,2799351,0.0-19.0-3.0,4626,List1B,white,man,,,,,"{""Q0"":""mike and kate are hugging each other""}","<img src=""stim_listB/hug2.gif""</stim_listB>",are hugging each other,
null,"<div style=""font-size:60px;"">+</div>",,html-keyboard-response,373,2799855,0.0-19.0-0.1,4626,List1B,white,man,,,,null,,,,
null,"<img src=""stim_listB/argue3.gif""</stim_listB>",,html-keyboard-response,374,2801859,0.0-19.0-1.1,4626,List1B,white,man,,,,null,,,,
null,is arguing with,,html-keyboard-response,375,2803861,0.0-19.0-2.1,4626,List1B,white,man,,,,null,,,,
5781,,,survey-text,376,2809643,0.0-19.0-3.1,4626,List1B,white,man,,,,,"{""Q0"":""dave is arguing with ruth""}","<img src=""stim_listB/argue3.gif""</stim_listB>",is arguing with,
null,"<div style=""font-size:60px;"">+</div>",,html-keyboard-response,377,2810148,0.0-19.0-0.2,4626,List1B,white,man,,,,null,,,,
null,"<img src=""stim_listB/fight3.gif""</stim_listB>",,html-keyboard-response,378,2812154,0.0-19.0-1.2,4626,List1B,white,man,,,,null,,,,
null,is fighting,,html-keyboard-response,379,2814155,0.0-19.0-2.2,4626,List1B,white,man,,,,null,,,,
5318,,,survey-text,380,2819474,0.0-19.0-3.2,4626,List1B,white,man,,,,,"{""Q0"":""dave is fighting ruth""}","<img src=""stim_listB/fight3.gif""</stim_listB>",is fighting,
null,"<div style=""font-size:60px;"">+</div>",,html-keyboard-response,381,2819978,0.0-19.0-0.3,4626,List1B,white,man,,,,null,,,,
null,"<img src=""stim_listB/hug1.gif""</stim_listB>",,html-keyboard-response,382,2821983,0.0-19.0-1.3,4626,List1B,white,man,,,,null,,,,
null,is hugging,,html-keyboard-response,383,2823985,0.0-19.0-2.3,4626,List1B,white,man,,,,null,,,,
51634,,,survey-text,384,2875621,0.0-19.0-3.3,4626,List1B,white,man,,,,,"{""Q0"":""fred is hugging beth""}","<img src=""stim_listB/hug1.gif""</stim_listB>",is hugging,
null,"<div style=""font-size:60px;"">+</div>",,html-keyboard-response,385,2876125,0.0-19.0-0.4,4626,List1B,white,man,,,,null,,,,
null,"<img src=""stim_listB/touch3.gif""</stim_listB>",,html-keyboard-response,386,2878126,0.0-19.0-1.4,4626,List1B,white,man,,,,null,,,,
null,is touching,,html-keyboard-response,387,2880130,0.0-19.0-2.4,4626,List1B,white,man,,,,null,,,,
8502,,,survey-text,388,2888633,0.0-19.0-3.4,4626,List1B,white,man,,,,,"{""Q0"":""dave is talking to jane""}","<img src=""stim_listB/touch3.gif""</stim_listB>",is touching,
null,"<div style=""font-size:60px;"">+</div>",,html-keyboard-response,389,2889137,0.0-19.0-0.5,4626,List1B,white,man,,,,null,,,,
null,"<img src=""stim_listB/shout2.gif""</stim_listB>",,html-keyboard-response,390,2891143,0.0-19.0-1.5,4626,List1B,white,man,,,,null,,,,
null,are shouting at each other,,html-keyboard-response,391,2893145,0.0-19.0-2.5,4626,List1B,white,man,,,,null,,,,
10588,,,survey-text,392,2903734,0.0-19.0-3.5,4626,List1B,white,man,,,,,"{""Q0"":""mike and kate are shouting at each other""}","<img src=""stim_listB/shout2.gif""</stim_listB>",are shouting at each other,
null,"<div style=""font-size:60px;"">+</div>",,html-keyboard-response,393,2904238,0.0-19.0-0.6,4626,List1B,white,man,,,,null,,,,
null,"<img src=""stim_listB/marry4.gif""</stim_listB>",,html-keyboard-response,394,2906240,0.0-19.0-1.6,4626,List1B,white,man,,,,null,,,,
null,are marrying each other,,html-keyboard-response,395,2908244,0.0-19.0-2.6,4626,List1B,white,man,,,,null,,,,
9945,,,survey-text,396,2918191,0.0-19.0-3.6,4626,List1B,white,man,,,,,"{""Q0"":""luke and jane are marrying each other""}","<img src=""stim_listB/marry4.gif""</stim_listB>",are marrying each other,
null,"<div style=""font-size:60px;"">+</div>",,html-keyboard-response,397,2918696,0.0-19.0-0.7,4626,List1B,white,man,,,,null,,,,
null,"<img src=""stim_listB/dance6.gif""</stim_listB>",,html-keyboard-response,398,2920698,0.0-19.0-1.7,4626,List1B,white,man,,,,null,,,,
null,are dancing with each other,,html-keyboard-response,399,2922702,0.0-19.0-2.7,4626,List1B,white,man,,,,null,,,,
7727,,,survey-text,400,2930431,0.0-19.0-3.7,4626,List1B,white,man,,,,,"{""Q0"":""luke and fred are dancing""}","<img src=""stim_listB/dance6.gif""</stim_listB>",are dancing with each other,
null,"<div style=""font-size:60px;"">+</div>",,html-keyboard-response,401,2930936,0.0-19.0-0.8,4626,List1B,white,man,,,,null,,,,
null,"<img src=""stim_listB/hug3.gif""</stim_listB>",,html-keyboard-response,402,2932941,0.0-19.0-1.8,4626,List1B,white,man,,,,null,,,,
null,is hugging,,html-keyboard-response,403,2934942,0.0-19.0-2.8,4626,List1B,white,man,,,,null,,,,
6032,,,survey-text,404,2940976,0.0-19.0-3.8,4626,List1B,white,man,,,,,"{""Q0"":""luke is hugging beth""}","<img src=""stim_listB/hug3.gif""</stim_listB>",is hugging,
null,"<div style=""font-size:60px;"">+</div>",,html-keyboard-response,405,2941477,0.0-19.0-0.9,4626,List1B,white,man,,,,null,,,,
null,"<img src=""stim_listB/fight1.gif""</stim_listB>",,html-keyboard-response,406,2943483,0.0-19.0-1.9,4626,List1B,white,man,,,,null,,,,
null,is fighting,,html-keyboard-response,407,2945486,0.0-19.0-2.9,4626,List1B,white,man,,,,null,,,,
9343,,,survey-text,408,2954830,0.0-19.0-3.9,4626,List1B,white,man,,,,,"{""Q0"":""mike is fighting kate""}","<img src=""stim_listB/fight1.gif""</stim_listB>",is fighting,
null,"<div style=""font-size:60px;"">+</div>",,html-keyboard-response,409,2955331,0.0-19.0-0.10,4626,List1B,white,man,,,,null,,,,
null,"<img src=""stim_listB/shout8.gif""</stim_listB>",,html-keyboard-response,410,2957337,0.0-19.0-1.10,4626,List1B,white,man,,,,null,,,,
null,are shouting at each other,,html-keyboard-response,411,2959339,0.0-19.0-2.10,4626,List1B,white,man,,,,null,,,,
7289,,,survey-text,412,2966630,0.0-19.0-3.10,4626,List1B,white,man,,,,,"{""Q0"":""kate and jane are shouting at each other""}","<img src=""stim_listB/shout8.gif""</stim_listB>",are shouting at each other,
null,"<div style=""font-size:60px;"">+</div>",,html-keyboard-response,413,2967134,0.0-19.0-0.11,4626,List1B,white,man,,,,null,,,,
null,"<img src=""stim_listB/dance3.gif""</stim_listB>",,html-keyboard-response,414,2969136,0.0-19.0-1.11,4626,List1B,white,man,,,,null,,,,
null,is dancing with,,html-keyboard-response,415,2971137,0.0-19.0-2.11,4626,List1B,white,man,,,,null,,,,
8037,,,survey-text,416,2979175,0.0-19.0-3.11,4626,List1B,white,man,,,,,"{""Q0"":""jane is dancing with fred""}","<img src=""stim_listB/dance3.gif""</stim_listB>",is dancing with,
null,"<div style=""font-size:60px;"">+</div>",,html-keyboard-response,417,2979677,0.0-19.0-0.12,4626,List1B,white,man,,,,null,,,,
null,"<img src=""stim_listB/marry8.gif""</stim_listB>",,html-keyboard-response,418,2981683,0.0-19.0-1.12,4626,List1B,white,man,,,,null,,,,
null,are marrying each other,,html-keyboard-response,419,2983688,0.0-19.0-2.12,4626,List1B,white,man,,,,null,,,,
11267,,,survey-text,420,2994955,0.0-19.0-3.12,4626,List1B,white,man,,,,,"{""Q0"":""jane and luke are marrying each other""}","<img src=""stim_listB/marry8.gif""</stim_listB>",are marrying each other,
null,"<div style=""font-size:60px;"">+</div>",,html-keyboard-response,421,2995461,0.0-19.0-0.13,4626,List1B,white,man,,,,null,,,,
null,"<img src=""stim_listB/marry5.gif""</stim_listB>",,html-keyboard-response,422,2997467,0.0-19.0-1.13,4626,List1B,white,man,,,,null,,,,
null,is marrying,,html-keyboard-response,423,2999468,0.0-19.0-2.13,4626,List1B,white,man,,,,null,,,,
5730,,,survey-text,424,3005200,0.0-19.0-3.13,4626,List1B,white,man,,,,,"{""Q0"":""luke is marrying mike""}","<img src=""stim_listB/marry5.gif""</stim_listB>",is marrying,
null,"<div style=""font-size:60px;"">+</div>",,html-keyboard-response,425,3005702,0.0-19.0-0.14,4626,List1B,white,man,,,,null,,,,
null,"<img src=""stim_listB/argue4.gif""</stim_listB>",,html-keyboard-response,426,3007706,0.0-19.0-1.14,4626,List1B,white,man,,,,null,,,,
null,are arguing with each other,,html-keyboard-response,427,3009708,0.0-19.0-2.14,4626,List1B,white,man,,,,null,,,,
8226,,,survey-text,428,3017936,0.0-19.0-3.14,4626,List1B,white,man,,,,,"{""Q0"":""luke and jane are arguing with each other""}","<img src=""stim_listB/argue4.gif""</stim_listB>",are arguing with each other,
null,"<div style=""font-size:60px;"">+</div>",,html-keyboard-response,429,3018437,0.0-19.0-0.15,4626,List1B,white,man,,,,null,,,,
null,"<img src=""stim_listB/kiss3.gif""</stim_listB>",,html-keyboard-response,430,3020443,0.0-19.0-1.15,4626,List1B,white,man,,,,null,,,,
null,is kissing,,html-keyboard-response,431,3022445,0.0-19.0-2.15,4626,List1B,white,man,,,,null,,,,
5828,,,survey-text,432,3028275,0.0-19.0-3.15,4626,List1B,white,man,,,,,"{""Q0"":""luke is kissing ruth""}","<img src=""stim_listB/kiss3.gif""</stim_listB>",is kissing,
null,"<div style=""font-size:60px;"">+</div>",,html-keyboard-response,433,3028781,0.0-19.0-0.16,4626,List1B,white,man,,,,null,,,,
null,"<img src=""stim_listB/marry7.gif""</stim_listB>",,html-keyboard-response,434,3030785,0.0-19.0-1.16,4626,List1B,white,man,,,,null,,,,
null,is marrying,,html-keyboard-response,435,3032787,0.0-19.0-2.16,4626,List1B,white,man,,,,null,,,,
20873,,,survey-text,436,3053662,0.0-19.0-3.16,4626,List1B,white,man,,,,,"{""Q0"":""ruth is dancing beth""}","<img src=""stim_listB/marry7.gif""</stim_listB>",is marrying,
null,"<div style=""font-size:60px;"">+</div>",,html-keyboard-response,437,3054169,0.0-19.0-0.17,4626,List1B,white,man,,,,null,,,,
null,"<img src=""stim_listB/marry3.gif""</stim_listB>",,html-keyboard-response,438,3056174,0.0-19.0-1.17,4626,List1B,white,man,,,,null,,,,
null,is marrying,,html-keyboard-response,439,3058175,0.0-19.0-2.17,4626,List1B,white,man,,,,null,,,,
5900,,,survey-text,440,3064077,0.0-19.0-3.17,4626,List1B,white,man,,,,,"{""Q0"":""ruth is marrying luke""}","<img src=""stim_listB/marry3.gif""</stim_listB>",is marrying,
null,"<div style=""font-size:60px;"">+</div>",,html-keyboard-response,441,3064583,0.0-19.0-0.18,4626,List1B,white,man,,,,null,,,,
null,"<img src=""stim_listB/shout3.gif""</stim_listB>",,html-keyboard-response,442,3066588,0.0-19.0-1.18,4626,List1B,white,man,,,,null,,,,
null,is shouting at,,html-keyboard-response,443,3068589,0.0-19.0-2.18,4626,List1B,white,man,,,,null,,,,
8840,,,survey-text,444,3077430,0.0-19.0-3.18,4626,List1B,white,man,,,,,"{""Q0"":""ruth is shouting at luke""}","<img src=""stim_listB/shout3.gif""</stim_listB>",is shouting at,
null,"<div style=""font-size:60px;"">+</div>",,html-keyboard-response,445,3077931,0.0-19.0-0.19,4626,List1B,white,man,,,,null,,,,
null,"<img src=""stim_listB/argue8.gif""</stim_listB>",,html-keyboard-response,446,3079936,0.0-19.0-1.19,4626,List1B,white,man,,,,null,,,,
null,are arguing with each other,,html-keyboard-response,447,3081938,0.0-19.0-2.19,4626,List1B,white,man,,,,null,,,,
8945,,,survey-text,448,3090884,0.0-19.0-3.19,4626,List1B,white,man,,,,,"{""Q0"":""jane and beth are arguing with each other""}","<img src=""stim_listB/argue8.gif""</stim_listB>",are arguing with each other,
2254,<p>Thank you for completing that task.</p><p>The final part of this session is a short questionnaire.</p><p>Press Continue.</p>,0,html-button-response,449,3093140,0.0-20.0,4626,List1B,white,man,,,,,,,,
20328,,,survey-text,450,3114473,0.0-21.0,4626,List1B,white,man,,,,,"{""Q0"":""19"",""Q1"":""English"",""Q2"":""Engish"",""Q3"":""England"",""Q4"":""White, British"",""Q5"":""Male""}",,,demographics
51904,,,survey-likert,451,3166384,0.0-22.0,4626,List1B,white,man,,,,,"{""Q0"":2,""Q1"":2,""Q2"":5,""Q3"":5,""Q4"":2,""Q5"":6,""Q6"":3,""Q7"":4,""Q8"":5,""Q9"":5,""Q10"":4,""Q11"":3,""Q12"":4,""Q13"":4}",,,likert_race
34929,,,survey-likert,452,3201320,0.0-23.0,4626,List1B,white,man,,,,,"{""Q0"":3,""Q1"":4,""Q2"":4,""Q3"":4,""Q4"":4,""Q5"":4,""Q6"":4,""Q7"":3,""Q8"":3,""Q9"":3,""Q10"":3,""Q11"":2,""Q12"":4,""Q13"":5}",,,likert_gender
3791,,,survey-text,453,3205113,0.0-24.0,4626,List1B,white,man,,,,,"{""Q0"":""ccc""}",,,worker_id
24265,,,external-html,454,3229434,0.0-25.0,4626,List1B,white,man,debrief.html,,,,,,,
