rt,stimulus,button_pressed,trial_type,trial_index,time_elapsed,internal_node_id,subject,list,ppt_race,ppt_gender,url,first_guess,correct,key_press,responses,image_type,phrase_type,test_part
8367,Welcome to the experiment. Press Continue to begin.,0,html-button-response,0,8376,0.0-0.0,46776,List1B,black,woman,,,,,,,,
103103,,,external-html,1,112564,0.0-1.0,46776,List1B,black,woman,consent.html,,,,,,,
10275,"<p>On the next page, you will see portraits of 8 people and their names.</p><p>Your first task is to take a few minutes to memorise the names of these people.</p><p>You will have to recall their names during the rest of the experiment, so it is</p><p>essential that you try to memorise these people and their names as best as you can.</p><br><p><strong>You will then be tested on your memory of these names and portraits.</strong></p><br><p>The experiment will start after you have completed this memory test.</p><br><p>Ready?</p>",0,html-button-response,2,122845,0.0-2.0,46776,List1B,black,woman,,,,,,,,
67262,"<img src='img/portrait_matrix_list1.JPG' style='width:900px;height:500px;''></img><p>If you have memorised all the portraits and names and are ready to start, press Continue.</p><p><strong>Please note: Your memory of these faces will be tested 4 times during this experiment.</strong></p>",0,html-button-response,3,191121,0.0-3.0-0.0,46776,List1B,black,woman,,,,,,,,
9625,"<img src=""portrait/BW2.jpg""style=""width:400px;height:400px;""></img>",2,html-button-response,4,201754,0.0-3.0-1.0,46776,List1B,black,woman,,TRUE,2,,,,,
null,CORRECT,,html-keyboard-response,5,203267,0.0-3.0-2.0-0.0,46776,List1B,black,woman,,,,null,,,,
8062,"<img src=""portrait/WW2.jpg""style=""width:400px;height:400px;""></img>",3,html-button-response,6,211338,0.0-3.0-4.0,46776,List1B,black,woman,,TRUE,3,,,,,
null,CORRECT,,html-keyboard-response,7,212853,0.0-3.0-5.0-0.0,46776,List1B,black,woman,,,,null,,,,
8962,"<img src=""portrait/BM2.jpg""style=""width:400px;height:400px;""></img>",4,html-button-response,8,221821,0.0-3.0-7.0,46776,List1B,black,woman,,TRUE,5,,,,,
4538,"<img src=""portrait/BM2.jpg""style=""width:400px;height:400px;""></img>",5,html-button-response,9,227370,0.0-3.0-9.0-0.0,46776,List1B,black,woman,,FALSE,5,,,,,
null,CORRECT,,html-keyboard-response,10,228884,0.0-3.0-9.0-1.0-0.0,46776,List1B,black,woman,,,,null,,,,
8728,"<img src=""portrait/WM1.jpg""style=""width:400px;height:400px;""></img>",6,html-button-response,11,237618,0.0-3.0-10.0,46776,List1B,black,woman,,TRUE,6,,,,,
null,CORRECT,,html-keyboard-response,12,239122,0.0-3.0-11.0-0.0,46776,List1B,black,woman,,,,null,,,,
5618,"<img src=""portrait/WM2.jpg""style=""width:400px;height:400px;""></img>",7,html-button-response,13,244746,0.0-3.0-13.0,46776,List1B,black,woman,,TRUE,7,,,,,
null,CORRECT,,html-keyboard-response,14,246252,0.0-3.0-14.0-0.0,46776,List1B,black,woman,,,,null,,,,
10667,"<img src=""portrait/BM1.jpg""style=""width:400px;height:400px;""></img>",4,html-button-response,15,256925,0.0-3.0-16.0,46776,List1B,black,woman,,TRUE,4,,,,,
null,CORRECT,,html-keyboard-response,16,258433,0.0-3.0-17.0-0.0,46776,List1B,black,woman,,,,null,,,,
6599,"<img src=""portrait/BW1.jpg""style=""width:400px;height:400px;""></img>",0,html-button-response,17,265039,0.0-3.0-19.0,46776,List1B,black,woman,,TRUE,0,,,,,
null,CORRECT,,html-keyboard-response,18,266545,0.0-3.0-20.0-0.0,46776,List1B,black,woman,,,,null,,,,
11646,"<img src=""portrait/WW1.jpg""style=""width:400px;height:400px;""></img>",1,html-button-response,19,278196,0.0-3.0-22.0,46776,List1B,black,woman,,TRUE,1,,,,,
null,CORRECT,,html-keyboard-response,20,279701,0.0-3.0-23.0-0.0,46776,List1B,black,woman,,,,null,,,,
2197,<p>You got 7 out of 8 right first time. Press Continue.</p>,0,html-button-response,21,281902,0.0-3.0-25.0,46776,List1B,black,woman,,,,,,,,
2769,"As you did not score 100%, the memory game will repeat. Press Continue.",0,html-button-response,22,285678,0.0-3.0-26.0-0.0,46776,List1B,black,woman,,,,,,,,
35898,"<img src='img/portrait_matrix_list1.JPG' style='width:900px;height:500px;''></img><p>If you have memorised all the portraits and names and are ready to start, press Continue.</p><p><strong>Please note: Your memory of these faces will be tested 4 times during this experiment.</strong></p>",0,html-button-response,23,322583,0.0-3.1-0.1,46776,List1B,black,woman,,,,,,,,
5535,"<img src=""portrait/BW2.jpg""style=""width:400px;height:400px;""></img>",2,html-button-response,24,329129,0.0-3.1-1.1,46776,List1B,black,woman,,TRUE,2,,,,,
null,CORRECT,,html-keyboard-response,25,330636,0.0-3.1-2.1-0.1,46776,List1B,black,woman,,,,null,,,,
7353,"<img src=""portrait/WW2.jpg""style=""width:400px;height:400px;""></img>",3,html-button-response,26,337999,0.0-3.1-4.1,46776,List1B,black,woman,,TRUE,3,,,,,
null,CORRECT,,html-keyboard-response,27,339504,0.0-3.1-5.1-0.1,46776,List1B,black,woman,,,,null,,,,
6066,"<img src=""portrait/BM2.jpg""style=""width:400px;height:400px;""></img>",5,html-button-response,28,345577,0.0-3.1-7.1,46776,List1B,black,woman,,TRUE,5,,,,,
null,CORRECT,,html-keyboard-response,29,347081,0.0-3.1-8.1-0.1,46776,List1B,black,woman,,,,null,,,,
2672,"<img src=""portrait/WM1.jpg""style=""width:400px;height:400px;""></img>",6,html-button-response,30,349762,0.0-3.1-10.1,46776,List1B,black,woman,,TRUE,6,,,,,
null,CORRECT,,html-keyboard-response,31,351266,0.0-3.1-11.1-0.1,46776,List1B,black,woman,,,,null,,,,
2404,"<img src=""portrait/WM2.jpg""style=""width:400px;height:400px;""></img>",7,html-button-response,32,353677,0.0-3.1-13.1,46776,List1B,black,woman,,TRUE,7,,,,,
null,CORRECT,,html-keyboard-response,33,355180,0.0-3.1-14.1-0.1,46776,List1B,black,woman,,,,null,,,,
4595,"<img src=""portrait/BM1.jpg""style=""width:400px;height:400px;""></img>",4,html-button-response,34,359780,0.0-3.1-16.1,46776,List1B,black,woman,,TRUE,4,,,,,
null,CORRECT,,html-keyboard-response,35,361283,0.0-3.1-17.1-0.1,46776,List1B,black,woman,,,,null,,,,
6745,"<img src=""portrait/BW1.jpg""style=""width:400px;height:400px;""></img>",0,html-button-response,36,368033,0.0-3.1-19.1,46776,List1B,black,woman,,TRUE,0,,,,,
null,CORRECT,,html-keyboard-response,37,369539,0.0-3.1-20.1-0.1,46776,List1B,black,woman,,,,null,,,,
3620,"<img src=""portrait/WW1.jpg""style=""width:400px;height:400px;""></img>",1,html-button-response,38,373170,0.0-3.1-22.1,46776,List1B,black,woman,,TRUE,1,,,,,
null,CORRECT,,html-keyboard-response,39,374677,0.0-3.1-23.1-0.1,46776,List1B,black,woman,,,,null,,,,
2526,<p>You got 8 out of 8 right first time. Press Continue.</p>,0,html-button-response,40,377208,0.0-3.1-25.1,46776,List1B,black,woman,,,,,,,,
39185,"<p>In this experiment, you will view photographs of the people from the memory game interacting.</p><p>By using the <strong>exact</strong> phrase given <i>after</i> the photograph appears and recalling the correct names of the people in the photographs, form a sentence describing the interaction. You do not need to capitalise names.</p><p>Type your answer in the space provided. Please complete every sentence before moving onto the next trial.</p><p>You will only have a few seconds to memorise each given photograph and phrase before you can respond, so try your best to focus.</p><p>An example is given below. Press 'Continue' when you are ready.</p><img src='img/speaking_example_v2.jpg' style='width:800px;height:460px;''></img>",0,html-button-response,41,417399,0.0-4.0,46776,List1B,black,woman,,,,,,,,
2538,"<p>Before the experiment starts, you will watch two example trials. Press 'Continue'.</p>",0,html-button-response,42,420940,0.0-5.0,46776,List1B,black,woman,,,,,,,,
null,<img src='img/speaking_WW.gif'></img>,,html-keyboard-response,43,423946,0.0-6.0,46776,List1B,black,woman,,,,null,,,,
null,<p>is speaking to</p>,,html-keyboard-response,44,425949,0.0-7.0,46776,List1B,black,woman,,,,null,,,,
13076,<p><b>Answer:</b> kate is speaking to beth</p>,0,html-button-response,45,439030,0.0-8.0,46776,List1B,black,woman,,,,,,,,
null,<img src='img/pointing_BM.gif'></img>,,html-keyboard-response,46,442036,0.0-9.0,46776,List1B,black,woman,,,,null,,,,
null,<p>are pointing at each other</p>,,html-keyboard-response,47,444040,0.0-10.0,46776,List1B,black,woman,,,,null,,,,
5630,<p><b>Answer:</b> luke and dave are pointing at each other</p>,0,html-button-response,48,449673,0.0-11.0,46776,List1B,black,woman,,,,,,,,
10620,"<p>Ready to start the experiment?</p><br><p><strong>Remember to describe the picture using a full sentence,</strong></p><p><strong>that combines the names of the people with the given phrase.</strong></p><p><strong>If you do not do this correctly you will not be paid.</strong></p><p><strong> You do not need to capitalise names or use punctuation.</strong></p><br><p>Press 'Continue' to begin.</p>",0,html-button-response,49,461297,0.0-12.0,46776,List1B,black,woman,,,,,,,,
null,"<div style=""font-size:60px;"">+</div>",,html-keyboard-response,50,462803,0.0-13.0-0.0,46776,List1B,black,woman,,,,null,,,,
null,"<img src=""stim_listB/fight2.gif""</stim_listB>",,html-keyboard-response,51,464812,0.0-13.0-1.0,46776,List1B,black,woman,,,,null,,,,
null,are fighting each other,,html-keyboard-response,52,466815,0.0-13.0-2.0,46776,List1B,black,woman,,,,null,,,,
25616,,,survey-text,53,492439,0.0-13.0-3.0,46776,List1B,black,woman,,,,,"{""Q0"":""beth and mike are fighting each other""}","<img src=""stim_listB/fight2.gif""</stim_listB>",are fighting each other,
null,"<div style=""font-size:60px;"">+</div>",,html-keyboard-response,54,492945,0.0-13.0-0.1,46776,List1B,black,woman,,,,null,,,,
null,"<img src=""stim_listB/argue4.gif""</stim_listB>",,html-keyboard-response,55,494948,0.0-13.0-1.1,46776,List1B,black,woman,,,,null,,,,
null,are arguing with each other,,html-keyboard-response,56,496951,0.0-13.0-2.1,46776,List1B,black,woman,,,,null,,,,
53656,,,survey-text,57,550611,0.0-13.0-3.1,46776,List1B,black,woman,,,,,"{""Q0"":""jane and luke are arguing with each other""}","<img src=""stim_listB/argue4.gif""</stim_listB>",are arguing with each other,
null,"<div style=""font-size:60px;"">+</div>",,html-keyboard-response,58,551115,0.0-13.0-0.2,46776,List1B,black,woman,,,,null,,,,
null,"<img src=""stim_listB/shout3.gif""</stim_listB>",,html-keyboard-response,59,553129,0.0-13.0-1.2,46776,List1B,black,woman,,,,null,,,,
null,is shouting at,,html-keyboard-response,60,555132,0.0-13.0-2.2,46776,List1B,black,woman,,,,null,,,,
70865,,,survey-text,61,625999,0.0-13.0-3.2,46776,List1B,black,woman,,,,,"{""Q0"":""ruth is shouting at luke""}","<img src=""stim_listB/shout3.gif""</stim_listB>",is shouting at,
null,"<div style=""font-size:60px;"">+</div>",,html-keyboard-response,62,626502,0.0-13.0-0.3,46776,List1B,black,woman,,,,null,,,,
null,"<img src=""stim_listB/hug8.gif""</stim_listB>",,html-keyboard-response,63,628507,0.0-13.0-1.3,46776,List1B,black,woman,,,,null,,,,
null,are hugging each other,,html-keyboard-response,64,630511,0.0-13.0-2.3,46776,List1B,black,woman,,,,null,,,,
41529,,,survey-text,65,672043,0.0-13.0-3.3,46776,List1B,black,woman,,,,,"{""Q0"":""jane and kate are hugging each other""}","<img src=""stim_listB/hug8.gif""</stim_listB>",are hugging each other,
null,"<div style=""font-size:60px;"">+</div>",,html-keyboard-response,66,672548,0.0-13.0-0.4,46776,List1B,black,woman,,,,null,,,,
null,"<img src=""stim_listB/touch1.gif""</stim_listB>",,html-keyboard-response,67,674553,0.0-13.0-1.4,46776,List1B,black,woman,,,,null,,,,
null,is touching,,html-keyboard-response,68,676556,0.0-13.0-2.4,46776,List1B,black,woman,,,,null,,,,
31059,,,survey-text,69,707620,0.0-13.0-3.4,46776,List1B,black,woman,,,,,"{""Q0"":""mike is touching  kate""}","<img src=""stim_listB/touch1.gif""</stim_listB>",is touching,
null,"<div style=""font-size:60px;"">+</div>",,html-keyboard-response,70,708126,0.0-13.0-0.5,46776,List1B,black,woman,,,,null,,,,
null,"<img src=""stim_listB/fight1.gif""</stim_listB>",,html-keyboard-response,71,710130,0.0-13.0-1.5,46776,List1B,black,woman,,,,null,,,,
null,is fighting,,html-keyboard-response,72,712133,0.0-13.0-2.5,46776,List1B,black,woman,,,,null,,,,
19848,,,survey-text,73,731985,0.0-13.0-3.5,46776,List1B,black,woman,,,,,"{""Q0"":""kate is fighting mike""}","<img src=""stim_listB/fight1.gif""</stim_listB>",is fighting,
null,"<div style=""font-size:60px;"">+</div>",,html-keyboard-response,74,732489,0.0-13.0-0.6,46776,List1B,black,woman,,,,null,,,,
null,"<img src=""stim_listB/touch6.gif""</stim_listB>",,html-keyboard-response,75,734493,0.0-13.0-1.6,46776,List1B,black,woman,,,,null,,,,
null,are touching each other,,html-keyboard-response,76,736496,0.0-13.0-2.6,46776,List1B,black,woman,,,,null,,,,
45015,,,survey-text,77,781514,0.0-13.0-3.6,46776,List1B,black,woman,,,,,"{""Q0"":""fred and luke are touching each other""}","<img src=""stim_listB/touch6.gif""</stim_listB>",are touching each other,
null,"<div style=""font-size:60px;"">+</div>",,html-keyboard-response,78,782018,0.0-13.0-0.7,46776,List1B,black,woman,,,,null,,,,
null,"<img src=""stim_listB/marry1.gif""</stim_listB>",,html-keyboard-response,79,784020,0.0-13.0-1.7,46776,List1B,black,woman,,,,null,,,,
null,is marrying,,html-keyboard-response,80,786022,0.0-13.0-2.7,46776,List1B,black,woman,,,,null,,,,
16905,,,survey-text,81,802933,0.0-13.0-3.7,46776,List1B,black,woman,,,,,"{""Q0"":""mike is marrying beth""}","<img src=""stim_listB/marry1.gif""</stim_listB>",is marrying,
null,"<div style=""font-size:60px;"">+</div>",,html-keyboard-response,82,803437,0.0-13.0-0.8,46776,List1B,black,woman,,,,null,,,,
null,"<img src=""stim_listB/meet8.gif""</stim_listB>",,html-keyboard-response,83,805443,0.0-13.0-1.8,46776,List1B,black,woman,,,,null,,,,
null,are meeting each other,,html-keyboard-response,84,807446,0.0-13.0-2.8,46776,List1B,black,woman,,,,null,,,,
14975,,,survey-text,85,822425,0.0-13.0-3.8,46776,List1B,black,woman,,,,,"{""Q0"":""ruth and beth are meeting each other""}","<img src=""stim_listB/meet8.gif""</stim_listB>",are meeting each other,
null,"<div style=""font-size:60px;"">+</div>",,html-keyboard-response,86,822930,0.0-13.0-0.9,46776,List1B,black,woman,,,,null,,,,
null,"<img src=""stim_listB/fight5.gif""</stim_listB>",,html-keyboard-response,87,824936,0.0-13.0-1.9,46776,List1B,black,woman,,,,null,,,,
null,is fighting,,html-keyboard-response,88,826938,0.0-13.0-2.9,46776,List1B,black,woman,,,,null,,,,
10565,,,survey-text,89,837507,0.0-13.0-3.9,46776,List1B,black,woman,,,,,"{""Q0"":""mike is fighting dave""}","<img src=""stim_listB/fight5.gif""</stim_listB>",is fighting,
null,"<div style=""font-size:60px;"">+</div>",,html-keyboard-response,90,838012,0.0-13.0-0.10,46776,List1B,black,woman,,,,null,,,,
null,"<img src=""stim_listB/shout7.gif""</stim_listB>",,html-keyboard-response,91,840017,0.0-13.0-1.10,46776,List1B,black,woman,,,,null,,,,
null,is shouting at,,html-keyboard-response,92,842021,0.0-13.0-2.10,46776,List1B,black,woman,,,,null,,,,
15788,,,survey-text,93,857812,0.0-13.0-3.10,46776,List1B,black,woman,,,,,"{""Q0"":""ruth is shouting at beth""}","<img src=""stim_listB/shout7.gif""</stim_listB>",is shouting at,
null,"<div style=""font-size:60px;"">+</div>",,html-keyboard-response,94,858316,0.0-13.0-0.11,46776,List1B,black,woman,,,,null,,,,
null,"<img src=""stim_listB/hug1.gif""</stim_listB>",,html-keyboard-response,95,860323,0.0-13.0-1.11,46776,List1B,black,woman,,,,null,,,,
null,is hugging,,html-keyboard-response,96,862326,0.0-13.0-2.11,46776,List1B,black,woman,,,,null,,,,
12183,,,survey-text,97,874513,0.0-13.0-3.11,46776,List1B,black,woman,,,,,"{""Q0"":""beth is hugging fred""}","<img src=""stim_listB/hug1.gif""</stim_listB>",is hugging,
null,"<div style=""font-size:60px;"">+</div>",,html-keyboard-response,98,875017,0.0-13.0-0.12,46776,List1B,black,woman,,,,null,,,,
null,"<img src=""stim_listB/shout5.gif""</stim_listB>",,html-keyboard-response,99,877023,0.0-13.0-1.12,46776,List1B,black,woman,,,,null,,,,
null,is shouting at,,html-keyboard-response,100,879027,0.0-13.0-2.12,46776,List1B,black,woman,,,,null,,,,
11678,,,survey-text,101,890707,0.0-13.0-3.12,46776,List1B,black,woman,,,,,"{""Q0"":""fred is shouting at luke""}","<img src=""stim_listB/shout5.gif""</stim_listB>",is shouting at,
null,"<div style=""font-size:60px;"">+</div>",,html-keyboard-response,102,891212,0.0-13.0-0.13,46776,List1B,black,woman,,,,null,,,,
null,"<img src=""stim_listB/kiss6.gif""</stim_listB>",,html-keyboard-response,103,893218,0.0-13.0-1.13,46776,List1B,black,woman,,,,null,,,,
null,are kissing each other,,html-keyboard-response,104,895221,0.0-13.0-2.13,46776,List1B,black,woman,,,,null,,,,
19114,,,survey-text,105,914337,0.0-13.0-3.13,46776,List1B,black,woman,,,,,"{""Q0"":""mike and dave are kissing each other""}","<img src=""stim_listB/kiss6.gif""</stim_listB>",are kissing each other,
null,"<div style=""font-size:60px;"">+</div>",,html-keyboard-response,106,914843,0.0-13.0-0.14,46776,List1B,black,woman,,,,null,,,,
null,"<img src=""stim_listB/hug3.gif""</stim_listB>",,html-keyboard-response,107,916849,0.0-13.0-1.14,46776,List1B,black,woman,,,,null,,,,
null,is hugging,,html-keyboard-response,108,918852,0.0-13.0-2.14,46776,List1B,black,woman,,,,null,,,,
10648,,,survey-text,109,929504,0.0-13.0-3.14,46776,List1B,black,woman,,,,,"{""Q0"":""ruth is hugging luke""}","<img src=""stim_listB/hug3.gif""</stim_listB>",is hugging,
null,"<div style=""font-size:60px;"">+</div>",,html-keyboard-response,110,930010,0.0-13.0-0.15,46776,List1B,black,woman,,,,null,,,,
null,"<img src=""stim_listB/marry3.gif""</stim_listB>",,html-keyboard-response,111,932018,0.0-13.0-1.15,46776,List1B,black,woman,,,,null,,,,
null,is marrying,,html-keyboard-response,112,934022,0.0-13.0-2.15,46776,List1B,black,woman,,,,null,,,,
11341,,,survey-text,113,945368,0.0-13.0-3.15,46776,List1B,black,woman,,,,,"{""Q0"":""ruth is marrying dave""}","<img src=""stim_listB/marry3.gif""</stim_listB>",is marrying,
null,"<div style=""font-size:60px;"">+</div>",,html-keyboard-response,114,945873,0.0-13.0-0.16,46776,List1B,black,woman,,,,null,,,,
null,"<img src=""stim_listB/kiss2.gif""</stim_listB>",,html-keyboard-response,115,947878,0.0-13.0-1.16,46776,List1B,black,woman,,,,null,,,,
null,are kissing each other,,html-keyboard-response,116,949882,0.0-13.0-2.16,46776,List1B,black,woman,,,,null,,,,
22312,,,survey-text,117,972197,0.0-13.0-3.16,46776,List1B,black,woman,,,,,"{""Q0"":""kate and fred are kissing each other""}","<img src=""stim_listB/kiss2.gif""</stim_listB>",are kissing each other,
null,"<div style=""font-size:60px;"">+</div>",,html-keyboard-response,118,972703,0.0-13.0-0.17,46776,List1B,black,woman,,,,null,,,,
null,"<img src=""stim_listB/marry5.gif""</stim_listB>",,html-keyboard-response,119,974706,0.0-13.0-1.17,46776,List1B,black,woman,,,,null,,,,
null,is marrying,,html-keyboard-response,120,976711,0.0-13.0-2.17,46776,List1B,black,woman,,,,null,,,,
11160,,,survey-text,121,987875,0.0-13.0-3.17,46776,List1B,black,woman,,,,,"{""Q0"":""luke is marrying mike""}","<img src=""stim_listB/marry5.gif""</stim_listB>",is marrying,
null,"<div style=""font-size:60px;"">+</div>",,html-keyboard-response,122,988385,0.0-13.0-0.18,46776,List1B,black,woman,,,,null,,,,
null,"<img src=""stim_listB/talk7.gif""</stim_listB>",,html-keyboard-response,123,990390,0.0-13.0-1.18,46776,List1B,black,woman,,,,null,,,,
null,is talking to,,html-keyboard-response,124,992393,0.0-13.0-2.18,46776,List1B,black,woman,,,,null,,,,
12631,,,survey-text,125,1005027,0.0-13.0-3.18,46776,List1B,black,woman,,,,,"{""Q0"":""jane is talking to beth""}","<img src=""stim_listB/talk7.gif""</stim_listB>",is talking to,
null,"<div style=""font-size:60px;"">+</div>",,html-keyboard-response,126,1005530,0.0-13.0-0.19,46776,List1B,black,woman,,,,null,,,,
null,"<img src=""stim_listB/shout2.gif""</stim_listB>",,html-keyboard-response,127,1007535,0.0-13.0-1.19,46776,List1B,black,woman,,,,null,,,,
null,are shouting at each other,,html-keyboard-response,128,1009540,0.0-13.0-2.19,46776,List1B,black,woman,,,,null,,,,
19269,,,survey-text,129,1028811,0.0-13.0-3.19,46776,List1B,black,woman,,,,,"{""Q0"":""kate and mike are shouting at each other""}","<img src=""stim_listB/shout2.gif""</stim_listB>",are shouting at each other,
6702,"<img src='img/portrait_matrix_list1.JPG' style='width:900px;height:500px;''></img><p>If you have memorised all the portraits and names and are ready to start, press Continue.</p><p><strong>Please note: Your memory of these faces will be tested 4 times during this experiment.</strong></p>",0,html-button-response,130,1035516,0.0-14.0-0.0,46776,List1B,black,woman,,,,,,,,
3088,"<img src=""portrait/BW1.jpg""style=""width:400px;height:400px;""></img>",0,html-button-response,131,1039612,0.0-14.0-1.0,46776,List1B,black,woman,,TRUE,0,,,,,
null,CORRECT,,html-keyboard-response,132,1041119,0.0-14.0-2.0-0.0,46776,List1B,black,woman,,,,null,,,,
4163,"<img src=""portrait/BW2.jpg""style=""width:400px;height:400px;""></img>",3,html-button-response,133,1045288,0.0-14.0-4.0,46776,List1B,black,woman,,TRUE,2,,,,,
2748,"<img src=""portrait/BW2.jpg""style=""width:400px;height:400px;""></img>",2,html-button-response,134,1049047,0.0-14.0-6.0-0.0,46776,List1B,black,woman,,FALSE,2,,,,,
null,CORRECT,,html-keyboard-response,135,1050552,0.0-14.0-6.0-1.0-0.0,46776,List1B,black,woman,,,,null,,,,
2320,"<img src=""portrait/BM2.jpg""style=""width:400px;height:400px;""></img>",5,html-button-response,136,1052880,0.0-14.0-7.0,46776,List1B,black,woman,,TRUE,5,,,,,
null,CORRECT,,html-keyboard-response,137,1054388,0.0-14.0-8.0-0.0,46776,List1B,black,woman,,,,null,,,,
4339,"<img src=""portrait/WW2.jpg""style=""width:400px;height:400px;""></img>",3,html-button-response,138,1058733,0.0-14.0-10.0,46776,List1B,black,woman,,TRUE,3,,,,,
null,CORRECT,,html-keyboard-response,139,1060240,0.0-14.0-11.0-0.0,46776,List1B,black,woman,,,,null,,,,
3013,"<img src=""portrait/WM1.jpg""style=""width:400px;height:400px;""></img>",6,html-button-response,140,1063259,0.0-14.0-13.0,46776,List1B,black,woman,,TRUE,6,,,,,
null,CORRECT,,html-keyboard-response,141,1064765,0.0-14.0-14.0-0.0,46776,List1B,black,woman,,,,null,,,,
6183,"<img src=""portrait/WW1.jpg""style=""width:400px;height:400px;""></img>",1,html-button-response,142,1070952,0.0-14.0-16.0,46776,List1B,black,woman,,TRUE,1,,,,,
null,CORRECT,,html-keyboard-response,143,1072458,0.0-14.0-17.0-0.0,46776,List1B,black,woman,,,,null,,,,
2308,"<img src=""portrait/WM2.jpg""style=""width:400px;height:400px;""></img>",7,html-button-response,144,1074774,0.0-14.0-19.0,46776,List1B,black,woman,,TRUE,7,,,,,
null,CORRECT,,html-keyboard-response,145,1076280,0.0-14.0-20.0-0.0,46776,List1B,black,woman,,,,null,,,,
5415,"<img src=""portrait/BM1.jpg""style=""width:400px;height:400px;""></img>",4,html-button-response,146,1081699,0.0-14.0-22.0,46776,List1B,black,woman,,TRUE,4,,,,,
null,CORRECT,,html-keyboard-response,147,1083203,0.0-14.0-23.0-0.0,46776,List1B,black,woman,,,,null,,,,
2026,<p>You got 7 out of 8 right first time. Press Continue.</p>,0,html-button-response,148,1085233,0.0-14.0-25.0,46776,List1B,black,woman,,,,,,,,
3366,"As you did not score 100%, the memory game will repeat. Press Continue.",0,html-button-response,149,1089605,0.0-14.0-26.0-0.0,46776,List1B,black,woman,,,,,,,,
6197,"<img src='img/portrait_matrix_list1.JPG' style='width:900px;height:500px;''></img><p>If you have memorised all the portraits and names and are ready to start, press Continue.</p><p><strong>Please note: Your memory of these faces will be tested 4 times during this experiment.</strong></p>",0,html-button-response,150,1096809,0.0-14.1-0.1,46776,List1B,black,woman,,,,,,,,
4511,"<img src=""portrait/BW1.jpg""style=""width:400px;height:400px;""></img>",0,html-button-response,151,1102327,0.0-14.1-1.1,46776,List1B,black,woman,,TRUE,0,,,,,
null,CORRECT,,html-keyboard-response,152,1103835,0.0-14.1-2.1-0.1,46776,List1B,black,woman,,,,null,,,,
3467,"<img src=""portrait/BW2.jpg""style=""width:400px;height:400px;""></img>",2,html-button-response,153,1107306,0.0-14.1-4.1,46776,List1B,black,woman,,TRUE,2,,,,,
null,CORRECT,,html-keyboard-response,154,1108812,0.0-14.1-5.1-0.1,46776,List1B,black,woman,,,,null,,,,
2415,"<img src=""portrait/BM2.jpg""style=""width:400px;height:400px;""></img>",5,html-button-response,155,1111232,0.0-14.1-7.1,46776,List1B,black,woman,,TRUE,5,,,,,
null,CORRECT,,html-keyboard-response,156,1112736,0.0-14.1-8.1-0.1,46776,List1B,black,woman,,,,null,,,,
3228,"<img src=""portrait/WW2.jpg""style=""width:400px;height:400px;""></img>",3,html-button-response,157,1115972,0.0-14.1-10.1,46776,List1B,black,woman,,TRUE,3,,,,,
null,CORRECT,,html-keyboard-response,158,1117478,0.0-14.1-11.1-0.1,46776,List1B,black,woman,,,,null,,,,
2189,"<img src=""portrait/WM1.jpg""style=""width:400px;height:400px;""></img>",6,html-button-response,159,1119671,0.0-14.1-13.1,46776,List1B,black,woman,,TRUE,6,,,,,
null,CORRECT,,html-keyboard-response,160,1121175,0.0-14.1-14.1-0.1,46776,List1B,black,woman,,,,null,,,,
3538,"<img src=""portrait/WW1.jpg""style=""width:400px;height:400px;""></img>",1,html-button-response,161,1124719,0.0-14.1-16.1,46776,List1B,black,woman,,TRUE,1,,,,,
null,CORRECT,,html-keyboard-response,162,1126225,0.0-14.1-17.1-0.1,46776,List1B,black,woman,,,,null,,,,
1484,"<img src=""portrait/WM2.jpg""style=""width:400px;height:400px;""></img>",7,html-button-response,163,1127714,0.0-14.1-19.1,46776,List1B,black,woman,,TRUE,7,,,,,
null,CORRECT,,html-keyboard-response,164,1129219,0.0-14.1-20.1-0.1,46776,List1B,black,woman,,,,null,,,,
2077,"<img src=""portrait/BM1.jpg""style=""width:400px;height:400px;""></img>",4,html-button-response,165,1131302,0.0-14.1-22.1,46776,List1B,black,woman,,TRUE,4,,,,,
null,CORRECT,,html-keyboard-response,166,1132808,0.0-14.1-23.1-0.1,46776,List1B,black,woman,,,,null,,,,
1569,<p>You got 8 out of 8 right first time. Press Continue.</p>,0,html-button-response,167,1134380,0.0-14.1-25.1,46776,List1B,black,woman,,,,,,,,
null,"<div style=""font-size:60px;"">+</div>",,html-keyboard-response,168,1135889,0.0-15.0-0.0,46776,List1B,black,woman,,,,null,,,,
null,"<img src=""stim_listB/meet2.gif""</stim_listB>",,html-keyboard-response,169,1137895,0.0-15.0-1.0,46776,List1B,black,woman,,,,null,,,,
null,are meeting each other,,html-keyboard-response,170,1139899,0.0-15.0-2.0,46776,List1B,black,woman,,,,null,,,,
17311,,,survey-text,171,1157212,0.0-15.0-3.0,46776,List1B,black,woman,,,,,"{""Q0"":""fred and beth are meeting each other""}","<img src=""stim_listB/meet2.gif""</stim_listB>",are meeting each other,
null,"<div style=""font-size:60px;"">+</div>",,html-keyboard-response,172,1157716,0.0-15.0-0.1,46776,List1B,black,woman,,,,null,,,,
null,"<img src=""stim_listB/meet3.gif""</stim_listB>",,html-keyboard-response,173,1159722,0.0-15.0-1.1,46776,List1B,black,woman,,,,null,,,,
null,is meeting,,html-keyboard-response,174,1161725,0.0-15.0-2.1,46776,List1B,black,woman,,,,null,,,,
15026,,,survey-text,175,1176754,0.0-15.0-3.1,46776,List1B,black,woman,,,,,"{""Q0"":""dave is meeting jane""}","<img src=""stim_listB/meet3.gif""</stim_listB>",is meeting,
null,"<div style=""font-size:60px;"">+</div>",,html-keyboard-response,176,1177259,0.0-15.0-0.2,46776,List1B,black,woman,,,,null,,,,
null,"<img src=""stim_listB/argue3.gif""</stim_listB>",,html-keyboard-response,177,1179263,0.0-15.0-1.2,46776,List1B,black,woman,,,,null,,,,
null,is arguing with,,html-keyboard-response,178,1181275,0.0-15.0-2.2,46776,List1B,black,woman,,,,null,,,,
15222,,,survey-text,179,1196502,0.0-15.0-3.2,46776,List1B,black,woman,,,,,"{""Q0"":""dave is arguing with ruth""}","<img src=""stim_listB/argue3.gif""</stim_listB>",is arguing with,
null,"<div style=""font-size:60px;"">+</div>",,html-keyboard-response,180,1197007,0.0-15.0-0.3,46776,List1B,black,woman,,,,null,,,,
null,"<img src=""stim_listB/kiss8.gif""</stim_listB>",,html-keyboard-response,181,1199013,0.0-15.0-1.3,46776,List1B,black,woman,,,,null,,,,
null,are kissing each other,,html-keyboard-response,182,1201016,0.0-15.0-2.3,46776,List1B,black,woman,,,,null,,,,
19548,,,survey-text,183,1220567,0.0-15.0-3.3,46776,List1B,black,woman,,,,,"{""Q0"":""jane and beth are kissing each other""}","<img src=""stim_listB/kiss8.gif""</stim_listB>",are kissing each other,
null,"<div style=""font-size:60px;"">+</div>",,html-keyboard-response,184,1221074,0.0-15.0-0.4,46776,List1B,black,woman,,,,null,,,,
null,"<img src=""stim_listB/fight3.gif""</stim_listB>",,html-keyboard-response,185,1223079,0.0-15.0-1.4,46776,List1B,black,woman,,,,null,,,,
null,is fighting,,html-keyboard-response,186,1225083,0.0-15.0-2.4,46776,List1B,black,woman,,,,null,,,,
20710,,,survey-text,187,1245796,0.0-15.0-3.4,46776,List1B,black,woman,,,,,"{""Q0"":""jane is fighting with dave""}","<img src=""stim_listB/fight3.gif""</stim_listB>",is fighting,
null,"<div style=""font-size:60px;"">+</div>",,html-keyboard-response,188,1246299,0.0-15.0-0.5,46776,List1B,black,woman,,,,null,,,,
null,"<img src=""stim_listB/fight8.gif""</stim_listB>",,html-keyboard-response,189,1248305,0.0-15.0-1.5,46776,List1B,black,woman,,,,null,,,,
null,are fighting each other,,html-keyboard-response,190,1250308,0.0-15.0-2.5,46776,List1B,black,woman,,,,null,,,,
28360,,,survey-text,191,1278672,0.0-15.0-3.5,46776,List1B,black,woman,,,,,"{""Q0"":""beth and ruth are fighting each other""}","<img src=""stim_listB/fight8.gif""</stim_listB>",are fighting each other,
null,"<div style=""font-size:60px;"">+</div>",,html-keyboard-response,192,1279176,0.0-15.0-0.6,46776,List1B,black,woman,,,,null,,,,
null,"<img src=""stim_listB/touch3.gif""</stim_listB>",,html-keyboard-response,193,1281184,0.0-15.0-1.6,46776,List1B,black,woman,,,,null,,,,
null,is touching,,html-keyboard-response,194,1283188,0.0-15.0-2.6,46776,List1B,black,woman,,,,null,,,,
11141,,,survey-text,195,1294335,0.0-15.0-3.6,46776,List1B,black,woman,,,,,"{""Q0"":""jane is touching dave""}","<img src=""stim_listB/touch3.gif""</stim_listB>",is touching,
null,"<div style=""font-size:60px;"">+</div>",,html-keyboard-response,196,1294840,0.0-15.0-0.7,46776,List1B,black,woman,,,,null,,,,
null,"<img src=""stim_listB/meet5.gif""</stim_listB>",,html-keyboard-response,197,1296847,0.0-15.0-1.7,46776,List1B,black,woman,,,,null,,,,
null,is meeting,,html-keyboard-response,198,1298853,0.0-15.0-2.7,46776,List1B,black,woman,,,,null,,,,
8725,,,survey-text,199,1307582,0.0-15.0-3.7,46776,List1B,black,woman,,,,,"{""Q0"":""dave is meeting mike""}","<img src=""stim_listB/meet5.gif""</stim_listB>",is meeting,
null,"<div style=""font-size:60px;"">+</div>",,html-keyboard-response,200,1308098,0.0-15.0-0.8,46776,List1B,black,woman,,,,null,,,,
null,"<img src=""stim_listB/fight4.gif""</stim_listB>",,html-keyboard-response,201,1310104,0.0-15.0-1.8,46776,List1B,black,woman,,,,null,,,,
null,are fighting each other,,html-keyboard-response,202,1312109,0.0-15.0-2.8,46776,List1B,black,woman,,,,null,,,,
15220,,,survey-text,203,1327333,0.0-15.0-3.8,46776,List1B,black,woman,,,,,"{""Q0"":""ruth and luke are fighting each other""}","<img src=""stim_listB/fight4.gif""</stim_listB>",are fighting each other,
null,"<div style=""font-size:60px;"">+</div>",,html-keyboard-response,204,1327837,0.0-15.0-0.9,46776,List1B,black,woman,,,,null,,,,
null,"<img src=""stim_listB/touch2.gif""</stim_listB>",,html-keyboard-response,205,1329844,0.0-15.0-1.9,46776,List1B,black,woman,,,,null,,,,
null,are touching each other,,html-keyboard-response,206,1331847,0.0-15.0-2.9,46776,List1B,black,woman,,,,null,,,,
28947,,,survey-text,207,1360801,0.0-15.0-3.9,46776,List1B,black,woman,,,,,"{""Q0"":""fred and beth are touching each other""}","<img src=""stim_listB/touch2.gif""</stim_listB>",are touching each other,
null,"<div style=""font-size:60px;"">+</div>",,html-keyboard-response,208,1361306,0.0-15.0-0.10,46776,List1B,black,woman,,,,null,,,,
null,"<img src=""stim_listB/touch7.gif""</stim_listB>",,html-keyboard-response,209,1363311,0.0-15.0-1.10,46776,List1B,black,woman,,,,null,,,,
null,is touching,,html-keyboard-response,210,1365313,0.0-15.0-2.10,46776,List1B,black,woman,,,,null,,,,
10956,,,survey-text,211,1376272,0.0-15.0-3.10,46776,List1B,black,woman,,,,,"{""Q0"":""jane is touching beth""}","<img src=""stim_listB/touch7.gif""</stim_listB>",is touching,
null,"<div style=""font-size:60px;"">+</div>",,html-keyboard-response,212,1376775,0.0-15.0-0.11,46776,List1B,black,woman,,,,null,,,,
null,"<img src=""stim_listB/shout1.gif""</stim_listB>",,html-keyboard-response,213,1378780,0.0-15.0-1.11,46776,List1B,black,woman,,,,null,,,,
null,is shouting at,,html-keyboard-response,214,1380783,0.0-15.0-2.11,46776,List1B,black,woman,,,,null,,,,
21729,,,survey-text,215,1402515,0.0-15.0-3.11,46776,List1B,black,woman,,,,,"{""Q0"":""beth is shouting at fred""}","<img src=""stim_listB/shout1.gif""</stim_listB>",is shouting at,
null,"<div style=""font-size:60px;"">+</div>",,html-keyboard-response,216,1403021,0.0-15.0-0.12,46776,List1B,black,woman,,,,null,,,,
null,"<img src=""stim_listB/talk8.gif""</stim_listB>",,html-keyboard-response,217,1405027,0.0-15.0-1.12,46776,List1B,black,woman,,,,null,,,,
null,are talking to each other,,html-keyboard-response,218,1407032,0.0-15.0-2.12,46776,List1B,black,woman,,,,null,,,,
16122,,,survey-text,219,1423157,0.0-15.0-3.12,46776,List1B,black,woman,,,,,"{""Q0"":""ruth and kate are talking to each other""}","<img src=""stim_listB/talk8.gif""</stim_listB>",are talking to each other,
null,"<div style=""font-size:60px;"">+</div>",,html-keyboard-response,220,1423661,0.0-15.0-0.13,46776,List1B,black,woman,,,,null,,,,
null,"<img src=""stim_listB/dance1.gif""</stim_listB>",,html-keyboard-response,221,1425667,0.0-15.0-1.13,46776,List1B,black,woman,,,,null,,,,
null,is dancing with,,html-keyboard-response,222,1427669,0.0-15.0-2.13,46776,List1B,black,woman,,,,null,,,,
11743,,,survey-text,223,1439417,0.0-15.0-3.13,46776,List1B,black,woman,,,,,"{""Q0"":""kate is dancing with fred""}","<img src=""stim_listB/dance1.gif""</stim_listB>",is dancing with,
null,"<div style=""font-size:60px;"">+</div>",,html-keyboard-response,224,1439923,0.0-15.0-0.14,46776,List1B,black,woman,,,,null,,,,
null,"<img src=""stim_listB/dance5.gif""</stim_listB>",,html-keyboard-response,225,1441929,0.0-15.0-1.14,46776,List1B,black,woman,,,,null,,,,
null,is dancing with,,html-keyboard-response,226,1443932,0.0-15.0-2.14,46776,List1B,black,woman,,,,null,,,,
13087,,,survey-text,227,1457022,0.0-15.0-3.14,46776,List1B,black,woman,,,,,"{""Q0"":""dave is dancing with fred""}","<img src=""stim_listB/dance5.gif""</stim_listB>",is dancing with,
null,"<div style=""font-size:60px;"">+</div>",,html-keyboard-response,228,1457527,0.0-15.0-0.15,46776,List1B,black,woman,,,,null,,,,
null,"<img src=""stim_listB/fight6.gif""</stim_listB>",,html-keyboard-response,229,1459532,0.0-15.0-1.15,46776,List1B,black,woman,,,,null,,,,
null,are fighting each other,,html-keyboard-response,230,1461535,0.0-15.0-2.15,46776,List1B,black,woman,,,,null,,,,
15060,,,survey-text,231,1476601,0.0-15.0-3.15,46776,List1B,black,woman,,,,,"{""Q0"":""fred and luke are fighting each other""}","<img src=""stim_listB/fight6.gif""</stim_listB>",are fighting each other,
null,"<div style=""font-size:60px;"">+</div>",,html-keyboard-response,232,1477106,0.0-15.0-0.16,46776,List1B,black,woman,,,,null,,,,
null,"<img src=""stim_listB/argue1.gif""</stim_listB>",,html-keyboard-response,233,1479112,0.0-15.0-1.16,46776,List1B,black,woman,,,,null,,,,
null,is arguing with,,html-keyboard-response,234,1481116,0.0-15.0-2.16,46776,List1B,black,woman,,,,null,,,,
11241,,,survey-text,235,1492361,0.0-15.0-3.16,46776,List1B,black,woman,,,,,"{""Q0"":""beth is arguing with mike""}","<img src=""stim_listB/argue1.gif""</stim_listB>",is arguing with,
null,"<div style=""font-size:60px;"">+</div>",,html-keyboard-response,236,1492868,0.0-15.0-0.17,46776,List1B,black,woman,,,,null,,,,
null,"<img src=""stim_listB/argue5.gif""</stim_listB>",,html-keyboard-response,237,1494873,0.0-15.0-1.17,46776,List1B,black,woman,,,,null,,,,
null,is arguing with,,html-keyboard-response,238,1496878,0.0-15.0-2.17,46776,List1B,black,woman,,,,null,,,,
13562,,,survey-text,239,1510443,0.0-15.0-3.17,46776,List1B,black,woman,,,,,"{""Q0"":""mike is arguing with luke""}","<img src=""stim_listB/argue5.gif""</stim_listB>",is arguing with,
null,"<div style=""font-size:60px;"">+</div>",,html-keyboard-response,240,1510946,0.0-15.0-0.18,46776,List1B,black,woman,,,,null,,,,
null,"<img src=""stim_listB/marry7.gif""</stim_listB>",,html-keyboard-response,241,1512951,0.0-15.0-1.18,46776,List1B,black,woman,,,,null,,,,
null,is marrying,,html-keyboard-response,242,1514954,0.0-15.0-2.18,46776,List1B,black,woman,,,,null,,,,
21318,,,survey-text,243,1536274,0.0-15.0-3.18,46776,List1B,black,woman,,,,,"{""Q0"":""ruth is marrying kate""}","<img src=""stim_listB/marry7.gif""</stim_listB>",is marrying,
null,"<div style=""font-size:60px;"">+</div>",,html-keyboard-response,244,1536780,0.0-15.0-0.19,46776,List1B,black,woman,,,,null,,,,
null,"<img src=""stim_listB/argue7.gif""</stim_listB>",,html-keyboard-response,245,1538785,0.0-15.0-1.19,46776,List1B,black,woman,,,,null,,,,
null,is arguing with,,html-keyboard-response,246,1540788,0.0-15.0-2.19,46776,List1B,black,woman,,,,null,,,,
16796,,,survey-text,247,1557588,0.0-15.0-3.19,46776,List1B,black,woman,,,,,"{""Q0"":""kate is arguing with ruth""}","<img src=""stim_listB/argue7.gif""</stim_listB>",is arguing with,
4425,"<img src='img/portrait_matrix_list1.JPG' style='width:900px;height:500px;''></img><p>If you have memorised all the portraits and names and are ready to start, press Continue.</p><p><strong>Please note: Your memory of these faces will be tested 4 times during this experiment.</strong></p>",0,html-button-response,248,1562017,0.0-16.0-0.0,46776,List1B,black,woman,,,,,,,,
2656,"<img src=""portrait/BM1.jpg""style=""width:400px;height:400px;""></img>",4,html-button-response,249,1565680,0.0-16.0-1.0,46776,List1B,black,woman,,TRUE,4,,,,,
null,CORRECT,,html-keyboard-response,250,1567185,0.0-16.0-2.0-0.0,46776,List1B,black,woman,,,,null,,,,
2172,"<img src=""portrait/BM2.jpg""style=""width:400px;height:400px;""></img>",5,html-button-response,251,1569364,0.0-16.0-4.0,46776,List1B,black,woman,,TRUE,5,,,,,
null,CORRECT,,html-keyboard-response,252,1570870,0.0-16.0-5.0-0.0,46776,List1B,black,woman,,,,null,,,,
3755,"<img src=""portrait/WW2.jpg""style=""width:400px;height:400px;""></img>",3,html-button-response,253,1574633,0.0-16.0-7.0,46776,List1B,black,woman,,TRUE,3,,,,,
null,CORRECT,,html-keyboard-response,254,1576140,0.0-16.0-8.0-0.0,46776,List1B,black,woman,,,,null,,,,
2472,"<img src=""portrait/WM1.jpg""style=""width:400px;height:400px;""></img>",6,html-button-response,255,1578620,0.0-16.0-10.0,46776,List1B,black,woman,,TRUE,6,,,,,
null,CORRECT,,html-keyboard-response,256,1580124,0.0-16.0-11.0-0.0,46776,List1B,black,woman,,,,null,,,,
1808,"<img src=""portrait/WM2.jpg""style=""width:400px;height:400px;""></img>",7,html-button-response,257,1581938,0.0-16.0-13.0,46776,List1B,black,woman,,TRUE,7,,,,,
null,CORRECT,,html-keyboard-response,258,1583443,0.0-16.0-14.0-0.0,46776,List1B,black,woman,,,,null,,,,
2298,"<img src=""portrait/WW1.jpg""style=""width:400px;height:400px;""></img>",1,html-button-response,259,1585747,0.0-16.0-16.0,46776,List1B,black,woman,,TRUE,1,,,,,
null,CORRECT,,html-keyboard-response,260,1587254,0.0-16.0-17.0-0.0,46776,List1B,black,woman,,,,null,,,,
2199,"<img src=""portrait/BW1.jpg""style=""width:400px;height:400px;""></img>",0,html-button-response,261,1589461,0.0-16.0-19.0,46776,List1B,black,woman,,TRUE,0,,,,,
null,CORRECT,,html-keyboard-response,262,1590967,0.0-16.0-20.0-0.0,46776,List1B,black,woman,,,,null,,,,
6772,"<img src=""portrait/BW2.jpg""style=""width:400px;height:400px;""></img>",2,html-button-response,263,1597743,0.0-16.0-22.0,46776,List1B,black,woman,,TRUE,2,,,,,
null,CORRECT,,html-keyboard-response,264,1599253,0.0-16.0-23.0-0.0,46776,List1B,black,woman,,,,null,,,,
2796,<p>You got 8 out of 8 right first time. Press Continue.</p>,0,html-button-response,265,1602054,0.0-16.0-25.0,46776,List1B,black,woman,,,,,,,,
null,"<div style=""font-size:60px;"">+</div>",,html-keyboard-response,266,1603561,0.0-17.0-0.0,46776,List1B,black,woman,,,,null,,,,
null,"<img src=""stim_listB/kiss7.gif""</stim_listB>",,html-keyboard-response,267,1605568,0.0-17.0-1.0,46776,List1B,black,woman,,,,null,,,,
null,is kissing,,html-keyboard-response,268,1607572,0.0-17.0-2.0,46776,List1B,black,woman,,,,null,,,,
9797,,,survey-text,269,1617373,0.0-17.0-3.0,46776,List1B,black,woman,,,,,"{""Q0"":""ruth is kissing beth""}","<img src=""stim_listB/kiss7.gif""</stim_listB>",is kissing,
null,"<div style=""font-size:60px;"">+</div>",,html-keyboard-response,270,1617878,0.0-17.0-0.1,46776,List1B,black,woman,,,,null,,,,
null,"<img src=""stim_listB/marry2.gif""</stim_listB>",,html-keyboard-response,271,1619887,0.0-17.0-1.1,46776,List1B,black,woman,,,,null,,,,
null,are marrying each other,,html-keyboard-response,272,1621890,0.0-17.0-2.1,46776,List1B,black,woman,,,,null,,,,
14041,,,survey-text,273,1635933,0.0-17.0-3.1,46776,List1B,black,woman,,,,,"{""Q0"":""fred and kate are marrying each other""}","<img src=""stim_listB/marry2.gif""</stim_listB>",are marrying each other,
null,"<div style=""font-size:60px;"">+</div>",,html-keyboard-response,274,1636439,0.0-17.0-0.2,46776,List1B,black,woman,,,,null,,,,
null,"<img src=""stim_listB/meet4.gif""</stim_listB>",,html-keyboard-response,275,1638446,0.0-17.0-1.2,46776,List1B,black,woman,,,,null,,,,
null,are meeting each other,,html-keyboard-response,276,1640449,0.0-17.0-2.2,46776,List1B,black,woman,,,,null,,,,
14941,,,survey-text,277,1655396,0.0-17.0-3.2,46776,List1B,black,woman,,,,,"{""Q0"":""ruth and luke are meeting each other""}","<img src=""stim_listB/meet4.gif""</stim_listB>",are meeting each other,
null,"<div style=""font-size:60px;"">+</div>",,html-keyboard-response,278,1655901,0.0-17.0-0.3,46776,List1B,black,woman,,,,null,,,,
null,"<img src=""stim_listB/talk5.gif""</stim_listB>",,html-keyboard-response,279,1657905,0.0-17.0-1.3,46776,List1B,black,woman,,,,null,,,,
null,is talking to,,html-keyboard-response,280,1659910,0.0-17.0-2.3,46776,List1B,black,woman,,,,null,,,,
8395,,,survey-text,281,1668309,0.0-17.0-3.3,46776,List1B,black,woman,,,,,"{""Q0"":""dave is talking to fred""}","<img src=""stim_listB/talk5.gif""</stim_listB>",is talking to,
null,"<div style=""font-size:60px;"">+</div>",,html-keyboard-response,282,1668813,0.0-17.0-0.4,46776,List1B,black,woman,,,,null,,,,
null,"<img src=""stim_listB/talk6.gif""</stim_listB>",,html-keyboard-response,283,1670818,0.0-17.0-1.4,46776,List1B,black,woman,,,,null,,,,
null,are talking to each other,,html-keyboard-response,284,1672820,0.0-17.0-2.4,46776,List1B,black,woman,,,,null,,,,
15461,,,survey-text,285,1688284,0.0-17.0-3.4,46776,List1B,black,woman,,,,,"{""Q0"":""mike and luke are talking to each other""}","<img src=""stim_listB/talk6.gif""</stim_listB>",are talking to each other,
null,"<div style=""font-size:60px;"">+</div>",,html-keyboard-response,286,1688788,0.0-17.0-0.5,46776,List1B,black,woman,,,,null,,,,
null,"<img src=""stim_listB/shout4.gif""</stim_listB>",,html-keyboard-response,287,1690794,0.0-17.0-1.5,46776,List1B,black,woman,,,,null,,,,
null,are shouting at each other,,html-keyboard-response,288,1692801,0.0-17.0-2.5,46776,List1B,black,woman,,,,null,,,,
13680,,,survey-text,289,1706483,0.0-17.0-3.5,46776,List1B,black,woman,,,,,"{""Q0"":""dave and jane are shouting at each other""}","<img src=""stim_listB/shout4.gif""</stim_listB>",are shouting at each other,
null,"<div style=""font-size:60px;"">+</div>",,html-keyboard-response,290,1706989,0.0-17.0-0.6,46776,List1B,black,woman,,,,null,,,,
null,"<img src=""stim_listB/shout6.gif""</stim_listB>",,html-keyboard-response,291,1708994,0.0-17.0-1.6,46776,List1B,black,woman,,,,null,,,,
null,are shouting at each other,,html-keyboard-response,292,1710998,0.0-17.0-2.6,46776,List1B,black,woman,,,,null,,,,
17078,,,survey-text,293,1728079,0.0-17.0-3.6,46776,List1B,black,woman,,,,,"{""Q0"":""mike and dave are shouting at each other""}","<img src=""stim_listB/shout6.gif""</stim_listB>",are shouting at each other,
null,"<div style=""font-size:60px;"">+</div>",,html-keyboard-response,294,1728583,0.0-17.0-0.7,46776,List1B,black,woman,,,,null,,,,
null,"<img src=""stim_listB/talk3.gif""</stim_listB>",,html-keyboard-response,295,1730589,0.0-17.0-1.7,46776,List1B,black,woman,,,,null,,,,
null,is talking to,,html-keyboard-response,296,1732591,0.0-17.0-2.7,46776,List1B,black,woman,,,,null,,,,
9627,,,survey-text,297,1742221,0.0-17.0-3.7,46776,List1B,black,woman,,,,,"{""Q0"":""jane is talking to luke""}","<img src=""stim_listB/talk3.gif""</stim_listB>",is talking to,
null,"<div style=""font-size:60px;"">+</div>",,html-keyboard-response,298,1742725,0.0-17.0-0.8,46776,List1B,black,woman,,,,null,,,,
null,"<img src=""stim_listB/hug7.gif""</stim_listB>",,html-keyboard-response,299,1744730,0.0-17.0-1.8,46776,List1B,black,woman,,,,null,,,,
null,is hugging,,html-keyboard-response,300,1746733,0.0-17.0-2.8,46776,List1B,black,woman,,,,null,,,,
9888,,,survey-text,301,1756626,0.0-17.0-3.8,46776,List1B,black,woman,,,,,"{""Q0"":""ruth is hugging beth""}","<img src=""stim_listB/hug7.gif""</stim_listB>",is hugging,
null,"<div style=""font-size:60px;"">+</div>",,html-keyboard-response,302,1757137,0.0-17.0-0.9,46776,List1B,black,woman,,,,null,,,,
null,"<img src=""stim_listB/talk4.gif""</stim_listB>",,html-keyboard-response,303,1759144,0.0-17.0-1.9,46776,List1B,black,woman,,,,null,,,,
null,are talking to each other,,html-keyboard-response,304,1761147,0.0-17.0-2.9,46776,List1B,black,woman,,,,null,,,,
13324,,,survey-text,305,1774475,0.0-17.0-3.9,46776,List1B,black,woman,,,,,"{""Q0"":""dave and ruth are talking to each other""}","<img src=""stim_listB/talk4.gif""</stim_listB>",are talking to each other,
null,"<div style=""font-size:60px;"">+</div>",,html-keyboard-response,306,1774980,0.0-17.0-0.10,46776,List1B,black,woman,,,,null,,,,
null,"<img src=""stim_listB/kiss3.gif""</stim_listB>",,html-keyboard-response,307,1776986,0.0-17.0-1.10,46776,List1B,black,woman,,,,null,,,,
null,is kissing,,html-keyboard-response,308,1778990,0.0-17.0-2.10,46776,List1B,black,woman,,,,null,,,,
9602,,,survey-text,309,1788596,0.0-17.0-3.10,46776,List1B,black,woman,,,,,"{""Q0"":""ruth is kissing luke""}","<img src=""stim_listB/kiss3.gif""</stim_listB>",is kissing,
null,"<div style=""font-size:60px;"">+</div>",,html-keyboard-response,310,1789100,0.0-17.0-0.11,46776,List1B,black,woman,,,,null,,,,
null,"<img src=""stim_listB/touch8.gif""</stim_listB>",,html-keyboard-response,311,1791108,0.0-17.0-1.11,46776,List1B,black,woman,,,,null,,,,
null,are touching each other,,html-keyboard-response,312,1793111,0.0-17.0-2.11,46776,List1B,black,woman,,,,null,,,,
16431,,,survey-text,313,1809545,0.0-17.0-3.11,46776,List1B,black,woman,,,,,"{""Q0"":""ruth and beth are touching each other""}","<img src=""stim_listB/touch8.gif""</stim_listB>",are touching each other,
null,"<div style=""font-size:60px;"">+</div>",,html-keyboard-response,314,1810052,0.0-17.0-0.12,46776,List1B,black,woman,,,,null,,,,
null,"<img src=""stim_listB/kiss5.gif""</stim_listB>",,html-keyboard-response,315,1812058,0.0-17.0-1.12,46776,List1B,black,woman,,,,null,,,,
null,is kissing,,html-keyboard-response,316,1814062,0.0-17.0-2.12,46776,List1B,black,woman,,,,null,,,,
8686,,,survey-text,317,1822751,0.0-17.0-3.12,46776,List1B,black,woman,,,,,"{""Q0"":""fred is kissing luke""}","<img src=""stim_listB/kiss5.gif""</stim_listB>",is kissing,
null,"<div style=""font-size:60px;"">+</div>",,html-keyboard-response,318,1823257,0.0-17.0-0.13,46776,List1B,black,woman,,,,null,,,,
null,"<img src=""stim_listB/marry8.gif""</stim_listB>",,html-keyboard-response,319,1825265,0.0-17.0-1.13,46776,List1B,black,woman,,,,null,,,,
null,are marrying each other,,html-keyboard-response,320,1827269,0.0-17.0-2.13,46776,List1B,black,woman,,,,null,,,,
13438,,,survey-text,321,1840710,0.0-17.0-3.13,46776,List1B,black,woman,,,,,"{""Q0"":""jane and beth are marrying each other""}","<img src=""stim_listB/marry8.gif""</stim_listB>",are marrying each other,
null,"<div style=""font-size:60px;"">+</div>",,html-keyboard-response,322,1841219,0.0-17.0-0.14,46776,List1B,black,woman,,,,null,,,,
null,"<img src=""stim_listB/argue8.gif""</stim_listB>",,html-keyboard-response,323,1843223,0.0-17.0-1.14,46776,List1B,black,woman,,,,null,,,,
null,are arguing with each other,,html-keyboard-response,324,1845229,0.0-17.0-2.14,46776,List1B,black,woman,,,,null,,,,
16514,,,survey-text,325,1861747,0.0-17.0-3.14,46776,List1B,black,woman,,,,,"{""Q0"":""jane and beth are arguing with each other""}","<img src=""stim_listB/argue8.gif""</stim_listB>",are arguing with each other,
null,"<div style=""font-size:60px;"">+</div>",,html-keyboard-response,326,1862250,0.0-17.0-0.15,46776,List1B,black,woman,,,,null,,,,
null,"<img src=""stim_listB/meet1.gif""</stim_listB>",,html-keyboard-response,327,1864255,0.0-17.0-1.15,46776,List1B,black,woman,,,,null,,,,
null,is meeting,,html-keyboard-response,328,1866258,0.0-17.0-2.15,46776,List1B,black,woman,,,,null,,,,
11017,,,survey-text,329,1877278,0.0-17.0-3.15,46776,List1B,black,woman,,,,,"{""Q0"":""kate is meeting mike""}","<img src=""stim_listB/meet1.gif""</stim_listB>",is meeting,
null,"<div style=""font-size:60px;"">+</div>",,html-keyboard-response,330,1877781,0.0-17.0-0.16,46776,List1B,black,woman,,,,null,,,,
null,"<img src=""stim_listB/talk2.gif""</stim_listB>",,html-keyboard-response,331,1879788,0.0-17.0-1.16,46776,List1B,black,woman,,,,null,,,,
null,are talking to each other,,html-keyboard-response,332,1881792,0.0-17.0-2.16,46776,List1B,black,woman,,,,null,,,,
16309,,,survey-text,333,1898104,0.0-17.0-3.16,46776,List1B,black,woman,,,,,"{""Q0"":""mike and beth are talking to each other""}","<img src=""stim_listB/talk2.gif""</stim_listB>",are talking to each other,
null,"<div style=""font-size:60px;"">+</div>",,html-keyboard-response,334,1898608,0.0-17.0-0.17,46776,List1B,black,woman,,,,null,,,,
null,"<img src=""stim_listB/touch4.gif""</stim_listB>",,html-keyboard-response,335,1900614,0.0-17.0-1.17,46776,List1B,black,woman,,,,null,,,,
null,are touching each other,,html-keyboard-response,336,1902618,0.0-17.0-2.17,46776,List1B,black,woman,,,,null,,,,
15789,,,survey-text,337,1918411,0.0-17.0-3.17,46776,List1B,black,woman,,,,,"{""Q0"":""ruth and luke are touching each other""}","<img src=""stim_listB/touch4.gif""</stim_listB>",are touching each other,
null,"<div style=""font-size:60px;"">+</div>",,html-keyboard-response,338,1918915,0.0-17.0-0.18,46776,List1B,black,woman,,,,null,,,,
null,"<img src=""stim_listB/marry6.gif""</stim_listB>",,html-keyboard-response,339,1920920,0.0-17.0-1.18,46776,List1B,black,woman,,,,null,,,,
null,are marrying each other,,html-keyboard-response,340,1922923,0.0-17.0-2.18,46776,List1B,black,woman,,,,null,,,,
13742,,,survey-text,341,1936668,0.0-17.0-3.18,46776,List1B,black,woman,,,,,"{""Q0"":""fred and dave are marrying each other""}","<img src=""stim_listB/marry6.gif""</stim_listB>",are marrying each other,
null,"<div style=""font-size:60px;"">+</div>",,html-keyboard-response,342,1937174,0.0-17.0-0.19,46776,List1B,black,woman,,,,null,,,,
null,"<img src=""stim_listB/touch5.gif""</stim_listB>",,html-keyboard-response,343,1939182,0.0-17.0-1.19,46776,List1B,black,woman,,,,null,,,,
null,is touching,,html-keyboard-response,344,1941184,0.0-17.0-2.19,46776,List1B,black,woman,,,,null,,,,
14620,,,survey-text,345,1955807,0.0-17.0-3.19,46776,List1B,black,woman,,,,,"{""Q0"":""mike is touching dave ""}","<img src=""stim_listB/touch5.gif""</stim_listB>",is touching,
2217,"<img src='img/portrait_matrix_list1.JPG' style='width:900px;height:500px;''></img><p>If you have memorised all the portraits and names and are ready to start, press Continue.</p><p><strong>Please note: Your memory of these faces will be tested 4 times during this experiment.</strong></p>",0,html-button-response,346,1958031,0.0-18.0-0.0,46776,List1B,black,woman,,,,,,,,
2122,"<img src=""portrait/WM2.jpg""style=""width:400px;height:400px;""></img>",7,html-button-response,347,1961163,0.0-18.0-1.0,46776,List1B,black,woman,,TRUE,7,,,,,
null,CORRECT,,html-keyboard-response,348,1962669,0.0-18.0-2.0-0.0,46776,List1B,black,woman,,,,null,,,,
2852,"<img src=""portrait/WW1.jpg""style=""width:400px;height:400px;""></img>",1,html-button-response,349,1965526,0.0-18.0-4.0,46776,List1B,black,woman,,TRUE,1,,,,,
null,CORRECT,,html-keyboard-response,350,1967034,0.0-18.0-5.0-0.0,46776,List1B,black,woman,,,,null,,,,
2488,"<img src=""portrait/BW2.jpg""style=""width:400px;height:400px;""></img>",2,html-button-response,351,1969527,0.0-18.0-7.0,46776,List1B,black,woman,,TRUE,2,,,,,
null,CORRECT,,html-keyboard-response,352,1971036,0.0-18.0-8.0-0.0,46776,List1B,black,woman,,,,null,,,,
2041,"<img src=""portrait/BM2.jpg""style=""width:400px;height:400px;""></img>",5,html-button-response,353,1973083,0.0-18.0-10.0,46776,List1B,black,woman,,TRUE,5,,,,,
null,CORRECT,,html-keyboard-response,354,1974587,0.0-18.0-11.0-0.0,46776,List1B,black,woman,,,,null,,,,
1616,"<img src=""portrait/WM1.jpg""style=""width:400px;height:400px;""></img>",6,html-button-response,355,1976213,0.0-18.0-13.0,46776,List1B,black,woman,,TRUE,6,,,,,
null,CORRECT,,html-keyboard-response,356,1977718,0.0-18.0-14.0-0.0,46776,List1B,black,woman,,,,null,,,,
1594,"<img src=""portrait/BM1.jpg""style=""width:400px;height:400px;""></img>",4,html-button-response,357,1979319,0.0-18.0-16.0,46776,List1B,black,woman,,TRUE,4,,,,,
null,CORRECT,,html-keyboard-response,358,1980825,0.0-18.0-17.0-0.0,46776,List1B,black,woman,,,,null,,,,
3339,"<img src=""portrait/WW2.jpg""style=""width:400px;height:400px;""></img>",3,html-button-response,359,1984169,0.0-18.0-19.0,46776,List1B,black,woman,,TRUE,3,,,,,
null,CORRECT,,html-keyboard-response,360,1985674,0.0-18.0-20.0-0.0,46776,List1B,black,woman,,,,null,,,,
3174,"<img src=""portrait/BW1.jpg""style=""width:400px;height:400px;""></img>",0,html-button-response,361,1988854,0.0-18.0-22.0,46776,List1B,black,woman,,TRUE,0,,,,,
null,CORRECT,,html-keyboard-response,362,1990358,0.0-18.0-23.0-0.0,46776,List1B,black,woman,,,,null,,,,
4031,<p>You got 8 out of 8 right first time. Press Continue.</p>,0,html-button-response,363,1994393,0.0-18.0-25.0,46776,List1B,black,woman,,,,,,,,
null,"<div style=""font-size:60px;"">+</div>",,html-keyboard-response,364,1995897,0.0-19.0-0.0,46776,List1B,black,woman,,,,null,,,,
null,"<img src=""stim_listB/meet7.gif""</stim_listB>",,html-keyboard-response,365,1997902,0.0-19.0-1.0,46776,List1B,black,woman,,,,null,,,,
null,is meeting,,html-keyboard-response,366,1999905,0.0-19.0-2.0,46776,List1B,black,woman,,,,null,,,,
9706,,,survey-text,367,2009616,0.0-19.0-3.0,46776,List1B,black,woman,,,,,"{""Q0"":""jane is meeting kate""}","<img src=""stim_listB/meet7.gif""</stim_listB>",is meeting,
null,"<div style=""font-size:60px;"">+</div>",,html-keyboard-response,368,2010123,0.0-19.0-0.1,46776,List1B,black,woman,,,,null,,,,
null,"<img src=""stim_listB/dance2.gif""</stim_listB>",,html-keyboard-response,369,2012130,0.0-19.0-1.1,46776,List1B,black,woman,,,,null,,,,
null,are dancing with each other,,html-keyboard-response,370,2014137,0.0-19.0-2.1,46776,List1B,black,woman,,,,null,,,,
19920,,,survey-text,371,2034061,0.0-19.0-3.1,46776,List1B,black,woman,,,,,"{""Q0"":""mike and beth are dancing with each other""}","<img src=""stim_listB/dance2.gif""</stim_listB>",are dancing with each other,
null,"<div style=""font-size:60px;"">+</div>",,html-keyboard-response,372,2034566,0.0-19.0-0.2,46776,List1B,black,woman,,,,null,,,,
null,"<img src=""stim_listB/kiss4.gif""</stim_listB>",,html-keyboard-response,373,2036571,0.0-19.0-1.2,46776,List1B,black,woman,,,,null,,,,
null,are kissing each other,,html-keyboard-response,374,2038574,0.0-19.0-2.2,46776,List1B,black,woman,,,,null,,,,
15881,,,survey-text,375,2054458,0.0-19.0-3.2,46776,List1B,black,woman,,,,,"{""Q0"":""dave and jane are kissing each other""}","<img src=""stim_listB/kiss4.gif""</stim_listB>",are kissing each other,
null,"<div style=""font-size:60px;"">+</div>",,html-keyboard-response,376,2054963,0.0-19.0-0.3,46776,List1B,black,woman,,,,null,,,,
null,"<img src=""stim_listB/talk1.gif""</stim_listB>",,html-keyboard-response,377,2056971,0.0-19.0-1.3,46776,List1B,black,woman,,,,null,,,,
null,is talking to,,html-keyboard-response,378,2058974,0.0-19.0-2.3,46776,List1B,black,woman,,,,null,,,,
11070,,,survey-text,379,2070047,0.0-19.0-3.3,46776,List1B,black,woman,,,,,"{""Q0"":""kate is talking to fred""}","<img src=""stim_listB/talk1.gif""</stim_listB>",is talking to,
null,"<div style=""font-size:60px;"">+</div>",,html-keyboard-response,380,2070550,0.0-19.0-0.4,46776,List1B,black,woman,,,,null,,,,
null,"<img src=""stim_listB/kiss1.gif""</stim_listB>",,html-keyboard-response,381,2072559,0.0-19.0-1.4,46776,List1B,black,woman,,,,null,,,,
null,is kissing,,html-keyboard-response,382,2074562,0.0-19.0-2.4,46776,List1B,black,woman,,,,null,,,,
10623,,,survey-text,383,2085188,0.0-19.0-3.4,46776,List1B,black,woman,,,,,"{""Q0"":""beth is kissing fred""}","<img src=""stim_listB/kiss1.gif""</stim_listB>",is kissing,
null,"<div style=""font-size:60px;"">+</div>",,html-keyboard-response,384,2085695,0.0-19.0-0.5,46776,List1B,black,woman,,,,null,,,,
null,"<img src=""stim_listB/fight7.gif""</stim_listB>",,html-keyboard-response,385,2087705,0.0-19.0-1.5,46776,List1B,black,woman,,,,null,,,,
null,is fighting,,html-keyboard-response,386,2089725,0.0-19.0-2.5,46776,List1B,black,woman,,,,null,,,,
16394,,,survey-text,387,2106121,0.0-19.0-3.5,46776,List1B,black,woman,,,,,"{""Q0"":""kate is fighting jane""}","<img src=""stim_listB/fight7.gif""</stim_listB>",is fighting,
null,"<div style=""font-size:60px;"">+</div>",,html-keyboard-response,388,2106625,0.0-19.0-0.6,46776,List1B,black,woman,,,,null,,,,
null,"<img src=""stim_listB/argue6.gif""</stim_listB>",,html-keyboard-response,389,2108632,0.0-19.0-1.6,46776,List1B,black,woman,,,,null,,,,
null,are arguing with each other,,html-keyboard-response,390,2110636,0.0-19.0-2.6,46776,List1B,black,woman,,,,null,,,,
16178,,,survey-text,391,2126817,0.0-19.0-3.6,46776,List1B,black,woman,,,,,"{""Q0"":""fred and dave are arguing with each other""}","<img src=""stim_listB/argue6.gif""</stim_listB>",are arguing with each other,
null,"<div style=""font-size:60px;"">+</div>",,html-keyboard-response,392,2127322,0.0-19.0-0.7,46776,List1B,black,woman,,,,null,,,,
null,"<img src=""stim_listB/dance7.gif""</stim_listB>",,html-keyboard-response,393,2129328,0.0-19.0-1.7,46776,List1B,black,woman,,,,null,,,,
null,is dancing with,,html-keyboard-response,394,2131332,0.0-19.0-2.7,46776,List1B,black,woman,,,,null,,,,
11403,,,survey-text,395,2142739,0.0-19.0-3.7,46776,List1B,black,woman,,,,,"{""Q0"":""beth is dancing with jane""}","<img src=""stim_listB/dance7.gif""</stim_listB>",is dancing with,
null,"<div style=""font-size:60px;"">+</div>",,html-keyboard-response,396,2143244,0.0-19.0-0.8,46776,List1B,black,woman,,,,null,,,,
null,"<img src=""stim_listB/shout8.gif""</stim_listB>",,html-keyboard-response,397,2145249,0.0-19.0-1.8,46776,List1B,black,woman,,,,null,,,,
null,are shouting at each other,,html-keyboard-response,398,2147251,0.0-19.0-2.8,46776,List1B,black,woman,,,,null,,,,
13572,,,survey-text,399,2160827,0.0-19.0-3.8,46776,List1B,black,woman,,,,,"{""Q0"":""jane and kate are shouting at each other""}","<img src=""stim_listB/shout8.gif""</stim_listB>",are shouting at each other,
null,"<div style=""font-size:60px;"">+</div>",,html-keyboard-response,400,2161332,0.0-19.0-0.9,46776,List1B,black,woman,,,,null,,,,
null,"<img src=""stim_listB/hug2.gif""</stim_listB>",,html-keyboard-response,401,2163339,0.0-19.0-1.9,46776,List1B,black,woman,,,,null,,,,
null,are hugging each other,,html-keyboard-response,402,2165341,0.0-19.0-2.9,46776,List1B,black,woman,,,,null,,,,
17634,,,survey-text,403,2182979,0.0-19.0-3.9,46776,List1B,black,woman,,,,,"{""Q0"":""kate and mike are hugging each other""}","<img src=""stim_listB/hug2.gif""</stim_listB>",are hugging each other,
null,"<div style=""font-size:60px;"">+</div>",,html-keyboard-response,404,2183483,0.0-19.0-0.10,46776,List1B,black,woman,,,,null,,,,
null,"<img src=""stim_listB/hug6.gif""</stim_listB>",,html-keyboard-response,405,2185489,0.0-19.0-1.10,46776,List1B,black,woman,,,,null,,,,
null,are hugging each other,,html-keyboard-response,406,2187494,0.0-19.0-2.10,46776,List1B,black,woman,,,,null,,,,
15820,,,survey-text,407,2203318,0.0-19.0-3.10,46776,List1B,black,woman,,,,,"{""Q0"":""mike and dave are hugging each other""}","<img src=""stim_listB/hug6.gif""</stim_listB>",are hugging each other,
null,"<div style=""font-size:60px;"">+</div>",,html-keyboard-response,408,2203824,0.0-19.0-0.11,46776,List1B,black,woman,,,,null,,,,
null,"<img src=""stim_listB/marry4.gif""</stim_listB>",,html-keyboard-response,409,2205828,0.0-19.0-1.11,46776,List1B,black,woman,,,,null,,,,
null,are marrying each other,,html-keyboard-response,410,2207833,0.0-19.0-2.11,46776,List1B,black,woman,,,,null,,,,
16607,,,survey-text,411,2224443,0.0-19.0-3.11,46776,List1B,black,woman,,,,,"{""Q0"":""jane and luke are marrying each other""}","<img src=""stim_listB/marry4.gif""</stim_listB>",are marrying each other,
null,"<div style=""font-size:60px;"">+</div>",,html-keyboard-response,412,2224960,0.0-19.0-0.12,46776,List1B,black,woman,,,,null,,,,
null,"<img src=""stim_listB/hug5.gif""</stim_listB>",,html-keyboard-response,413,2226963,0.0-19.0-1.12,46776,List1B,black,woman,,,,null,,,,
null,is hugging,,html-keyboard-response,414,2228967,0.0-19.0-2.12,46776,List1B,black,woman,,,,null,,,,
12284,,,survey-text,415,2241254,0.0-19.0-3.12,46776,List1B,black,woman,,,,,"{""Q0"":""luke is hugging fred""}","<img src=""stim_listB/hug5.gif""</stim_listB>",is hugging,
null,"<div style=""font-size:60px;"">+</div>",,html-keyboard-response,416,2241758,0.0-19.0-0.13,46776,List1B,black,woman,,,,null,,,,
null,"<img src=""stim_listB/meet6.gif""</stim_listB>",,html-keyboard-response,417,2243763,0.0-19.0-1.13,46776,List1B,black,woman,,,,null,,,,
null,are meeting each other,,html-keyboard-response,418,2245765,0.0-19.0-2.13,46776,List1B,black,woman,,,,null,,,,
17816,,,survey-text,419,2263584,0.0-19.0-3.13,46776,List1B,black,woman,,,,,"{""Q0"":""luke and fred are meeting each other""}","<img src=""stim_listB/meet6.gif""</stim_listB>",are meeting each other,
null,"<div style=""font-size:60px;"">+</div>",,html-keyboard-response,420,2264090,0.0-19.0-0.14,46776,List1B,black,woman,,,,null,,,,
null,"<img src=""stim_listB/hug4.gif""</stim_listB>",,html-keyboard-response,421,2266096,0.0-19.0-1.14,46776,List1B,black,woman,,,,null,,,,
null,are hugging each other,,html-keyboard-response,422,2268099,0.0-19.0-2.14,46776,List1B,black,woman,,,,null,,,,
15291,,,survey-text,423,2283395,0.0-19.0-3.14,46776,List1B,black,woman,,,,,"{""Q0"":""dave and jane are hugging each other""}","<img src=""stim_listB/hug4.gif""</stim_listB>",are hugging each other,
null,"<div style=""font-size:60px;"">+</div>",,html-keyboard-response,424,2283898,0.0-19.0-0.15,46776,List1B,black,woman,,,,null,,,,
null,"<img src=""stim_listB/dance8.gif""</stim_listB>",,html-keyboard-response,425,2285903,0.0-19.0-1.15,46776,List1B,black,woman,,,,null,,,,
null,are dancing with each other,,html-keyboard-response,426,2287906,0.0-19.0-2.15,46776,List1B,black,woman,,,,null,,,,
22433,,,survey-text,427,2310342,0.0-19.0-3.15,46776,List1B,black,woman,,,,,"{""Q0"":""kate and ruth are dancing with each other""}","<img src=""stim_listB/dance8.gif""</stim_listB>",are dancing with each other,
null,"<div style=""font-size:60px;"">+</div>",,html-keyboard-response,428,2310847,0.0-19.0-0.16,46776,List1B,black,woman,,,,null,,,,
null,"<img src=""stim_listB/argue2.gif""</stim_listB>",,html-keyboard-response,429,2312853,0.0-19.0-1.16,46776,List1B,black,woman,,,,null,,,,
null,are arguing with each other,,html-keyboard-response,430,2314856,0.0-19.0-2.16,46776,List1B,black,woman,,,,null,,,,
16093,,,survey-text,431,2330952,0.0-19.0-3.16,46776,List1B,black,woman,,,,,"{""Q0"":""kate and fred are arguing with each other""}","<img src=""stim_listB/argue2.gif""</stim_listB>",are arguing with each other,
null,"<div style=""font-size:60px;"">+</div>",,html-keyboard-response,432,2331458,0.0-19.0-0.17,46776,List1B,black,woman,,,,null,,,,
null,"<img src=""stim_listB/dance3.gif""</stim_listB>",,html-keyboard-response,433,2333464,0.0-19.0-1.17,46776,List1B,black,woman,,,,null,,,,
null,is dancing with,,html-keyboard-response,434,2335467,0.0-19.0-2.17,46776,List1B,black,woman,,,,null,,,,
10121,,,survey-text,435,2345592,0.0-19.0-3.17,46776,List1B,black,woman,,,,,"{""Q0"":""jane is dancing with luke""}","<img src=""stim_listB/dance3.gif""</stim_listB>",is dancing with,
null,"<div style=""font-size:60px;"">+</div>",,html-keyboard-response,436,2346100,0.0-19.0-0.18,46776,List1B,black,woman,,,,null,,,,
null,"<img src=""stim_listB/dance4.gif""</stim_listB>",,html-keyboard-response,437,2348105,0.0-19.0-1.18,46776,List1B,black,woman,,,,null,,,,
null,are dancing with each other,,html-keyboard-response,438,2350110,0.0-19.0-2.18,46776,List1B,black,woman,,,,null,,,,
13881,,,survey-text,439,2363995,0.0-19.0-3.18,46776,List1B,black,woman,,,,,"{""Q0"":""dave and ruth are dancing with each other""}","<img src=""stim_listB/dance4.gif""</stim_listB>",are dancing with each other,
null,"<div style=""font-size:60px;"">+</div>",,html-keyboard-response,440,2364502,0.0-19.0-0.19,46776,List1B,black,woman,,,,null,,,,
null,"<img src=""stim_listB/dance6.gif""</stim_listB>",,html-keyboard-response,441,2366507,0.0-19.0-1.19,46776,List1B,black,woman,,,,null,,,,
null,are dancing with each other,,html-keyboard-response,442,2368511,0.0-19.0-2.19,46776,List1B,black,woman,,,,null,,,,
12840,,,survey-text,443,2381354,0.0-19.0-3.19,46776,List1B,black,woman,,,,,"{""Q0"":""luke and mike are dancing with each other""}","<img src=""stim_listB/dance6.gif""</stim_listB>",are dancing with each other,
2118,<p>Thank you for completing that task.</p><p>The final part of this session is a short questionnaire.</p><p>Press Continue.</p>,0,html-button-response,444,2383477,0.0-20.0,46776,List1B,black,woman,,,,,,,,
60300,,,survey-text,445,2444803,0.0-21.0,46776,List1B,black,woman,,,,,"{""Q0"":""26"",""Q1"":""English"",""Q2"":""English"",""Q3"":""England"",""Q4"":""Black/African"",""Q5"":""Female""}",,,demographics
68078,,,survey-likert,446,2512908,0.0-22.0,46776,List1B,black,woman,,,,,"{""Q0"":5,""Q1"":5,""Q2"":5,""Q3"":6,""Q4"":6,""Q5"":3,""Q6"":3,""Q7"":5,""Q8"":5,""Q9"":5,""Q10"":3,""Q11"":3,""Q12"":5,""Q13"":5}",,,likert_race
45234,,,survey-likert,447,2558159,0.0-23.0,46776,List1B,black,woman,,,,,"{""Q0"":5,""Q1"":6,""Q2"":5,""Q3"":5,""Q4"":6,""Q5"":5,""Q6"":6,""Q7"":5,""Q8"":6,""Q9"":6,""Q10"":5,""Q11"":5,""Q12"":5,""Q13"":5}",,,likert_gender
4937,,,survey-text,448,2563101,0.0-24.0,46776,List1B,black,woman,,,,,"{""Q0"":""ccc""}",,,worker_id
15208,,,external-html,449,2578400,0.0-25.0,46776,List1B,black,woman,debrief.html,,,,,,,
