rt,stimulus,button_pressed,trial_type,trial_index,time_elapsed,internal_node_id,subject,list,ppt_race,ppt_gender,url,first_guess,correct,key_press,responses,image_type,phrase_type,test_part
1718,Welcome to the experiment. Press Continue to begin.,0,html-button-response,0,1739,0.0-0.0,46924,List1B,black,man,,,,,,,,
122825,,,external-html,1,125808,0.0-1.0,46924,List1B,black,man,consent.html,,,,,,,
1887,"<p>On the next page, you will see portraits of 8 people and their names.</p><p>Your first task is to take a few minutes to memorise the names of these people.</p><p>You will have to recall their names during the rest of the experiment, so it is</p><p>essential that you try to memorise these people and their names as best as you can.</p><br><p><strong>You will then be tested on your memory of these names and portraits.</strong></p><br><p>The experiment will start after you have completed this memory test.</p><br><p>Ready?</p>",0,html-button-response,2,127715,0.0-2.0,46924,List1B,black,man,,,,,,,,
21433,"<img src='img/portrait_matrix_list1.JPG' style='width:900px;height:500px;''></img><p>If you have memorised all the portraits and names and are ready to start, press Continue.</p><p><strong>Please note: Your memory of these faces will be tested 4 times during this experiment.</strong></p>",0,html-button-response,3,150166,0.0-3.0-0.0,46924,List1B,black,man,,,,,,,,
4075,"<img src=""portrait/WM1.jpg""style=""width:400px;height:400px;""></img>",6,html-button-response,4,155265,0.0-3.0-1.0,46924,List1B,black,man,,TRUE,6,,,,,
null,CORRECT,,html-keyboard-response,5,156796,0.0-3.0-2.0-0.0,46924,List1B,black,man,,,,null,,,,
19050,"<img src=""portrait/WW1.jpg""style=""width:400px;height:400px;""></img>",1,html-button-response,6,175861,0.0-3.0-4.0,46924,List1B,black,man,,TRUE,1,,,,,
null,CORRECT,,html-keyboard-response,7,177364,0.0-3.0-5.0-0.0,46924,List1B,black,man,,,,null,,,,
8577,"<img src=""portrait/BW2.jpg""style=""width:400px;height:400px;""></img>",2,html-button-response,8,185956,0.0-3.0-7.0,46924,List1B,black,man,,TRUE,2,,,,,
null,CORRECT,,html-keyboard-response,9,187472,0.0-3.0-8.0-0.0,46924,List1B,black,man,,,,null,,,,
2320,"<img src=""portrait/WW2.jpg""style=""width:400px;height:400px;""></img>",3,html-button-response,10,189804,0.0-3.0-10.0,46924,List1B,black,man,,TRUE,3,,,,,
null,CORRECT,,html-keyboard-response,11,191309,0.0-3.0-11.0-0.0,46924,List1B,black,man,,,,null,,,,
13086,"<img src=""portrait/BW1.jpg""style=""width:400px;height:400px;""></img>",0,html-button-response,12,204404,0.0-3.0-13.0,46924,List1B,black,man,,TRUE,0,,,,,
null,CORRECT,,html-keyboard-response,13,205918,0.0-3.0-14.0-0.0,46924,List1B,black,man,,,,null,,,,
8672,"<img src=""portrait/WM2.jpg""style=""width:400px;height:400px;""></img>",7,html-button-response,14,214614,0.0-3.0-16.0,46924,List1B,black,man,,TRUE,7,,,,,
null,CORRECT,,html-keyboard-response,15,216124,0.0-3.0-17.0-0.0,46924,List1B,black,man,,,,null,,,,
8057,"<img src=""portrait/BM1.jpg""style=""width:400px;height:400px;""></img>",4,html-button-response,16,224185,0.0-3.0-19.0,46924,List1B,black,man,,TRUE,4,,,,,
null,CORRECT,,html-keyboard-response,17,225699,0.0-3.0-20.0-0.0,46924,List1B,black,man,,,,null,,,,
1601,"<img src=""portrait/BM2.jpg""style=""width:400px;height:400px;""></img>",5,html-button-response,18,227318,0.0-3.0-22.0,46924,List1B,black,man,,TRUE,5,,,,,
null,CORRECT,,html-keyboard-response,19,228830,0.0-3.0-23.0-0.0,46924,List1B,black,man,,,,null,,,,
1086,<p>You got 8 out of 8 right first time. Press Continue.</p>,0,html-button-response,20,229955,0.0-3.0-25.0,46924,List1B,black,man,,,,,,,,
39425,"<p>In this experiment, you will view photographs of the people from the memory game interacting.</p><p>By using the <strong>exact</strong> phrase given <i>after</i> the photograph appears and recalling the correct names of the people in the photographs, form a sentence describing the interaction. You do not need to capitalise names.</p><p>Type your answer in the space provided. Please complete every sentence before moving onto the next trial.</p><p>You will only have a few seconds to memorise each given photograph and phrase before you can respond, so try your best to focus.</p><p>An example is given below. Press 'Continue' when you are ready.</p><img src='img/speaking_example_v2.jpg' style='width:800px;height:460px;''></img>",0,html-button-response,21,270405,0.0-4.0,46924,List1B,black,man,,,,,,,,
12128,"<p>Before the experiment starts, you will watch two example trials. Press 'Continue'.</p>",0,html-button-response,22,283547,0.0-5.0,46924,List1B,black,man,,,,,,,,
null,<img src='img/speaking_WW.gif'></img>,,html-keyboard-response,23,286563,0.0-6.0,46924,List1B,black,man,,,,null,,,,
null,<p>is speaking to</p>,,html-keyboard-response,24,288571,0.0-7.0,46924,List1B,black,man,,,,null,,,,
3783,<p><b>Answer:</b> kate is speaking to beth</p>,0,html-button-response,25,292361,0.0-8.0,46924,List1B,black,man,,,,,,,,
null,<img src='img/pointing_BM.gif'></img>,,html-keyboard-response,26,295376,0.0-9.0,46924,List1B,black,man,,,,null,,,,
null,<p>are pointing at each other</p>,,html-keyboard-response,27,297383,0.0-10.0,46924,List1B,black,man,,,,null,,,,
1336,<p><b>Answer:</b> luke and dave are pointing at each other</p>,0,html-button-response,28,298727,0.0-11.0,46924,List1B,black,man,,,,,,,,
1379,"<p>Ready to start the experiment?</p><br><p><strong>Remember to describe the picture using a full sentence,</strong></p><p><strong>that combines the names of the people with the given phrase.</strong></p><p><strong>If you do not do this correctly you will not be paid.</strong></p><p><strong> You do not need to capitalise names or use punctuation.</strong></p><br><p>Press 'Continue' to begin.</p>",0,html-button-response,29,301114,0.0-12.0,46924,List1B,black,man,,,,,,,,
null,"<div style=""font-size:60px;"">+</div>",,html-keyboard-response,30,302625,0.0-13.0-0.0,46924,List1B,black,man,,,,null,,,,
null,"<img src=""stim_listB/kiss2.gif""</stim_listB>",,html-keyboard-response,31,304638,0.0-13.0-1.0,46924,List1B,black,man,,,,null,,,,
null,are kissing each other,,html-keyboard-response,32,306643,0.0-13.0-2.0,46924,List1B,black,man,,,,null,,,,
15086,,,survey-text,33,321738,0.0-13.0-3.0,46924,List1B,black,man,,,,,"{""Q0"":""Mike and Kate ""}","<img src=""stim_listB/kiss2.gif""</stim_listB>",are kissing each other,
null,"<div style=""font-size:60px;"">+</div>",,html-keyboard-response,34,322254,0.0-13.0-0.1,46924,List1B,black,man,,,,null,,,,
null,"<img src=""stim_listB/argue1.gif""</stim_listB>",,html-keyboard-response,35,324262,0.0-13.0-1.1,46924,List1B,black,man,,,,null,,,,
null,is arguing with,,html-keyboard-response,36,326274,0.0-13.0-2.1,46924,List1B,black,man,,,,null,,,,
13700,,,survey-text,37,339985,0.0-13.0-3.1,46924,List1B,black,man,,,,,"{""Q0"":""Mike and Beth ""}","<img src=""stim_listB/argue1.gif""</stim_listB>",is arguing with,
null,"<div style=""font-size:60px;"">+</div>",,html-keyboard-response,38,340495,0.0-13.0-0.2,46924,List1B,black,man,,,,null,,,,
null,"<img src=""stim_listB/touch4.gif""</stim_listB>",,html-keyboard-response,39,342510,0.0-13.0-1.2,46924,List1B,black,man,,,,null,,,,
null,are touching each other,,html-keyboard-response,40,344519,0.0-13.0-2.2,46924,List1B,black,man,,,,null,,,,
5930,,,survey-text,41,350459,0.0-13.0-3.2,46924,List1B,black,man,,,,,"{""Q0"":""Luke and Ruth""}","<img src=""stim_listB/touch4.gif""</stim_listB>",are touching each other,
null,"<div style=""font-size:60px;"">+</div>",,html-keyboard-response,42,350963,0.0-13.0-0.3,46924,List1B,black,man,,,,null,,,,
null,"<img src=""stim_listB/talk4.gif""</stim_listB>",,html-keyboard-response,43,352970,0.0-13.0-1.3,46924,List1B,black,man,,,,null,,,,
null,are talking to each other,,html-keyboard-response,44,354979,0.0-13.0-2.3,46924,List1B,black,man,,,,null,,,,
9325,,,survey-text,45,364315,0.0-13.0-3.3,46924,List1B,black,man,,,,,"{""Q0"":""N/A""}","<img src=""stim_listB/talk4.gif""</stim_listB>",are talking to each other,
null,"<div style=""font-size:60px;"">+</div>",,html-keyboard-response,46,364823,0.0-13.0-0.4,46924,List1B,black,man,,,,null,,,,
null,"<img src=""stim_listB/talk6.gif""</stim_listB>",,html-keyboard-response,47,366836,0.0-13.0-1.4,46924,List1B,black,man,,,,null,,,,
null,are talking to each other,,html-keyboard-response,48,368842,0.0-13.0-2.4,46924,List1B,black,man,,,,null,,,,
8600,,,survey-text,49,377452,0.0-13.0-3.4,46924,List1B,black,man,,,,,"{""Q0"":""Mike and Luke""}","<img src=""stim_listB/talk6.gif""</stim_listB>",are talking to each other,
null,"<div style=""font-size:60px;"">+</div>",,html-keyboard-response,50,377964,0.0-13.0-0.5,46924,List1B,black,man,,,,null,,,,
null,"<img src=""stim_listB/fight3.gif""</stim_listB>",,html-keyboard-response,51,379975,0.0-13.0-1.5,46924,List1B,black,man,,,,null,,,,
null,is fighting,,html-keyboard-response,52,381983,0.0-13.0-2.5,46924,List1B,black,man,,,,null,,,,
4002,,,survey-text,53,385995,0.0-13.0-3.5,46924,List1B,black,man,,,,,"{""Q0"":""N/A""}","<img src=""stim_listB/fight3.gif""</stim_listB>",is fighting,
null,"<div style=""font-size:60px;"">+</div>",,html-keyboard-response,54,386502,0.0-13.0-0.6,46924,List1B,black,man,,,,null,,,,
null,"<img src=""stim_listB/kiss3.gif""</stim_listB>",,html-keyboard-response,55,388511,0.0-13.0-1.6,46924,List1B,black,man,,,,null,,,,
null,is kissing,,html-keyboard-response,56,390519,0.0-13.0-2.6,46924,List1B,black,man,,,,null,,,,
6031,,,survey-text,57,396562,0.0-13.0-3.6,46924,List1B,black,man,,,,,"{""Q0"":""Luke and Ruth""}","<img src=""stim_listB/kiss3.gif""</stim_listB>",is kissing,
null,"<div style=""font-size:60px;"">+</div>",,html-keyboard-response,58,397069,0.0-13.0-0.7,46924,List1B,black,man,,,,null,,,,
null,"<img src=""stim_listB/touch8.gif""</stim_listB>",,html-keyboard-response,59,399076,0.0-13.0-1.7,46924,List1B,black,man,,,,null,,,,
null,are touching each other,,html-keyboard-response,60,401085,0.0-13.0-2.7,46924,List1B,black,man,,,,null,,,,
5501,,,survey-text,61,406596,0.0-13.0-3.7,46924,List1B,black,man,,,,,"{""Q0"":""Beth and Ruth ""}","<img src=""stim_listB/touch8.gif""</stim_listB>",are touching each other,
null,"<div style=""font-size:60px;"">+</div>",,html-keyboard-response,62,407108,0.0-13.0-0.8,46924,List1B,black,man,,,,null,,,,
null,"<img src=""stim_listB/meet1.gif""</stim_listB>",,html-keyboard-response,63,409123,0.0-13.0-1.8,46924,List1B,black,man,,,,null,,,,
null,is meeting,,html-keyboard-response,64,411132,0.0-13.0-2.8,46924,List1B,black,man,,,,null,,,,
4421,,,survey-text,65,415561,0.0-13.0-3.8,46924,List1B,black,man,,,,,"{""Q0"":""Kate and Mike""}","<img src=""stim_listB/meet1.gif""</stim_listB>",is meeting,
null,"<div style=""font-size:60px;"">+</div>",,html-keyboard-response,66,416084,0.0-13.0-0.9,46924,List1B,black,man,,,,null,,,,
null,"<img src=""stim_listB/marry7.gif""</stim_listB>",,html-keyboard-response,67,418101,0.0-13.0-1.9,46924,List1B,black,man,,,,null,,,,
null,is marrying,,html-keyboard-response,68,420106,0.0-13.0-2.9,46924,List1B,black,man,,,,null,,,,
8958,,,survey-text,69,429068,0.0-13.0-3.9,46924,List1B,black,man,,,,,"{""Q0"":""Kate and Ruth""}","<img src=""stim_listB/marry7.gif""</stim_listB>",is marrying,
null,"<div style=""font-size:60px;"">+</div>",,html-keyboard-response,70,429572,0.0-13.0-0.10,46924,List1B,black,man,,,,null,,,,
null,"<img src=""stim_listB/dance5.gif""</stim_listB>",,html-keyboard-response,71,431578,0.0-13.0-1.10,46924,List1B,black,man,,,,null,,,,
null,is dancing with,,html-keyboard-response,72,433581,0.0-13.0-2.10,46924,List1B,black,man,,,,null,,,,
8492,,,survey-text,73,442077,0.0-13.0-3.10,46924,List1B,black,man,,,,,"{""Q0"":""Fred and Dave""}","<img src=""stim_listB/dance5.gif""</stim_listB>",is dancing with,
null,"<div style=""font-size:60px;"">+</div>",,html-keyboard-response,74,442580,0.0-13.0-0.11,46924,List1B,black,man,,,,null,,,,
null,"<img src=""stim_listB/shout5.gif""</stim_listB>",,html-keyboard-response,75,444585,0.0-13.0-1.11,46924,List1B,black,man,,,,null,,,,
null,is shouting at,,html-keyboard-response,76,446588,0.0-13.0-2.11,46924,List1B,black,man,,,,null,,,,
7160,,,survey-text,77,453752,0.0-13.0-3.11,46924,List1B,black,man,,,,,"{""Q0"":""Fred and Luke ""}","<img src=""stim_listB/shout5.gif""</stim_listB>",is shouting at,
null,"<div style=""font-size:60px;"">+</div>",,html-keyboard-response,78,454256,0.0-13.0-0.12,46924,List1B,black,man,,,,null,,,,
null,"<img src=""stim_listB/meet2.gif""</stim_listB>",,html-keyboard-response,79,456261,0.0-13.0-1.12,46924,List1B,black,man,,,,null,,,,
null,are meeting each other,,html-keyboard-response,80,458264,0.0-13.0-2.12,46924,List1B,black,man,,,,null,,,,
4565,,,survey-text,81,462833,0.0-13.0-3.12,46924,List1B,black,man,,,,,"{""Q0"":""Fred and Beth""}","<img src=""stim_listB/meet2.gif""</stim_listB>",are meeting each other,
null,"<div style=""font-size:60px;"">+</div>",,html-keyboard-response,82,463336,0.0-13.0-0.13,46924,List1B,black,man,,,,null,,,,
null,"<img src=""stim_listB/meet4.gif""</stim_listB>",,html-keyboard-response,83,465342,0.0-13.0-1.13,46924,List1B,black,man,,,,null,,,,
null,are meeting each other,,html-keyboard-response,84,467345,0.0-13.0-2.13,46924,List1B,black,man,,,,null,,,,
5714,,,survey-text,85,473062,0.0-13.0-3.13,46924,List1B,black,man,,,,,"{""Q0"":""Ruth and Luke ""}","<img src=""stim_listB/meet4.gif""</stim_listB>",are meeting each other,
null,"<div style=""font-size:60px;"">+</div>",,html-keyboard-response,86,473565,0.0-13.0-0.14,46924,List1B,black,man,,,,null,,,,
null,"<img src=""stim_listB/touch6.gif""</stim_listB>",,html-keyboard-response,87,475570,0.0-13.0-1.14,46924,List1B,black,man,,,,null,,,,
null,are touching each other,,html-keyboard-response,88,477573,0.0-13.0-2.14,46924,List1B,black,man,,,,null,,,,
5181,,,survey-text,89,482758,0.0-13.0-3.14,46924,List1B,black,man,,,,,"{""Q0"":""Fred and Luke ""}","<img src=""stim_listB/touch6.gif""</stim_listB>",are touching each other,
null,"<div style=""font-size:60px;"">+</div>",,html-keyboard-response,90,483262,0.0-13.0-0.15,46924,List1B,black,man,,,,null,,,,
null,"<img src=""stim_listB/touch1.gif""</stim_listB>",,html-keyboard-response,91,485269,0.0-13.0-1.15,46924,List1B,black,man,,,,null,,,,
null,is touching,,html-keyboard-response,92,487273,0.0-13.0-2.15,46924,List1B,black,man,,,,null,,,,
4122,,,survey-text,93,491399,0.0-13.0-3.15,46924,List1B,black,man,,,,,"{""Q0"":""Mike and Kate""}","<img src=""stim_listB/touch1.gif""</stim_listB>",is touching,
null,"<div style=""font-size:60px;"">+</div>",,html-keyboard-response,94,491902,0.0-13.0-0.16,46924,List1B,black,man,,,,null,,,,
null,"<img src=""stim_listB/marry6.gif""</stim_listB>",,html-keyboard-response,95,493908,0.0-13.0-1.16,46924,List1B,black,man,,,,null,,,,
null,are marrying each other,,html-keyboard-response,96,495911,0.0-13.0-2.16,46924,List1B,black,man,,,,null,,,,
4289,,,survey-text,97,500204,0.0-13.0-3.16,46924,List1B,black,man,,,,,"{""Q0"":""Fred and Luke""}","<img src=""stim_listB/marry6.gif""</stim_listB>",are marrying each other,
null,"<div style=""font-size:60px;"">+</div>",,html-keyboard-response,98,500708,0.0-13.0-0.17,46924,List1B,black,man,,,,null,,,,
null,"<img src=""stim_listB/argue5.gif""</stim_listB>",,html-keyboard-response,99,502712,0.0-13.0-1.17,46924,List1B,black,man,,,,null,,,,
null,is arguing with,,html-keyboard-response,100,504977,0.0-13.0-2.17,46924,List1B,black,man,,,,null,,,,
591995,,,survey-text,101,1097000,0.0-13.0-3.17,46924,List1B,black,man,,,,,"{""Q0"":""Mike and Dave""}","<img src=""stim_listB/argue5.gif""</stim_listB>",is arguing with,
null,"<div style=""font-size:60px;"">+</div>",,html-keyboard-response,102,1097529,0.0-13.0-0.18,46924,List1B,black,man,,,,null,,,,
null,"<img src=""stim_listB/meet6.gif""</stim_listB>",,html-keyboard-response,103,1099548,0.0-13.0-1.18,46924,List1B,black,man,,,,null,,,,
null,are meeting each other,,html-keyboard-response,104,1101561,0.0-13.0-2.18,46924,List1B,black,man,,,,null,,,,
5158,,,survey-text,105,1106741,0.0-13.0-3.18,46924,List1B,black,man,,,,,"{""Q0"":""Fred and Dave""}","<img src=""stim_listB/meet6.gif""</stim_listB>",are meeting each other,
null,"<div style=""font-size:60px;"">+</div>",,html-keyboard-response,106,1107247,0.0-13.0-0.19,46924,List1B,black,man,,,,null,,,,
null,"<img src=""stim_listB/meet8.gif""</stim_listB>",,html-keyboard-response,107,1109260,0.0-13.0-1.19,46924,List1B,black,man,,,,null,,,,
null,are meeting each other,,html-keyboard-response,108,1111264,0.0-13.0-2.19,46924,List1B,black,man,,,,null,,,,
5105,,,survey-text,109,1116374,0.0-13.0-3.19,46924,List1B,black,man,,,,,"{""Q0"":""Beth and Ruth""}","<img src=""stim_listB/meet8.gif""</stim_listB>",are meeting each other,
3070,"<img src='img/portrait_matrix_list1.JPG' style='width:900px;height:500px;''></img><p>If you have memorised all the portraits and names and are ready to start, press Continue.</p><p><strong>Please note: Your memory of these faces will be tested 4 times during this experiment.</strong></p>",0,html-button-response,110,1119462,0.0-14.0-0.0,46924,List1B,black,man,,,,,,,,
2704,"<img src=""portrait/WW2.jpg""style=""width:400px;height:400px;""></img>",3,html-button-response,111,1123187,0.0-14.0-1.0,46924,List1B,black,man,,TRUE,3,,,,,
null,CORRECT,,html-keyboard-response,112,1124740,0.0-14.0-2.0-0.0,46924,List1B,black,man,,,,null,,,,
2110,"<img src=""portrait/BM1.jpg""style=""width:400px;height:400px;""></img>",5,html-button-response,113,1126872,0.0-14.0-4.0,46924,List1B,black,man,,TRUE,4,,,,,
7934,"<img src=""portrait/BM1.jpg""style=""width:400px;height:400px;""></img>",4,html-button-response,114,1135840,0.0-14.0-6.0-0.0,46924,List1B,black,man,,FALSE,4,,,,,
null,CORRECT,,html-keyboard-response,115,1137357,0.0-14.0-6.0-1.0-0.0,46924,List1B,black,man,,,,null,,,,
2716,"<img src=""portrait/WM1.jpg""style=""width:400px;height:400px;""></img>",6,html-button-response,116,1140090,0.0-14.0-7.0,46924,List1B,black,man,,TRUE,6,,,,,
null,CORRECT,,html-keyboard-response,117,1141597,0.0-14.0-8.0-0.0,46924,List1B,black,man,,,,null,,,,
2478,"<img src=""portrait/BW1.jpg""style=""width:400px;height:400px;""></img>",0,html-button-response,118,1144083,0.0-14.0-10.0,46924,List1B,black,man,,TRUE,0,,,,,
null,CORRECT,,html-keyboard-response,119,1145596,0.0-14.0-11.0-0.0,46924,List1B,black,man,,,,null,,,,
5228,"<img src=""portrait/BW2.jpg""style=""width:400px;height:400px;""></img>",2,html-button-response,120,1150835,0.0-14.0-13.0,46924,List1B,black,man,,TRUE,2,,,,,
null,CORRECT,,html-keyboard-response,121,1152346,0.0-14.0-14.0-0.0,46924,List1B,black,man,,,,null,,,,
7155,"<img src=""portrait/BM2.jpg""style=""width:400px;height:400px;""></img>",5,html-button-response,122,1159514,0.0-14.0-16.0,46924,List1B,black,man,,TRUE,5,,,,,
null,CORRECT,,html-keyboard-response,123,1161024,0.0-14.0-17.0-0.0,46924,List1B,black,man,,,,null,,,,
4661,"<img src=""portrait/WW1.jpg""style=""width:400px;height:400px;""></img>",1,html-button-response,124,1165700,0.0-14.0-19.0,46924,List1B,black,man,,TRUE,1,,,,,
null,CORRECT,,html-keyboard-response,125,1167213,0.0-14.0-20.0-0.0,46924,List1B,black,man,,,,null,,,,
1699,"<img src=""portrait/WM2.jpg""style=""width:400px;height:400px;""></img>",7,html-button-response,126,1168930,0.0-14.0-22.0,46924,List1B,black,man,,TRUE,7,,,,,
null,CORRECT,,html-keyboard-response,127,1170441,0.0-14.0-23.0-0.0,46924,List1B,black,man,,,,null,,,,
1182,<p>You got 7 out of 8 right first time. Press Continue.</p>,0,html-button-response,128,1171636,0.0-14.0-25.0,46924,List1B,black,man,,,,,,,,
3858,"As you did not score 100%, the memory game will repeat. Press Continue.",0,html-button-response,129,1176510,0.0-14.0-26.0-0.0,46924,List1B,black,man,,,,,,,,
1526,"<img src='img/portrait_matrix_list1.JPG' style='width:900px;height:500px;''></img><p>If you have memorised all the portraits and names and are ready to start, press Continue.</p><p><strong>Please note: Your memory of these faces will be tested 4 times during this experiment.</strong></p>",0,html-button-response,130,1179078,0.0-14.1-0.1,46924,List1B,black,man,,,,,,,,
3595,"<img src=""portrait/WW2.jpg""style=""width:400px;height:400px;""></img>",3,html-button-response,131,1183702,0.0-14.1-1.1,46924,List1B,black,man,,TRUE,3,,,,,
null,CORRECT,,html-keyboard-response,132,1185214,0.0-14.1-2.1-0.1,46924,List1B,black,man,,,,null,,,,
3992,"<img src=""portrait/BM1.jpg""style=""width:400px;height:400px;""></img>",4,html-button-response,133,1189225,0.0-14.1-4.1,46924,List1B,black,man,,TRUE,4,,,,,
null,CORRECT,,html-keyboard-response,134,1190736,0.0-14.1-5.1-0.1,46924,List1B,black,man,,,,null,,,,
2393,"<img src=""portrait/WM1.jpg""style=""width:400px;height:400px;""></img>",6,html-button-response,135,1193148,0.0-14.1-7.1,46924,List1B,black,man,,TRUE,6,,,,,
null,CORRECT,,html-keyboard-response,136,1194660,0.0-14.1-8.1-0.1,46924,List1B,black,man,,,,null,,,,
3669,"<img src=""portrait/BW1.jpg""style=""width:400px;height:400px;""></img>",0,html-button-response,137,1198348,0.0-14.1-10.1,46924,List1B,black,man,,TRUE,0,,,,,
null,CORRECT,,html-keyboard-response,138,1199874,0.0-14.1-11.1-0.1,46924,List1B,black,man,,,,null,,,,
1881,"<img src=""portrait/BW2.jpg""style=""width:400px;height:400px;""></img>",2,html-button-response,139,1201776,0.0-14.1-13.1,46924,List1B,black,man,,TRUE,2,,,,,
null,CORRECT,,html-keyboard-response,140,1203286,0.0-14.1-14.1-0.1,46924,List1B,black,man,,,,null,,,,
1627,"<img src=""portrait/BM2.jpg""style=""width:400px;height:400px;""></img>",5,html-button-response,141,1204932,0.0-14.1-16.1,46924,List1B,black,man,,TRUE,5,,,,,
null,CORRECT,,html-keyboard-response,142,1206446,0.0-14.1-17.1-0.1,46924,List1B,black,man,,,,null,,,,
2424,"<img src=""portrait/WW1.jpg""style=""width:400px;height:400px;""></img>",1,html-button-response,143,1208889,0.0-14.1-19.1,46924,List1B,black,man,,TRUE,1,,,,,
null,CORRECT,,html-keyboard-response,144,1210402,0.0-14.1-20.1-0.1,46924,List1B,black,man,,,,null,,,,
2770,"<img src=""portrait/WM2.jpg""style=""width:400px;height:400px;""></img>",7,html-button-response,145,1213191,0.0-14.1-22.1,46924,List1B,black,man,,TRUE,7,,,,,
null,CORRECT,,html-keyboard-response,146,1214701,0.0-14.1-23.1-0.1,46924,List1B,black,man,,,,null,,,,
1104,<p>You got 8 out of 8 right first time. Press Continue.</p>,0,html-button-response,147,1215819,0.0-14.1-25.1,46924,List1B,black,man,,,,,,,,
null,"<div style=""font-size:60px;"">+</div>",,html-keyboard-response,148,1217335,0.0-15.0-0.0,46924,List1B,black,man,,,,null,,,,
null,"<img src=""stim_listB/fight1.gif""</stim_listB>",,html-keyboard-response,149,1219347,0.0-15.0-1.0,46924,List1B,black,man,,,,null,,,,
null,is fighting,,html-keyboard-response,150,1221356,0.0-15.0-2.0,46924,List1B,black,man,,,,null,,,,
6533,,,survey-text,151,1227900,0.0-15.0-3.0,46924,List1B,black,man,,,,,"{""Q0"":""Kate and Mike""}","<img src=""stim_listB/fight1.gif""</stim_listB>",is fighting,
null,"<div style=""font-size:60px;"">+</div>",,html-keyboard-response,152,1228409,0.0-15.0-0.1,46924,List1B,black,man,,,,null,,,,
null,"<img src=""stim_listB/kiss1.gif""</stim_listB>",,html-keyboard-response,153,1230420,0.0-15.0-1.1,46924,List1B,black,man,,,,null,,,,
null,is kissing,,html-keyboard-response,154,1232429,0.0-15.0-2.1,46924,List1B,black,man,,,,null,,,,
5373,,,survey-text,155,1237846,0.0-15.0-3.1,46924,List1B,black,man,,,,,"{""Q0"":""Fred and Beth""}","<img src=""stim_listB/kiss1.gif""</stim_listB>",is kissing,
null,"<div style=""font-size:60px;"">+</div>",,html-keyboard-response,156,1238350,0.0-15.0-0.2,46924,List1B,black,man,,,,null,,,,
null,"<img src=""stim_listB/shout3.gif""</stim_listB>",,html-keyboard-response,157,1240355,0.0-15.0-1.2,46924,List1B,black,man,,,,null,,,,
null,is shouting at,,html-keyboard-response,158,1242363,0.0-15.0-2.2,46924,List1B,black,man,,,,null,,,,
5748,,,survey-text,159,1248119,0.0-15.0-3.2,46924,List1B,black,man,,,,,"{""Q0"":""Ruth and Luke ""}","<img src=""stim_listB/shout3.gif""</stim_listB>",is shouting at,
null,"<div style=""font-size:60px;"">+</div>",,html-keyboard-response,160,1248629,0.0-15.0-0.3,46924,List1B,black,man,,,,null,,,,
null,"<img src=""stim_listB/dance1.gif""</stim_listB>",,html-keyboard-response,161,1250640,0.0-15.0-1.3,46924,List1B,black,man,,,,null,,,,
null,is dancing with,,html-keyboard-response,162,1252648,0.0-15.0-2.3,46924,List1B,black,man,,,,null,,,,
4466,,,survey-text,163,1257126,0.0-15.0-3.3,46924,List1B,black,man,,,,,"{""Q0"":""Fred and Kate""}","<img src=""stim_listB/dance1.gif""</stim_listB>",is dancing with,
null,"<div style=""font-size:60px;"">+</div>",,html-keyboard-response,164,1257635,0.0-15.0-0.4,46924,List1B,black,man,,,,null,,,,
null,"<img src=""stim_listB/marry5.gif""</stim_listB>",,html-keyboard-response,165,1259647,0.0-15.0-1.4,46924,List1B,black,man,,,,null,,,,
null,is marrying,,html-keyboard-response,166,1261656,0.0-15.0-2.4,46924,List1B,black,man,,,,null,,,,
4244,,,survey-text,167,1265911,0.0-15.0-3.4,46924,List1B,black,man,,,,,"{""Q0"":""Mike and Luke""}","<img src=""stim_listB/marry5.gif""</stim_listB>",is marrying,
null,"<div style=""font-size:60px;"">+</div>",,html-keyboard-response,168,1266420,0.0-15.0-0.5,46924,List1B,black,man,,,,null,,,,
null,"<img src=""stim_listB/shout7.gif""</stim_listB>",,html-keyboard-response,169,1268423,0.0-15.0-1.5,46924,List1B,black,man,,,,null,,,,
null,is shouting at,,html-keyboard-response,170,1270426,0.0-15.0-2.5,46924,List1B,black,man,,,,null,,,,
5415,,,survey-text,171,1275850,0.0-15.0-3.5,46924,List1B,black,man,,,,,"{""Q0"":""Beth and Ruth ""}","<img src=""stim_listB/shout7.gif""</stim_listB>",is shouting at,
null,"<div style=""font-size:60px;"">+</div>",,html-keyboard-response,172,1276360,0.0-15.0-0.6,46924,List1B,black,man,,,,null,,,,
null,"<img src=""stim_listB/talk8.gif""</stim_listB>",,html-keyboard-response,173,1278374,0.0-15.0-1.6,46924,List1B,black,man,,,,null,,,,
null,are talking to each other,,html-keyboard-response,174,1280384,0.0-15.0-2.6,46924,List1B,black,man,,,,null,,,,
4123,,,survey-text,175,1284517,0.0-15.0-3.6,46924,List1B,black,man,,,,,"{""Q0"":""Kate and Ruth ""}","<img src=""stim_listB/talk8.gif""</stim_listB>",are talking to each other,
null,"<div style=""font-size:60px;"">+</div>",,html-keyboard-response,176,1285026,0.0-15.0-0.7,46924,List1B,black,man,,,,null,,,,
null,"<img src=""stim_listB/talk3.gif""</stim_listB>",,html-keyboard-response,177,1287035,0.0-15.0-1.7,46924,List1B,black,man,,,,null,,,,
null,is talking to,,html-keyboard-response,178,1289047,0.0-15.0-2.7,46924,List1B,black,man,,,,null,,,,
5877,,,survey-text,179,1294934,0.0-15.0-3.7,46924,List1B,black,man,,,,,"{""Q0"":""N/A""}","<img src=""stim_listB/talk3.gif""</stim_listB>",is talking to,
null,"<div style=""font-size:60px;"">+</div>",,html-keyboard-response,180,1295446,0.0-15.0-0.8,46924,List1B,black,man,,,,null,,,,
null,"<img src=""stim_listB/marry4.gif""</stim_listB>",,html-keyboard-response,181,1297456,0.0-15.0-1.8,46924,List1B,black,man,,,,null,,,,
null,are marrying each other,,html-keyboard-response,182,1299465,0.0-15.0-2.8,46924,List1B,black,man,,,,null,,,,
6768,,,survey-text,183,1306246,0.0-15.0-3.8,46924,List1B,black,man,,,,,"{""Q0"":""Jane and Luke""}","<img src=""stim_listB/marry4.gif""</stim_listB>",are marrying each other,
null,"<div style=""font-size:60px;"">+</div>",,html-keyboard-response,184,1306758,0.0-15.0-0.9,46924,List1B,black,man,,,,null,,,,
null,"<img src=""stim_listB/argue4.gif""</stim_listB>",,html-keyboard-response,185,1308772,0.0-15.0-1.9,46924,List1B,black,man,,,,null,,,,
null,are arguing with each other,,html-keyboard-response,186,1310779,0.0-15.0-2.9,46924,List1B,black,man,,,,null,,,,
4429,,,survey-text,187,1315220,0.0-15.0-3.9,46924,List1B,black,man,,,,,"{""Q0"":""Jane and Luke""}","<img src=""stim_listB/argue4.gif""</stim_listB>",are arguing with each other,
null,"<div style=""font-size:60px;"">+</div>",,html-keyboard-response,188,1315731,0.0-15.0-0.10,46924,List1B,black,man,,,,null,,,,
null,"<img src=""stim_listB/marry3.gif""</stim_listB>",,html-keyboard-response,189,1317746,0.0-15.0-1.10,46924,List1B,black,man,,,,null,,,,
null,is marrying,,html-keyboard-response,190,1319756,0.0-15.0-2.10,46924,List1B,black,man,,,,null,,,,
6312,,,survey-text,191,1326076,0.0-15.0-3.10,46924,List1B,black,man,,,,,"{""Q0"":""Ruth and Dave""}","<img src=""stim_listB/marry3.gif""</stim_listB>",is marrying,
null,"<div style=""font-size:60px;"">+</div>",,html-keyboard-response,192,1326586,0.0-15.0-0.11,46924,List1B,black,man,,,,null,,,,
null,"<img src=""stim_listB/kiss7.gif""</stim_listB>",,html-keyboard-response,193,1328612,0.0-15.0-1.11,46924,List1B,black,man,,,,null,,,,
null,is kissing,,html-keyboard-response,194,1330623,0.0-15.0-2.11,46924,List1B,black,man,,,,null,,,,
5608,,,survey-text,195,1336242,0.0-15.0-3.11,46924,List1B,black,man,,,,,"{""Q0"":""Beth and Ruth""}","<img src=""stim_listB/kiss7.gif""</stim_listB>",is kissing,
null,"<div style=""font-size:60px;"">+</div>",,html-keyboard-response,196,1336755,0.0-15.0-0.12,46924,List1B,black,man,,,,null,,,,
null,"<img src=""stim_listB/meet3.gif""</stim_listB>",,html-keyboard-response,197,1338768,0.0-15.0-1.12,46924,List1B,black,man,,,,null,,,,
null,is meeting,,html-keyboard-response,198,1340780,0.0-15.0-2.12,46924,List1B,black,man,,,,null,,,,
4653,,,survey-text,199,1345443,0.0-15.0-3.12,46924,List1B,black,man,,,,,"{""Q0"":""Jane and Dave""}","<img src=""stim_listB/meet3.gif""</stim_listB>",is meeting,
null,"<div style=""font-size:60px;"">+</div>",,html-keyboard-response,200,1345956,0.0-15.0-0.13,46924,List1B,black,man,,,,null,,,,
null,"<img src=""stim_listB/kiss8.gif""</stim_listB>",,html-keyboard-response,201,1347992,0.0-15.0-1.13,46924,List1B,black,man,,,,null,,,,
null,are kissing each other,,html-keyboard-response,202,1350004,0.0-15.0-2.13,46924,List1B,black,man,,,,null,,,,
5120,,,survey-text,203,1355139,0.0-15.0-3.13,46924,List1B,black,man,,,,,"{""Q0"":""Kate and Jane ""}","<img src=""stim_listB/kiss8.gif""</stim_listB>",are kissing each other,
null,"<div style=""font-size:60px;"">+</div>",,html-keyboard-response,204,1355649,0.0-15.0-0.14,46924,List1B,black,man,,,,null,,,,
null,"<img src=""stim_listB/marry8.gif""</stim_listB>",,html-keyboard-response,205,1357662,0.0-15.0-1.14,46924,List1B,black,man,,,,null,,,,
null,are marrying each other,,html-keyboard-response,206,1359670,0.0-15.0-2.14,46924,List1B,black,man,,,,null,,,,
5804,,,survey-text,207,1365482,0.0-15.0-3.14,46924,List1B,black,man,,,,,"{""Q0"":""Beth and Jane""}","<img src=""stim_listB/marry8.gif""</stim_listB>",are marrying each other,
null,"<div style=""font-size:60px;"">+</div>",,html-keyboard-response,208,1365993,0.0-15.0-0.15,46924,List1B,black,man,,,,null,,,,
null,"<img src=""stim_listB/marry1.gif""</stim_listB>",,html-keyboard-response,209,1368003,0.0-15.0-1.15,46924,List1B,black,man,,,,null,,,,
null,is marrying,,html-keyboard-response,210,1370014,0.0-15.0-2.15,46924,List1B,black,man,,,,null,,,,
8863,,,survey-text,211,1378887,0.0-15.0-3.15,46924,List1B,black,man,,,,,"{""Q0"":""Beth and Mike ""}","<img src=""stim_listB/marry1.gif""</stim_listB>",is marrying,
null,"<div style=""font-size:60px;"">+</div>",,html-keyboard-response,212,1379398,0.0-15.0-0.16,46924,List1B,black,man,,,,null,,,,
null,"<img src=""stim_listB/meet7.gif""</stim_listB>",,html-keyboard-response,213,1381408,0.0-15.0-1.16,46924,List1B,black,man,,,,null,,,,
null,is meeting,,html-keyboard-response,214,1383416,0.0-15.0-2.16,46924,List1B,black,man,,,,null,,,,
4205,,,survey-text,215,1387628,0.0-15.0-3.16,46924,List1B,black,man,,,,,"{""Q0"":""Kate and Jane""}","<img src=""stim_listB/meet7.gif""</stim_listB>",is meeting,
null,"<div style=""font-size:60px;"">+</div>",,html-keyboard-response,216,1388133,0.0-15.0-0.17,46924,List1B,black,man,,,,null,,,,
null,"<img src=""stim_listB/talk5.gif""</stim_listB>",,html-keyboard-response,217,1390144,0.0-15.0-1.17,46924,List1B,black,man,,,,null,,,,
null,is talking to,,html-keyboard-response,218,1392151,0.0-15.0-2.17,46924,List1B,black,man,,,,null,,,,
5373,,,survey-text,219,1397535,0.0-15.0-3.17,46924,List1B,black,man,,,,,"{""Q0"":""Fred and Dave ""}","<img src=""stim_listB/talk5.gif""</stim_listB>",is talking to,
null,"<div style=""font-size:60px;"">+</div>",,html-keyboard-response,220,1398048,0.0-15.0-0.18,46924,List1B,black,man,,,,null,,,,
null,"<img src=""stim_listB/dance4.gif""</stim_listB>",,html-keyboard-response,221,1400058,0.0-15.0-1.18,46924,List1B,black,man,,,,null,,,,
null,are dancing with each other,,html-keyboard-response,222,1402064,0.0-15.0-2.18,46924,List1B,black,man,,,,null,,,,
5421,,,survey-text,223,1407495,0.0-15.0-3.18,46924,List1B,black,man,,,,,"{""Q0"":""Dave and Ruth""}","<img src=""stim_listB/dance4.gif""</stim_listB>",are dancing with each other,
null,"<div style=""font-size:60px;"">+</div>",,html-keyboard-response,224,1408009,0.0-15.0-0.19,46924,List1B,black,man,,,,null,,,,
null,"<img src=""stim_listB/argue8.gif""</stim_listB>",,html-keyboard-response,225,1410021,0.0-15.0-1.19,46924,List1B,black,man,,,,null,,,,
null,are arguing with each other,,html-keyboard-response,226,1412035,0.0-15.0-2.19,46924,List1B,black,man,,,,null,,,,
8070,,,survey-text,227,1420117,0.0-15.0-3.19,46924,List1B,black,man,,,,,"{""Q0"":""Jane and Beth""}","<img src=""stim_listB/argue8.gif""</stim_listB>",are arguing with each other,
2569,"<img src='img/portrait_matrix_list1.JPG' style='width:900px;height:500px;''></img><p>If you have memorised all the portraits and names and are ready to start, press Continue.</p><p><strong>Please note: Your memory of these faces will be tested 4 times during this experiment.</strong></p>",0,html-button-response,228,1422698,0.0-16.0-0.0,46924,List1B,black,man,,,,,,,,
2696,"<img src=""portrait/BW1.jpg""style=""width:400px;height:400px;""></img>",0,html-button-response,229,1426422,0.0-16.0-1.0,46924,List1B,black,man,,TRUE,0,,,,,
null,CORRECT,,html-keyboard-response,230,1427938,0.0-16.0-2.0-0.0,46924,List1B,black,man,,,,null,,,,
1973,"<img src=""portrait/BM1.jpg""style=""width:400px;height:400px;""></img>",4,html-button-response,231,1429926,0.0-16.0-4.0,46924,List1B,black,man,,TRUE,4,,,,,
null,CORRECT,,html-keyboard-response,232,1431445,0.0-16.0-5.0-0.0,46924,List1B,black,man,,,,null,,,,
1738,"<img src=""portrait/BW2.jpg""style=""width:400px;height:400px;""></img>",2,html-button-response,233,1433201,0.0-16.0-7.0,46924,List1B,black,man,,TRUE,2,,,,,
null,CORRECT,,html-keyboard-response,234,1434713,0.0-16.0-8.0-0.0,46924,List1B,black,man,,,,null,,,,
2351,"<img src=""portrait/BM2.jpg""style=""width:400px;height:400px;""></img>",5,html-button-response,235,1437086,0.0-16.0-10.0,46924,List1B,black,man,,TRUE,5,,,,,
null,CORRECT,,html-keyboard-response,236,1438597,0.0-16.0-11.0-0.0,46924,List1B,black,man,,,,null,,,,
4756,"<img src=""portrait/WM2.jpg""style=""width:400px;height:400px;""></img>",7,html-button-response,237,1443368,0.0-16.0-13.0,46924,List1B,black,man,,TRUE,7,,,,,
null,CORRECT,,html-keyboard-response,238,1444882,0.0-16.0-14.0-0.0,46924,List1B,black,man,,,,null,,,,
3401,"<img src=""portrait/WW1.jpg""style=""width:400px;height:400px;""></img>",1,html-button-response,239,1448294,0.0-16.0-16.0,46924,List1B,black,man,,TRUE,1,,,,,
null,CORRECT,,html-keyboard-response,240,1449809,0.0-16.0-17.0-0.0,46924,List1B,black,man,,,,null,,,,
1561,"<img src=""portrait/WW2.jpg""style=""width:400px;height:400px;""></img>",3,html-button-response,241,1451388,0.0-16.0-19.0,46924,List1B,black,man,,TRUE,3,,,,,
null,CORRECT,,html-keyboard-response,242,1452897,0.0-16.0-20.0-0.0,46924,List1B,black,man,,,,null,,,,
1953,"<img src=""portrait/WM1.jpg""style=""width:400px;height:400px;""></img>",6,html-button-response,243,1454868,0.0-16.0-22.0,46924,List1B,black,man,,TRUE,6,,,,,
null,CORRECT,,html-keyboard-response,244,1456383,0.0-16.0-23.0-0.0,46924,List1B,black,man,,,,null,,,,
1132,<p>You got 8 out of 8 right first time. Press Continue.</p>,0,html-button-response,245,1457545,0.0-16.0-25.0,46924,List1B,black,man,,,,,,,,
null,"<div style=""font-size:60px;"">+</div>",,html-keyboard-response,246,1459067,0.0-17.0-0.0,46924,List1B,black,man,,,,null,,,,
null,"<img src=""stim_listB/fight2.gif""</stim_listB>",,html-keyboard-response,247,1461078,0.0-17.0-1.0,46924,List1B,black,man,,,,null,,,,
null,are fighting each other,,html-keyboard-response,248,1463093,0.0-17.0-2.0,46924,List1B,black,man,,,,null,,,,
6909,,,survey-text,249,1470030,0.0-17.0-3.0,46924,List1B,black,man,,,,,"{""Q0"":""Fred and Beth""}","<img src=""stim_listB/fight2.gif""</stim_listB>",are fighting each other,
null,"<div style=""font-size:60px;"">+</div>",,html-keyboard-response,250,1470542,0.0-17.0-0.1,46924,List1B,black,man,,,,null,,,,
null,"<img src=""stim_listB/dance6.gif""</stim_listB>",,html-keyboard-response,251,1472553,0.0-17.0-1.1,46924,List1B,black,man,,,,null,,,,
null,are dancing with each other,,html-keyboard-response,252,1474560,0.0-17.0-2.1,46924,List1B,black,man,,,,null,,,,
8602,,,survey-text,253,1483170,0.0-17.0-3.1,46924,List1B,black,man,,,,,"{""Q0"":""Mike and Luke""}","<img src=""stim_listB/dance6.gif""</stim_listB>",are dancing with each other,
null,"<div style=""font-size:60px;"">+</div>",,html-keyboard-response,254,1483681,0.0-17.0-0.2,46924,List1B,black,man,,,,null,,,,
null,"<img src=""stim_listB/shout4.gif""</stim_listB>",,html-keyboard-response,255,1485692,0.0-17.0-1.2,46924,List1B,black,man,,,,null,,,,
null,are shouting at each other,,html-keyboard-response,256,1487699,0.0-17.0-2.2,46924,List1B,black,man,,,,null,,,,
6422,,,survey-text,257,1494134,0.0-17.0-3.2,46924,List1B,black,man,,,,,"{""Q0"":""Jane and Dave""}","<img src=""stim_listB/shout4.gif""</stim_listB>",are shouting at each other,
null,"<div style=""font-size:60px;"">+</div>",,html-keyboard-response,258,1494644,0.0-17.0-0.3,46924,List1B,black,man,,,,null,,,,
null,"<img src=""stim_listB/shout2.gif""</stim_listB>",,html-keyboard-response,259,1496651,0.0-17.0-1.3,46924,List1B,black,man,,,,null,,,,
null,are shouting at each other,,html-keyboard-response,260,1498660,0.0-17.0-2.3,46924,List1B,black,man,,,,null,,,,
5504,,,survey-text,261,1504173,0.0-17.0-3.3,46924,List1B,black,man,,,,,"{""Q0"":""Mike and Kate""}","<img src=""stim_listB/shout2.gif""</stim_listB>",are shouting at each other,
null,"<div style=""font-size:60px;"">+</div>",,html-keyboard-response,262,1504683,0.0-17.0-0.4,46924,List1B,black,man,,,,null,,,,
null,"<img src=""stim_listB/hug8.gif""</stim_listB>",,html-keyboard-response,263,1506693,0.0-17.0-1.4,46924,List1B,black,man,,,,null,,,,
null,are hugging each other,,html-keyboard-response,264,1508700,0.0-17.0-2.4,46924,List1B,black,man,,,,null,,,,
4217,,,survey-text,265,1512924,0.0-17.0-3.4,46924,List1B,black,man,,,,,"{""Q0"":""Kate and Jane""}","<img src=""stim_listB/hug8.gif""</stim_listB>",are hugging each other,
null,"<div style=""font-size:60px;"">+</div>",,html-keyboard-response,266,1513435,0.0-17.0-0.5,46924,List1B,black,man,,,,null,,,,
null,"<img src=""stim_listB/fight4.gif""</stim_listB>",,html-keyboard-response,267,1515446,0.0-17.0-1.5,46924,List1B,black,man,,,,null,,,,
null,are fighting each other,,html-keyboard-response,268,1517455,0.0-17.0-2.5,46924,List1B,black,man,,,,null,,,,
5967,,,survey-text,269,1523435,0.0-17.0-3.5,46924,List1B,black,man,,,,,"{""Q0"":""Ruth and Dave""}","<img src=""stim_listB/fight4.gif""</stim_listB>",are fighting each other,
null,"<div style=""font-size:60px;"">+</div>",,html-keyboard-response,270,1523947,0.0-17.0-0.6,46924,List1B,black,man,,,,null,,,,
null,"<img src=""stim_listB/dance2.gif""</stim_listB>",,html-keyboard-response,271,1525962,0.0-17.0-1.6,46924,List1B,black,man,,,,null,,,,
null,are dancing with each other,,html-keyboard-response,272,1527970,0.0-17.0-2.6,46924,List1B,black,man,,,,null,,,,
4629,,,survey-text,273,1532610,0.0-17.0-3.6,46924,List1B,black,man,,,,,"{""Q0"":""Mike and Beth""}","<img src=""stim_listB/dance2.gif""</stim_listB>",are dancing with each other,
null,"<div style=""font-size:60px;"">+</div>",,html-keyboard-response,274,1533121,0.0-17.0-0.7,46924,List1B,black,man,,,,null,,,,
null,"<img src=""stim_listB/dance7.gif""</stim_listB>",,html-keyboard-response,275,1535133,0.0-17.0-1.7,46924,List1B,black,man,,,,null,,,,
null,is dancing with,,html-keyboard-response,276,1537153,0.0-17.0-2.7,46924,List1B,black,man,,,,null,,,,
4285,,,survey-text,277,1541448,0.0-17.0-3.7,46924,List1B,black,man,,,,,"{""Q0"":""Jane and Beth""}","<img src=""stim_listB/dance7.gif""</stim_listB>",is dancing with,
null,"<div style=""font-size:60px;"">+</div>",,html-keyboard-response,278,1541961,0.0-17.0-0.8,46924,List1B,black,man,,,,null,,,,
null,"<img src=""stim_listB/hug4.gif""</stim_listB>",,html-keyboard-response,279,1543976,0.0-17.0-1.8,46924,List1B,black,man,,,,null,,,,
null,are hugging each other,,html-keyboard-response,280,1545983,0.0-17.0-2.8,46924,List1B,black,man,,,,null,,,,
6966,,,survey-text,281,1552962,0.0-17.0-3.8,46924,List1B,black,man,,,,,"{""Q0"":""Jane and Dave""}","<img src=""stim_listB/hug4.gif""</stim_listB>",are hugging each other,
null,"<div style=""font-size:60px;"">+</div>",,html-keyboard-response,282,1553471,0.0-17.0-0.9,46924,List1B,black,man,,,,null,,,,
null,"<img src=""stim_listB/kiss4.gif""</stim_listB>",,html-keyboard-response,283,1555484,0.0-17.0-1.9,46924,List1B,black,man,,,,null,,,,
null,are kissing each other,,html-keyboard-response,284,1557494,0.0-17.0-2.9,46924,List1B,black,man,,,,null,,,,
7273,,,survey-text,285,1564779,0.0-17.0-3.9,46924,List1B,black,man,,,,,"{""Q0"":""Dave and Jane""}","<img src=""stim_listB/kiss4.gif""</stim_listB>",are kissing each other,
null,"<div style=""font-size:60px;"">+</div>",,html-keyboard-response,286,1565287,0.0-17.0-0.10,46924,List1B,black,man,,,,null,,,,
null,"<img src=""stim_listB/marry2.gif""</stim_listB>",,html-keyboard-response,287,1567300,0.0-17.0-1.10,46924,List1B,black,man,,,,null,,,,
null,are marrying each other,,html-keyboard-response,288,1569318,0.0-17.0-2.10,46924,List1B,black,man,,,,null,,,,
5378,,,survey-text,289,1574706,0.0-17.0-3.10,46924,List1B,black,man,,,,,"{""Q0"":""Fred and Kate ""}","<img src=""stim_listB/marry2.gif""</stim_listB>",are marrying each other,
null,"<div style=""font-size:60px;"">+</div>",,html-keyboard-response,290,1575218,0.0-17.0-0.11,46924,List1B,black,man,,,,null,,,,
null,"<img src=""stim_listB/hug6.gif""</stim_listB>",,html-keyboard-response,291,1577230,0.0-17.0-1.11,46924,List1B,black,man,,,,null,,,,
null,are hugging each other,,html-keyboard-response,292,1579238,0.0-17.0-2.11,46924,List1B,black,man,,,,null,,,,
6883,,,survey-text,293,1586131,0.0-17.0-3.11,46924,List1B,black,man,,,,,"{""Q0"":""Mike and Dave ""}","<img src=""stim_listB/hug6.gif""</stim_listB>",are hugging each other,
null,"<div style=""font-size:60px;"">+</div>",,html-keyboard-response,294,1586646,0.0-17.0-0.12,46924,List1B,black,man,,,,null,,,,
null,"<img src=""stim_listB/shout1.gif""</stim_listB>",,html-keyboard-response,295,1588655,0.0-17.0-1.12,46924,List1B,black,man,,,,null,,,,
null,is shouting at,,html-keyboard-response,296,1590660,0.0-17.0-2.12,46924,List1B,black,man,,,,null,,,,
4985,,,survey-text,297,1595652,0.0-17.0-3.12,46924,List1B,black,man,,,,,"{""Q0"":""Beth and Fred""}","<img src=""stim_listB/shout1.gif""</stim_listB>",is shouting at,
null,"<div style=""font-size:60px;"">+</div>",,html-keyboard-response,298,1596160,0.0-17.0-0.13,46924,List1B,black,man,,,,null,,,,
null,"<img src=""stim_listB/talk7.gif""</stim_listB>",,html-keyboard-response,299,1598173,0.0-17.0-1.13,46924,List1B,black,man,,,,null,,,,
null,is talking to,,html-keyboard-response,300,1600180,0.0-17.0-2.13,46924,List1B,black,man,,,,null,,,,
8263,,,survey-text,301,1608451,0.0-17.0-3.13,46924,List1B,black,man,,,,,"{""Q0"":""Beth and Jane ""}","<img src=""stim_listB/talk7.gif""</stim_listB>",is talking to,
null,"<div style=""font-size:60px;"">+</div>",,html-keyboard-response,302,1608962,0.0-17.0-0.14,46924,List1B,black,man,,,,null,,,,
null,"<img src=""stim_listB/touch2.gif""</stim_listB>",,html-keyboard-response,303,1610974,0.0-17.0-1.14,46924,List1B,black,man,,,,null,,,,
null,are touching each other,,html-keyboard-response,304,1612982,0.0-17.0-2.14,46924,List1B,black,man,,,,null,,,,
5510,,,survey-text,305,1618502,0.0-17.0-3.14,46924,List1B,black,man,,,,,"{""Q0"":""Fred and Beth ""}","<img src=""stim_listB/touch2.gif""</stim_listB>",are touching each other,
null,"<div style=""font-size:60px;"">+</div>",,html-keyboard-response,306,1619008,0.0-17.0-0.15,46924,List1B,black,man,,,,null,,,,
null,"<img src=""stim_listB/hug5.gif""</stim_listB>",,html-keyboard-response,307,1621017,0.0-17.0-1.15,46924,List1B,black,man,,,,null,,,,
null,is hugging,,html-keyboard-response,308,1623026,0.0-17.0-2.15,46924,List1B,black,man,,,,null,,,,
6306,,,survey-text,309,1629346,0.0-17.0-3.15,46924,List1B,black,man,,,,,"{""Q0"":""Fred and Luke""}","<img src=""stim_listB/hug5.gif""</stim_listB>",is hugging,
null,"<div style=""font-size:60px;"">+</div>",,html-keyboard-response,310,1629854,0.0-17.0-0.16,46924,List1B,black,man,,,,null,,,,
null,"<img src=""stim_listB/argue7.gif""</stim_listB>",,html-keyboard-response,311,1631857,0.0-17.0-1.16,46924,List1B,black,man,,,,null,,,,
null,is arguing with,,html-keyboard-response,312,1633860,0.0-17.0-2.16,46924,List1B,black,man,,,,null,,,,
5527,,,survey-text,313,1639393,0.0-17.0-3.16,46924,List1B,black,man,,,,,"{""Q0"":""Ruth and Kate""}","<img src=""stim_listB/argue7.gif""</stim_listB>",is arguing with,
null,"<div style=""font-size:60px;"">+</div>",,html-keyboard-response,314,1639896,0.0-17.0-0.17,46924,List1B,black,man,,,,null,,,,
null,"<img src=""stim_listB/argue6.gif""</stim_listB>",,html-keyboard-response,315,1641901,0.0-17.0-1.17,46924,List1B,black,man,,,,null,,,,
null,are arguing with each other,,html-keyboard-response,316,1643908,0.0-17.0-2.17,46924,List1B,black,man,,,,null,,,,
5643,,,survey-text,317,1649561,0.0-17.0-3.17,46924,List1B,black,man,,,,,"{""Q0"":""Fred and Dave ""}","<img src=""stim_listB/argue6.gif""</stim_listB>",are arguing with each other,
null,"<div style=""font-size:60px;"">+</div>",,html-keyboard-response,318,1650072,0.0-17.0-0.18,46924,List1B,black,man,,,,null,,,,
null,"<img src=""stim_listB/meet5.gif""</stim_listB>",,html-keyboard-response,319,1652082,0.0-17.0-1.18,46924,List1B,black,man,,,,null,,,,
null,is meeting,,html-keyboard-response,320,1654091,0.0-17.0-2.18,46924,List1B,black,man,,,,null,,,,
10104,,,survey-text,321,1664208,0.0-17.0-3.18,46924,List1B,black,man,,,,,"{""Q0"":""Mike and Dave""}","<img src=""stim_listB/meet5.gif""</stim_listB>",is meeting,
null,"<div style=""font-size:60px;"">+</div>",,html-keyboard-response,322,1664720,0.0-17.0-0.19,46924,List1B,black,man,,,,null,,,,
null,"<img src=""stim_listB/talk2.gif""</stim_listB>",,html-keyboard-response,323,1666734,0.0-17.0-1.19,46924,List1B,black,man,,,,null,,,,
null,are talking to each other,,html-keyboard-response,324,1668745,0.0-17.0-2.19,46924,List1B,black,man,,,,null,,,,
10785,,,survey-text,325,1679544,0.0-17.0-3.19,46924,List1B,black,man,,,,,"{""Q0"":""Mike and Beth""}","<img src=""stim_listB/talk2.gif""</stim_listB>",are talking to each other,
5388233,"<img src='img/portrait_matrix_list1.JPG' style='width:900px;height:500px;''></img><p>If you have memorised all the portraits and names and are ready to start, press Continue.</p><p><strong>Please note: Your memory of these faces will be tested 4 times during this experiment.</strong></p>",0,html-button-response,326,7067819,0.0-18.0-0.0,46924,List1B,black,man,,,,,,,,
6998,"<img src=""portrait/BM2.jpg""style=""width:400px;height:400px;""></img>",5,html-button-response,327,7075888,0.0-18.0-1.0,46924,List1B,black,man,,TRUE,5,,,,,
null,CORRECT,,html-keyboard-response,328,7077430,0.0-18.0-2.0-0.0,46924,List1B,black,man,,,,null,,,,
3135,"<img src=""portrait/WW1.jpg""style=""width:400px;height:400px;""></img>",1,html-button-response,329,7080580,0.0-18.0-4.0,46924,List1B,black,man,,TRUE,1,,,,,
null,CORRECT,,html-keyboard-response,330,7082098,0.0-18.0-5.0-0.0,46924,List1B,black,man,,,,null,,,,
3094,"<img src=""portrait/WM1.jpg""style=""width:400px;height:400px;""></img>",6,html-button-response,331,7085209,0.0-18.0-7.0,46924,List1B,black,man,,TRUE,6,,,,,
null,CORRECT,,html-keyboard-response,332,7086726,0.0-18.0-8.0-0.0,46924,List1B,black,man,,,,null,,,,
2281,"<img src=""portrait/BM1.jpg""style=""width:400px;height:400px;""></img>",4,html-button-response,333,7089025,0.0-18.0-10.0,46924,List1B,black,man,,TRUE,4,,,,,
null,CORRECT,,html-keyboard-response,334,7090541,0.0-18.0-11.0-0.0,46924,List1B,black,man,,,,null,,,,
1623,"<img src=""portrait/WM2.jpg""style=""width:400px;height:400px;""></img>",7,html-button-response,335,7092183,0.0-18.0-13.0,46924,List1B,black,man,,TRUE,7,,,,,
null,CORRECT,,html-keyboard-response,336,7093695,0.0-18.0-14.0-0.0,46924,List1B,black,man,,,,null,,,,
1902,"<img src=""portrait/BW1.jpg""style=""width:400px;height:400px;""></img>",0,html-button-response,337,7095613,0.0-18.0-16.0,46924,List1B,black,man,,TRUE,0,,,,,
null,CORRECT,,html-keyboard-response,338,7097123,0.0-18.0-17.0-0.0,46924,List1B,black,man,,,,null,,,,
1988,"<img src=""portrait/WW2.jpg""style=""width:400px;height:400px;""></img>",3,html-button-response,339,7099132,0.0-18.0-19.0,46924,List1B,black,man,,TRUE,3,,,,,
null,CORRECT,,html-keyboard-response,340,7100644,0.0-18.0-20.0-0.0,46924,List1B,black,man,,,,null,,,,
1679,"<img src=""portrait/BW2.jpg""style=""width:400px;height:400px;""></img>",2,html-button-response,341,7102342,0.0-18.0-22.0,46924,List1B,black,man,,TRUE,2,,,,,
null,CORRECT,,html-keyboard-response,342,7103851,0.0-18.0-23.0-0.0,46924,List1B,black,man,,,,null,,,,
2769,<p>You got 8 out of 8 right first time. Press Continue.</p>,0,html-button-response,343,7106642,0.0-18.0-25.0,46924,List1B,black,man,,,,,,,,
null,"<div style=""font-size:60px;"">+</div>",,html-keyboard-response,344,7108170,0.0-19.0-0.0,46924,List1B,black,man,,,,null,,,,
null,"<img src=""stim_listB/touch5.gif""</stim_listB>",,html-keyboard-response,345,7110190,0.0-19.0-1.0,46924,List1B,black,man,,,,null,,,,
null,is touching,,html-keyboard-response,346,7112203,0.0-19.0-2.0,46924,List1B,black,man,,,,null,,,,
12995,,,survey-text,347,7125221,0.0-19.0-3.0,46924,List1B,black,man,,,,,"{""Q0"":""Kate and Jane""}","<img src=""stim_listB/touch5.gif""</stim_listB>",is touching,
null,"<div style=""font-size:60px;"">+</div>",,html-keyboard-response,348,7125740,0.0-19.0-0.1,46924,List1B,black,man,,,,null,,,,
null,"<img src=""stim_listB/dance3.gif""</stim_listB>",,html-keyboard-response,349,7127748,0.0-19.0-1.1,46924,List1B,black,man,,,,null,,,,
null,is dancing with,,html-keyboard-response,350,7129756,0.0-19.0-2.1,46924,List1B,black,man,,,,null,,,,
11372,,,survey-text,351,7141151,0.0-19.0-3.1,46924,List1B,black,man,,,,,"{""Q0"":""Jane and Luke""}","<img src=""stim_listB/dance3.gif""</stim_listB>",is dancing with,
null,"<div style=""font-size:60px;"">+</div>",,html-keyboard-response,352,7141664,0.0-19.0-0.2,46924,List1B,black,man,,,,null,,,,
null,"<img src=""stim_listB/fight8.gif""</stim_listB>",,html-keyboard-response,353,7143677,0.0-19.0-1.2,46924,List1B,black,man,,,,null,,,,
null,are fighting each other,,html-keyboard-response,354,7145687,0.0-19.0-2.2,46924,List1B,black,man,,,,null,,,,
8533,,,survey-text,355,7154231,0.0-19.0-3.2,46924,List1B,black,man,,,,,"{""Q0"":""Ruth and Beth ""}","<img src=""stim_listB/fight8.gif""</stim_listB>",are fighting each other,
null,"<div style=""font-size:60px;"">+</div>",,html-keyboard-response,356,7154740,0.0-19.0-0.3,46924,List1B,black,man,,,,null,,,,
null,"<img src=""stim_listB/shout6.gif""</stim_listB>",,html-keyboard-response,357,7156755,0.0-19.0-1.3,46924,List1B,black,man,,,,null,,,,
null,are shouting at each other,,html-keyboard-response,358,7158761,0.0-19.0-2.3,46924,List1B,black,man,,,,null,,,,
12012,,,survey-text,359,7170781,0.0-19.0-3.3,46924,List1B,black,man,,,,,"{""Q0"":""Mike and Dave""}","<img src=""stim_listB/shout6.gif""</stim_listB>",are shouting at each other,
null,"<div style=""font-size:60px;"">+</div>",,html-keyboard-response,360,7171289,0.0-19.0-0.4,46924,List1B,black,man,,,,null,,,,
null,"<img src=""stim_listB/fight7.gif""</stim_listB>",,html-keyboard-response,361,7173299,0.0-19.0-1.4,46924,List1B,black,man,,,,null,,,,
null,is fighting,,html-keyboard-response,362,7175310,0.0-19.0-2.4,46924,List1B,black,man,,,,null,,,,
4440,,,survey-text,363,7179757,0.0-19.0-3.4,46924,List1B,black,man,,,,,"{""Q0"":""Jane and Kate""}","<img src=""stim_listB/fight7.gif""</stim_listB>",is fighting,
null,"<div style=""font-size:60px;"">+</div>",,html-keyboard-response,364,7180267,0.0-19.0-0.5,46924,List1B,black,man,,,,null,,,,
null,"<img src=""stim_listB/hug7.gif""</stim_listB>",,html-keyboard-response,365,7182278,0.0-19.0-1.5,46924,List1B,black,man,,,,null,,,,
null,is hugging,,html-keyboard-response,366,7184286,0.0-19.0-2.5,46924,List1B,black,man,,,,null,,,,
4712,,,survey-text,367,7189009,0.0-19.0-3.5,46924,List1B,black,man,,,,,"{""Q0"":""Ruth and Beth""}","<img src=""stim_listB/hug7.gif""</stim_listB>",is hugging,
null,"<div style=""font-size:60px;"">+</div>",,html-keyboard-response,368,7189521,0.0-19.0-0.6,46924,List1B,black,man,,,,null,,,,
null,"<img src=""stim_listB/kiss5.gif""</stim_listB>",,html-keyboard-response,369,7191532,0.0-19.0-1.6,46924,List1B,black,man,,,,null,,,,
null,is kissing,,html-keyboard-response,370,7193543,0.0-19.0-2.6,46924,List1B,black,man,,,,null,,,,
5122,,,survey-text,371,7198675,0.0-19.0-3.6,46924,List1B,black,man,,,,,"{""Q0"":""Fred and Luke""}","<img src=""stim_listB/kiss5.gif""</stim_listB>",is kissing,
null,"<div style=""font-size:60px;"">+</div>",,html-keyboard-response,372,7199186,0.0-19.0-0.7,46924,List1B,black,man,,,,null,,,,
null,"<img src=""stim_listB/argue3.gif""</stim_listB>",,html-keyboard-response,373,7201199,0.0-19.0-1.7,46924,List1B,black,man,,,,null,,,,
null,is arguing with,,html-keyboard-response,374,7203211,0.0-19.0-2.7,46924,List1B,black,man,,,,null,,,,
6399,,,survey-text,375,7209620,0.0-19.0-3.7,46924,List1B,black,man,,,,,"{""Q0"":""Ruth and Dave ""}","<img src=""stim_listB/argue3.gif""</stim_listB>",is arguing with,
null,"<div style=""font-size:60px;"">+</div>",,html-keyboard-response,376,7210131,0.0-19.0-0.8,46924,List1B,black,man,,,,null,,,,
null,"<img src=""stim_listB/shout8.gif""</stim_listB>",,html-keyboard-response,377,7212144,0.0-19.0-1.8,46924,List1B,black,man,,,,null,,,,
null,are shouting at each other,,html-keyboard-response,378,7214157,0.0-19.0-2.8,46924,List1B,black,man,,,,null,,,,
12117,,,survey-text,379,7226284,0.0-19.0-3.8,46924,List1B,black,man,,,,,"{""Q0"":""N/A""}","<img src=""stim_listB/shout8.gif""</stim_listB>",are shouting at each other,
null,"<div style=""font-size:60px;"">+</div>",,html-keyboard-response,380,7226793,0.0-19.0-0.9,46924,List1B,black,man,,,,null,,,,
null,"<img src=""stim_listB/touch3.gif""</stim_listB>",,html-keyboard-response,381,7228804,0.0-19.0-1.9,46924,List1B,black,man,,,,null,,,,
null,is touching,,html-keyboard-response,382,7230814,0.0-19.0-2.9,46924,List1B,black,man,,,,null,,,,
10422,,,survey-text,383,7241248,0.0-19.0-3.9,46924,List1B,black,man,,,,,"{""Q0"":""Jane and Dave ""}","<img src=""stim_listB/touch3.gif""</stim_listB>",is touching,
null,"<div style=""font-size:60px;"">+</div>",,html-keyboard-response,384,7241756,0.0-19.0-0.10,46924,List1B,black,man,,,,null,,,,
null,"<img src=""stim_listB/hug1.gif""</stim_listB>",,html-keyboard-response,385,7243772,0.0-19.0-1.10,46924,List1B,black,man,,,,null,,,,
null,is hugging,,html-keyboard-response,386,7245780,0.0-19.0-2.10,46924,List1B,black,man,,,,null,,,,
15631,,,survey-text,387,7261433,0.0-19.0-3.10,46924,List1B,black,man,,,,,"{""Q0"":""Fred and Beth""}","<img src=""stim_listB/hug1.gif""</stim_listB>",is hugging,
null,"<div style=""font-size:60px;"">+</div>",,html-keyboard-response,388,7261942,0.0-19.0-0.11,46924,List1B,black,man,,,,null,,,,
null,"<img src=""stim_listB/kiss6.gif""</stim_listB>",,html-keyboard-response,389,7263957,0.0-19.0-1.11,46924,List1B,black,man,,,,null,,,,
null,are kissing each other,,html-keyboard-response,390,7265964,0.0-19.0-2.11,46924,List1B,black,man,,,,null,,,,
4817,,,survey-text,391,7270793,0.0-19.0-3.11,46924,List1B,black,man,,,,,"{""Q0"":""Mike and Dave""}","<img src=""stim_listB/kiss6.gif""</stim_listB>",are kissing each other,
null,"<div style=""font-size:60px;"">+</div>",,html-keyboard-response,392,7271305,0.0-19.0-0.12,46924,List1B,black,man,,,,null,,,,
null,"<img src=""stim_listB/argue2.gif""</stim_listB>",,html-keyboard-response,393,7273318,0.0-19.0-1.12,46924,List1B,black,man,,,,null,,,,
null,are arguing with each other,,html-keyboard-response,394,7275328,0.0-19.0-2.12,46924,List1B,black,man,,,,null,,,,
5285,,,survey-text,395,7280623,0.0-19.0-3.12,46924,List1B,black,man,,,,,"{""Q0"":""Fred and Kate""}","<img src=""stim_listB/argue2.gif""</stim_listB>",are arguing with each other,
null,"<div style=""font-size:60px;"">+</div>",,html-keyboard-response,396,7281134,0.0-19.0-0.13,46924,List1B,black,man,,,,null,,,,
null,"<img src=""stim_listB/hug2.gif""</stim_listB>",,html-keyboard-response,397,7283148,0.0-19.0-1.13,46924,List1B,black,man,,,,null,,,,
null,are hugging each other,,html-keyboard-response,398,7285159,0.0-19.0-2.13,46924,List1B,black,man,,,,null,,,,
4396,,,survey-text,399,7289560,0.0-19.0-3.13,46924,List1B,black,man,,,,,"{""Q0"":""Mike and Kate""}","<img src=""stim_listB/hug2.gif""</stim_listB>",are hugging each other,
null,"<div style=""font-size:60px;"">+</div>",,html-keyboard-response,400,7290067,0.0-19.0-0.14,46924,List1B,black,man,,,,null,,,,
null,"<img src=""stim_listB/hug3.gif""</stim_listB>",,html-keyboard-response,401,7292080,0.0-19.0-1.14,46924,List1B,black,man,,,,null,,,,
null,is hugging,,html-keyboard-response,402,7294087,0.0-19.0-2.14,46924,List1B,black,man,,,,null,,,,
75469,,,survey-text,403,7369570,0.0-19.0-3.14,46924,List1B,black,man,,,,,"{""Q0"":""Ruth and Luke""}","<img src=""stim_listB/hug3.gif""</stim_listB>",is hugging,
null,"<div style=""font-size:60px;"">+</div>",,html-keyboard-response,404,7370087,0.0-19.0-0.15,46924,List1B,black,man,,,,null,,,,
null,"<img src=""stim_listB/fight6.gif""</stim_listB>",,html-keyboard-response,405,7372095,0.0-19.0-1.15,46924,List1B,black,man,,,,null,,,,
null,are fighting each other,,html-keyboard-response,406,7374106,0.0-19.0-2.15,46924,List1B,black,man,,,,null,,,,
4628,,,survey-text,407,7378746,0.0-19.0-3.15,46924,List1B,black,man,,,,,"{""Q0"":""Fred and Luke""}","<img src=""stim_listB/fight6.gif""</stim_listB>",are fighting each other,
null,"<div style=""font-size:60px;"">+</div>",,html-keyboard-response,408,7379258,0.0-19.0-0.16,46924,List1B,black,man,,,,null,,,,
null,"<img src=""stim_listB/talk1.gif""</stim_listB>",,html-keyboard-response,409,7381271,0.0-19.0-1.16,46924,List1B,black,man,,,,null,,,,
null,is talking to,,html-keyboard-response,410,7383277,0.0-19.0-2.16,46924,List1B,black,man,,,,null,,,,
4728,,,survey-text,411,7388014,0.0-19.0-3.16,46924,List1B,black,man,,,,,"{""Q0"":""Fred and Kate""}","<img src=""stim_listB/talk1.gif""</stim_listB>",is talking to,
null,"<div style=""font-size:60px;"">+</div>",,html-keyboard-response,412,7388523,0.0-19.0-0.17,46924,List1B,black,man,,,,null,,,,
null,"<img src=""stim_listB/fight5.gif""</stim_listB>",,html-keyboard-response,413,7390539,0.0-19.0-1.17,46924,List1B,black,man,,,,null,,,,
null,is fighting,,html-keyboard-response,414,7392549,0.0-19.0-2.17,46924,List1B,black,man,,,,null,,,,
4748,,,survey-text,415,7397308,0.0-19.0-3.17,46924,List1B,black,man,,,,,"{""Q0"":""Mike and Dave""}","<img src=""stim_listB/fight5.gif""</stim_listB>",is fighting,
null,"<div style=""font-size:60px;"">+</div>",,html-keyboard-response,416,7397821,0.0-19.0-0.18,46924,List1B,black,man,,,,null,,,,
null,"<img src=""stim_listB/dance8.gif""</stim_listB>",,html-keyboard-response,417,7399832,0.0-19.0-1.18,46924,List1B,black,man,,,,null,,,,
null,are dancing with each other,,html-keyboard-response,418,7401839,0.0-19.0-2.18,46924,List1B,black,man,,,,null,,,,
9330,,,survey-text,419,7411179,0.0-19.0-3.18,46924,List1B,black,man,,,,,"{""Q0"":""Ruth and Kate""}","<img src=""stim_listB/dance8.gif""</stim_listB>",are dancing with each other,
null,"<div style=""font-size:60px;"">+</div>",,html-keyboard-response,420,7411691,0.0-19.0-0.19,46924,List1B,black,man,,,,null,,,,
null,"<img src=""stim_listB/touch7.gif""</stim_listB>",,html-keyboard-response,421,7413700,0.0-19.0-1.19,46924,List1B,black,man,,,,null,,,,
null,is touching,,html-keyboard-response,422,7415706,0.0-19.0-2.19,46924,List1B,black,man,,,,null,,,,
4705,,,survey-text,423,7420426,0.0-19.0-3.19,46924,List1B,black,man,,,,,"{""Q0"":""Jane and Kate""}","<img src=""stim_listB/touch7.gif""</stim_listB>",is touching,
2557,<p>Thank you for completing that task.</p><p>The final part of this session is a short questionnaire.</p><p>Press Continue.</p>,0,html-button-response,424,7422998,0.0-20.0,46924,List1B,black,man,,,,,,,,
26983,,,survey-text,425,7451021,0.0-21.0,46924,List1B,black,man,,,,,"{""Q0"":""22"",""Q1"":""English "",""Q2"":""English "",""Q3"":""England"",""Q4"":""Black "",""Q5"":""Male""}",,,demographics
70137,,,survey-likert,426,7521221,0.0-22.0,46924,List1B,black,man,,,,,"{""Q0"":5,""Q1"":5,""Q2"":5,""Q3"":6,""Q4"":6,""Q5"":5,""Q6"":"""",""Q7"":5,""Q8"":4,""Q9"":5,""Q10"":3,""Q11"":3,""Q12"":3,""Q13"":4}",,,likert_race
49880,,,survey-likert,427,7571142,0.0-23.0,46924,List1B,black,man,,,,,"{""Q0"":5,""Q1"":5,""Q2"":6,""Q3"":6,""Q4"":5,""Q5"":4,""Q6"":4,""Q7"":3,""Q8"":5,""Q9"":4,""Q10"":4,""Q11"":3,""Q12"":3,""Q13"":3}",,,likert_gender
9478,,,survey-text,428,7580635,0.0-24.0,46924,List1B,black,man,,,,,"{""Q0"":""ccc""}",,,worker_id
4501,,,external-html,429,7585461,0.0-25.0,46924,List1B,black,man,debrief.html,,,,,,,
