rt,stimulus,button_pressed,trial_type,trial_index,time_elapsed,internal_node_id,subject,list,ppt_race,ppt_gender,url,first_guess,correct,key_press,responses,image_type,phrase_type,test_part
4102,Welcome to the experiment. Press Continue to begin.,0,html-button-response,0,4205,0.0-0.0,47424,List2A,white,woman,,,,,,,,
9759,,,external-html,1,15060,0.0-1.0,47424,List2A,white,woman,consent.html,,,,,,,
6280,"<p>On the next page, you will see portraits of 8 people and their names.</p><p>Your first task is to take a few minutes to memorise the names of these people.</p><p>You will have to recall their names during the rest of the experiment, so it is</p><p>essential that you try to memorise these people and their names as best as you can.</p><br><p><strong>You will then be tested on your memory of these names and portraits.</strong></p><br><p>The experiment will start after you have completed this memory test.</p><br><p>Ready?</p>",0,html-button-response,2,21345,0.0-2.0,47424,List2A,white,woman,,,,,,,,
26269,"<img src='img/portrait_matrix_list2.JPG' style='width:900px;height:500px;''></img><p>If you have memorised all the portraits and names and are ready to start, press Continue.</p><p><strong>Please note: Your memory of these faces will be tested 4 times during this experiment.</strong></p>",0,html-button-response,3,48618,0.0-3.0-0.0,47424,List2A,white,woman,,,,,,,,
3011,"<img src=""portrait/WM2.jpg""style=""width:400px;height:400px;""></img>",6,html-button-response,4,52634,0.0-3.0-1.0,47424,List2A,white,woman,,TRUE,7,,,,,
4938,"<img src=""portrait/WM2.jpg""style=""width:400px;height:400px;""></img>",7,html-button-response,5,58579,0.0-3.0-3.0-0.0,47424,List2A,white,woman,,FALSE,7,,,,,
null,CORRECT,,html-keyboard-response,6,60086,0.0-3.0-3.0-1.0-0.0,47424,List2A,white,woman,,,,null,,,,
2577,"<img src=""portrait/WW1.jpg""style=""width:400px;height:400px;""></img>",2,html-button-response,7,62668,0.0-3.0-4.0,47424,List2A,white,woman,,TRUE,1,,,,,
1795,"<img src=""portrait/WW1.jpg""style=""width:400px;height:400px;""></img>",1,html-button-response,8,65467,0.0-3.0-6.0-0.0,47424,List2A,white,woman,,FALSE,1,,,,,
null,CORRECT,,html-keyboard-response,9,66970,0.0-3.0-6.0-1.0-0.0,47424,List2A,white,woman,,,,null,,,,
3744,"<img src=""portrait/BW2.jpg""style=""width:400px;height:400px;""></img>",2,html-button-response,10,70717,0.0-3.0-7.0,47424,List2A,white,woman,,TRUE,2,,,,,
null,CORRECT,,html-keyboard-response,11,72221,0.0-3.0-8.0-0.0,47424,List2A,white,woman,,,,null,,,,
3852,"<img src=""portrait/WW2.jpg""style=""width:400px;height:400px;""></img>",3,html-button-response,12,76076,0.0-3.0-10.0,47424,List2A,white,woman,,TRUE,3,,,,,
null,CORRECT,,html-keyboard-response,13,77585,0.0-3.0-11.0-0.0,47424,List2A,white,woman,,,,null,,,,
3302,"<img src=""portrait/BW1.jpg""style=""width:400px;height:400px;""></img>",2,html-button-response,14,80890,0.0-3.0-13.0,47424,List2A,white,woman,,TRUE,0,,,,,
34037,"<img src=""portrait/BW1.jpg""style=""width:400px;height:400px;""></img>",0,html-button-response,15,115932,0.0-3.0-15.0-0.0,47424,List2A,white,woman,,FALSE,0,,,,,
null,CORRECT,,html-keyboard-response,16,117437,0.0-3.0-15.0-1.0-0.0,47424,List2A,white,woman,,,,null,,,,
3123,"<img src=""portrait/WM1.jpg""style=""width:400px;height:400px;""></img>",6,html-button-response,17,120563,0.0-3.0-16.0,47424,List2A,white,woman,,TRUE,6,,,,,
null,CORRECT,,html-keyboard-response,18,122068,0.0-3.0-17.0-0.0,47424,List2A,white,woman,,,,null,,,,
1890,"<img src=""portrait/BM2.jpg""style=""width:400px;height:400px;""></img>",5,html-button-response,19,123961,0.0-3.0-19.0,47424,List2A,white,woman,,TRUE,5,,,,,
null,CORRECT,,html-keyboard-response,20,125464,0.0-3.0-20.0-0.0,47424,List2A,white,woman,,,,null,,,,
2206,"<img src=""portrait/BM1.jpg""style=""width:400px;height:400px;""></img>",4,html-button-response,21,127673,0.0-3.0-22.0,47424,List2A,white,woman,,TRUE,4,,,,,
null,CORRECT,,html-keyboard-response,22,129179,0.0-3.0-23.0-0.0,47424,List2A,white,woman,,,,null,,,,
1285,<p>You got 5 out of 8 right first time. Press Continue.</p>,0,html-button-response,23,130467,0.0-3.0-25.0,47424,List2A,white,woman,,,,,,,,
1947,"As you did not score 100%, the memory game will repeat. Press Continue.",0,html-button-response,24,133417,0.0-3.0-26.0-0.0,47424,List2A,white,woman,,,,,,,,
20664,"<img src='img/portrait_matrix_list2.JPG' style='width:900px;height:500px;''></img><p>If you have memorised all the portraits and names and are ready to start, press Continue.</p><p><strong>Please note: Your memory of these faces will be tested 4 times during this experiment.</strong></p>",0,html-button-response,25,155087,0.0-3.1-0.1,47424,List2A,white,woman,,,,,,,,
4599,"<img src=""portrait/WM2.jpg""style=""width:400px;height:400px;""></img>",7,html-button-response,26,160691,0.0-3.1-1.1,47424,List2A,white,woman,,TRUE,7,,,,,
null,CORRECT,,html-keyboard-response,27,162195,0.0-3.1-2.1-0.1,47424,List2A,white,woman,,,,null,,,,
7886,"<img src=""portrait/WW1.jpg""style=""width:400px;height:400px;""></img>",1,html-button-response,28,170084,0.0-3.1-4.1,47424,List2A,white,woman,,TRUE,1,,,,,
null,CORRECT,,html-keyboard-response,29,171588,0.0-3.1-5.1-0.1,47424,List2A,white,woman,,,,null,,,,
1607,"<img src=""portrait/BW2.jpg""style=""width:400px;height:400px;""></img>",0,html-button-response,30,173198,0.0-3.1-7.1,47424,List2A,white,woman,,TRUE,2,,,,,
2089,"<img src=""portrait/BW2.jpg""style=""width:400px;height:400px;""></img>",2,html-button-response,31,176293,0.0-3.1-9.1-0.1,47424,List2A,white,woman,,FALSE,2,,,,,
null,CORRECT,,html-keyboard-response,32,177797,0.0-3.1-9.1-1.1-0.1,47424,List2A,white,woman,,,,null,,,,
1811,"<img src=""portrait/WW2.jpg""style=""width:400px;height:400px;""></img>",3,html-button-response,33,179611,0.0-3.1-10.1,47424,List2A,white,woman,,TRUE,3,,,,,
null,CORRECT,,html-keyboard-response,34,181114,0.0-3.1-11.1-0.1,47424,List2A,white,woman,,,,null,,,,
1337,"<img src=""portrait/BW1.jpg""style=""width:400px;height:400px;""></img>",0,html-button-response,35,182455,0.0-3.1-13.1,47424,List2A,white,woman,,TRUE,0,,,,,
null,CORRECT,,html-keyboard-response,36,183960,0.0-3.1-14.1-0.1,47424,List2A,white,woman,,,,null,,,,
1556,"<img src=""portrait/WM1.jpg""style=""width:400px;height:400px;""></img>",6,html-button-response,37,185519,0.0-3.1-16.1,47424,List2A,white,woman,,TRUE,6,,,,,
null,CORRECT,,html-keyboard-response,38,187023,0.0-3.1-17.1-0.1,47424,List2A,white,woman,,,,null,,,,
547,"<img src=""portrait/BM2.jpg""style=""width:400px;height:400px;""></img>",5,html-button-response,39,187574,0.0-3.1-19.1,47424,List2A,white,woman,,TRUE,5,,,,,
null,CORRECT,,html-keyboard-response,40,189081,0.0-3.1-20.1-0.1,47424,List2A,white,woman,,,,null,,,,
438,"<img src=""portrait/BM1.jpg""style=""width:400px;height:400px;""></img>",4,html-button-response,41,189521,0.0-3.1-22.1,47424,List2A,white,woman,,TRUE,4,,,,,
null,CORRECT,,html-keyboard-response,42,191026,0.0-3.1-23.1-0.1,47424,List2A,white,woman,,,,null,,,,
2211,<p>You got 7 out of 8 right first time. Press Continue.</p>,0,html-button-response,43,193239,0.0-3.1-25.1,47424,List2A,white,woman,,,,,,,,
1997,"As you did not score 100%, the memory game will repeat. Press Continue.",0,html-button-response,44,196239,0.0-3.1-26.1-0.1,47424,List2A,white,woman,,,,,,,,
11957,"<img src='img/portrait_matrix_list2.JPG' style='width:900px;height:500px;''></img><p>If you have memorised all the portraits and names and are ready to start, press Continue.</p><p><strong>Please note: Your memory of these faces will be tested 4 times during this experiment.</strong></p>",0,html-button-response,45,209202,0.0-3.2-0.2,47424,List2A,white,woman,,,,,,,,
1242,"<img src=""portrait/WM2.jpg""style=""width:400px;height:400px;""></img>",7,html-button-response,46,211449,0.0-3.2-1.2,47424,List2A,white,woman,,TRUE,7,,,,,
null,CORRECT,,html-keyboard-response,47,212954,0.0-3.2-2.2-0.2,47424,List2A,white,woman,,,,null,,,,
4720,"<img src=""portrait/WW1.jpg""style=""width:400px;height:400px;""></img>",1,html-button-response,48,217678,0.0-3.2-4.2,47424,List2A,white,woman,,TRUE,1,,,,,
null,CORRECT,,html-keyboard-response,49,219183,0.0-3.2-5.2-0.2,47424,List2A,white,woman,,,,null,,,,
3170,"<img src=""portrait/BW2.jpg""style=""width:400px;height:400px;""></img>",2,html-button-response,50,222358,0.0-3.2-7.2,47424,List2A,white,woman,,TRUE,2,,,,,
null,CORRECT,,html-keyboard-response,51,223867,0.0-3.2-8.2-0.2,47424,List2A,white,woman,,,,null,,,,
1659,"<img src=""portrait/WW2.jpg""style=""width:400px;height:400px;""></img>",3,html-button-response,52,225530,0.0-3.2-10.2,47424,List2A,white,woman,,TRUE,3,,,,,
null,CORRECT,,html-keyboard-response,53,227034,0.0-3.2-11.2-0.2,47424,List2A,white,woman,,,,null,,,,
731,"<img src=""portrait/BW1.jpg""style=""width:400px;height:400px;""></img>",0,html-button-response,54,227771,0.0-3.2-13.2,47424,List2A,white,woman,,TRUE,0,,,,,
null,CORRECT,,html-keyboard-response,55,229276,0.0-3.2-14.2-0.2,47424,List2A,white,woman,,,,null,,,,
875,"<img src=""portrait/WM1.jpg""style=""width:400px;height:400px;""></img>",6,html-button-response,56,230155,0.0-3.2-16.2,47424,List2A,white,woman,,TRUE,6,,,,,
null,CORRECT,,html-keyboard-response,57,231663,0.0-3.2-17.2-0.2,47424,List2A,white,woman,,,,null,,,,
620,"<img src=""portrait/BM2.jpg""style=""width:400px;height:400px;""></img>",5,html-button-response,58,232285,0.0-3.2-19.2,47424,List2A,white,woman,,TRUE,5,,,,,
null,CORRECT,,html-keyboard-response,59,233789,0.0-3.2-20.2-0.2,47424,List2A,white,woman,,,,null,,,,
563,"<img src=""portrait/BM1.jpg""style=""width:400px;height:400px;""></img>",4,html-button-response,60,234355,0.0-3.2-22.2,47424,List2A,white,woman,,TRUE,4,,,,,
null,CORRECT,,html-keyboard-response,61,235860,0.0-3.2-23.2-0.2,47424,List2A,white,woman,,,,null,,,,
2729,<p>You got 8 out of 8 right first time. Press Continue.</p>,0,html-button-response,62,238591,0.0-3.2-25.2,47424,List2A,white,woman,,,,,,,,
8107,"<p>In this experiment, you will view photographs of the people from the memory game interacting.</p><p>By using the <strong>exact</strong> phrase given <i>after</i> the photograph appears and recalling the correct names of the people in the photographs, form a sentence describing the interaction. You do not need to capitalise names.</p><p>Type your answer in the space provided. Please complete every sentence before moving onto the next trial.</p><p>You will only have a few seconds to memorise each given photograph and phrase before you can respond, so try your best to focus.</p><p>An example is given below. Press 'Continue' when you are ready.</p><img src='img/speaking_example_v2.jpg' style='width:800px;height:460px;''></img>",0,html-button-response,63,247702,0.0-4.0,47424,List2A,white,woman,,,,,,,,
1684,"<p>Before the experiment starts, you will watch two example trials. Press 'Continue'.</p>",0,html-button-response,64,250391,0.0-5.0,47424,List2A,white,woman,,,,,,,,
null,<img src='img/speaking_WW.gif'></img>,,html-keyboard-response,65,253395,0.0-6.0,47424,List2A,white,woman,,,,null,,,,
null,<p>is speaking to</p>,,html-keyboard-response,66,255398,0.0-7.0,47424,List2A,white,woman,,,,null,,,,
1542,<p><b>Answer:</b> jane is speaking to ruth</p>,0,html-button-response,67,256942,0.0-8.0,47424,List2A,white,woman,,,,,,,,
null,<img src='img/pointing_BM.gif'></img>,,html-keyboard-response,68,259945,0.0-9.0,47424,List2A,white,woman,,,,null,,,,
null,<p>are pointing at each other</p>,,html-keyboard-response,69,261948,0.0-10.0,47424,List2A,white,woman,,,,null,,,,
2125,<p><b>Answer:</b> fred and mike are pointing at each other</p>,0,html-button-response,70,264074,0.0-11.0,47424,List2A,white,woman,,,,,,,,
1756,"<p>Ready to start the experiment?</p><br><p><strong>Remember to describe the picture using a full sentence,</strong></p><p><strong>that combines the names of the people with the given phrase.</strong></p><p><strong>If you do not do this correctly you will not be paid.</strong></p><p><strong> You do not need to capitalise names or use punctuation.</strong></p><br><p>Press 'Continue' to begin.</p>",0,html-button-response,71,266834,0.0-12.0,47424,List2A,white,woman,,,,,,,,
null,"<div style=""font-size:60px;"">+</div>",,html-keyboard-response,72,268338,0.0-13.0-0.0,47424,List2A,white,woman,,,,null,,,,
null,"<img src=""stim_listA/talk8.gif""</stim_listA>",,html-keyboard-response,73,270342,0.0-13.0-1.0,47424,List2A,white,woman,,,,null,,,,
null,are talking to each other,,html-keyboard-response,74,272345,0.0-13.0-2.0,47424,List2A,white,woman,,,,null,,,,
11614,,,survey-text,75,283962,0.0-13.0-3.0,47424,List2A,white,woman,,,,,"{""Q0"":""beth and ruth are talking to each other""}","<img src=""stim_listA/talk8.gif""</stim_listA>",are talking to each other,
null,"<div style=""font-size:60px;"">+</div>",,html-keyboard-response,76,284467,0.0-13.0-0.1,47424,List2A,white,woman,,,,null,,,,
null,"<img src=""stim_listA/argue4.gif""</stim_listA>",,html-keyboard-response,77,286468,0.0-13.0-1.1,47424,List2A,white,woman,,,,null,,,,
null,are arguing with each other,,html-keyboard-response,78,288471,0.0-13.0-2.1,47424,List2A,white,woman,,,,null,,,,
12499,,,survey-text,79,300972,0.0-13.0-3.1,47424,List2A,white,woman,,,,,"{""Q0"":""Fred and kate are arguing with each other""}","<img src=""stim_listA/argue4.gif""</stim_listA>",are arguing with each other,
null,"<div style=""font-size:60px;"">+</div>",,html-keyboard-response,80,301476,0.0-13.0-0.2,47424,List2A,white,woman,,,,null,,,,
null,"<img src=""stim_listA/kiss2.gif""</stim_listA>",,html-keyboard-response,81,303480,0.0-13.0-1.2,47424,List2A,white,woman,,,,null,,,,
null,are kissing each other,,html-keyboard-response,82,305482,0.0-13.0-2.2,47424,List2A,white,woman,,,,null,,,,
9871,,,survey-text,83,315356,0.0-13.0-3.2,47424,List2A,white,woman,,,,,"{""Q0"":""dave and someone are kissing""}","<img src=""stim_listA/kiss2.gif""</stim_listA>",are kissing each other,
null,"<div style=""font-size:60px;"">+</div>",,html-keyboard-response,84,315858,0.0-13.0-0.3,47424,List2A,white,woman,,,,null,,,,
null,"<img src=""stim_listA/touch6.gif""</stim_listA>",,html-keyboard-response,85,317861,0.0-13.0-1.3,47424,List2A,white,woman,,,,null,,,,
null,are touching each other,,html-keyboard-response,86,319862,0.0-13.0-2.3,47424,List2A,white,woman,,,,null,,,,
7840,,,survey-text,87,327704,0.0-13.0-3.3,47424,List2A,white,woman,,,,,"{""Q0"":""fred and luke are touching""}","<img src=""stim_listA/touch6.gif""</stim_listA>",are touching each other,
null,"<div style=""font-size:60px;"">+</div>",,html-keyboard-response,88,328206,0.0-13.0-0.4,47424,List2A,white,woman,,,,null,,,,
null,"<img src=""stim_listA/meet6.gif""</stim_listA>",,html-keyboard-response,89,330209,0.0-13.0-1.4,47424,List2A,white,woman,,,,null,,,,
null,are meeting each other,,html-keyboard-response,90,332212,0.0-13.0-2.4,47424,List2A,white,woman,,,,null,,,,
9581,,,survey-text,91,341796,0.0-13.0-3.4,47424,List2A,white,woman,,,,,"{""Q0"":""luke and fred are meeting""}","<img src=""stim_listA/meet6.gif""</stim_listA>",are meeting each other,
null,"<div style=""font-size:60px;"">+</div>",,html-keyboard-response,92,342299,0.0-13.0-0.5,47424,List2A,white,woman,,,,null,,,,
null,"<img src=""stim_listA/meet1.gif""</stim_listA>",,html-keyboard-response,93,344301,0.0-13.0-1.5,47424,List2A,white,woman,,,,null,,,,
null,is meeting,,html-keyboard-response,94,346302,0.0-13.0-2.5,47424,List2A,white,woman,,,,null,,,,
7234,,,survey-text,95,353538,0.0-13.0-3.5,47424,List2A,white,woman,,,,,"{""Q0"":""kate and luke are meeting""}","<img src=""stim_listA/meet1.gif""</stim_listA>",is meeting,
null,"<div style=""font-size:60px;"">+</div>",,html-keyboard-response,96,354042,0.0-13.0-0.6,47424,List2A,white,woman,,,,null,,,,
null,"<img src=""stim_listA/fight3.gif""</stim_listA>",,html-keyboard-response,97,356045,0.0-13.0-1.6,47424,List2A,white,woman,,,,null,,,,
null,is fighting,,html-keyboard-response,98,358048,0.0-13.0-2.6,47424,List2A,white,woman,,,,null,,,,
7360,,,survey-text,99,365410,0.0-13.0-3.6,47424,List2A,white,woman,,,,,"{""Q0"":""missed it""}","<img src=""stim_listA/fight3.gif""</stim_listA>",is fighting,
null,"<div style=""font-size:60px;"">+</div>",,html-keyboard-response,100,365915,0.0-13.0-0.7,47424,List2A,white,woman,,,,null,,,,
null,"<img src=""stim_listA/shout7.gif""</stim_listA>",,html-keyboard-response,101,367917,0.0-13.0-1.7,47424,List2A,white,woman,,,,null,,,,
null,is shouting at,,html-keyboard-response,102,369920,0.0-13.0-2.7,47424,List2A,white,woman,,,,null,,,,
15645,,,survey-text,103,385567,0.0-13.0-3.7,47424,List2A,white,woman,,,,,"{""Q0"":""beth is shouting at ruth""}","<img src=""stim_listA/shout7.gif""</stim_listA>",is shouting at,
null,"<div style=""font-size:60px;"">+</div>",,html-keyboard-response,104,386072,0.0-13.0-0.8,47424,List2A,white,woman,,,,null,,,,
null,"<img src=""stim_listA/meet4.gif""</stim_listA>",,html-keyboard-response,105,388074,0.0-13.0-1.8,47424,List2A,white,woman,,,,null,,,,
null,are meeting each other,,html-keyboard-response,106,390075,0.0-13.0-2.8,47424,List2A,white,woman,,,,null,,,,
32076,,,survey-text,107,422154,0.0-13.0-3.8,47424,List2A,white,woman,,,,,"{""Q0"":""missed it""}","<img src=""stim_listA/meet4.gif""</stim_listA>",are meeting each other,
null,"<div style=""font-size:60px;"">+</div>",,html-keyboard-response,108,422657,0.0-13.0-0.9,47424,List2A,white,woman,,,,null,,,,
null,"<img src=""stim_listA/dance2.gif""</stim_listA>",,html-keyboard-response,109,424661,0.0-13.0-1.9,47424,List2A,white,woman,,,,null,,,,
null,are dancing with each other,,html-keyboard-response,110,426663,0.0-13.0-2.9,47424,List2A,white,woman,,,,null,,,,
11594,,,survey-text,111,438259,0.0-13.0-3.9,47424,List2A,white,woman,,,,,"{""Q0"":""ruth and luke are dancing with each other""}","<img src=""stim_listA/dance2.gif""</stim_listA>",are dancing with each other,
null,"<div style=""font-size:60px;"">+</div>",,html-keyboard-response,112,438762,0.0-13.0-0.10,47424,List2A,white,woman,,,,null,,,,
null,"<img src=""stim_listA/kiss5.gif""</stim_listA>",,html-keyboard-response,113,440765,0.0-13.0-1.10,47424,List2A,white,woman,,,,null,,,,
null,is kissing,,html-keyboard-response,114,442767,0.0-13.0-2.10,47424,List2A,white,woman,,,,null,,,,
5998,,,survey-text,115,448767,0.0-13.0-3.10,47424,List2A,white,woman,,,,,"{""Q0"":""fred is kissing dave""}","<img src=""stim_listA/kiss5.gif""</stim_listA>",is kissing,
null,"<div style=""font-size:60px;"">+</div>",,html-keyboard-response,116,449278,0.0-13.0-0.11,47424,List2A,white,woman,,,,null,,,,
null,"<img src=""stim_listA/shout8.gif""</stim_listA>",,html-keyboard-response,117,451282,0.0-13.0-1.11,47424,List2A,white,woman,,,,null,,,,
null,are shouting at each other,,html-keyboard-response,118,453283,0.0-13.0-2.11,47424,List2A,white,woman,,,,null,,,,
10300,,,survey-text,119,463585,0.0-13.0-3.11,47424,List2A,white,woman,,,,,"{""Q0"":""ruth and beth are shouting at each other""}","<img src=""stim_listA/shout8.gif""</stim_listA>",are shouting at each other,
null,"<div style=""font-size:60px;"">+</div>",,html-keyboard-response,120,464087,0.0-13.0-0.12,47424,List2A,white,woman,,,,null,,,,
null,"<img src=""stim_listA/talk1.gif""</stim_listA>",,html-keyboard-response,121,466090,0.0-13.0-1.12,47424,List2A,white,woman,,,,null,,,,
null,is talking to,,html-keyboard-response,122,468093,0.0-13.0-2.12,47424,List2A,white,woman,,,,null,,,,
7188,,,survey-text,123,475282,0.0-13.0-3.12,47424,List2A,white,woman,,,,,"{""Q0"":""ruth is taking to luke""}","<img src=""stim_listA/talk1.gif""</stim_listA>",is talking to,
null,"<div style=""font-size:60px;"">+</div>",,html-keyboard-response,124,475786,0.0-13.0-0.13,47424,List2A,white,woman,,,,null,,,,
null,"<img src=""stim_listA/marry5.gif""</stim_listA>",,html-keyboard-response,125,477789,0.0-13.0-1.13,47424,List2A,white,woman,,,,null,,,,
null,is marrying,,html-keyboard-response,126,479791,0.0-13.0-2.13,47424,List2A,white,woman,,,,null,,,,
7991,,,survey-text,127,487784,0.0-13.0-3.13,47424,List2A,white,woman,,,,,"{""Q0"":""dave is marrying fred""}","<img src=""stim_listA/marry5.gif""</stim_listA>",is marrying,
null,"<div style=""font-size:60px;"">+</div>",,html-keyboard-response,128,488288,0.0-13.0-0.14,47424,List2A,white,woman,,,,null,,,,
null,"<img src=""stim_listA/kiss6.gif""</stim_listA>",,html-keyboard-response,129,490290,0.0-13.0-1.14,47424,List2A,white,woman,,,,null,,,,
null,are kissing each other,,html-keyboard-response,130,492293,0.0-13.0-2.14,47424,List2A,white,woman,,,,null,,,,
6330,,,survey-text,131,498625,0.0-13.0-3.14,47424,List2A,white,woman,,,,,"{""Q0"":""dave is kissing luke""}","<img src=""stim_listA/kiss6.gif""</stim_listA>",are kissing each other,
null,"<div style=""font-size:60px;"">+</div>",,html-keyboard-response,132,499127,0.0-13.0-0.15,47424,List2A,white,woman,,,,null,,,,
null,"<img src=""stim_listA/argue2.gif""</stim_listA>",,html-keyboard-response,133,501131,0.0-13.0-1.15,47424,List2A,white,woman,,,,null,,,,
null,are arguing with each other,,html-keyboard-response,134,503133,0.0-13.0-2.15,47424,List2A,white,woman,,,,null,,,,
8832,,,survey-text,135,511967,0.0-13.0-3.15,47424,List2A,white,woman,,,,,"{""Q0"":""ruth is arguing with luke""}","<img src=""stim_listA/argue2.gif""</stim_listA>",are arguing with each other,
null,"<div style=""font-size:60px;"">+</div>",,html-keyboard-response,136,512470,0.0-13.0-0.16,47424,List2A,white,woman,,,,null,,,,
null,"<img src=""stim_listA/touch7.gif""</stim_listA>",,html-keyboard-response,137,514473,0.0-13.0-1.16,47424,List2A,white,woman,,,,null,,,,
null,is touching,,html-keyboard-response,138,516475,0.0-13.0-2.16,47424,List2A,white,woman,,,,null,,,,
9166,,,survey-text,139,525644,0.0-13.0-3.16,47424,List2A,white,woman,,,,,"{""Q0"":""kate is touching ruth""}","<img src=""stim_listA/touch7.gif""</stim_listA>",is touching,
null,"<div style=""font-size:60px;"">+</div>",,html-keyboard-response,140,526155,0.0-13.0-0.17,47424,List2A,white,woman,,,,null,,,,
null,"<img src=""stim_listA/marry4.gif""</stim_listA>",,html-keyboard-response,141,528157,0.0-13.0-1.17,47424,List2A,white,woman,,,,null,,,,
null,are marrying each other,,html-keyboard-response,142,530158,0.0-13.0-2.17,47424,List2A,white,woman,,,,null,,,,
6348,,,survey-text,143,536508,0.0-13.0-3.17,47424,List2A,white,woman,,,,,"{""Q0"":""fred and beth are marrying each other""}","<img src=""stim_listA/marry4.gif""</stim_listA>",are marrying each other,
null,"<div style=""font-size:60px;"">+</div>",,html-keyboard-response,144,537011,0.0-13.0-0.18,47424,List2A,white,woman,,,,null,,,,
null,"<img src=""stim_listA/dance3.gif""</stim_listA>",,html-keyboard-response,145,539013,0.0-13.0-1.18,47424,List2A,white,woman,,,,null,,,,
null,is dancing with,,html-keyboard-response,146,541015,0.0-13.0-2.18,47424,List2A,white,woman,,,,null,,,,
7753,,,survey-text,147,548771,0.0-13.0-3.18,47424,List2A,white,woman,,,,,"{""Q0"":""fred is dancing with beth""}","<img src=""stim_listA/dance3.gif""</stim_listA>",is dancing with,
null,"<div style=""font-size:60px;"">+</div>",,html-keyboard-response,148,549273,0.0-13.0-0.19,47424,List2A,white,woman,,,,null,,,,
null,"<img src=""stim_listA/dance6.gif""</stim_listA>",,html-keyboard-response,149,551277,0.0-13.0-1.19,47424,List2A,white,woman,,,,null,,,,
null,are dancing with each other,,html-keyboard-response,150,553280,0.0-13.0-2.19,47424,List2A,white,woman,,,,null,,,,
10387,,,survey-text,151,563669,0.0-13.0-3.19,47424,List2A,white,woman,,,,,"{""Q0"":""dave and fred are dancing with each other""}","<img src=""stim_listA/dance6.gif""</stim_listA>",are dancing with each other,
11619,"<img src='img/portrait_matrix_list2.JPG' style='width:900px;height:500px;''></img><p>If you have memorised all the portraits and names and are ready to start, press Continue.</p><p><strong>Please note: Your memory of these faces will be tested 4 times during this experiment.</strong></p>",0,html-button-response,152,575291,0.0-14.0-0.0,47424,List2A,white,woman,,,,,,,,
1996,"<img src=""portrait/WM2.jpg""style=""width:400px;height:400px;""></img>",7,html-button-response,153,578290,0.0-14.0-1.0,47424,List2A,white,woman,,TRUE,7,,,,,
null,CORRECT,,html-keyboard-response,154,579804,0.0-14.0-2.0-0.0,47424,List2A,white,woman,,,,null,,,,
1719,"<img src=""portrait/BM2.jpg""style=""width:400px;height:400px;""></img>",5,html-button-response,155,581525,0.0-14.0-4.0,47424,List2A,white,woman,,TRUE,5,,,,,
null,CORRECT,,html-keyboard-response,156,583031,0.0-14.0-5.0-0.0,47424,List2A,white,woman,,,,null,,,,
2549,"<img src=""portrait/WW2.jpg""style=""width:400px;height:400px;""></img>",1,html-button-response,157,585583,0.0-14.0-7.0,47424,List2A,white,woman,,TRUE,3,,,,,
2792,"<img src=""portrait/WW2.jpg""style=""width:400px;height:400px;""></img>",3,html-button-response,158,589382,0.0-14.0-9.0-0.0,47424,List2A,white,woman,,FALSE,3,,,,,
null,CORRECT,,html-keyboard-response,159,590887,0.0-14.0-9.0-1.0-0.0,47424,List2A,white,woman,,,,null,,,,
3922,"<img src=""portrait/BW1.jpg""style=""width:400px;height:400px;""></img>",2,html-button-response,160,594812,0.0-14.0-10.0,47424,List2A,white,woman,,TRUE,0,,,,,
678,"<img src=""portrait/BW1.jpg""style=""width:400px;height:400px;""></img>",0,html-button-response,161,596498,0.0-14.0-12.0-0.0,47424,List2A,white,woman,,FALSE,0,,,,,
null,CORRECT,,html-keyboard-response,162,598002,0.0-14.0-12.0-1.0-0.0,47424,List2A,white,woman,,,,null,,,,
2916,"<img src=""portrait/BW2.jpg""style=""width:400px;height:400px;""></img>",2,html-button-response,163,600920,0.0-14.0-13.0,47424,List2A,white,woman,,TRUE,2,,,,,
null,CORRECT,,html-keyboard-response,164,602425,0.0-14.0-14.0-0.0,47424,List2A,white,woman,,,,null,,,,
2023,"<img src=""portrait/WW1.jpg""style=""width:400px;height:400px;""></img>",3,html-button-response,165,604451,0.0-14.0-16.0,47424,List2A,white,woman,,TRUE,1,,,,,
1802,"<img src=""portrait/WW1.jpg""style=""width:400px;height:400px;""></img>",1,html-button-response,166,607259,0.0-14.0-18.0-0.0,47424,List2A,white,woman,,FALSE,1,,,,,
null,CORRECT,,html-keyboard-response,167,608763,0.0-14.0-18.0-1.0-0.0,47424,List2A,white,woman,,,,null,,,,
1798,"<img src=""portrait/WM1.jpg""style=""width:400px;height:400px;""></img>",6,html-button-response,168,610564,0.0-14.0-19.0,47424,List2A,white,woman,,TRUE,6,,,,,
null,CORRECT,,html-keyboard-response,169,612070,0.0-14.0-20.0-0.0,47424,List2A,white,woman,,,,null,,,,
2166,"<img src=""portrait/BM1.jpg""style=""width:400px;height:400px;""></img>",4,html-button-response,170,614239,0.0-14.0-22.0,47424,List2A,white,woman,,TRUE,4,,,,,
null,CORRECT,,html-keyboard-response,171,615742,0.0-14.0-23.0-0.0,47424,List2A,white,woman,,,,null,,,,
1483,<p>You got 5 out of 8 right first time. Press Continue.</p>,0,html-button-response,172,617227,0.0-14.0-25.0,47424,List2A,white,woman,,,,,,,,
1587,"As you did not score 100%, the memory game will repeat. Press Continue.",0,html-button-response,173,619817,0.0-14.0-26.0-0.0,47424,List2A,white,woman,,,,,,,,
32836,"<img src='img/portrait_matrix_list2.JPG' style='width:900px;height:500px;''></img><p>If you have memorised all the portraits and names and are ready to start, press Continue.</p><p><strong>Please note: Your memory of these faces will be tested 4 times during this experiment.</strong></p>",0,html-button-response,174,653659,0.0-14.1-0.1,47424,List2A,white,woman,,,,,,,,
1787,"<img src=""portrait/WM2.jpg""style=""width:400px;height:400px;""></img>",7,html-button-response,175,656453,0.0-14.1-1.1,47424,List2A,white,woman,,TRUE,7,,,,,
null,CORRECT,,html-keyboard-response,176,657958,0.0-14.1-2.1-0.1,47424,List2A,white,woman,,,,null,,,,
1511,"<img src=""portrait/BM2.jpg""style=""width:400px;height:400px;""></img>",5,html-button-response,177,659472,0.0-14.1-4.1,47424,List2A,white,woman,,TRUE,5,,,,,
null,CORRECT,,html-keyboard-response,178,660979,0.0-14.1-5.1-0.1,47424,List2A,white,woman,,,,null,,,,
3233,"<img src=""portrait/WW2.jpg""style=""width:400px;height:400px;""></img>",3,html-button-response,179,664214,0.0-14.1-7.1,47424,List2A,white,woman,,TRUE,3,,,,,
null,CORRECT,,html-keyboard-response,180,665719,0.0-14.1-8.1-0.1,47424,List2A,white,woman,,,,null,,,,
3058,"<img src=""portrait/BW1.jpg""style=""width:400px;height:400px;""></img>",0,html-button-response,181,668780,0.0-14.1-10.1,47424,List2A,white,woman,,TRUE,0,,,,,
null,CORRECT,,html-keyboard-response,182,670283,0.0-14.1-11.1-0.1,47424,List2A,white,woman,,,,null,,,,
2039,"<img src=""portrait/BW2.jpg""style=""width:400px;height:400px;""></img>",2,html-button-response,183,672325,0.0-14.1-13.1,47424,List2A,white,woman,,TRUE,2,,,,,
null,CORRECT,,html-keyboard-response,184,673830,0.0-14.1-14.1-0.1,47424,List2A,white,woman,,,,null,,,,
1621,"<img src=""portrait/WW1.jpg""style=""width:400px;height:400px;""></img>",1,html-button-response,185,675454,0.0-14.1-16.1,47424,List2A,white,woman,,TRUE,1,,,,,
null,CORRECT,,html-keyboard-response,186,676965,0.0-14.1-17.1-0.1,47424,List2A,white,woman,,,,null,,,,
2289,"<img src=""portrait/WM1.jpg""style=""width:400px;height:400px;""></img>",6,html-button-response,187,679258,0.0-14.1-19.1,47424,List2A,white,woman,,TRUE,6,,,,,
null,CORRECT,,html-keyboard-response,188,680774,0.0-14.1-20.1-0.1,47424,List2A,white,woman,,,,null,,,,
1553,"<img src=""portrait/BM1.jpg""style=""width:400px;height:400px;""></img>",4,html-button-response,189,682330,0.0-14.1-22.1,47424,List2A,white,woman,,TRUE,4,,,,,
null,CORRECT,,html-keyboard-response,190,683836,0.0-14.1-23.1-0.1,47424,List2A,white,woman,,,,null,,,,
2050,<p>You got 8 out of 8 right first time. Press Continue.</p>,0,html-button-response,191,685888,0.0-14.1-25.1,47424,List2A,white,woman,,,,,,,,
null,"<div style=""font-size:60px;"">+</div>",,html-keyboard-response,192,687392,0.0-15.0-0.0,47424,List2A,white,woman,,,,null,,,,
null,"<img src=""stim_listA/marry7.gif""</stim_listA>",,html-keyboard-response,193,689398,0.0-15.0-1.0,47424,List2A,white,woman,,,,null,,,,
null,is marrying,,html-keyboard-response,194,691399,0.0-15.0-2.0,47424,List2A,white,woman,,,,null,,,,
12444,,,survey-text,195,703846,0.0-15.0-3.0,47424,List2A,white,woman,,,,,"{""Q0"":""beth is marrying jane""}","<img src=""stim_listA/marry7.gif""</stim_listA>",is marrying,
null,"<div style=""font-size:60px;"">+</div>",,html-keyboard-response,196,704349,0.0-15.0-0.1,47424,List2A,white,woman,,,,null,,,,
null,"<img src=""stim_listA/shout4.gif""</stim_listA>",,html-keyboard-response,197,706353,0.0-15.0-1.1,47424,List2A,white,woman,,,,null,,,,
null,are shouting at each other,,html-keyboard-response,198,708356,0.0-15.0-2.1,47424,List2A,white,woman,,,,null,,,,
15357,,,survey-text,199,723715,0.0-15.0-3.1,47424,List2A,white,woman,,,,,"{""Q0"":""kate and mike are shouting at each other""}","<img src=""stim_listA/shout4.gif""</stim_listA>",are shouting at each other,
null,"<div style=""font-size:60px;"">+</div>",,html-keyboard-response,200,724218,0.0-15.0-0.2,47424,List2A,white,woman,,,,null,,,,
null,"<img src=""stim_listA/touch4.gif""</stim_listA>",,html-keyboard-response,201,726223,0.0-15.0-1.2,47424,List2A,white,woman,,,,null,,,,
null,are touching each other,,html-keyboard-response,202,728227,0.0-15.0-2.2,47424,List2A,white,woman,,,,null,,,,
4036,,,survey-text,203,732266,0.0-15.0-3.2,47424,List2A,white,woman,,,,,"{""Q0"":""beth and fred""}","<img src=""stim_listA/touch4.gif""</stim_listA>",are touching each other,
null,"<div style=""font-size:60px;"">+</div>",,html-keyboard-response,204,732768,0.0-15.0-0.3,47424,List2A,white,woman,,,,null,,,,
null,"<img src=""stim_listA/talk4.gif""</stim_listA>",,html-keyboard-response,205,734772,0.0-15.0-1.3,47424,List2A,white,woman,,,,null,,,,
null,are talking to each other,,html-keyboard-response,206,736774,0.0-15.0-2.3,47424,List2A,white,woman,,,,null,,,,
3775,,,survey-text,207,740551,0.0-15.0-3.3,47424,List2A,white,woman,,,,,"{""Q0"":""beth and mike""}","<img src=""stim_listA/talk4.gif""</stim_listA>",are talking to each other,
null,"<div style=""font-size:60px;"">+</div>",,html-keyboard-response,208,741058,0.0-15.0-0.4,47424,List2A,white,woman,,,,null,,,,
null,"<img src=""stim_listA/touch2.gif""</stim_listA>",,html-keyboard-response,209,743061,0.0-15.0-1.4,47424,List2A,white,woman,,,,null,,,,
null,are touching each other,,html-keyboard-response,210,745063,0.0-15.0-2.4,47424,List2A,white,woman,,,,null,,,,
5082,,,survey-text,211,750148,0.0-15.0-3.4,47424,List2A,white,woman,,,,,"{""Q0"":""luke and ruth""}","<img src=""stim_listA/touch2.gif""</stim_listA>",are touching each other,
null,"<div style=""font-size:60px;"">+</div>",,html-keyboard-response,212,750651,0.0-15.0-0.5,47424,List2A,white,woman,,,,null,,,,
null,"<img src=""stim_listA/touch1.gif""</stim_listA>",,html-keyboard-response,213,752656,0.0-15.0-1.5,47424,List2A,white,woman,,,,null,,,,
null,is touching,,html-keyboard-response,214,754659,0.0-15.0-2.5,47424,List2A,white,woman,,,,null,,,,
5106,,,survey-text,215,759767,0.0-15.0-3.5,47424,List2A,white,woman,,,,,"{""Q0"":""jane and dave""}","<img src=""stim_listA/touch1.gif""</stim_listA>",is touching,
null,"<div style=""font-size:60px;"">+</div>",,html-keyboard-response,216,760275,0.0-15.0-0.6,47424,List2A,white,woman,,,,null,,,,
null,"<img src=""stim_listA/shout2.gif""</stim_listA>",,html-keyboard-response,217,762278,0.0-15.0-1.6,47424,List2A,white,woman,,,,null,,,,
null,are shouting at each other,,html-keyboard-response,218,764280,0.0-15.0-2.6,47424,List2A,white,woman,,,,null,,,,
3543,,,survey-text,219,767826,0.0-15.0-3.6,47424,List2A,white,woman,,,,,"{""Q0"":""jane and dave""}","<img src=""stim_listA/shout2.gif""</stim_listA>",are shouting at each other,
null,"<div style=""font-size:60px;"">+</div>",,html-keyboard-response,220,768332,0.0-15.0-0.7,47424,List2A,white,woman,,,,null,,,,
null,"<img src=""stim_listA/meet5.gif""</stim_listA>",,html-keyboard-response,221,770336,0.0-15.0-1.7,47424,List2A,white,woman,,,,null,,,,
null,is meeting,,html-keyboard-response,222,772338,0.0-15.0-2.7,47424,List2A,white,woman,,,,null,,,,
4734,,,survey-text,223,777074,0.0-15.0-3.7,47424,List2A,white,woman,,,,,"{""Q0"":""dave and mike""}","<img src=""stim_listA/meet5.gif""</stim_listA>",is meeting,
null,"<div style=""font-size:60px;"">+</div>",,html-keyboard-response,224,777578,0.0-15.0-0.8,47424,List2A,white,woman,,,,null,,,,
null,"<img src=""stim_listA/hug8.gif""</stim_listA>",,html-keyboard-response,225,779582,0.0-15.0-1.8,47424,List2A,white,woman,,,,null,,,,
null,are hugging each other,,html-keyboard-response,226,781584,0.0-15.0-2.8,47424,List2A,white,woman,,,,null,,,,
6826,,,survey-text,227,788412,0.0-15.0-3.8,47424,List2A,white,woman,,,,,"{""Q0"":""jane and kate""}","<img src=""stim_listA/hug8.gif""</stim_listA>",are hugging each other,
null,"<div style=""font-size:60px;"">+</div>",,html-keyboard-response,228,788915,0.0-15.0-0.9,47424,List2A,white,woman,,,,null,,,,
null,"<img src=""stim_listA/hug6.gif""</stim_listA>",,html-keyboard-response,229,790918,0.0-15.0-1.9,47424,List2A,white,woman,,,,null,,,,
null,are hugging each other,,html-keyboard-response,230,792924,0.0-15.0-2.9,47424,List2A,white,woman,,,,null,,,,
6282,,,survey-text,231,799208,0.0-15.0-3.9,47424,List2A,white,woman,,,,,"{""Q0"":""mike and dave""}","<img src=""stim_listA/hug6.gif""</stim_listA>",are hugging each other,
null,"<div style=""font-size:60px;"">+</div>",,html-keyboard-response,232,799712,0.0-15.0-0.10,47424,List2A,white,woman,,,,null,,,,
null,"<img src=""stim_listA/meet7.gif""</stim_listA>",,html-keyboard-response,233,801716,0.0-15.0-1.10,47424,List2A,white,woman,,,,null,,,,
null,is meeting,,html-keyboard-response,234,803718,0.0-15.0-2.10,47424,List2A,white,woman,,,,null,,,,
12863,,,survey-text,235,816584,0.0-15.0-3.10,47424,List2A,white,woman,,,,,"{""Q0"":""msised it""}","<img src=""stim_listA/meet7.gif""</stim_listA>",is meeting,
null,"<div style=""font-size:60px;"">+</div>",,html-keyboard-response,236,817089,0.0-15.0-0.11,47424,List2A,white,woman,,,,null,,,,
null,"<img src=""stim_listA/touch8.gif""</stim_listA>",,html-keyboard-response,237,819093,0.0-15.0-1.11,47424,List2A,white,woman,,,,null,,,,
null,are touching each other,,html-keyboard-response,238,821096,0.0-15.0-2.11,47424,List2A,white,woman,,,,null,,,,
8584,,,survey-text,239,829683,0.0-15.0-3.11,47424,List2A,white,woman,,,,,"{""Q0"":""ruth and beth""}","<img src=""stim_listA/touch8.gif""</stim_listA>",are touching each other,
null,"<div style=""font-size:60px;"">+</div>",,html-keyboard-response,240,830187,0.0-15.0-0.12,47424,List2A,white,woman,,,,null,,,,
null,"<img src=""stim_listA/dance8.gif""</stim_listA>",,html-keyboard-response,241,832191,0.0-15.0-1.12,47424,List2A,white,woman,,,,null,,,,
null,are dancing with each other,,html-keyboard-response,242,834194,0.0-15.0-2.12,47424,List2A,white,woman,,,,null,,,,
5400,,,survey-text,243,839596,0.0-15.0-3.12,47424,List2A,white,woman,,,,,"{""Q0"":""beth and jane""}","<img src=""stim_listA/dance8.gif""</stim_listA>",are dancing with each other,
null,"<div style=""font-size:60px;"">+</div>",,html-keyboard-response,244,840101,0.0-15.0-0.13,47424,List2A,white,woman,,,,null,,,,
null,"<img src=""stim_listA/talk7.gif""</stim_listA>",,html-keyboard-response,245,842105,0.0-15.0-1.13,47424,List2A,white,woman,,,,null,,,,
null,is talking to,,html-keyboard-response,246,844108,0.0-15.0-2.13,47424,List2A,white,woman,,,,null,,,,
5767,,,survey-text,247,849877,0.0-15.0-3.13,47424,List2A,white,woman,,,,,"{""Q0"":""kate and jane""}","<img src=""stim_listA/talk7.gif""</stim_listA>",is talking to,
null,"<div style=""font-size:60px;"">+</div>",,html-keyboard-response,248,850381,0.0-15.0-0.14,47424,List2A,white,woman,,,,null,,,,
null,"<img src=""stim_listA/talk5.gif""</stim_listA>",,html-keyboard-response,249,852385,0.0-15.0-1.14,47424,List2A,white,woman,,,,null,,,,
null,is talking to,,html-keyboard-response,250,854387,0.0-15.0-2.14,47424,List2A,white,woman,,,,null,,,,
13233,,,survey-text,251,867623,0.0-15.0-3.14,47424,List2A,white,woman,,,,,"{""Q0"":""kate is talknig to beth""}","<img src=""stim_listA/talk5.gif""</stim_listA>",is talking to,
null,"<div style=""font-size:60px;"">+</div>",,html-keyboard-response,252,868127,0.0-15.0-0.15,47424,List2A,white,woman,,,,null,,,,
null,"<img src=""stim_listA/marry3.gif""</stim_listA>",,html-keyboard-response,253,870131,0.0-15.0-1.15,47424,List2A,white,woman,,,,null,,,,
null,is marrying,,html-keyboard-response,254,872134,0.0-15.0-2.15,47424,List2A,white,woman,,,,null,,,,
18601,,,survey-text,255,890737,0.0-15.0-3.15,47424,List2A,white,woman,,,,,"{""Q0"":""missed it""}","<img src=""stim_listA/marry3.gif""</stim_listA>",is marrying,
null,"<div style=""font-size:60px;"">+</div>",,html-keyboard-response,256,891240,0.0-15.0-0.16,47424,List2A,white,woman,,,,null,,,,
null,"<img src=""stim_listA/fight6.gif""</stim_listA>",,html-keyboard-response,257,893244,0.0-15.0-1.16,47424,List2A,white,woman,,,,null,,,,
null,are fighting each other,,html-keyboard-response,258,895247,0.0-15.0-2.16,47424,List2A,white,woman,,,,null,,,,
5160,,,survey-text,259,900412,0.0-15.0-3.16,47424,List2A,white,woman,,,,,"{""Q0"":""luke and fred""}","<img src=""stim_listA/fight6.gif""</stim_listA>",are fighting each other,
null,"<div style=""font-size:60px;"">+</div>",,html-keyboard-response,260,900915,0.0-15.0-0.17,47424,List2A,white,woman,,,,null,,,,
null,"<img src=""stim_listA/marry8.gif""</stim_listA>",,html-keyboard-response,261,902920,0.0-15.0-1.17,47424,List2A,white,woman,,,,null,,,,
null,are marrying each other,,html-keyboard-response,262,904924,0.0-15.0-2.17,47424,List2A,white,woman,,,,null,,,,
4335,,,survey-text,263,909261,0.0-15.0-3.17,47424,List2A,white,woman,,,,,"{""Q0"":""kate and ruth""}","<img src=""stim_listA/marry8.gif""</stim_listA>",are marrying each other,
null,"<div style=""font-size:60px;"">+</div>",,html-keyboard-response,264,909764,0.0-15.0-0.18,47424,List2A,white,woman,,,,null,,,,
null,"<img src=""stim_listA/meet3.gif""</stim_listA>",,html-keyboard-response,265,911768,0.0-15.0-1.18,47424,List2A,white,woman,,,,null,,,,
null,is meeting,,html-keyboard-response,266,913771,0.0-15.0-2.18,47424,List2A,white,woman,,,,null,,,,
6069,,,survey-text,267,919842,0.0-15.0-3.18,47424,List2A,white,woman,,,,,"{""Q0"":""kate and mike""}","<img src=""stim_listA/meet3.gif""</stim_listA>",is meeting,
null,"<div style=""font-size:60px;"">+</div>",,html-keyboard-response,268,920346,0.0-15.0-0.19,47424,List2A,white,woman,,,,null,,,,
null,"<img src=""stim_listA/hug7.gif""</stim_listA>",,html-keyboard-response,269,922349,0.0-15.0-1.19,47424,List2A,white,woman,,,,null,,,,
null,is hugging,,html-keyboard-response,270,924352,0.0-15.0-2.19,47424,List2A,white,woman,,,,null,,,,
4281,,,survey-text,271,928635,0.0-15.0-3.19,47424,List2A,white,woman,,,,,"{""Q0"":""missed it""}","<img src=""stim_listA/hug7.gif""</stim_listA>",is hugging,
11628,"<img src='img/portrait_matrix_list2.JPG' style='width:900px;height:500px;''></img><p>If you have memorised all the portraits and names and are ready to start, press Continue.</p><p><strong>Please note: Your memory of these faces will be tested 4 times during this experiment.</strong></p>",0,html-button-response,272,940268,0.0-16.0-0.0,47424,List2A,white,woman,,,,,,,,
1833,"<img src=""portrait/WM1.jpg""style=""width:400px;height:400px;""></img>",6,html-button-response,273,943107,0.0-16.0-1.0,47424,List2A,white,woman,,TRUE,6,,,,,
null,CORRECT,,html-keyboard-response,274,944612,0.0-16.0-2.0-0.0,47424,List2A,white,woman,,,,null,,,,
3990,"<img src=""portrait/BW1.jpg""style=""width:400px;height:400px;""></img>",0,html-button-response,275,948606,0.0-16.0-4.0,47424,List2A,white,woman,,TRUE,0,,,,,
null,CORRECT,,html-keyboard-response,276,950113,0.0-16.0-5.0-0.0,47424,List2A,white,woman,,,,null,,,,
2886,"<img src=""portrait/WW2.jpg""style=""width:400px;height:400px;""></img>",3,html-button-response,277,953003,0.0-16.0-7.0,47424,List2A,white,woman,,TRUE,3,,,,,
null,CORRECT,,html-keyboard-response,278,954510,0.0-16.0-8.0-0.0,47424,List2A,white,woman,,,,null,,,,
1511,"<img src=""portrait/BW2.jpg""style=""width:400px;height:400px;""></img>",2,html-button-response,279,956025,0.0-16.0-10.0,47424,List2A,white,woman,,TRUE,2,,,,,
null,CORRECT,,html-keyboard-response,280,957529,0.0-16.0-11.0-0.0,47424,List2A,white,woman,,,,null,,,,
1159,"<img src=""portrait/WW1.jpg""style=""width:400px;height:400px;""></img>",1,html-button-response,281,958691,0.0-16.0-13.0,47424,List2A,white,woman,,TRUE,1,,,,,
null,CORRECT,,html-keyboard-response,282,960197,0.0-16.0-14.0-0.0,47424,List2A,white,woman,,,,null,,,,
738,"<img src=""portrait/BM2.jpg""style=""width:400px;height:400px;""></img>",5,html-button-response,283,960937,0.0-16.0-16.0,47424,List2A,white,woman,,TRUE,5,,,,,
null,CORRECT,,html-keyboard-response,284,962446,0.0-16.0-17.0-0.0,47424,List2A,white,woman,,,,null,,,,
2430,"<img src=""portrait/WM2.jpg""style=""width:400px;height:400px;""></img>",7,html-button-response,285,964879,0.0-16.0-19.0,47424,List2A,white,woman,,TRUE,7,,,,,
null,CORRECT,,html-keyboard-response,286,966387,0.0-16.0-20.0-0.0,47424,List2A,white,woman,,,,null,,,,
813,"<img src=""portrait/BM1.jpg""style=""width:400px;height:400px;""></img>",4,html-button-response,287,967205,0.0-16.0-22.0,47424,List2A,white,woman,,TRUE,4,,,,,
null,CORRECT,,html-keyboard-response,288,968710,0.0-16.0-23.0-0.0,47424,List2A,white,woman,,,,null,,,,
1752,<p>You got 8 out of 8 right first time. Press Continue.</p>,0,html-button-response,289,970465,0.0-16.0-25.0,47424,List2A,white,woman,,,,,,,,
null,"<div style=""font-size:60px;"">+</div>",,html-keyboard-response,290,971971,0.0-17.0-0.0,47424,List2A,white,woman,,,,null,,,,
null,"<img src=""stim_listA/argue7.gif""</stim_listA>",,html-keyboard-response,291,973975,0.0-17.0-1.0,47424,List2A,white,woman,,,,null,,,,
null,is arguing with,,html-keyboard-response,292,975998,0.0-17.0-2.0,47424,List2A,white,woman,,,,null,,,,
5023,,,survey-text,293,981023,0.0-17.0-3.0,47424,List2A,white,woman,,,,,"{""Q0"":""beth and jane""}","<img src=""stim_listA/argue7.gif""</stim_listA>",is arguing with,
null,"<div style=""font-size:60px;"">+</div>",,html-keyboard-response,294,981527,0.0-17.0-0.1,47424,List2A,white,woman,,,,null,,,,
null,"<img src=""stim_listA/marry1.gif""</stim_listA>",,html-keyboard-response,295,983533,0.0-17.0-1.1,47424,List2A,white,woman,,,,null,,,,
null,is marrying,,html-keyboard-response,296,985536,0.0-17.0-2.1,47424,List2A,white,woman,,,,null,,,,
6900,,,survey-text,297,992438,0.0-17.0-3.1,47424,List2A,white,woman,,,,,"{""Q0"":""beth and dave""}","<img src=""stim_listA/marry1.gif""</stim_listA>",is marrying,
null,"<div style=""font-size:60px;"">+</div>",,html-keyboard-response,298,992941,0.0-17.0-0.2,47424,List2A,white,woman,,,,null,,,,
null,"<img src=""stim_listA/shout6.gif""</stim_listA>",,html-keyboard-response,299,994946,0.0-17.0-1.2,47424,List2A,white,woman,,,,null,,,,
null,are shouting at each other,,html-keyboard-response,300,996948,0.0-17.0-2.2,47424,List2A,white,woman,,,,null,,,,
121795,,,survey-text,301,1118745,0.0-17.0-3.2,47424,List2A,white,woman,,,,,"{""Q0"":""missed it""}","<img src=""stim_listA/shout6.gif""</stim_listA>",are shouting at each other,
null,"<div style=""font-size:60px;"">+</div>",,html-keyboard-response,302,1119248,0.0-17.0-0.3,47424,List2A,white,woman,,,,null,,,,
null,"<img src=""stim_listA/argue1.gif""</stim_listA>",,html-keyboard-response,303,1121253,0.0-17.0-1.3,47424,List2A,white,woman,,,,null,,,,
null,is arguing with,,html-keyboard-response,304,1123255,0.0-17.0-2.3,47424,List2A,white,woman,,,,null,,,,
11806,,,survey-text,305,1135063,0.0-17.0-3.3,47424,List2A,white,woman,,,,,"{""Q0"":""dave and ruth""}","<img src=""stim_listA/argue1.gif""</stim_listA>",is arguing with,
null,"<div style=""font-size:60px;"">+</div>",,html-keyboard-response,306,1135567,0.0-17.0-0.4,47424,List2A,white,woman,,,,null,,,,
null,"<img src=""stim_listA/fight1.gif""</stim_listA>",,html-keyboard-response,307,1137571,0.0-17.0-1.4,47424,List2A,white,woman,,,,null,,,,
null,is fighting,,html-keyboard-response,308,1139575,0.0-17.0-2.4,47424,List2A,white,woman,,,,null,,,,
9763,,,survey-text,309,1149342,0.0-17.0-3.4,47424,List2A,white,woman,,,,,"{""Q0"":""dave and jane""}","<img src=""stim_listA/fight1.gif""</stim_listA>",is fighting,
null,"<div style=""font-size:60px;"">+</div>",,html-keyboard-response,310,1149847,0.0-17.0-0.5,47424,List2A,white,woman,,,,null,,,,
null,"<img src=""stim_listA/fight8.gif""</stim_listA>",,html-keyboard-response,311,1151852,0.0-17.0-1.5,47424,List2A,white,woman,,,,null,,,,
null,are fighting each other,,html-keyboard-response,312,1153855,0.0-17.0-2.5,47424,List2A,white,woman,,,,null,,,,
10398,,,survey-text,313,1164256,0.0-17.0-3.5,47424,List2A,white,woman,,,,,"{""Q0"":""missed it""}","<img src=""stim_listA/fight8.gif""</stim_listA>",are fighting each other,
null,"<div style=""font-size:60px;"">+</div>",,html-keyboard-response,314,1164758,0.0-17.0-0.6,47424,List2A,white,woman,,,,null,,,,
null,"<img src=""stim_listA/marry6.gif""</stim_listA>",,html-keyboard-response,315,1166762,0.0-17.0-1.6,47424,List2A,white,woman,,,,null,,,,
null,are marrying each other,,html-keyboard-response,316,1168766,0.0-17.0-2.6,47424,List2A,white,woman,,,,null,,,,
3549,,,survey-text,317,1172320,0.0-17.0-3.6,47424,List2A,white,woman,,,,,"{""Q0"":""mike and luke""}","<img src=""stim_listA/marry6.gif""</stim_listA>",are marrying each other,
null,"<div style=""font-size:60px;"">+</div>",,html-keyboard-response,318,1172823,0.0-17.0-0.7,47424,List2A,white,woman,,,,null,,,,
null,"<img src=""stim_listA/talk3.gif""</stim_listA>",,html-keyboard-response,319,1174826,0.0-17.0-1.7,47424,List2A,white,woman,,,,null,,,,
null,is talking to,,html-keyboard-response,320,1176848,0.0-17.0-2.7,47424,List2A,white,woman,,,,null,,,,
9065,,,survey-text,321,1185916,0.0-17.0-3.7,47424,List2A,white,woman,,,,,"{""Q0"":""fred and kate""}","<img src=""stim_listA/talk3.gif""</stim_listA>",is talking to,
null,"<div style=""font-size:60px;"">+</div>",,html-keyboard-response,322,1186419,0.0-17.0-0.8,47424,List2A,white,woman,,,,null,,,,
null,"<img src=""stim_listA/fight5.gif""</stim_listA>",,html-keyboard-response,323,1188423,0.0-17.0-1.8,47424,List2A,white,woman,,,,null,,,,
null,is fighting,,html-keyboard-response,324,1190425,0.0-17.0-2.8,47424,List2A,white,woman,,,,null,,,,
10166,,,survey-text,325,1200593,0.0-17.0-3.8,47424,List2A,white,woman,,,,,"{""Q0"":""missed it""}","<img src=""stim_listA/fight5.gif""</stim_listA>",is fighting,
null,"<div style=""font-size:60px;"">+</div>",,html-keyboard-response,326,1201099,0.0-17.0-0.9,47424,List2A,white,woman,,,,null,,,,
null,"<img src=""stim_listA/hug4.gif""</stim_listA>",,html-keyboard-response,327,1203102,0.0-17.0-1.9,47424,List2A,white,woman,,,,null,,,,
null,are hugging each other,,html-keyboard-response,328,1205104,0.0-17.0-2.9,47424,List2A,white,woman,,,,null,,,,
188107,,,survey-text,329,1393214,0.0-17.0-3.9,47424,List2A,white,woman,,,,,"{""Q0"":""kate and mike""}","<img src=""stim_listA/hug4.gif""</stim_listA>",are hugging each other,
null,"<div style=""font-size:60px;"">+</div>",,html-keyboard-response,330,1393718,0.0-17.0-0.10,47424,List2A,white,woman,,,,null,,,,
null,"<img src=""stim_listA/shout3.gif""</stim_listA>",,html-keyboard-response,331,1395723,0.0-17.0-1.10,47424,List2A,white,woman,,,,null,,,,
null,is shouting at,,html-keyboard-response,332,1397726,0.0-17.0-2.10,47424,List2A,white,woman,,,,null,,,,
4971,,,survey-text,333,1402706,0.0-17.0-3.10,47424,List2A,white,woman,,,,,"{""Q0"":""beth and fred""}","<img src=""stim_listA/shout3.gif""</stim_listA>",is shouting at,
null,"<div style=""font-size:60px;"">+</div>",,html-keyboard-response,334,1403210,0.0-17.0-0.11,47424,List2A,white,woman,,,,null,,,,
null,"<img src=""stim_listA/kiss1.gif""</stim_listA>",,html-keyboard-response,335,1405214,0.0-17.0-1.11,47424,List2A,white,woman,,,,null,,,,
null,is kissing,,html-keyboard-response,336,1407218,0.0-17.0-2.11,47424,List2A,white,woman,,,,null,,,,
28803,,,survey-text,337,1436025,0.0-17.0-3.11,47424,List2A,white,woman,,,,,"{""Q0"":""luke and ruth""}","<img src=""stim_listA/kiss1.gif""</stim_listA>",is kissing,
null,"<div style=""font-size:60px;"">+</div>",,html-keyboard-response,338,1436531,0.0-17.0-0.12,47424,List2A,white,woman,,,,null,,,,
null,"<img src=""stim_listA/meet2.gif""</stim_listA>",,html-keyboard-response,339,1438535,0.0-17.0-1.12,47424,List2A,white,woman,,,,null,,,,
null,are meeting each other,,html-keyboard-response,340,1440537,0.0-17.0-2.12,47424,List2A,white,woman,,,,null,,,,
15117,,,survey-text,341,1455657,0.0-17.0-3.12,47424,List2A,white,woman,,,,,"{""Q0"":""missed it""}","<img src=""stim_listA/meet2.gif""</stim_listA>",are meeting each other,
null,"<div style=""font-size:60px;"">+</div>",,html-keyboard-response,342,1456161,0.0-17.0-0.13,47424,List2A,white,woman,,,,null,,,,
null,"<img src=""stim_listA/argue6.gif""</stim_listA>",,html-keyboard-response,343,1458165,0.0-17.0-1.13,47424,List2A,white,woman,,,,null,,,,
null,are arguing with each other,,html-keyboard-response,344,1460172,0.0-17.0-2.13,47424,List2A,white,woman,,,,null,,,,
3961,,,survey-text,345,1464136,0.0-17.0-3.13,47424,List2A,white,woman,,,,,"{""Q0"":""mike and luke""}","<img src=""stim_listA/argue6.gif""</stim_listA>",are arguing with each other,
null,"<div style=""font-size:60px;"">+</div>",,html-keyboard-response,346,1464639,0.0-17.0-0.14,47424,List2A,white,woman,,,,null,,,,
null,"<img src=""stim_listA/fight4.gif""</stim_listA>",,html-keyboard-response,347,1466643,0.0-17.0-1.14,47424,List2A,white,woman,,,,null,,,,
null,are fighting each other,,html-keyboard-response,348,1468644,0.0-17.0-2.14,47424,List2A,white,woman,,,,null,,,,
5436,,,survey-text,349,1474082,0.0-17.0-3.14,47424,List2A,white,woman,,,,,"{""Q0"":""beth and fred""}","<img src=""stim_listA/fight4.gif""</stim_listA>",are fighting each other,
null,"<div style=""font-size:60px;"">+</div>",,html-keyboard-response,350,1474585,0.0-17.0-0.15,47424,List2A,white,woman,,,,null,,,,
null,"<img src=""stim_listA/hug5.gif""</stim_listA>",,html-keyboard-response,351,1476590,0.0-17.0-1.15,47424,List2A,white,woman,,,,null,,,,
null,is hugging,,html-keyboard-response,352,1478593,0.0-17.0-2.15,47424,List2A,white,woman,,,,null,,,,
5067,,,survey-text,353,1483662,0.0-17.0-3.15,47424,List2A,white,woman,,,,,"{""Q0"":""luke is hugging fred""}","<img src=""stim_listA/hug5.gif""</stim_listA>",is hugging,
null,"<div style=""font-size:60px;"">+</div>",,html-keyboard-response,354,1484165,0.0-17.0-0.16,47424,List2A,white,woman,,,,null,,,,
null,"<img src=""stim_listA/dance1.gif""</stim_listA>",,html-keyboard-response,355,1486171,0.0-17.0-1.16,47424,List2A,white,woman,,,,null,,,,
null,is dancing with,,html-keyboard-response,356,1488174,0.0-17.0-2.16,47424,List2A,white,woman,,,,null,,,,
18094,,,survey-text,357,1506270,0.0-17.0-3.16,47424,List2A,white,woman,,,,,"{""Q0"":""luke is dancing with jane""}","<img src=""stim_listA/dance1.gif""</stim_listA>",is dancing with,
null,"<div style=""font-size:60px;"">+</div>",,html-keyboard-response,358,1506773,0.0-17.0-0.17,47424,List2A,white,woman,,,,null,,,,
null,"<img src=""stim_listA/touch3.gif""</stim_listA>",,html-keyboard-response,359,1508778,0.0-17.0-1.17,47424,List2A,white,woman,,,,null,,,,
null,is touching,,html-keyboard-response,360,1510781,0.0-17.0-2.17,47424,List2A,white,woman,,,,null,,,,
6585,,,survey-text,361,1517369,0.0-17.0-3.17,47424,List2A,white,woman,,,,,"{""Q0"":""kate and mike""}","<img src=""stim_listA/touch3.gif""</stim_listA>",is touching,
null,"<div style=""font-size:60px;"">+</div>",,html-keyboard-response,362,1517873,0.0-17.0-0.18,47424,List2A,white,woman,,,,null,,,,
null,"<img src=""stim_listA/kiss8.gif""</stim_listA>",,html-keyboard-response,363,1519878,0.0-17.0-1.18,47424,List2A,white,woman,,,,null,,,,
null,are kissing each other,,html-keyboard-response,364,1521880,0.0-17.0-2.18,47424,List2A,white,woman,,,,null,,,,
6629,,,survey-text,365,1528511,0.0-17.0-3.18,47424,List2A,white,woman,,,,,"{""Q0"":""kate and jane""}","<img src=""stim_listA/kiss8.gif""</stim_listA>",are kissing each other,
null,"<div style=""font-size:60px;"">+</div>",,html-keyboard-response,366,1529015,0.0-17.0-0.19,47424,List2A,white,woman,,,,null,,,,
null,"<img src=""stim_listA/kiss7.gif""</stim_listA>",,html-keyboard-response,367,1531019,0.0-17.0-1.19,47424,List2A,white,woman,,,,null,,,,
null,is kissing,,html-keyboard-response,368,1533022,0.0-17.0-2.19,47424,List2A,white,woman,,,,null,,,,
6264,,,survey-text,369,1539288,0.0-17.0-3.19,47424,List2A,white,woman,,,,,"{""Q0"":""ruth and beth""}","<img src=""stim_listA/kiss7.gif""</stim_listA>",is kissing,
8927,"<img src='img/portrait_matrix_list2.JPG' style='width:900px;height:500px;''></img><p>If you have memorised all the portraits and names and are ready to start, press Continue.</p><p><strong>Please note: Your memory of these faces will be tested 4 times during this experiment.</strong></p>",0,html-button-response,370,1548218,0.0-18.0-0.0,47424,List2A,white,woman,,,,,,,,
2194,"<img src=""portrait/BW1.jpg""style=""width:400px;height:400px;""></img>",2,html-button-response,371,1551420,0.0-18.0-1.0,47424,List2A,white,woman,,TRUE,0,,,,,
1273,"<img src=""portrait/BW1.jpg""style=""width:400px;height:400px;""></img>",0,html-button-response,372,1553702,0.0-18.0-3.0-0.0,47424,List2A,white,woman,,FALSE,0,,,,,
null,CORRECT,,html-keyboard-response,373,1555210,0.0-18.0-3.0-1.0-0.0,47424,List2A,white,woman,,,,null,,,,
2135,"<img src=""portrait/BM2.jpg""style=""width:400px;height:400px;""></img>",5,html-button-response,374,1557349,0.0-18.0-4.0,47424,List2A,white,woman,,TRUE,5,,,,,
null,CORRECT,,html-keyboard-response,375,1558854,0.0-18.0-5.0-0.0,47424,List2A,white,woman,,,,null,,,,
4725,"<img src=""portrait/WM1.jpg""style=""width:400px;height:400px;""></img>",6,html-button-response,376,1563583,0.0-18.0-7.0,47424,List2A,white,woman,,TRUE,6,,,,,
null,CORRECT,,html-keyboard-response,377,1565088,0.0-18.0-8.0-0.0,47424,List2A,white,woman,,,,null,,,,
5140,"<img src=""portrait/BW2.jpg""style=""width:400px;height:400px;""></img>",2,html-button-response,378,1570232,0.0-18.0-10.0,47424,List2A,white,woman,,TRUE,2,,,,,
null,CORRECT,,html-keyboard-response,379,1571739,0.0-18.0-11.0-0.0,47424,List2A,white,woman,,,,null,,,,
1789,"<img src=""portrait/BM1.jpg""style=""width:400px;height:400px;""></img>",4,html-button-response,380,1573532,0.0-18.0-13.0,47424,List2A,white,woman,,TRUE,4,,,,,
null,CORRECT,,html-keyboard-response,381,1575037,0.0-18.0-14.0-0.0,47424,List2A,white,woman,,,,null,,,,
3520,"<img src=""portrait/WW1.jpg""style=""width:400px;height:400px;""></img>",1,html-button-response,382,1578561,0.0-18.0-16.0,47424,List2A,white,woman,,TRUE,1,,,,,
null,CORRECT,,html-keyboard-response,383,1580066,0.0-18.0-17.0-0.0,47424,List2A,white,woman,,,,null,,,,
1500,"<img src=""portrait/WM2.jpg""style=""width:400px;height:400px;""></img>",7,html-button-response,384,1581570,0.0-18.0-19.0,47424,List2A,white,woman,,TRUE,7,,,,,
null,CORRECT,,html-keyboard-response,385,1583076,0.0-18.0-20.0-0.0,47424,List2A,white,woman,,,,null,,,,
3314,"<img src=""portrait/WW2.jpg""style=""width:400px;height:400px;""></img>",3,html-button-response,386,1586397,0.0-18.0-22.0,47424,List2A,white,woman,,TRUE,3,,,,,
null,CORRECT,,html-keyboard-response,387,1587901,0.0-18.0-23.0-0.0,47424,List2A,white,woman,,,,null,,,,
17056,<p>You got 7 out of 8 right first time. Press Continue.</p>,0,html-button-response,388,1604961,0.0-18.0-25.0,47424,List2A,white,woman,,,,,,,,
572,"As you did not score 100%, the memory game will repeat. Press Continue.",0,html-button-response,389,1606537,0.0-18.0-26.0-0.0,47424,List2A,white,woman,,,,,,,,
1480,"<img src='img/portrait_matrix_list2.JPG' style='width:900px;height:500px;''></img><p>If you have memorised all the portraits and names and are ready to start, press Continue.</p><p><strong>Please note: Your memory of these faces will be tested 4 times during this experiment.</strong></p>",0,html-button-response,390,1609024,0.0-18.1-0.1,47424,List2A,white,woman,,,,,,,,
3122,"<img src=""portrait/BW1.jpg""style=""width:400px;height:400px;""></img>",0,html-button-response,391,1613150,0.0-18.1-1.1,47424,List2A,white,woman,,TRUE,0,,,,,
null,CORRECT,,html-keyboard-response,392,1614658,0.0-18.1-2.1-0.1,47424,List2A,white,woman,,,,null,,,,
1636,"<img src=""portrait/BM2.jpg""style=""width:400px;height:400px;""></img>",5,html-button-response,393,1616298,0.0-18.1-4.1,47424,List2A,white,woman,,TRUE,5,,,,,
null,CORRECT,,html-keyboard-response,394,1617804,0.0-18.1-5.1-0.1,47424,List2A,white,woman,,,,null,,,,
1082,"<img src=""portrait/WM1.jpg""style=""width:400px;height:400px;""></img>",6,html-button-response,395,1618890,0.0-18.1-7.1,47424,List2A,white,woman,,TRUE,6,,,,,
null,CORRECT,,html-keyboard-response,396,1620394,0.0-18.1-8.1-0.1,47424,List2A,white,woman,,,,null,,,,
1402,"<img src=""portrait/BW2.jpg""style=""width:400px;height:400px;""></img>",2,html-button-response,397,1621801,0.0-18.1-10.1,47424,List2A,white,woman,,TRUE,2,,,,,
null,CORRECT,,html-keyboard-response,398,1623305,0.0-18.1-11.1-0.1,47424,List2A,white,woman,,,,null,,,,
1248,"<img src=""portrait/BM1.jpg""style=""width:400px;height:400px;""></img>",4,html-button-response,399,1624556,0.0-18.1-13.1,47424,List2A,white,woman,,TRUE,4,,,,,
null,CORRECT,,html-keyboard-response,400,1626062,0.0-18.1-14.1-0.1,47424,List2A,white,woman,,,,null,,,,
3760,"<img src=""portrait/WW1.jpg""style=""width:400px;height:400px;""></img>",1,html-button-response,401,1629827,0.0-18.1-16.1,47424,List2A,white,woman,,TRUE,1,,,,,
null,CORRECT,,html-keyboard-response,402,1631333,0.0-18.1-17.1-0.1,47424,List2A,white,woman,,,,null,,,,
1346,"<img src=""portrait/WM2.jpg""style=""width:400px;height:400px;""></img>",7,html-button-response,403,1632684,0.0-18.1-19.1,47424,List2A,white,woman,,TRUE,7,,,,,
null,CORRECT,,html-keyboard-response,404,1634187,0.0-18.1-20.1-0.1,47424,List2A,white,woman,,,,null,,,,
1246,"<img src=""portrait/WW2.jpg""style=""width:400px;height:400px;""></img>",3,html-button-response,405,1635437,0.0-18.1-22.1,47424,List2A,white,woman,,TRUE,3,,,,,
null,CORRECT,,html-keyboard-response,406,1636944,0.0-18.1-23.1-0.1,47424,List2A,white,woman,,,,null,,,,
1400,<p>You got 8 out of 8 right first time. Press Continue.</p>,0,html-button-response,407,1638349,0.0-18.1-25.1,47424,List2A,white,woman,,,,,,,,
null,"<div style=""font-size:60px;"">+</div>",,html-keyboard-response,408,1639856,0.0-19.0-0.0,47424,List2A,white,woman,,,,null,,,,
null,"<img src=""stim_listA/hug1.gif""</stim_listA>",,html-keyboard-response,409,1641861,0.0-19.0-1.0,47424,List2A,white,woman,,,,null,,,,
null,is hugging,,html-keyboard-response,410,1643862,0.0-19.0-2.0,47424,List2A,white,woman,,,,null,,,,
4299,,,survey-text,411,1648163,0.0-19.0-3.0,47424,List2A,white,woman,,,,,"{""Q0"":""luke and ruth""}","<img src=""stim_listA/hug1.gif""</stim_listA>",is hugging,
null,"<div style=""font-size:60px;"">+</div>",,html-keyboard-response,412,1648671,0.0-19.0-0.1,47424,List2A,white,woman,,,,null,,,,
null,"<img src=""stim_listA/meet8.gif""</stim_listA>",,html-keyboard-response,413,1650675,0.0-19.0-1.1,47424,List2A,white,woman,,,,null,,,,
null,are meeting each other,,html-keyboard-response,414,1652680,0.0-19.0-2.1,47424,List2A,white,woman,,,,null,,,,
8370,,,survey-text,415,1661051,0.0-19.0-3.1,47424,List2A,white,woman,,,,,"{""Q0"":""misssed it""}","<img src=""stim_listA/meet8.gif""</stim_listA>",are meeting each other,
null,"<div style=""font-size:60px;"">+</div>",,html-keyboard-response,416,1661555,0.0-19.0-0.2,47424,List2A,white,woman,,,,null,,,,
null,"<img src=""stim_listA/shout5.gif""</stim_listA>",,html-keyboard-response,417,1663559,0.0-19.0-1.2,47424,List2A,white,woman,,,,null,,,,
null,is shouting at,,html-keyboard-response,418,1665560,0.0-19.0-2.2,47424,List2A,white,woman,,,,null,,,,
7689,,,survey-text,419,1673252,0.0-19.0-3.2,47424,List2A,white,woman,,,,,"{""Q0"":""fred and luke""}","<img src=""stim_listA/shout5.gif""</stim_listA>",is shouting at,
null,"<div style=""font-size:60px;"">+</div>",,html-keyboard-response,420,1673759,0.0-19.0-0.3,47424,List2A,white,woman,,,,null,,,,
null,"<img src=""stim_listA/touch5.gif""</stim_listA>",,html-keyboard-response,421,1675763,0.0-19.0-1.3,47424,List2A,white,woman,,,,null,,,,
null,is touching,,html-keyboard-response,422,1677767,0.0-19.0-2.3,47424,List2A,white,woman,,,,null,,,,
7572,,,survey-text,423,1685341,0.0-19.0-3.3,47424,List2A,white,woman,,,,,"{""Q0"":""d""}","<img src=""stim_listA/touch5.gif""</stim_listA>",is touching,
null,"<div style=""font-size:60px;"">+</div>",,html-keyboard-response,424,1685843,0.0-19.0-0.4,47424,List2A,white,woman,,,,null,,,,
null,"<img src=""stim_listA/kiss4.gif""</stim_listA>",,html-keyboard-response,425,1687846,0.0-19.0-1.4,47424,List2A,white,woman,,,,null,,,,
null,are kissing each other,,html-keyboard-response,426,1689859,0.0-19.0-2.4,47424,List2A,white,woman,,,,null,,,,
17826,,,survey-text,427,1707688,0.0-19.0-3.4,47424,List2A,white,woman,,,,,"{""Q0"":""kate and mike""}","<img src=""stim_listA/kiss4.gif""</stim_listA>",are kissing each other,
null,"<div style=""font-size:60px;"">+</div>",,html-keyboard-response,428,1708192,0.0-19.0-0.5,47424,List2A,white,woman,,,,null,,,,
null,"<img src=""stim_listA/fight2.gif""</stim_listA>",,html-keyboard-response,429,1710196,0.0-19.0-1.5,47424,List2A,white,woman,,,,null,,,,
null,are fighting each other,,html-keyboard-response,430,1712199,0.0-19.0-2.5,47424,List2A,white,woman,,,,null,,,,
23876,,,survey-text,431,1736078,0.0-19.0-3.5,47424,List2A,white,woman,,,,,"{""Q0"":""m""}","<img src=""stim_listA/fight2.gif""</stim_listA>",are fighting each other,
null,"<div style=""font-size:60px;"">+</div>",,html-keyboard-response,432,1736581,0.0-19.0-0.6,47424,List2A,white,woman,,,,null,,,,
null,"<img src=""stim_listA/fight7.gif""</stim_listA>",,html-keyboard-response,433,1738586,0.0-19.0-1.6,47424,List2A,white,woman,,,,null,,,,
null,is fighting,,html-keyboard-response,434,1740589,0.0-19.0-2.6,47424,List2A,white,woman,,,,null,,,,
4441,,,survey-text,435,1745032,0.0-19.0-3.6,47424,List2A,white,woman,,,,,"{""Q0"":""kate and jane""}","<img src=""stim_listA/fight7.gif""</stim_listA>",is fighting,
null,"<div style=""font-size:60px;"">+</div>",,html-keyboard-response,436,1745534,0.0-19.0-0.7,47424,List2A,white,woman,,,,null,,,,
null,"<img src=""stim_listA/argue8.gif""</stim_listA>",,html-keyboard-response,437,1747538,0.0-19.0-1.7,47424,List2A,white,woman,,,,null,,,,
null,are arguing with each other,,html-keyboard-response,438,1749543,0.0-19.0-2.7,47424,List2A,white,woman,,,,null,,,,
7750,,,survey-text,439,1757295,0.0-19.0-3.7,47424,List2A,white,woman,,,,,"{""Q0"":""ruth and kate""}","<img src=""stim_listA/argue8.gif""</stim_listA>",are arguing with each other,
null,"<div style=""font-size:60px;"">+</div>",,html-keyboard-response,440,1757800,0.0-19.0-0.8,47424,List2A,white,woman,,,,null,,,,
null,"<img src=""stim_listA/kiss3.gif""</stim_listA>",,html-keyboard-response,441,1759804,0.0-19.0-1.8,47424,List2A,white,woman,,,,null,,,,
null,is kissing,,html-keyboard-response,442,1761806,0.0-19.0-2.8,47424,List2A,white,woman,,,,null,,,,
8921,,,survey-text,443,1770729,0.0-19.0-3.8,47424,List2A,white,woman,,,,,"{""Q0"":""beth and fred""}","<img src=""stim_listA/kiss3.gif""</stim_listA>",is kissing,
null,"<div style=""font-size:60px;"">+</div>",,html-keyboard-response,444,1771232,0.0-19.0-0.9,47424,List2A,white,woman,,,,null,,,,
null,"<img src=""stim_listA/talk6.gif""</stim_listA>",,html-keyboard-response,445,1773238,0.0-19.0-1.9,47424,List2A,white,woman,,,,null,,,,
null,are talking to each other,,html-keyboard-response,446,1775241,0.0-19.0-2.9,47424,List2A,white,woman,,,,null,,,,
3786,,,survey-text,447,1779030,0.0-19.0-3.9,47424,List2A,white,woman,,,,,"{""Q0"":""dave and fred""}","<img src=""stim_listA/talk6.gif""</stim_listA>",are talking to each other,
null,"<div style=""font-size:60px;"">+</div>",,html-keyboard-response,448,1779536,0.0-19.0-0.10,47424,List2A,white,woman,,,,null,,,,
null,"<img src=""stim_listA/talk2.gif""</stim_listA>",,html-keyboard-response,449,1781541,0.0-19.0-1.10,47424,List2A,white,woman,,,,null,,,,
null,are talking to each other,,html-keyboard-response,450,1783543,0.0-19.0-2.10,47424,List2A,white,woman,,,,null,,,,
3946,,,survey-text,451,1787491,0.0-19.0-3.10,47424,List2A,white,woman,,,,,"{""Q0"":""ruth and dave""}","<img src=""stim_listA/talk2.gif""</stim_listA>",are talking to each other,
null,"<div style=""font-size:60px;"">+</div>",,html-keyboard-response,452,1787994,0.0-19.0-0.11,47424,List2A,white,woman,,,,null,,,,
null,"<img src=""stim_listA/shout1.gif""</stim_listA>",,html-keyboard-response,453,1789997,0.0-19.0-1.11,47424,List2A,white,woman,,,,null,,,,
null,is shouting at,,html-keyboard-response,454,1792004,0.0-19.0-2.11,47424,List2A,white,woman,,,,null,,,,
3935,,,survey-text,455,1795942,0.0-19.0-3.11,47424,List2A,white,woman,,,,,"{""Q0"":""ruth and luke""}","<img src=""stim_listA/shout1.gif""</stim_listA>",is shouting at,
null,"<div style=""font-size:60px;"">+</div>",,html-keyboard-response,456,1796445,0.0-19.0-0.12,47424,List2A,white,woman,,,,null,,,,
null,"<img src=""stim_listA/marry2.gif""</stim_listA>",,html-keyboard-response,457,1798451,0.0-19.0-1.12,47424,List2A,white,woman,,,,null,,,,
null,are marrying each other,,html-keyboard-response,458,1800453,0.0-19.0-2.12,47424,List2A,white,woman,,,,null,,,,
3794,,,survey-text,459,1804249,0.0-19.0-3.12,47424,List2A,white,woman,,,,,"{""Q0"":""jane and luke""}","<img src=""stim_listA/marry2.gif""</stim_listA>",are marrying each other,
null,"<div style=""font-size:60px;"">+</div>",,html-keyboard-response,460,1804752,0.0-19.0-0.13,47424,List2A,white,woman,,,,null,,,,
null,"<img src=""stim_listA/hug3.gif""</stim_listA>",,html-keyboard-response,461,1806757,0.0-19.0-1.13,47424,List2A,white,woman,,,,null,,,,
null,is hugging,,html-keyboard-response,462,1808759,0.0-19.0-2.13,47424,List2A,white,woman,,,,null,,,,
4698,,,survey-text,463,1813464,0.0-19.0-3.13,47424,List2A,white,woman,,,,,"{""Q0"":""fred and beth""}","<img src=""stim_listA/hug3.gif""</stim_listA>",is hugging,
null,"<div style=""font-size:60px;"">+</div>",,html-keyboard-response,464,1813968,0.0-19.0-0.14,47424,List2A,white,woman,,,,null,,,,
null,"<img src=""stim_listA/dance4.gif""</stim_listA>",,html-keyboard-response,465,1815971,0.0-19.0-1.14,47424,List2A,white,woman,,,,null,,,,
null,are dancing with each other,,html-keyboard-response,466,1817974,0.0-19.0-2.14,47424,List2A,white,woman,,,,null,,,,
4857,,,survey-text,467,1822833,0.0-19.0-3.14,47424,List2A,white,woman,,,,,"{""Q0"":""beth adn mike""}","<img src=""stim_listA/dance4.gif""</stim_listA>",are dancing with each other,
null,"<div style=""font-size:60px;"">+</div>",,html-keyboard-response,468,1823336,0.0-19.0-0.15,47424,List2A,white,woman,,,,null,,,,
null,"<img src=""stim_listA/argue3.gif""</stim_listA>",,html-keyboard-response,469,1825340,0.0-19.0-1.15,47424,List2A,white,woman,,,,null,,,,
null,is arguing with,,html-keyboard-response,470,1827341,0.0-19.0-2.15,47424,List2A,white,woman,,,,null,,,,
3989,,,survey-text,471,1831334,0.0-19.0-3.15,47424,List2A,white,woman,,,,,"{""Q0"":""beth and mike""}","<img src=""stim_listA/argue3.gif""</stim_listA>",is arguing with,
null,"<div style=""font-size:60px;"">+</div>",,html-keyboard-response,472,1831836,0.0-19.0-0.16,47424,List2A,white,woman,,,,null,,,,
null,"<img src=""stim_listA/dance7.gif""</stim_listA>",,html-keyboard-response,473,1833840,0.0-19.0-1.16,47424,List2A,white,woman,,,,null,,,,
null,is dancing with,,html-keyboard-response,474,1835843,0.0-19.0-2.16,47424,List2A,white,woman,,,,null,,,,
11600,,,survey-text,475,1847445,0.0-19.0-3.16,47424,List2A,white,woman,,,,,"{""Q0"":""kate and jane""}","<img src=""stim_listA/dance7.gif""</stim_listA>",is dancing with,
null,"<div style=""font-size:60px;"">+</div>",,html-keyboard-response,476,1847948,0.0-19.0-0.17,47424,List2A,white,woman,,,,null,,,,
null,"<img src=""stim_listA/hug2.gif""</stim_listA>",,html-keyboard-response,477,1849952,0.0-19.0-1.17,47424,List2A,white,woman,,,,null,,,,
null,are hugging each other,,html-keyboard-response,478,1851955,0.0-19.0-2.17,47424,List2A,white,woman,,,,null,,,,
12102,,,survey-text,479,1864060,0.0-19.0-3.17,47424,List2A,white,woman,,,,,"{""Q0"":""jane and dave""}","<img src=""stim_listA/hug2.gif""</stim_listA>",are hugging each other,
null,"<div style=""font-size:60px;"">+</div>",,html-keyboard-response,480,1864563,0.0-19.0-0.18,47424,List2A,white,woman,,,,null,,,,
null,"<img src=""stim_listA/dance5.gif""</stim_listA>",,html-keyboard-response,481,1866568,0.0-19.0-1.18,47424,List2A,white,woman,,,,null,,,,
null,is dancing with,,html-keyboard-response,482,1868570,0.0-19.0-2.18,47424,List2A,white,woman,,,,null,,,,
3984,,,survey-text,483,1872557,0.0-19.0-3.18,47424,List2A,white,woman,,,,,"{""Q0"":""luke and mike""}","<img src=""stim_listA/dance5.gif""</stim_listA>",is dancing with,
null,"<div style=""font-size:60px;"">+</div>",,html-keyboard-response,484,1873060,0.0-19.0-0.19,47424,List2A,white,woman,,,,null,,,,
null,"<img src=""stim_listA/argue5.gif""</stim_listA>",,html-keyboard-response,485,1875064,0.0-19.0-1.19,47424,List2A,white,woman,,,,null,,,,
null,is arguing with,,html-keyboard-response,486,1877065,0.0-19.0-2.19,47424,List2A,white,woman,,,,null,,,,
3615,,,survey-text,487,1880682,0.0-19.0-3.19,47424,List2A,white,woman,,,,,"{""Q0"":""fred and dave""}","<img src=""stim_listA/argue5.gif""</stim_listA>",is arguing with,
2124,<p>Thank you for completing that task.</p><p>The final part of this session is a short questionnaire.</p><p>Press Continue.</p>,0,html-button-response,488,1882808,0.0-20.0,47424,List2A,white,woman,,,,,,,,
13635,,,survey-text,489,1897450,0.0-21.0,47424,List2A,white,woman,,,,,"{""Q0"":""21"",""Q1"":""english"",""Q2"":""english"",""Q3"":""England"",""Q4"":""white"",""Q5"":""woman""}",,,demographics
54417,,,survey-likert,490,1951880,0.0-22.0,47424,List2A,white,woman,,,,,"{""Q0"":2,""Q1"":1,""Q2"":2,""Q3"":6,""Q4"":1,""Q5"":6,""Q6"":3,""Q7"":2,""Q8"":"""",""Q9"":2,""Q10"":5,""Q11"":4,""Q12"":6,""Q13"":6}",,,likert_race
39324,,,survey-likert,491,1991228,0.0-23.0,47424,List2A,white,woman,,,,,"{""Q0"":6,""Q1"":6,""Q2"":6,""Q3"":6,""Q4"":6,""Q5"":6,""Q6"":2,""Q7"":6,""Q8"":6,""Q9"":2,""Q10"":5,""Q11"":4,""Q12"":5,""Q13"":6}",,,likert_gender
9913,,,survey-text,492,2001154,0.0-24.0,47424,List2A,white,woman,,,,,"{""Q0"":""ccc""}",,,worker_id
17417,,,external-html,493,2018705,0.0-25.0,47424,List2A,white,woman,debrief.html,,,,,,,
