rt,stimulus,button_pressed,trial_type,trial_index,time_elapsed,internal_node_id,subject,list,ppt_race,ppt_gender,url,first_guess,correct,key_press,responses,image_type,phrase_type,test_part
5534,Welcome to the experiment. Press Continue to begin.,0,html-button-response,0,5543,0.0-0.0,49193,List2A,white,man,,,,,,,,
17648,,,external-html,1,24250,0.0-1.0,49193,List2A,white,man,consent.html,,,,,,,
3607,"<p>On the next page, you will see portraits of 8 people and their names.</p><p>Your first task is to take a few minutes to memorise the names of these people.</p><p>You will have to recall their names during the rest of the experiment, so it is</p><p>essential that you try to memorise these people and their names as best as you can.</p><br><p><strong>You will then be tested on your memory of these names and portraits.</strong></p><br><p>The experiment will start after you have completed this memory test.</p><br><p>Ready?</p>",0,html-button-response,2,27861,0.0-2.0,49193,List2A,white,man,,,,,,,,
31088,"<img src='img/portrait_matrix_list2.JPG' style='width:900px;height:500px;''></img><p>If you have memorised all the portraits and names and are ready to start, press Continue.</p><p><strong>Please note: Your memory of these faces will be tested 4 times during this experiment.</strong></p>",0,html-button-response,3,59956,0.0-3.0-0.0,49193,List2A,white,man,,,,,,,,
4584,"<img src=""portrait/WM2.jpg""style=""width:400px;height:400px;""></img>",7,html-button-response,4,65546,0.0-3.0-1.0,49193,List2A,white,man,,TRUE,7,,,,,
null,CORRECT,,html-keyboard-response,5,67054,0.0-3.0-2.0-0.0,49193,List2A,white,man,,,,null,,,,
9378,"<img src=""portrait/BW2.jpg""style=""width:400px;height:400px;""></img>",0,html-button-response,6,76436,0.0-3.0-4.0,49193,List2A,white,man,,TRUE,2,,,,,
7437,"<img src=""portrait/BW2.jpg""style=""width:400px;height:400px;""></img>",2,html-button-response,7,84878,0.0-3.0-6.0-0.0,49193,List2A,white,man,,FALSE,2,,,,,
null,CORRECT,,html-keyboard-response,8,86381,0.0-3.0-6.0-1.0-0.0,49193,List2A,white,man,,,,null,,,,
4845,"<img src=""portrait/WM1.jpg""style=""width:400px;height:400px;""></img>",6,html-button-response,9,91231,0.0-3.0-7.0,49193,List2A,white,man,,TRUE,6,,,,,
null,CORRECT,,html-keyboard-response,10,92733,0.0-3.0-8.0-0.0,49193,List2A,white,man,,,,null,,,,
4438,"<img src=""portrait/BM1.jpg""style=""width:400px;height:400px;""></img>",4,html-button-response,11,97174,0.0-3.0-10.0,49193,List2A,white,man,,TRUE,4,,,,,
null,CORRECT,,html-keyboard-response,12,98675,0.0-3.0-11.0-0.0,49193,List2A,white,man,,,,null,,,,
1869,"<img src=""portrait/BM2.jpg""style=""width:400px;height:400px;""></img>",5,html-button-response,13,100546,0.0-3.0-13.0,49193,List2A,white,man,,TRUE,5,,,,,
null,CORRECT,,html-keyboard-response,14,102048,0.0-3.0-14.0-0.0,49193,List2A,white,man,,,,null,,,,
6526,"<img src=""portrait/WW2.jpg""style=""width:400px;height:400px;""></img>",3,html-button-response,15,108577,0.0-3.0-16.0,49193,List2A,white,man,,TRUE,3,,,,,
null,CORRECT,,html-keyboard-response,16,110079,0.0-3.0-17.0-0.0,49193,List2A,white,man,,,,null,,,,
6245,"<img src=""portrait/BW1.jpg""style=""width:400px;height:400px;""></img>",0,html-button-response,17,116327,0.0-3.0-19.0,49193,List2A,white,man,,TRUE,0,,,,,
null,CORRECT,,html-keyboard-response,18,117830,0.0-3.0-20.0-0.0,49193,List2A,white,man,,,,null,,,,
2731,"<img src=""portrait/WW1.jpg""style=""width:400px;height:400px;""></img>",1,html-button-response,19,120565,0.0-3.0-22.0,49193,List2A,white,man,,TRUE,1,,,,,
null,CORRECT,,html-keyboard-response,20,122067,0.0-3.0-23.0-0.0,49193,List2A,white,man,,,,null,,,,
2521,<p>You got 7 out of 8 right first time. Press Continue.</p>,0,html-button-response,21,124590,0.0-3.0-25.0,49193,List2A,white,man,,,,,,,,
2502,"As you did not score 100%, the memory game will repeat. Press Continue.",0,html-button-response,22,128094,0.0-3.0-26.0-0.0,49193,List2A,white,man,,,,,,,,
8553,"<img src='img/portrait_matrix_list2.JPG' style='width:900px;height:500px;''></img><p>If you have memorised all the portraits and names and are ready to start, press Continue.</p><p><strong>Please note: Your memory of these faces will be tested 4 times during this experiment.</strong></p>",0,html-button-response,23,137653,0.0-3.1-0.1,49193,List2A,white,man,,,,,,,,
2184,"<img src=""portrait/WM2.jpg""style=""width:400px;height:400px;""></img>",7,html-button-response,24,140842,0.0-3.1-1.1,49193,List2A,white,man,,TRUE,7,,,,,
null,CORRECT,,html-keyboard-response,25,142345,0.0-3.1-2.1-0.1,49193,List2A,white,man,,,,null,,,,
3346,"<img src=""portrait/BW2.jpg""style=""width:400px;height:400px;""></img>",2,html-button-response,26,145695,0.0-3.1-4.1,49193,List2A,white,man,,TRUE,2,,,,,
null,CORRECT,,html-keyboard-response,27,147197,0.0-3.1-5.1-0.1,49193,List2A,white,man,,,,null,,,,
2852,"<img src=""portrait/WM1.jpg""style=""width:400px;height:400px;""></img>",6,html-button-response,28,150052,0.0-3.1-7.1,49193,List2A,white,man,,TRUE,6,,,,,
null,CORRECT,,html-keyboard-response,29,151555,0.0-3.1-8.1-0.1,49193,List2A,white,man,,,,null,,,,
3807,"<img src=""portrait/BM1.jpg""style=""width:400px;height:400px;""></img>",4,html-button-response,30,155363,0.0-3.1-10.1,49193,List2A,white,man,,TRUE,4,,,,,
null,CORRECT,,html-keyboard-response,31,156867,0.0-3.1-11.1-0.1,49193,List2A,white,man,,,,null,,,,
1145,"<img src=""portrait/BM2.jpg""style=""width:400px;height:400px;""></img>",5,html-button-response,32,158015,0.0-3.1-13.1,49193,List2A,white,man,,TRUE,5,,,,,
null,CORRECT,,html-keyboard-response,33,159517,0.0-3.1-14.1-0.1,49193,List2A,white,man,,,,null,,,,
20629,"<img src=""portrait/WW2.jpg""style=""width:400px;height:400px;""></img>",0,html-button-response,34,180147,0.0-3.1-16.1,49193,List2A,white,man,,TRUE,3,,,,,
5424,"<img src=""portrait/WW2.jpg""style=""width:400px;height:400px;""></img>",3,html-button-response,35,186576,0.0-3.1-18.1-0.1,49193,List2A,white,man,,FALSE,3,,,,,
null,CORRECT,,html-keyboard-response,36,188080,0.0-3.1-18.1-1.1-0.1,49193,List2A,white,man,,,,null,,,,
5997,"<img src=""portrait/BW1.jpg""style=""width:400px;height:400px;""></img>",0,html-button-response,37,194079,0.0-3.1-19.1,49193,List2A,white,man,,TRUE,0,,,,,
null,CORRECT,,html-keyboard-response,38,195580,0.0-3.1-20.1-0.1,49193,List2A,white,man,,,,null,,,,
1519,"<img src=""portrait/WW1.jpg""style=""width:400px;height:400px;""></img>",1,html-button-response,39,197102,0.0-3.1-22.1,49193,List2A,white,man,,TRUE,1,,,,,
null,CORRECT,,html-keyboard-response,40,198604,0.0-3.1-23.1-0.1,49193,List2A,white,man,,,,null,,,,
1575,<p>You got 7 out of 8 right first time. Press Continue.</p>,0,html-button-response,41,200183,0.0-3.1-25.1,49193,List2A,white,man,,,,,,,,
1517,"As you did not score 100%, the memory game will repeat. Press Continue.",0,html-button-response,42,202705,0.0-3.1-26.1-0.1,49193,List2A,white,man,,,,,,,,
6132,"<img src='img/portrait_matrix_list2.JPG' style='width:900px;height:500px;''></img><p>If you have memorised all the portraits and names and are ready to start, press Continue.</p><p><strong>Please note: Your memory of these faces will be tested 4 times during this experiment.</strong></p>",0,html-button-response,43,209846,0.0-3.2-0.2,49193,List2A,white,man,,,,,,,,
3637,"<img src=""portrait/WM2.jpg""style=""width:400px;height:400px;""></img>",7,html-button-response,44,214486,0.0-3.2-1.2,49193,List2A,white,man,,TRUE,7,,,,,
null,CORRECT,,html-keyboard-response,45,215988,0.0-3.2-2.2-0.2,49193,List2A,white,man,,,,null,,,,
2444,"<img src=""portrait/BW2.jpg""style=""width:400px;height:400px;""></img>",2,html-button-response,46,218436,0.0-3.2-4.2,49193,List2A,white,man,,TRUE,2,,,,,
null,CORRECT,,html-keyboard-response,47,219939,0.0-3.2-5.2-0.2,49193,List2A,white,man,,,,null,,,,
3010,"<img src=""portrait/WM1.jpg""style=""width:400px;height:400px;""></img>",6,html-button-response,48,222954,0.0-3.2-7.2,49193,List2A,white,man,,TRUE,6,,,,,
null,CORRECT,,html-keyboard-response,49,224459,0.0-3.2-8.2-0.2,49193,List2A,white,man,,,,null,,,,
1847,"<img src=""portrait/BM1.jpg""style=""width:400px;height:400px;""></img>",4,html-button-response,50,226310,0.0-3.2-10.2,49193,List2A,white,man,,TRUE,4,,,,,
null,CORRECT,,html-keyboard-response,51,227812,0.0-3.2-11.2-0.2,49193,List2A,white,man,,,,null,,,,
1456,"<img src=""portrait/BM2.jpg""style=""width:400px;height:400px;""></img>",5,html-button-response,52,229272,0.0-3.2-13.2,49193,List2A,white,man,,TRUE,5,,,,,
null,CORRECT,,html-keyboard-response,53,230775,0.0-3.2-14.2-0.2,49193,List2A,white,man,,,,null,,,,
1960,"<img src=""portrait/WW2.jpg""style=""width:400px;height:400px;""></img>",3,html-button-response,54,232736,0.0-3.2-16.2,49193,List2A,white,man,,TRUE,3,,,,,
null,CORRECT,,html-keyboard-response,55,234238,0.0-3.2-17.2-0.2,49193,List2A,white,man,,,,null,,,,
2516,"<img src=""portrait/BW1.jpg""style=""width:400px;height:400px;""></img>",0,html-button-response,56,236756,0.0-3.2-19.2,49193,List2A,white,man,,TRUE,0,,,,,
null,CORRECT,,html-keyboard-response,57,238258,0.0-3.2-20.2-0.2,49193,List2A,white,man,,,,null,,,,
1730,"<img src=""portrait/WW1.jpg""style=""width:400px;height:400px;""></img>",1,html-button-response,58,239991,0.0-3.2-22.2,49193,List2A,white,man,,TRUE,1,,,,,
null,CORRECT,,html-keyboard-response,59,241494,0.0-3.2-23.2-0.2,49193,List2A,white,man,,,,null,,,,
1798,<p>You got 8 out of 8 right first time. Press Continue.</p>,0,html-button-response,60,243294,0.0-3.2-25.2,49193,List2A,white,man,,,,,,,,
40669,"<p>In this experiment, you will view photographs of the people from the memory game interacting.</p><p>By using the <strong>exact</strong> phrase given <i>after</i> the photograph appears and recalling the correct names of the people in the photographs, form a sentence describing the interaction. You do not need to capitalise names.</p><p>Type your answer in the space provided. Please complete every sentence before moving onto the next trial.</p><p>You will only have a few seconds to memorise each given photograph and phrase before you can respond, so try your best to focus.</p><p>An example is given below. Press 'Continue' when you are ready.</p><img src='img/speaking_example_v2.jpg' style='width:800px;height:460px;''></img>",0,html-button-response,61,284967,0.0-4.0,49193,List2A,white,man,,,,,,,,
2542,"<p>Before the experiment starts, you will watch two example trials. Press 'Continue'.</p>",0,html-button-response,62,288512,0.0-5.0,49193,List2A,white,man,,,,,,,,
null,<img src='img/speaking_WW.gif'></img>,,html-keyboard-response,63,291515,0.0-6.0,49193,List2A,white,man,,,,null,,,,
null,<p>is speaking to</p>,,html-keyboard-response,64,293518,0.0-7.0,49193,List2A,white,man,,,,null,,,,
3511,<p><b>Answer:</b> jane is speaking to ruth</p>,0,html-button-response,65,297032,0.0-8.0,49193,List2A,white,man,,,,,,,,
null,<img src='img/pointing_BM.gif'></img>,,html-keyboard-response,66,300036,0.0-9.0,49193,List2A,white,man,,,,null,,,,
null,<p>are pointing at each other</p>,,html-keyboard-response,67,302039,0.0-10.0,49193,List2A,white,man,,,,null,,,,
2549,<p><b>Answer:</b> fred and mike are pointing at each other</p>,0,html-button-response,68,304589,0.0-11.0,49193,List2A,white,man,,,,,,,,
18566,"<p>Ready to start the experiment?</p><br><p><strong>Remember to describe the picture using a full sentence,</strong></p><p><strong>that combines the names of the people with the given phrase.</strong></p><p><strong>If you do not do this correctly you will not be paid.</strong></p><p><strong> You do not need to capitalise names or use punctuation.</strong></p><br><p>Press 'Continue' to begin.</p>",0,html-button-response,69,324159,0.0-12.0,49193,List2A,white,man,,,,,,,,
null,"<div style=""font-size:60px;"">+</div>",,html-keyboard-response,70,325661,0.0-13.0-0.0,49193,List2A,white,man,,,,null,,,,
null,"<img src=""stim_listA/hug1.gif""</stim_listA>",,html-keyboard-response,71,327664,0.0-13.0-1.0,49193,List2A,white,man,,,,null,,,,
null,is hugging,,html-keyboard-response,72,329666,0.0-13.0-2.0,49193,List2A,white,man,,,,null,,,,
7791,,,survey-text,73,337460,0.0-13.0-3.0,49193,List2A,white,man,,,,,"{""Q0"":""Luke is hugging Ruth""}","<img src=""stim_listA/hug1.gif""</stim_listA>",is hugging,
null,"<div style=""font-size:60px;"">+</div>",,html-keyboard-response,74,337962,0.0-13.0-0.1,49193,List2A,white,man,,,,null,,,,
null,"<img src=""stim_listA/talk2.gif""</stim_listA>",,html-keyboard-response,75,339965,0.0-13.0-1.1,49193,List2A,white,man,,,,null,,,,
null,are talking to each other,,html-keyboard-response,76,341966,0.0-13.0-2.1,49193,List2A,white,man,,,,null,,,,
8434,,,survey-text,77,350402,0.0-13.0-3.1,49193,List2A,white,man,,,,,"{""Q0"":""Dave is talking to Ruth""}","<img src=""stim_listA/talk2.gif""</stim_listA>",are talking to each other,
null,"<div style=""font-size:60px;"">+</div>",,html-keyboard-response,78,350904,0.0-13.0-0.2,49193,List2A,white,man,,,,null,,,,
null,"<img src=""stim_listA/dance3.gif""</stim_listA>",,html-keyboard-response,79,352905,0.0-13.0-1.2,49193,List2A,white,man,,,,null,,,,
null,is dancing with,,html-keyboard-response,80,354906,0.0-13.0-2.2,49193,List2A,white,man,,,,null,,,,
10445,,,survey-text,81,365354,0.0-13.0-3.2,49193,List2A,white,man,,,,,"{""Q0"":""Fred is dancing with Kate""}","<img src=""stim_listA/dance3.gif""</stim_listA>",is dancing with,
null,"<div style=""font-size:60px;"">+</div>",,html-keyboard-response,82,365858,0.0-13.0-0.3,49193,List2A,white,man,,,,null,,,,
null,"<img src=""stim_listA/talk8.gif""</stim_listA>",,html-keyboard-response,83,367861,0.0-13.0-1.3,49193,List2A,white,man,,,,null,,,,
null,are talking to each other,,html-keyboard-response,84,369863,0.0-13.0-2.3,49193,List2A,white,man,,,,null,,,,
10526,,,survey-text,85,380392,0.0-13.0-3.3,49193,List2A,white,man,,,,,"{""Q0"":""Jane is talking to Beth""}","<img src=""stim_listA/talk8.gif""</stim_listA>",are talking to each other,
null,"<div style=""font-size:60px;"">+</div>",,html-keyboard-response,86,380895,0.0-13.0-0.4,49193,List2A,white,man,,,,null,,,,
null,"<img src=""stim_listA/argue2.gif""</stim_listA>",,html-keyboard-response,87,382897,0.0-13.0-1.4,49193,List2A,white,man,,,,null,,,,
null,are arguing with each other,,html-keyboard-response,88,384897,0.0-13.0-2.4,49193,List2A,white,man,,,,null,,,,
19909,,,survey-text,89,404807,0.0-13.0-3.4,49193,List2A,white,man,,,,,"{""Q0"":""Jane is arguing with Luke""}","<img src=""stim_listA/argue2.gif""</stim_listA>",are arguing with each other,
null,"<div style=""font-size:60px;"">+</div>",,html-keyboard-response,90,405311,0.0-13.0-0.5,49193,List2A,white,man,,,,null,,,,
null,"<img src=""stim_listA/kiss6.gif""</stim_listA>",,html-keyboard-response,91,407313,0.0-13.0-1.5,49193,List2A,white,man,,,,null,,,,
null,are kissing each other,,html-keyboard-response,92,409315,0.0-13.0-2.5,49193,List2A,white,man,,,,null,,,,
16119,,,survey-text,93,425436,0.0-13.0-3.5,49193,List2A,white,man,,,,,"{""Q0"":""Dave and Mike are kissing each other""}","<img src=""stim_listA/kiss6.gif""</stim_listA>",are kissing each other,
null,"<div style=""font-size:60px;"">+</div>",,html-keyboard-response,94,425940,0.0-13.0-0.6,49193,List2A,white,man,,,,null,,,,
null,"<img src=""stim_listA/talk4.gif""</stim_listA>",,html-keyboard-response,95,427943,0.0-13.0-1.6,49193,List2A,white,man,,,,null,,,,
null,are talking to each other,,html-keyboard-response,96,429943,0.0-13.0-2.6,49193,List2A,white,man,,,,null,,,,
8353,,,survey-text,97,438297,0.0-13.0-3.6,49193,List2A,white,man,,,,,"{""Q0"":""Beth and Mike are talking to each other""}","<img src=""stim_listA/talk4.gif""</stim_listA>",are talking to each other,
null,"<div style=""font-size:60px;"">+</div>",,html-keyboard-response,98,438800,0.0-13.0-0.7,49193,List2A,white,man,,,,null,,,,
null,"<img src=""stim_listA/marry1.gif""</stim_listA>",,html-keyboard-response,99,440801,0.0-13.0-1.7,49193,List2A,white,man,,,,null,,,,
null,is marrying,,html-keyboard-response,100,442801,0.0-13.0-2.7,49193,List2A,white,man,,,,null,,,,
12194,,,survey-text,101,454998,0.0-13.0-3.7,49193,List2A,white,man,,,,,"{""Q0"":""Ruth is marrying Dave""}","<img src=""stim_listA/marry1.gif""</stim_listA>",is marrying,
null,"<div style=""font-size:60px;"">+</div>",,html-keyboard-response,102,455501,0.0-13.0-0.8,49193,List2A,white,man,,,,null,,,,
null,"<img src=""stim_listA/fight1.gif""</stim_listA>",,html-keyboard-response,103,457502,0.0-13.0-1.8,49193,List2A,white,man,,,,null,,,,
null,is fighting,,html-keyboard-response,104,459503,0.0-13.0-2.8,49193,List2A,white,man,,,,null,,,,
7125,,,survey-text,105,466629,0.0-13.0-3.8,49193,List2A,white,man,,,,,"{""Q0"":""Jane is fighting Dave""}","<img src=""stim_listA/fight1.gif""</stim_listA>",is fighting,
null,"<div style=""font-size:60px;"">+</div>",,html-keyboard-response,106,467131,0.0-13.0-0.9,49193,List2A,white,man,,,,null,,,,
null,"<img src=""stim_listA/dance5.gif""</stim_listA>",,html-keyboard-response,107,469134,0.0-13.0-1.9,49193,List2A,white,man,,,,null,,,,
null,is dancing with,,html-keyboard-response,108,471135,0.0-13.0-2.9,49193,List2A,white,man,,,,null,,,,
9533,,,survey-text,109,480672,0.0-13.0-3.9,49193,List2A,white,man,,,,,"{""Q0"":""Luke is dancing with Mike""}","<img src=""stim_listA/dance5.gif""</stim_listA>",is dancing with,
null,"<div style=""font-size:60px;"">+</div>",,html-keyboard-response,110,481177,0.0-13.0-0.10,49193,List2A,white,man,,,,null,,,,
null,"<img src=""stim_listA/shout2.gif""</stim_listA>",,html-keyboard-response,111,483180,0.0-13.0-1.10,49193,List2A,white,man,,,,null,,,,
null,are shouting at each other,,html-keyboard-response,112,485181,0.0-13.0-2.10,49193,List2A,white,man,,,,null,,,,
9129,,,survey-text,113,494311,0.0-13.0-3.10,49193,List2A,white,man,,,,,"{""Q0"":""Jane and Dave are shouting at each other.""}","<img src=""stim_listA/shout2.gif""</stim_listA>",are shouting at each other,
null,"<div style=""font-size:60px;"">+</div>",,html-keyboard-response,114,494815,0.0-13.0-0.11,49193,List2A,white,man,,,,null,,,,
null,"<img src=""stim_listA/meet6.gif""</stim_listA>",,html-keyboard-response,115,496817,0.0-13.0-1.11,49193,List2A,white,man,,,,null,,,,
null,are meeting each other,,html-keyboard-response,116,498818,0.0-13.0-2.11,49193,List2A,white,man,,,,null,,,,
15821,,,survey-text,117,514642,0.0-13.0-3.11,49193,List2A,white,man,,,,,"{""Q0"":""Luke and Mike are shaking hands""}","<img src=""stim_listA/meet6.gif""</stim_listA>",are meeting each other,
null,"<div style=""font-size:60px;"">+</div>",,html-keyboard-response,118,515145,0.0-13.0-0.12,49193,List2A,white,man,,,,null,,,,
null,"<img src=""stim_listA/meet8.gif""</stim_listA>",,html-keyboard-response,119,517147,0.0-13.0-1.12,49193,List2A,white,man,,,,null,,,,
null,are meeting each other,,html-keyboard-response,120,519147,0.0-13.0-2.12,49193,List2A,white,man,,,,null,,,,
11204,,,survey-text,121,530354,0.0-13.0-3.12,49193,List2A,white,man,,,,,"{""Q0"":""Ruth and Beth are shaking hands""}","<img src=""stim_listA/meet8.gif""</stim_listA>",are meeting each other,
null,"<div style=""font-size:60px;"">+</div>",,html-keyboard-response,122,530857,0.0-13.0-0.13,49193,List2A,white,man,,,,null,,,,
null,"<img src=""stim_listA/argue6.gif""</stim_listA>",,html-keyboard-response,123,532861,0.0-13.0-1.13,49193,List2A,white,man,,,,null,,,,
null,are arguing with each other,,html-keyboard-response,124,534865,0.0-13.0-2.13,49193,List2A,white,man,,,,null,,,,
7628,,,survey-text,125,542495,0.0-13.0-3.13,49193,List2A,white,man,,,,,"{""Q0"":""Luke and Mike are arguing with each other""}","<img src=""stim_listA/argue6.gif""</stim_listA>",are arguing with each other,
null,"<div style=""font-size:60px;"">+</div>",,html-keyboard-response,126,542998,0.0-13.0-0.14,49193,List2A,white,man,,,,null,,,,
null,"<img src=""stim_listA/hug7.gif""</stim_listA>",,html-keyboard-response,127,544999,0.0-13.0-1.14,49193,List2A,white,man,,,,null,,,,
null,is hugging,,html-keyboard-response,128,546999,0.0-13.0-2.14,49193,List2A,white,man,,,,null,,,,
6614,,,survey-text,129,553616,0.0-13.0-3.14,49193,List2A,white,man,,,,,"{""Q0"":""Ruth is hugging Beth""}","<img src=""stim_listA/hug7.gif""</stim_listA>",is hugging,
null,"<div style=""font-size:60px;"">+</div>",,html-keyboard-response,130,554118,0.0-13.0-0.15,49193,List2A,white,man,,,,null,,,,
null,"<img src=""stim_listA/argue7.gif""</stim_listA>",,html-keyboard-response,131,556120,0.0-13.0-1.15,49193,List2A,white,man,,,,null,,,,
null,is arguing with,,html-keyboard-response,132,558120,0.0-13.0-2.15,49193,List2A,white,man,,,,null,,,,
5680,,,survey-text,133,563802,0.0-13.0-3.15,49193,List2A,white,man,,,,,"{""Q0"":""Jane is arguing with Beth""}","<img src=""stim_listA/argue7.gif""</stim_listA>",is arguing with,
null,"<div style=""font-size:60px;"">+</div>",,html-keyboard-response,134,564305,0.0-13.0-0.16,49193,List2A,white,man,,,,null,,,,
null,"<img src=""stim_listA/shout5.gif""</stim_listA>",,html-keyboard-response,135,566306,0.0-13.0-1.16,49193,List2A,white,man,,,,null,,,,
null,is shouting at,,html-keyboard-response,136,568306,0.0-13.0-2.16,49193,List2A,white,man,,,,null,,,,
6647,,,survey-text,137,574954,0.0-13.0-3.16,49193,List2A,white,man,,,,,"{""Q0"":""Luke is shouting at Fred""}","<img src=""stim_listA/shout5.gif""</stim_listA>",is shouting at,
null,"<div style=""font-size:60px;"">+</div>",,html-keyboard-response,138,575457,0.0-13.0-0.17,49193,List2A,white,man,,,,null,,,,
null,"<img src=""stim_listA/dance6.gif""</stim_listA>",,html-keyboard-response,139,577458,0.0-13.0-1.17,49193,List2A,white,man,,,,null,,,,
null,are dancing with each other,,html-keyboard-response,140,579459,0.0-13.0-2.17,49193,List2A,white,man,,,,null,,,,
11446,,,survey-text,141,590907,0.0-13.0-3.17,49193,List2A,white,man,,,,,"{""Q0"":""Dave and Fred are dancing with each other""}","<img src=""stim_listA/dance6.gif""</stim_listA>",are dancing with each other,
null,"<div style=""font-size:60px;"">+</div>",,html-keyboard-response,142,591410,0.0-13.0-0.18,49193,List2A,white,man,,,,null,,,,
null,"<img src=""stim_listA/argue1.gif""</stim_listA>",,html-keyboard-response,143,593413,0.0-13.0-1.18,49193,List2A,white,man,,,,null,,,,
null,is arguing with,,html-keyboard-response,144,595416,0.0-13.0-2.18,49193,List2A,white,man,,,,null,,,,
6296,,,survey-text,145,601713,0.0-13.0-3.18,49193,List2A,white,man,,,,,"{""Q0"":""Ruth is arguing with Dave""}","<img src=""stim_listA/argue1.gif""</stim_listA>",is arguing with,
null,"<div style=""font-size:60px;"">+</div>",,html-keyboard-response,146,602215,0.0-13.0-0.19,49193,List2A,white,man,,,,null,,,,
null,"<img src=""stim_listA/fight3.gif""</stim_listA>",,html-keyboard-response,147,604216,0.0-13.0-1.19,49193,List2A,white,man,,,,null,,,,
null,is fighting,,html-keyboard-response,148,606218,0.0-13.0-2.19,49193,List2A,white,man,,,,null,,,,
7426,,,survey-text,149,613646,0.0-13.0-3.19,49193,List2A,white,man,,,,,"{""Q0"":""Kate is fighting with Mike""}","<img src=""stim_listA/fight3.gif""</stim_listA>",is fighting,
9468,"<img src='img/portrait_matrix_list2.JPG' style='width:900px;height:500px;''></img><p>If you have memorised all the portraits and names and are ready to start, press Continue.</p><p><strong>Please note: Your memory of these faces will be tested 4 times during this experiment.</strong></p>",0,html-button-response,150,623118,0.0-14.0-0.0,49193,List2A,white,man,,,,,,,,
2781,"<img src=""portrait/BM1.jpg""style=""width:400px;height:400px;""></img>",4,html-button-response,151,626904,0.0-14.0-1.0,49193,List2A,white,man,,TRUE,4,,,,,
null,CORRECT,,html-keyboard-response,152,628407,0.0-14.0-2.0-0.0,49193,List2A,white,man,,,,null,,,,
1828,"<img src=""portrait/WW2.jpg""style=""width:400px;height:400px;""></img>",3,html-button-response,153,630237,0.0-14.0-4.0,49193,List2A,white,man,,TRUE,3,,,,,
null,CORRECT,,html-keyboard-response,154,631740,0.0-14.0-5.0-0.0,49193,List2A,white,man,,,,null,,,,
2451,"<img src=""portrait/BW2.jpg""style=""width:400px;height:400px;""></img>",2,html-button-response,155,634194,0.0-14.0-7.0,49193,List2A,white,man,,TRUE,2,,,,,
null,CORRECT,,html-keyboard-response,156,635697,0.0-14.0-8.0-0.0,49193,List2A,white,man,,,,null,,,,
1939,"<img src=""portrait/WW1.jpg""style=""width:400px;height:400px;""></img>",1,html-button-response,157,637640,0.0-14.0-10.0,49193,List2A,white,man,,TRUE,1,,,,,
null,CORRECT,,html-keyboard-response,158,639144,0.0-14.0-11.0-0.0,49193,List2A,white,man,,,,null,,,,
1444,"<img src=""portrait/BW1.jpg""style=""width:400px;height:400px;""></img>",0,html-button-response,159,640592,0.0-14.0-13.0,49193,List2A,white,man,,TRUE,0,,,,,
null,CORRECT,,html-keyboard-response,160,642094,0.0-14.0-14.0-0.0,49193,List2A,white,man,,,,null,,,,
2098,"<img src=""portrait/WM2.jpg""style=""width:400px;height:400px;""></img>",7,html-button-response,161,644198,0.0-14.0-16.0,49193,List2A,white,man,,TRUE,7,,,,,
null,CORRECT,,html-keyboard-response,162,645702,0.0-14.0-17.0-0.0,49193,List2A,white,man,,,,null,,,,
1205,"<img src=""portrait/WM1.jpg""style=""width:400px;height:400px;""></img>",6,html-button-response,163,646909,0.0-14.0-19.0,49193,List2A,white,man,,TRUE,6,,,,,
null,CORRECT,,html-keyboard-response,164,648410,0.0-14.0-20.0-0.0,49193,List2A,white,man,,,,null,,,,
1470,"<img src=""portrait/BM2.jpg""style=""width:400px;height:400px;""></img>",5,html-button-response,165,649883,0.0-14.0-22.0,49193,List2A,white,man,,TRUE,5,,,,,
null,CORRECT,,html-keyboard-response,166,651385,0.0-14.0-23.0-0.0,49193,List2A,white,man,,,,null,,,,
4523,<p>You got 8 out of 8 right first time. Press Continue.</p>,0,html-button-response,167,655910,0.0-14.0-25.0,49193,List2A,white,man,,,,,,,,
null,"<div style=""font-size:60px;"">+</div>",,html-keyboard-response,168,657416,0.0-15.0-0.0,49193,List2A,white,man,,,,null,,,,
null,"<img src=""stim_listA/meet5.gif""</stim_listA>",,html-keyboard-response,169,659418,0.0-15.0-1.0,49193,List2A,white,man,,,,null,,,,
null,is meeting,,html-keyboard-response,170,661418,0.0-15.0-2.0,49193,List2A,white,man,,,,null,,,,
7243,,,survey-text,171,668663,0.0-15.0-3.0,49193,List2A,white,man,,,,,"{""Q0"":""Mike is meeting Dave""}","<img src=""stim_listA/meet5.gif""</stim_listA>",is meeting,
null,"<div style=""font-size:60px;"">+</div>",,html-keyboard-response,172,669165,0.0-15.0-0.1,49193,List2A,white,man,,,,null,,,,
null,"<img src=""stim_listA/talk3.gif""</stim_listA>",,html-keyboard-response,173,671166,0.0-15.0-1.1,49193,List2A,white,man,,,,null,,,,
null,is talking to,,html-keyboard-response,174,673167,0.0-15.0-2.1,49193,List2A,white,man,,,,null,,,,
5699,,,survey-text,175,678867,0.0-15.0-3.1,49193,List2A,white,man,,,,,"{""Q0"":""Fred is talking to Kate""}","<img src=""stim_listA/talk3.gif""</stim_listA>",is talking to,
null,"<div style=""font-size:60px;"">+</div>",,html-keyboard-response,176,679369,0.0-15.0-0.2,49193,List2A,white,man,,,,null,,,,
null,"<img src=""stim_listA/marry6.gif""</stim_listA>",,html-keyboard-response,177,681370,0.0-15.0-1.2,49193,List2A,white,man,,,,null,,,,
null,are marrying each other,,html-keyboard-response,178,683371,0.0-15.0-2.2,49193,List2A,white,man,,,,null,,,,
9525,,,survey-text,179,692896,0.0-15.0-3.2,49193,List2A,white,man,,,,,"{""Q0"":""Luke and Mike are marrying each other""}","<img src=""stim_listA/marry6.gif""</stim_listA>",are marrying each other,
null,"<div style=""font-size:60px;"">+</div>",,html-keyboard-response,180,693399,0.0-15.0-0.3,49193,List2A,white,man,,,,null,,,,
null,"<img src=""stim_listA/kiss2.gif""</stim_listA>",,html-keyboard-response,181,695400,0.0-15.0-1.3,49193,List2A,white,man,,,,null,,,,
null,are kissing each other,,html-keyboard-response,182,697404,0.0-15.0-2.3,49193,List2A,white,man,,,,null,,,,
12213,,,survey-text,183,709620,0.0-15.0-3.3,49193,List2A,white,man,,,,,"{""Q0"":""Jane and Dave are kissing each other""}","<img src=""stim_listA/kiss2.gif""</stim_listA>",are kissing each other,
null,"<div style=""font-size:60px;"">+</div>",,html-keyboard-response,184,710125,0.0-15.0-0.4,49193,List2A,white,man,,,,null,,,,
null,"<img src=""stim_listA/talk5.gif""</stim_listA>",,html-keyboard-response,185,712128,0.0-15.0-1.4,49193,List2A,white,man,,,,null,,,,
null,is talking to,,html-keyboard-response,186,714130,0.0-15.0-2.4,49193,List2A,white,man,,,,null,,,,
5903,,,survey-text,187,720035,0.0-15.0-3.4,49193,List2A,white,man,,,,,"{""Q0"":""Luke is talking to Mike""}","<img src=""stim_listA/talk5.gif""</stim_listA>",is talking to,
null,"<div style=""font-size:60px;"">+</div>",,html-keyboard-response,188,720536,0.0-15.0-0.5,49193,List2A,white,man,,,,null,,,,
null,"<img src=""stim_listA/fight7.gif""</stim_listA>",,html-keyboard-response,189,722537,0.0-15.0-1.5,49193,List2A,white,man,,,,null,,,,
null,is fighting,,html-keyboard-response,190,724538,0.0-15.0-2.5,49193,List2A,white,man,,,,null,,,,
6854,,,survey-text,191,731392,0.0-15.0-3.5,49193,List2A,white,man,,,,,"{""Q0"":""Jane is fighting Kate""}","<img src=""stim_listA/fight7.gif""</stim_listA>",is fighting,
null,"<div style=""font-size:60px;"">+</div>",,html-keyboard-response,192,731896,0.0-15.0-0.6,49193,List2A,white,man,,,,null,,,,
null,"<img src=""stim_listA/kiss8.gif""</stim_listA>",,html-keyboard-response,193,733898,0.0-15.0-1.6,49193,List2A,white,man,,,,null,,,,
null,are kissing each other,,html-keyboard-response,194,735898,0.0-15.0-2.6,49193,List2A,white,man,,,,null,,,,
11575,,,survey-text,195,747475,0.0-15.0-3.6,49193,List2A,white,man,,,,,"{""Q0"":""Jane and Kate are kissing each other""}","<img src=""stim_listA/kiss8.gif""</stim_listA>",are kissing each other,
null,"<div style=""font-size:60px;"">+</div>",,html-keyboard-response,196,747976,0.0-15.0-0.7,49193,List2A,white,man,,,,null,,,,
null,"<img src=""stim_listA/shout6.gif""</stim_listA>",,html-keyboard-response,197,749978,0.0-15.0-1.7,49193,List2A,white,man,,,,null,,,,
null,are shouting at each other,,html-keyboard-response,198,751980,0.0-15.0-2.7,49193,List2A,white,man,,,,null,,,,
6765,,,survey-text,199,758746,0.0-15.0-3.7,49193,List2A,white,man,,,,,"{""Q0"":""Dave and Mike are shouting at each other""}","<img src=""stim_listA/shout6.gif""</stim_listA>",are shouting at each other,
null,"<div style=""font-size:60px;"">+</div>",,html-keyboard-response,200,759247,0.0-15.0-0.8,49193,List2A,white,man,,,,null,,,,
null,"<img src=""stim_listA/hug6.gif""</stim_listA>",,html-keyboard-response,201,761249,0.0-15.0-1.8,49193,List2A,white,man,,,,null,,,,
null,are hugging each other,,html-keyboard-response,202,763250,0.0-15.0-2.8,49193,List2A,white,man,,,,null,,,,
8163,,,survey-text,203,771414,0.0-15.0-3.8,49193,List2A,white,man,,,,,"{""Q0"":""Dave and Mike are hugging each other""}","<img src=""stim_listA/hug6.gif""</stim_listA>",are hugging each other,
null,"<div style=""font-size:60px;"">+</div>",,html-keyboard-response,204,771915,0.0-15.0-0.9,49193,List2A,white,man,,,,null,,,,
null,"<img src=""stim_listA/touch2.gif""</stim_listA>",,html-keyboard-response,205,773916,0.0-15.0-1.9,49193,List2A,white,man,,,,null,,,,
null,are touching each other,,html-keyboard-response,206,775917,0.0-15.0-2.9,49193,List2A,white,man,,,,null,,,,
19836,,,survey-text,207,795755,0.0-15.0-3.9,49193,List2A,white,man,,,,,"{""Q0"":""Ruth and Luke are high fiving each other""}","<img src=""stim_listA/touch2.gif""</stim_listA>",are touching each other,
null,"<div style=""font-size:60px;"">+</div>",,html-keyboard-response,208,796260,0.0-15.0-0.10,49193,List2A,white,man,,,,null,,,,
null,"<img src=""stim_listA/touch4.gif""</stim_listA>",,html-keyboard-response,209,798263,0.0-15.0-1.10,49193,List2A,white,man,,,,null,,,,
null,are touching each other,,html-keyboard-response,210,800266,0.0-15.0-2.10,49193,List2A,white,man,,,,null,,,,
9008,,,survey-text,211,809276,0.0-15.0-3.10,49193,List2A,white,man,,,,,"{""Q0"":""Beth and Fred are touching each other""}","<img src=""stim_listA/touch4.gif""</stim_listA>",are touching each other,
null,"<div style=""font-size:60px;"">+</div>",,html-keyboard-response,212,809778,0.0-15.0-0.11,49193,List2A,white,man,,,,null,,,,
null,"<img src=""stim_listA/fight8.gif""</stim_listA>",,html-keyboard-response,213,811778,0.0-15.0-1.11,49193,List2A,white,man,,,,null,,,,
null,are fighting each other,,html-keyboard-response,214,813780,0.0-15.0-2.11,49193,List2A,white,man,,,,null,,,,
8726,,,survey-text,215,822508,0.0-15.0-3.11,49193,List2A,white,man,,,,,"{""Q0"":""Beth and Ruth are fighting each other""}","<img src=""stim_listA/fight8.gif""</stim_listA>",are fighting each other,
null,"<div style=""font-size:60px;"">+</div>",,html-keyboard-response,216,823011,0.0-15.0-0.12,49193,List2A,white,man,,,,null,,,,
null,"<img src=""stim_listA/shout1.gif""</stim_listA>",,html-keyboard-response,217,825012,0.0-15.0-1.12,49193,List2A,white,man,,,,null,,,,
null,is shouting at,,html-keyboard-response,218,827014,0.0-15.0-2.12,49193,List2A,white,man,,,,null,,,,
5521,,,survey-text,219,832537,0.0-15.0-3.12,49193,List2A,white,man,,,,,"{""Q0"":""Luke is shouting at Ruth""}","<img src=""stim_listA/shout1.gif""</stim_listA>",is shouting at,
null,"<div style=""font-size:60px;"">+</div>",,html-keyboard-response,220,833039,0.0-15.0-0.13,49193,List2A,white,man,,,,null,,,,
null,"<img src=""stim_listA/marry7.gif""</stim_listA>",,html-keyboard-response,221,835041,0.0-15.0-1.13,49193,List2A,white,man,,,,null,,,,
null,is marrying,,html-keyboard-response,222,837041,0.0-15.0-2.13,49193,List2A,white,man,,,,null,,,,
14232,,,survey-text,223,851275,0.0-15.0-3.13,49193,List2A,white,man,,,,,"{""Q0"":""Jane is marrying Beth""}","<img src=""stim_listA/marry7.gif""</stim_listA>",is marrying,
null,"<div style=""font-size:60px;"">+</div>",,html-keyboard-response,224,851779,0.0-15.0-0.14,49193,List2A,white,man,,,,null,,,,
null,"<img src=""stim_listA/kiss7.gif""</stim_listA>",,html-keyboard-response,225,853784,0.0-15.0-1.14,49193,List2A,white,man,,,,null,,,,
null,is kissing,,html-keyboard-response,226,855785,0.0-15.0-2.14,49193,List2A,white,man,,,,null,,,,
4750,,,survey-text,227,860538,0.0-15.0-3.14,49193,List2A,white,man,,,,,"{""Q0"":""Beth is kissing Ruth""}","<img src=""stim_listA/kiss7.gif""</stim_listA>",is kissing,
null,"<div style=""font-size:60px;"">+</div>",,html-keyboard-response,228,861040,0.0-15.0-0.15,49193,List2A,white,man,,,,null,,,,
null,"<img src=""stim_listA/meet1.gif""</stim_listA>",,html-keyboard-response,229,863040,0.0-15.0-1.15,49193,List2A,white,man,,,,null,,,,
null,is meeting,,html-keyboard-response,230,865041,0.0-15.0-2.15,49193,List2A,white,man,,,,null,,,,
5631,,,survey-text,231,870675,0.0-15.0-3.15,49193,List2A,white,man,,,,,"{""Q0"":""Dave is meeting Jane""}","<img src=""stim_listA/meet1.gif""</stim_listA>",is meeting,
null,"<div style=""font-size:60px;"">+</div>",,html-keyboard-response,232,871176,0.0-15.0-0.16,49193,List2A,white,man,,,,null,,,,
null,"<img src=""stim_listA/hug4.gif""</stim_listA>",,html-keyboard-response,233,873178,0.0-15.0-1.16,49193,List2A,white,man,,,,null,,,,
null,are hugging each other,,html-keyboard-response,234,875180,0.0-15.0-2.16,49193,List2A,white,man,,,,null,,,,
6683,,,survey-text,235,881865,0.0-15.0-3.16,49193,List2A,white,man,,,,,"{""Q0"":""Kate and Mike are hugging each other""}","<img src=""stim_listA/hug4.gif""</stim_listA>",are hugging each other,
null,"<div style=""font-size:60px;"">+</div>",,html-keyboard-response,236,882366,0.0-15.0-0.17,49193,List2A,white,man,,,,null,,,,
null,"<img src=""stim_listA/meet2.gif""</stim_listA>",,html-keyboard-response,237,884368,0.0-15.0-1.17,49193,List2A,white,man,,,,null,,,,
null,are meeting each other,,html-keyboard-response,238,886369,0.0-15.0-2.17,49193,List2A,white,man,,,,null,,,,
23550,,,survey-text,239,909920,0.0-15.0-3.17,49193,List2A,white,man,,,,,"{""Q0"":""Luke and Ruth are shaking hands""}","<img src=""stim_listA/meet2.gif""</stim_listA>",are meeting each other,
null,"<div style=""font-size:60px;"">+</div>",,html-keyboard-response,240,910422,0.0-15.0-0.18,49193,List2A,white,man,,,,null,,,,
null,"<img src=""stim_listA/shout8.gif""</stim_listA>",,html-keyboard-response,241,912423,0.0-15.0-1.18,49193,List2A,white,man,,,,null,,,,
null,are shouting at each other,,html-keyboard-response,242,914424,0.0-15.0-2.18,49193,List2A,white,man,,,,null,,,,
7199,,,survey-text,243,921625,0.0-15.0-3.18,49193,List2A,white,man,,,,,"{""Q0"":""Jane and Kate are shouting at each other""}","<img src=""stim_listA/shout8.gif""</stim_listA>",are shouting at each other,
null,"<div style=""font-size:60px;"">+</div>",,html-keyboard-response,244,922128,0.0-15.0-0.19,49193,List2A,white,man,,,,null,,,,
null,"<img src=""stim_listA/dance2.gif""</stim_listA>",,html-keyboard-response,245,924133,0.0-15.0-1.19,49193,List2A,white,man,,,,null,,,,
null,are dancing with each other,,html-keyboard-response,246,926136,0.0-15.0-2.19,49193,List2A,white,man,,,,null,,,,
7661,,,survey-text,247,933799,0.0-15.0-3.19,49193,List2A,white,man,,,,,"{""Q0"":""Ruth and Dave are dancing with each other""}","<img src=""stim_listA/dance2.gif""</stim_listA>",are dancing with each other,
6788,"<img src='img/portrait_matrix_list2.JPG' style='width:900px;height:500px;''></img><p>If you have memorised all the portraits and names and are ready to start, press Continue.</p><p><strong>Please note: Your memory of these faces will be tested 4 times during this experiment.</strong></p>",0,html-button-response,248,940591,0.0-16.0-0.0,49193,List2A,white,man,,,,,,,,
2070,"<img src=""portrait/WW1.jpg""style=""width:400px;height:400px;""></img>",1,html-button-response,249,943665,0.0-16.0-1.0,49193,List2A,white,man,,TRUE,1,,,,,
null,CORRECT,,html-keyboard-response,250,945168,0.0-16.0-2.0-0.0,49193,List2A,white,man,,,,null,,,,
1970,"<img src=""portrait/BW2.jpg""style=""width:400px;height:400px;""></img>",2,html-button-response,251,947141,0.0-16.0-4.0,49193,List2A,white,man,,TRUE,2,,,,,
null,CORRECT,,html-keyboard-response,252,948645,0.0-16.0-5.0-0.0,49193,List2A,white,man,,,,null,,,,
1567,"<img src=""portrait/WM1.jpg""style=""width:400px;height:400px;""></img>",6,html-button-response,253,950214,0.0-16.0-7.0,49193,List2A,white,man,,TRUE,6,,,,,
null,CORRECT,,html-keyboard-response,254,951718,0.0-16.0-8.0-0.0,49193,List2A,white,man,,,,null,,,,
1329,"<img src=""portrait/WM2.jpg""style=""width:400px;height:400px;""></img>",7,html-button-response,255,953048,0.0-16.0-10.0,49193,List2A,white,man,,TRUE,7,,,,,
null,CORRECT,,html-keyboard-response,256,954550,0.0-16.0-11.0-0.0,49193,List2A,white,man,,,,null,,,,
1589,"<img src=""portrait/WW2.jpg""style=""width:400px;height:400px;""></img>",3,html-button-response,257,956142,0.0-16.0-13.0,49193,List2A,white,man,,TRUE,3,,,,,
null,CORRECT,,html-keyboard-response,258,957644,0.0-16.0-14.0-0.0,49193,List2A,white,man,,,,null,,,,
1701,"<img src=""portrait/BW1.jpg""style=""width:400px;height:400px;""></img>",0,html-button-response,259,959346,0.0-16.0-16.0,49193,List2A,white,man,,TRUE,0,,,,,
null,CORRECT,,html-keyboard-response,260,960847,0.0-16.0-17.0-0.0,49193,List2A,white,man,,,,null,,,,
1442,"<img src=""portrait/BM2.jpg""style=""width:400px;height:400px;""></img>",5,html-button-response,261,962291,0.0-16.0-19.0,49193,List2A,white,man,,TRUE,5,,,,,
null,CORRECT,,html-keyboard-response,262,963792,0.0-16.0-20.0-0.0,49193,List2A,white,man,,,,null,,,,
1160,"<img src=""portrait/BM1.jpg""style=""width:400px;height:400px;""></img>",4,html-button-response,263,964954,0.0-16.0-22.0,49193,List2A,white,man,,TRUE,4,,,,,
null,CORRECT,,html-keyboard-response,264,966456,0.0-16.0-23.0-0.0,49193,List2A,white,man,,,,null,,,,
1649,<p>You got 8 out of 8 right first time. Press Continue.</p>,0,html-button-response,265,968109,0.0-16.0-25.0,49193,List2A,white,man,,,,,,,,
null,"<div style=""font-size:60px;"">+</div>",,html-keyboard-response,266,969612,0.0-17.0-0.0,49193,List2A,white,man,,,,null,,,,
null,"<img src=""stim_listA/fight2.gif""</stim_listA>",,html-keyboard-response,267,971614,0.0-17.0-1.0,49193,List2A,white,man,,,,null,,,,
null,are fighting each other,,html-keyboard-response,268,973616,0.0-17.0-2.0,49193,List2A,white,man,,,,null,,,,
9822,,,survey-text,269,983440,0.0-17.0-3.0,49193,List2A,white,man,,,,,"{""Q0"":""Ruth and Luke are fighting each other""}","<img src=""stim_listA/fight2.gif""</stim_listA>",are fighting each other,
null,"<div style=""font-size:60px;"">+</div>",,html-keyboard-response,270,983946,0.0-17.0-0.1,49193,List2A,white,man,,,,null,,,,
null,"<img src=""stim_listA/hug3.gif""</stim_listA>",,html-keyboard-response,271,985949,0.0-17.0-1.1,49193,List2A,white,man,,,,null,,,,
null,is hugging,,html-keyboard-response,272,987952,0.0-17.0-2.1,49193,List2A,white,man,,,,null,,,,
5811,,,survey-text,273,993765,0.0-17.0-3.1,49193,List2A,white,man,,,,,"{""Q0"":""Beth is hugging Fred""}","<img src=""stim_listA/hug3.gif""</stim_listA>",is hugging,
null,"<div style=""font-size:60px;"">+</div>",,html-keyboard-response,274,994267,0.0-17.0-0.2,49193,List2A,white,man,,,,null,,,,
null,"<img src=""stim_listA/touch6.gif""</stim_listA>",,html-keyboard-response,275,996268,0.0-17.0-1.2,49193,List2A,white,man,,,,null,,,,
null,are touching each other,,html-keyboard-response,276,998269,0.0-17.0-2.2,49193,List2A,white,man,,,,null,,,,
9680,,,survey-text,277,1007951,0.0-17.0-3.2,49193,List2A,white,man,,,,,"{""Q0"":""Luke and Fred are touching each other""}","<img src=""stim_listA/touch6.gif""</stim_listA>",are touching each other,
null,"<div style=""font-size:60px;"">+</div>",,html-keyboard-response,278,1008452,0.0-17.0-0.3,49193,List2A,white,man,,,,null,,,,
null,"<img src=""stim_listA/fight5.gif""</stim_listA>",,html-keyboard-response,279,1010454,0.0-17.0-1.3,49193,List2A,white,man,,,,null,,,,
null,is fighting,,html-keyboard-response,280,1012457,0.0-17.0-2.3,49193,List2A,white,man,,,,null,,,,
4846,,,survey-text,281,1017304,0.0-17.0-3.3,49193,List2A,white,man,,,,,"{""Q0"":""Mike is fighting Dave""}","<img src=""stim_listA/fight5.gif""</stim_listA>",is fighting,
null,"<div style=""font-size:60px;"">+</div>",,html-keyboard-response,282,1017806,0.0-17.0-0.4,49193,List2A,white,man,,,,null,,,,
null,"<img src=""stim_listA/dance8.gif""</stim_listA>",,html-keyboard-response,283,1019808,0.0-17.0-1.4,49193,List2A,white,man,,,,null,,,,
null,are dancing with each other,,html-keyboard-response,284,1021810,0.0-17.0-2.4,49193,List2A,white,man,,,,null,,,,
8523,,,survey-text,285,1030335,0.0-17.0-3.4,49193,List2A,white,man,,,,,"{""Q0"":""Jane and Beth are dancing with each other""}","<img src=""stim_listA/dance8.gif""</stim_listA>",are dancing with each other,
null,"<div style=""font-size:60px;"">+</div>",,html-keyboard-response,286,1030836,0.0-17.0-0.5,49193,List2A,white,man,,,,null,,,,
null,"<img src=""stim_listA/dance7.gif""</stim_listA>",,html-keyboard-response,287,1032837,0.0-17.0-1.5,49193,List2A,white,man,,,,null,,,,
null,is dancing with,,html-keyboard-response,288,1034838,0.0-17.0-2.5,49193,List2A,white,man,,,,null,,,,
5150,,,survey-text,289,1039989,0.0-17.0-3.5,49193,List2A,white,man,,,,,"{""Q0"":""Kate is dancing with Ruth""}","<img src=""stim_listA/dance7.gif""</stim_listA>",is dancing with,
null,"<div style=""font-size:60px;"">+</div>",,html-keyboard-response,290,1040490,0.0-17.0-0.6,49193,List2A,white,man,,,,null,,,,
null,"<img src=""stim_listA/shout7.gif""</stim_listA>",,html-keyboard-response,291,1042492,0.0-17.0-1.6,49193,List2A,white,man,,,,null,,,,
null,is shouting at,,html-keyboard-response,292,1044492,0.0-17.0-2.6,49193,List2A,white,man,,,,null,,,,
8253,,,survey-text,293,1052747,0.0-17.0-3.6,49193,List2A,white,man,,,,,"{""Q0"":""Ruth is shouting at Beth""}","<img src=""stim_listA/shout7.gif""</stim_listA>",is shouting at,
null,"<div style=""font-size:60px;"">+</div>",,html-keyboard-response,294,1053248,0.0-17.0-0.7,49193,List2A,white,man,,,,null,,,,
null,"<img src=""stim_listA/argue5.gif""</stim_listA>",,html-keyboard-response,295,1055250,0.0-17.0-1.7,49193,List2A,white,man,,,,null,,,,
null,is arguing with,,html-keyboard-response,296,1057250,0.0-17.0-2.7,49193,List2A,white,man,,,,null,,,,
6958,,,survey-text,297,1064208,0.0-17.0-3.7,49193,List2A,white,man,,,,,"{""Q0"":""Dave is arguing with Fred""}","<img src=""stim_listA/argue5.gif""</stim_listA>",is arguing with,
null,"<div style=""font-size:60px;"">+</div>",,html-keyboard-response,298,1064710,0.0-17.0-0.8,49193,List2A,white,man,,,,null,,,,
null,"<img src=""stim_listA/hug2.gif""</stim_listA>",,html-keyboard-response,299,1066711,0.0-17.0-1.8,49193,List2A,white,man,,,,null,,,,
null,are hugging each other,,html-keyboard-response,300,1068712,0.0-17.0-2.8,49193,List2A,white,man,,,,null,,,,
7197,,,survey-text,301,1075910,0.0-17.0-3.8,49193,List2A,white,man,,,,,"{""Q0"":""Jane and Dave are hugging each other""}","<img src=""stim_listA/hug2.gif""</stim_listA>",are hugging each other,
null,"<div style=""font-size:60px;"">+</div>",,html-keyboard-response,302,1076412,0.0-17.0-0.9,49193,List2A,white,man,,,,null,,,,
null,"<img src=""stim_listA/kiss5.gif""</stim_listA>",,html-keyboard-response,303,1078412,0.0-17.0-1.9,49193,List2A,white,man,,,,null,,,,
null,is kissing,,html-keyboard-response,304,1080415,0.0-17.0-2.9,49193,List2A,white,man,,,,null,,,,
5249,,,survey-text,305,1085665,0.0-17.0-3.9,49193,List2A,white,man,,,,,"{""Q0"":""Fred is kissing Luke""}","<img src=""stim_listA/kiss5.gif""</stim_listA>",is kissing,
null,"<div style=""font-size:60px;"">+</div>",,html-keyboard-response,306,1086166,0.0-17.0-0.10,49193,List2A,white,man,,,,null,,,,
null,"<img src=""stim_listA/argue3.gif""</stim_listA>",,html-keyboard-response,307,1088168,0.0-17.0-1.10,49193,List2A,white,man,,,,null,,,,
null,is arguing with,,html-keyboard-response,308,1090169,0.0-17.0-2.10,49193,List2A,white,man,,,,null,,,,
5379,,,survey-text,309,1095549,0.0-17.0-3.10,49193,List2A,white,man,,,,,"{""Q0"":""Mike is arguing with Beth""}","<img src=""stim_listA/argue3.gif""</stim_listA>",is arguing with,
null,"<div style=""font-size:60px;"">+</div>",,html-keyboard-response,310,1096052,0.0-17.0-0.11,49193,List2A,white,man,,,,null,,,,
null,"<img src=""stim_listA/marry8.gif""</stim_listA>",,html-keyboard-response,311,1098053,0.0-17.0-1.11,49193,List2A,white,man,,,,null,,,,
null,are marrying each other,,html-keyboard-response,312,1100055,0.0-17.0-2.11,49193,List2A,white,man,,,,null,,,,
7366,,,survey-text,313,1107424,0.0-17.0-3.11,49193,List2A,white,man,,,,,"{""Q0"":""Kate and Ruth are marrying each other""}","<img src=""stim_listA/marry8.gif""</stim_listA>",are marrying each other,
null,"<div style=""font-size:60px;"">+</div>",,html-keyboard-response,314,1107931,0.0-17.0-0.12,49193,List2A,white,man,,,,null,,,,
null,"<img src=""stim_listA/dance1.gif""</stim_listA>",,html-keyboard-response,315,1109935,0.0-17.0-1.12,49193,List2A,white,man,,,,null,,,,
null,is dancing with,,html-keyboard-response,316,1111937,0.0-17.0-2.12,49193,List2A,white,man,,,,null,,,,
6545,,,survey-text,317,1118484,0.0-17.0-3.12,49193,List2A,white,man,,,,,"{""Q0"":""Jane is dancing with Luke""}","<img src=""stim_listA/dance1.gif""</stim_listA>",is dancing with,
null,"<div style=""font-size:60px;"">+</div>",,html-keyboard-response,318,1118986,0.0-17.0-0.13,49193,List2A,white,man,,,,null,,,,
null,"<img src=""stim_listA/touch3.gif""</stim_listA>",,html-keyboard-response,319,1120987,0.0-17.0-1.13,49193,List2A,white,man,,,,null,,,,
null,is touching,,html-keyboard-response,320,1122988,0.0-17.0-2.13,49193,List2A,white,man,,,,null,,,,
5322,,,survey-text,321,1128311,0.0-17.0-3.13,49193,List2A,white,man,,,,,"{""Q0"":""Kate is touching Mike""}","<img src=""stim_listA/touch3.gif""</stim_listA>",is touching,
null,"<div style=""font-size:60px;"">+</div>",,html-keyboard-response,322,1128814,0.0-17.0-0.14,49193,List2A,white,man,,,,null,,,,
null,"<img src=""stim_listA/touch5.gif""</stim_listA>",,html-keyboard-response,323,1130818,0.0-17.0-1.14,49193,List2A,white,man,,,,null,,,,
null,is touching,,html-keyboard-response,324,1132818,0.0-17.0-2.14,49193,List2A,white,man,,,,null,,,,
5489,,,survey-text,325,1138308,0.0-17.0-3.14,49193,List2A,white,man,,,,,"{""Q0"":""Dave is touching Mike""}","<img src=""stim_listA/touch5.gif""</stim_listA>",is touching,
null,"<div style=""font-size:60px;"">+</div>",,html-keyboard-response,326,1138809,0.0-17.0-0.15,49193,List2A,white,man,,,,null,,,,
null,"<img src=""stim_listA/talk6.gif""</stim_listA>",,html-keyboard-response,327,1140811,0.0-17.0-1.15,49193,List2A,white,man,,,,null,,,,
null,are talking to each other,,html-keyboard-response,328,1142811,0.0-17.0-2.15,49193,List2A,white,man,,,,null,,,,
6929,,,survey-text,329,1149740,0.0-17.0-3.15,49193,List2A,white,man,,,,,"{""Q0"":""Fred and Dave are talking to each other""}","<img src=""stim_listA/talk6.gif""</stim_listA>",are talking to each other,
null,"<div style=""font-size:60px;"">+</div>",,html-keyboard-response,330,1150243,0.0-17.0-0.16,49193,List2A,white,man,,,,null,,,,
null,"<img src=""stim_listA/argue4.gif""</stim_listA>",,html-keyboard-response,331,1152244,0.0-17.0-1.16,49193,List2A,white,man,,,,null,,,,
null,are arguing with each other,,html-keyboard-response,332,1154245,0.0-17.0-2.16,49193,List2A,white,man,,,,null,,,,
8083,,,survey-text,333,1162332,0.0-17.0-3.16,49193,List2A,white,man,,,,,"{""Q0"":""Kate and Fred are arguing with each other""}","<img src=""stim_listA/argue4.gif""</stim_listA>",are arguing with each other,
null,"<div style=""font-size:60px;"">+</div>",,html-keyboard-response,334,1162835,0.0-17.0-0.17,49193,List2A,white,man,,,,null,,,,
null,"<img src=""stim_listA/kiss4.gif""</stim_listA>",,html-keyboard-response,335,1164840,0.0-17.0-1.17,49193,List2A,white,man,,,,null,,,,
null,are kissing each other,,html-keyboard-response,336,1166842,0.0-17.0-2.17,49193,List2A,white,man,,,,null,,,,
7100,,,survey-text,337,1173945,0.0-17.0-3.17,49193,List2A,white,man,,,,,"{""Q0"":""Kate and Mike are kissing each other""}","<img src=""stim_listA/kiss4.gif""</stim_listA>",are kissing each other,
null,"<div style=""font-size:60px;"">+</div>",,html-keyboard-response,338,1174447,0.0-17.0-0.18,49193,List2A,white,man,,,,null,,,,
null,"<img src=""stim_listA/kiss3.gif""</stim_listA>",,html-keyboard-response,339,1176449,0.0-17.0-1.18,49193,List2A,white,man,,,,null,,,,
null,is kissing,,html-keyboard-response,340,1178449,0.0-17.0-2.18,49193,List2A,white,man,,,,null,,,,
5167,,,survey-text,341,1183619,0.0-17.0-3.18,49193,List2A,white,man,,,,,"{""Q0"":""Beth is kissing Fred""}","<img src=""stim_listA/kiss3.gif""</stim_listA>",is kissing,
null,"<div style=""font-size:60px;"">+</div>",,html-keyboard-response,342,1184121,0.0-17.0-0.19,49193,List2A,white,man,,,,null,,,,
null,"<img src=""stim_listA/touch1.gif""</stim_listA>",,html-keyboard-response,343,1186122,0.0-17.0-1.19,49193,List2A,white,man,,,,null,,,,
null,is touching,,html-keyboard-response,344,1188124,0.0-17.0-2.19,49193,List2A,white,man,,,,null,,,,
10643,,,survey-text,345,1198770,0.0-17.0-3.19,49193,List2A,white,man,,,,,"{""Q0"":""Dave is touching Jane""}","<img src=""stim_listA/touch1.gif""</stim_listA>",is touching,
2942,"<img src='img/portrait_matrix_list2.JPG' style='width:900px;height:500px;''></img><p>If you have memorised all the portraits and names and are ready to start, press Continue.</p><p><strong>Please note: Your memory of these faces will be tested 4 times during this experiment.</strong></p>",0,html-button-response,346,1201715,0.0-18.0-0.0,49193,List2A,white,man,,,,,,,,
1465,"<img src=""portrait/BM2.jpg""style=""width:400px;height:400px;""></img>",5,html-button-response,347,1204185,0.0-18.0-1.0,49193,List2A,white,man,,TRUE,5,,,,,
null,CORRECT,,html-keyboard-response,348,1205688,0.0-18.0-2.0-0.0,49193,List2A,white,man,,,,null,,,,
1397,"<img src=""portrait/WW2.jpg""style=""width:400px;height:400px;""></img>",3,html-button-response,349,1207088,0.0-18.0-4.0,49193,List2A,white,man,,TRUE,3,,,,,
null,CORRECT,,html-keyboard-response,350,1208592,0.0-18.0-5.0-0.0,49193,List2A,white,man,,,,null,,,,
1518,"<img src=""portrait/BW2.jpg""style=""width:400px;height:400px;""></img>",2,html-button-response,351,1210113,0.0-18.0-7.0,49193,List2A,white,man,,TRUE,2,,,,,
null,CORRECT,,html-keyboard-response,352,1211614,0.0-18.0-8.0-0.0,49193,List2A,white,man,,,,null,,,,
3458,"<img src=""portrait/BM1.jpg""style=""width:400px;height:400px;""></img>",4,html-button-response,353,1215074,0.0-18.0-10.0,49193,List2A,white,man,,TRUE,4,,,,,
null,CORRECT,,html-keyboard-response,354,1216578,0.0-18.0-11.0-0.0,49193,List2A,white,man,,,,null,,,,
2626,"<img src=""portrait/WW1.jpg""style=""width:400px;height:400px;""></img>",1,html-button-response,355,1219205,0.0-18.0-13.0,49193,List2A,white,man,,TRUE,1,,,,,
null,CORRECT,,html-keyboard-response,356,1220708,0.0-18.0-14.0-0.0,49193,List2A,white,man,,,,null,,,,
1899,"<img src=""portrait/WM2.jpg""style=""width:400px;height:400px;""></img>",7,html-button-response,357,1222611,0.0-18.0-16.0,49193,List2A,white,man,,TRUE,7,,,,,
null,CORRECT,,html-keyboard-response,358,1224113,0.0-18.0-17.0-0.0,49193,List2A,white,man,,,,null,,,,
2345,"<img src=""portrait/BW1.jpg""style=""width:400px;height:400px;""></img>",0,html-button-response,359,1226460,0.0-18.0-19.0,49193,List2A,white,man,,TRUE,0,,,,,
null,CORRECT,,html-keyboard-response,360,1227962,0.0-18.0-20.0-0.0,49193,List2A,white,man,,,,null,,,,
2021,"<img src=""portrait/WM1.jpg""style=""width:400px;height:400px;""></img>",6,html-button-response,361,1229986,0.0-18.0-22.0,49193,List2A,white,man,,TRUE,6,,,,,
null,CORRECT,,html-keyboard-response,362,1231488,0.0-18.0-23.0-0.0,49193,List2A,white,man,,,,null,,,,
1406,<p>You got 8 out of 8 right first time. Press Continue.</p>,0,html-button-response,363,1232898,0.0-18.0-25.0,49193,List2A,white,man,,,,,,,,
null,"<div style=""font-size:60px;"">+</div>",,html-keyboard-response,364,1234403,0.0-19.0-0.0,49193,List2A,white,man,,,,null,,,,
null,"<img src=""stim_listA/talk1.gif""</stim_listA>",,html-keyboard-response,365,1236405,0.0-19.0-1.0,49193,List2A,white,man,,,,null,,,,
null,is talking to,,html-keyboard-response,366,1238406,0.0-19.0-2.0,49193,List2A,white,man,,,,null,,,,
5462,,,survey-text,367,1243869,0.0-19.0-3.0,49193,List2A,white,man,,,,,"{""Q0"":""Luke is talking to Jane""}","<img src=""stim_listA/talk1.gif""</stim_listA>",is talking to,
null,"<div style=""font-size:60px;"">+</div>",,html-keyboard-response,368,1244370,0.0-19.0-0.1,49193,List2A,white,man,,,,null,,,,
null,"<img src=""stim_listA/fight6.gif""</stim_listA>",,html-keyboard-response,369,1246371,0.0-19.0-1.1,49193,List2A,white,man,,,,null,,,,
null,are fighting each other,,html-keyboard-response,370,1248372,0.0-19.0-2.1,49193,List2A,white,man,,,,null,,,,
7068,,,survey-text,371,1255442,0.0-19.0-3.1,49193,List2A,white,man,,,,,"{""Q0"":""Luke and Fred are fighting each other""}","<img src=""stim_listA/fight6.gif""</stim_listA>",are fighting each other,
null,"<div style=""font-size:60px;"">+</div>",,html-keyboard-response,372,1255944,0.0-19.0-0.2,49193,List2A,white,man,,,,null,,,,
null,"<img src=""stim_listA/hug8.gif""</stim_listA>",,html-keyboard-response,373,1257946,0.0-19.0-1.2,49193,List2A,white,man,,,,null,,,,
null,are hugging each other,,html-keyboard-response,374,1259947,0.0-19.0-2.2,49193,List2A,white,man,,,,null,,,,
7214,,,survey-text,375,1267164,0.0-19.0-3.2,49193,List2A,white,man,,,,,"{""Q0"":""Jane and Kate are hugging each other""}","<img src=""stim_listA/hug8.gif""</stim_listA>",are hugging each other,
null,"<div style=""font-size:60px;"">+</div>",,html-keyboard-response,376,1267666,0.0-19.0-0.3,49193,List2A,white,man,,,,null,,,,
null,"<img src=""stim_listA/dance4.gif""</stim_listA>",,html-keyboard-response,377,1269668,0.0-19.0-1.3,49193,List2A,white,man,,,,null,,,,
null,are dancing with each other,,html-keyboard-response,378,1271669,0.0-19.0-2.3,49193,List2A,white,man,,,,null,,,,
11218,,,survey-text,379,1282887,0.0-19.0-3.3,49193,List2A,white,man,,,,,"{""Q0"":""Beth and Mike are dancing with each other""}","<img src=""stim_listA/dance4.gif""</stim_listA>",are dancing with each other,
null,"<div style=""font-size:60px;"">+</div>",,html-keyboard-response,380,1283389,0.0-19.0-0.4,49193,List2A,white,man,,,,null,,,,
null,"<img src=""stim_listA/touch7.gif""</stim_listA>",,html-keyboard-response,381,1285391,0.0-19.0-1.4,49193,List2A,white,man,,,,null,,,,
null,is touching,,html-keyboard-response,382,1287392,0.0-19.0-2.4,49193,List2A,white,man,,,,null,,,,
4731,,,survey-text,383,1292125,0.0-19.0-3.4,49193,List2A,white,man,,,,,"{""Q0"":""Kate is touching Jane""}","<img src=""stim_listA/touch7.gif""</stim_listA>",is touching,
null,"<div style=""font-size:60px;"">+</div>",,html-keyboard-response,384,1292629,0.0-19.0-0.5,49193,List2A,white,man,,,,null,,,,
null,"<img src=""stim_listA/marry5.gif""</stim_listA>",,html-keyboard-response,385,1294633,0.0-19.0-1.5,49193,List2A,white,man,,,,null,,,,
null,is marrying,,html-keyboard-response,386,1296635,0.0-19.0-2.5,49193,List2A,white,man,,,,null,,,,
6857,,,survey-text,387,1303494,0.0-19.0-3.5,49193,List2A,white,man,,,,,"{""Q0"":""Dave is marrying Fred""}","<img src=""stim_listA/marry5.gif""</stim_listA>",is marrying,
null,"<div style=""font-size:60px;"">+</div>",,html-keyboard-response,388,1303996,0.0-19.0-0.6,49193,List2A,white,man,,,,null,,,,
null,"<img src=""stim_listA/shout3.gif""</stim_listA>",,html-keyboard-response,389,1305998,0.0-19.0-1.6,49193,List2A,white,man,,,,null,,,,
null,is shouting at,,html-keyboard-response,390,1307999,0.0-19.0-2.6,49193,List2A,white,man,,,,null,,,,
7087,,,survey-text,391,1315087,0.0-19.0-3.6,49193,List2A,white,man,,,,,"{""Q0"":""Fred is shouting at Beth""}","<img src=""stim_listA/shout3.gif""</stim_listA>",is shouting at,
null,"<div style=""font-size:60px;"">+</div>",,html-keyboard-response,392,1315589,0.0-19.0-0.7,49193,List2A,white,man,,,,null,,,,
null,"<img src=""stim_listA/shout4.gif""</stim_listA>",,html-keyboard-response,393,1317591,0.0-19.0-1.7,49193,List2A,white,man,,,,null,,,,
null,are shouting at each other,,html-keyboard-response,394,1319592,0.0-19.0-2.7,49193,List2A,white,man,,,,null,,,,
7107,,,survey-text,395,1326702,0.0-19.0-3.7,49193,List2A,white,man,,,,,"{""Q0"":""Kate and Mike are shouting at each other""}","<img src=""stim_listA/shout4.gif""</stim_listA>",are shouting at each other,
null,"<div style=""font-size:60px;"">+</div>",,html-keyboard-response,396,1327202,0.0-19.0-0.8,49193,List2A,white,man,,,,null,,,,
null,"<img src=""stim_listA/touch8.gif""</stim_listA>",,html-keyboard-response,397,1329204,0.0-19.0-1.8,49193,List2A,white,man,,,,null,,,,
null,are touching each other,,html-keyboard-response,398,1331206,0.0-19.0-2.8,49193,List2A,white,man,,,,null,,,,
8254,,,survey-text,399,1339461,0.0-19.0-3.8,49193,List2A,white,man,,,,,"{""Q0"":""Beth and Ruth are touching each other""}","<img src=""stim_listA/touch8.gif""</stim_listA>",are touching each other,
null,"<div style=""font-size:60px;"">+</div>",,html-keyboard-response,400,1339963,0.0-19.0-0.9,49193,List2A,white,man,,,,null,,,,
null,"<img src=""stim_listA/meet4.gif""</stim_listA>",,html-keyboard-response,401,1341964,0.0-19.0-1.9,49193,List2A,white,man,,,,null,,,,
null,are meeting each other,,html-keyboard-response,402,1343964,0.0-19.0-2.9,49193,List2A,white,man,,,,null,,,,
6840,,,survey-text,403,1350806,0.0-19.0-3.9,49193,List2A,white,man,,,,,"{""Q0"":""Fred and Beth are meeting each other""}","<img src=""stim_listA/meet4.gif""</stim_listA>",are meeting each other,
null,"<div style=""font-size:60px;"">+</div>",,html-keyboard-response,404,1351311,0.0-19.0-0.10,49193,List2A,white,man,,,,null,,,,
null,"<img src=""stim_listA/marry4.gif""</stim_listA>",,html-keyboard-response,405,1353315,0.0-19.0-1.10,49193,List2A,white,man,,,,null,,,,
null,are marrying each other,,html-keyboard-response,406,1355317,0.0-19.0-2.10,49193,List2A,white,man,,,,null,,,,
6830,,,survey-text,407,1362148,0.0-19.0-3.10,49193,List2A,white,man,,,,,"{""Q0"":""Kate and Fred are marrying each other""}","<img src=""stim_listA/marry4.gif""</stim_listA>",are marrying each other,
null,"<div style=""font-size:60px;"">+</div>",,html-keyboard-response,408,1362651,0.0-19.0-0.11,49193,List2A,white,man,,,,null,,,,
null,"<img src=""stim_listA/meet7.gif""</stim_listA>",,html-keyboard-response,409,1364652,0.0-19.0-1.11,49193,List2A,white,man,,,,null,,,,
null,is meeting,,html-keyboard-response,410,1366654,0.0-19.0-2.11,49193,List2A,white,man,,,,null,,,,
4295,,,survey-text,411,1370951,0.0-19.0-3.11,49193,List2A,white,man,,,,,"{""Q0"":""Jane is meeting Kate""}","<img src=""stim_listA/meet7.gif""</stim_listA>",is meeting,
null,"<div style=""font-size:60px;"">+</div>",,html-keyboard-response,412,1371453,0.0-19.0-0.12,49193,List2A,white,man,,,,null,,,,
null,"<img src=""stim_listA/meet3.gif""</stim_listA>",,html-keyboard-response,413,1373456,0.0-19.0-1.12,49193,List2A,white,man,,,,null,,,,
null,is meeting,,html-keyboard-response,414,1375458,0.0-19.0-2.12,49193,List2A,white,man,,,,null,,,,
5006,,,survey-text,415,1380465,0.0-19.0-3.12,49193,List2A,white,man,,,,,"{""Q0"":""Mike is meeting Kate""}","<img src=""stim_listA/meet3.gif""</stim_listA>",is meeting,
null,"<div style=""font-size:60px;"">+</div>",,html-keyboard-response,416,1380967,0.0-19.0-0.13,49193,List2A,white,man,,,,null,,,,
null,"<img src=""stim_listA/argue8.gif""</stim_listA>",,html-keyboard-response,417,1382969,0.0-19.0-1.13,49193,List2A,white,man,,,,null,,,,
null,are arguing with each other,,html-keyboard-response,418,1384970,0.0-19.0-2.13,49193,List2A,white,man,,,,null,,,,
7439,,,survey-text,419,1392409,0.0-19.0-3.13,49193,List2A,white,man,,,,,"{""Q0"":""Ruth and Kate are arguing with each other""}","<img src=""stim_listA/argue8.gif""</stim_listA>",are arguing with each other,
null,"<div style=""font-size:60px;"">+</div>",,html-keyboard-response,420,1392912,0.0-19.0-0.14,49193,List2A,white,man,,,,null,,,,
null,"<img src=""stim_listA/marry3.gif""</stim_listA>",,html-keyboard-response,421,1394913,0.0-19.0-1.14,49193,List2A,white,man,,,,null,,,,
null,is marrying,,html-keyboard-response,422,1396913,0.0-19.0-2.14,49193,List2A,white,man,,,,null,,,,
22011,,,survey-text,423,1418925,0.0-19.0-3.14,49193,List2A,white,man,,,,,"{""Q0"":""Mike is talking to Beth""}","<img src=""stim_listA/marry3.gif""</stim_listA>",is marrying,
null,"<div style=""font-size:60px;"">+</div>",,html-keyboard-response,424,1419429,0.0-19.0-0.15,49193,List2A,white,man,,,,null,,,,
null,"<img src=""stim_listA/kiss1.gif""</stim_listA>",,html-keyboard-response,425,1421429,0.0-19.0-1.15,49193,List2A,white,man,,,,null,,,,
null,is kissing,,html-keyboard-response,426,1423431,0.0-19.0-2.15,49193,List2A,white,man,,,,null,,,,
4588,,,survey-text,427,1428020,0.0-19.0-3.15,49193,List2A,white,man,,,,,"{""Q0"":""Luke is kissing Ruth""}","<img src=""stim_listA/kiss1.gif""</stim_listA>",is kissing,
null,"<div style=""font-size:60px;"">+</div>",,html-keyboard-response,428,1428521,0.0-19.0-0.16,49193,List2A,white,man,,,,null,,,,
null,"<img src=""stim_listA/talk7.gif""</stim_listA>",,html-keyboard-response,429,1430522,0.0-19.0-1.16,49193,List2A,white,man,,,,null,,,,
null,is talking to,,html-keyboard-response,430,1432523,0.0-19.0-2.16,49193,List2A,white,man,,,,null,,,,
4931,,,survey-text,431,1437454,0.0-19.0-3.16,49193,List2A,white,man,,,,,"{""Q0"":""Ruth is talking to Kate""}","<img src=""stim_listA/talk7.gif""</stim_listA>",is talking to,
null,"<div style=""font-size:60px;"">+</div>",,html-keyboard-response,432,1437957,0.0-19.0-0.17,49193,List2A,white,man,,,,null,,,,
null,"<img src=""stim_listA/marry2.gif""</stim_listA>",,html-keyboard-response,433,1439958,0.0-19.0-1.17,49193,List2A,white,man,,,,null,,,,
null,are marrying each other,,html-keyboard-response,434,1441958,0.0-19.0-2.17,49193,List2A,white,man,,,,null,,,,
8840,,,survey-text,435,1450798,0.0-19.0-3.17,49193,List2A,white,man,,,,,"{""Q0"":""Luke is talking to Jane""}","<img src=""stim_listA/marry2.gif""</stim_listA>",are marrying each other,
null,"<div style=""font-size:60px;"">+</div>",,html-keyboard-response,436,1451301,0.0-19.0-0.18,49193,List2A,white,man,,,,null,,,,
null,"<img src=""stim_listA/fight4.gif""</stim_listA>",,html-keyboard-response,437,1453301,0.0-19.0-1.18,49193,List2A,white,man,,,,null,,,,
null,are fighting each other,,html-keyboard-response,438,1455303,0.0-19.0-2.18,49193,List2A,white,man,,,,null,,,,
12454,,,survey-text,439,1467758,0.0-19.0-3.18,49193,List2A,white,man,,,,,"{""Q0"":""Beth and Fred are fighting each other""}","<img src=""stim_listA/fight4.gif""</stim_listA>",are fighting each other,
null,"<div style=""font-size:60px;"">+</div>",,html-keyboard-response,440,1468260,0.0-19.0-0.19,49193,List2A,white,man,,,,null,,,,
null,"<img src=""stim_listA/hug5.gif""</stim_listA>",,html-keyboard-response,441,1470262,0.0-19.0-1.19,49193,List2A,white,man,,,,null,,,,
null,is hugging,,html-keyboard-response,442,1472262,0.0-19.0-2.19,49193,List2A,white,man,,,,null,,,,
6294,,,survey-text,443,1478556,0.0-19.0-3.19,49193,List2A,white,man,,,,,"{""Q0"":""Luke is hugging Fred""}","<img src=""stim_listA/hug5.gif""</stim_listA>",is hugging,
3585,<p>Thank you for completing that task.</p><p>The final part of this session is a short questionnaire.</p><p>Press Continue.</p>,0,html-button-response,444,1482143,0.0-20.0,49193,List2A,white,man,,,,,,,,
33968,,,survey-text,445,1517115,0.0-21.0,49193,List2A,white,man,,,,,"{""Q0"":""36"",""Q1"":""English"",""Q2"":""English"",""Q3"":""England"",""Q4"":""White - English"",""Q5"":""Male""}",,,demographics
127300,,,survey-likert,446,1644498,0.0-22.0,49193,List2A,white,man,,,,,"{""Q0"":4,""Q1"":4,""Q2"":2,""Q3"":4,""Q4"":4,""Q5"":4,""Q6"":4,""Q7"":1,""Q8"":4,""Q9"":4,""Q10"":3,""Q11"":4,""Q12"":3,""Q13"":3}",,,likert_race
72450,,,survey-likert,447,1716958,0.0-23.0,49193,List2A,white,man,,,,,"{""Q0"":4,""Q1"":4,""Q2"":4,""Q3"":5,""Q4"":4,""Q5"":4,""Q6"":4,""Q7"":3,""Q8"":4,""Q9"":4,""Q10"":4,""Q11"":4,""Q12"":4,""Q13"":4}",,,likert_gender
9836,,,survey-text,448,1726799,0.0-24.0,49193,List2A,white,man,,,,,"{""Q0"":""ccc""}",,,worker_id
33485,,,external-html,449,1760340,0.0-25.0,49193,List2A,white,man,debrief.html,,,,,,,
