rt,stimulus,button_pressed,trial_type,trial_index,time_elapsed,internal_node_id,subject,list,ppt_race,ppt_gender,url,first_guess,correct,key_press,responses,image_type,phrase_type,test_part
2279,Welcome to the experiment. Press Continue to begin.,0,html-button-response,0,2408,0.0-0.0,49214,List2A,black,man,,,,,,,,
84720,,,external-html,1,88185,0.0-1.0,49214,List2A,black,man,consent.html,,,,,,,
14294,"<p>On the next page, you will see portraits of 8 people and their names.</p><p>Your first task is to take a few minutes to memorise the names of these people.</p><p>You will have to recall their names during the rest of the experiment, so it is</p><p>essential that you try to memorise these people and their names as best as you can.</p><br><p><strong>You will then be tested on your memory of these names and portraits.</strong></p><br><p>The experiment will start after you have completed this memory test.</p><br><p>Ready?</p>",0,html-button-response,2,102482,0.0-2.0,49214,List2A,black,man,,,,,,,,
132755,"<img src='img/portrait_matrix_list2.JPG' style='width:900px;height:500px;''></img><p>If you have memorised all the portraits and names and are ready to start, press Continue.</p><p><strong>Please note: Your memory of these faces will be tested 4 times during this experiment.</strong></p>",0,html-button-response,3,236239,0.0-3.0-0.0,49214,List2A,black,man,,,,,,,,
2604,"<img src=""portrait/BM2.jpg""style=""width:400px;height:400px;""></img>",5,html-button-response,4,239846,0.0-3.0-1.0,49214,List2A,black,man,,TRUE,5,,,,,
null,CORRECT,,html-keyboard-response,5,241350,0.0-3.0-2.0-0.0,49214,List2A,black,man,,,,null,,,,
3010,"<img src=""portrait/WM2.jpg""style=""width:400px;height:400px;""></img>",7,html-button-response,6,244362,0.0-3.0-4.0,49214,List2A,black,man,,TRUE,7,,,,,
null,CORRECT,,html-keyboard-response,7,245864,0.0-3.0-5.0-0.0,49214,List2A,black,man,,,,null,,,,
2099,"<img src=""portrait/WM1.jpg""style=""width:400px;height:400px;""></img>",6,html-button-response,8,247965,0.0-3.0-7.0,49214,List2A,black,man,,TRUE,6,,,,,
null,CORRECT,,html-keyboard-response,9,249467,0.0-3.0-8.0-0.0,49214,List2A,black,man,,,,null,,,,
2363,"<img src=""portrait/BW1.jpg""style=""width:400px;height:400px;""></img>",0,html-button-response,10,251832,0.0-3.0-10.0,49214,List2A,black,man,,TRUE,0,,,,,
null,CORRECT,,html-keyboard-response,11,253334,0.0-3.0-11.0-0.0,49214,List2A,black,man,,,,null,,,,
4659,"<img src=""portrait/BM1.jpg""style=""width:400px;height:400px;""></img>",4,html-button-response,12,257993,0.0-3.0-13.0,49214,List2A,black,man,,TRUE,4,,,,,
null,CORRECT,,html-keyboard-response,13,259496,0.0-3.0-14.0-0.0,49214,List2A,black,man,,,,null,,,,
1780,"<img src=""portrait/WW2.jpg""style=""width:400px;height:400px;""></img>",3,html-button-response,14,261278,0.0-3.0-16.0,49214,List2A,black,man,,TRUE,3,,,,,
null,CORRECT,,html-keyboard-response,15,262780,0.0-3.0-17.0-0.0,49214,List2A,black,man,,,,null,,,,
1850,"<img src=""portrait/BW2.jpg""style=""width:400px;height:400px;""></img>",2,html-button-response,16,264631,0.0-3.0-19.0,49214,List2A,black,man,,TRUE,2,,,,,
null,CORRECT,,html-keyboard-response,17,266132,0.0-3.0-20.0-0.0,49214,List2A,black,man,,,,null,,,,
2626,"<img src=""portrait/WW1.jpg""style=""width:400px;height:400px;""></img>",1,html-button-response,18,268760,0.0-3.0-22.0,49214,List2A,black,man,,TRUE,1,,,,,
null,CORRECT,,html-keyboard-response,19,270263,0.0-3.0-23.0-0.0,49214,List2A,black,man,,,,null,,,,
2815,<p>You got 8 out of 8 right first time. Press Continue.</p>,0,html-button-response,20,273080,0.0-3.0-25.0,49214,List2A,black,man,,,,,,,,
46199,"<p>In this experiment, you will view photographs of the people from the memory game interacting.</p><p>By using the <strong>exact</strong> phrase given <i>after</i> the photograph appears and recalling the correct names of the people in the photographs, form a sentence describing the interaction. You do not need to capitalise names.</p><p>Type your answer in the space provided. Please complete every sentence before moving onto the next trial.</p><p>You will only have a few seconds to memorise each given photograph and phrase before you can respond, so try your best to focus.</p><p>An example is given below. Press 'Continue' when you are ready.</p><img src='img/speaking_example_v2.jpg' style='width:800px;height:460px;''></img>",0,html-button-response,21,320281,0.0-4.0,49214,List2A,black,man,,,,,,,,
2913,"<p>Before the experiment starts, you will watch two example trials. Press 'Continue'.</p>",0,html-button-response,22,324196,0.0-5.0,49214,List2A,black,man,,,,,,,,
null,<img src='img/speaking_WW.gif'></img>,,html-keyboard-response,23,327198,0.0-6.0,49214,List2A,black,man,,,,null,,,,
null,<p>is speaking to</p>,,html-keyboard-response,24,329200,0.0-7.0,49214,List2A,black,man,,,,null,,,,
2677,<p><b>Answer:</b> jane is speaking to ruth</p>,0,html-button-response,25,331877,0.0-8.0,49214,List2A,black,man,,,,,,,,
null,<img src='img/pointing_BM.gif'></img>,,html-keyboard-response,26,334881,0.0-9.0,49214,List2A,black,man,,,,null,,,,
null,<p>are pointing at each other</p>,,html-keyboard-response,27,336882,0.0-10.0,49214,List2A,black,man,,,,null,,,,
2176,<p><b>Answer:</b> fred and mike are pointing at each other</p>,0,html-button-response,28,339059,0.0-11.0,49214,List2A,black,man,,,,,,,,
8673,"<p>Ready to start the experiment?</p><br><p><strong>Remember to describe the picture using a full sentence,</strong></p><p><strong>that combines the names of the people with the given phrase.</strong></p><p><strong>If you do not do this correctly you will not be paid.</strong></p><p><strong> You do not need to capitalise names or use punctuation.</strong></p><br><p>Press 'Continue' to begin.</p>",0,html-button-response,29,348733,0.0-12.0,49214,List2A,black,man,,,,,,,,
null,"<div style=""font-size:60px;"">+</div>",,html-keyboard-response,30,350238,0.0-13.0-0.0,49214,List2A,black,man,,,,null,,,,
null,"<img src=""stim_listA/meet1.gif""</stim_listA>",,html-keyboard-response,31,352240,0.0-13.0-1.0,49214,List2A,black,man,,,,null,,,,
null,is meeting,,html-keyboard-response,32,354241,0.0-13.0-2.0,49214,List2A,black,man,,,,null,,,,
12807,,,survey-text,33,367049,0.0-13.0-3.0,49214,List2A,black,man,,,,,"{""Q0"":""Jane is shaking hands with dave""}","<img src=""stim_listA/meet1.gif""</stim_listA>",is meeting,
null,"<div style=""font-size:60px;"">+</div>",,html-keyboard-response,34,367551,0.0-13.0-0.1,49214,List2A,black,man,,,,null,,,,
null,"<img src=""stim_listA/touch4.gif""</stim_listA>",,html-keyboard-response,35,369552,0.0-13.0-1.1,49214,List2A,black,man,,,,null,,,,
null,are touching each other,,html-keyboard-response,36,371554,0.0-13.0-2.1,49214,List2A,black,man,,,,null,,,,
14032,,,survey-text,37,385588,0.0-13.0-3.1,49214,List2A,black,man,,,,,"{""Q0"":""Beth and fred are touching each other""}","<img src=""stim_listA/touch4.gif""</stim_listA>",are touching each other,
null,"<div style=""font-size:60px;"">+</div>",,html-keyboard-response,38,386091,0.0-13.0-0.2,49214,List2A,black,man,,,,null,,,,
null,"<img src=""stim_listA/kiss7.gif""</stim_listA>",,html-keyboard-response,39,388093,0.0-13.0-1.2,49214,List2A,black,man,,,,null,,,,
null,is kissing,,html-keyboard-response,40,390095,0.0-13.0-2.2,49214,List2A,black,man,,,,null,,,,
8764,,,survey-text,41,398860,0.0-13.0-3.2,49214,List2A,black,man,,,,,"{""Q0"":""Ruth and Beth are about to kiss""}","<img src=""stim_listA/kiss7.gif""</stim_listA>",is kissing,
null,"<div style=""font-size:60px;"">+</div>",,html-keyboard-response,42,399361,0.0-13.0-0.3,49214,List2A,black,man,,,,null,,,,
null,"<img src=""stim_listA/marry2.gif""</stim_listA>",,html-keyboard-response,43,401363,0.0-13.0-1.3,49214,List2A,black,man,,,,null,,,,
null,are marrying each other,,html-keyboard-response,44,403364,0.0-13.0-2.3,49214,List2A,black,man,,,,null,,,,
11381,,,survey-text,45,414746,0.0-13.0-3.3,49214,List2A,black,man,,,,,"{""Q0"":""Luke and Jane are marrying each other""}","<img src=""stim_listA/marry2.gif""</stim_listA>",are marrying each other,
null,"<div style=""font-size:60px;"">+</div>",,html-keyboard-response,46,415250,0.0-13.0-0.4,49214,List2A,black,man,,,,null,,,,
null,"<img src=""stim_listA/kiss5.gif""</stim_listA>",,html-keyboard-response,47,417254,0.0-13.0-1.4,49214,List2A,black,man,,,,null,,,,
null,is kissing,,html-keyboard-response,48,419256,0.0-13.0-2.4,49214,List2A,black,man,,,,null,,,,
15644,,,survey-text,49,434902,0.0-13.0-3.4,49214,List2A,black,man,,,,,"{""Q0"":""Luke and Fred are going to kiss""}","<img src=""stim_listA/kiss5.gif""</stim_listA>",is kissing,
null,"<div style=""font-size:60px;"">+</div>",,html-keyboard-response,50,435402,0.0-13.0-0.5,49214,List2A,black,man,,,,null,,,,
null,"<img src=""stim_listA/touch3.gif""</stim_listA>",,html-keyboard-response,51,437404,0.0-13.0-1.5,49214,List2A,black,man,,,,null,,,,
null,is touching,,html-keyboard-response,52,439405,0.0-13.0-2.5,49214,List2A,black,man,,,,null,,,,
16707,,,survey-text,53,456113,0.0-13.0-3.5,49214,List2A,black,man,,,,,"{""Q0"":""Mike and kate are touching each other""}","<img src=""stim_listA/touch3.gif""</stim_listA>",is touching,
null,"<div style=""font-size:60px;"">+</div>",,html-keyboard-response,54,456615,0.0-13.0-0.6,49214,List2A,black,man,,,,null,,,,
null,"<img src=""stim_listA/kiss6.gif""</stim_listA>",,html-keyboard-response,55,458618,0.0-13.0-1.6,49214,List2A,black,man,,,,null,,,,
null,are kissing each other,,html-keyboard-response,56,460620,0.0-13.0-2.6,49214,List2A,black,man,,,,null,,,,
9667,,,survey-text,57,470287,0.0-13.0-3.6,49214,List2A,black,man,,,,,"{""Q0"":""Mike and dave are kissing each other""}","<img src=""stim_listA/kiss6.gif""</stim_listA>",are kissing each other,
null,"<div style=""font-size:60px;"">+</div>",,html-keyboard-response,58,470789,0.0-13.0-0.7,49214,List2A,black,man,,,,null,,,,
null,"<img src=""stim_listA/hug8.gif""</stim_listA>",,html-keyboard-response,59,472791,0.0-13.0-1.7,49214,List2A,black,man,,,,null,,,,
null,are hugging each other,,html-keyboard-response,60,474793,0.0-13.0-2.7,49214,List2A,black,man,,,,null,,,,
7342,,,survey-text,61,482136,0.0-13.0-3.7,49214,List2A,black,man,,,,,"{""Q0"":""Kate and ruth are hugging each other""}","<img src=""stim_listA/hug8.gif""</stim_listA>",are hugging each other,
null,"<div style=""font-size:60px;"">+</div>",,html-keyboard-response,62,482637,0.0-13.0-0.8,49214,List2A,black,man,,,,null,,,,
null,"<img src=""stim_listA/hug3.gif""</stim_listA>",,html-keyboard-response,63,484638,0.0-13.0-1.8,49214,List2A,black,man,,,,null,,,,
null,is hugging,,html-keyboard-response,64,486640,0.0-13.0-2.8,49214,List2A,black,man,,,,null,,,,
15367,,,survey-text,65,502008,0.0-13.0-3.8,49214,List2A,black,man,,,,,"{""Q0"":""Beth and fred are hugging each other""}","<img src=""stim_listA/hug3.gif""</stim_listA>",is hugging,
null,"<div style=""font-size:60px;"">+</div>",,html-keyboard-response,66,502510,0.0-13.0-0.9,49214,List2A,black,man,,,,null,,,,
null,"<img src=""stim_listA/shout8.gif""</stim_listA>",,html-keyboard-response,67,504512,0.0-13.0-1.9,49214,List2A,black,man,,,,null,,,,
null,are shouting at each other,,html-keyboard-response,68,506516,0.0-13.0-2.9,49214,List2A,black,man,,,,null,,,,
14227,,,survey-text,69,520744,0.0-13.0-3.9,49214,List2A,black,man,,,,,"{""Q0"":""Jane and Kate are shouting at each other""}","<img src=""stim_listA/shout8.gif""</stim_listA>",are shouting at each other,
null,"<div style=""font-size:60px;"">+</div>",,html-keyboard-response,70,521246,0.0-13.0-0.10,49214,List2A,black,man,,,,null,,,,
null,"<img src=""stim_listA/talk2.gif""</stim_listA>",,html-keyboard-response,71,523248,0.0-13.0-1.10,49214,List2A,black,man,,,,null,,,,
null,are talking to each other,,html-keyboard-response,72,525250,0.0-13.0-2.10,49214,List2A,black,man,,,,null,,,,
29756,,,survey-text,73,555008,0.0-13.0-3.10,49214,List2A,black,man,,,,,"{""Q0"":""Dave and ruth are shouting at each other""}","<img src=""stim_listA/talk2.gif""</stim_listA>",are talking to each other,
null,"<div style=""font-size:60px;"">+</div>",,html-keyboard-response,74,555509,0.0-13.0-0.11,49214,List2A,black,man,,,,null,,,,
null,"<img src=""stim_listA/shout1.gif""</stim_listA>",,html-keyboard-response,75,557510,0.0-13.0-1.11,49214,List2A,black,man,,,,null,,,,
null,is shouting at,,html-keyboard-response,76,559511,0.0-13.0-2.11,49214,List2A,black,man,,,,null,,,,
12216,,,survey-text,77,571728,0.0-13.0-3.11,49214,List2A,black,man,,,,,"{""Q0"":""Luke and Ruth are shouting at each other""}","<img src=""stim_listA/shout1.gif""</stim_listA>",is shouting at,
null,"<div style=""font-size:60px;"">+</div>",,html-keyboard-response,78,572230,0.0-13.0-0.12,49214,List2A,black,man,,,,null,,,,
null,"<img src=""stim_listA/dance6.gif""</stim_listA>",,html-keyboard-response,79,574231,0.0-13.0-1.12,49214,List2A,black,man,,,,null,,,,
null,are dancing with each other,,html-keyboard-response,80,576232,0.0-13.0-2.12,49214,List2A,black,man,,,,null,,,,
21791,,,survey-text,81,598024,0.0-13.0-3.12,49214,List2A,black,man,,,,,"{""Q0"":""Dave and Fred are dancing with each other""}","<img src=""stim_listA/dance6.gif""</stim_listA>",are dancing with each other,
null,"<div style=""font-size:60px;"">+</div>",,html-keyboard-response,82,598526,0.0-13.0-0.13,49214,List2A,black,man,,,,null,,,,
null,"<img src=""stim_listA/marry7.gif""</stim_listA>",,html-keyboard-response,83,600527,0.0-13.0-1.13,49214,List2A,black,man,,,,null,,,,
null,is marrying,,html-keyboard-response,84,602528,0.0-13.0-2.13,49214,List2A,black,man,,,,null,,,,
7614,,,survey-text,85,610144,0.0-13.0-3.13,49214,List2A,black,man,,,,,"{""Q0"":""Jane is marrying beth""}","<img src=""stim_listA/marry7.gif""</stim_listA>",is marrying,
null,"<div style=""font-size:60px;"">+</div>",,html-keyboard-response,86,610645,0.0-13.0-0.14,49214,List2A,black,man,,,,null,,,,
null,"<img src=""stim_listA/meet8.gif""</stim_listA>",,html-keyboard-response,87,612647,0.0-13.0-1.14,49214,List2A,black,man,,,,null,,,,
null,are meeting each other,,html-keyboard-response,88,614649,0.0-13.0-2.14,49214,List2A,black,man,,,,null,,,,
7861,,,survey-text,89,622512,0.0-13.0-3.14,49214,List2A,black,man,,,,,"{""Q0"":""Beth and Ruth are meeting each other""}","<img src=""stim_listA/meet8.gif""</stim_listA>",are meeting each other,
null,"<div style=""font-size:60px;"">+</div>",,html-keyboard-response,90,623015,0.0-13.0-0.15,49214,List2A,black,man,,,,null,,,,
null,"<img src=""stim_listA/talk5.gif""</stim_listA>",,html-keyboard-response,91,625016,0.0-13.0-1.15,49214,List2A,black,man,,,,null,,,,
null,is talking to,,html-keyboard-response,92,627018,0.0-13.0-2.15,49214,List2A,black,man,,,,null,,,,
5877,,,survey-text,93,632896,0.0-13.0-3.15,49214,List2A,black,man,,,,,"{""Q0"":""Luke is talking to Mike""}","<img src=""stim_listA/talk5.gif""</stim_listA>",is talking to,
null,"<div style=""font-size:60px;"">+</div>",,html-keyboard-response,94,633397,0.0-13.0-0.16,49214,List2A,black,man,,,,null,,,,
null,"<img src=""stim_listA/meet6.gif""</stim_listA>",,html-keyboard-response,95,635399,0.0-13.0-1.16,49214,List2A,black,man,,,,null,,,,
null,are meeting each other,,html-keyboard-response,96,637400,0.0-13.0-2.16,49214,List2A,black,man,,,,null,,,,
9847,,,survey-text,97,647248,0.0-13.0-3.16,49214,List2A,black,man,,,,,"{""Q0"":""Luke and Fred are meeting each other""}","<img src=""stim_listA/meet6.gif""</stim_listA>",are meeting each other,
null,"<div style=""font-size:60px;"">+</div>",,html-keyboard-response,98,647749,0.0-13.0-0.17,49214,List2A,black,man,,,,null,,,,
null,"<img src=""stim_listA/meet5.gif""</stim_listA>",,html-keyboard-response,99,649751,0.0-13.0-1.17,49214,List2A,black,man,,,,null,,,,
null,is meeting,,html-keyboard-response,100,651753,0.0-13.0-2.17,49214,List2A,black,man,,,,null,,,,
5278,,,survey-text,101,657032,0.0-13.0-3.17,49214,List2A,black,man,,,,,"{""Q0"":""Dave is meeting Mike""}","<img src=""stim_listA/meet5.gif""</stim_listA>",is meeting,
null,"<div style=""font-size:60px;"">+</div>",,html-keyboard-response,102,657533,0.0-13.0-0.18,49214,List2A,black,man,,,,null,,,,
null,"<img src=""stim_listA/dance1.gif""</stim_listA>",,html-keyboard-response,103,659535,0.0-13.0-1.18,49214,List2A,black,man,,,,null,,,,
null,is dancing with,,html-keyboard-response,104,661536,0.0-13.0-2.18,49214,List2A,black,man,,,,null,,,,
6494,,,survey-text,105,668032,0.0-13.0-3.18,49214,List2A,black,man,,,,,"{""Q0"":""Luke is dancing with Jane""}","<img src=""stim_listA/dance1.gif""</stim_listA>",is dancing with,
null,"<div style=""font-size:60px;"">+</div>",,html-keyboard-response,106,668533,0.0-13.0-0.19,49214,List2A,black,man,,,,null,,,,
null,"<img src=""stim_listA/argue4.gif""</stim_listA>",,html-keyboard-response,107,670535,0.0-13.0-1.19,49214,List2A,black,man,,,,null,,,,
null,are arguing with each other,,html-keyboard-response,108,672536,0.0-13.0-2.19,49214,List2A,black,man,,,,null,,,,
10013,,,survey-text,109,682552,0.0-13.0-3.19,49214,List2A,black,man,,,,,"{""Q0"":""Kate is arguing with Fred""}","<img src=""stim_listA/argue4.gif""</stim_listA>",are arguing with each other,
16482,"<img src='img/portrait_matrix_list2.JPG' style='width:900px;height:500px;''></img><p>If you have memorised all the portraits and names and are ready to start, press Continue.</p><p><strong>Please note: Your memory of these faces will be tested 4 times during this experiment.</strong></p>",0,html-button-response,110,699036,0.0-14.0-0.0,49214,List2A,black,man,,,,,,,,
4750,"<img src=""portrait/WW2.jpg""style=""width:400px;height:400px;""></img>",3,html-button-response,111,704788,0.0-14.0-1.0,49214,List2A,black,man,,TRUE,3,,,,,
null,CORRECT,,html-keyboard-response,112,706293,0.0-14.0-2.0-0.0,49214,List2A,black,man,,,,null,,,,
3022,"<img src=""portrait/BW1.jpg""style=""width:400px;height:400px;""></img>",0,html-button-response,113,709316,0.0-14.0-4.0,49214,List2A,black,man,,TRUE,0,,,,,
null,CORRECT,,html-keyboard-response,114,710818,0.0-14.0-5.0-0.0,49214,List2A,black,man,,,,null,,,,
2161,"<img src=""portrait/WM1.jpg""style=""width:400px;height:400px;""></img>",6,html-button-response,115,712980,0.0-14.0-7.0,49214,List2A,black,man,,TRUE,6,,,,,
null,CORRECT,,html-keyboard-response,116,714482,0.0-14.0-8.0-0.0,49214,List2A,black,man,,,,null,,,,
2260,"<img src=""portrait/BM1.jpg""style=""width:400px;height:400px;""></img>",4,html-button-response,117,716744,0.0-14.0-10.0,49214,List2A,black,man,,TRUE,4,,,,,
null,CORRECT,,html-keyboard-response,118,718250,0.0-14.0-11.0-0.0,49214,List2A,black,man,,,,null,,,,
5326,"<img src=""portrait/WW1.jpg""style=""width:400px;height:400px;""></img>",1,html-button-response,119,723578,0.0-14.0-13.0,49214,List2A,black,man,,TRUE,1,,,,,
null,CORRECT,,html-keyboard-response,120,725081,0.0-14.0-14.0-0.0,49214,List2A,black,man,,,,null,,,,
2911,"<img src=""portrait/BM2.jpg""style=""width:400px;height:400px;""></img>",5,html-button-response,121,727994,0.0-14.0-16.0,49214,List2A,black,man,,TRUE,5,,,,,
261,CORRECT,,html-keyboard-response,122,729496,0.0-14.0-17.0-0.0,49214,List2A,black,man,,,,17,,,,
3274,"<img src=""portrait/BW2.jpg""style=""width:400px;height:400px;""></img>",2,html-button-response,123,732772,0.0-14.0-19.0,49214,List2A,black,man,,TRUE,2,,,,,
null,CORRECT,,html-keyboard-response,124,734799,0.0-14.0-20.0-0.0,49214,List2A,black,man,,,,null,,,,
34416,"<img src=""portrait/WM2.jpg""style=""width:400px;height:400px;""></img>",7,html-button-response,125,769219,0.0-14.0-22.0,49214,List2A,black,man,,TRUE,7,,,,,
null,CORRECT,,html-keyboard-response,126,770723,0.0-14.0-23.0-0.0,49214,List2A,black,man,,,,null,,,,
1101,<p>You got 8 out of 8 right first time. Press Continue.</p>,0,html-button-response,127,771827,0.0-14.0-25.0,49214,List2A,black,man,,,,,,,,
null,"<div style=""font-size:60px;"">+</div>",,html-keyboard-response,128,773330,0.0-15.0-0.0,49214,List2A,black,man,,,,null,,,,
null,"<img src=""stim_listA/hug5.gif""</stim_listA>",,html-keyboard-response,129,775331,0.0-15.0-1.0,49214,List2A,black,man,,,,null,,,,
null,is hugging,,html-keyboard-response,130,777332,0.0-15.0-2.0,49214,List2A,black,man,,,,null,,,,
6939,,,survey-text,131,784271,0.0-15.0-3.0,49214,List2A,black,man,,,,,"{""Q0"":""Luke is hugging fred""}","<img src=""stim_listA/hug5.gif""</stim_listA>",is hugging,
null,"<div style=""font-size:60px;"">+</div>",,html-keyboard-response,132,784773,0.0-15.0-0.1,49214,List2A,black,man,,,,null,,,,
null,"<img src=""stim_listA/argue2.gif""</stim_listA>",,html-keyboard-response,133,786775,0.0-15.0-1.1,49214,List2A,black,man,,,,null,,,,
null,are arguing with each other,,html-keyboard-response,134,788776,0.0-15.0-2.1,49214,List2A,black,man,,,,null,,,,
12864,,,survey-text,135,801640,0.0-15.0-3.1,49214,List2A,black,man,,,,,"{""Q0"":""Jane and luke are arguing with each other""}","<img src=""stim_listA/argue2.gif""</stim_listA>",are arguing with each other,
null,"<div style=""font-size:60px;"">+</div>",,html-keyboard-response,136,802142,0.0-15.0-0.2,49214,List2A,black,man,,,,null,,,,
null,"<img src=""stim_listA/dance4.gif""</stim_listA>",,html-keyboard-response,137,804143,0.0-15.0-1.2,49214,List2A,black,man,,,,null,,,,
null,are dancing with each other,,html-keyboard-response,138,806145,0.0-15.0-2.2,49214,List2A,black,man,,,,null,,,,
7646,,,survey-text,139,813791,0.0-15.0-3.2,49214,List2A,black,man,,,,,"{""Q0"":""Beth and Mike are dancing with each other""}","<img src=""stim_listA/dance4.gif""</stim_listA>",are dancing with each other,
null,"<div style=""font-size:60px;"">+</div>",,html-keyboard-response,140,814292,0.0-15.0-0.3,49214,List2A,black,man,,,,null,,,,
null,"<img src=""stim_listA/kiss8.gif""</stim_listA>",,html-keyboard-response,141,816295,0.0-15.0-1.3,49214,List2A,black,man,,,,null,,,,
null,are kissing each other,,html-keyboard-response,142,818297,0.0-15.0-2.3,49214,List2A,black,man,,,,null,,,,
8102,,,survey-text,143,826400,0.0-15.0-3.3,49214,List2A,black,man,,,,,"{""Q0"":""Kate and jane are kissing each other""}","<img src=""stim_listA/kiss8.gif""</stim_listA>",are kissing each other,
null,"<div style=""font-size:60px;"">+</div>",,html-keyboard-response,144,826902,0.0-15.0-0.4,49214,List2A,black,man,,,,null,,,,
null,"<img src=""stim_listA/argue7.gif""</stim_listA>",,html-keyboard-response,145,828903,0.0-15.0-1.4,49214,List2A,black,man,,,,null,,,,
null,is arguing with,,html-keyboard-response,146,830905,0.0-15.0-2.4,49214,List2A,black,man,,,,null,,,,
7134,,,survey-text,147,838040,0.0-15.0-3.4,49214,List2A,black,man,,,,,"{""Q0"":""Beth is arguing with Jane""}","<img src=""stim_listA/argue7.gif""</stim_listA>",is arguing with,
null,"<div style=""font-size:60px;"">+</div>",,html-keyboard-response,148,838541,0.0-15.0-0.5,49214,List2A,black,man,,,,null,,,,
null,"<img src=""stim_listA/touch5.gif""</stim_listA>",,html-keyboard-response,149,840543,0.0-15.0-1.5,49214,List2A,black,man,,,,null,,,,
null,is touching,,html-keyboard-response,150,842546,0.0-15.0-2.5,49214,List2A,black,man,,,,null,,,,
11517,,,survey-text,151,854064,0.0-15.0-3.5,49214,List2A,black,man,,,,,"{""Q0"":""Dave is touching mike""}","<img src=""stim_listA/touch5.gif""</stim_listA>",is touching,
null,"<div style=""font-size:60px;"">+</div>",,html-keyboard-response,152,854566,0.0-15.0-0.6,49214,List2A,black,man,,,,null,,,,
null,"<img src=""stim_listA/fight7.gif""</stim_listA>",,html-keyboard-response,153,856568,0.0-15.0-1.6,49214,List2A,black,man,,,,null,,,,
null,is fighting,,html-keyboard-response,154,858569,0.0-15.0-2.6,49214,List2A,black,man,,,,null,,,,
6477,,,survey-text,155,865047,0.0-15.0-3.6,49214,List2A,black,man,,,,,"{""Q0"":""Jane is fighting Kate""}","<img src=""stim_listA/fight7.gif""</stim_listA>",is fighting,
null,"<div style=""font-size:60px;"">+</div>",,html-keyboard-response,156,865549,0.0-15.0-0.7,49214,List2A,black,man,,,,null,,,,
null,"<img src=""stim_listA/marry8.gif""</stim_listA>",,html-keyboard-response,157,867550,0.0-15.0-1.7,49214,List2A,black,man,,,,null,,,,
null,are marrying each other,,html-keyboard-response,158,869551,0.0-15.0-2.7,49214,List2A,black,man,,,,null,,,,
7190,,,survey-text,159,876744,0.0-15.0-3.7,49214,List2A,black,man,,,,,"{""Q0"":""Kate and ruth are marrying each other""}","<img src=""stim_listA/marry8.gif""</stim_listA>",are marrying each other,
null,"<div style=""font-size:60px;"">+</div>",,html-keyboard-response,160,877246,0.0-15.0-0.8,49214,List2A,black,man,,,,null,,,,
null,"<img src=""stim_listA/dance5.gif""</stim_listA>",,html-keyboard-response,161,879248,0.0-15.0-1.8,49214,List2A,black,man,,,,null,,,,
null,is dancing with,,html-keyboard-response,162,881250,0.0-15.0-2.8,49214,List2A,black,man,,,,null,,,,
8429,,,survey-text,163,889680,0.0-15.0-3.8,49214,List2A,black,man,,,,,"{""Q0"":""Luke is dancing with mike""}","<img src=""stim_listA/dance5.gif""</stim_listA>",is dancing with,
null,"<div style=""font-size:60px;"">+</div>",,html-keyboard-response,164,890181,0.0-15.0-0.9,49214,List2A,black,man,,,,null,,,,
null,"<img src=""stim_listA/marry5.gif""</stim_listA>",,html-keyboard-response,165,892184,0.0-15.0-1.9,49214,List2A,black,man,,,,null,,,,
null,is marrying,,html-keyboard-response,166,894185,0.0-15.0-2.9,49214,List2A,black,man,,,,null,,,,
11662,,,survey-text,167,905848,0.0-15.0-3.9,49214,List2A,black,man,,,,,"{""Q0"":""Dave is marrying fred""}","<img src=""stim_listA/marry5.gif""</stim_listA>",is marrying,
null,"<div style=""font-size:60px;"">+</div>",,html-keyboard-response,168,906350,0.0-15.0-0.10,49214,List2A,black,man,,,,null,,,,
null,"<img src=""stim_listA/talk8.gif""</stim_listA>",,html-keyboard-response,169,908352,0.0-15.0-1.10,49214,List2A,black,man,,,,null,,,,
null,are talking to each other,,html-keyboard-response,170,910354,0.0-15.0-2.10,49214,List2A,black,man,,,,null,,,,
7565,,,survey-text,171,917920,0.0-15.0-3.10,49214,List2A,black,man,,,,,"{""Q0"":""Beth and jane are talking with each other""}","<img src=""stim_listA/talk8.gif""</stim_listA>",are talking to each other,
null,"<div style=""font-size:60px;"">+</div>",,html-keyboard-response,172,918421,0.0-15.0-0.11,49214,List2A,black,man,,,,null,,,,
null,"<img src=""stim_listA/touch7.gif""</stim_listA>",,html-keyboard-response,173,920423,0.0-15.0-1.11,49214,List2A,black,man,,,,null,,,,
null,is touching,,html-keyboard-response,174,922424,0.0-15.0-2.11,49214,List2A,black,man,,,,null,,,,
14391,,,survey-text,175,936816,0.0-15.0-3.11,49214,List2A,black,man,,,,,"{""Q0"":""Kate is talking with jane""}","<img src=""stim_listA/touch7.gif""</stim_listA>",is touching,
null,"<div style=""font-size:60px;"">+</div>",,html-keyboard-response,176,937318,0.0-15.0-0.12,49214,List2A,black,man,,,,null,,,,
null,"<img src=""stim_listA/meet3.gif""</stim_listA>",,html-keyboard-response,177,939320,0.0-15.0-1.12,49214,List2A,black,man,,,,null,,,,
null,is meeting,,html-keyboard-response,178,941321,0.0-15.0-2.12,49214,List2A,black,man,,,,null,,,,
4078,,,survey-text,179,945400,0.0-15.0-3.12,49214,List2A,black,man,,,,,"{""Q0"":""Kate is meeting fred""}","<img src=""stim_listA/meet3.gif""</stim_listA>",is meeting,
null,"<div style=""font-size:60px;"">+</div>",,html-keyboard-response,180,945902,0.0-15.0-0.13,49214,List2A,black,man,,,,null,,,,
null,"<img src=""stim_listA/dance2.gif""</stim_listA>",,html-keyboard-response,181,947904,0.0-15.0-1.13,49214,List2A,black,man,,,,null,,,,
null,are dancing with each other,,html-keyboard-response,182,949905,0.0-15.0-2.13,49214,List2A,black,man,,,,null,,,,
7718,,,survey-text,183,957624,0.0-15.0-3.13,49214,List2A,black,man,,,,,"{""Q0"":""Dave and ruth are dancing with each other""}","<img src=""stim_listA/dance2.gif""</stim_listA>",are dancing with each other,
null,"<div style=""font-size:60px;"">+</div>",,html-keyboard-response,184,958126,0.0-15.0-0.14,49214,List2A,black,man,,,,null,,,,
null,"<img src=""stim_listA/argue8.gif""</stim_listA>",,html-keyboard-response,185,960127,0.0-15.0-1.14,49214,List2A,black,man,,,,null,,,,
null,are arguing with each other,,html-keyboard-response,186,962128,0.0-15.0-2.14,49214,List2A,black,man,,,,null,,,,
7559,,,survey-text,187,969688,0.0-15.0-3.14,49214,List2A,black,man,,,,,"{""Q0"":""Kate and ruth are arguing with each other""}","<img src=""stim_listA/argue8.gif""</stim_listA>",are arguing with each other,
null,"<div style=""font-size:60px;"">+</div>",,html-keyboard-response,188,970190,0.0-15.0-0.15,49214,List2A,black,man,,,,null,,,,
null,"<img src=""stim_listA/shout2.gif""</stim_listA>",,html-keyboard-response,189,972193,0.0-15.0-1.15,49214,List2A,black,man,,,,null,,,,
null,are shouting at each other,,html-keyboard-response,190,974194,0.0-15.0-2.15,49214,List2A,black,man,,,,null,,,,
7261,,,survey-text,191,981456,0.0-15.0-3.15,49214,List2A,black,man,,,,,"{""Q0"":""Ruth and dave are shouting at each other""}","<img src=""stim_listA/shout2.gif""</stim_listA>",are shouting at each other,
null,"<div style=""font-size:60px;"">+</div>",,html-keyboard-response,192,981958,0.0-15.0-0.16,49214,List2A,black,man,,,,null,,,,
null,"<img src=""stim_listA/talk7.gif""</stim_listA>",,html-keyboard-response,193,983960,0.0-15.0-1.16,49214,List2A,black,man,,,,null,,,,
null,is talking to,,html-keyboard-response,194,985961,0.0-15.0-2.16,49214,List2A,black,man,,,,null,,,,
4831,,,survey-text,195,990792,0.0-15.0-3.16,49214,List2A,black,man,,,,,"{""Q0"":""Ruth is talking to kate""}","<img src=""stim_listA/talk7.gif""</stim_listA>",is talking to,
null,"<div style=""font-size:60px;"">+</div>",,html-keyboard-response,196,991294,0.0-15.0-0.17,49214,List2A,black,man,,,,null,,,,
null,"<img src=""stim_listA/dance3.gif""</stim_listA>",,html-keyboard-response,197,993296,0.0-15.0-1.17,49214,List2A,black,man,,,,null,,,,
null,is dancing with,,html-keyboard-response,198,995298,0.0-15.0-2.17,49214,List2A,black,man,,,,null,,,,
5245,,,survey-text,199,1000544,0.0-15.0-3.17,49214,List2A,black,man,,,,,"{""Q0"":""Fred is dancing with kate""}","<img src=""stim_listA/dance3.gif""</stim_listA>",is dancing with,
null,"<div style=""font-size:60px;"">+</div>",,html-keyboard-response,200,1001046,0.0-15.0-0.18,49214,List2A,black,man,,,,null,,,,
null,"<img src=""stim_listA/meet4.gif""</stim_listA>",,html-keyboard-response,201,1003048,0.0-15.0-1.18,49214,List2A,black,man,,,,null,,,,
null,are meeting each other,,html-keyboard-response,202,1005049,0.0-15.0-2.18,49214,List2A,black,man,,,,null,,,,
8726,,,survey-text,203,1013776,0.0-15.0-3.18,49214,List2A,black,man,,,,,"{""Q0"":""Fred and beth are meeting each other""}","<img src=""stim_listA/meet4.gif""</stim_listA>",are meeting each other,
null,"<div style=""font-size:60px;"">+</div>",,html-keyboard-response,204,1014277,0.0-15.0-0.19,49214,List2A,black,man,,,,null,,,,
null,"<img src=""stim_listA/fight4.gif""</stim_listA>",,html-keyboard-response,205,1016279,0.0-15.0-1.19,49214,List2A,black,man,,,,null,,,,
null,are fighting each other,,html-keyboard-response,206,1018281,0.0-15.0-2.19,49214,List2A,black,man,,,,null,,,,
19199,,,survey-text,207,1037480,0.0-15.0-3.19,49214,List2A,black,man,,,,,"{""Q0"":""Beth and fred are fighting each other""}","<img src=""stim_listA/fight4.gif""</stim_listA>",are fighting each other,
4204,"<img src='img/portrait_matrix_list2.JPG' style='width:900px;height:500px;''></img><p>If you have memorised all the portraits and names and are ready to start, press Continue.</p><p><strong>Please note: Your memory of these faces will be tested 4 times during this experiment.</strong></p>",0,html-button-response,208,1041686,0.0-16.0-0.0,49214,List2A,black,man,,,,,,,,
4237,"<img src=""portrait/BW2.jpg""style=""width:400px;height:400px;""></img>",2,html-button-response,209,1046926,0.0-16.0-1.0,49214,List2A,black,man,,TRUE,2,,,,,
null,CORRECT,,html-keyboard-response,210,1048468,0.0-16.0-2.0-0.0,49214,List2A,black,man,,,,null,,,,
3254,"<img src=""portrait/WM2.jpg""style=""width:400px;height:400px;""></img>",7,html-button-response,211,1051725,0.0-16.0-4.0,49214,List2A,black,man,,TRUE,7,,,,,
null,CORRECT,,html-keyboard-response,212,1053228,0.0-16.0-5.0-0.0,49214,List2A,black,man,,,,null,,,,
10258,"<img src=""portrait/BM1.jpg""style=""width:400px;height:400px;""></img>",4,html-button-response,213,1063488,0.0-16.0-7.0,49214,List2A,black,man,,TRUE,4,,,,,
null,CORRECT,,html-keyboard-response,214,1064991,0.0-16.0-8.0-0.0,49214,List2A,black,man,,,,null,,,,
2435,"<img src=""portrait/BW1.jpg""style=""width:400px;height:400px;""></img>",0,html-button-response,215,1067428,0.0-16.0-10.0,49214,List2A,black,man,,TRUE,0,,,,,
null,CORRECT,,html-keyboard-response,216,1068930,0.0-16.0-11.0-0.0,49214,List2A,black,man,,,,null,,,,
2763,"<img src=""portrait/WW1.jpg""style=""width:400px;height:400px;""></img>",1,html-button-response,217,1071694,0.0-16.0-13.0,49214,List2A,black,man,,TRUE,1,,,,,
null,CORRECT,,html-keyboard-response,218,1073198,0.0-16.0-14.0-0.0,49214,List2A,black,man,,,,null,,,,
4965,"<img src=""portrait/WW2.jpg""style=""width:400px;height:400px;""></img>",3,html-button-response,219,1078165,0.0-16.0-16.0,49214,List2A,black,man,,TRUE,3,,,,,
null,CORRECT,,html-keyboard-response,220,1079669,0.0-16.0-17.0-0.0,49214,List2A,black,man,,,,null,,,,
3095,"<img src=""portrait/BM2.jpg""style=""width:400px;height:400px;""></img>",5,html-button-response,221,1082766,0.0-16.0-19.0,49214,List2A,black,man,,TRUE,5,,,,,
null,CORRECT,,html-keyboard-response,222,1084269,0.0-16.0-20.0-0.0,49214,List2A,black,man,,,,null,,,,
1967,"<img src=""portrait/WM1.jpg""style=""width:400px;height:400px;""></img>",6,html-button-response,223,1086238,0.0-16.0-22.0,49214,List2A,black,man,,TRUE,6,,,,,
null,CORRECT,,html-keyboard-response,224,1087740,0.0-16.0-23.0-0.0,49214,List2A,black,man,,,,null,,,,
1168,<p>You got 8 out of 8 right first time. Press Continue.</p>,0,html-button-response,225,1088910,0.0-16.0-25.0,49214,List2A,black,man,,,,,,,,
null,"<div style=""font-size:60px;"">+</div>",,html-keyboard-response,226,1090413,0.0-17.0-0.0,49214,List2A,black,man,,,,null,,,,
null,"<img src=""stim_listA/argue1.gif""</stim_listA>",,html-keyboard-response,227,1092416,0.0-17.0-1.0,49214,List2A,black,man,,,,null,,,,
null,is arguing with,,html-keyboard-response,228,1094416,0.0-17.0-2.0,49214,List2A,black,man,,,,null,,,,
7375,,,survey-text,229,1101792,0.0-17.0-3.0,49214,List2A,black,man,,,,,"{""Q0"":""DAVE Is arguing with ruth""}","<img src=""stim_listA/argue1.gif""</stim_listA>",is arguing with,
null,"<div style=""font-size:60px;"">+</div>",,html-keyboard-response,230,1102294,0.0-17.0-0.1,49214,List2A,black,man,,,,null,,,,
null,"<img src=""stim_listA/talk4.gif""</stim_listA>",,html-keyboard-response,231,1104296,0.0-17.0-1.1,49214,List2A,black,man,,,,null,,,,
null,are talking to each other,,html-keyboard-response,232,1106297,0.0-17.0-2.1,49214,List2A,black,man,,,,null,,,,
7501,,,survey-text,233,1113800,0.0-17.0-3.1,49214,List2A,black,man,,,,,"{""Q0"":""beth and mike are talking with each other""}","<img src=""stim_listA/talk4.gif""</stim_listA>",are talking to each other,
null,"<div style=""font-size:60px;"">+</div>",,html-keyboard-response,234,1114302,0.0-17.0-0.2,49214,List2A,black,man,,,,null,,,,
null,"<img src=""stim_listA/hug7.gif""</stim_listA>",,html-keyboard-response,235,1116305,0.0-17.0-1.2,49214,List2A,black,man,,,,null,,,,
null,is hugging,,html-keyboard-response,236,1118306,0.0-17.0-2.2,49214,List2A,black,man,,,,null,,,,
7388,,,survey-text,237,1125696,0.0-17.0-3.2,49214,List2A,black,man,,,,,"{""Q0"":""ruth is hugging beth""}","<img src=""stim_listA/hug7.gif""</stim_listA>",is hugging,
null,"<div style=""font-size:60px;"">+</div>",,html-keyboard-response,238,1126198,0.0-17.0-0.3,49214,List2A,black,man,,,,null,,,,
null,"<img src=""stim_listA/shout3.gif""</stim_listA>",,html-keyboard-response,239,1128200,0.0-17.0-1.3,49214,List2A,black,man,,,,null,,,,
null,is shouting at,,html-keyboard-response,240,1130202,0.0-17.0-2.3,49214,List2A,black,man,,,,null,,,,
7540,,,survey-text,241,1137743,0.0-17.0-3.3,49214,List2A,black,man,,,,,"{""Q0"":""Beth is shouting at mike""}","<img src=""stim_listA/shout3.gif""</stim_listA>",is shouting at,
null,"<div style=""font-size:60px;"">+</div>",,html-keyboard-response,242,1138245,0.0-17.0-0.4,49214,List2A,black,man,,,,null,,,,
null,"<img src=""stim_listA/kiss4.gif""</stim_listA>",,html-keyboard-response,243,1140246,0.0-17.0-1.4,49214,List2A,black,man,,,,null,,,,
null,are kissing each other,,html-keyboard-response,244,1142248,0.0-17.0-2.4,49214,List2A,black,man,,,,null,,,,
6118,,,survey-text,245,1148367,0.0-17.0-3.4,49214,List2A,black,man,,,,,"{""Q0"":""kate is kissing mike""}","<img src=""stim_listA/kiss4.gif""</stim_listA>",are kissing each other,
null,"<div style=""font-size:60px;"">+</div>",,html-keyboard-response,246,1148869,0.0-17.0-0.5,49214,List2A,black,man,,,,null,,,,
null,"<img src=""stim_listA/fight8.gif""</stim_listA>",,html-keyboard-response,247,1150871,0.0-17.0-1.5,49214,List2A,black,man,,,,null,,,,
null,are fighting each other,,html-keyboard-response,248,1152873,0.0-17.0-2.5,49214,List2A,black,man,,,,null,,,,
11286,,,survey-text,249,1164159,0.0-17.0-3.5,49214,List2A,black,man,,,,,"{""Q0"":""beth and ruth are fighting each other""}","<img src=""stim_listA/fight8.gif""</stim_listA>",are fighting each other,
null,"<div style=""font-size:60px;"">+</div>",,html-keyboard-response,250,1164661,0.0-17.0-0.6,49214,List2A,black,man,,,,null,,,,
null,"<img src=""stim_listA/talk6.gif""</stim_listA>",,html-keyboard-response,251,1166663,0.0-17.0-1.6,49214,List2A,black,man,,,,null,,,,
null,are talking to each other,,html-keyboard-response,252,1168665,0.0-17.0-2.6,49214,List2A,black,man,,,,null,,,,
6406,,,survey-text,253,1175072,0.0-17.0-3.6,49214,List2A,black,man,,,,,"{""Q0"":""Mike and dave are talking to each other""}","<img src=""stim_listA/talk6.gif""</stim_listA>",are talking to each other,
null,"<div style=""font-size:60px;"">+</div>",,html-keyboard-response,254,1175574,0.0-17.0-0.7,49214,List2A,black,man,,,,null,,,,
null,"<img src=""stim_listA/dance8.gif""</stim_listA>",,html-keyboard-response,255,1177576,0.0-17.0-1.7,49214,List2A,black,man,,,,null,,,,
null,are dancing with each other,,html-keyboard-response,256,1179579,0.0-17.0-2.7,49214,List2A,black,man,,,,null,,,,
7412,,,survey-text,257,1186992,0.0-17.0-3.7,49214,List2A,black,man,,,,,"{""Q0"":""Beth and ruth are dancing with each other""}","<img src=""stim_listA/dance8.gif""</stim_listA>",are dancing with each other,
null,"<div style=""font-size:60px;"">+</div>",,html-keyboard-response,258,1187494,0.0-17.0-0.8,49214,List2A,black,man,,,,null,,,,
null,"<img src=""stim_listA/touch1.gif""</stim_listA>",,html-keyboard-response,259,1189496,0.0-17.0-1.8,49214,List2A,black,man,,,,null,,,,
null,is touching,,html-keyboard-response,260,1191498,0.0-17.0-2.8,49214,List2A,black,man,,,,null,,,,
9469,,,survey-text,261,1200969,0.0-17.0-3.8,49214,List2A,black,man,,,,,"{""Q0"":""Dave and ruth are touching each other""}","<img src=""stim_listA/touch1.gif""</stim_listA>",is touching,
null,"<div style=""font-size:60px;"">+</div>",,html-keyboard-response,262,1201471,0.0-17.0-0.9,49214,List2A,black,man,,,,null,,,,
null,"<img src=""stim_listA/talk1.gif""</stim_listA>",,html-keyboard-response,263,1203472,0.0-17.0-1.9,49214,List2A,black,man,,,,null,,,,
null,is talking to,,html-keyboard-response,264,1205473,0.0-17.0-2.9,49214,List2A,black,man,,,,null,,,,
5166,,,survey-text,265,1210640,0.0-17.0-3.9,49214,List2A,black,man,,,,,"{""Q0"":""Luke is dancing to ruth""}","<img src=""stim_listA/talk1.gif""</stim_listA>",is talking to,
null,"<div style=""font-size:60px;"">+</div>",,html-keyboard-response,266,1211141,0.0-17.0-0.10,49214,List2A,black,man,,,,null,,,,
null,"<img src=""stim_listA/fight2.gif""</stim_listA>",,html-keyboard-response,267,1213143,0.0-17.0-1.10,49214,List2A,black,man,,,,null,,,,
null,are fighting each other,,html-keyboard-response,268,1215145,0.0-17.0-2.10,49214,List2A,black,man,,,,null,,,,
9278,,,survey-text,269,1224424,0.0-17.0-3.10,49214,List2A,black,man,,,,,"{""Q0"":""Luke is fighting with jane""}","<img src=""stim_listA/fight2.gif""</stim_listA>",are fighting each other,
null,"<div style=""font-size:60px;"">+</div>",,html-keyboard-response,270,1224925,0.0-17.0-0.11,49214,List2A,black,man,,,,null,,,,
null,"<img src=""stim_listA/marry3.gif""</stim_listA>",,html-keyboard-response,271,1226927,0.0-17.0-1.11,49214,List2A,black,man,,,,null,,,,
null,is marrying,,html-keyboard-response,272,1228928,0.0-17.0-2.11,49214,List2A,black,man,,,,null,,,,
6471,,,survey-text,273,1235400,0.0-17.0-3.11,49214,List2A,black,man,,,,,"{""Q0"":""Beth is marrying mike""}","<img src=""stim_listA/marry3.gif""</stim_listA>",is marrying,
null,"<div style=""font-size:60px;"">+</div>",,html-keyboard-response,274,1235902,0.0-17.0-0.12,49214,List2A,black,man,,,,null,,,,
null,"<img src=""stim_listA/argue3.gif""</stim_listA>",,html-keyboard-response,275,1237905,0.0-17.0-1.12,49214,List2A,black,man,,,,null,,,,
null,is arguing with,,html-keyboard-response,276,1239907,0.0-17.0-2.12,49214,List2A,black,man,,,,null,,,,
6084,,,survey-text,277,1245992,0.0-17.0-3.12,49214,List2A,black,man,,,,,"{""Q0"":""Beth is arguing with mike""}","<img src=""stim_listA/argue3.gif""</stim_listA>",is arguing with,
null,"<div style=""font-size:60px;"">+</div>",,html-keyboard-response,278,1246493,0.0-17.0-0.13,49214,List2A,black,man,,,,null,,,,
null,"<img src=""stim_listA/dance7.gif""</stim_listA>",,html-keyboard-response,279,1248495,0.0-17.0-1.13,49214,List2A,black,man,,,,null,,,,
null,is dancing with,,html-keyboard-response,280,1250497,0.0-17.0-2.13,49214,List2A,black,man,,,,null,,,,
5038,,,survey-text,281,1255536,0.0-17.0-3.13,49214,List2A,black,man,,,,,"{""Q0"":""kate is dancing with ruth""}","<img src=""stim_listA/dance7.gif""</stim_listA>",is dancing with,
null,"<div style=""font-size:60px;"">+</div>",,html-keyboard-response,282,1256037,0.0-17.0-0.14,49214,List2A,black,man,,,,null,,,,
null,"<img src=""stim_listA/marry6.gif""</stim_listA>",,html-keyboard-response,283,1258039,0.0-17.0-1.14,49214,List2A,black,man,,,,null,,,,
null,are marrying each other,,html-keyboard-response,284,1260041,0.0-17.0-2.14,49214,List2A,black,man,,,,null,,,,
8046,,,survey-text,285,1268088,0.0-17.0-3.14,49214,List2A,black,man,,,,,"{""Q0"":""mike and luke are marrying each other""}","<img src=""stim_listA/marry6.gif""</stim_listA>",are marrying each other,
null,"<div style=""font-size:60px;"">+</div>",,html-keyboard-response,286,1268591,0.0-17.0-0.15,49214,List2A,black,man,,,,null,,,,
null,"<img src=""stim_listA/talk3.gif""</stim_listA>",,html-keyboard-response,287,1270594,0.0-17.0-1.15,49214,List2A,black,man,,,,null,,,,
null,is talking to,,html-keyboard-response,288,1272597,0.0-17.0-2.15,49214,List2A,black,man,,,,null,,,,
6178,,,survey-text,289,1278776,0.0-17.0-3.15,49214,List2A,black,man,,,,,"{""Q0"":""mIKE IS talking to kate""}","<img src=""stim_listA/talk3.gif""</stim_listA>",is talking to,
null,"<div style=""font-size:60px;"">+</div>",,html-keyboard-response,290,1279277,0.0-17.0-0.16,49214,List2A,black,man,,,,null,,,,
null,"<img src=""stim_listA/touch2.gif""</stim_listA>",,html-keyboard-response,291,1281279,0.0-17.0-1.16,49214,List2A,black,man,,,,null,,,,
null,are touching each other,,html-keyboard-response,292,1283281,0.0-17.0-2.16,49214,List2A,black,man,,,,null,,,,
6477,,,survey-text,293,1289759,0.0-17.0-3.16,49214,List2A,black,man,,,,,"{""Q0"":""Luke and ruth are touching""}","<img src=""stim_listA/touch2.gif""</stim_listA>",are touching each other,
null,"<div style=""font-size:60px;"">+</div>",,html-keyboard-response,294,1290261,0.0-17.0-0.17,49214,List2A,black,man,,,,null,,,,
null,"<img src=""stim_listA/marry1.gif""</stim_listA>",,html-keyboard-response,295,1292263,0.0-17.0-1.17,49214,List2A,black,man,,,,null,,,,
null,is marrying,,html-keyboard-response,296,1294264,0.0-17.0-2.17,49214,List2A,black,man,,,,null,,,,
6542,,,survey-text,297,1300807,0.0-17.0-3.17,49214,List2A,black,man,,,,,"{""Q0"":""dave is touching ruth""}","<img src=""stim_listA/marry1.gif""</stim_listA>",is marrying,
null,"<div style=""font-size:60px;"">+</div>",,html-keyboard-response,298,1301308,0.0-17.0-0.18,49214,List2A,black,man,,,,null,,,,
null,"<img src=""stim_listA/fight5.gif""</stim_listA>",,html-keyboard-response,299,1303312,0.0-17.0-1.18,49214,List2A,black,man,,,,null,,,,
null,is fighting,,html-keyboard-response,300,1305314,0.0-17.0-2.18,49214,List2A,black,man,,,,null,,,,
6244,,,survey-text,301,1311559,0.0-17.0-3.18,49214,List2A,black,man,,,,,"{""Q0"":""dave is fighting mike""}","<img src=""stim_listA/fight5.gif""</stim_listA>",is fighting,
null,"<div style=""font-size:60px;"">+</div>",,html-keyboard-response,302,1312061,0.0-17.0-0.19,49214,List2A,black,man,,,,null,,,,
null,"<img src=""stim_listA/kiss3.gif""</stim_listA>",,html-keyboard-response,303,1314063,0.0-17.0-1.19,49214,List2A,black,man,,,,null,,,,
null,is kissing,,html-keyboard-response,304,1316064,0.0-17.0-2.19,49214,List2A,black,man,,,,null,,,,
6247,,,survey-text,305,1322312,0.0-17.0-3.19,49214,List2A,black,man,,,,,"{""Q0"":""beth is marrying fred""}","<img src=""stim_listA/kiss3.gif""</stim_listA>",is kissing,
1791,"<img src='img/portrait_matrix_list2.JPG' style='width:900px;height:500px;''></img><p>If you have memorised all the portraits and names and are ready to start, press Continue.</p><p><strong>Please note: Your memory of these faces will be tested 4 times during this experiment.</strong></p>",0,html-button-response,306,1324103,0.0-18.0-0.0,49214,List2A,black,man,,,,,,,,
2453,"<img src=""portrait/WW1.jpg""style=""width:400px;height:400px;""></img>",1,html-button-response,307,1327559,0.0-18.0-1.0,49214,List2A,black,man,,TRUE,1,,,,,
null,CORRECT,,html-keyboard-response,308,1329061,0.0-18.0-2.0-0.0,49214,List2A,black,man,,,,null,,,,
3929,"<img src=""portrait/WM2.jpg""style=""width:400px;height:400px;""></img>",7,html-button-response,309,1332992,0.0-18.0-4.0,49214,List2A,black,man,,TRUE,7,,,,,
null,CORRECT,,html-keyboard-response,310,1334496,0.0-18.0-5.0-0.0,49214,List2A,black,man,,,,null,,,,
1263,"<img src=""portrait/BW1.jpg""style=""width:400px;height:400px;""></img>",0,html-button-response,311,1335759,0.0-18.0-7.0,49214,List2A,black,man,,TRUE,0,,,,,
null,CORRECT,,html-keyboard-response,312,1337263,0.0-18.0-8.0-0.0,49214,List2A,black,man,,,,null,,,,
1680,"<img src=""portrait/WW2.jpg""style=""width:400px;height:400px;""></img>",3,html-button-response,313,1338944,0.0-18.0-10.0,49214,List2A,black,man,,TRUE,3,,,,,
null,CORRECT,,html-keyboard-response,314,1340448,0.0-18.0-11.0-0.0,49214,List2A,black,man,,,,null,,,,
2246,"<img src=""portrait/WM1.jpg""style=""width:400px;height:400px;""></img>",6,html-button-response,315,1342696,0.0-18.0-13.0,49214,List2A,black,man,,TRUE,6,,,,,
null,CORRECT,,html-keyboard-response,316,1344198,0.0-18.0-14.0-0.0,49214,List2A,black,man,,,,null,,,,
1665,"<img src=""portrait/BW2.jpg""style=""width:400px;height:400px;""></img>",2,html-button-response,317,1345864,0.0-18.0-16.0,49214,List2A,black,man,,TRUE,2,,,,,
null,CORRECT,,html-keyboard-response,318,1347366,0.0-18.0-17.0-0.0,49214,List2A,black,man,,,,null,,,,
2664,"<img src=""portrait/BM1.jpg""style=""width:400px;height:400px;""></img>",5,html-button-response,319,1350032,0.0-18.0-19.0,49214,List2A,black,man,,TRUE,4,,,,,
2509,"<img src=""portrait/BM1.jpg""style=""width:400px;height:400px;""></img>",4,html-button-response,320,1353544,0.0-18.0-21.0-0.0,49214,List2A,black,man,,FALSE,4,,,,,
null,CORRECT,,html-keyboard-response,321,1355048,0.0-18.0-21.0-1.0-0.0,49214,List2A,black,man,,,,null,,,,
2471,"<img src=""portrait/BM2.jpg""style=""width:400px;height:400px;""></img>",5,html-button-response,322,1357520,0.0-18.0-22.0,49214,List2A,black,man,,TRUE,5,,,,,
null,CORRECT,,html-keyboard-response,323,1359024,0.0-18.0-23.0-0.0,49214,List2A,black,man,,,,null,,,,
1870,<p>You got 7 out of 8 right first time. Press Continue.</p>,0,html-button-response,324,1360895,0.0-18.0-25.0,49214,List2A,black,man,,,,,,,,
6189,"As you did not score 100%, the memory game will repeat. Press Continue.",0,html-button-response,325,1368087,0.0-18.0-26.0-0.0,49214,List2A,black,man,,,,,,,,
1214,"<img src='img/portrait_matrix_list2.JPG' style='width:900px;height:500px;''></img><p>If you have memorised all the portraits and names and are ready to start, press Continue.</p><p><strong>Please note: Your memory of these faces will be tested 4 times during this experiment.</strong></p>",0,html-button-response,326,1370303,0.0-18.1-0.1,49214,List2A,black,man,,,,,,,,
6773,"<img src=""portrait/WW1.jpg""style=""width:400px;height:400px;""></img>",1,html-button-response,327,1378079,0.0-18.1-1.1,49214,List2A,black,man,,TRUE,1,,,,,
null,CORRECT,,html-keyboard-response,328,1379582,0.0-18.1-2.1-0.1,49214,List2A,black,man,,,,null,,,,
2576,"<img src=""portrait/WM2.jpg""style=""width:400px;height:400px;""></img>",7,html-button-response,329,1382160,0.0-18.1-4.1,49214,List2A,black,man,,TRUE,7,,,,,
null,CORRECT,,html-keyboard-response,330,1383663,0.0-18.1-5.1-0.1,49214,List2A,black,man,,,,null,,,,
3735,"<img src=""portrait/BW1.jpg""style=""width:400px;height:400px;""></img>",0,html-button-response,331,1387400,0.0-18.1-7.1,49214,List2A,black,man,,TRUE,0,,,,,
null,CORRECT,,html-keyboard-response,332,1388904,0.0-18.1-8.1-0.1,49214,List2A,black,man,,,,null,,,,
2854,"<img src=""portrait/WW2.jpg""style=""width:400px;height:400px;""></img>",3,html-button-response,333,1391760,0.0-18.1-10.1,49214,List2A,black,man,,TRUE,3,,,,,
null,CORRECT,,html-keyboard-response,334,1393263,0.0-18.1-11.1-0.1,49214,List2A,black,man,,,,null,,,,
2695,"<img src=""portrait/WM1.jpg""style=""width:400px;height:400px;""></img>",6,html-button-response,335,1395960,0.0-18.1-13.1,49214,List2A,black,man,,TRUE,6,,,,,
null,CORRECT,,html-keyboard-response,336,1397463,0.0-18.1-14.1-0.1,49214,List2A,black,man,,,,null,,,,
1726,"<img src=""portrait/BW2.jpg""style=""width:400px;height:400px;""></img>",2,html-button-response,337,1399192,0.0-18.1-16.1,49214,List2A,black,man,,TRUE,2,,,,,
null,CORRECT,,html-keyboard-response,338,1400695,0.0-18.1-17.1-0.1,49214,List2A,black,man,,,,null,,,,
2223,"<img src=""portrait/BM1.jpg""style=""width:400px;height:400px;""></img>",4,html-button-response,339,1402919,0.0-18.1-19.1,49214,List2A,black,man,,TRUE,4,,,,,
null,CORRECT,,html-keyboard-response,340,1404422,0.0-18.1-20.1-0.1,49214,List2A,black,man,,,,null,,,,
2208,"<img src=""portrait/BM2.jpg""style=""width:400px;height:400px;""></img>",5,html-button-response,341,1406632,0.0-18.1-22.1,49214,List2A,black,man,,TRUE,5,,,,,
null,CORRECT,,html-keyboard-response,342,1408134,0.0-18.1-23.1-0.1,49214,List2A,black,man,,,,null,,,,
1328,<p>You got 8 out of 8 right first time. Press Continue.</p>,0,html-button-response,343,1409464,0.0-18.1-25.1,49214,List2A,black,man,,,,,,,,
null,"<div style=""font-size:60px;"">+</div>",,html-keyboard-response,344,1410966,0.0-19.0-0.0,49214,List2A,black,man,,,,null,,,,
null,"<img src=""stim_listA/marry4.gif""</stim_listA>",,html-keyboard-response,345,1412969,0.0-19.0-1.0,49214,List2A,black,man,,,,null,,,,
null,are marrying each other,,html-keyboard-response,346,1414972,0.0-19.0-2.0,49214,List2A,black,man,,,,null,,,,
6763,,,survey-text,347,1421736,0.0-19.0-3.0,49214,List2A,black,man,,,,,"{""Q0"":""kate and fred are marrying each other""}","<img src=""stim_listA/marry4.gif""</stim_listA>",are marrying each other,
null,"<div style=""font-size:60px;"">+</div>",,html-keyboard-response,348,1422239,0.0-19.0-0.1,49214,List2A,black,man,,,,null,,,,
null,"<img src=""stim_listA/kiss2.gif""</stim_listA>",,html-keyboard-response,349,1424240,0.0-19.0-1.1,49214,List2A,black,man,,,,null,,,,
null,are kissing each other,,html-keyboard-response,350,1426242,0.0-19.0-2.1,49214,List2A,black,man,,,,null,,,,
6189,,,survey-text,351,1432432,0.0-19.0-3.1,49214,List2A,black,man,,,,,"{""Q0"":""dave and jane are kissing each other""}","<img src=""stim_listA/kiss2.gif""</stim_listA>",are kissing each other,
null,"<div style=""font-size:60px;"">+</div>",,html-keyboard-response,352,1432933,0.0-19.0-0.2,49214,List2A,black,man,,,,null,,,,
null,"<img src=""stim_listA/hug2.gif""</stim_listA>",,html-keyboard-response,353,1434936,0.0-19.0-1.2,49214,List2A,black,man,,,,null,,,,
null,are hugging each other,,html-keyboard-response,354,1436937,0.0-19.0-2.2,49214,List2A,black,man,,,,null,,,,
6982,,,survey-text,355,1443920,0.0-19.0-3.2,49214,List2A,black,man,,,,,"{""Q0"":""dave and jane are hugging each other""}","<img src=""stim_listA/hug2.gif""</stim_listA>",are hugging each other,
null,"<div style=""font-size:60px;"">+</div>",,html-keyboard-response,356,1444423,0.0-19.0-0.3,49214,List2A,black,man,,,,null,,,,
null,"<img src=""stim_listA/shout6.gif""</stim_listA>",,html-keyboard-response,357,1446425,0.0-19.0-1.3,49214,List2A,black,man,,,,null,,,,
null,are shouting at each other,,html-keyboard-response,358,1448427,0.0-19.0-2.3,49214,List2A,black,man,,,,null,,,,
10589,,,survey-text,359,1459016,0.0-19.0-3.3,49214,List2A,black,man,,,,,"{""Q0"":""mike and dave are shouting at each other""}","<img src=""stim_listA/shout6.gif""</stim_listA>",are shouting at each other,
null,"<div style=""font-size:60px;"">+</div>",,html-keyboard-response,360,1459518,0.0-19.0-0.4,49214,List2A,black,man,,,,null,,,,
null,"<img src=""stim_listA/meet7.gif""</stim_listA>",,html-keyboard-response,361,1461519,0.0-19.0-1.4,49214,List2A,black,man,,,,null,,,,
null,is meeting,,html-keyboard-response,362,1463521,0.0-19.0-2.4,49214,List2A,black,man,,,,null,,,,
3765,,,survey-text,363,1467288,0.0-19.0-3.4,49214,List2A,black,man,,,,,"{""Q0"":""kate is meeting jane""}","<img src=""stim_listA/meet7.gif""</stim_listA>",is meeting,
null,"<div style=""font-size:60px;"">+</div>",,html-keyboard-response,364,1467790,0.0-19.0-0.5,49214,List2A,black,man,,,,null,,,,
null,"<img src=""stim_listA/argue6.gif""</stim_listA>",,html-keyboard-response,365,1469792,0.0-19.0-1.5,49214,List2A,black,man,,,,null,,,,
null,are arguing with each other,,html-keyboard-response,366,1471794,0.0-19.0-2.5,49214,List2A,black,man,,,,null,,,,
10093,,,survey-text,367,1481888,0.0-19.0-3.5,49214,List2A,black,man,,,,,"{""Q0"":""luke and mike are arguing with each other""}","<img src=""stim_listA/argue6.gif""</stim_listA>",are arguing with each other,
null,"<div style=""font-size:60px;"">+</div>",,html-keyboard-response,368,1482390,0.0-19.0-0.6,49214,List2A,black,man,,,,null,,,,
null,"<img src=""stim_listA/fight3.gif""</stim_listA>",,html-keyboard-response,369,1484392,0.0-19.0-1.6,49214,List2A,black,man,,,,null,,,,
null,is fighting,,html-keyboard-response,370,1486394,0.0-19.0-2.6,49214,List2A,black,man,,,,null,,,,
5445,,,survey-text,371,1491839,0.0-19.0-3.6,49214,List2A,black,man,,,,,"{""Q0"":""mike and kate are fighting""}","<img src=""stim_listA/fight3.gif""</stim_listA>",is fighting,
null,"<div style=""font-size:60px;"">+</div>",,html-keyboard-response,372,1492341,0.0-19.0-0.7,49214,List2A,black,man,,,,null,,,,
null,"<img src=""stim_listA/hug1.gif""</stim_listA>",,html-keyboard-response,373,1494344,0.0-19.0-1.7,49214,List2A,black,man,,,,null,,,,
null,is hugging,,html-keyboard-response,374,1496346,0.0-19.0-2.7,49214,List2A,black,man,,,,null,,,,
5364,,,survey-text,375,1501712,0.0-19.0-3.7,49214,List2A,black,man,,,,,"{""Q0"":""luke and ruth are hugging""}","<img src=""stim_listA/hug1.gif""</stim_listA>",is hugging,
null,"<div style=""font-size:60px;"">+</div>",,html-keyboard-response,376,1502213,0.0-19.0-0.8,49214,List2A,black,man,,,,null,,,,
null,"<img src=""stim_listA/meet2.gif""</stim_listA>",,html-keyboard-response,377,1504214,0.0-19.0-1.8,49214,List2A,black,man,,,,null,,,,
null,are meeting each other,,html-keyboard-response,378,1506216,0.0-19.0-2.8,49214,List2A,black,man,,,,null,,,,
7102,,,survey-text,379,1513320,0.0-19.0-3.8,49214,List2A,black,man,,,,,"{""Q0"":""luke and ruth are meeting each other""}","<img src=""stim_listA/meet2.gif""</stim_listA>",are meeting each other,
null,"<div style=""font-size:60px;"">+</div>",,html-keyboard-response,380,1513821,0.0-19.0-0.9,49214,List2A,black,man,,,,null,,,,
null,"<img src=""stim_listA/shout4.gif""</stim_listA>",,html-keyboard-response,381,1515823,0.0-19.0-1.9,49214,List2A,black,man,,,,null,,,,
null,are shouting at each other,,html-keyboard-response,382,1517825,0.0-19.0-2.9,49214,List2A,black,man,,,,null,,,,
8918,,,survey-text,383,1526744,0.0-19.0-3.9,49214,List2A,black,man,,,,,"{""Q0"":""mike and kate are shouting at each other""}","<img src=""stim_listA/shout4.gif""</stim_listA>",are shouting at each other,
null,"<div style=""font-size:60px;"">+</div>",,html-keyboard-response,384,1527245,0.0-19.0-0.10,49214,List2A,black,man,,,,null,,,,
null,"<img src=""stim_listA/touch8.gif""</stim_listA>",,html-keyboard-response,385,1529247,0.0-19.0-1.10,49214,List2A,black,man,,,,null,,,,
null,are touching each other,,html-keyboard-response,386,1531250,0.0-19.0-2.10,49214,List2A,black,man,,,,null,,,,
8972,,,survey-text,387,1540224,0.0-19.0-3.10,49214,List2A,black,man,,,,,"{""Q0"":""beth and ruth are touching each other""}","<img src=""stim_listA/touch8.gif""</stim_listA>",are touching each other,
null,"<div style=""font-size:60px;"">+</div>",,html-keyboard-response,388,1540725,0.0-19.0-0.11,49214,List2A,black,man,,,,null,,,,
null,"<img src=""stim_listA/hug6.gif""</stim_listA>",,html-keyboard-response,389,1542728,0.0-19.0-1.11,49214,List2A,black,man,,,,null,,,,
null,are hugging each other,,html-keyboard-response,390,1544729,0.0-19.0-2.11,49214,List2A,black,man,,,,null,,,,
9878,,,survey-text,391,1554608,0.0-19.0-3.11,49214,List2A,black,man,,,,,"{""Q0"":""mike and dave are hugging each other""}","<img src=""stim_listA/hug6.gif""</stim_listA>",are hugging each other,
null,"<div style=""font-size:60px;"">+</div>",,html-keyboard-response,392,1555109,0.0-19.0-0.12,49214,List2A,black,man,,,,null,,,,
null,"<img src=""stim_listA/argue5.gif""</stim_listA>",,html-keyboard-response,393,1557112,0.0-19.0-1.12,49214,List2A,black,man,,,,null,,,,
null,is arguing with,,html-keyboard-response,394,1559114,0.0-19.0-2.12,49214,List2A,black,man,,,,null,,,,
7564,,,survey-text,395,1566680,0.0-19.0-3.12,49214,List2A,black,man,,,,,"{""Q0"":""Dave is arguing with fred""}","<img src=""stim_listA/argue5.gif""</stim_listA>",is arguing with,
null,"<div style=""font-size:60px;"">+</div>",,html-keyboard-response,396,1567182,0.0-19.0-0.13,49214,List2A,black,man,,,,null,,,,
null,"<img src=""stim_listA/shout5.gif""</stim_listA>",,html-keyboard-response,397,1569184,0.0-19.0-1.13,49214,List2A,black,man,,,,null,,,,
null,is shouting at,,html-keyboard-response,398,1571186,0.0-19.0-2.13,49214,List2A,black,man,,,,null,,,,
5276,,,survey-text,399,1576464,0.0-19.0-3.13,49214,List2A,black,man,,,,,"{""Q0"":""fred is shouting at luke""}","<img src=""stim_listA/shout5.gif""</stim_listA>",is shouting at,
null,"<div style=""font-size:60px;"">+</div>",,html-keyboard-response,400,1576966,0.0-19.0-0.14,49214,List2A,black,man,,,,null,,,,
null,"<img src=""stim_listA/hug4.gif""</stim_listA>",,html-keyboard-response,401,1578968,0.0-19.0-1.14,49214,List2A,black,man,,,,null,,,,
null,are hugging each other,,html-keyboard-response,402,1580970,0.0-19.0-2.14,49214,List2A,black,man,,,,null,,,,
6252,,,survey-text,403,1587224,0.0-19.0-3.14,49214,List2A,black,man,,,,,"{""Q0"":""mike and kate are hugging each other""}","<img src=""stim_listA/hug4.gif""</stim_listA>",are hugging each other,
null,"<div style=""font-size:60px;"">+</div>",,html-keyboard-response,404,1587724,0.0-19.0-0.15,49214,List2A,black,man,,,,null,,,,
null,"<img src=""stim_listA/shout7.gif""</stim_listA>",,html-keyboard-response,405,1589726,0.0-19.0-1.15,49214,List2A,black,man,,,,null,,,,
null,is shouting at,,html-keyboard-response,406,1591728,0.0-19.0-2.15,49214,List2A,black,man,,,,null,,,,
4175,,,survey-text,407,1595904,0.0-19.0-3.15,49214,List2A,black,man,,,,,"{""Q0"":""beth is shouting at ruth""}","<img src=""stim_listA/shout7.gif""</stim_listA>",is shouting at,
null,"<div style=""font-size:60px;"">+</div>",,html-keyboard-response,408,1596405,0.0-19.0-0.16,49214,List2A,black,man,,,,null,,,,
null,"<img src=""stim_listA/touch6.gif""</stim_listA>",,html-keyboard-response,409,1598408,0.0-19.0-1.16,49214,List2A,black,man,,,,null,,,,
null,are touching each other,,html-keyboard-response,410,1600410,0.0-19.0-2.16,49214,List2A,black,man,,,,null,,,,
6404,,,survey-text,411,1606816,0.0-19.0-3.16,49214,List2A,black,man,,,,,"{""Q0"":""mike and luke are touching each other""}","<img src=""stim_listA/touch6.gif""</stim_listA>",are touching each other,
null,"<div style=""font-size:60px;"">+</div>",,html-keyboard-response,412,1607319,0.0-19.0-0.17,49214,List2A,black,man,,,,null,,,,
null,"<img src=""stim_listA/fight6.gif""</stim_listA>",,html-keyboard-response,413,1609320,0.0-19.0-1.17,49214,List2A,black,man,,,,null,,,,
null,are fighting each other,,html-keyboard-response,414,1611322,0.0-19.0-2.17,49214,List2A,black,man,,,,null,,,,
7445,,,survey-text,415,1618768,0.0-19.0-3.17,49214,List2A,black,man,,,,,"{""Q0"":""luke and mike are fighting each other""}","<img src=""stim_listA/fight6.gif""</stim_listA>",are fighting each other,
null,"<div style=""font-size:60px;"">+</div>",,html-keyboard-response,416,1619269,0.0-19.0-0.18,49214,List2A,black,man,,,,null,,,,
null,"<img src=""stim_listA/fight1.gif""</stim_listA>",,html-keyboard-response,417,1621272,0.0-19.0-1.18,49214,List2A,black,man,,,,null,,,,
null,is fighting,,html-keyboard-response,418,1623274,0.0-19.0-2.18,49214,List2A,black,man,,,,null,,,,
8925,,,survey-text,419,1632200,0.0-19.0-3.18,49214,List2A,black,man,,,,,"{""Q0"":""dave is fighting jane""}","<img src=""stim_listA/fight1.gif""</stim_listA>",is fighting,
null,"<div style=""font-size:60px;"">+</div>",,html-keyboard-response,420,1632701,0.0-19.0-0.19,49214,List2A,black,man,,,,null,,,,
null,"<img src=""stim_listA/kiss1.gif""</stim_listA>",,html-keyboard-response,421,1634703,0.0-19.0-1.19,49214,List2A,black,man,,,,null,,,,
null,is kissing,,html-keyboard-response,422,1636704,0.0-19.0-2.19,49214,List2A,black,man,,,,null,,,,
4846,,,survey-text,423,1641552,0.0-19.0-3.19,49214,List2A,black,man,,,,,"{""Q0"":""ruth is kissing luke""}","<img src=""stim_listA/kiss1.gif""</stim_listA>",is kissing,
3614,<p>Thank you for completing that task.</p><p>The final part of this session is a short questionnaire.</p><p>Press Continue.</p>,0,html-button-response,424,1645168,0.0-20.0,49214,List2A,black,man,,,,,,,,
29212,,,survey-text,425,1675381,0.0-21.0,49214,List2A,black,man,,,,,"{""Q0"":""34"",""Q1"":""english"",""Q2"":""english"",""Q3"":""uk"",""Q4"":""black"",""Q5"":""male""}",,,demographics
44534,,,survey-likert,426,1719921,0.0-22.0,49214,List2A,black,man,,,,,"{""Q0"":5,""Q1"":4,""Q2"":5,""Q3"":4,""Q4"":4,""Q5"":4,""Q6"":4,""Q7"":5,""Q8"":5,""Q9"":5,""Q10"":3,""Q11"":3,""Q12"":4,""Q13"":4}",,,likert_race
40953,,,survey-likert,427,1760882,0.0-23.0,49214,List2A,black,man,,,,,"{""Q0"":3,""Q1"":3,""Q2"":3,""Q3"":6,""Q4"":4,""Q5"":5,""Q6"":5,""Q7"":2,""Q8"":4,""Q9"":5,""Q10"":5,""Q11"":4,""Q12"":5,""Q13"":5}",,,likert_gender
8953,,,survey-text,428,1769840,0.0-24.0,49214,List2A,black,man,,,,,"{""Q0"":""ccc""}",,,worker_id
6745,,,external-html,429,1776672,0.0-25.0,49214,List2A,black,man,debrief.html,,,,,,,
