rt,stimulus,button_pressed,trial_type,trial_index,time_elapsed,internal_node_id,subject,list,ppt_race,ppt_gender,url,first_guess,correct,key_press,responses,image_type,phrase_type,test_part
5378,Welcome to the experiment. Press Continue to begin.,0,html-button-response,0,5495,0.0-0.0,50708,List1A,black,man,,,,,,,,
76367,,,external-html,1,82912,0.0-1.0,50708,List1A,black,man,consent.html,,,,,,,
11527,"<p>On the next page, you will see portraits of 8 people and their names.</p><p>Your first task is to take a few minutes to memorise the names of these people.</p><p>You will have to recall their names during the rest of the experiment, so it is</p><p>essential that you try to memorise these people and their names as best as you can.</p><br><p><strong>You will then be tested on your memory of these names and portraits.</strong></p><br><p>The experiment will start after you have completed this memory test.</p><br><p>Ready?</p>",0,html-button-response,2,94442,0.0-2.0,50708,List1A,black,man,,,,,,,,
110787,"<img src='img/portrait_matrix_list1.JPG' style='width:900px;height:500px;''></img><p>If you have memorised all the portraits and names and are ready to start, press Continue.</p><p><strong>Please note: Your memory of these faces will be tested 4 times during this experiment.</strong></p>",0,html-button-response,3,206235,0.0-3.0-0.0,50708,List1A,black,man,,,,,,,,
7819,"<img src=""portrait/WM2.jpg""style=""width:400px;height:400px;""></img>",7,html-button-response,4,215060,0.0-3.0-1.0,50708,List1A,black,man,,TRUE,7,,,,,
null,CORRECT,,html-keyboard-response,5,216572,0.0-3.0-2.0-0.0,50708,List1A,black,man,,,,null,,,,
5922,"<img src=""portrait/WM1.jpg""style=""width:400px;height:400px;""></img>",6,html-button-response,6,222496,0.0-3.0-4.0,50708,List1A,black,man,,TRUE,6,,,,,
null,CORRECT,,html-keyboard-response,7,224005,0.0-3.0-5.0-0.0,50708,List1A,black,man,,,,null,,,,
2899,"<img src=""portrait/WW2.jpg""style=""width:400px;height:400px;""></img>",3,html-button-response,8,226906,0.0-3.0-7.0,50708,List1A,black,man,,TRUE,3,,,,,
null,CORRECT,,html-keyboard-response,9,228417,0.0-3.0-8.0-0.0,50708,List1A,black,man,,,,null,,,,
4113,"<img src=""portrait/BW1.jpg""style=""width:400px;height:400px;""></img>",0,html-button-response,10,232532,0.0-3.0-10.0,50708,List1A,black,man,,TRUE,0,,,,,
null,CORRECT,,html-keyboard-response,11,234035,0.0-3.0-11.0-0.0,50708,List1A,black,man,,,,null,,,,
3351,"<img src=""portrait/BM2.jpg""style=""width:400px;height:400px;""></img>",5,html-button-response,12,237387,0.0-3.0-13.0,50708,List1A,black,man,,TRUE,5,,,,,
null,CORRECT,,html-keyboard-response,13,238894,0.0-3.0-14.0-0.0,50708,List1A,black,man,,,,null,,,,
3420,"<img src=""portrait/BM1.jpg""style=""width:400px;height:400px;""></img>",4,html-button-response,14,242316,0.0-3.0-16.0,50708,List1A,black,man,,TRUE,4,,,,,
null,CORRECT,,html-keyboard-response,15,243823,0.0-3.0-17.0-0.0,50708,List1A,black,man,,,,null,,,,
2991,"<img src=""portrait/WW1.jpg""style=""width:400px;height:400px;""></img>",1,html-button-response,16,246816,0.0-3.0-19.0,50708,List1A,black,man,,TRUE,1,,,,,
null,CORRECT,,html-keyboard-response,17,248327,0.0-3.0-20.0-0.0,50708,List1A,black,man,,,,null,,,,
2233,"<img src=""portrait/BW2.jpg""style=""width:400px;height:400px;""></img>",2,html-button-response,18,250562,0.0-3.0-22.0,50708,List1A,black,man,,TRUE,2,,,,,
null,CORRECT,,html-keyboard-response,19,252068,0.0-3.0-23.0-0.0,50708,List1A,black,man,,,,null,,,,
1387,<p>You got 8 out of 8 right first time. Press Continue.</p>,0,html-button-response,20,253456,0.0-3.0-25.0,50708,List1A,black,man,,,,,,,,
48419,"<p>In this experiment, you will view photographs of the people from the memory game interacting.</p><p>By using the <strong>exact</strong> phrase given <i>after</i> the photograph appears and recalling the correct names of the people in the photographs, form a sentence describing the interaction. You do not need to capitalise names.</p><p>Type your answer in the space provided. Please complete every sentence before moving onto the next trial.</p><p>You will only have a few seconds to memorise each given photograph and phrase before you can respond, so try your best to focus.</p><p>An example is given below. Press 'Continue' when you are ready.</p><img src='img/speaking_example_v2.jpg' style='width:800px;height:460px;''></img>",0,html-button-response,21,302879,0.0-4.0,50708,List1A,black,man,,,,,,,,
15651,"<p>Before the experiment starts, you will watch two example trials. Press 'Continue'.</p>",0,html-button-response,22,319532,0.0-5.0,50708,List1A,black,man,,,,,,,,
null,<img src='img/speaking_WW.gif'></img>,,html-keyboard-response,23,322538,0.0-6.0,50708,List1A,black,man,,,,null,,,,
null,<p>is speaking to</p>,,html-keyboard-response,24,324541,0.0-7.0,50708,List1A,black,man,,,,null,,,,
5470,<p><b>Answer:</b> kate is speaking to beth</p>,0,html-button-response,25,330011,0.0-8.0,50708,List1A,black,man,,,,,,,,
null,<img src='img/pointing_BM.gif'></img>,,html-keyboard-response,26,333016,0.0-9.0,50708,List1A,black,man,,,,null,,,,
null,<p>are pointing at each other</p>,,html-keyboard-response,27,335020,0.0-10.0,50708,List1A,black,man,,,,null,,,,
4077,<p><b>Answer:</b> luke and dave are pointing at each other</p>,0,html-button-response,28,339097,0.0-11.0,50708,List1A,black,man,,,,,,,,
11851,"<p>Ready to start the experiment?</p><br><p><strong>Remember to describe the picture using a full sentence,</strong></p><p><strong>that combines the names of the people with the given phrase.</strong></p><p><strong>If you do not do this correctly you will not be paid.</strong></p><p><strong> You do not need to capitalise names or use punctuation.</strong></p><br><p>Press 'Continue' to begin.</p>",0,html-button-response,29,351952,0.0-12.0,50708,List1A,black,man,,,,,,,,
null,"<div style=""font-size:60px;"">+</div>",,html-keyboard-response,30,353464,0.0-13.0-0.0,50708,List1A,black,man,,,,null,,,,
null,"<img src=""stim_listA/argue3.gif""</stim_listA>",,html-keyboard-response,31,355466,0.0-13.0-1.0,50708,List1A,black,man,,,,null,,,,
null,is arguing with,,html-keyboard-response,32,357469,0.0-13.0-2.0,50708,List1A,black,man,,,,null,,,,
44284,,,survey-text,33,401756,0.0-13.0-3.0,50708,List1A,black,man,,,,,"{""Q0"":""Dave is arguing with Ruth""}","<img src=""stim_listA/argue3.gif""</stim_listA>",is arguing with,
null,"<div style=""font-size:60px;"">+</div>",,html-keyboard-response,34,402263,0.0-13.0-0.1,50708,List1A,black,man,,,,null,,,,
null,"<img src=""stim_listA/hug3.gif""</stim_listA>",,html-keyboard-response,35,404268,0.0-13.0-1.1,50708,List1A,black,man,,,,null,,,,
null,is hugging,,html-keyboard-response,36,406272,0.0-13.0-2.1,50708,List1A,black,man,,,,null,,,,
20450,,,survey-text,37,426724,0.0-13.0-3.1,50708,List1A,black,man,,,,,"{""Q0"":"" Luke is hugging Ruth""}","<img src=""stim_listA/hug3.gif""</stim_listA>",is hugging,
null,"<div style=""font-size:60px;"">+</div>",,html-keyboard-response,38,427226,0.0-13.0-0.2,50708,List1A,black,man,,,,null,,,,
null,"<img src=""stim_listA/shout4.gif""</stim_listA>",,html-keyboard-response,39,429232,0.0-13.0-1.2,50708,List1A,black,man,,,,null,,,,
null,are shouting at each other,,html-keyboard-response,40,431237,0.0-13.0-2.2,50708,List1A,black,man,,,,null,,,,
28314,,,survey-text,41,459552,0.0-13.0-3.2,50708,List1A,black,man,,,,,"{""Q0"":""Dave and Jane are shouting at each other""}","<img src=""stim_listA/shout4.gif""</stim_listA>",are shouting at each other,
null,"<div style=""font-size:60px;"">+</div>",,html-keyboard-response,42,460055,0.0-13.0-0.3,50708,List1A,black,man,,,,null,,,,
null,"<img src=""stim_listA/hug6.gif""</stim_listA>",,html-keyboard-response,43,462062,0.0-13.0-1.3,50708,List1A,black,man,,,,null,,,,
null,are hugging each other,,html-keyboard-response,44,464067,0.0-13.0-2.3,50708,List1A,black,man,,,,null,,,,
18933,,,survey-text,45,483001,0.0-13.0-3.3,50708,List1A,black,man,,,,,"{""Q0"":""Mike and Dave are hugging each other""}","<img src=""stim_listA/hug6.gif""</stim_listA>",are hugging each other,
null,"<div style=""font-size:60px;"">+</div>",,html-keyboard-response,46,483504,0.0-13.0-0.4,50708,List1A,black,man,,,,null,,,,
null,"<img src=""stim_listA/fight6.gif""</stim_listA>",,html-keyboard-response,47,485509,0.0-13.0-1.4,50708,List1A,black,man,,,,null,,,,
null,are fighting each other,,html-keyboard-response,48,487510,0.0-13.0-2.4,50708,List1A,black,man,,,,null,,,,
16940,,,survey-text,49,504450,0.0-13.0-3.4,50708,List1A,black,man,,,,,"{""Q0"":""Luke and Fred are fighting each other""}","<img src=""stim_listA/fight6.gif""</stim_listA>",are fighting each other,
null,"<div style=""font-size:60px;"">+</div>",,html-keyboard-response,50,504953,0.0-13.0-0.5,50708,List1A,black,man,,,,null,,,,
null,"<img src=""stim_listA/touch1.gif""</stim_listA>",,html-keyboard-response,51,506958,0.0-13.0-1.5,50708,List1A,black,man,,,,null,,,,
null,is touching,,html-keyboard-response,52,508959,0.0-13.0-2.5,50708,List1A,black,man,,,,null,,,,
24848,,,survey-text,53,533807,0.0-13.0-3.5,50708,List1A,black,man,,,,,"{""Q0"":""Mike and Kate is touching""}","<img src=""stim_listA/touch1.gif""</stim_listA>",is touching,
null,"<div style=""font-size:60px;"">+</div>",,html-keyboard-response,54,534309,0.0-13.0-0.6,50708,List1A,black,man,,,,null,,,,
null,"<img src=""stim_listA/hug8.gif""</stim_listA>",,html-keyboard-response,55,536315,0.0-13.0-1.6,50708,List1A,black,man,,,,null,,,,
null,are hugging each other,,html-keyboard-response,56,538317,0.0-13.0-2.6,50708,List1A,black,man,,,,null,,,,
17905,,,survey-text,57,556222,0.0-13.0-3.6,50708,List1A,black,man,,,,,"{""Q0"":""Jane and Kate are hugging each other""}","<img src=""stim_listA/hug8.gif""</stim_listA>",are hugging each other,
null,"<div style=""font-size:60px;"">+</div>",,html-keyboard-response,58,556724,0.0-13.0-0.7,50708,List1A,black,man,,,,null,,,,
null,"<img src=""stim_listA/dance4.gif""</stim_listA>",,html-keyboard-response,59,558728,0.0-13.0-1.7,50708,List1A,black,man,,,,null,,,,
null,are dancing with each other,,html-keyboard-response,60,560729,0.0-13.0-2.7,50708,List1A,black,man,,,,null,,,,
16120,,,survey-text,61,576850,0.0-13.0-3.7,50708,List1A,black,man,,,,,"{""Q0"":""Dave and Ruth are dancing with each other""}","<img src=""stim_listA/dance4.gif""</stim_listA>",are dancing with each other,
null,"<div style=""font-size:60px;"">+</div>",,html-keyboard-response,62,577352,0.0-13.0-0.8,50708,List1A,black,man,,,,null,,,,
null,"<img src=""stim_listA/shout7.gif""</stim_listA>",,html-keyboard-response,63,579358,0.0-13.0-1.8,50708,List1A,black,man,,,,null,,,,
null,is shouting at,,html-keyboard-response,64,581359,0.0-13.0-2.8,50708,List1A,black,man,,,,null,,,,
19845,,,survey-text,65,601205,0.0-13.0-3.8,50708,List1A,black,man,,,,,"{""Q0"":""Ruth is shouting at Beth""}","<img src=""stim_listA/shout7.gif""</stim_listA>",is shouting at,
null,"<div style=""font-size:60px;"">+</div>",,html-keyboard-response,66,601708,0.0-13.0-0.9,50708,List1A,black,man,,,,null,,,,
null,"<img src=""stim_listA/meet1.gif""</stim_listA>",,html-keyboard-response,67,603712,0.0-13.0-1.9,50708,List1A,black,man,,,,null,,,,
null,is meeting,,html-keyboard-response,68,605713,0.0-13.0-2.9,50708,List1A,black,man,,,,null,,,,
23601,,,survey-text,69,629315,0.0-13.0-3.9,50708,List1A,black,man,,,,,"{""Q0"":""Kate is meeting mike""}","<img src=""stim_listA/meet1.gif""</stim_listA>",is meeting,
null,"<div style=""font-size:60px;"">+</div>",,html-keyboard-response,70,629817,0.0-13.0-0.10,50708,List1A,black,man,,,,null,,,,
null,"<img src=""stim_listA/dance5.gif""</stim_listA>",,html-keyboard-response,71,631821,0.0-13.0-1.10,50708,List1A,black,man,,,,null,,,,
null,is dancing with,,html-keyboard-response,72,633823,0.0-13.0-2.10,50708,List1A,black,man,,,,null,,,,
13923,,,survey-text,73,647748,0.0-13.0-3.10,50708,List1A,black,man,,,,,"{""Q0"":""Fred is dancing with Dave""}","<img src=""stim_listA/dance5.gif""</stim_listA>",is dancing with,
null,"<div style=""font-size:60px;"">+</div>",,html-keyboard-response,74,648250,0.0-13.0-0.11,50708,List1A,black,man,,,,null,,,,
null,"<img src=""stim_listA/marry4.gif""</stim_listA>",,html-keyboard-response,75,650251,0.0-13.0-1.11,50708,List1A,black,man,,,,null,,,,
null,are marrying each other,,html-keyboard-response,76,652255,0.0-13.0-2.11,50708,List1A,black,man,,,,null,,,,
19719,,,survey-text,77,671975,0.0-13.0-3.11,50708,List1A,black,man,,,,,"{""Q0"":""Jane and Dave are marrying each other""}","<img src=""stim_listA/marry4.gif""</stim_listA>",are marrying each other,
null,"<div style=""font-size:60px;"">+</div>",,html-keyboard-response,78,672477,0.0-13.0-0.12,50708,List1A,black,man,,,,null,,,,
null,"<img src=""stim_listA/argue2.gif""</stim_listA>",,html-keyboard-response,79,674479,0.0-13.0-1.12,50708,List1A,black,man,,,,null,,,,
null,are arguing with each other,,html-keyboard-response,80,676481,0.0-13.0-2.12,50708,List1A,black,man,,,,null,,,,
15437,,,survey-text,81,691918,0.0-13.0-3.12,50708,List1A,black,man,,,,,"{""Q0"":""Fred and Kate are arguing with each other""}","<img src=""stim_listA/argue2.gif""</stim_listA>",are arguing with each other,
null,"<div style=""font-size:60px;"">+</div>",,html-keyboard-response,82,692420,0.0-13.0-0.13,50708,List1A,black,man,,,,null,,,,
null,"<img src=""stim_listA/talk3.gif""</stim_listA>",,html-keyboard-response,83,694425,0.0-13.0-1.13,50708,List1A,black,man,,,,null,,,,
null,is talking to,,html-keyboard-response,84,696430,0.0-13.0-2.13,50708,List1A,black,man,,,,null,,,,
13154,,,survey-text,85,709586,0.0-13.0-3.13,50708,List1A,black,man,,,,,"{""Q0"":""Luke is talking to Jane""}","<img src=""stim_listA/talk3.gif""</stim_listA>",is talking to,
null,"<div style=""font-size:60px;"">+</div>",,html-keyboard-response,86,710087,0.0-13.0-0.14,50708,List1A,black,man,,,,null,,,,
null,"<img src=""stim_listA/marry1.gif""</stim_listA>",,html-keyboard-response,87,712094,0.0-13.0-1.14,50708,List1A,black,man,,,,null,,,,
null,is marrying,,html-keyboard-response,88,714095,0.0-13.0-2.14,50708,List1A,black,man,,,,null,,,,
12818,,,survey-text,89,726914,0.0-13.0-3.14,50708,List1A,black,man,,,,,"{""Q0"":""Mike is marrying Beth""}","<img src=""stim_listA/marry1.gif""</stim_listA>",is marrying,
null,"<div style=""font-size:60px;"">+</div>",,html-keyboard-response,90,727417,0.0-13.0-0.15,50708,List1A,black,man,,,,null,,,,
null,"<img src=""stim_listA/kiss2.gif""</stim_listA>",,html-keyboard-response,91,729423,0.0-13.0-1.15,50708,List1A,black,man,,,,null,,,,
null,are kissing each other,,html-keyboard-response,92,731424,0.0-13.0-2.15,50708,List1A,black,man,,,,null,,,,
14834,,,survey-text,93,746260,0.0-13.0-3.15,50708,List1A,black,man,,,,,"{""Q0"":""Kate and Mike are kissing each other""}","<img src=""stim_listA/kiss2.gif""</stim_listA>",are kissing each other,
null,"<div style=""font-size:60px;"">+</div>",,html-keyboard-response,94,746762,0.0-13.0-0.16,50708,List1A,black,man,,,,null,,,,
null,"<img src=""stim_listA/dance2.gif""</stim_listA>",,html-keyboard-response,95,748764,0.0-13.0-1.16,50708,List1A,black,man,,,,null,,,,
null,are dancing with each other,,html-keyboard-response,96,750764,0.0-13.0-2.16,50708,List1A,black,man,,,,null,,,,
17394,,,survey-text,97,768160,0.0-13.0-3.16,50708,List1A,black,man,,,,,"{""Q0"":""Mike and Kate are dancing with each other""}","<img src=""stim_listA/dance2.gif""</stim_listA>",are dancing with each other,
null,"<div style=""font-size:60px;"">+</div>",,html-keyboard-response,98,768661,0.0-13.0-0.17,50708,List1A,black,man,,,,null,,,,
null,"<img src=""stim_listA/marry3.gif""</stim_listA>",,html-keyboard-response,99,770665,0.0-13.0-1.17,50708,List1A,black,man,,,,null,,,,
null,is marrying,,html-keyboard-response,100,772666,0.0-13.0-2.17,50708,List1A,black,man,,,,null,,,,
14280,,,survey-text,101,786947,0.0-13.0-3.17,50708,List1A,black,man,,,,,"{""Q0"":""Dave is marrying Ruth""}","<img src=""stim_listA/marry3.gif""</stim_listA>",is marrying,
null,"<div style=""font-size:60px;"">+</div>",,html-keyboard-response,102,787450,0.0-13.0-0.18,50708,List1A,black,man,,,,null,,,,
null,"<img src=""stim_listA/kiss4.gif""</stim_listA>",,html-keyboard-response,103,789454,0.0-13.0-1.18,50708,List1A,black,man,,,,null,,,,
null,are kissing each other,,html-keyboard-response,104,791459,0.0-13.0-2.18,50708,List1A,black,man,,,,null,,,,
23113,,,survey-text,105,814574,0.0-13.0-3.18,50708,List1A,black,man,,,,,"{""Q0"":""Dave and Jane are kissing each other""}","<img src=""stim_listA/kiss4.gif""</stim_listA>",are kissing each other,
null,"<div style=""font-size:60px;"">+</div>",,html-keyboard-response,106,815075,0.0-13.0-0.19,50708,List1A,black,man,,,,null,,,,
null,"<img src=""stim_listA/shout8.gif""</stim_listA>",,html-keyboard-response,107,817081,0.0-13.0-1.19,50708,List1A,black,man,,,,null,,,,
null,are shouting at each other,,html-keyboard-response,108,819087,0.0-13.0-2.19,50708,List1A,black,man,,,,null,,,,
16976,,,survey-text,109,836064,0.0-13.0-3.19,50708,List1A,black,man,,,,,"{""Q0"":""Jane and Kate are shouting at each other""}","<img src=""stim_listA/shout8.gif""</stim_listA>",are shouting at each other,
27588,"<img src='img/portrait_matrix_list1.JPG' style='width:900px;height:500px;''></img><p>If you have memorised all the portraits and names and are ready to start, press Continue.</p><p><strong>Please note: Your memory of these faces will be tested 4 times during this experiment.</strong></p>",0,html-button-response,110,863654,0.0-14.0-0.0,50708,List1A,black,man,,,,,,,,
3497,"<img src=""portrait/BM1.jpg""style=""width:400px;height:400px;""></img>",4,html-button-response,111,868155,0.0-14.0-1.0,50708,List1A,black,man,,TRUE,4,,,,,
null,CORRECT,,html-keyboard-response,112,869663,0.0-14.0-2.0-0.0,50708,List1A,black,man,,,,null,,,,
2969,"<img src=""portrait/WW1.jpg""style=""width:400px;height:400px;""></img>",1,html-button-response,113,872633,0.0-14.0-4.0,50708,List1A,black,man,,TRUE,1,,,,,
null,CORRECT,,html-keyboard-response,114,874143,0.0-14.0-5.0-0.0,50708,List1A,black,man,,,,null,,,,
2949,"<img src=""portrait/BW2.jpg""style=""width:400px;height:400px;""></img>",2,html-button-response,115,877093,0.0-14.0-7.0,50708,List1A,black,man,,TRUE,2,,,,,
null,CORRECT,,html-keyboard-response,116,878604,0.0-14.0-8.0-0.0,50708,List1A,black,man,,,,null,,,,
3453,"<img src=""portrait/BM2.jpg""style=""width:400px;height:400px;""></img>",5,html-button-response,117,882059,0.0-14.0-10.0,50708,List1A,black,man,,TRUE,5,,,,,
null,CORRECT,,html-keyboard-response,118,883564,0.0-14.0-11.0-0.0,50708,List1A,black,man,,,,null,,,,
4945,"<img src=""portrait/WM1.jpg""style=""width:400px;height:400px;""></img>",6,html-button-response,119,888510,0.0-14.0-13.0,50708,List1A,black,man,,TRUE,6,,,,,
null,CORRECT,,html-keyboard-response,120,890022,0.0-14.0-14.0-0.0,50708,List1A,black,man,,,,null,,,,
4499,"<img src=""portrait/BW1.jpg""style=""width:400px;height:400px;""></img>",0,html-button-response,121,894522,0.0-14.0-16.0,50708,List1A,black,man,,TRUE,0,,,,,
null,CORRECT,,html-keyboard-response,122,896034,0.0-14.0-17.0-0.0,50708,List1A,black,man,,,,null,,,,
3671,"<img src=""portrait/WM2.jpg""style=""width:400px;height:400px;""></img>",7,html-button-response,123,899706,0.0-14.0-19.0,50708,List1A,black,man,,TRUE,7,,,,,
null,CORRECT,,html-keyboard-response,124,901214,0.0-14.0-20.0-0.0,50708,List1A,black,man,,,,null,,,,
3639,"<img src=""portrait/WW2.jpg""style=""width:400px;height:400px;""></img>",3,html-button-response,125,904855,0.0-14.0-22.0,50708,List1A,black,man,,TRUE,3,,,,,
null,CORRECT,,html-keyboard-response,126,906367,0.0-14.0-23.0-0.0,50708,List1A,black,man,,,,null,,,,
1488,<p>You got 8 out of 8 right first time. Press Continue.</p>,0,html-button-response,127,907857,0.0-14.0-25.0,50708,List1A,black,man,,,,,,,,
null,"<div style=""font-size:60px;"">+</div>",,html-keyboard-response,128,909367,0.0-15.0-0.0,50708,List1A,black,man,,,,null,,,,
null,"<img src=""stim_listA/marry6.gif""</stim_listA>",,html-keyboard-response,129,911373,0.0-15.0-1.0,50708,List1A,black,man,,,,null,,,,
null,are marrying each other,,html-keyboard-response,130,913376,0.0-15.0-2.0,50708,List1A,black,man,,,,null,,,,
18043,,,survey-text,131,931421,0.0-15.0-3.0,50708,List1A,black,man,,,,,"{""Q0"":""Dave and Fred are marrying each other""}","<img src=""stim_listA/marry6.gif""</stim_listA>",are marrying each other,
null,"<div style=""font-size:60px;"">+</div>",,html-keyboard-response,132,931924,0.0-15.0-0.1,50708,List1A,black,man,,,,null,,,,
null,"<img src=""stim_listA/dance1.gif""</stim_listA>",,html-keyboard-response,133,933928,0.0-15.0-1.1,50708,List1A,black,man,,,,null,,,,
null,is dancing with,,html-keyboard-response,134,935929,0.0-15.0-2.1,50708,List1A,black,man,,,,null,,,,
14185,,,survey-text,135,950114,0.0-15.0-3.1,50708,List1A,black,man,,,,,"{""Q0"":""Fred is dancing with Kate""}","<img src=""stim_listA/dance1.gif""</stim_listA>",is dancing with,
null,"<div style=""font-size:60px;"">+</div>",,html-keyboard-response,136,950616,0.0-15.0-0.2,50708,List1A,black,man,,,,null,,,,
null,"<img src=""stim_listA/shout3.gif""</stim_listA>",,html-keyboard-response,137,952622,0.0-15.0-1.2,50708,List1A,black,man,,,,null,,,,
null,is shouting at,,html-keyboard-response,138,954628,0.0-15.0-2.2,50708,List1A,black,man,,,,null,,,,
15518,,,survey-text,139,970147,0.0-15.0-3.2,50708,List1A,black,man,,,,,"{""Q0"":""Luke is shouting at Ruth""}","<img src=""stim_listA/shout3.gif""</stim_listA>",is shouting at,
null,"<div style=""font-size:60px;"">+</div>",,html-keyboard-response,140,970648,0.0-15.0-0.3,50708,List1A,black,man,,,,null,,,,
null,"<img src=""stim_listA/hug7.gif""</stim_listA>",,html-keyboard-response,141,972652,0.0-15.0-1.3,50708,List1A,black,man,,,,null,,,,
null,is hugging,,html-keyboard-response,142,974657,0.0-15.0-2.3,50708,List1A,black,man,,,,null,,,,
21267,,,survey-text,143,995925,0.0-15.0-3.3,50708,List1A,black,man,,,,,"{""Q0"":""Ruth is hugging Beth""}","<img src=""stim_listA/hug7.gif""</stim_listA>",is hugging,
null,"<div style=""font-size:60px;"">+</div>",,html-keyboard-response,144,996427,0.0-15.0-0.4,50708,List1A,black,man,,,,null,,,,
null,"<img src=""stim_listA/talk1.gif""</stim_listA>",,html-keyboard-response,145,998432,0.0-15.0-1.4,50708,List1A,black,man,,,,null,,,,
null,is talking to,,html-keyboard-response,146,1000433,0.0-15.0-2.4,50708,List1A,black,man,,,,null,,,,
19840,,,survey-text,147,1020274,0.0-15.0-3.4,50708,List1A,black,man,,,,,"{""Q0"":""Fred is talking to Kate""}","<img src=""stim_listA/talk1.gif""</stim_listA>",is talking to,
null,"<div style=""font-size:60px;"">+</div>",,html-keyboard-response,148,1020776,0.0-15.0-0.5,50708,List1A,black,man,,,,null,,,,
null,"<img src=""stim_listA/shout6.gif""</stim_listA>",,html-keyboard-response,149,1022783,0.0-15.0-1.5,50708,List1A,black,man,,,,null,,,,
null,are shouting at each other,,html-keyboard-response,150,1024788,0.0-15.0-2.5,50708,List1A,black,man,,,,null,,,,
20531,,,survey-text,151,1045321,0.0-15.0-3.5,50708,List1A,black,man,,,,,"{""Q0"":""Dave and Mike are shouting at each other""}","<img src=""stim_listA/shout6.gif""</stim_listA>",are shouting at each other,
null,"<div style=""font-size:60px;"">+</div>",,html-keyboard-response,152,1045822,0.0-15.0-0.6,50708,List1A,black,man,,,,null,,,,
null,"<img src=""stim_listA/argue5.gif""</stim_listA>",,html-keyboard-response,153,1047826,0.0-15.0-1.6,50708,List1A,black,man,,,,null,,,,
null,is arguing with,,html-keyboard-response,154,1049828,0.0-15.0-2.6,50708,List1A,black,man,,,,null,,,,
25963,,,survey-text,155,1075792,0.0-15.0-3.6,50708,List1A,black,man,,,,,"{""Q0"":""Dave is arguing with Mike""}","<img src=""stim_listA/argue5.gif""</stim_listA>",is arguing with,
null,"<div style=""font-size:60px;"">+</div>",,html-keyboard-response,156,1076295,0.0-15.0-0.7,50708,List1A,black,man,,,,null,,,,
null,"<img src=""stim_listA/touch8.gif""</stim_listA>",,html-keyboard-response,157,1078298,0.0-15.0-1.7,50708,List1A,black,man,,,,null,,,,
null,are touching each other,,html-keyboard-response,158,1080303,0.0-15.0-2.7,50708,List1A,black,man,,,,null,,,,
43899,,,survey-text,159,1124203,0.0-15.0-3.7,50708,List1A,black,man,,,,,"{""Q0"":""Ruth and Beth are touching each other""}","<img src=""stim_listA/touch8.gif""</stim_listA>",are touching each other,
null,"<div style=""font-size:60px;"">+</div>",,html-keyboard-response,160,1124706,0.0-15.0-0.8,50708,List1A,black,man,,,,null,,,,
null,"<img src=""stim_listA/fight2.gif""</stim_listA>",,html-keyboard-response,161,1126712,0.0-15.0-1.8,50708,List1A,black,man,,,,null,,,,
null,are fighting each other,,html-keyboard-response,162,1128715,0.0-15.0-2.8,50708,List1A,black,man,,,,null,,,,
31390,,,survey-text,163,1160107,0.0-15.0-3.8,50708,List1A,black,man,,,,,"{""Q0"":""Fred and Beth are fighting each other""}","<img src=""stim_listA/fight2.gif""</stim_listA>",are fighting each other,
null,"<div style=""font-size:60px;"">+</div>",,html-keyboard-response,164,1160609,0.0-15.0-0.9,50708,List1A,black,man,,,,null,,,,
null,"<img src=""stim_listA/talk7.gif""</stim_listA>",,html-keyboard-response,165,1162615,0.0-15.0-1.9,50708,List1A,black,man,,,,null,,,,
null,is talking to,,html-keyboard-response,166,1164619,0.0-15.0-2.9,50708,List1A,black,man,,,,null,,,,
13615,,,survey-text,167,1178236,0.0-15.0-3.9,50708,List1A,black,man,,,,,"{""Q0"":""Beth is talking to Jane""}","<img src=""stim_listA/talk7.gif""</stim_listA>",is talking to,
null,"<div style=""font-size:60px;"">+</div>",,html-keyboard-response,168,1178737,0.0-15.0-0.10,50708,List1A,black,man,,,,null,,,,
null,"<img src=""stim_listA/argue8.gif""</stim_listA>",,html-keyboard-response,169,1180739,0.0-15.0-1.10,50708,List1A,black,man,,,,null,,,,
null,are arguing with each other,,html-keyboard-response,170,1182745,0.0-15.0-2.10,50708,List1A,black,man,,,,null,,,,
16609,,,survey-text,171,1199355,0.0-15.0-3.10,50708,List1A,black,man,,,,,"{""Q0"":""Beth and Jane are arguing with each other""}","<img src=""stim_listA/argue8.gif""</stim_listA>",are arguing with each other,
null,"<div style=""font-size:60px;"">+</div>",,html-keyboard-response,172,1199857,0.0-15.0-0.11,50708,List1A,black,man,,,,null,,,,
null,"<img src=""stim_listA/shout1.gif""</stim_listA>",,html-keyboard-response,173,1201863,0.0-15.0-1.11,50708,List1A,black,man,,,,null,,,,
null,is shouting at,,html-keyboard-response,174,1203868,0.0-15.0-2.11,50708,List1A,black,man,,,,null,,,,
12204,,,survey-text,175,1216073,0.0-15.0-3.11,50708,List1A,black,man,,,,,"{""Q0"":""Fred is shouting at Beth""}","<img src=""stim_listA/shout1.gif""</stim_listA>",is shouting at,
null,"<div style=""font-size:60px;"">+</div>",,html-keyboard-response,176,1216574,0.0-15.0-0.12,50708,List1A,black,man,,,,null,,,,
null,"<img src=""stim_listA/fight3.gif""</stim_listA>",,html-keyboard-response,177,1218578,0.0-15.0-1.12,50708,List1A,black,man,,,,null,,,,
null,is fighting,,html-keyboard-response,178,1220579,0.0-15.0-2.12,50708,List1A,black,man,,,,null,,,,
12489,,,survey-text,179,1233069,0.0-15.0-3.12,50708,List1A,black,man,,,,,"{""Q0"":""Dave is fighting Jane""}","<img src=""stim_listA/fight3.gif""</stim_listA>",is fighting,
null,"<div style=""font-size:60px;"">+</div>",,html-keyboard-response,180,1233571,0.0-15.0-0.13,50708,List1A,black,man,,,,null,,,,
null,"<img src=""stim_listA/hug1.gif""</stim_listA>",,html-keyboard-response,181,1235575,0.0-15.0-1.13,50708,List1A,black,man,,,,null,,,,
null,is hugging,,html-keyboard-response,182,1237580,0.0-15.0-2.13,50708,List1A,black,man,,,,null,,,,
11254,,,survey-text,183,1248835,0.0-15.0-3.13,50708,List1A,black,man,,,,,"{""Q0"":""Fred is hugging Beth""}","<img src=""stim_listA/hug1.gif""</stim_listA>",is hugging,
null,"<div style=""font-size:60px;"">+</div>",,html-keyboard-response,184,1249338,0.0-15.0-0.14,50708,List1A,black,man,,,,null,,,,
null,"<img src=""stim_listA/marry8.gif""</stim_listA>",,html-keyboard-response,185,1251341,0.0-15.0-1.14,50708,List1A,black,man,,,,null,,,,
null,are marrying each other,,html-keyboard-response,186,1253342,0.0-15.0-2.14,50708,List1A,black,man,,,,null,,,,
20771,,,survey-text,187,1274114,0.0-15.0-3.14,50708,List1A,black,man,,,,,"{""Q0"":""Jane and Beth are marrying each other""}","<img src=""stim_listA/marry8.gif""</stim_listA>",are marrying each other,
null,"<div style=""font-size:60px;"">+</div>",,html-keyboard-response,188,1274617,0.0-15.0-0.15,50708,List1A,black,man,,,,null,,,,
null,"<img src=""stim_listA/shout5.gif""</stim_listA>",,html-keyboard-response,189,1276622,0.0-15.0-1.15,50708,List1A,black,man,,,,null,,,,
null,is shouting at,,html-keyboard-response,190,1278626,0.0-15.0-2.15,50708,List1A,black,man,,,,null,,,,
16582,,,survey-text,191,1295209,0.0-15.0-3.15,50708,List1A,black,man,,,,,"{""Q0"":""Fred is shouting at Luke""}","<img src=""stim_listA/shout5.gif""</stim_listA>",is shouting at,
null,"<div style=""font-size:60px;"">+</div>",,html-keyboard-response,192,1295711,0.0-15.0-0.16,50708,List1A,black,man,,,,null,,,,
null,"<img src=""stim_listA/touch4.gif""</stim_listA>",,html-keyboard-response,193,1297716,0.0-15.0-1.16,50708,List1A,black,man,,,,null,,,,
null,are touching each other,,html-keyboard-response,194,1299716,0.0-15.0-2.16,50708,List1A,black,man,,,,null,,,,
34772,,,survey-text,195,1334490,0.0-15.0-3.16,50708,List1A,black,man,,,,,"{""Q0"":""Luke and Ruth are touching each other""}","<img src=""stim_listA/touch4.gif""</stim_listA>",are touching each other,
null,"<div style=""font-size:60px;"">+</div>",,html-keyboard-response,196,1334991,0.0-15.0-0.17,50708,List1A,black,man,,,,null,,,,
null,"<img src=""stim_listA/meet8.gif""</stim_listA>",,html-keyboard-response,197,1336994,0.0-15.0-1.17,50708,List1A,black,man,,,,null,,,,
null,are meeting each other,,html-keyboard-response,198,1338999,0.0-15.0-2.17,50708,List1A,black,man,,,,null,,,,
21972,,,survey-text,199,1360973,0.0-15.0-3.17,50708,List1A,black,man,,,,,"{""Q0"":""Beth and Ruth are meeting each other""}","<img src=""stim_listA/meet8.gif""</stim_listA>",are meeting each other,
null,"<div style=""font-size:60px;"">+</div>",,html-keyboard-response,200,1361474,0.0-15.0-0.18,50708,List1A,black,man,,,,null,,,,
null,"<img src=""stim_listA/kiss6.gif""</stim_listA>",,html-keyboard-response,201,1363478,0.0-15.0-1.18,50708,List1A,black,man,,,,null,,,,
null,are kissing each other,,html-keyboard-response,202,1365479,0.0-15.0-2.18,50708,List1A,black,man,,,,null,,,,
15351,,,survey-text,203,1380831,0.0-15.0-3.18,50708,List1A,black,man,,,,,"{""Q0"":""Mike and Dave are kissing each other ""}","<img src=""stim_listA/kiss6.gif""</stim_listA>",are kissing each other,
null,"<div style=""font-size:60px;"">+</div>",,html-keyboard-response,204,1381333,0.0-15.0-0.19,50708,List1A,black,man,,,,null,,,,
null,"<img src=""stim_listA/argue7.gif""</stim_listA>",,html-keyboard-response,205,1383339,0.0-15.0-1.19,50708,List1A,black,man,,,,null,,,,
null,is arguing with,,html-keyboard-response,206,1385340,0.0-15.0-2.19,50708,List1A,black,man,,,,null,,,,
21998,,,survey-text,207,1407340,0.0-15.0-3.19,50708,List1A,black,man,,,,,"{""Q0"":""Ruth is arguing with Kate""}","<img src=""stim_listA/argue7.gif""</stim_listA>",is arguing with,
22641,"<img src='img/portrait_matrix_list1.JPG' style='width:900px;height:500px;''></img><p>If you have memorised all the portraits and names and are ready to start, press Continue.</p><p><strong>Please note: Your memory of these faces will be tested 4 times during this experiment.</strong></p>",0,html-button-response,208,1429983,0.0-16.0-0.0,50708,List1A,black,man,,,,,,,,
5004,"<img src=""portrait/BM1.jpg""style=""width:400px;height:400px;""></img>",4,html-button-response,209,1435990,0.0-16.0-1.0,50708,List1A,black,man,,TRUE,4,,,,,
null,CORRECT,,html-keyboard-response,210,1437499,0.0-16.0-2.0-0.0,50708,List1A,black,man,,,,null,,,,
3831,"<img src=""portrait/BM2.jpg""style=""width:400px;height:400px;""></img>",5,html-button-response,211,1441332,0.0-16.0-4.0,50708,List1A,black,man,,TRUE,5,,,,,
null,CORRECT,,html-keyboard-response,212,1442836,0.0-16.0-5.0-0.0,50708,List1A,black,man,,,,null,,,,
2449,"<img src=""portrait/WM2.jpg""style=""width:400px;height:400px;""></img>",7,html-button-response,213,1445287,0.0-16.0-7.0,50708,List1A,black,man,,TRUE,7,,,,,
null,CORRECT,,html-keyboard-response,214,1446793,0.0-16.0-8.0-0.0,50708,List1A,black,man,,,,null,,,,
4067,"<img src=""portrait/WW2.jpg""style=""width:400px;height:400px;""></img>",3,html-button-response,215,1450862,0.0-16.0-10.0,50708,List1A,black,man,,TRUE,3,,,,,
null,CORRECT,,html-keyboard-response,216,1452369,0.0-16.0-11.0-0.0,50708,List1A,black,man,,,,null,,,,
2990,"<img src=""portrait/WW1.jpg""style=""width:400px;height:400px;""></img>",1,html-button-response,217,1455362,0.0-16.0-13.0,50708,List1A,black,man,,TRUE,1,,,,,
null,CORRECT,,html-keyboard-response,218,1456869,0.0-16.0-14.0-0.0,50708,List1A,black,man,,,,null,,,,
8189,"<img src=""portrait/WM1.jpg""style=""width:400px;height:400px;""></img>",6,html-button-response,219,1465060,0.0-16.0-16.0,50708,List1A,black,man,,TRUE,6,,,,,
null,CORRECT,,html-keyboard-response,220,1466569,0.0-16.0-17.0-0.0,50708,List1A,black,man,,,,null,,,,
4355,"<img src=""portrait/BW1.jpg""style=""width:400px;height:400px;""></img>",0,html-button-response,221,1470926,0.0-16.0-19.0,50708,List1A,black,man,,TRUE,0,,,,,
null,CORRECT,,html-keyboard-response,222,1472435,0.0-16.0-20.0-0.0,50708,List1A,black,man,,,,null,,,,
3776,"<img src=""portrait/BW2.jpg""style=""width:400px;height:400px;""></img>",2,html-button-response,223,1476213,0.0-16.0-22.0,50708,List1A,black,man,,TRUE,2,,,,,
null,CORRECT,,html-keyboard-response,224,1477720,0.0-16.0-23.0-0.0,50708,List1A,black,man,,,,null,,,,
1371,<p>You got 8 out of 8 right first time. Press Continue.</p>,0,html-button-response,225,1479093,0.0-16.0-25.0,50708,List1A,black,man,,,,,,,,
null,"<div style=""font-size:60px;"">+</div>",,html-keyboard-response,226,1480604,0.0-17.0-0.0,50708,List1A,black,man,,,,null,,,,
null,"<img src=""stim_listA/talk6.gif""</stim_listA>",,html-keyboard-response,227,1482609,0.0-17.0-1.0,50708,List1A,black,man,,,,null,,,,
null,are talking to each other,,html-keyboard-response,228,1484610,0.0-17.0-2.0,50708,List1A,black,man,,,,null,,,,
30161,,,survey-text,229,1514772,0.0-17.0-3.0,50708,List1A,black,man,,,,,"{""Q0"":""Dave and Mike are talking to each other""}","<img src=""stim_listA/talk6.gif""</stim_listA>",are talking to each other,
null,"<div style=""font-size:60px;"">+</div>",,html-keyboard-response,230,1515273,0.0-17.0-0.1,50708,List1A,black,man,,,,null,,,,
null,"<img src=""stim_listA/touch5.gif""</stim_listA>",,html-keyboard-response,231,1517276,0.0-17.0-1.1,50708,List1A,black,man,,,,null,,,,
null,is touching,,html-keyboard-response,232,1519279,0.0-17.0-2.1,50708,List1A,black,man,,,,null,,,,
12127,,,survey-text,233,1531408,0.0-17.0-3.1,50708,List1A,black,man,,,,,"{""Q0"":""Dave is touching Mike""}","<img src=""stim_listA/touch5.gif""</stim_listA>",is touching,
null,"<div style=""font-size:60px;"">+</div>",,html-keyboard-response,234,1531909,0.0-17.0-0.2,50708,List1A,black,man,,,,null,,,,
null,"<img src=""stim_listA/talk8.gif""</stim_listA>",,html-keyboard-response,235,1533912,0.0-17.0-1.2,50708,List1A,black,man,,,,null,,,,
null,are talking to each other,,html-keyboard-response,236,1535914,0.0-17.0-2.2,50708,List1A,black,man,,,,null,,,,
58581,,,survey-text,237,1594497,0.0-17.0-3.2,50708,List1A,black,man,,,,,"{""Q0"":""Ruth and Kate are talking to each other""}","<img src=""stim_listA/talk8.gif""</stim_listA>",are talking to each other,
null,"<div style=""font-size:60px;"">+</div>",,html-keyboard-response,238,1594998,0.0-17.0-0.3,50708,List1A,black,man,,,,null,,,,
null,"<img src=""stim_listA/meet4.gif""</stim_listA>",,html-keyboard-response,239,1597004,0.0-17.0-1.3,50708,List1A,black,man,,,,null,,,,
null,are meeting each other,,html-keyboard-response,240,1599007,0.0-17.0-2.3,50708,List1A,black,man,,,,null,,,,
31354,,,survey-text,241,1630363,0.0-17.0-3.3,50708,List1A,black,man,,,,,"{""Q0"":""Ruth and Luke are meeting each other""}","<img src=""stim_listA/meet4.gif""</stim_listA>",are meeting each other,
null,"<div style=""font-size:60px;"">+</div>",,html-keyboard-response,242,1630864,0.0-17.0-0.4,50708,List1A,black,man,,,,null,,,,
null,"<img src=""stim_listA/fight8.gif""</stim_listA>",,html-keyboard-response,243,1632865,0.0-17.0-1.4,50708,List1A,black,man,,,,null,,,,
null,are fighting each other,,html-keyboard-response,244,1634871,0.0-17.0-2.4,50708,List1A,black,man,,,,null,,,,
25262,,,survey-text,245,1660134,0.0-17.0-3.4,50708,List1A,black,man,,,,,"{""Q0"":""Ruth and beth are fighting each other""}","<img src=""stim_listA/fight8.gif""</stim_listA>",are fighting each other,
null,"<div style=""font-size:60px;"">+</div>",,html-keyboard-response,246,1660636,0.0-17.0-0.5,50708,List1A,black,man,,,,null,,,,
null,"<img src=""stim_listA/dance6.gif""</stim_listA>",,html-keyboard-response,247,1662642,0.0-17.0-1.5,50708,List1A,black,man,,,,null,,,,
null,are dancing with each other,,html-keyboard-response,248,1664643,0.0-17.0-2.5,50708,List1A,black,man,,,,null,,,,
32148,,,survey-text,249,1696793,0.0-17.0-3.5,50708,List1A,black,man,,,,,"{""Q0"":""Luke and Mike are dancing with each other""}","<img src=""stim_listA/dance6.gif""</stim_listA>",are dancing with each other,
null,"<div style=""font-size:60px;"">+</div>",,html-keyboard-response,250,1697295,0.0-17.0-0.6,50708,List1A,black,man,,,,null,,,,
null,"<img src=""stim_listA/touch7.gif""</stim_listA>",,html-keyboard-response,251,1699301,0.0-17.0-1.6,50708,List1A,black,man,,,,null,,,,
null,is touching,,html-keyboard-response,252,1701306,0.0-17.0-2.6,50708,List1A,black,man,,,,null,,,,
14634,,,survey-text,253,1715942,0.0-17.0-3.6,50708,List1A,black,man,,,,,"{""Q0"":""Kate is touching Jane""}","<img src=""stim_listA/touch7.gif""</stim_listA>",is touching,
null,"<div style=""font-size:60px;"">+</div>",,html-keyboard-response,254,1716444,0.0-17.0-0.7,50708,List1A,black,man,,,,null,,,,
null,"<img src=""stim_listA/kiss5.gif""</stim_listA>",,html-keyboard-response,255,1718449,0.0-17.0-1.7,50708,List1A,black,man,,,,null,,,,
null,is kissing,,html-keyboard-response,256,1720450,0.0-17.0-2.7,50708,List1A,black,man,,,,null,,,,
11637,,,survey-text,257,1732087,0.0-17.0-3.7,50708,List1A,black,man,,,,,"{""Q0"":""Fred is kissing Luke""}","<img src=""stim_listA/kiss5.gif""</stim_listA>",is kissing,
null,"<div style=""font-size:60px;"">+</div>",,html-keyboard-response,258,1732589,0.0-17.0-0.8,50708,List1A,black,man,,,,null,,,,
null,"<img src=""stim_listA/fight1.gif""</stim_listA>",,html-keyboard-response,259,1734594,0.0-17.0-1.8,50708,List1A,black,man,,,,null,,,,
null,is fighting,,html-keyboard-response,260,1736595,0.0-17.0-2.8,50708,List1A,black,man,,,,null,,,,
21232,,,survey-text,261,1757827,0.0-17.0-3.8,50708,List1A,black,man,,,,,"{""Q0"":""Luke is fighting Mike""}","<img src=""stim_listA/fight1.gif""</stim_listA>",is fighting,
null,"<div style=""font-size:60px;"">+</div>",,html-keyboard-response,262,1758329,0.0-17.0-0.9,50708,List1A,black,man,,,,null,,,,
null,"<img src=""stim_listA/meet7.gif""</stim_listA>",,html-keyboard-response,263,1760333,0.0-17.0-1.9,50708,List1A,black,man,,,,null,,,,
null,is meeting,,html-keyboard-response,264,1762338,0.0-17.0-2.9,50708,List1A,black,man,,,,null,,,,
10437,,,survey-text,265,1772776,0.0-17.0-3.9,50708,List1A,black,man,,,,,"{""Q0"":""Kate is meeting Jane""}","<img src=""stim_listA/meet7.gif""</stim_listA>",is meeting,
null,"<div style=""font-size:60px;"">+</div>",,html-keyboard-response,266,1773278,0.0-17.0-0.10,50708,List1A,black,man,,,,null,,,,
null,"<img src=""stim_listA/fight7.gif""</stim_listA>",,html-keyboard-response,267,1775281,0.0-17.0-1.10,50708,List1A,black,man,,,,null,,,,
null,is fighting,,html-keyboard-response,268,1777282,0.0-17.0-2.10,50708,List1A,black,man,,,,null,,,,
7980,,,survey-text,269,1785263,0.0-17.0-3.10,50708,List1A,black,man,,,,,"{""Q0"":""Kate is fighting Jane""}","<img src=""stim_listA/fight7.gif""</stim_listA>",is fighting,
null,"<div style=""font-size:60px;"">+</div>",,html-keyboard-response,270,1785765,0.0-17.0-0.11,50708,List1A,black,man,,,,null,,,,
null,"<img src=""stim_listA/meet6.gif""</stim_listA>",,html-keyboard-response,271,1787768,0.0-17.0-1.11,50708,List1A,black,man,,,,null,,,,
null,are meeting each other,,html-keyboard-response,272,1789773,0.0-17.0-2.11,50708,List1A,black,man,,,,null,,,,
14929,,,survey-text,273,1804703,0.0-17.0-3.11,50708,List1A,black,man,,,,,"{""Q0"":""Fred and Luke are meeting each other""}","<img src=""stim_listA/meet6.gif""</stim_listA>",are meeting each other,
null,"<div style=""font-size:60px;"">+</div>",,html-keyboard-response,274,1805204,0.0-17.0-0.12,50708,List1A,black,man,,,,null,,,,
null,"<img src=""stim_listA/hug5.gif""</stim_listA>",,html-keyboard-response,275,1807211,0.0-17.0-1.12,50708,List1A,black,man,,,,null,,,,
null,is hugging,,html-keyboard-response,276,1809213,0.0-17.0-2.12,50708,List1A,black,man,,,,null,,,,
6981,,,survey-text,277,1816194,0.0-17.0-3.12,50708,List1A,black,man,,,,,"{""Q0"":""fred is hugging Luke""}","<img src=""stim_listA/hug5.gif""</stim_listA>",is hugging,
null,"<div style=""font-size:60px;"">+</div>",,html-keyboard-response,278,1816696,0.0-17.0-0.13,50708,List1A,black,man,,,,null,,,,
null,"<img src=""stim_listA/marry5.gif""</stim_listA>",,html-keyboard-response,279,1818698,0.0-17.0-1.13,50708,List1A,black,man,,,,null,,,,
null,is marrying,,html-keyboard-response,280,1820703,0.0-17.0-2.13,50708,List1A,black,man,,,,null,,,,
10835,,,survey-text,281,1831539,0.0-17.0-3.13,50708,List1A,black,man,,,,,"{""Q0"":""Luke is marrying Mike""}","<img src=""stim_listA/marry5.gif""</stim_listA>",is marrying,
null,"<div style=""font-size:60px;"">+</div>",,html-keyboard-response,282,1832041,0.0-17.0-0.14,50708,List1A,black,man,,,,null,,,,
null,"<img src=""stim_listA/marry2.gif""</stim_listA>",,html-keyboard-response,283,1834048,0.0-17.0-1.14,50708,List1A,black,man,,,,null,,,,
null,are marrying each other,,html-keyboard-response,284,1836050,0.0-17.0-2.14,50708,List1A,black,man,,,,null,,,,
18774,,,survey-text,285,1854824,0.0-17.0-3.14,50708,List1A,black,man,,,,,"{""Q0"":""Fred and Kate are marrying each other""}","<img src=""stim_listA/marry2.gif""</stim_listA>",are marrying each other,
null,"<div style=""font-size:60px;"">+</div>",,html-keyboard-response,286,1855326,0.0-17.0-0.15,50708,List1A,black,man,,,,null,,,,
null,"<img src=""stim_listA/hug4.gif""</stim_listA>",,html-keyboard-response,287,1857328,0.0-17.0-1.15,50708,List1A,black,man,,,,null,,,,
null,are hugging each other,,html-keyboard-response,288,1859330,0.0-17.0-2.15,50708,List1A,black,man,,,,null,,,,
16801,,,survey-text,289,1876132,0.0-17.0-3.15,50708,List1A,black,man,,,,,"{""Q0"":""Jane and Dave are hugging each other""}","<img src=""stim_listA/hug4.gif""</stim_listA>",are hugging each other,
null,"<div style=""font-size:60px;"">+</div>",,html-keyboard-response,290,1876639,0.0-17.0-0.16,50708,List1A,black,man,,,,null,,,,
null,"<img src=""stim_listA/talk5.gif""</stim_listA>",,html-keyboard-response,291,1878640,0.0-17.0-1.16,50708,List1A,black,man,,,,null,,,,
null,is talking to,,html-keyboard-response,292,1880645,0.0-17.0-2.16,50708,List1A,black,man,,,,null,,,,
12198,,,survey-text,293,1892844,0.0-17.0-3.16,50708,List1A,black,man,,,,,"{""Q0"":""Fred is talking to Dave""}","<img src=""stim_listA/talk5.gif""</stim_listA>",is talking to,
null,"<div style=""font-size:60px;"">+</div>",,html-keyboard-response,294,1893345,0.0-17.0-0.17,50708,List1A,black,man,,,,null,,,,
null,"<img src=""stim_listA/argue4.gif""</stim_listA>",,html-keyboard-response,295,1895352,0.0-17.0-1.17,50708,List1A,black,man,,,,null,,,,
null,are arguing with each other,,html-keyboard-response,296,1897354,0.0-17.0-2.17,50708,List1A,black,man,,,,null,,,,
18475,,,survey-text,297,1915831,0.0-17.0-3.17,50708,List1A,black,man,,,,,"{""Q0"":""Luke and Jane are arguing with each other""}","<img src=""stim_listA/argue4.gif""</stim_listA>",are arguing with each other,
null,"<div style=""font-size:60px;"">+</div>",,html-keyboard-response,298,1916333,0.0-17.0-0.18,50708,List1A,black,man,,,,null,,,,
null,"<img src=""stim_listA/argue6.gif""</stim_listA>",,html-keyboard-response,299,1918339,0.0-17.0-1.18,50708,List1A,black,man,,,,null,,,,
null,are arguing with each other,,html-keyboard-response,300,1920344,0.0-17.0-2.18,50708,List1A,black,man,,,,null,,,,
21161,,,survey-text,301,1941507,0.0-17.0-3.18,50708,List1A,black,man,,,,,"{""Q0"":""Fred and Dave are arguing with each other""}","<img src=""stim_listA/argue6.gif""</stim_listA>",are arguing with each other,
null,"<div style=""font-size:60px;"">+</div>",,html-keyboard-response,302,1942008,0.0-17.0-0.19,50708,List1A,black,man,,,,null,,,,
null,"<img src=""stim_listA/talk4.gif""</stim_listA>",,html-keyboard-response,303,1944011,0.0-17.0-1.19,50708,List1A,black,man,,,,null,,,,
null,are talking to each other,,html-keyboard-response,304,1946013,0.0-17.0-2.19,50708,List1A,black,man,,,,null,,,,
16921,,,survey-text,305,1962935,0.0-17.0-3.19,50708,List1A,black,man,,,,,"{""Q0"":""Dave and Ruth are talking to each other""}","<img src=""stim_listA/talk4.gif""</stim_listA>",are talking to each other,
808888,"<img src='img/portrait_matrix_list1.JPG' style='width:900px;height:500px;''></img><p>If you have memorised all the portraits and names and are ready to start, press Continue.</p><p><strong>Please note: Your memory of these faces will be tested 4 times during this experiment.</strong></p>",0,html-button-response,306,2771825,0.0-18.0-0.0,50708,List1A,black,man,,,,,,,,
8202,"<img src=""portrait/WW1.jpg""style=""width:400px;height:400px;""></img>",1,html-button-response,307,2781028,0.0-18.0-1.0,50708,List1A,black,man,,TRUE,1,,,,,
null,CORRECT,,html-keyboard-response,308,2782536,0.0-18.0-2.0-0.0,50708,List1A,black,man,,,,null,,,,
3416,"<img src=""portrait/WM2.jpg""style=""width:400px;height:400px;""></img>",7,html-button-response,309,2785954,0.0-18.0-4.0,50708,List1A,black,man,,TRUE,7,,,,,
null,CORRECT,,html-keyboard-response,310,2787460,0.0-18.0-5.0-0.0,50708,List1A,black,man,,,,null,,,,
3633,"<img src=""portrait/WM1.jpg""style=""width:400px;height:400px;""></img>",6,html-button-response,311,2791095,0.0-18.0-7.0,50708,List1A,black,man,,TRUE,6,,,,,
null,CORRECT,,html-keyboard-response,312,2792599,0.0-18.0-8.0-0.0,50708,List1A,black,man,,,,null,,,,
3166,"<img src=""portrait/BW2.jpg""style=""width:400px;height:400px;""></img>",2,html-button-response,313,2795767,0.0-18.0-10.0,50708,List1A,black,man,,TRUE,2,,,,,
null,CORRECT,,html-keyboard-response,314,2797275,0.0-18.0-11.0-0.0,50708,List1A,black,man,,,,null,,,,
5650,"<img src=""portrait/WW2.jpg""style=""width:400px;height:400px;""></img>",3,html-button-response,315,2802927,0.0-18.0-13.0,50708,List1A,black,man,,TRUE,3,,,,,
null,CORRECT,,html-keyboard-response,316,2804433,0.0-18.0-14.0-0.0,50708,List1A,black,man,,,,null,,,,
2481,"<img src=""portrait/BM1.jpg""style=""width:400px;height:400px;""></img>",4,html-button-response,317,2806916,0.0-18.0-16.0,50708,List1A,black,man,,TRUE,4,,,,,
null,CORRECT,,html-keyboard-response,318,2808425,0.0-18.0-17.0-0.0,50708,List1A,black,man,,,,null,,,,
6357,"<img src=""portrait/BW1.jpg""style=""width:400px;height:400px;""></img>",0,html-button-response,319,2814783,0.0-18.0-19.0,50708,List1A,black,man,,TRUE,0,,,,,
null,CORRECT,,html-keyboard-response,320,2816295,0.0-18.0-20.0-0.0,50708,List1A,black,man,,,,null,,,,
4141,"<img src=""portrait/BM2.jpg""style=""width:400px;height:400px;""></img>",5,html-button-response,321,2820438,0.0-18.0-22.0,50708,List1A,black,man,,TRUE,5,,,,,
null,CORRECT,,html-keyboard-response,322,2821946,0.0-18.0-23.0-0.0,50708,List1A,black,man,,,,null,,,,
3180,<p>You got 8 out of 8 right first time. Press Continue.</p>,0,html-button-response,323,2825128,0.0-18.0-25.0,50708,List1A,black,man,,,,,,,,
null,"<div style=""font-size:60px;"">+</div>",,html-keyboard-response,324,2826632,0.0-19.0-0.0,50708,List1A,black,man,,,,null,,,,
null,"<img src=""stim_listA/dance3.gif""</stim_listA>",,html-keyboard-response,325,2828633,0.0-19.0-1.0,50708,List1A,black,man,,,,null,,,,
null,is dancing with,,html-keyboard-response,326,2830638,0.0-19.0-2.0,50708,List1A,black,man,,,,null,,,,
93437,,,survey-text,327,2924076,0.0-19.0-3.0,50708,List1A,black,man,,,,,"{""Q0"":""Jane is dancing with Luke""}","<img src=""stim_listA/dance3.gif""</stim_listA>",is dancing with,
null,"<div style=""font-size:60px;"">+</div>",,html-keyboard-response,328,2924578,0.0-19.0-0.1,50708,List1A,black,man,,,,null,,,,
null,"<img src=""stim_listA/kiss7.gif""</stim_listA>",,html-keyboard-response,329,2926580,0.0-19.0-1.1,50708,List1A,black,man,,,,null,,,,
null,is kissing,,html-keyboard-response,330,2928581,0.0-19.0-2.1,50708,List1A,black,man,,,,null,,,,
62695,,,survey-text,331,2991278,0.0-19.0-3.1,50708,List1A,black,man,,,,,"{""Q0"":"" Ruth is kissing Beth""}","<img src=""stim_listA/kiss7.gif""</stim_listA>",is kissing,
null,"<div style=""font-size:60px;"">+</div>",,html-keyboard-response,332,2991784,0.0-19.0-0.2,50708,List1A,black,man,,,,null,,,,
null,"<img src=""stim_listA/meet2.gif""</stim_listA>",,html-keyboard-response,333,2993790,0.0-19.0-1.2,50708,List1A,black,man,,,,null,,,,
null,are meeting each other,,html-keyboard-response,334,2995791,0.0-19.0-2.2,50708,List1A,black,man,,,,null,,,,
17561,,,survey-text,335,3013354,0.0-19.0-3.2,50708,List1A,black,man,,,,,"{""Q0"":""Fred and Beth are meeting each other""}","<img src=""stim_listA/meet2.gif""</stim_listA>",are meeting each other,
null,"<div style=""font-size:60px;"">+</div>",,html-keyboard-response,336,3013855,0.0-19.0-0.3,50708,List1A,black,man,,,,null,,,,
null,"<img src=""stim_listA/meet3.gif""</stim_listA>",,html-keyboard-response,337,3015857,0.0-19.0-1.3,50708,List1A,black,man,,,,null,,,,
null,is meeting,,html-keyboard-response,338,3017858,0.0-19.0-2.3,50708,List1A,black,man,,,,null,,,,
11691,,,survey-text,339,3029550,0.0-19.0-3.3,50708,List1A,black,man,,,,,"{""Q0"":""  Dave is meeting Jane""}","<img src=""stim_listA/meet3.gif""</stim_listA>",is meeting,
null,"<div style=""font-size:60px;"">+</div>",,html-keyboard-response,340,3030052,0.0-19.0-0.4,50708,List1A,black,man,,,,null,,,,
null,"<img src=""stim_listA/kiss8.gif""</stim_listA>",,html-keyboard-response,341,3032059,0.0-19.0-1.4,50708,List1A,black,man,,,,null,,,,
null,are kissing each other,,html-keyboard-response,342,3034061,0.0-19.0-2.4,50708,List1A,black,man,,,,null,,,,
15961,,,survey-text,343,3050024,0.0-19.0-3.4,50708,List1A,black,man,,,,,"{""Q0"":""Jane and Kate are kissing each other ""}","<img src=""stim_listA/kiss8.gif""</stim_listA>",are kissing each other,
null,"<div style=""font-size:60px;"">+</div>",,html-keyboard-response,344,3050526,0.0-19.0-0.5,50708,List1A,black,man,,,,null,,,,
null,"<img src=""stim_listA/fight4.gif""</stim_listA>",,html-keyboard-response,345,3052528,0.0-19.0-1.5,50708,List1A,black,man,,,,null,,,,
null,are fighting each other,,html-keyboard-response,346,3054529,0.0-19.0-2.5,50708,List1A,black,man,,,,null,,,,
20698,,,survey-text,347,3075229,0.0-19.0-3.5,50708,List1A,black,man,,,,,"{""Q0"":""Ruth and Luke are fighting each other""}","<img src=""stim_listA/fight4.gif""</stim_listA>",are fighting each other,
null,"<div style=""font-size:60px;"">+</div>",,html-keyboard-response,348,3075731,0.0-19.0-0.6,50708,List1A,black,man,,,,null,,,,
null,"<img src=""stim_listA/argue1.gif""</stim_listA>",,html-keyboard-response,349,3077734,0.0-19.0-1.6,50708,List1A,black,man,,,,null,,,,
null,is arguing with,,html-keyboard-response,350,3079740,0.0-19.0-2.6,50708,List1A,black,man,,,,null,,,,
12632,,,survey-text,351,3092373,0.0-19.0-3.6,50708,List1A,black,man,,,,,"{""Q0"":""Beth is arguing with Mike""}","<img src=""stim_listA/argue1.gif""</stim_listA>",is arguing with,
null,"<div style=""font-size:60px;"">+</div>",,html-keyboard-response,352,3092874,0.0-19.0-0.7,50708,List1A,black,man,,,,null,,,,
null,"<img src=""stim_listA/touch2.gif""</stim_listA>",,html-keyboard-response,353,3094880,0.0-19.0-1.7,50708,List1A,black,man,,,,null,,,,
null,are touching each other,,html-keyboard-response,354,3096881,0.0-19.0-2.7,50708,List1A,black,man,,,,null,,,,
28672,,,survey-text,355,3125555,0.0-19.0-3.7,50708,List1A,black,man,,,,,"{""Q0"":""Fred and Beth are touching each other""}","<img src=""stim_listA/touch2.gif""</stim_listA>",are touching each other,
null,"<div style=""font-size:60px;"">+</div>",,html-keyboard-response,356,3126056,0.0-19.0-0.8,50708,List1A,black,man,,,,null,,,,
null,"<img src=""stim_listA/kiss3.gif""</stim_listA>",,html-keyboard-response,357,3128063,0.0-19.0-1.8,50708,List1A,black,man,,,,null,,,,
null,is kissing,,html-keyboard-response,358,3130067,0.0-19.0-2.8,50708,List1A,black,man,,,,null,,,,
16706,,,survey-text,359,3146775,0.0-19.0-3.8,50708,List1A,black,man,,,,,"{""Q0"":""Luke is kissing Ruth ""}","<img src=""stim_listA/kiss3.gif""</stim_listA>",is kissing,
null,"<div style=""font-size:60px;"">+</div>",,html-keyboard-response,360,3147277,0.0-19.0-0.9,50708,List1A,black,man,,,,null,,,,
null,"<img src=""stim_listA/talk2.gif""</stim_listA>",,html-keyboard-response,361,3149282,0.0-19.0-1.9,50708,List1A,black,man,,,,null,,,,
null,are talking to each other,,html-keyboard-response,362,3151285,0.0-19.0-2.9,50708,List1A,black,man,,,,null,,,,
17132,,,survey-text,363,3168418,0.0-19.0-3.9,50708,List1A,black,man,,,,,"{""Q0"":""Mike and Beth are talking to each other""}","<img src=""stim_listA/talk2.gif""</stim_listA>",are talking to each other,
null,"<div style=""font-size:60px;"">+</div>",,html-keyboard-response,364,3168919,0.0-19.0-0.10,50708,List1A,black,man,,,,null,,,,
null,"<img src=""stim_listA/shout2.gif""</stim_listA>",,html-keyboard-response,365,3170926,0.0-19.0-1.10,50708,List1A,black,man,,,,null,,,,
null,are shouting at each other,,html-keyboard-response,366,3172931,0.0-19.0-2.10,50708,List1A,black,man,,,,null,,,,
18380,,,survey-text,367,3191312,0.0-19.0-3.10,50708,List1A,black,man,,,,,"{""Q0"":""Beth and Mike are shouting at each other""}","<img src=""stim_listA/shout2.gif""</stim_listA>",are shouting at each other,
null,"<div style=""font-size:60px;"">+</div>",,html-keyboard-response,368,3191813,0.0-19.0-0.11,50708,List1A,black,man,,,,null,,,,
null,"<img src=""stim_listA/fight5.gif""</stim_listA>",,html-keyboard-response,369,3193820,0.0-19.0-1.11,50708,List1A,black,man,,,,null,,,,
null,is fighting,,html-keyboard-response,370,3195822,0.0-19.0-2.11,50708,List1A,black,man,,,,null,,,,
14556,,,survey-text,371,3210378,0.0-19.0-3.11,50708,List1A,black,man,,,,,"{""Q0"":""Mike is fighting Dave""}","<img src=""stim_listA/fight5.gif""</stim_listA>",is fighting,
null,"<div style=""font-size:60px;"">+</div>",,html-keyboard-response,372,3210881,0.0-19.0-0.12,50708,List1A,black,man,,,,null,,,,
null,"<img src=""stim_listA/meet5.gif""</stim_listA>",,html-keyboard-response,373,3212884,0.0-19.0-1.12,50708,List1A,black,man,,,,null,,,,
null,is meeting,,html-keyboard-response,374,3214884,0.0-19.0-2.12,50708,List1A,black,man,,,,null,,,,
9949,,,survey-text,375,3224835,0.0-19.0-3.12,50708,List1A,black,man,,,,,"{""Q0"":""Mike is meeting Dave""}","<img src=""stim_listA/meet5.gif""</stim_listA>",is meeting,
null,"<div style=""font-size:60px;"">+</div>",,html-keyboard-response,376,3225337,0.0-19.0-0.13,50708,List1A,black,man,,,,null,,,,
null,"<img src=""stim_listA/hug2.gif""</stim_listA>",,html-keyboard-response,377,3227344,0.0-19.0-1.13,50708,List1A,black,man,,,,null,,,,
null,are hugging each other,,html-keyboard-response,378,3229349,0.0-19.0-2.13,50708,List1A,black,man,,,,null,,,,
19280,,,survey-text,379,3248629,0.0-19.0-3.13,50708,List1A,black,man,,,,,"{""Q0"":""Mike and Kate are hugging each other""}","<img src=""stim_listA/hug2.gif""</stim_listA>",are hugging each other,
null,"<div style=""font-size:60px;"">+</div>",,html-keyboard-response,380,3249132,0.0-19.0-0.14,50708,List1A,black,man,,,,null,,,,
null,"<img src=""stim_listA/marry7.gif""</stim_listA>",,html-keyboard-response,381,3251138,0.0-19.0-1.14,50708,List1A,black,man,,,,null,,,,
null,is marrying,,html-keyboard-response,382,3253139,0.0-19.0-2.14,50708,List1A,black,man,,,,null,,,,
35357,,,survey-text,383,3288498,0.0-19.0-3.14,50708,List1A,black,man,,,,,"{""Q0"":""Kate is marrying Ruth""}","<img src=""stim_listA/marry7.gif""</stim_listA>",is marrying,
null,"<div style=""font-size:60px;"">+</div>",,html-keyboard-response,384,3289000,0.0-19.0-0.15,50708,List1A,black,man,,,,null,,,,
null,"<img src=""stim_listA/touch6.gif""</stim_listA>",,html-keyboard-response,385,3291001,0.0-19.0-1.15,50708,List1A,black,man,,,,null,,,,
null,are touching each other,,html-keyboard-response,386,3293005,0.0-19.0-2.15,50708,List1A,black,man,,,,null,,,,
13357,,,survey-text,387,3306363,0.0-19.0-3.15,50708,List1A,black,man,,,,,"{""Q0"":""Fred and Luke are touching each other""}","<img src=""stim_listA/touch6.gif""</stim_listA>",are touching each other,
null,"<div style=""font-size:60px;"">+</div>",,html-keyboard-response,388,3306866,0.0-19.0-0.16,50708,List1A,black,man,,,,null,,,,
null,"<img src=""stim_listA/dance8.gif""</stim_listA>",,html-keyboard-response,389,3308870,0.0-19.0-1.16,50708,List1A,black,man,,,,null,,,,
null,are dancing with each other,,html-keyboard-response,390,3310871,0.0-19.0-2.16,50708,List1A,black,man,,,,null,,,,
34566,,,survey-text,391,3345439,0.0-19.0-3.16,50708,List1A,black,man,,,,,"{""Q0"":""Kate and Ruth are dancing with each other""}","<img src=""stim_listA/dance8.gif""</stim_listA>",are dancing with each other,
null,"<div style=""font-size:60px;"">+</div>",,html-keyboard-response,392,3345940,0.0-19.0-0.17,50708,List1A,black,man,,,,null,,,,
null,"<img src=""stim_listA/touch3.gif""</stim_listA>",,html-keyboard-response,393,3347944,0.0-19.0-1.17,50708,List1A,black,man,,,,null,,,,
null,is touching,,html-keyboard-response,394,3349946,0.0-19.0-2.17,50708,List1A,black,man,,,,null,,,,
10560,,,survey-text,395,3360507,0.0-19.0-3.17,50708,List1A,black,man,,,,,"{""Q0"":""Dave is touching Jane""}","<img src=""stim_listA/touch3.gif""</stim_listA>",is touching,
null,"<div style=""font-size:60px;"">+</div>",,html-keyboard-response,396,3361009,0.0-19.0-0.18,50708,List1A,black,man,,,,null,,,,
null,"<img src=""stim_listA/kiss1.gif""</stim_listA>",,html-keyboard-response,397,3363015,0.0-19.0-1.18,50708,List1A,black,man,,,,null,,,,
null,is kissing,,html-keyboard-response,398,3365017,0.0-19.0-2.18,50708,List1A,black,man,,,,null,,,,
12042,,,survey-text,399,3377061,0.0-19.0-3.18,50708,List1A,black,man,,,,,"{""Q0"":""Beth is kissing Fred""}","<img src=""stim_listA/kiss1.gif""</stim_listA>",is kissing,
null,"<div style=""font-size:60px;"">+</div>",,html-keyboard-response,400,3377563,0.0-19.0-0.19,50708,List1A,black,man,,,,null,,,,
null,"<img src=""stim_listA/dance7.gif""</stim_listA>",,html-keyboard-response,401,3379569,0.0-19.0-1.19,50708,List1A,black,man,,,,null,,,,
null,is dancing with,,html-keyboard-response,402,3381572,0.0-19.0-2.19,50708,List1A,black,man,,,,null,,,,
8365,,,survey-text,403,3389939,0.0-19.0-3.19,50708,List1A,black,man,,,,,"{""Q0"":""Beth is dancing with Jane""}","<img src=""stim_listA/dance7.gif""</stim_listA>",is dancing with,
2690,<p>Thank you for completing that task.</p><p>The final part of this session is a short questionnaire.</p><p>Press Continue.</p>,0,html-button-response,404,3392630,0.0-20.0,50708,List1A,black,man,,,,,,,,
35730,,,survey-text,405,3429367,0.0-21.0,50708,List1A,black,man,,,,,"{""Q0"":""22"",""Q1"":""English"",""Q2"":""English"",""Q3"":""United Kingdom"",""Q4"":""Black African"",""Q5"":""Male""}",,,demographics
35818,,,survey-likert,406,3465193,0.0-22.0,50708,List1A,black,man,,,,,"{""Q0"":6,""Q1"":6,""Q2"":6,""Q3"":6,""Q4"":6,""Q5"":6,""Q6"":6,""Q7"":6,""Q8"":6,""Q9"":6,""Q10"":6,""Q11"":6,""Q12"":6,""Q13"":6}",,,likert_race
52013,,,survey-likert,407,3517214,0.0-23.0,50708,List1A,black,man,,,,,"{""Q0"":6,""Q1"":0,""Q2"":1,""Q3"":"""",""Q4"":2,""Q5"":5,""Q6"":3,""Q7"":2,""Q8"":4,""Q9"":"""",""Q10"":5,""Q11"":5,""Q12"":5,""Q13"":5}",,,likert_gender
12874,,,survey-text,408,3530090,0.0-24.0,50708,List1A,black,man,,,,,"{""Q0"":""ccc""}",,,worker_id
24604,,,external-html,409,3554854,0.0-25.0,50708,List1A,black,man,debrief.html,,,,,,,
