rt,stimulus,button_pressed,trial_type,trial_index,time_elapsed,internal_node_id,subject,list,ppt_race,ppt_gender,url,first_guess,correct,key_press,responses,image_type,phrase_type,test_part
3117,Welcome to the experiment. Press Continue to begin.,0,html-button-response,0,3123,0.0-0.0,51171,List2B,black,woman,,,,,,,,
84053,,,external-html,1,88288,0.0-1.0,51171,List2B,black,woman,consent.html,,,,,,,
23074,"<p>On the next page, you will see portraits of 8 people and their names.</p><p>Your first task is to take a few minutes to memorise the names of these people.</p><p>You will have to recall their names during the rest of the experiment, so it is</p><p>essential that you try to memorise these people and their names as best as you can.</p><br><p><strong>You will then be tested on your memory of these names and portraits.</strong></p><br><p>The experiment will start after you have completed this memory test.</p><br><p>Ready?</p>",0,html-button-response,2,111364,0.0-2.0,51171,List2B,black,woman,,,,,,,,
130519,"<img src='img/portrait_matrix_list2.JPG' style='width:900px;height:500px;''></img><p>If you have memorised all the portraits and names and are ready to start, press Continue.</p><p><strong>Please note: Your memory of these faces will be tested 4 times during this experiment.</strong></p>",0,html-button-response,3,242883,0.0-3.0-0.0,51171,List2B,black,woman,,,,,,,,
4793,"<img src=""portrait/BM1.jpg""style=""width:400px;height:400px;""></img>",4,html-button-response,4,248679,0.0-3.0-1.0,51171,List2B,black,woman,,TRUE,4,,,,,
null,CORRECT,,html-keyboard-response,5,250183,0.0-3.0-2.0-0.0,51171,List2B,black,woman,,,,null,,,,
5657,"<img src=""portrait/WW1.jpg""style=""width:400px;height:400px;""></img>",1,html-button-response,6,255841,0.0-3.0-4.0,51171,List2B,black,woman,,TRUE,1,,,,,
null,CORRECT,,html-keyboard-response,7,257345,0.0-3.0-5.0-0.0,51171,List2B,black,woman,,,,null,,,,
3766,"<img src=""portrait/BW1.jpg""style=""width:400px;height:400px;""></img>",0,html-button-response,8,261112,0.0-3.0-7.0,51171,List2B,black,woman,,TRUE,0,,,,,
null,CORRECT,,html-keyboard-response,9,262615,0.0-3.0-8.0-0.0,51171,List2B,black,woman,,,,null,,,,
4721,"<img src=""portrait/BW2.jpg""style=""width:400px;height:400px;""></img>",2,html-button-response,10,267337,0.0-3.0-10.0,51171,List2B,black,woman,,TRUE,2,,,,,
null,CORRECT,,html-keyboard-response,11,268838,0.0-3.0-11.0-0.0,51171,List2B,black,woman,,,,null,,,,
2560,"<img src=""portrait/WW2.jpg""style=""width:400px;height:400px;""></img>",3,html-button-response,12,271400,0.0-3.0-13.0,51171,List2B,black,woman,,TRUE,3,,,,,
null,CORRECT,,html-keyboard-response,13,272902,0.0-3.0-14.0-0.0,51171,List2B,black,woman,,,,null,,,,
2575,"<img src=""portrait/BM2.jpg""style=""width:400px;height:400px;""></img>",5,html-button-response,14,275479,0.0-3.0-16.0,51171,List2B,black,woman,,TRUE,5,,,,,
null,CORRECT,,html-keyboard-response,15,276983,0.0-3.0-17.0-0.0,51171,List2B,black,woman,,,,null,,,,
4567,"<img src=""portrait/WM1.jpg""style=""width:400px;height:400px;""></img>",6,html-button-response,16,281551,0.0-3.0-19.0,51171,List2B,black,woman,,TRUE,6,,,,,
null,CORRECT,,html-keyboard-response,17,283053,0.0-3.0-20.0-0.0,51171,List2B,black,woman,,,,null,,,,
2837,"<img src=""portrait/WM2.jpg""style=""width:400px;height:400px;""></img>",7,html-button-response,18,285891,0.0-3.0-22.0,51171,List2B,black,woman,,TRUE,7,,,,,
null,CORRECT,,html-keyboard-response,19,287393,0.0-3.0-23.0-0.0,51171,List2B,black,woman,,,,null,,,,
1939,<p>You got 8 out of 8 right first time. Press Continue.</p>,0,html-button-response,20,289333,0.0-3.0-25.0,51171,List2B,black,woman,,,,,,,,
43202,"<p>In this experiment, you will view photographs of the people from the memory game interacting.</p><p>By using the <strong>exact</strong> phrase given <i>after</i> the photograph appears and recalling the correct names of the people in the photographs, form a sentence describing the interaction. You do not need to capitalise names.</p><p>Type your answer in the space provided. Please complete every sentence before moving onto the next trial.</p><p>You will only have a few seconds to memorise each given photograph and phrase before you can respond, so try your best to focus.</p><p>An example is given below. Press 'Continue' when you are ready.</p><img src='img/speaking_example_v2.jpg' style='width:800px;height:460px;''></img>",0,html-button-response,21,333537,0.0-4.0,51171,List2B,black,woman,,,,,,,,
3903,"<p>Before the experiment starts, you will watch two example trials. Press 'Continue'.</p>",0,html-button-response,22,338442,0.0-5.0,51171,List2B,black,woman,,,,,,,,
null,<img src='img/speaking_WW.gif'></img>,,html-keyboard-response,23,341444,0.0-6.0,51171,List2B,black,woman,,,,null,,,,
null,<p>is speaking to</p>,,html-keyboard-response,24,343446,0.0-7.0,51171,List2B,black,woman,,,,null,,,,
2346,<p><b>Answer:</b> jane is speaking to ruth</p>,0,html-button-response,25,345792,0.0-8.0,51171,List2B,black,woman,,,,,,,,
null,<img src='img/pointing_BM.gif'></img>,,html-keyboard-response,26,348794,0.0-9.0,51171,List2B,black,woman,,,,null,,,,
null,<p>are pointing at each other</p>,,html-keyboard-response,27,350796,0.0-10.0,51171,List2B,black,woman,,,,null,,,,
3061,<p><b>Answer:</b> fred and mike are pointing at each other</p>,0,html-button-response,28,353858,0.0-11.0,51171,List2B,black,woman,,,,,,,,
12258,"<p>Ready to start the experiment?</p><br><p><strong>Remember to describe the picture using a full sentence,</strong></p><p><strong>that combines the names of the people with the given phrase.</strong></p><p><strong>If you do not do this correctly you will not be paid.</strong></p><p><strong> You do not need to capitalise names or use punctuation.</strong></p><br><p>Press 'Continue' to begin.</p>",0,html-button-response,29,367118,0.0-12.0,51171,List2B,black,woman,,,,,,,,
null,"<div style=""font-size:60px;"">+</div>",,html-keyboard-response,30,368620,0.0-13.0-0.0,51171,List2B,black,woman,,,,null,,,,
null,"<img src=""stim_listB/touch7.gif""</stim_listB>",,html-keyboard-response,31,370622,0.0-13.0-1.0,51171,List2B,black,woman,,,,null,,,,
null,is touching,,html-keyboard-response,32,372624,0.0-13.0-2.0,51171,List2B,black,woman,,,,null,,,,
7569,,,survey-text,33,380194,0.0-13.0-3.0,51171,List2B,black,woman,,,,,"{""Q0"":""kate is touching jane""}","<img src=""stim_listB/touch7.gif""</stim_listB>",is touching,
null,"<div style=""font-size:60px;"">+</div>",,html-keyboard-response,34,380696,0.0-13.0-0.1,51171,List2B,black,woman,,,,null,,,,
null,"<img src=""stim_listB/shout2.gif""</stim_listB>",,html-keyboard-response,35,382698,0.0-13.0-1.1,51171,List2B,black,woman,,,,null,,,,
null,are shouting at each other,,html-keyboard-response,36,384699,0.0-13.0-2.1,51171,List2B,black,woman,,,,null,,,,
17993,,,survey-text,37,402693,0.0-13.0-3.1,51171,List2B,black,woman,,,,,"{""Q0"":""dave and jane are shouting at each other""}","<img src=""stim_listB/shout2.gif""</stim_listB>",are shouting at each other,
null,"<div style=""font-size:60px;"">+</div>",,html-keyboard-response,38,403194,0.0-13.0-0.2,51171,List2B,black,woman,,,,null,,,,
null,"<img src=""stim_listB/fight8.gif""</stim_listB>",,html-keyboard-response,39,405197,0.0-13.0-1.2,51171,List2B,black,woman,,,,null,,,,
null,are fighting each other,,html-keyboard-response,40,407197,0.0-13.0-2.2,51171,List2B,black,woman,,,,null,,,,
10852,,,survey-text,41,418051,0.0-13.0-3.2,51171,List2B,black,woman,,,,,"{""Q0"":""ruth and beth are fighting each other""}","<img src=""stim_listB/fight8.gif""</stim_listB>",are fighting each other,
null,"<div style=""font-size:60px;"">+</div>",,html-keyboard-response,42,418552,0.0-13.0-0.3,51171,List2B,black,woman,,,,null,,,,
null,"<img src=""stim_listB/fight1.gif""</stim_listB>",,html-keyboard-response,43,420553,0.0-13.0-1.3,51171,List2B,black,woman,,,,null,,,,
null,is fighting,,html-keyboard-response,44,422554,0.0-13.0-2.3,51171,List2B,black,woman,,,,null,,,,
10961,,,survey-text,45,433517,0.0-13.0-3.3,51171,List2B,black,woman,,,,,"{""Q0"":""dave is fighting jane""}","<img src=""stim_listB/fight1.gif""</stim_listB>",is fighting,
null,"<div style=""font-size:60px;"">+</div>",,html-keyboard-response,46,434018,0.0-13.0-0.4,51171,List2B,black,woman,,,,null,,,,
null,"<img src=""stim_listB/marry1.gif""</stim_listB>",,html-keyboard-response,47,436019,0.0-13.0-1.4,51171,List2B,black,woman,,,,null,,,,
null,is marrying,,html-keyboard-response,48,438020,0.0-13.0-2.4,51171,List2B,black,woman,,,,null,,,,
7579,,,survey-text,49,445600,0.0-13.0-3.4,51171,List2B,black,woman,,,,,"{""Q0"":""dave is marrying ruth""}","<img src=""stim_listB/marry1.gif""</stim_listB>",is marrying,
null,"<div style=""font-size:60px;"">+</div>",,html-keyboard-response,50,446101,0.0-13.0-0.5,51171,List2B,black,woman,,,,null,,,,
null,"<img src=""stim_listB/fight2.gif""</stim_listB>",,html-keyboard-response,51,448103,0.0-13.0-1.5,51171,List2B,black,woman,,,,null,,,,
null,are fighting each other,,html-keyboard-response,52,450104,0.0-13.0-2.5,51171,List2B,black,woman,,,,null,,,,
11417,,,survey-text,53,461522,0.0-13.0-3.5,51171,List2B,black,woman,,,,,"{""Q0"":""luke and ruth are fighting each other""}","<img src=""stim_listB/fight2.gif""</stim_listB>",are fighting each other,
null,"<div style=""font-size:60px;"">+</div>",,html-keyboard-response,54,462023,0.0-13.0-0.6,51171,List2B,black,woman,,,,null,,,,
null,"<img src=""stim_listB/touch6.gif""</stim_listB>",,html-keyboard-response,55,464024,0.0-13.0-1.6,51171,List2B,black,woman,,,,null,,,,
null,are touching each other,,html-keyboard-response,56,466025,0.0-13.0-2.6,51171,List2B,black,woman,,,,null,,,,
10151,,,survey-text,57,476177,0.0-13.0-3.6,51171,List2B,black,woman,,,,,"{""Q0"":""luke and fred are touching each other""}","<img src=""stim_listB/touch6.gif""</stim_listB>",are touching each other,
null,"<div style=""font-size:60px;"">+</div>",,html-keyboard-response,58,476678,0.0-13.0-0.7,51171,List2B,black,woman,,,,null,,,,
null,"<img src=""stim_listB/touch4.gif""</stim_listB>",,html-keyboard-response,59,478681,0.0-13.0-1.7,51171,List2B,black,woman,,,,null,,,,
null,are touching each other,,html-keyboard-response,60,480685,0.0-13.0-2.7,51171,List2B,black,woman,,,,null,,,,
13843,,,survey-text,61,494529,0.0-13.0-3.7,51171,List2B,black,woman,,,,,"{""Q0"":""beth and fred are touching each other""}","<img src=""stim_listB/touch4.gif""</stim_listB>",are touching each other,
null,"<div style=""font-size:60px;"">+</div>",,html-keyboard-response,62,495031,0.0-13.0-0.8,51171,List2B,black,woman,,,,null,,,,
null,"<img src=""stim_listB/argue2.gif""</stim_listB>",,html-keyboard-response,63,497034,0.0-13.0-1.8,51171,List2B,black,woman,,,,null,,,,
null,are arguing with each other,,html-keyboard-response,64,499035,0.0-13.0-2.8,51171,List2B,black,woman,,,,null,,,,
12883,,,survey-text,65,511918,0.0-13.0-3.8,51171,List2B,black,woman,,,,,"{""Q0"":""luke and jane are arguing with each other""}","<img src=""stim_listB/argue2.gif""</stim_listB>",are arguing with each other,
null,"<div style=""font-size:60px;"">+</div>",,html-keyboard-response,66,512423,0.0-13.0-0.9,51171,List2B,black,woman,,,,null,,,,
null,"<img src=""stim_listB/touch3.gif""</stim_listB>",,html-keyboard-response,67,514425,0.0-13.0-1.9,51171,List2B,black,woman,,,,null,,,,
null,is touching,,html-keyboard-response,68,516426,0.0-13.0-2.9,51171,List2B,black,woman,,,,null,,,,
21259,,,survey-text,69,537685,0.0-13.0-3.9,51171,List2B,black,woman,,,,,"{""Q0"":""kate is touching mike""}","<img src=""stim_listB/touch3.gif""</stim_listB>",is touching,
null,"<div style=""font-size:60px;"">+</div>",,html-keyboard-response,70,538186,0.0-13.0-0.10,51171,List2B,black,woman,,,,null,,,,
null,"<img src=""stim_listB/fight5.gif""</stim_listB>",,html-keyboard-response,71,540188,0.0-13.0-1.10,51171,List2B,black,woman,,,,null,,,,
null,is fighting,,html-keyboard-response,72,542190,0.0-13.0-2.10,51171,List2B,black,woman,,,,null,,,,
9501,,,survey-text,73,551691,0.0-13.0-3.10,51171,List2B,black,woman,,,,,"{""Q0"":""mike is fighting dave""}","<img src=""stim_listB/fight5.gif""</stim_listB>",is fighting,
null,"<div style=""font-size:60px;"">+</div>",,html-keyboard-response,74,552192,0.0-13.0-0.11,51171,List2B,black,woman,,,,null,,,,
null,"<img src=""stim_listB/marry5.gif""</stim_listB>",,html-keyboard-response,75,554194,0.0-13.0-1.11,51171,List2B,black,woman,,,,null,,,,
null,is marrying,,html-keyboard-response,76,556194,0.0-13.0-2.11,51171,List2B,black,woman,,,,null,,,,
6382,,,survey-text,77,562578,0.0-13.0-3.11,51171,List2B,black,woman,,,,,"{""Q0"":""fred is marrying dave""}","<img src=""stim_listB/marry5.gif""</stim_listB>",is marrying,
null,"<div style=""font-size:60px;"">+</div>",,html-keyboard-response,78,563078,0.0-13.0-0.12,51171,List2B,black,woman,,,,null,,,,
null,"<img src=""stim_listB/shout8.gif""</stim_listB>",,html-keyboard-response,79,565080,0.0-13.0-1.12,51171,List2B,black,woman,,,,null,,,,
null,are shouting at each other,,html-keyboard-response,80,567081,0.0-13.0-2.12,51171,List2B,black,woman,,,,null,,,,
9155,,,survey-text,81,576236,0.0-13.0-3.12,51171,List2B,black,woman,,,,,"{""Q0"":""kate and ruth are shouting at each other""}","<img src=""stim_listB/shout8.gif""</stim_listB>",are shouting at each other,
null,"<div style=""font-size:60px;"">+</div>",,html-keyboard-response,82,576738,0.0-13.0-0.13,51171,List2B,black,woman,,,,null,,,,
null,"<img src=""stim_listB/shout6.gif""</stim_listB>",,html-keyboard-response,83,578740,0.0-13.0-1.13,51171,List2B,black,woman,,,,null,,,,
null,are shouting at each other,,html-keyboard-response,84,580741,0.0-13.0-2.13,51171,List2B,black,woman,,,,null,,,,
9253,,,survey-text,85,589996,0.0-13.0-3.13,51171,List2B,black,woman,,,,,"{""Q0"":""dave and mike are shouting at each other""}","<img src=""stim_listB/shout6.gif""</stim_listB>",are shouting at each other,
null,"<div style=""font-size:60px;"">+</div>",,html-keyboard-response,86,590497,0.0-13.0-0.14,51171,List2B,black,woman,,,,null,,,,
null,"<img src=""stim_listB/marry7.gif""</stim_listB>",,html-keyboard-response,87,592499,0.0-13.0-1.14,51171,List2B,black,woman,,,,null,,,,
null,is marrying,,html-keyboard-response,88,594500,0.0-13.0-2.14,51171,List2B,black,woman,,,,null,,,,
8280,,,survey-text,89,602782,0.0-13.0-3.14,51171,List2B,black,woman,,,,,"{""Q0"":""kate is marrying jane""}","<img src=""stim_listB/marry7.gif""</stim_listB>",is marrying,
null,"<div style=""font-size:60px;"">+</div>",,html-keyboard-response,90,603284,0.0-13.0-0.15,51171,List2B,black,woman,,,,null,,,,
null,"<img src=""stim_listB/talk3.gif""</stim_listB>",,html-keyboard-response,91,605285,0.0-13.0-1.15,51171,List2B,black,woman,,,,null,,,,
null,is talking to,,html-keyboard-response,92,607287,0.0-13.0-2.15,51171,List2B,black,woman,,,,null,,,,
6755,,,survey-text,93,614042,0.0-13.0-3.15,51171,List2B,black,woman,,,,,"{""Q0"":""kate is talking to fred""}","<img src=""stim_listB/talk3.gif""</stim_listB>",is talking to,
null,"<div style=""font-size:60px;"">+</div>",,html-keyboard-response,94,614543,0.0-13.0-0.16,51171,List2B,black,woman,,,,null,,,,
null,"<img src=""stim_listB/dance3.gif""</stim_listB>",,html-keyboard-response,95,616545,0.0-13.0-1.16,51171,List2B,black,woman,,,,null,,,,
null,is dancing with,,html-keyboard-response,96,618546,0.0-13.0-2.16,51171,List2B,black,woman,,,,null,,,,
8824,,,survey-text,97,627371,0.0-13.0-3.16,51171,List2B,black,woman,,,,,"{""Q0"":""kate is dancing with fred""}","<img src=""stim_listB/dance3.gif""</stim_listB>",is dancing with,
null,"<div style=""font-size:60px;"">+</div>",,html-keyboard-response,98,627872,0.0-13.0-0.17,51171,List2B,black,woman,,,,null,,,,
null,"<img src=""stim_listB/dance2.gif""</stim_listB>",,html-keyboard-response,99,629874,0.0-13.0-1.17,51171,List2B,black,woman,,,,null,,,,
null,are dancing with each other,,html-keyboard-response,100,631874,0.0-13.0-2.17,51171,List2B,black,woman,,,,null,,,,
14059,,,survey-text,101,645935,0.0-13.0-3.17,51171,List2B,black,woman,,,,,"{""Q0"":""dave and ruth are dancing with each other""}","<img src=""stim_listB/dance2.gif""</stim_listB>",are dancing with each other,
null,"<div style=""font-size:60px;"">+</div>",,html-keyboard-response,102,646436,0.0-13.0-0.18,51171,List2B,black,woman,,,,null,,,,
null,"<img src=""stim_listB/touch2.gif""</stim_listB>",,html-keyboard-response,103,648439,0.0-13.0-1.18,51171,List2B,black,woman,,,,null,,,,
null,are touching each other,,html-keyboard-response,104,650439,0.0-13.0-2.18,51171,List2B,black,woman,,,,null,,,,
13146,,,survey-text,105,663587,0.0-13.0-3.18,51171,List2B,black,woman,,,,,"{""Q0"":""luke and ruth are touching each other""}","<img src=""stim_listB/touch2.gif""</stim_listB>",are touching each other,
null,"<div style=""font-size:60px;"">+</div>",,html-keyboard-response,106,664089,0.0-13.0-0.19,51171,List2B,black,woman,,,,null,,,,
null,"<img src=""stim_listB/marry4.gif""</stim_listB>",,html-keyboard-response,107,666090,0.0-13.0-1.19,51171,List2B,black,woman,,,,null,,,,
null,are marrying each other,,html-keyboard-response,108,668091,0.0-13.0-2.19,51171,List2B,black,woman,,,,null,,,,
12366,,,survey-text,109,680457,0.0-13.0-3.19,51171,List2B,black,woman,,,,,"{""Q0"":""fred and kate are marrying each other""}","<img src=""stim_listB/marry4.gif""</stim_listB>",are marrying each other,
9186,"<img src='img/portrait_matrix_list2.JPG' style='width:900px;height:500px;''></img><p>If you have memorised all the portraits and names and are ready to start, press Continue.</p><p><strong>Please note: Your memory of these faces will be tested 4 times during this experiment.</strong></p>",0,html-button-response,110,689645,0.0-14.0-0.0,51171,List2B,black,woman,,,,,,,,
2657,"<img src=""portrait/BW1.jpg""style=""width:400px;height:400px;""></img>",0,html-button-response,111,693304,0.0-14.0-1.0,51171,List2B,black,woman,,TRUE,0,,,,,
null,CORRECT,,html-keyboard-response,112,694807,0.0-14.0-2.0-0.0,51171,List2B,black,woman,,,,null,,,,
1990,"<img src=""portrait/BW2.jpg""style=""width:400px;height:400px;""></img>",2,html-button-response,113,696799,0.0-14.0-4.0,51171,List2B,black,woman,,TRUE,2,,,,,
null,CORRECT,,html-keyboard-response,114,698301,0.0-14.0-5.0-0.0,51171,List2B,black,woman,,,,null,,,,
1729,"<img src=""portrait/WW2.jpg""style=""width:400px;height:400px;""></img>",3,html-button-response,115,700032,0.0-14.0-7.0,51171,List2B,black,woman,,TRUE,3,,,,,
null,CORRECT,,html-keyboard-response,116,701535,0.0-14.0-8.0-0.0,51171,List2B,black,woman,,,,null,,,,
1589,"<img src=""portrait/WW1.jpg""style=""width:400px;height:400px;""></img>",1,html-button-response,117,703126,0.0-14.0-10.0,51171,List2B,black,woman,,TRUE,1,,,,,
null,CORRECT,,html-keyboard-response,118,704628,0.0-14.0-11.0-0.0,51171,List2B,black,woman,,,,null,,,,
2170,"<img src=""portrait/WM2.jpg""style=""width:400px;height:400px;""></img>",7,html-button-response,119,706799,0.0-14.0-13.0,51171,List2B,black,woman,,TRUE,7,,,,,
null,CORRECT,,html-keyboard-response,120,708301,0.0-14.0-14.0-0.0,51171,List2B,black,woman,,,,null,,,,
2601,"<img src=""portrait/WM1.jpg""style=""width:400px;height:400px;""></img>",6,html-button-response,121,710903,0.0-14.0-16.0,51171,List2B,black,woman,,TRUE,6,,,,,
null,CORRECT,,html-keyboard-response,122,712405,0.0-14.0-17.0-0.0,51171,List2B,black,woman,,,,null,,,,
2858,"<img src=""portrait/BM2.jpg""style=""width:400px;height:400px;""></img>",5,html-button-response,123,715265,0.0-14.0-19.0,51171,List2B,black,woman,,TRUE,5,,,,,
null,CORRECT,,html-keyboard-response,124,716767,0.0-14.0-20.0-0.0,51171,List2B,black,woman,,,,null,,,,
1952,"<img src=""portrait/BM1.jpg""style=""width:400px;height:400px;""></img>",4,html-button-response,125,718720,0.0-14.0-22.0,51171,List2B,black,woman,,TRUE,4,,,,,
null,CORRECT,,html-keyboard-response,126,720222,0.0-14.0-23.0-0.0,51171,List2B,black,woman,,,,null,,,,
3596,<p>You got 8 out of 8 right first time. Press Continue.</p>,0,html-button-response,127,723819,0.0-14.0-25.0,51171,List2B,black,woman,,,,,,,,
null,"<div style=""font-size:60px;"">+</div>",,html-keyboard-response,128,725322,0.0-15.0-0.0,51171,List2B,black,woman,,,,null,,,,
null,"<img src=""stim_listB/dance7.gif""</stim_listB>",,html-keyboard-response,129,727325,0.0-15.0-1.0,51171,List2B,black,woman,,,,null,,,,
null,is dancing with,,html-keyboard-response,130,729326,0.0-15.0-2.0,51171,List2B,black,woman,,,,null,,,,
7519,,,survey-text,131,736847,0.0-15.0-3.0,51171,List2B,black,woman,,,,,"{""Q0"":""kate is dancing with ruth""}","<img src=""stim_listB/dance7.gif""</stim_listB>",is dancing with,
null,"<div style=""font-size:60px;"">+</div>",,html-keyboard-response,132,737348,0.0-15.0-0.1,51171,List2B,black,woman,,,,null,,,,
null,"<img src=""stim_listB/dance8.gif""</stim_listB>",,html-keyboard-response,133,739350,0.0-15.0-1.1,51171,List2B,black,woman,,,,null,,,,
null,are dancing with each other,,html-keyboard-response,134,741351,0.0-15.0-2.1,51171,List2B,black,woman,,,,null,,,,
10600,,,survey-text,135,751952,0.0-15.0-3.1,51171,List2B,black,woman,,,,,"{""Q0"":""jane and beth are dancing with each other""}","<img src=""stim_listB/dance8.gif""</stim_listB>",are dancing with each other,
null,"<div style=""font-size:60px;"">+</div>",,html-keyboard-response,136,752453,0.0-15.0-0.2,51171,List2B,black,woman,,,,null,,,,
null,"<img src=""stim_listB/talk8.gif""</stim_listB>",,html-keyboard-response,137,754454,0.0-15.0-1.2,51171,List2B,black,woman,,,,null,,,,
null,are talking to each other,,html-keyboard-response,138,756455,0.0-15.0-2.2,51171,List2B,black,woman,,,,null,,,,
10851,,,survey-text,139,767307,0.0-15.0-3.2,51171,List2B,black,woman,,,,,"{""Q0"":""jane and beth are talking with each other""}","<img src=""stim_listB/talk8.gif""</stim_listB>",are talking to each other,
null,"<div style=""font-size:60px;"">+</div>",,html-keyboard-response,140,767809,0.0-15.0-0.3,51171,List2B,black,woman,,,,null,,,,
null,"<img src=""stim_listB/hug7.gif""</stim_listB>",,html-keyboard-response,141,769810,0.0-15.0-1.3,51171,List2B,black,woman,,,,null,,,,
null,is hugging,,html-keyboard-response,142,771812,0.0-15.0-2.3,51171,List2B,black,woman,,,,null,,,,
6388,,,survey-text,143,778200,0.0-15.0-3.3,51171,List2B,black,woman,,,,,"{""Q0"":""beth is hugging ruth""}","<img src=""stim_listB/hug7.gif""</stim_listB>",is hugging,
null,"<div style=""font-size:60px;"">+</div>",,html-keyboard-response,144,778702,0.0-15.0-0.4,51171,List2B,black,woman,,,,null,,,,
null,"<img src=""stim_listB/marry2.gif""</stim_listB>",,html-keyboard-response,145,780703,0.0-15.0-1.4,51171,List2B,black,woman,,,,null,,,,
null,are marrying each other,,html-keyboard-response,146,782704,0.0-15.0-2.4,51171,List2B,black,woman,,,,null,,,,
9955,,,survey-text,147,792660,0.0-15.0-3.4,51171,List2B,black,woman,,,,,"{""Q0"":""luke and jane are marrying each other""}","<img src=""stim_listB/marry2.gif""</stim_listB>",are marrying each other,
null,"<div style=""font-size:60px;"">+</div>",,html-keyboard-response,148,793161,0.0-15.0-0.5,51171,List2B,black,woman,,,,null,,,,
null,"<img src=""stim_listB/dance1.gif""</stim_listB>",,html-keyboard-response,149,795163,0.0-15.0-1.5,51171,List2B,black,woman,,,,null,,,,
null,is dancing with,,html-keyboard-response,150,797163,0.0-15.0-2.5,51171,List2B,black,woman,,,,null,,,,
7552,,,survey-text,151,804717,0.0-15.0-3.5,51171,List2B,black,woman,,,,,"{""Q0"":""luke is dancing with jane""}","<img src=""stim_listB/dance1.gif""</stim_listB>",is dancing with,
null,"<div style=""font-size:60px;"">+</div>",,html-keyboard-response,152,805219,0.0-15.0-0.6,51171,List2B,black,woman,,,,null,,,,
null,"<img src=""stim_listB/hug5.gif""</stim_listB>",,html-keyboard-response,153,807221,0.0-15.0-1.6,51171,List2B,black,woman,,,,null,,,,
null,is hugging,,html-keyboard-response,154,809221,0.0-15.0-2.6,51171,List2B,black,woman,,,,null,,,,
6982,,,survey-text,155,816205,0.0-15.0-3.6,51171,List2B,black,woman,,,,,"{""Q0"":""luke is hugging fred""}","<img src=""stim_listB/hug5.gif""</stim_listB>",is hugging,
null,"<div style=""font-size:60px;"">+</div>",,html-keyboard-response,156,816707,0.0-15.0-0.7,51171,List2B,black,woman,,,,null,,,,
null,"<img src=""stim_listB/shout4.gif""</stim_listB>",,html-keyboard-response,157,818709,0.0-15.0-1.7,51171,List2B,black,woman,,,,null,,,,
null,are shouting at each other,,html-keyboard-response,158,820709,0.0-15.0-2.7,51171,List2B,black,woman,,,,null,,,,
10297,,,survey-text,159,831007,0.0-15.0-3.7,51171,List2B,black,woman,,,,,"{""Q0"":""mike and kate are shouting at each other""}","<img src=""stim_listB/shout4.gif""</stim_listB>",are shouting at each other,
null,"<div style=""font-size:60px;"">+</div>",,html-keyboard-response,160,831508,0.0-15.0-0.8,51171,List2B,black,woman,,,,null,,,,
null,"<img src=""stim_listB/argue1.gif""</stim_listB>",,html-keyboard-response,161,833511,0.0-15.0-1.8,51171,List2B,black,woman,,,,null,,,,
null,is arguing with,,html-keyboard-response,162,835512,0.0-15.0-2.8,51171,List2B,black,woman,,,,null,,,,
9516,,,survey-text,163,845028,0.0-15.0-3.8,51171,List2B,black,woman,,,,,"{""Q0"":""ruth is arguing with dave""}","<img src=""stim_listB/argue1.gif""</stim_listB>",is arguing with,
null,"<div style=""font-size:60px;"">+</div>",,html-keyboard-response,164,845530,0.0-15.0-0.9,51171,List2B,black,woman,,,,null,,,,
null,"<img src=""stim_listB/argue7.gif""</stim_listB>",,html-keyboard-response,165,847533,0.0-15.0-1.9,51171,List2B,black,woman,,,,null,,,,
null,is arguing with,,html-keyboard-response,166,849534,0.0-15.0-2.9,51171,List2B,black,woman,,,,null,,,,
8426,,,survey-text,167,857961,0.0-15.0-3.9,51171,List2B,black,woman,,,,,"{""Q0"":""beth is arguing with jane""}","<img src=""stim_listB/argue7.gif""</stim_listB>",is arguing with,
null,"<div style=""font-size:60px;"">+</div>",,html-keyboard-response,168,858462,0.0-15.0-0.10,51171,List2B,black,woman,,,,null,,,,
null,"<img src=""stim_listB/kiss1.gif""</stim_listB>",,html-keyboard-response,169,860463,0.0-15.0-1.10,51171,List2B,black,woman,,,,null,,,,
null,is kissing,,html-keyboard-response,170,862465,0.0-15.0-2.10,51171,List2B,black,woman,,,,null,,,,
6115,,,survey-text,171,868580,0.0-15.0-3.10,51171,List2B,black,woman,,,,,"{""Q0"":""luke is kissing ruth""}","<img src=""stim_listB/kiss1.gif""</stim_listB>",is kissing,
null,"<div style=""font-size:60px;"">+</div>",,html-keyboard-response,172,869081,0.0-15.0-0.11,51171,List2B,black,woman,,,,null,,,,
null,"<img src=""stim_listB/dance5.gif""</stim_listB>",,html-keyboard-response,173,871083,0.0-15.0-1.11,51171,List2B,black,woman,,,,null,,,,
null,is dancing with,,html-keyboard-response,174,873085,0.0-15.0-2.11,51171,List2B,black,woman,,,,null,,,,
8081,,,survey-text,175,881166,0.0-15.0-3.11,51171,List2B,black,woman,,,,,"{""Q0"":""mike is dancing with luke""}","<img src=""stim_listB/dance5.gif""</stim_listB>",is dancing with,
null,"<div style=""font-size:60px;"">+</div>",,html-keyboard-response,176,881668,0.0-15.0-0.12,51171,List2B,black,woman,,,,null,,,,
null,"<img src=""stim_listB/talk7.gif""</stim_listB>",,html-keyboard-response,177,883669,0.0-15.0-1.12,51171,List2B,black,woman,,,,null,,,,
null,is talking to,,html-keyboard-response,178,885671,0.0-15.0-2.12,51171,List2B,black,woman,,,,null,,,,
7389,,,survey-text,179,893061,0.0-15.0-3.12,51171,List2B,black,woman,,,,,"{""Q0"":""kate is talking to ruth""}","<img src=""stim_listB/talk7.gif""</stim_listB>",is talking to,
null,"<div style=""font-size:60px;"">+</div>",,html-keyboard-response,180,893563,0.0-15.0-0.13,51171,List2B,black,woman,,,,null,,,,
null,"<img src=""stim_listB/talk1.gif""</stim_listB>",,html-keyboard-response,181,895565,0.0-15.0-1.13,51171,List2B,black,woman,,,,null,,,,
null,is talking to,,html-keyboard-response,182,897567,0.0-15.0-2.13,51171,List2B,black,woman,,,,null,,,,
7181,,,survey-text,183,904749,0.0-15.0-3.13,51171,List2B,black,woman,,,,,"{""Q0"":""jane is talking to luke""}","<img src=""stim_listB/talk1.gif""</stim_listB>",is talking to,
null,"<div style=""font-size:60px;"">+</div>",,html-keyboard-response,184,905251,0.0-15.0-0.14,51171,List2B,black,woman,,,,null,,,,
null,"<img src=""stim_listB/shout5.gif""</stim_listB>",,html-keyboard-response,185,907252,0.0-15.0-1.14,51171,List2B,black,woman,,,,null,,,,
null,is shouting at,,html-keyboard-response,186,909253,0.0-15.0-2.14,51171,List2B,black,woman,,,,null,,,,
7817,,,survey-text,187,917071,0.0-15.0-3.14,51171,List2B,black,woman,,,,,"{""Q0"":""fred is shouting at luke""}","<img src=""stim_listB/shout5.gif""</stim_listB>",is shouting at,
null,"<div style=""font-size:60px;"">+</div>",,html-keyboard-response,188,917573,0.0-15.0-0.15,51171,List2B,black,woman,,,,null,,,,
null,"<img src=""stim_listB/fight4.gif""</stim_listB>",,html-keyboard-response,189,919575,0.0-15.0-1.15,51171,List2B,black,woman,,,,null,,,,
null,are fighting each other,,html-keyboard-response,190,921576,0.0-15.0-2.15,51171,List2B,black,woman,,,,null,,,,
9292,,,survey-text,191,930869,0.0-15.0-3.15,51171,List2B,black,woman,,,,,"{""Q0"":""fred and beth are fighting each other""}","<img src=""stim_listB/fight4.gif""</stim_listB>",are fighting each other,
null,"<div style=""font-size:60px;"">+</div>",,html-keyboard-response,192,931370,0.0-15.0-0.16,51171,List2B,black,woman,,,,null,,,,
null,"<img src=""stim_listB/talk4.gif""</stim_listB>",,html-keyboard-response,193,933372,0.0-15.0-1.16,51171,List2B,black,woman,,,,null,,,,
null,are talking to each other,,html-keyboard-response,194,935373,0.0-15.0-2.16,51171,List2B,black,woman,,,,null,,,,
10489,,,survey-text,195,945862,0.0-15.0-3.16,51171,List2B,black,woman,,,,,"{""Q0"":""mike and beth are talking to each other""}","<img src=""stim_listB/talk4.gif""</stim_listB>",are talking to each other,
null,"<div style=""font-size:60px;"">+</div>",,html-keyboard-response,196,946363,0.0-15.0-0.17,51171,List2B,black,woman,,,,null,,,,
null,"<img src=""stim_listB/fight3.gif""</stim_listB>",,html-keyboard-response,197,948365,0.0-15.0-1.17,51171,List2B,black,woman,,,,null,,,,
null,is fighting,,html-keyboard-response,198,950366,0.0-15.0-2.17,51171,List2B,black,woman,,,,null,,,,
6856,,,survey-text,199,957222,0.0-15.0-3.17,51171,List2B,black,woman,,,,,"{""Q0"":""kate is fighting mike""}","<img src=""stim_listB/fight3.gif""</stim_listB>",is fighting,
null,"<div style=""font-size:60px;"">+</div>",,html-keyboard-response,200,957724,0.0-15.0-0.18,51171,List2B,black,woman,,,,null,,,,
null,"<img src=""stim_listB/kiss3.gif""</stim_listB>",,html-keyboard-response,201,959726,0.0-15.0-1.18,51171,List2B,black,woman,,,,null,,,,
null,is kissing,,html-keyboard-response,202,961727,0.0-15.0-2.18,51171,List2B,black,woman,,,,null,,,,
9454,,,survey-text,203,971182,0.0-15.0-3.18,51171,List2B,black,woman,,,,,"{""Q0"":""beth is kissing fred""}","<img src=""stim_listB/kiss3.gif""</stim_listB>",is kissing,
null,"<div style=""font-size:60px;"">+</div>",,html-keyboard-response,204,971684,0.0-15.0-0.19,51171,List2B,black,woman,,,,null,,,,
null,"<img src=""stim_listB/talk2.gif""</stim_listB>",,html-keyboard-response,205,973685,0.0-15.0-1.19,51171,List2B,black,woman,,,,null,,,,
null,are talking to each other,,html-keyboard-response,206,975686,0.0-15.0-2.19,51171,List2B,black,woman,,,,null,,,,
11240,,,survey-text,207,986926,0.0-15.0-3.19,51171,List2B,black,woman,,,,,"{""Q0"":""dave and ruth are talking to each other""}","<img src=""stim_listB/talk2.gif""</stim_listB>",are talking to each other,
3803,"<img src='img/portrait_matrix_list2.JPG' style='width:900px;height:500px;''></img><p>If you have memorised all the portraits and names and are ready to start, press Continue.</p><p><strong>Please note: Your memory of these faces will be tested 4 times during this experiment.</strong></p>",0,html-button-response,208,990730,0.0-16.0-0.0,51171,List2B,black,woman,,,,,,,,
1397,"<img src=""portrait/WM2.jpg""style=""width:400px;height:400px;""></img>",7,html-button-response,209,993128,0.0-16.0-1.0,51171,List2B,black,woman,,TRUE,7,,,,,
null,CORRECT,,html-keyboard-response,210,994632,0.0-16.0-2.0-0.0,51171,List2B,black,woman,,,,null,,,,
2443,"<img src=""portrait/BW2.jpg""style=""width:400px;height:400px;""></img>",2,html-button-response,211,997077,0.0-16.0-4.0,51171,List2B,black,woman,,TRUE,2,,,,,
null,CORRECT,,html-keyboard-response,212,998580,0.0-16.0-5.0-0.0,51171,List2B,black,woman,,,,null,,,,
1931,"<img src=""portrait/WW1.jpg""style=""width:400px;height:400px;""></img>",1,html-button-response,213,1000512,0.0-16.0-7.0,51171,List2B,black,woman,,TRUE,1,,,,,
null,CORRECT,,html-keyboard-response,214,1002013,0.0-16.0-8.0-0.0,51171,List2B,black,woman,,,,null,,,,
1580,"<img src=""portrait/WM1.jpg""style=""width:400px;height:400px;""></img>",6,html-button-response,215,1003594,0.0-16.0-10.0,51171,List2B,black,woman,,TRUE,6,,,,,
null,CORRECT,,html-keyboard-response,216,1005097,0.0-16.0-11.0-0.0,51171,List2B,black,woman,,,,null,,,,
1716,"<img src=""portrait/BM1.jpg""style=""width:400px;height:400px;""></img>",4,html-button-response,217,1006815,0.0-16.0-13.0,51171,List2B,black,woman,,TRUE,4,,,,,
null,CORRECT,,html-keyboard-response,218,1008319,0.0-16.0-14.0-0.0,51171,List2B,black,woman,,,,null,,,,
1958,"<img src=""portrait/BW1.jpg""style=""width:400px;height:400px;""></img>",0,html-button-response,219,1010278,0.0-16.0-16.0,51171,List2B,black,woman,,TRUE,0,,,,,
null,CORRECT,,html-keyboard-response,220,1011779,0.0-16.0-17.0-0.0,51171,List2B,black,woman,,,,null,,,,
1992,"<img src=""portrait/BM2.jpg""style=""width:400px;height:400px;""></img>",5,html-button-response,221,1013773,0.0-16.0-19.0,51171,List2B,black,woman,,TRUE,5,,,,,
null,CORRECT,,html-keyboard-response,222,1015274,0.0-16.0-20.0-0.0,51171,List2B,black,woman,,,,null,,,,
1714,"<img src=""portrait/WW2.jpg""style=""width:400px;height:400px;""></img>",3,html-button-response,223,1016990,0.0-16.0-22.0,51171,List2B,black,woman,,TRUE,3,,,,,
null,CORRECT,,html-keyboard-response,224,1018492,0.0-16.0-23.0-0.0,51171,List2B,black,woman,,,,null,,,,
1625,<p>You got 8 out of 8 right first time. Press Continue.</p>,0,html-button-response,225,1020118,0.0-16.0-25.0,51171,List2B,black,woman,,,,,,,,
null,"<div style=""font-size:60px;"">+</div>",,html-keyboard-response,226,1021622,0.0-17.0-0.0,51171,List2B,black,woman,,,,null,,,,
null,"<img src=""stim_listB/fight6.gif""</stim_listB>",,html-keyboard-response,227,1023623,0.0-17.0-1.0,51171,List2B,black,woman,,,,null,,,,
null,are fighting each other,,html-keyboard-response,228,1025625,0.0-17.0-2.0,51171,List2B,black,woman,,,,null,,,,
9868,,,survey-text,229,1035494,0.0-17.0-3.0,51171,List2B,black,woman,,,,,"{""Q0"":""luke and fred are fighting each other""}","<img src=""stim_listB/fight6.gif""</stim_listB>",are fighting each other,
null,"<div style=""font-size:60px;"">+</div>",,html-keyboard-response,230,1035996,0.0-17.0-0.1,51171,List2B,black,woman,,,,null,,,,
null,"<img src=""stim_listB/fight7.gif""</stim_listB>",,html-keyboard-response,231,1037998,0.0-17.0-1.1,51171,List2B,black,woman,,,,null,,,,
null,is fighting,,html-keyboard-response,232,1039999,0.0-17.0-2.1,51171,List2B,black,woman,,,,null,,,,
5411,,,survey-text,233,1045411,0.0-17.0-3.1,51171,List2B,black,woman,,,,,"{""Q0"":""kate is fighting jane""}","<img src=""stim_listB/fight7.gif""</stim_listB>",is fighting,
null,"<div style=""font-size:60px;"">+</div>",,html-keyboard-response,234,1045913,0.0-17.0-0.2,51171,List2B,black,woman,,,,null,,,,
null,"<img src=""stim_listB/hug1.gif""</stim_listB>",,html-keyboard-response,235,1047916,0.0-17.0-1.2,51171,List2B,black,woman,,,,null,,,,
null,is hugging,,html-keyboard-response,236,1049917,0.0-17.0-2.2,51171,List2B,black,woman,,,,null,,,,
7182,,,survey-text,237,1057100,0.0-17.0-3.2,51171,List2B,black,woman,,,,,"{""Q0"":""ruth is hugging luke""}","<img src=""stim_listB/hug1.gif""</stim_listB>",is hugging,
null,"<div style=""font-size:60px;"">+</div>",,html-keyboard-response,238,1057601,0.0-17.0-0.3,51171,List2B,black,woman,,,,null,,,,
null,"<img src=""stim_listB/hug4.gif""</stim_listB>",,html-keyboard-response,239,1059604,0.0-17.0-1.3,51171,List2B,black,woman,,,,null,,,,
null,are hugging each other,,html-keyboard-response,240,1061604,0.0-17.0-2.3,51171,List2B,black,woman,,,,null,,,,
10882,,,survey-text,241,1072487,0.0-17.0-3.3,51171,List2B,black,woman,,,,,"{""Q0"":""mike and kate are hugging each other""}","<img src=""stim_listB/hug4.gif""</stim_listB>",are hugging each other,
null,"<div style=""font-size:60px;"">+</div>",,html-keyboard-response,242,1072988,0.0-17.0-0.4,51171,List2B,black,woman,,,,null,,,,
null,"<img src=""stim_listB/argue3.gif""</stim_listB>",,html-keyboard-response,243,1074990,0.0-17.0-1.4,51171,List2B,black,woman,,,,null,,,,
null,is arguing with,,html-keyboard-response,244,1076990,0.0-17.0-2.4,51171,List2B,black,woman,,,,null,,,,
8709,,,survey-text,245,1085700,0.0-17.0-3.4,51171,List2B,black,woman,,,,,"{""Q0"":""beth is arguing with mike""}","<img src=""stim_listB/argue3.gif""</stim_listB>",is arguing with,
null,"<div style=""font-size:60px;"">+</div>",,html-keyboard-response,246,1086202,0.0-17.0-0.5,51171,List2B,black,woman,,,,null,,,,
null,"<img src=""stim_listB/kiss5.gif""</stim_listB>",,html-keyboard-response,247,1088203,0.0-17.0-1.5,51171,List2B,black,woman,,,,null,,,,
null,is kissing,,html-keyboard-response,248,1090204,0.0-17.0-2.5,51171,List2B,black,woman,,,,null,,,,
5903,,,survey-text,249,1096108,0.0-17.0-3.5,51171,List2B,black,woman,,,,,"{""Q0"":""fred is kissing luke""}","<img src=""stim_listB/kiss5.gif""</stim_listB>",is kissing,
null,"<div style=""font-size:60px;"">+</div>",,html-keyboard-response,250,1096609,0.0-17.0-0.6,51171,List2B,black,woman,,,,null,,,,
null,"<img src=""stim_listB/shout1.gif""</stim_listB>",,html-keyboard-response,251,1098610,0.0-17.0-1.6,51171,List2B,black,woman,,,,null,,,,
null,is shouting at,,html-keyboard-response,252,1100611,0.0-17.0-2.6,51171,List2B,black,woman,,,,null,,,,
14203,,,survey-text,253,1114815,0.0-17.0-3.6,51171,List2B,black,woman,,,,,"{""Q0"":""luke is shouting at ruth""}","<img src=""stim_listB/shout1.gif""</stim_listB>",is shouting at,
null,"<div style=""font-size:60px;"">+</div>",,html-keyboard-response,254,1115316,0.0-17.0-0.7,51171,List2B,black,woman,,,,null,,,,
null,"<img src=""stim_listB/meet2.gif""</stim_listB>",,html-keyboard-response,255,1117318,0.0-17.0-1.7,51171,List2B,black,woman,,,,null,,,,
null,are meeting each other,,html-keyboard-response,256,1119320,0.0-17.0-2.7,51171,List2B,black,woman,,,,null,,,,
9783,,,survey-text,257,1129104,0.0-17.0-3.7,51171,List2B,black,woman,,,,,"{""Q0"":""luke and ruth are meeting each other""}","<img src=""stim_listB/meet2.gif""</stim_listB>",are meeting each other,
null,"<div style=""font-size:60px;"">+</div>",,html-keyboard-response,258,1129607,0.0-17.0-0.8,51171,List2B,black,woman,,,,null,,,,
null,"<img src=""stim_listB/kiss6.gif""</stim_listB>",,html-keyboard-response,259,1131609,0.0-17.0-1.8,51171,List2B,black,woman,,,,null,,,,
null,are kissing each other,,html-keyboard-response,260,1133610,0.0-17.0-2.8,51171,List2B,black,woman,,,,null,,,,
11371,,,survey-text,261,1144982,0.0-17.0-3.8,51171,List2B,black,woman,,,,,"{""Q0"":""mike and dave are kissing each other""}","<img src=""stim_listB/kiss6.gif""</stim_listB>",are kissing each other,
null,"<div style=""font-size:60px;"">+</div>",,html-keyboard-response,262,1145484,0.0-17.0-0.9,51171,List2B,black,woman,,,,null,,,,
null,"<img src=""stim_listB/dance6.gif""</stim_listB>",,html-keyboard-response,263,1147485,0.0-17.0-1.9,51171,List2B,black,woman,,,,null,,,,
null,are dancing with each other,,html-keyboard-response,264,1149486,0.0-17.0-2.9,51171,List2B,black,woman,,,,null,,,,
10843,,,survey-text,265,1160329,0.0-17.0-3.9,51171,List2B,black,woman,,,,,"{""Q0"":""dave and fred are dancing with each other""}","<img src=""stim_listB/dance6.gif""</stim_listB>",are dancing with each other,
null,"<div style=""font-size:60px;"">+</div>",,html-keyboard-response,266,1160831,0.0-17.0-0.10,51171,List2B,black,woman,,,,null,,,,
null,"<img src=""stim_listB/kiss4.gif""</stim_listB>",,html-keyboard-response,267,1162834,0.0-17.0-1.10,51171,List2B,black,woman,,,,null,,,,
null,are kissing each other,,html-keyboard-response,268,1164835,0.0-17.0-2.10,51171,List2B,black,woman,,,,null,,,,
11717,,,survey-text,269,1176553,0.0-17.0-3.10,51171,List2B,black,woman,,,,,"{""Q0"":""kate and mike are kissing each other""}","<img src=""stim_listB/kiss4.gif""</stim_listB>",are kissing each other,
null,"<div style=""font-size:60px;"">+</div>",,html-keyboard-response,270,1177056,0.0-17.0-0.11,51171,List2B,black,woman,,,,null,,,,
null,"<img src=""stim_listB/meet3.gif""</stim_listB>",,html-keyboard-response,271,1179057,0.0-17.0-1.11,51171,List2B,black,woman,,,,null,,,,
null,is meeting,,html-keyboard-response,272,1181059,0.0-17.0-2.11,51171,List2B,black,woman,,,,null,,,,
8133,,,survey-text,273,1189192,0.0-17.0-3.11,51171,List2B,black,woman,,,,,"{""Q0"":""kate is meeting mike""}","<img src=""stim_listB/meet3.gif""</stim_listB>",is meeting,
null,"<div style=""font-size:60px;"">+</div>",,html-keyboard-response,274,1189694,0.0-17.0-0.12,51171,List2B,black,woman,,,,null,,,,
null,"<img src=""stim_listB/meet5.gif""</stim_listB>",,html-keyboard-response,275,1191697,0.0-17.0-1.12,51171,List2B,black,woman,,,,null,,,,
null,is meeting,,html-keyboard-response,276,1193698,0.0-17.0-2.12,51171,List2B,black,woman,,,,null,,,,
6297,,,survey-text,277,1199996,0.0-17.0-3.12,51171,List2B,black,woman,,,,,"{""Q0"":""mike is meeting dave""}","<img src=""stim_listB/meet5.gif""</stim_listB>",is meeting,
null,"<div style=""font-size:60px;"">+</div>",,html-keyboard-response,278,1200498,0.0-17.0-0.13,51171,List2B,black,woman,,,,null,,,,
null,"<img src=""stim_listB/touch8.gif""</stim_listB>",,html-keyboard-response,279,1202499,0.0-17.0-1.13,51171,List2B,black,woman,,,,null,,,,
null,are touching each other,,html-keyboard-response,280,1204501,0.0-17.0-2.13,51171,List2B,black,woman,,,,null,,,,
10541,,,survey-text,281,1215042,0.0-17.0-3.13,51171,List2B,black,woman,,,,,"{""Q0"":""ruth and beth are touching each other""}","<img src=""stim_listB/touch8.gif""</stim_listB>",are touching each other,
null,"<div style=""font-size:60px;"">+</div>",,html-keyboard-response,282,1215543,0.0-17.0-0.14,51171,List2B,black,woman,,,,null,,,,
null,"<img src=""stim_listB/talk5.gif""</stim_listB>",,html-keyboard-response,283,1217546,0.0-17.0-1.14,51171,List2B,black,woman,,,,null,,,,
null,is talking to,,html-keyboard-response,284,1219547,0.0-17.0-2.14,51171,List2B,black,woman,,,,null,,,,
7500,,,survey-text,285,1227049,0.0-17.0-3.14,51171,List2B,black,woman,,,,,"{""Q0"":""mike is talking to luke""}","<img src=""stim_listB/talk5.gif""</stim_listB>",is talking to,
null,"<div style=""font-size:60px;"">+</div>",,html-keyboard-response,286,1227551,0.0-17.0-0.15,51171,List2B,black,woman,,,,null,,,,
null,"<img src=""stim_listB/hug3.gif""</stim_listB>",,html-keyboard-response,287,1229552,0.0-17.0-1.15,51171,List2B,black,woman,,,,null,,,,
null,is hugging,,html-keyboard-response,288,1231554,0.0-17.0-2.15,51171,List2B,black,woman,,,,null,,,,
8389,,,survey-text,289,1239944,0.0-17.0-3.15,51171,List2B,black,woman,,,,,"{""Q0"":""beth is hugging fred""}","<img src=""stim_listB/hug3.gif""</stim_listB>",is hugging,
null,"<div style=""font-size:60px;"">+</div>",,html-keyboard-response,290,1240446,0.0-17.0-0.16,51171,List2B,black,woman,,,,null,,,,
null,"<img src=""stim_listB/dance4.gif""</stim_listB>",,html-keyboard-response,291,1242448,0.0-17.0-1.16,51171,List2B,black,woman,,,,null,,,,
null,are dancing with each other,,html-keyboard-response,292,1244448,0.0-17.0-2.16,51171,List2B,black,woman,,,,null,,,,
10541,,,survey-text,293,1254991,0.0-17.0-3.16,51171,List2B,black,woman,,,,,"{""Q0"":""beth and mike are dancing with each other""}","<img src=""stim_listB/dance4.gif""</stim_listB>",are dancing with each other,
null,"<div style=""font-size:60px;"">+</div>",,html-keyboard-response,294,1255492,0.0-17.0-0.17,51171,List2B,black,woman,,,,null,,,,
null,"<img src=""stim_listB/kiss2.gif""</stim_listB>",,html-keyboard-response,295,1257494,0.0-17.0-1.17,51171,List2B,black,woman,,,,null,,,,
null,are kissing each other,,html-keyboard-response,296,1259495,0.0-17.0-2.17,51171,List2B,black,woman,,,,null,,,,
12385,,,survey-text,297,1271881,0.0-17.0-3.17,51171,List2B,black,woman,,,,,"{""Q0"":""dave and jane are kissing each other""}","<img src=""stim_listB/kiss2.gif""</stim_listB>",are kissing each other,
null,"<div style=""font-size:60px;"">+</div>",,html-keyboard-response,298,1272382,0.0-17.0-0.18,51171,List2B,black,woman,,,,null,,,,
null,"<img src=""stim_listB/marry3.gif""</stim_listB>",,html-keyboard-response,299,1274383,0.0-17.0-1.18,51171,List2B,black,woman,,,,null,,,,
null,is marrying,,html-keyboard-response,300,1276384,0.0-17.0-2.18,51171,List2B,black,woman,,,,null,,,,
7727,,,survey-text,301,1284111,0.0-17.0-3.18,51171,List2B,black,woman,,,,,"{""Q0"":""beth is marrying mike""}","<img src=""stim_listB/marry3.gif""</stim_listB>",is marrying,
null,"<div style=""font-size:60px;"">+</div>",,html-keyboard-response,302,1284613,0.0-17.0-0.19,51171,List2B,black,woman,,,,null,,,,
null,"<img src=""stim_listB/talk6.gif""</stim_listB>",,html-keyboard-response,303,1286615,0.0-17.0-1.19,51171,List2B,black,woman,,,,null,,,,
null,are talking to each other,,html-keyboard-response,304,1288616,0.0-17.0-2.19,51171,List2B,black,woman,,,,null,,,,
10288,,,survey-text,305,1298904,0.0-17.0-3.19,51171,List2B,black,woman,,,,,"{""Q0"":""dave and fred are talking to each other""}","<img src=""stim_listB/talk6.gif""</stim_listB>",are talking to each other,
2824,"<img src='img/portrait_matrix_list2.JPG' style='width:900px;height:500px;''></img><p>If you have memorised all the portraits and names and are ready to start, press Continue.</p><p><strong>Please note: Your memory of these faces will be tested 4 times during this experiment.</strong></p>",0,html-button-response,306,1301729,0.0-18.0-0.0,51171,List2B,black,woman,,,,,,,,
1935,"<img src=""portrait/BM1.jpg""style=""width:400px;height:400px;""></img>",4,html-button-response,307,1304666,0.0-18.0-1.0,51171,List2B,black,woman,,TRUE,4,,,,,
null,CORRECT,,html-keyboard-response,308,1306169,0.0-18.0-2.0-0.0,51171,List2B,black,woman,,,,null,,,,
3759,"<img src=""portrait/BM2.jpg""style=""width:400px;height:400px;""></img>",5,html-button-response,309,1309929,0.0-18.0-4.0,51171,List2B,black,woman,,TRUE,5,,,,,
null,CORRECT,,html-keyboard-response,310,1311432,0.0-18.0-5.0-0.0,51171,List2B,black,woman,,,,null,,,,
2447,"<img src=""portrait/WW1.jpg""style=""width:400px;height:400px;""></img>",1,html-button-response,311,1313881,0.0-18.0-7.0,51171,List2B,black,woman,,TRUE,1,,,,,
null,CORRECT,,html-keyboard-response,312,1315384,0.0-18.0-8.0-0.0,51171,List2B,black,woman,,,,null,,,,
1497,"<img src=""portrait/WM2.jpg""style=""width:400px;height:400px;""></img>",7,html-button-response,313,1316882,0.0-18.0-10.0,51171,List2B,black,woman,,TRUE,7,,,,,
null,CORRECT,,html-keyboard-response,314,1318386,0.0-18.0-11.0-0.0,51171,List2B,black,woman,,,,null,,,,
1224,"<img src=""portrait/WM1.jpg""style=""width:400px;height:400px;""></img>",6,html-button-response,315,1319612,0.0-18.0-13.0,51171,List2B,black,woman,,TRUE,6,,,,,
null,CORRECT,,html-keyboard-response,316,1321115,0.0-18.0-14.0-0.0,51171,List2B,black,woman,,,,null,,,,
1931,"<img src=""portrait/BW2.jpg""style=""width:400px;height:400px;""></img>",2,html-button-response,317,1323047,0.0-18.0-16.0,51171,List2B,black,woman,,TRUE,2,,,,,
null,CORRECT,,html-keyboard-response,318,1324549,0.0-18.0-17.0-0.0,51171,List2B,black,woman,,,,null,,,,
2113,"<img src=""portrait/BW1.jpg""style=""width:400px;height:400px;""></img>",0,html-button-response,319,1326664,0.0-18.0-19.0,51171,List2B,black,woman,,TRUE,0,,,,,
null,CORRECT,,html-keyboard-response,320,1328166,0.0-18.0-20.0-0.0,51171,List2B,black,woman,,,,null,,,,
1376,"<img src=""portrait/WW2.jpg""style=""width:400px;height:400px;""></img>",3,html-button-response,321,1329543,0.0-18.0-22.0,51171,List2B,black,woman,,TRUE,3,,,,,
null,CORRECT,,html-keyboard-response,322,1331046,0.0-18.0-23.0-0.0,51171,List2B,black,woman,,,,null,,,,
22475,<p>You got 8 out of 8 right first time. Press Continue.</p>,0,html-button-response,323,1353522,0.0-18.0-25.0,51171,List2B,black,woman,,,,,,,,
null,"<div style=""font-size:60px;"">+</div>",,html-keyboard-response,324,1355026,0.0-19.0-0.0,51171,List2B,black,woman,,,,null,,,,
null,"<img src=""stim_listB/meet7.gif""</stim_listB>",,html-keyboard-response,325,1357027,0.0-19.0-1.0,51171,List2B,black,woman,,,,null,,,,
null,is meeting,,html-keyboard-response,326,1359027,0.0-19.0-2.0,51171,List2B,black,woman,,,,null,,,,
6224,,,survey-text,327,1365253,0.0-19.0-3.0,51171,List2B,black,woman,,,,,"{""Q0"":""kate is meeting jane""}","<img src=""stim_listB/meet7.gif""</stim_listB>",is meeting,
null,"<div style=""font-size:60px;"">+</div>",,html-keyboard-response,328,1365754,0.0-19.0-0.1,51171,List2B,black,woman,,,,null,,,,
null,"<img src=""stim_listB/kiss7.gif""</stim_listB>",,html-keyboard-response,329,1367756,0.0-19.0-1.1,51171,List2B,black,woman,,,,null,,,,
null,is kissing,,html-keyboard-response,330,1369758,0.0-19.0-2.1,51171,List2B,black,woman,,,,null,,,,
6476,,,survey-text,331,1376234,0.0-19.0-3.1,51171,List2B,black,woman,,,,,"{""Q0"":""beth is kissing ruth""}","<img src=""stim_listB/kiss7.gif""</stim_listB>",is kissing,
null,"<div style=""font-size:60px;"">+</div>",,html-keyboard-response,332,1376736,0.0-19.0-0.2,51171,List2B,black,woman,,,,null,,,,
null,"<img src=""stim_listB/marry6.gif""</stim_listB>",,html-keyboard-response,333,1378737,0.0-19.0-1.2,51171,List2B,black,woman,,,,null,,,,
null,are marrying each other,,html-keyboard-response,334,1380739,0.0-19.0-2.2,51171,List2B,black,woman,,,,null,,,,
7927,,,survey-text,335,1388666,0.0-19.0-3.2,51171,List2B,black,woman,,,,,"{""Q0"":""luke and mike are marrying each other""}","<img src=""stim_listB/marry6.gif""</stim_listB>",are marrying each other,
null,"<div style=""font-size:60px;"">+</div>",,html-keyboard-response,336,1389168,0.0-19.0-0.3,51171,List2B,black,woman,,,,null,,,,
null,"<img src=""stim_listB/marry8.gif""</stim_listB>",,html-keyboard-response,337,1391170,0.0-19.0-1.3,51171,List2B,black,woman,,,,null,,,,
null,are marrying each other,,html-keyboard-response,338,1393171,0.0-19.0-2.3,51171,List2B,black,woman,,,,null,,,,
11459,,,survey-text,339,1404631,0.0-19.0-3.3,51171,List2B,black,woman,,,,,"{""Q0"":""ruth and kate are marrying each other""}","<img src=""stim_listB/marry8.gif""</stim_listB>",are marrying each other,
null,"<div style=""font-size:60px;"">+</div>",,html-keyboard-response,340,1405132,0.0-19.0-0.4,51171,List2B,black,woman,,,,null,,,,
null,"<img src=""stim_listB/touch5.gif""</stim_listB>",,html-keyboard-response,341,1407134,0.0-19.0-1.4,51171,List2B,black,woman,,,,null,,,,
null,is touching,,html-keyboard-response,342,1409136,0.0-19.0-2.4,51171,List2B,black,woman,,,,null,,,,
7023,,,survey-text,343,1416160,0.0-19.0-3.4,51171,List2B,black,woman,,,,,"{""Q0"":""mike is touching dave""}","<img src=""stim_listB/touch5.gif""</stim_listB>",is touching,
null,"<div style=""font-size:60px;"">+</div>",,html-keyboard-response,344,1416662,0.0-19.0-0.5,51171,List2B,black,woman,,,,null,,,,
null,"<img src=""stim_listB/argue8.gif""</stim_listB>",,html-keyboard-response,345,1418664,0.0-19.0-1.5,51171,List2B,black,woman,,,,null,,,,
null,are arguing with each other,,html-keyboard-response,346,1420665,0.0-19.0-2.5,51171,List2B,black,woman,,,,null,,,,
9696,,,survey-text,347,1430362,0.0-19.0-3.5,51171,List2B,black,woman,,,,,"{""Q0"":""ruth and kate are arguing with each other""}","<img src=""stim_listB/argue8.gif""</stim_listB>",are arguing with each other,
null,"<div style=""font-size:60px;"">+</div>",,html-keyboard-response,348,1430864,0.0-19.0-0.6,51171,List2B,black,woman,,,,null,,,,
null,"<img src=""stim_listB/shout7.gif""</stim_listB>",,html-keyboard-response,349,1432866,0.0-19.0-1.6,51171,List2B,black,woman,,,,null,,,,
null,is shouting at,,html-keyboard-response,350,1434867,0.0-19.0-2.6,51171,List2B,black,woman,,,,null,,,,
6783,,,survey-text,351,1441650,0.0-19.0-3.6,51171,List2B,black,woman,,,,,"{""Q0"":""ruth is shouting at beth""}","<img src=""stim_listB/shout7.gif""</stim_listB>",is shouting at,
null,"<div style=""font-size:60px;"">+</div>",,html-keyboard-response,352,1442151,0.0-19.0-0.7,51171,List2B,black,woman,,,,null,,,,
null,"<img src=""stim_listB/argue6.gif""</stim_listB>",,html-keyboard-response,353,1444153,0.0-19.0-1.7,51171,List2B,black,woman,,,,null,,,,
null,are arguing with each other,,html-keyboard-response,354,1446154,0.0-19.0-2.7,51171,List2B,black,woman,,,,null,,,,
9309,,,survey-text,355,1455464,0.0-19.0-3.7,51171,List2B,black,woman,,,,,"{""Q0"":""luke and mike are arguing with each other""}","<img src=""stim_listB/argue6.gif""</stim_listB>",are arguing with each other,
null,"<div style=""font-size:60px;"">+</div>",,html-keyboard-response,356,1455966,0.0-19.0-0.8,51171,List2B,black,woman,,,,null,,,,
null,"<img src=""stim_listB/meet4.gif""</stim_listB>",,html-keyboard-response,357,1457967,0.0-19.0-1.8,51171,List2B,black,woman,,,,null,,,,
null,are meeting each other,,html-keyboard-response,358,1459968,0.0-19.0-2.8,51171,List2B,black,woman,,,,null,,,,
8496,,,survey-text,359,1468466,0.0-19.0-3.8,51171,List2B,black,woman,,,,,"{""Q0"":""fred and beth are meeting each other""}","<img src=""stim_listB/meet4.gif""</stim_listB>",are meeting each other,
null,"<div style=""font-size:60px;"">+</div>",,html-keyboard-response,360,1468967,0.0-19.0-0.9,51171,List2B,black,woman,,,,null,,,,
null,"<img src=""stim_listB/kiss8.gif""</stim_listB>",,html-keyboard-response,361,1470970,0.0-19.0-1.9,51171,List2B,black,woman,,,,null,,,,
null,are kissing each other,,html-keyboard-response,362,1472971,0.0-19.0-2.9,51171,List2B,black,woman,,,,null,,,,
10304,,,survey-text,363,1483275,0.0-19.0-3.9,51171,List2B,black,woman,,,,,"{""Q0"":""jane and kate are kissing each other""}","<img src=""stim_listB/kiss8.gif""</stim_listB>",are kissing each other,
null,"<div style=""font-size:60px;"">+</div>",,html-keyboard-response,364,1483777,0.0-19.0-0.10,51171,List2B,black,woman,,,,null,,,,
null,"<img src=""stim_listB/hug8.gif""</stim_listB>",,html-keyboard-response,365,1485780,0.0-19.0-1.10,51171,List2B,black,woman,,,,null,,,,
null,are hugging each other,,html-keyboard-response,366,1487781,0.0-19.0-2.10,51171,List2B,black,woman,,,,null,,,,
11724,,,survey-text,367,1499505,0.0-19.0-3.10,51171,List2B,black,woman,,,,,"{""Q0"":""jane and kater are hugging each other""}","<img src=""stim_listB/hug8.gif""</stim_listB>",are hugging each other,
null,"<div style=""font-size:60px;"">+</div>",,html-keyboard-response,368,1500010,0.0-19.0-0.11,51171,List2B,black,woman,,,,null,,,,
null,"<img src=""stim_listB/touch1.gif""</stim_listB>",,html-keyboard-response,369,1502012,0.0-19.0-1.11,51171,List2B,black,woman,,,,null,,,,
null,is touching,,html-keyboard-response,370,1504013,0.0-19.0-2.11,51171,List2B,black,woman,,,,null,,,,
5818,,,survey-text,371,1509832,0.0-19.0-3.11,51171,List2B,black,woman,,,,,"{""Q0"":""dave is touching jane""}","<img src=""stim_listB/touch1.gif""</stim_listB>",is touching,
null,"<div style=""font-size:60px;"">+</div>",,html-keyboard-response,372,1510335,0.0-19.0-0.12,51171,List2B,black,woman,,,,null,,,,
null,"<img src=""stim_listB/meet8.gif""</stim_listB>",,html-keyboard-response,373,1512337,0.0-19.0-1.12,51171,List2B,black,woman,,,,null,,,,
null,are meeting each other,,html-keyboard-response,374,1514338,0.0-19.0-2.12,51171,List2B,black,woman,,,,null,,,,
13008,,,survey-text,375,1527348,0.0-19.0-3.12,51171,List2B,black,woman,,,,,"{""Q0"":""ruth and beth are meeting each other""}","<img src=""stim_listB/meet8.gif""</stim_listB>",are meeting each other,
null,"<div style=""font-size:60px;"">+</div>",,html-keyboard-response,376,1527850,0.0-19.0-0.13,51171,List2B,black,woman,,,,null,,,,
null,"<img src=""stim_listB/argue4.gif""</stim_listB>",,html-keyboard-response,377,1529853,0.0-19.0-1.13,51171,List2B,black,woman,,,,null,,,,
null,are arguing with each other,,html-keyboard-response,378,1531853,0.0-19.0-2.13,51171,List2B,black,woman,,,,null,,,,
11352,,,survey-text,379,1543207,0.0-19.0-3.13,51171,List2B,black,woman,,,,,"{""Q0"":""fred and kate are arguing with each other""}","<img src=""stim_listB/argue4.gif""</stim_listB>",are arguing with each other,
null,"<div style=""font-size:60px;"">+</div>",,html-keyboard-response,380,1543710,0.0-19.0-0.14,51171,List2B,black,woman,,,,null,,,,
null,"<img src=""stim_listB/meet6.gif""</stim_listB>",,html-keyboard-response,381,1545712,0.0-19.0-1.14,51171,List2B,black,woman,,,,null,,,,
null,are meeting each other,,html-keyboard-response,382,1547713,0.0-19.0-2.14,51171,List2B,black,woman,,,,null,,,,
10094,,,survey-text,383,1557807,0.0-19.0-3.14,51171,List2B,black,woman,,,,,"{""Q0"":""luke and fred are meeting each other""}","<img src=""stim_listB/meet6.gif""</stim_listB>",are meeting each other,
null,"<div style=""font-size:60px;"">+</div>",,html-keyboard-response,384,1558308,0.0-19.0-0.15,51171,List2B,black,woman,,,,null,,,,
null,"<img src=""stim_listB/hug2.gif""</stim_listB>",,html-keyboard-response,385,1560310,0.0-19.0-1.15,51171,List2B,black,woman,,,,null,,,,
null,are hugging each other,,html-keyboard-response,386,1562311,0.0-19.0-2.15,51171,List2B,black,woman,,,,null,,,,
8188,,,survey-text,387,1570500,0.0-19.0-3.15,51171,List2B,black,woman,,,,,"{""Q0"":""dave and jane are hugging each other""}","<img src=""stim_listB/hug2.gif""</stim_listB>",are hugging each other,
null,"<div style=""font-size:60px;"">+</div>",,html-keyboard-response,388,1571001,0.0-19.0-0.16,51171,List2B,black,woman,,,,null,,,,
null,"<img src=""stim_listB/meet1.gif""</stim_listB>",,html-keyboard-response,389,1573003,0.0-19.0-1.16,51171,List2B,black,woman,,,,null,,,,
null,is meeting,,html-keyboard-response,390,1575004,0.0-19.0-2.16,51171,List2B,black,woman,,,,null,,,,
7700,,,survey-text,391,1582705,0.0-19.0-3.16,51171,List2B,black,woman,,,,,"{""Q0"":""dave is meeting jane""}","<img src=""stim_listB/meet1.gif""</stim_listB>",is meeting,
null,"<div style=""font-size:60px;"">+</div>",,html-keyboard-response,392,1583206,0.0-19.0-0.17,51171,List2B,black,woman,,,,null,,,,
null,"<img src=""stim_listB/shout3.gif""</stim_listB>",,html-keyboard-response,393,1585208,0.0-19.0-1.17,51171,List2B,black,woman,,,,null,,,,
null,is shouting at,,html-keyboard-response,394,1587209,0.0-19.0-2.17,51171,List2B,black,woman,,,,null,,,,
8590,,,survey-text,395,1595801,0.0-19.0-3.17,51171,List2B,black,woman,,,,,"{""Q0"":""beth is shouting at fred""}","<img src=""stim_listB/shout3.gif""</stim_listB>",is shouting at,
null,"<div style=""font-size:60px;"">+</div>",,html-keyboard-response,396,1596302,0.0-19.0-0.18,51171,List2B,black,woman,,,,null,,,,
null,"<img src=""stim_listB/hug6.gif""</stim_listB>",,html-keyboard-response,397,1598303,0.0-19.0-1.18,51171,List2B,black,woman,,,,null,,,,
null,are hugging each other,,html-keyboard-response,398,1600304,0.0-19.0-2.18,51171,List2B,black,woman,,,,null,,,,
8450,,,survey-text,399,1608754,0.0-19.0-3.18,51171,List2B,black,woman,,,,,"{""Q0"":""dave and mike are hugging each other""}","<img src=""stim_listB/hug6.gif""</stim_listB>",are hugging each other,
null,"<div style=""font-size:60px;"">+</div>",,html-keyboard-response,400,1609256,0.0-19.0-0.19,51171,List2B,black,woman,,,,null,,,,
null,"<img src=""stim_listB/argue5.gif""</stim_listB>",,html-keyboard-response,401,1611257,0.0-19.0-1.19,51171,List2B,black,woman,,,,null,,,,
null,is arguing with,,html-keyboard-response,402,1613259,0.0-19.0-2.19,51171,List2B,black,woman,,,,null,,,,
8931,,,survey-text,403,1622191,0.0-19.0-3.19,51171,List2B,black,woman,,,,,"{""Q0"":""fred is arguing with dave""}","<img src=""stim_listB/argue5.gif""</stim_listB>",is arguing with,
4298,<p>Thank you for completing that task.</p><p>The final part of this session is a short questionnaire.</p><p>Press Continue.</p>,0,html-button-response,404,1626489,0.0-20.0,51171,List2B,black,woman,,,,,,,,
32577,,,survey-text,405,1660068,0.0-21.0,51171,List2B,black,woman,,,,,"{""Q0"":""26"",""Q1"":""English"",""Q2"":""English"",""Q3"":""United States"",""Q4"":""Black"",""Q5"":""Female""}",,,demographics
65251,,,survey-likert,406,1725332,0.0-22.0,51171,List2B,black,woman,,,,,"{""Q0"":5,""Q1"":4,""Q2"":5,""Q3"":4,""Q4"":5,""Q5"":1,""Q6"":4,""Q7"":4,""Q8"":5,""Q9"":4,""Q10"":3,""Q11"":2,""Q12"":2,""Q13"":2}",,,likert_race
59943,,,survey-likert,407,1785280,0.0-23.0,51171,List2B,black,woman,,,,,"{""Q0"":4,""Q1"":5,""Q2"":5,""Q3"":4,""Q4"":5,""Q5"":1,""Q6"":4,""Q7"":5,""Q8"":6,""Q9"":5,""Q10"":2,""Q11"":3,""Q12"":4,""Q13"":2}",,,likert_gender
7406,,,survey-text,408,1792689,0.0-24.0,51171,List2B,black,woman,,,,,"{""Q0"":""ccc""}",,,worker_id
37891,,,external-html,409,1831016,0.0-25.0,51171,List2B,black,woman,debrief.html,,,,,,,
