rt,stimulus,button_pressed,trial_type,trial_index,time_elapsed,internal_node_id,subject,list,ppt_race,ppt_gender,url,first_guess,correct,key_press,responses,image_type,phrase_type,test_part
88371,Welcome to the experiment. Press Continue to begin.,0,html-button-response,0,88374,0.0-0.0,51202,List2B,black,woman,,,,,,,,
111076,,,external-html,1,200667,0.0-1.0,51202,List2B,black,woman,consent.html,,,,,,,
11988,"<p>On the next page, you will see portraits of 8 people and their names.</p><p>Your first task is to take a few minutes to memorise the names of these people.</p><p>You will have to recall their names during the rest of the experiment, so it is</p><p>essential that you try to memorise these people and their names as best as you can.</p><br><p><strong>You will then be tested on your memory of these names and portraits.</strong></p><br><p>The experiment will start after you have completed this memory test.</p><br><p>Ready?</p>",0,html-button-response,2,212657,0.0-2.0,51202,List2B,black,woman,,,,,,,,
130674,"<img src='img/portrait_matrix_list2.JPG' style='width:900px;height:500px;''></img><p>If you have memorised all the portraits and names and are ready to start, press Continue.</p><p><strong>Please note: Your memory of these faces will be tested 4 times during this experiment.</strong></p>",0,html-button-response,3,344342,0.0-3.0-0.0,51202,List2B,black,woman,,,,,,,,
3376,"<img src=""portrait/BW1.jpg""style=""width:400px;height:400px;""></img>",0,html-button-response,4,348731,0.0-3.0-1.0,51202,List2B,black,woman,,TRUE,0,,,,,
null,CORRECT,,html-keyboard-response,5,350248,0.0-3.0-2.0-0.0,51202,List2B,black,woman,,,,null,,,,
1838,"<img src=""portrait/WW2.jpg""style=""width:400px;height:400px;""></img>",3,html-button-response,6,352088,0.0-3.0-4.0,51202,List2B,black,woman,,TRUE,3,,,,,
null,CORRECT,,html-keyboard-response,7,353620,0.0-3.0-5.0-0.0,51202,List2B,black,woman,,,,null,,,,
2371,"<img src=""portrait/BW2.jpg""style=""width:400px;height:400px;""></img>",2,html-button-response,8,355992,0.0-3.0-7.0,51202,List2B,black,woman,,TRUE,2,,,,,
null,CORRECT,,html-keyboard-response,9,357512,0.0-3.0-8.0-0.0,51202,List2B,black,woman,,,,null,,,,
2639,"<img src=""portrait/WW1.jpg""style=""width:400px;height:400px;""></img>",1,html-button-response,10,360152,0.0-3.0-10.0,51202,List2B,black,woman,,TRUE,1,,,,,
null,CORRECT,,html-keyboard-response,11,361680,0.0-3.0-11.0-0.0,51202,List2B,black,woman,,,,null,,,,
2293,"<img src=""portrait/BM2.jpg""style=""width:400px;height:400px;""></img>",5,html-button-response,12,363974,0.0-3.0-13.0,51202,List2B,black,woman,,TRUE,5,,,,,
null,CORRECT,,html-keyboard-response,13,365483,0.0-3.0-14.0-0.0,51202,List2B,black,woman,,,,null,,,,
6010,"<img src=""portrait/WM2.jpg""style=""width:400px;height:400px;""></img>",7,html-button-response,14,371494,0.0-3.0-16.0,51202,List2B,black,woman,,TRUE,7,,,,,
null,CORRECT,,html-keyboard-response,15,373010,0.0-3.0-17.0-0.0,51202,List2B,black,woman,,,,null,,,,
1696,"<img src=""portrait/WM1.jpg""style=""width:400px;height:400px;""></img>",6,html-button-response,16,374708,0.0-3.0-19.0,51202,List2B,black,woman,,TRUE,6,,,,,
null,CORRECT,,html-keyboard-response,17,376213,0.0-3.0-20.0-0.0,51202,List2B,black,woman,,,,null,,,,
3219,"<img src=""portrait/BM1.jpg""style=""width:400px;height:400px;""></img>",4,html-button-response,18,379435,0.0-3.0-22.0,51202,List2B,black,woman,,TRUE,4,,,,,
null,CORRECT,,html-keyboard-response,19,380951,0.0-3.0-23.0-0.0,51202,List2B,black,woman,,,,null,,,,
2452,<p>You got 8 out of 8 right first time. Press Continue.</p>,0,html-button-response,20,383405,0.0-3.0-25.0,51202,List2B,black,woman,,,,,,,,
34152,"<p>In this experiment, you will view photographs of the people from the memory game interacting.</p><p>By using the <strong>exact</strong> phrase given <i>after</i> the photograph appears and recalling the correct names of the people in the photographs, form a sentence describing the interaction. You do not need to capitalise names.</p><p>Type your answer in the space provided. Please complete every sentence before moving onto the next trial.</p><p>You will only have a few seconds to memorise each given photograph and phrase before you can respond, so try your best to focus.</p><p>An example is given below. Press 'Continue' when you are ready.</p><img src='img/speaking_example_v2.jpg' style='width:800px;height:460px;''></img>",0,html-button-response,21,418564,0.0-4.0,51202,List2B,black,woman,,,,,,,,
2202,"<p>Before the experiment starts, you will watch two example trials. Press 'Continue'.</p>",0,html-button-response,22,421771,0.0-5.0,51202,List2B,black,woman,,,,,,,,
null,<img src='img/speaking_WW.gif'></img>,,html-keyboard-response,23,424790,0.0-6.0,51202,List2B,black,woman,,,,null,,,,
null,<p>is speaking to</p>,,html-keyboard-response,24,426805,0.0-7.0,51202,List2B,black,woman,,,,null,,,,
4514,<p><b>Answer:</b> jane is speaking to ruth</p>,0,html-button-response,25,431321,0.0-8.0,51202,List2B,black,woman,,,,,,,,
null,<img src='img/pointing_BM.gif'></img>,,html-keyboard-response,26,434343,0.0-9.0,51202,List2B,black,woman,,,,null,,,,
null,<p>are pointing at each other</p>,,html-keyboard-response,27,436359,0.0-10.0,51202,List2B,black,woman,,,,null,,,,
7610,<p><b>Answer:</b> fred and mike are pointing at each other</p>,0,html-button-response,28,443971,0.0-11.0,51202,List2B,black,woman,,,,,,,,
11239,"<p>Ready to start the experiment?</p><br><p><strong>Remember to describe the picture using a full sentence,</strong></p><p><strong>that combines the names of the people with the given phrase.</strong></p><p><strong>If you do not do this correctly you will not be paid.</strong></p><p><strong> You do not need to capitalise names or use punctuation.</strong></p><br><p>Press 'Continue' to begin.</p>",0,html-button-response,29,456228,0.0-12.0,51202,List2B,black,woman,,,,,,,,
null,"<div style=""font-size:60px;"">+</div>",,html-keyboard-response,30,457748,0.0-13.0-0.0,51202,List2B,black,woman,,,,null,,,,
null,"<img src=""stim_listB/argue8.gif""</stim_listB>",,html-keyboard-response,31,459766,0.0-13.0-1.0,51202,List2B,black,woman,,,,null,,,,
null,are arguing with each other,,html-keyboard-response,32,461772,0.0-13.0-2.0,51202,List2B,black,woman,,,,null,,,,
13152,,,survey-text,33,474927,0.0-13.0-3.0,51202,List2B,black,woman,,,,,"{""Q0"":""jane and kate are arguing with each other""}","<img src=""stim_listB/argue8.gif""</stim_listB>",are arguing with each other,
null,"<div style=""font-size:60px;"">+</div>",,html-keyboard-response,34,475437,0.0-13.0-0.1,51202,List2B,black,woman,,,,null,,,,
null,"<img src=""stim_listB/meet4.gif""</stim_listB>",,html-keyboard-response,35,477450,0.0-13.0-1.1,51202,List2B,black,woman,,,,null,,,,
null,are meeting each other,,html-keyboard-response,36,479463,0.0-13.0-2.1,51202,List2B,black,woman,,,,null,,,,
7849,,,survey-text,37,487314,0.0-13.0-3.1,51202,List2B,black,woman,,,,,"{""Q0"":""beth and mike are meeting each other""}","<img src=""stim_listB/meet4.gif""</stim_listB>",are meeting each other,
null,"<div style=""font-size:60px;"">+</div>",,html-keyboard-response,38,487837,0.0-13.0-0.2,51202,List2B,black,woman,,,,null,,,,
null,"<img src=""stim_listB/marry3.gif""</stim_listB>",,html-keyboard-response,39,489847,0.0-13.0-1.2,51202,List2B,black,woman,,,,null,,,,
null,is marrying,,html-keyboard-response,40,491861,0.0-13.0-2.2,51202,List2B,black,woman,,,,null,,,,
7219,,,survey-text,41,499082,0.0-13.0-3.2,51202,List2B,black,woman,,,,,"{""Q0"":""beth is marrying mike""}","<img src=""stim_listB/marry3.gif""</stim_listB>",is marrying,
null,"<div style=""font-size:60px;"">+</div>",,html-keyboard-response,42,499597,0.0-13.0-0.3,51202,List2B,black,woman,,,,null,,,,
null,"<img src=""stim_listB/hug6.gif""</stim_listB>",,html-keyboard-response,43,501608,0.0-13.0-1.3,51202,List2B,black,woman,,,,null,,,,
null,are hugging each other,,html-keyboard-response,44,503610,0.0-13.0-2.3,51202,List2B,black,woman,,,,null,,,,
7836,,,survey-text,45,511447,0.0-13.0-3.3,51202,List2B,black,woman,,,,,"{""Q0"":""dave and mike are hugging each other""}","<img src=""stim_listB/hug6.gif""</stim_listB>",are hugging each other,
null,"<div style=""font-size:60px;"">+</div>",,html-keyboard-response,46,511949,0.0-13.0-0.4,51202,List2B,black,woman,,,,null,,,,
null,"<img src=""stim_listB/touch2.gif""</stim_listB>",,html-keyboard-response,47,513966,0.0-13.0-1.4,51202,List2B,black,woman,,,,null,,,,
null,are touching each other,,html-keyboard-response,48,515982,0.0-13.0-2.4,51202,List2B,black,woman,,,,null,,,,
9420,,,survey-text,49,525404,0.0-13.0-3.4,51202,List2B,black,woman,,,,,"{""Q0"":""luke and ruth are touching each other""}","<img src=""stim_listB/touch2.gif""</stim_listB>",are touching each other,
null,"<div style=""font-size:60px;"">+</div>",,html-keyboard-response,50,525910,0.0-13.0-0.5,51202,List2B,black,woman,,,,null,,,,
null,"<img src=""stim_listB/shout4.gif""</stim_listB>",,html-keyboard-response,51,527917,0.0-13.0-1.5,51202,List2B,black,woman,,,,null,,,,
null,are shouting at each other,,html-keyboard-response,52,529925,0.0-13.0-2.5,51202,List2B,black,woman,,,,null,,,,
8608,,,survey-text,53,538535,0.0-13.0-3.5,51202,List2B,black,woman,,,,,"{""Q0"":""mike and kate are shouting at each other""}","<img src=""stim_listB/shout4.gif""</stim_listB>",are shouting at each other,
null,"<div style=""font-size:60px;"">+</div>",,html-keyboard-response,54,539040,0.0-13.0-0.6,51202,List2B,black,woman,,,,null,,,,
null,"<img src=""stim_listB/meet2.gif""</stim_listB>",,html-keyboard-response,55,541049,0.0-13.0-1.6,51202,List2B,black,woman,,,,null,,,,
null,are meeting each other,,html-keyboard-response,56,543064,0.0-13.0-2.6,51202,List2B,black,woman,,,,null,,,,
9403,,,survey-text,57,552469,0.0-13.0-3.6,51202,List2B,black,woman,,,,,"{""Q0"":""luke and ruth are meeting each other""}","<img src=""stim_listB/meet2.gif""</stim_listB>",are meeting each other,
null,"<div style=""font-size:60px;"">+</div>",,html-keyboard-response,58,552970,0.0-13.0-0.7,51202,List2B,black,woman,,,,null,,,,
null,"<img src=""stim_listB/fight7.gif""</stim_listB>",,html-keyboard-response,59,554983,0.0-13.0-1.7,51202,List2B,black,woman,,,,null,,,,
null,is fighting,,html-keyboard-response,60,556987,0.0-13.0-2.7,51202,List2B,black,woman,,,,null,,,,
6647,,,survey-text,61,563636,0.0-13.0-3.7,51202,List2B,black,woman,,,,,"{""Q0"":""kate is fighting jane""}","<img src=""stim_listB/fight7.gif""</stim_listB>",is fighting,
null,"<div style=""font-size:60px;"">+</div>",,html-keyboard-response,62,564138,0.0-13.0-0.8,51202,List2B,black,woman,,,,null,,,,
null,"<img src=""stim_listB/dance5.gif""</stim_listB>",,html-keyboard-response,63,566142,0.0-13.0-1.8,51202,List2B,black,woman,,,,null,,,,
null,is dancing with,,html-keyboard-response,64,568143,0.0-13.0-2.8,51202,List2B,black,woman,,,,null,,,,
6725,,,survey-text,65,574868,0.0-13.0-3.8,51202,List2B,black,woman,,,,,"{""Q0"":""mike is dancing with luke""}","<img src=""stim_listB/dance5.gif""</stim_listB>",is dancing with,
null,"<div style=""font-size:60px;"">+</div>",,html-keyboard-response,66,575376,0.0-13.0-0.9,51202,List2B,black,woman,,,,null,,,,
null,"<img src=""stim_listB/touch4.gif""</stim_listB>",,html-keyboard-response,67,577382,0.0-13.0-1.9,51202,List2B,black,woman,,,,null,,,,
null,are touching each other,,html-keyboard-response,68,579402,0.0-13.0-2.9,51202,List2B,black,woman,,,,null,,,,
7953,,,survey-text,69,587357,0.0-13.0-3.9,51202,List2B,black,woman,,,,,"{""Q0"":""fred and beth are touching each other""}","<img src=""stim_listB/touch4.gif""</stim_listB>",are touching each other,
null,"<div style=""font-size:60px;"">+</div>",,html-keyboard-response,70,587866,0.0-13.0-0.10,51202,List2B,black,woman,,,,null,,,,
null,"<img src=""stim_listB/kiss7.gif""</stim_listB>",,html-keyboard-response,71,589869,0.0-13.0-1.10,51202,List2B,black,woman,,,,null,,,,
null,is kissing,,html-keyboard-response,72,591881,0.0-13.0-2.10,51202,List2B,black,woman,,,,null,,,,
6576,,,survey-text,73,598459,0.0-13.0-3.10,51202,List2B,black,woman,,,,,"{""Q0"":""beth is kissing ruth""}","<img src=""stim_listB/kiss7.gif""</stim_listB>",is kissing,
null,"<div style=""font-size:60px;"">+</div>",,html-keyboard-response,74,598970,0.0-13.0-0.11,51202,List2B,black,woman,,,,null,,,,
null,"<img src=""stim_listB/touch7.gif""</stim_listB>",,html-keyboard-response,75,600990,0.0-13.0-1.11,51202,List2B,black,woman,,,,null,,,,
null,is touching,,html-keyboard-response,76,602994,0.0-13.0-2.11,51202,List2B,black,woman,,,,null,,,,
5690,,,survey-text,77,608686,0.0-13.0-3.11,51202,List2B,black,woman,,,,,"{""Q0"":""kate is touching jane""}","<img src=""stim_listB/touch7.gif""</stim_listB>",is touching,
null,"<div style=""font-size:60px;"">+</div>",,html-keyboard-response,78,609202,0.0-13.0-0.12,51202,List2B,black,woman,,,,null,,,,
null,"<img src=""stim_listB/fight8.gif""</stim_listB>",,html-keyboard-response,79,611208,0.0-13.0-1.12,51202,List2B,black,woman,,,,null,,,,
null,are fighting each other,,html-keyboard-response,80,613210,0.0-13.0-2.12,51202,List2B,black,woman,,,,null,,,,
7681,,,survey-text,81,620892,0.0-13.0-3.12,51202,List2B,black,woman,,,,,"{""Q0"":""beth and ruth are fighting each other""}","<img src=""stim_listB/fight8.gif""</stim_listB>",are fighting each other,
null,"<div style=""font-size:60px;"">+</div>",,html-keyboard-response,82,621397,0.0-13.0-0.13,51202,List2B,black,woman,,,,null,,,,
null,"<img src=""stim_listB/talk6.gif""</stim_listB>",,html-keyboard-response,83,623402,0.0-13.0-1.13,51202,List2B,black,woman,,,,null,,,,
null,are talking to each other,,html-keyboard-response,84,625421,0.0-13.0-2.13,51202,List2B,black,woman,,,,null,,,,
8583,,,survey-text,85,634006,0.0-13.0-3.13,51202,List2B,black,woman,,,,,"{""Q0"":""dave and fred are talking to each other""}","<img src=""stim_listB/talk6.gif""</stim_listB>",are talking to each other,
null,"<div style=""font-size:60px;"">+</div>",,html-keyboard-response,86,634514,0.0-13.0-0.14,51202,List2B,black,woman,,,,null,,,,
null,"<img src=""stim_listB/hug3.gif""</stim_listB>",,html-keyboard-response,87,636526,0.0-13.0-1.14,51202,List2B,black,woman,,,,null,,,,
null,is hugging,,html-keyboard-response,88,638528,0.0-13.0-2.14,51202,List2B,black,woman,,,,null,,,,
5725,,,survey-text,89,644255,0.0-13.0-3.14,51202,List2B,black,woman,,,,,"{""Q0"":""fred is hugging beth""}","<img src=""stim_listB/hug3.gif""</stim_listB>",is hugging,
null,"<div style=""font-size:60px;"">+</div>",,html-keyboard-response,90,644757,0.0-13.0-0.15,51202,List2B,black,woman,,,,null,,,,
null,"<img src=""stim_listB/talk7.gif""</stim_listB>",,html-keyboard-response,91,646761,0.0-13.0-1.15,51202,List2B,black,woman,,,,null,,,,
null,is talking to,,html-keyboard-response,92,648764,0.0-13.0-2.15,51202,List2B,black,woman,,,,null,,,,
5870,,,survey-text,93,654634,0.0-13.0-3.15,51202,List2B,black,woman,,,,,"{""Q0"":""kate is talking to ruth""}","<img src=""stim_listB/talk7.gif""</stim_listB>",is talking to,
null,"<div style=""font-size:60px;"">+</div>",,html-keyboard-response,94,655144,0.0-13.0-0.16,51202,List2B,black,woman,,,,null,,,,
null,"<img src=""stim_listB/meet5.gif""</stim_listB>",,html-keyboard-response,95,657155,0.0-13.0-1.16,51202,List2B,black,woman,,,,null,,,,
null,is meeting,,html-keyboard-response,96,659162,0.0-13.0-2.16,51202,List2B,black,woman,,,,null,,,,
5279,,,survey-text,97,664442,0.0-13.0-3.16,51202,List2B,black,woman,,,,,"{""Q0"":""dave is meeting mike""}","<img src=""stim_listB/meet5.gif""</stim_listB>",is meeting,
null,"<div style=""font-size:60px;"">+</div>",,html-keyboard-response,98,664963,0.0-13.0-0.17,51202,List2B,black,woman,,,,null,,,,
null,"<img src=""stim_listB/shout6.gif""</stim_listB>",,html-keyboard-response,99,666970,0.0-13.0-1.17,51202,List2B,black,woman,,,,null,,,,
null,are shouting at each other,,html-keyboard-response,100,668973,0.0-13.0-2.17,51202,List2B,black,woman,,,,null,,,,
6886,,,survey-text,101,675860,0.0-13.0-3.17,51202,List2B,black,woman,,,,,"{""Q0"":""dave and mike are shouting at each other""}","<img src=""stim_listB/shout6.gif""</stim_listB>",are shouting at each other,
null,"<div style=""font-size:60px;"">+</div>",,html-keyboard-response,102,676361,0.0-13.0-0.18,51202,List2B,black,woman,,,,null,,,,
null,"<img src=""stim_listB/argue2.gif""</stim_listB>",,html-keyboard-response,103,678375,0.0-13.0-1.18,51202,List2B,black,woman,,,,null,,,,
null,are arguing with each other,,html-keyboard-response,104,680380,0.0-13.0-2.18,51202,List2B,black,woman,,,,null,,,,
10757,,,survey-text,105,691138,0.0-13.0-3.18,51202,List2B,black,woman,,,,,"{""Q0"":""luke and jane are shouting at each other""}","<img src=""stim_listB/argue2.gif""</stim_listB>",are arguing with each other,
null,"<div style=""font-size:60px;"">+</div>",,html-keyboard-response,106,691646,0.0-13.0-0.19,51202,List2B,black,woman,,,,null,,,,
null,"<img src=""stim_listB/talk2.gif""</stim_listB>",,html-keyboard-response,107,693651,0.0-13.0-1.19,51202,List2B,black,woman,,,,null,,,,
null,are talking to each other,,html-keyboard-response,108,695658,0.0-13.0-2.19,51202,List2B,black,woman,,,,null,,,,
8345,,,survey-text,109,704005,0.0-13.0-3.19,51202,List2B,black,woman,,,,,"{""Q0"":""ruth and dave are talking to each other""}","<img src=""stim_listB/talk2.gif""</stim_listB>",are talking to each other,
20555,"<img src='img/portrait_matrix_list2.JPG' style='width:900px;height:500px;''></img><p>If you have memorised all the portraits and names and are ready to start, press Continue.</p><p><strong>Please note: Your memory of these faces will be tested 4 times during this experiment.</strong></p>",0,html-button-response,110,724562,0.0-14.0-0.0,51202,List2B,black,woman,,,,,,,,
1237,"<img src=""portrait/BW1.jpg""style=""width:400px;height:400px;""></img>",0,html-button-response,111,726809,0.0-14.0-1.0,51202,List2B,black,woman,,TRUE,0,,,,,
null,CORRECT,,html-keyboard-response,112,728334,0.0-14.0-2.0-0.0,51202,List2B,black,woman,,,,null,,,,
1614,"<img src=""portrait/BM2.jpg""style=""width:400px;height:400px;""></img>",5,html-button-response,113,729951,0.0-14.0-4.0,51202,List2B,black,woman,,TRUE,5,,,,,
null,CORRECT,,html-keyboard-response,114,731467,0.0-14.0-5.0-0.0,51202,List2B,black,woman,,,,null,,,,
1885,"<img src=""portrait/WW2.jpg""style=""width:400px;height:400px;""></img>",3,html-button-response,115,733354,0.0-14.0-7.0,51202,List2B,black,woman,,TRUE,3,,,,,
null,CORRECT,,html-keyboard-response,116,734880,0.0-14.0-8.0-0.0,51202,List2B,black,woman,,,,null,,,,
2667,"<img src=""portrait/BM1.jpg""style=""width:400px;height:400px;""></img>",4,html-button-response,117,737549,0.0-14.0-10.0,51202,List2B,black,woman,,TRUE,4,,,,,
null,CORRECT,,html-keyboard-response,118,739068,0.0-14.0-11.0-0.0,51202,List2B,black,woman,,,,null,,,,
2084,"<img src=""portrait/BW2.jpg""style=""width:400px;height:400px;""></img>",2,html-button-response,119,741154,0.0-14.0-13.0,51202,List2B,black,woman,,TRUE,2,,,,,
null,CORRECT,,html-keyboard-response,120,742672,0.0-14.0-14.0-0.0,51202,List2B,black,woman,,,,null,,,,
2348,"<img src=""portrait/WM2.jpg""style=""width:400px;height:400px;""></img>",7,html-button-response,121,745022,0.0-14.0-16.0,51202,List2B,black,woman,,TRUE,7,,,,,
null,CORRECT,,html-keyboard-response,122,746538,0.0-14.0-17.0-0.0,51202,List2B,black,woman,,,,null,,,,
1952,"<img src=""portrait/WW1.jpg""style=""width:400px;height:400px;""></img>",1,html-button-response,123,748490,0.0-14.0-19.0,51202,List2B,black,woman,,TRUE,1,,,,,
null,CORRECT,,html-keyboard-response,124,750016,0.0-14.0-20.0-0.0,51202,List2B,black,woman,,,,null,,,,
1494,"<img src=""portrait/WM1.jpg""style=""width:400px;height:400px;""></img>",6,html-button-response,125,751512,0.0-14.0-22.0,51202,List2B,black,woman,,TRUE,6,,,,,
null,CORRECT,,html-keyboard-response,126,753039,0.0-14.0-23.0-0.0,51202,List2B,black,woman,,,,null,,,,
1884,<p>You got 8 out of 8 right first time. Press Continue.</p>,0,html-button-response,127,754926,0.0-14.0-25.0,51202,List2B,black,woman,,,,,,,,
null,"<div style=""font-size:60px;"">+</div>",,html-keyboard-response,128,756435,0.0-15.0-0.0,51202,List2B,black,woman,,,,null,,,,
null,"<img src=""stim_listB/marry8.gif""</stim_listB>",,html-keyboard-response,129,758441,0.0-15.0-1.0,51202,List2B,black,woman,,,,null,,,,
null,are marrying each other,,html-keyboard-response,130,760455,0.0-15.0-2.0,51202,List2B,black,woman,,,,null,,,,
7581,,,survey-text,131,768037,0.0-15.0-3.0,51202,List2B,black,woman,,,,,"{""Q0"":""kate and ruth are marrying each other""}","<img src=""stim_listB/marry8.gif""</stim_listB>",are marrying each other,
null,"<div style=""font-size:60px;"">+</div>",,html-keyboard-response,132,768553,0.0-15.0-0.1,51202,List2B,black,woman,,,,null,,,,
null,"<img src=""stim_listB/dance7.gif""</stim_listB>",,html-keyboard-response,133,770567,0.0-15.0-1.1,51202,List2B,black,woman,,,,null,,,,
null,is dancing with,,html-keyboard-response,134,772571,0.0-15.0-2.1,51202,List2B,black,woman,,,,null,,,,
5084,,,survey-text,135,777656,0.0-15.0-3.1,51202,List2B,black,woman,,,,,"{""Q0"":""kate is dancing with ruth""}","<img src=""stim_listB/dance7.gif""</stim_listB>",is dancing with,
null,"<div style=""font-size:60px;"">+</div>",,html-keyboard-response,136,778169,0.0-15.0-0.2,51202,List2B,black,woman,,,,null,,,,
null,"<img src=""stim_listB/hug2.gif""</stim_listB>",,html-keyboard-response,137,780173,0.0-15.0-1.2,51202,List2B,black,woman,,,,null,,,,
null,are hugging each other,,html-keyboard-response,138,782190,0.0-15.0-2.2,51202,List2B,black,woman,,,,null,,,,
8380,,,survey-text,139,790571,0.0-15.0-3.2,51202,List2B,black,woman,,,,,"{""Q0"":""dave and jane are hugging each other""}","<img src=""stim_listB/hug2.gif""</stim_listB>",are hugging each other,
null,"<div style=""font-size:60px;"">+</div>",,html-keyboard-response,140,791091,0.0-15.0-0.3,51202,List2B,black,woman,,,,null,,,,
null,"<img src=""stim_listB/dance3.gif""</stim_listB>",,html-keyboard-response,141,793098,0.0-15.0-1.3,51202,List2B,black,woman,,,,null,,,,
null,is dancing with,,html-keyboard-response,142,795106,0.0-15.0-2.3,51202,List2B,black,woman,,,,null,,,,
5390,,,survey-text,143,800498,0.0-15.0-3.3,51202,List2B,black,woman,,,,,"{""Q0"":""kate is dancing with fred""}","<img src=""stim_listB/dance3.gif""</stim_listB>",is dancing with,
null,"<div style=""font-size:60px;"">+</div>",,html-keyboard-response,144,801000,0.0-15.0-0.4,51202,List2B,black,woman,,,,null,,,,
null,"<img src=""stim_listB/fight6.gif""</stim_listB>",,html-keyboard-response,145,803012,0.0-15.0-1.4,51202,List2B,black,woman,,,,null,,,,
null,are fighting each other,,html-keyboard-response,146,805025,0.0-15.0-2.4,51202,List2B,black,woman,,,,null,,,,
6692,,,survey-text,147,811721,0.0-15.0-3.4,51202,List2B,black,woman,,,,,"{""Q0"":""fred and luke are fighting each other""}","<img src=""stim_listB/fight6.gif""</stim_listB>",are fighting each other,
null,"<div style=""font-size:60px;"">+</div>",,html-keyboard-response,148,812233,0.0-15.0-0.5,51202,List2B,black,woman,,,,null,,,,
null,"<img src=""stim_listB/talk4.gif""</stim_listB>",,html-keyboard-response,149,814250,0.0-15.0-1.5,51202,List2B,black,woman,,,,null,,,,
null,are talking to each other,,html-keyboard-response,150,816254,0.0-15.0-2.5,51202,List2B,black,woman,,,,null,,,,
6823,,,survey-text,151,823078,0.0-15.0-3.5,51202,List2B,black,woman,,,,,"{""Q0"":""mike and beth are talking to each other""}","<img src=""stim_listB/talk4.gif""</stim_listB>",are talking to each other,
null,"<div style=""font-size:60px;"">+</div>",,html-keyboard-response,152,823596,0.0-15.0-0.6,51202,List2B,black,woman,,,,null,,,,
null,"<img src=""stim_listB/kiss2.gif""</stim_listB>",,html-keyboard-response,153,825600,0.0-15.0-1.6,51202,List2B,black,woman,,,,null,,,,
null,are kissing each other,,html-keyboard-response,154,827603,0.0-15.0-2.6,51202,List2B,black,woman,,,,null,,,,
6548,,,survey-text,155,834153,0.0-15.0-3.6,51202,List2B,black,woman,,,,,"{""Q0"":""dave and jane are kissing each other""}","<img src=""stim_listB/kiss2.gif""</stim_listB>",are kissing each other,
null,"<div style=""font-size:60px;"">+</div>",,html-keyboard-response,156,834659,0.0-15.0-0.7,51202,List2B,black,woman,,,,null,,,,
null,"<img src=""stim_listB/dance1.gif""</stim_listB>",,html-keyboard-response,157,836675,0.0-15.0-1.7,51202,List2B,black,woman,,,,null,,,,
null,is dancing with,,html-keyboard-response,158,838690,0.0-15.0-2.7,51202,List2B,black,woman,,,,null,,,,
4714,,,survey-text,159,843406,0.0-15.0-3.7,51202,List2B,black,woman,,,,,"{""Q0"":""jane is dancing with luke""}","<img src=""stim_listB/dance1.gif""</stim_listB>",is dancing with,
null,"<div style=""font-size:60px;"">+</div>",,html-keyboard-response,160,843921,0.0-15.0-0.8,51202,List2B,black,woman,,,,null,,,,
null,"<img src=""stim_listB/meet6.gif""</stim_listB>",,html-keyboard-response,161,845922,0.0-15.0-1.8,51202,List2B,black,woman,,,,null,,,,
null,are meeting each other,,html-keyboard-response,162,847924,0.0-15.0-2.8,51202,List2B,black,woman,,,,null,,,,
7031,,,survey-text,163,854957,0.0-15.0-3.8,51202,List2B,black,woman,,,,,"{""Q0"":""luke and fred are meeting each other""}","<img src=""stim_listB/meet6.gif""</stim_listB>",are meeting each other,
null,"<div style=""font-size:60px;"">+</div>",,html-keyboard-response,164,855465,0.0-15.0-0.9,51202,List2B,black,woman,,,,null,,,,
null,"<img src=""stim_listB/marry1.gif""</stim_listB>",,html-keyboard-response,165,857480,0.0-15.0-1.9,51202,List2B,black,woman,,,,null,,,,
null,is marrying,,html-keyboard-response,166,859486,0.0-15.0-2.9,51202,List2B,black,woman,,,,null,,,,
4584,,,survey-text,167,864072,0.0-15.0-3.9,51202,List2B,black,woman,,,,,"{""Q0"":""ruth is marrying dave""}","<img src=""stim_listB/marry1.gif""</stim_listB>",is marrying,
null,"<div style=""font-size:60px;"">+</div>",,html-keyboard-response,168,864583,0.0-15.0-0.10,51202,List2B,black,woman,,,,null,,,,
null,"<img src=""stim_listB/fight3.gif""</stim_listB>",,html-keyboard-response,169,866587,0.0-15.0-1.10,51202,List2B,black,woman,,,,null,,,,
null,is fighting,,html-keyboard-response,170,868590,0.0-15.0-2.10,51202,List2B,black,woman,,,,null,,,,
4340,,,survey-text,171,872930,0.0-15.0-3.10,51202,List2B,black,woman,,,,,"{""Q0"":""kate is fighting mike""}","<img src=""stim_listB/fight3.gif""</stim_listB>",is fighting,
null,"<div style=""font-size:60px;"">+</div>",,html-keyboard-response,172,873442,0.0-15.0-0.11,51202,List2B,black,woman,,,,null,,,,
null,"<img src=""stim_listB/hug4.gif""</stim_listB>",,html-keyboard-response,173,875451,0.0-15.0-1.11,51202,List2B,black,woman,,,,null,,,,
null,are hugging each other,,html-keyboard-response,174,877468,0.0-15.0-2.11,51202,List2B,black,woman,,,,null,,,,
6301,,,survey-text,175,883771,0.0-15.0-3.11,51202,List2B,black,woman,,,,,"{""Q0"":""mike and kate are hugging each other""}","<img src=""stim_listB/hug4.gif""</stim_listB>",are hugging each other,
null,"<div style=""font-size:60px;"">+</div>",,html-keyboard-response,176,884272,0.0-15.0-0.12,51202,List2B,black,woman,,,,null,,,,
null,"<img src=""stim_listB/fight5.gif""</stim_listB>",,html-keyboard-response,177,886282,0.0-15.0-1.12,51202,List2B,black,woman,,,,null,,,,
null,is fighting,,html-keyboard-response,178,888298,0.0-15.0-2.12,51202,List2B,black,woman,,,,null,,,,
9619,,,survey-text,179,897917,0.0-15.0-3.12,51202,List2B,black,woman,,,,,"{""Q0"":""mike is fighting dave""}","<img src=""stim_listB/fight5.gif""</stim_listB>",is fighting,
null,"<div style=""font-size:60px;"">+</div>",,html-keyboard-response,180,898432,0.0-15.0-0.13,51202,List2B,black,woman,,,,null,,,,
null,"<img src=""stim_listB/talk1.gif""</stim_listB>",,html-keyboard-response,181,900438,0.0-15.0-1.13,51202,List2B,black,woman,,,,null,,,,
null,is talking to,,html-keyboard-response,182,902448,0.0-15.0-2.13,51202,List2B,black,woman,,,,null,,,,
10958,,,survey-text,183,913409,0.0-15.0-3.13,51202,List2B,black,woman,,,,,"{""Q0"":""jane is talking to luke""}","<img src=""stim_listB/talk1.gif""</stim_listB>",is talking to,
null,"<div style=""font-size:60px;"">+</div>",,html-keyboard-response,184,913916,0.0-15.0-0.14,51202,List2B,black,woman,,,,null,,,,
null,"<img src=""stim_listB/kiss8.gif""</stim_listB>",,html-keyboard-response,185,915929,0.0-15.0-1.14,51202,List2B,black,woman,,,,null,,,,
null,are kissing each other,,html-keyboard-response,186,917935,0.0-15.0-2.14,51202,List2B,black,woman,,,,null,,,,
6174,,,survey-text,187,924110,0.0-15.0-3.14,51202,List2B,black,woman,,,,,"{""Q0"":""jane and kate are kissing each other""}","<img src=""stim_listB/kiss8.gif""</stim_listB>",are kissing each other,
null,"<div style=""font-size:60px;"">+</div>",,html-keyboard-response,188,924611,0.0-15.0-0.15,51202,List2B,black,woman,,,,null,,,,
null,"<img src=""stim_listB/hug8.gif""</stim_listB>",,html-keyboard-response,189,926625,0.0-15.0-1.15,51202,List2B,black,woman,,,,null,,,,
null,are hugging each other,,html-keyboard-response,190,928641,0.0-15.0-2.15,51202,List2B,black,woman,,,,null,,,,
7505,,,survey-text,191,936147,0.0-15.0-3.15,51202,List2B,black,woman,,,,,"{""Q0"":""jane and kate are hugging each other""}","<img src=""stim_listB/hug8.gif""</stim_listB>",are hugging each other,
null,"<div style=""font-size:60px;"">+</div>",,html-keyboard-response,192,936652,0.0-15.0-0.16,51202,List2B,black,woman,,,,null,,,,
null,"<img src=""stim_listB/talk8.gif""</stim_listB>",,html-keyboard-response,193,938665,0.0-15.0-1.16,51202,List2B,black,woman,,,,null,,,,
null,are talking to each other,,html-keyboard-response,194,940670,0.0-15.0-2.16,51202,List2B,black,woman,,,,null,,,,
6159,,,survey-text,195,946831,0.0-15.0-3.16,51202,List2B,black,woman,,,,,"{""Q0"":""jane and beth are talking to each other""}","<img src=""stim_listB/talk8.gif""</stim_listB>",are talking to each other,
null,"<div style=""font-size:60px;"">+</div>",,html-keyboard-response,196,947337,0.0-15.0-0.17,51202,List2B,black,woman,,,,null,,,,
null,"<img src=""stim_listB/kiss6.gif""</stim_listB>",,html-keyboard-response,197,949352,0.0-15.0-1.17,51202,List2B,black,woman,,,,null,,,,
null,are kissing each other,,html-keyboard-response,198,951353,0.0-15.0-2.17,51202,List2B,black,woman,,,,null,,,,
7080,,,survey-text,199,958434,0.0-15.0-3.17,51202,List2B,black,woman,,,,,"{""Q0"":""dave and mike are kissing each other""}","<img src=""stim_listB/kiss6.gif""</stim_listB>",are kissing each other,
null,"<div style=""font-size:60px;"">+</div>",,html-keyboard-response,200,958937,0.0-15.0-0.18,51202,List2B,black,woman,,,,null,,,,
null,"<img src=""stim_listB/talk5.gif""</stim_listB>",,html-keyboard-response,201,960942,0.0-15.0-1.18,51202,List2B,black,woman,,,,null,,,,
null,is talking to,,html-keyboard-response,202,962956,0.0-15.0-2.18,51202,List2B,black,woman,,,,null,,,,
4873,,,survey-text,203,967830,0.0-15.0-3.18,51202,List2B,black,woman,,,,,"{""Q0"":""mike is talking to luke""}","<img src=""stim_listB/talk5.gif""</stim_listB>",is talking to,
null,"<div style=""font-size:60px;"">+</div>",,html-keyboard-response,204,968345,0.0-15.0-0.19,51202,List2B,black,woman,,,,null,,,,
null,"<img src=""stim_listB/touch6.gif""</stim_listB>",,html-keyboard-response,205,970349,0.0-15.0-1.19,51202,List2B,black,woman,,,,null,,,,
null,are touching each other,,html-keyboard-response,206,972354,0.0-15.0-2.19,51202,List2B,black,woman,,,,null,,,,
6971,,,survey-text,207,979326,0.0-15.0-3.19,51202,List2B,black,woman,,,,,"{""Q0"":""luke and fred are touching each other""}","<img src=""stim_listB/touch6.gif""</stim_listB>",are touching each other,
12221,"<img src='img/portrait_matrix_list2.JPG' style='width:900px;height:500px;''></img><p>If you have memorised all the portraits and names and are ready to start, press Continue.</p><p><strong>Please note: Your memory of these faces will be tested 4 times during this experiment.</strong></p>",0,html-button-response,208,991549,0.0-16.0-0.0,51202,List2B,black,woman,,,,,,,,
2128,"<img src=""portrait/BM2.jpg""style=""width:400px;height:400px;""></img>",5,html-button-response,209,994686,0.0-16.0-1.0,51202,List2B,black,woman,,TRUE,5,,,,,
null,CORRECT,,html-keyboard-response,210,996211,0.0-16.0-2.0-0.0,51202,List2B,black,woman,,,,null,,,,
3102,"<img src=""portrait/BM1.jpg""style=""width:400px;height:400px;""></img>",4,html-button-response,211,999316,0.0-16.0-4.0,51202,List2B,black,woman,,TRUE,4,,,,,
null,CORRECT,,html-keyboard-response,212,1000845,0.0-16.0-5.0-0.0,51202,List2B,black,woman,,,,null,,,,
1386,"<img src=""portrait/WM1.jpg""style=""width:400px;height:400px;""></img>",6,html-button-response,213,1002234,0.0-16.0-7.0,51202,List2B,black,woman,,TRUE,6,,,,,
null,CORRECT,,html-keyboard-response,214,1003761,0.0-16.0-8.0-0.0,51202,List2B,black,woman,,,,null,,,,
1403,"<img src=""portrait/BW1.jpg""style=""width:400px;height:400px;""></img>",0,html-button-response,215,1005166,0.0-16.0-10.0,51202,List2B,black,woman,,TRUE,0,,,,,
null,CORRECT,,html-keyboard-response,216,1006689,0.0-16.0-11.0-0.0,51202,List2B,black,woman,,,,null,,,,
2624,"<img src=""portrait/WW1.jpg""style=""width:400px;height:400px;""></img>",1,html-button-response,217,1009315,0.0-16.0-13.0,51202,List2B,black,woman,,TRUE,1,,,,,
null,CORRECT,,html-keyboard-response,218,1010822,0.0-16.0-14.0-0.0,51202,List2B,black,woman,,,,null,,,,
1696,"<img src=""portrait/WM2.jpg""style=""width:400px;height:400px;""></img>",7,html-button-response,219,1012520,0.0-16.0-16.0,51202,List2B,black,woman,,TRUE,7,,,,,
null,CORRECT,,html-keyboard-response,220,1014043,0.0-16.0-17.0-0.0,51202,List2B,black,woman,,,,null,,,,
2364,"<img src=""portrait/WW2.jpg""style=""width:400px;height:400px;""></img>",3,html-button-response,221,1016409,0.0-16.0-19.0,51202,List2B,black,woman,,TRUE,3,,,,,
null,CORRECT,,html-keyboard-response,222,1017924,0.0-16.0-20.0-0.0,51202,List2B,black,woman,,,,null,,,,
2963,"<img src=""portrait/BW2.jpg""style=""width:400px;height:400px;""></img>",2,html-button-response,223,1020889,0.0-16.0-22.0,51202,List2B,black,woman,,TRUE,2,,,,,
null,CORRECT,,html-keyboard-response,224,1022416,0.0-16.0-23.0-0.0,51202,List2B,black,woman,,,,null,,,,
2140,<p>You got 8 out of 8 right first time. Press Continue.</p>,0,html-button-response,225,1024559,0.0-16.0-25.0,51202,List2B,black,woman,,,,,,,,
null,"<div style=""font-size:60px;"">+</div>",,html-keyboard-response,226,1026090,0.0-17.0-0.0,51202,List2B,black,woman,,,,null,,,,
null,"<img src=""stim_listB/meet3.gif""</stim_listB>",,html-keyboard-response,227,1028110,0.0-17.0-1.0,51202,List2B,black,woman,,,,null,,,,
null,is meeting,,html-keyboard-response,228,1030125,0.0-17.0-2.0,51202,List2B,black,woman,,,,null,,,,
4941,,,survey-text,229,1035068,0.0-17.0-3.0,51202,List2B,black,woman,,,,,"{""Q0"":""kate is meeting mike""}","<img src=""stim_listB/meet3.gif""</stim_listB>",is meeting,
null,"<div style=""font-size:60px;"">+</div>",,html-keyboard-response,230,1035580,0.0-17.0-0.1,51202,List2B,black,woman,,,,null,,,,
null,"<img src=""stim_listB/hug1.gif""</stim_listB>",,html-keyboard-response,231,1037590,0.0-17.0-1.1,51202,List2B,black,woman,,,,null,,,,
null,is hugging,,html-keyboard-response,232,1039592,0.0-17.0-2.1,51202,List2B,black,woman,,,,null,,,,
4553,,,survey-text,233,1044147,0.0-17.0-3.1,51202,List2B,black,woman,,,,,"{""Q0"":""ruth is hugging luke""}","<img src=""stim_listB/hug1.gif""</stim_listB>",is hugging,
null,"<div style=""font-size:60px;"">+</div>",,html-keyboard-response,234,1044649,0.0-17.0-0.2,51202,List2B,black,woman,,,,null,,,,
null,"<img src=""stim_listB/shout2.gif""</stim_listB>",,html-keyboard-response,235,1046654,0.0-17.0-1.2,51202,List2B,black,woman,,,,null,,,,
null,are shouting at each other,,html-keyboard-response,236,1048664,0.0-17.0-2.2,51202,List2B,black,woman,,,,null,,,,
6460,,,survey-text,237,1055124,0.0-17.0-3.2,51202,List2B,black,woman,,,,,"{""Q0"":""jane and dave are shouting at each other""}","<img src=""stim_listB/shout2.gif""</stim_listB>",are shouting at each other,
null,"<div style=""font-size:60px;"">+</div>",,html-keyboard-response,238,1055636,0.0-17.0-0.3,51202,List2B,black,woman,,,,null,,,,
null,"<img src=""stim_listB/argue6.gif""</stim_listB>",,html-keyboard-response,239,1057650,0.0-17.0-1.3,51202,List2B,black,woman,,,,null,,,,
null,are arguing with each other,,html-keyboard-response,240,1059674,0.0-17.0-2.3,51202,List2B,black,woman,,,,null,,,,
7685,,,survey-text,241,1067359,0.0-17.0-3.3,51202,List2B,black,woman,,,,,"{""Q0"":""mike and luke are arguing with each other""}","<img src=""stim_listB/argue6.gif""</stim_listB>",are arguing with each other,
null,"<div style=""font-size:60px;"">+</div>",,html-keyboard-response,242,1067861,0.0-17.0-0.4,51202,List2B,black,woman,,,,null,,,,
null,"<img src=""stim_listB/shout1.gif""</stim_listB>",,html-keyboard-response,243,1069875,0.0-17.0-1.4,51202,List2B,black,woman,,,,null,,,,
null,is shouting at,,html-keyboard-response,244,1071877,0.0-17.0-2.4,51202,List2B,black,woman,,,,null,,,,
5657,,,survey-text,245,1077535,0.0-17.0-3.4,51202,List2B,black,woman,,,,,"{""Q0"":""ruth is shouting at luke""}","<img src=""stim_listB/shout1.gif""</stim_listB>",is shouting at,
null,"<div style=""font-size:60px;"">+</div>",,html-keyboard-response,246,1078054,0.0-17.0-0.5,51202,List2B,black,woman,,,,null,,,,
null,"<img src=""stim_listB/marry5.gif""</stim_listB>",,html-keyboard-response,247,1080058,0.0-17.0-1.5,51202,List2B,black,woman,,,,null,,,,
null,is marrying,,html-keyboard-response,248,1082068,0.0-17.0-2.5,51202,List2B,black,woman,,,,null,,,,
5809,,,survey-text,249,1087879,0.0-17.0-3.5,51202,List2B,black,woman,,,,,"{""Q0"":""fred is marrying dave""}","<img src=""stim_listB/marry5.gif""</stim_listB>",is marrying,
null,"<div style=""font-size:60px;"">+</div>",,html-keyboard-response,250,1088381,0.0-17.0-0.6,51202,List2B,black,woman,,,,null,,,,
null,"<img src=""stim_listB/dance2.gif""</stim_listB>",,html-keyboard-response,251,1090396,0.0-17.0-1.6,51202,List2B,black,woman,,,,null,,,,
null,are dancing with each other,,html-keyboard-response,252,1092400,0.0-17.0-2.6,51202,List2B,black,woman,,,,null,,,,
7753,,,survey-text,253,1100154,0.0-17.0-3.6,51202,List2B,black,woman,,,,,"{""Q0"":""dave and ruth are dancing with each other""}","<img src=""stim_listB/dance2.gif""</stim_listB>",are dancing with each other,
null,"<div style=""font-size:60px;"">+</div>",,html-keyboard-response,254,1100671,0.0-17.0-0.7,51202,List2B,black,woman,,,,null,,,,
null,"<img src=""stim_listB/touch5.gif""</stim_listB>",,html-keyboard-response,255,1102684,0.0-17.0-1.7,51202,List2B,black,woman,,,,null,,,,
null,is touching,,html-keyboard-response,256,1104692,0.0-17.0-2.7,51202,List2B,black,woman,,,,null,,,,
3921,,,survey-text,257,1108614,0.0-17.0-3.7,51202,List2B,black,woman,,,,,"{""Q0"":""mike is touching dave""}","<img src=""stim_listB/touch5.gif""</stim_listB>",is touching,
null,"<div style=""font-size:60px;"">+</div>",,html-keyboard-response,258,1109119,0.0-17.0-0.8,51202,List2B,black,woman,,,,null,,,,
null,"<img src=""stim_listB/dance6.gif""</stim_listB>",,html-keyboard-response,259,1111122,0.0-17.0-1.8,51202,List2B,black,woman,,,,null,,,,
null,are dancing with each other,,html-keyboard-response,260,1113128,0.0-17.0-2.8,51202,List2B,black,woman,,,,null,,,,
6976,,,survey-text,261,1120105,0.0-17.0-3.8,51202,List2B,black,woman,,,,,"{""Q0"":""dave and fred are dancing with each other""}","<img src=""stim_listB/dance6.gif""</stim_listB>",are dancing with each other,
null,"<div style=""font-size:60px;"">+</div>",,html-keyboard-response,262,1120611,0.0-17.0-0.9,51202,List2B,black,woman,,,,null,,,,
null,"<img src=""stim_listB/hug5.gif""</stim_listB>",,html-keyboard-response,263,1122616,0.0-17.0-1.9,51202,List2B,black,woman,,,,null,,,,
null,is hugging,,html-keyboard-response,264,1124626,0.0-17.0-2.9,51202,List2B,black,woman,,,,null,,,,
5213,,,survey-text,265,1129841,0.0-17.0-3.9,51202,List2B,black,woman,,,,,"{""Q0"":""fred is hugging luke""}","<img src=""stim_listB/hug5.gif""</stim_listB>",is hugging,
null,"<div style=""font-size:60px;"">+</div>",,html-keyboard-response,266,1130343,0.0-17.0-0.10,51202,List2B,black,woman,,,,null,,,,
null,"<img src=""stim_listB/meet1.gif""</stim_listB>",,html-keyboard-response,267,1132355,0.0-17.0-1.10,51202,List2B,black,woman,,,,null,,,,
null,is meeting,,html-keyboard-response,268,1134360,0.0-17.0-2.10,51202,List2B,black,woman,,,,null,,,,
4942,,,survey-text,269,1139304,0.0-17.0-3.10,51202,List2B,black,woman,,,,,"{""Q0"":""ruth is meeting dave""}","<img src=""stim_listB/meet1.gif""</stim_listB>",is meeting,
null,"<div style=""font-size:60px;"">+</div>",,html-keyboard-response,270,1139813,0.0-17.0-0.11,51202,List2B,black,woman,,,,null,,,,
null,"<img src=""stim_listB/kiss4.gif""</stim_listB>",,html-keyboard-response,271,1141825,0.0-17.0-1.11,51202,List2B,black,woman,,,,null,,,,
null,are kissing each other,,html-keyboard-response,272,1143840,0.0-17.0-2.11,51202,List2B,black,woman,,,,null,,,,
6593,,,survey-text,273,1150435,0.0-17.0-3.11,51202,List2B,black,woman,,,,,"{""Q0"":""mike and kate are kissing each other""}","<img src=""stim_listB/kiss4.gif""</stim_listB>",are kissing each other,
null,"<div style=""font-size:60px;"">+</div>",,html-keyboard-response,274,1150942,0.0-17.0-0.12,51202,List2B,black,woman,,,,null,,,,
null,"<img src=""stim_listB/argue4.gif""</stim_listB>",,html-keyboard-response,275,1152962,0.0-17.0-1.12,51202,List2B,black,woman,,,,null,,,,
null,are arguing with each other,,html-keyboard-response,276,1154967,0.0-17.0-2.12,51202,List2B,black,woman,,,,null,,,,
6597,,,survey-text,277,1161566,0.0-17.0-3.12,51202,List2B,black,woman,,,,,"{""Q0"":""fred and kate are arguing with each other""}","<img src=""stim_listB/argue4.gif""</stim_listB>",are arguing with each other,
null,"<div style=""font-size:60px;"">+</div>",,html-keyboard-response,278,1162073,0.0-17.0-0.13,51202,List2B,black,woman,,,,null,,,,
null,"<img src=""stim_listB/fight2.gif""</stim_listB>",,html-keyboard-response,279,1164076,0.0-17.0-1.13,51202,List2B,black,woman,,,,null,,,,
null,are fighting each other,,html-keyboard-response,280,1166078,0.0-17.0-2.13,51202,List2B,black,woman,,,,null,,,,
7169,,,survey-text,281,1173249,0.0-17.0-3.13,51202,List2B,black,woman,,,,,"{""Q0"":""luke and ruth are fighting each other""}","<img src=""stim_listB/fight2.gif""</stim_listB>",are fighting each other,
null,"<div style=""font-size:60px;"">+</div>",,html-keyboard-response,282,1173760,0.0-17.0-0.14,51202,List2B,black,woman,,,,null,,,,
null,"<img src=""stim_listB/shout8.gif""</stim_listB>",,html-keyboard-response,283,1175774,0.0-17.0-1.14,51202,List2B,black,woman,,,,null,,,,
null,are shouting at each other,,html-keyboard-response,284,1177782,0.0-17.0-2.14,51202,List2B,black,woman,,,,null,,,,
7118,,,survey-text,285,1184901,0.0-17.0-3.14,51202,List2B,black,woman,,,,,"{""Q0"":""jane and kate are shouting at each other""}","<img src=""stim_listB/shout8.gif""</stim_listB>",are shouting at each other,
null,"<div style=""font-size:60px;"">+</div>",,html-keyboard-response,286,1185408,0.0-17.0-0.15,51202,List2B,black,woman,,,,null,,,,
null,"<img src=""stim_listB/touch3.gif""</stim_listB>",,html-keyboard-response,287,1187410,0.0-17.0-1.15,51202,List2B,black,woman,,,,null,,,,
null,is touching,,html-keyboard-response,288,1189423,0.0-17.0-2.15,51202,List2B,black,woman,,,,null,,,,
4514,,,survey-text,289,1193939,0.0-17.0-3.15,51202,List2B,black,woman,,,,,"{""Q0"":""kate is touching mike""}","<img src=""stim_listB/touch3.gif""</stim_listB>",is touching,
null,"<div style=""font-size:60px;"">+</div>",,html-keyboard-response,290,1194455,0.0-17.0-0.16,51202,List2B,black,woman,,,,null,,,,
null,"<img src=""stim_listB/argue1.gif""</stim_listB>",,html-keyboard-response,291,1196471,0.0-17.0-1.16,51202,List2B,black,woman,,,,null,,,,
null,is arguing with,,html-keyboard-response,292,1198482,0.0-17.0-2.16,51202,List2B,black,woman,,,,null,,,,
4936,,,survey-text,293,1203419,0.0-17.0-3.16,51202,List2B,black,woman,,,,,"{""Q0"":""ruth is arguing with dave""}","<img src=""stim_listB/argue1.gif""</stim_listB>",is arguing with,
null,"<div style=""font-size:60px;"">+</div>",,html-keyboard-response,294,1203933,0.0-17.0-0.17,51202,List2B,black,woman,,,,null,,,,
null,"<img src=""stim_listB/touch1.gif""</stim_listB>",,html-keyboard-response,295,1205950,0.0-17.0-1.17,51202,List2B,black,woman,,,,null,,,,
null,is touching,,html-keyboard-response,296,1207966,0.0-17.0-2.17,51202,List2B,black,woman,,,,null,,,,
4542,,,survey-text,297,1212510,0.0-17.0-3.17,51202,List2B,black,woman,,,,,"{""Q0"":""ruth is touching dave""}","<img src=""stim_listB/touch1.gif""</stim_listB>",is touching,
null,"<div style=""font-size:60px;"">+</div>",,html-keyboard-response,298,1213019,0.0-17.0-0.18,51202,List2B,black,woman,,,,null,,,,
null,"<img src=""stim_listB/shout7.gif""</stim_listB>",,html-keyboard-response,299,1215031,0.0-17.0-1.18,51202,List2B,black,woman,,,,null,,,,
null,is shouting at,,html-keyboard-response,300,1217033,0.0-17.0-2.18,51202,List2B,black,woman,,,,null,,,,
5661,,,survey-text,301,1222696,0.0-17.0-3.18,51202,List2B,black,woman,,,,,"{""Q0"":""kate is shouting at ruth""}","<img src=""stim_listB/shout7.gif""</stim_listB>",is shouting at,
null,"<div style=""font-size:60px;"">+</div>",,html-keyboard-response,302,1223211,0.0-17.0-0.19,51202,List2B,black,woman,,,,null,,,,
null,"<img src=""stim_listB/fight4.gif""</stim_listB>",,html-keyboard-response,303,1225238,0.0-17.0-1.19,51202,List2B,black,woman,,,,null,,,,
null,are fighting each other,,html-keyboard-response,304,1227254,0.0-17.0-2.19,51202,List2B,black,woman,,,,null,,,,
11567,,,survey-text,305,1238823,0.0-17.0-3.19,51202,List2B,black,woman,,,,,"{""Q0"":""fred and beth are fighting each other""}","<img src=""stim_listB/fight4.gif""</stim_listB>",are fighting each other,
24074,"<img src='img/portrait_matrix_list2.JPG' style='width:900px;height:500px;''></img><p>If you have memorised all the portraits and names and are ready to start, press Continue.</p><p><strong>Please note: Your memory of these faces will be tested 4 times during this experiment.</strong></p>",0,html-button-response,306,1262897,0.0-18.0-0.0,51202,List2B,black,woman,,,,,,,,
1943,"<img src=""portrait/BM2.jpg""style=""width:400px;height:400px;""></img>",5,html-button-response,307,1265845,0.0-18.0-1.0,51202,List2B,black,woman,,TRUE,5,,,,,
null,CORRECT,,html-keyboard-response,308,1267370,0.0-18.0-2.0-0.0,51202,List2B,black,woman,,,,null,,,,
2230,"<img src=""portrait/BM1.jpg""style=""width:400px;height:400px;""></img>",4,html-button-response,309,1269602,0.0-18.0-4.0,51202,List2B,black,woman,,TRUE,4,,,,,
null,CORRECT,,html-keyboard-response,310,1271134,0.0-18.0-5.0-0.0,51202,List2B,black,woman,,,,null,,,,
1374,"<img src=""portrait/WW2.jpg""style=""width:400px;height:400px;""></img>",3,html-button-response,311,1272511,0.0-18.0-7.0,51202,List2B,black,woman,,TRUE,3,,,,,
null,CORRECT,,html-keyboard-response,312,1274022,0.0-18.0-8.0-0.0,51202,List2B,black,woman,,,,null,,,,
1710,"<img src=""portrait/WW1.jpg""style=""width:400px;height:400px;""></img>",1,html-button-response,313,1275734,0.0-18.0-10.0,51202,List2B,black,woman,,TRUE,1,,,,,
null,CORRECT,,html-keyboard-response,314,1277260,0.0-18.0-11.0-0.0,51202,List2B,black,woman,,,,null,,,,
1391,"<img src=""portrait/WM1.jpg""style=""width:400px;height:400px;""></img>",6,html-button-response,315,1278654,0.0-18.0-13.0,51202,List2B,black,woman,,TRUE,6,,,,,
null,CORRECT,,html-keyboard-response,316,1280174,0.0-18.0-14.0-0.0,51202,List2B,black,woman,,,,null,,,,
1597,"<img src=""portrait/BW2.jpg""style=""width:400px;height:400px;""></img>",2,html-button-response,317,1281775,0.0-18.0-16.0,51202,List2B,black,woman,,TRUE,2,,,,,
null,CORRECT,,html-keyboard-response,318,1283296,0.0-18.0-17.0-0.0,51202,List2B,black,woman,,,,null,,,,
1299,"<img src=""portrait/WM2.jpg""style=""width:400px;height:400px;""></img>",7,html-button-response,319,1284599,0.0-18.0-19.0,51202,List2B,black,woman,,TRUE,7,,,,,
null,CORRECT,,html-keyboard-response,320,1286123,0.0-18.0-20.0-0.0,51202,List2B,black,woman,,,,null,,,,
1450,"<img src=""portrait/BW1.jpg""style=""width:400px;height:400px;""></img>",0,html-button-response,321,1287575,0.0-18.0-22.0,51202,List2B,black,woman,,TRUE,0,,,,,
null,CORRECT,,html-keyboard-response,322,1289099,0.0-18.0-23.0-0.0,51202,List2B,black,woman,,,,null,,,,
1784,<p>You got 8 out of 8 right first time. Press Continue.</p>,0,html-button-response,323,1290885,0.0-18.0-25.0,51202,List2B,black,woman,,,,,,,,
null,"<div style=""font-size:60px;"">+</div>",,html-keyboard-response,324,1292402,0.0-19.0-0.0,51202,List2B,black,woman,,,,null,,,,
null,"<img src=""stim_listB/shout3.gif""</stim_listB>",,html-keyboard-response,325,1294410,0.0-19.0-1.0,51202,List2B,black,woman,,,,null,,,,
null,is shouting at,,html-keyboard-response,326,1296424,0.0-19.0-2.0,51202,List2B,black,woman,,,,null,,,,
4395,,,survey-text,327,1300820,0.0-19.0-3.0,51202,List2B,black,woman,,,,,"{""Q0"":""beth is shouting at fred""}","<img src=""stim_listB/shout3.gif""</stim_listB>",is shouting at,
null,"<div style=""font-size:60px;"">+</div>",,html-keyboard-response,328,1301325,0.0-19.0-0.1,51202,List2B,black,woman,,,,null,,,,
null,"<img src=""stim_listB/argue5.gif""</stim_listB>",,html-keyboard-response,329,1303328,0.0-19.0-1.1,51202,List2B,black,woman,,,,null,,,,
null,is arguing with,,html-keyboard-response,330,1305340,0.0-19.0-2.1,51202,List2B,black,woman,,,,null,,,,
5296,,,survey-text,331,1310638,0.0-19.0-3.1,51202,List2B,black,woman,,,,,"{""Q0"":""fred is arguing with dave""}","<img src=""stim_listB/argue5.gif""</stim_listB>",is arguing with,
null,"<div style=""font-size:60px;"">+</div>",,html-keyboard-response,332,1311140,0.0-19.0-0.2,51202,List2B,black,woman,,,,null,,,,
null,"<img src=""stim_listB/touch8.gif""</stim_listB>",,html-keyboard-response,333,1313157,0.0-19.0-1.2,51202,List2B,black,woman,,,,null,,,,
null,are touching each other,,html-keyboard-response,334,1315176,0.0-19.0-2.2,51202,List2B,black,woman,,,,null,,,,
6243,,,survey-text,335,1321421,0.0-19.0-3.2,51202,List2B,black,woman,,,,,"{""Q0"":""ruth and kate are touching each other""}","<img src=""stim_listB/touch8.gif""</stim_listB>",are touching each other,
null,"<div style=""font-size:60px;"">+</div>",,html-keyboard-response,336,1321923,0.0-19.0-0.3,51202,List2B,black,woman,,,,null,,,,
null,"<img src=""stim_listB/shout5.gif""</stim_listB>",,html-keyboard-response,337,1323940,0.0-19.0-1.3,51202,List2B,black,woman,,,,null,,,,
null,is shouting at,,html-keyboard-response,338,1325944,0.0-19.0-2.3,51202,List2B,black,woman,,,,null,,,,
5709,,,survey-text,339,1331655,0.0-19.0-3.3,51202,List2B,black,woman,,,,,"{""Q0"":""fred is shouting at luke""}","<img src=""stim_listB/shout5.gif""</stim_listB>",is shouting at,
null,"<div style=""font-size:60px;"">+</div>",,html-keyboard-response,340,1332167,0.0-19.0-0.4,51202,List2B,black,woman,,,,null,,,,
null,"<img src=""stim_listB/argue3.gif""</stim_listB>",,html-keyboard-response,341,1334182,0.0-19.0-1.4,51202,List2B,black,woman,,,,null,,,,
null,is arguing with,,html-keyboard-response,342,1336183,0.0-19.0-2.4,51202,List2B,black,woman,,,,null,,,,
4681,,,survey-text,343,1340866,0.0-19.0-3.4,51202,List2B,black,woman,,,,,"{""Q0"":""beth is arguing with mike""}","<img src=""stim_listB/argue3.gif""</stim_listB>",is arguing with,
null,"<div style=""font-size:60px;"">+</div>",,html-keyboard-response,344,1341372,0.0-19.0-0.5,51202,List2B,black,woman,,,,null,,,,
null,"<img src=""stim_listB/hug7.gif""</stim_listB>",,html-keyboard-response,345,1343379,0.0-19.0-1.5,51202,List2B,black,woman,,,,null,,,,
null,is hugging,,html-keyboard-response,346,1345383,0.0-19.0-2.5,51202,List2B,black,woman,,,,null,,,,
8133,,,survey-text,347,1353517,0.0-19.0-3.5,51202,List2B,black,woman,,,,,"{""Q0"":""beth is hugging ruth""}","<img src=""stim_listB/hug7.gif""</stim_listB>",is hugging,
null,"<div style=""font-size:60px;"">+</div>",,html-keyboard-response,348,1354029,0.0-19.0-0.6,51202,List2B,black,woman,,,,null,,,,
null,"<img src=""stim_listB/dance4.gif""</stim_listB>",,html-keyboard-response,349,1356040,0.0-19.0-1.6,51202,List2B,black,woman,,,,null,,,,
null,are dancing with each other,,html-keyboard-response,350,1358057,0.0-19.0-2.6,51202,List2B,black,woman,,,,null,,,,
6378,,,survey-text,351,1364436,0.0-19.0-3.6,51202,List2B,black,woman,,,,,"{""Q0"":""mike and beth are dancing with each other""}","<img src=""stim_listB/dance4.gif""</stim_listB>",are dancing with each other,
null,"<div style=""font-size:60px;"">+</div>",,html-keyboard-response,352,1364941,0.0-19.0-0.7,51202,List2B,black,woman,,,,null,,,,
null,"<img src=""stim_listB/marry6.gif""</stim_listB>",,html-keyboard-response,353,1366965,0.0-19.0-1.7,51202,List2B,black,woman,,,,null,,,,
null,are marrying each other,,html-keyboard-response,354,1368976,0.0-19.0-2.7,51202,List2B,black,woman,,,,null,,,,
7170,,,survey-text,355,1376148,0.0-19.0-3.7,51202,List2B,black,woman,,,,,"{""Q0"":""luke and mike are marrying each other""}","<img src=""stim_listB/marry6.gif""</stim_listB>",are marrying each other,
null,"<div style=""font-size:60px;"">+</div>",,html-keyboard-response,356,1376660,0.0-19.0-0.8,51202,List2B,black,woman,,,,null,,,,
null,"<img src=""stim_listB/marry2.gif""</stim_listB>",,html-keyboard-response,357,1378672,0.0-19.0-1.8,51202,List2B,black,woman,,,,null,,,,
null,are marrying each other,,html-keyboard-response,358,1380679,0.0-19.0-2.8,51202,List2B,black,woman,,,,null,,,,
7219,,,survey-text,359,1387900,0.0-19.0-3.8,51202,List2B,black,woman,,,,,"{""Q0"":""luke and jane are marrying each other""}","<img src=""stim_listB/marry2.gif""</stim_listB>",are marrying each other,
null,"<div style=""font-size:60px;"">+</div>",,html-keyboard-response,360,1388401,0.0-19.0-0.9,51202,List2B,black,woman,,,,null,,,,
null,"<img src=""stim_listB/kiss3.gif""</stim_listB>",,html-keyboard-response,361,1390418,0.0-19.0-1.9,51202,List2B,black,woman,,,,null,,,,
null,is kissing,,html-keyboard-response,362,1392437,0.0-19.0-2.9,51202,List2B,black,woman,,,,null,,,,
6864,,,survey-text,363,1399303,0.0-19.0-3.9,51202,List2B,black,woman,,,,,"{""Q0"":""beth is kissing fred""}","<img src=""stim_listB/kiss3.gif""</stim_listB>",is kissing,
null,"<div style=""font-size:60px;"">+</div>",,html-keyboard-response,364,1399810,0.0-19.0-0.10,51202,List2B,black,woman,,,,null,,,,
null,"<img src=""stim_listB/marry4.gif""</stim_listB>",,html-keyboard-response,365,1401825,0.0-19.0-1.10,51202,List2B,black,woman,,,,null,,,,
null,are marrying each other,,html-keyboard-response,366,1403843,0.0-19.0-2.10,51202,List2B,black,woman,,,,null,,,,
6746,,,survey-text,367,1410591,0.0-19.0-3.10,51202,List2B,black,woman,,,,,"{""Q0"":""kate and fred are marrying each other""}","<img src=""stim_listB/marry4.gif""</stim_listB>",are marrying each other,
null,"<div style=""font-size:60px;"">+</div>",,html-keyboard-response,368,1411095,0.0-19.0-0.11,51202,List2B,black,woman,,,,null,,,,
null,"<img src=""stim_listB/argue7.gif""</stim_listB>",,html-keyboard-response,369,1413097,0.0-19.0-1.11,51202,List2B,black,woman,,,,null,,,,
null,is arguing with,,html-keyboard-response,370,1415118,0.0-19.0-2.11,51202,List2B,black,woman,,,,null,,,,
6074,,,survey-text,371,1421194,0.0-19.0-3.11,51202,List2B,black,woman,,,,,"{""Q0"":""beth is arguing with jane""}","<img src=""stim_listB/argue7.gif""</stim_listB>",is arguing with,
null,"<div style=""font-size:60px;"">+</div>",,html-keyboard-response,372,1421700,0.0-19.0-0.12,51202,List2B,black,woman,,,,null,,,,
null,"<img src=""stim_listB/meet7.gif""</stim_listB>",,html-keyboard-response,373,1423709,0.0-19.0-1.12,51202,List2B,black,woman,,,,null,,,,
null,is meeting,,html-keyboard-response,374,1425722,0.0-19.0-2.12,51202,List2B,black,woman,,,,null,,,,
5879,,,survey-text,375,1431602,0.0-19.0-3.12,51202,List2B,black,woman,,,,,"{""Q0"":""kate is meeting jane""}","<img src=""stim_listB/meet7.gif""</stim_listB>",is meeting,
null,"<div style=""font-size:60px;"">+</div>",,html-keyboard-response,376,1432107,0.0-19.0-0.13,51202,List2B,black,woman,,,,null,,,,
null,"<img src=""stim_listB/dance8.gif""</stim_listB>",,html-keyboard-response,377,1434118,0.0-19.0-1.13,51202,List2B,black,woman,,,,null,,,,
null,are dancing with each other,,html-keyboard-response,378,1436120,0.0-19.0-2.13,51202,List2B,black,woman,,,,null,,,,
7920,,,survey-text,379,1444043,0.0-19.0-3.13,51202,List2B,black,woman,,,,,"{""Q0"":""jane and beth are dancing with each other""}","<img src=""stim_listB/dance8.gif""</stim_listB>",are dancing with each other,
null,"<div style=""font-size:60px;"">+</div>",,html-keyboard-response,380,1444545,0.0-19.0-0.14,51202,List2B,black,woman,,,,null,,,,
null,"<img src=""stim_listB/meet8.gif""</stim_listB>",,html-keyboard-response,381,1446564,0.0-19.0-1.14,51202,List2B,black,woman,,,,null,,,,
null,are meeting each other,,html-keyboard-response,382,1448573,0.0-19.0-2.14,51202,List2B,black,woman,,,,null,,,,
5814,,,survey-text,383,1454389,0.0-19.0-3.14,51202,List2B,black,woman,,,,,"{""Q0"":""ruth and beth are meeting each other""}","<img src=""stim_listB/meet8.gif""</stim_listB>",are meeting each other,
null,"<div style=""font-size:60px;"">+</div>",,html-keyboard-response,384,1454902,0.0-19.0-0.15,51202,List2B,black,woman,,,,null,,,,
null,"<img src=""stim_listB/marry7.gif""</stim_listB>",,html-keyboard-response,385,1456916,0.0-19.0-1.15,51202,List2B,black,woman,,,,null,,,,
null,is marrying,,html-keyboard-response,386,1458923,0.0-19.0-2.15,51202,List2B,black,woman,,,,null,,,,
5275,,,survey-text,387,1464200,0.0-19.0-3.15,51202,List2B,black,woman,,,,,"{""Q0"":""beth is marrying jane""}","<img src=""stim_listB/marry7.gif""</stim_listB>",is marrying,
null,"<div style=""font-size:60px;"">+</div>",,html-keyboard-response,388,1464712,0.0-19.0-0.16,51202,List2B,black,woman,,,,null,,,,
null,"<img src=""stim_listB/kiss5.gif""</stim_listB>",,html-keyboard-response,389,1466724,0.0-19.0-1.16,51202,List2B,black,woman,,,,null,,,,
null,is kissing,,html-keyboard-response,390,1468731,0.0-19.0-2.16,51202,List2B,black,woman,,,,null,,,,
4811,,,survey-text,391,1473544,0.0-19.0-3.16,51202,List2B,black,woman,,,,,"{""Q0"":""fred is kissing luke""}","<img src=""stim_listB/kiss5.gif""</stim_listB>",is kissing,
null,"<div style=""font-size:60px;"">+</div>",,html-keyboard-response,392,1474050,0.0-19.0-0.17,51202,List2B,black,woman,,,,null,,,,
null,"<img src=""stim_listB/kiss1.gif""</stim_listB>",,html-keyboard-response,393,1476058,0.0-19.0-1.17,51202,List2B,black,woman,,,,null,,,,
null,is kissing,,html-keyboard-response,394,1478063,0.0-19.0-2.17,51202,List2B,black,woman,,,,null,,,,
4267,,,survey-text,395,1482331,0.0-19.0-3.17,51202,List2B,black,woman,,,,,"{""Q0"":""ruth is kissing luke""}","<img src=""stim_listB/kiss1.gif""</stim_listB>",is kissing,
null,"<div style=""font-size:60px;"">+</div>",,html-keyboard-response,396,1482838,0.0-19.0-0.18,51202,List2B,black,woman,,,,null,,,,
null,"<img src=""stim_listB/talk3.gif""</stim_listB>",,html-keyboard-response,397,1484847,0.0-19.0-1.18,51202,List2B,black,woman,,,,null,,,,
null,is talking to,,html-keyboard-response,398,1486857,0.0-19.0-2.18,51202,List2B,black,woman,,,,null,,,,
4562,,,survey-text,399,1491421,0.0-19.0-3.18,51202,List2B,black,woman,,,,,"{""Q0"":""kate is talking to fred""}","<img src=""stim_listB/talk3.gif""</stim_listB>",is talking to,
null,"<div style=""font-size:60px;"">+</div>",,html-keyboard-response,400,1491930,0.0-19.0-0.19,51202,List2B,black,woman,,,,null,,,,
null,"<img src=""stim_listB/fight1.gif""</stim_listB>",,html-keyboard-response,401,1493939,0.0-19.0-1.19,51202,List2B,black,woman,,,,null,,,,
null,is fighting,,html-keyboard-response,402,1495959,0.0-19.0-2.19,51202,List2B,black,woman,,,,null,,,,
7570,,,survey-text,403,1503533,0.0-19.0-3.19,51202,List2B,black,woman,,,,,"{""Q0"":""jane is fighting dave""}","<img src=""stim_listB/fight1.gif""</stim_listB>",is fighting,
2500,<p>Thank you for completing that task.</p><p>The final part of this session is a short questionnaire.</p><p>Press Continue.</p>,0,html-button-response,404,1506034,0.0-20.0,51202,List2B,black,woman,,,,,,,,
14917,,,survey-text,405,1521960,0.0-21.0,51202,List2B,black,woman,,,,,"{""Q0"":""34"",""Q1"":""English"",""Q2"":""English"",""Q3"":""USA"",""Q4"":""Black"",""Q5"":""female""}",,,demographics
41722,,,survey-likert,406,1563689,0.0-22.0,51202,List2B,black,woman,,,,,"{""Q0"":5,""Q1"":5,""Q2"":5,""Q3"":5,""Q4"":5,""Q5"":5,""Q6"":5,""Q7"":4,""Q8"":4,""Q9"":4,""Q10"":3,""Q11"":3,""Q12"":4,""Q13"":3}",,,likert_race
36909,,,survey-likert,407,1600605,0.0-23.0,51202,List2B,black,woman,,,,,"{""Q0"":3,""Q1"":3,""Q2"":3,""Q3"":3,""Q4"":3,""Q5"":2,""Q6"":3,""Q7"":4,""Q8"":4,""Q9"":4,""Q10"":3,""Q11"":3,""Q12"":3,""Q13"":2}",,,likert_gender
11323,,,survey-text,408,1611931,0.0-24.0,51202,List2B,black,woman,,,,,"{""Q0"":""ccc""}",,,worker_id
24440,,,external-html,409,1636600,0.0-25.0,51202,List2B,black,woman,debrief.html,,,,,,,
