rt,stimulus,button_pressed,trial_type,trial_index,time_elapsed,internal_node_id,subject,list,ppt_race,ppt_gender,url,first_guess,correct,key_press,responses,image_type,phrase_type,test_part
2220,Welcome to the experiment. Press Continue to begin.,0,html-button-response,0,2223,0.0-0.0,51752,List1B,white,woman,,,,,,,,
30200,,,external-html,1,33450,0.0-1.0,51752,List1B,white,woman,consent.html,,,,,,,
11038,"<p>On the next page, you will see portraits of 8 people and their names.</p><p>Your first task is to take a few minutes to memorise the names of these people.</p><p>You will have to recall their names during the rest of the experiment, so it is</p><p>essential that you try to memorise these people and their names as best as you can.</p><br><p><strong>You will then be tested on your memory of these names and portraits.</strong></p><br><p>The experiment will start after you have completed this memory test.</p><br><p>Ready?</p>",0,html-button-response,2,44490,0.0-2.0,51752,List1B,white,woman,,,,,,,,
59425,"<img src='img/portrait_matrix_list1.JPG' style='width:900px;height:500px;''></img><p>If you have memorised all the portraits and names and are ready to start, press Continue.</p><p><strong>Please note: Your memory of these faces will be tested 4 times during this experiment.</strong></p>",0,html-button-response,3,104917,0.0-3.0-0.0,51752,List1B,white,woman,,,,,,,,
3045,"<img src=""portrait/BM2.jpg""style=""width:400px;height:400px;""></img>",5,html-button-response,4,108965,0.0-3.0-1.0,51752,List1B,white,woman,,TRUE,5,,,,,
null,CORRECT,,html-keyboard-response,5,110468,0.0-3.0-2.0-0.0,51752,List1B,white,woman,,,,null,,,,
13048,"<img src=""portrait/BW1.jpg""style=""width:400px;height:400px;""></img>",0,html-button-response,6,123517,0.0-3.0-4.0,51752,List1B,white,woman,,TRUE,0,,,,,
null,CORRECT,,html-keyboard-response,7,125020,0.0-3.0-5.0-0.0,51752,List1B,white,woman,,,,null,,,,
383,"<img src=""portrait/WM1.jpg""style=""width:400px;height:400px;""></img>",0,html-button-response,8,125405,0.0-3.0-7.0,51752,List1B,white,woman,,TRUE,6,,,,,
3342,"<img src=""portrait/WM1.jpg""style=""width:400px;height:400px;""></img>",6,html-button-response,9,129749,0.0-3.0-9.0-0.0,51752,List1B,white,woman,,FALSE,6,,,,,
null,CORRECT,,html-keyboard-response,10,131251,0.0-3.0-9.0-1.0-0.0,51752,List1B,white,woman,,,,null,,,,
2081,"<img src=""portrait/BM1.jpg""style=""width:400px;height:400px;""></img>",4,html-button-response,11,133333,0.0-3.0-10.0,51752,List1B,white,woman,,TRUE,4,,,,,
null,CORRECT,,html-keyboard-response,12,134835,0.0-3.0-11.0-0.0,51752,List1B,white,woman,,,,null,,,,
2121,"<img src=""portrait/WW1.jpg""style=""width:400px;height:400px;""></img>",1,html-button-response,13,136957,0.0-3.0-13.0,51752,List1B,white,woman,,TRUE,1,,,,,
null,CORRECT,,html-keyboard-response,14,138459,0.0-3.0-14.0-0.0,51752,List1B,white,woman,,,,null,,,,
1793,"<img src=""portrait/WW2.jpg""style=""width:400px;height:400px;""></img>",3,html-button-response,15,140253,0.0-3.0-16.0,51752,List1B,white,woman,,TRUE,3,,,,,
null,CORRECT,,html-keyboard-response,16,141755,0.0-3.0-17.0-0.0,51752,List1B,white,woman,,,,null,,,,
2049,"<img src=""portrait/WM2.jpg""style=""width:400px;height:400px;""></img>",7,html-button-response,17,143805,0.0-3.0-19.0,51752,List1B,white,woman,,TRUE,7,,,,,
null,CORRECT,,html-keyboard-response,18,145306,0.0-3.0-20.0-0.0,51752,List1B,white,woman,,,,null,,,,
2817,"<img src=""portrait/BW2.jpg""style=""width:400px;height:400px;""></img>",2,html-button-response,19,148124,0.0-3.0-22.0,51752,List1B,white,woman,,TRUE,2,,,,,
null,CORRECT,,html-keyboard-response,20,149626,0.0-3.0-23.0-0.0,51752,List1B,white,woman,,,,null,,,,
1553,<p>You got 7 out of 8 right first time. Press Continue.</p>,0,html-button-response,21,151180,0.0-3.0-25.0,51752,List1B,white,woman,,,,,,,,
4230,"As you did not score 100%, the memory game will repeat. Press Continue.",0,html-button-response,22,156412,0.0-3.0-26.0-0.0,51752,List1B,white,woman,,,,,,,,
1949,"<img src='img/portrait_matrix_list1.JPG' style='width:900px;height:500px;''></img><p>If you have memorised all the portraits and names and are ready to start, press Continue.</p><p><strong>Please note: Your memory of these faces will be tested 4 times during this experiment.</strong></p>",0,html-button-response,23,159364,0.0-3.1-0.1,51752,List1B,white,woman,,,,,,,,
2711,"<img src=""portrait/BM2.jpg""style=""width:400px;height:400px;""></img>",5,html-button-response,24,163076,0.0-3.1-1.1,51752,List1B,white,woman,,TRUE,5,,,,,
null,CORRECT,,html-keyboard-response,25,164578,0.0-3.1-2.1-0.1,51752,List1B,white,woman,,,,null,,,,
2301,"<img src=""portrait/BW1.jpg""style=""width:400px;height:400px;""></img>",0,html-button-response,26,166880,0.0-3.1-4.1,51752,List1B,white,woman,,TRUE,0,,,,,
null,CORRECT,,html-keyboard-response,27,168382,0.0-3.1-5.1-0.1,51752,List1B,white,woman,,,,null,,,,
2969,"<img src=""portrait/WM1.jpg""style=""width:400px;height:400px;""></img>",6,html-button-response,28,171352,0.0-3.1-7.1,51752,List1B,white,woman,,TRUE,6,,,,,
null,CORRECT,,html-keyboard-response,29,172854,0.0-3.1-8.1-0.1,51752,List1B,white,woman,,,,null,,,,
1729,"<img src=""portrait/BM1.jpg""style=""width:400px;height:400px;""></img>",4,html-button-response,30,174584,0.0-3.1-10.1,51752,List1B,white,woman,,TRUE,4,,,,,
null,CORRECT,,html-keyboard-response,31,176085,0.0-3.1-11.1-0.1,51752,List1B,white,woman,,,,null,,,,
2785,"<img src=""portrait/WW1.jpg""style=""width:400px;height:400px;""></img>",1,html-button-response,32,178872,0.0-3.1-13.1,51752,List1B,white,woman,,TRUE,1,,,,,
null,CORRECT,,html-keyboard-response,33,180374,0.0-3.1-14.1-0.1,51752,List1B,white,woman,,,,null,,,,
1664,"<img src=""portrait/WW2.jpg""style=""width:400px;height:400px;""></img>",3,html-button-response,34,182040,0.0-3.1-16.1,51752,List1B,white,woman,,TRUE,3,,,,,
null,CORRECT,,html-keyboard-response,35,183541,0.0-3.1-17.1-0.1,51752,List1B,white,woman,,,,null,,,,
1545,"<img src=""portrait/WM2.jpg""style=""width:400px;height:400px;""></img>",7,html-button-response,36,185088,0.0-3.1-19.1,51752,List1B,white,woman,,TRUE,7,,,,,
null,CORRECT,,html-keyboard-response,37,186589,0.0-3.1-20.1-0.1,51752,List1B,white,woman,,,,null,,,,
2025,"<img src=""portrait/BW2.jpg""style=""width:400px;height:400px;""></img>",2,html-button-response,38,188616,0.0-3.1-22.1,51752,List1B,white,woman,,TRUE,2,,,,,
null,CORRECT,,html-keyboard-response,39,190118,0.0-3.1-23.1-0.1,51752,List1B,white,woman,,,,null,,,,
1593,<p>You got 8 out of 8 right first time. Press Continue.</p>,0,html-button-response,40,191712,0.0-3.1-25.1,51752,List1B,white,woman,,,,,,,,
35569,"<p>In this experiment, you will view photographs of the people from the memory game interacting.</p><p>By using the <strong>exact</strong> phrase given <i>after</i> the photograph appears and recalling the correct names of the people in the photographs, form a sentence describing the interaction. You do not need to capitalise names.</p><p>Type your answer in the space provided. Please complete every sentence before moving onto the next trial.</p><p>You will only have a few seconds to memorise each given photograph and phrase before you can respond, so try your best to focus.</p><p>An example is given below. Press 'Continue' when you are ready.</p><img src='img/speaking_example_v2.jpg' style='width:800px;height:460px;''></img>",0,html-button-response,41,228282,0.0-4.0,51752,List1B,white,woman,,,,,,,,
2998,"<p>Before the experiment starts, you will watch two example trials. Press 'Continue'.</p>",0,html-button-response,42,232282,0.0-5.0,51752,List1B,white,woman,,,,,,,,
null,<img src='img/speaking_WW.gif'></img>,,html-keyboard-response,43,235284,0.0-6.0,51752,List1B,white,woman,,,,null,,,,
null,<p>is speaking to</p>,,html-keyboard-response,44,237285,0.0-7.0,51752,List1B,white,woman,,,,null,,,,
3869,<p><b>Answer:</b> kate is speaking to beth</p>,0,html-button-response,45,241154,0.0-8.0,51752,List1B,white,woman,,,,,,,,
null,<img src='img/pointing_BM.gif'></img>,,html-keyboard-response,46,244156,0.0-9.0,51752,List1B,white,woman,,,,null,,,,
null,<p>are pointing at each other</p>,,html-keyboard-response,47,246157,0.0-10.0,51752,List1B,white,woman,,,,null,,,,
1867,<p><b>Answer:</b> luke and dave are pointing at each other</p>,0,html-button-response,48,248026,0.0-11.0,51752,List1B,white,woman,,,,,,,,
4742,"<p>Ready to start the experiment?</p><br><p><strong>Remember to describe the picture using a full sentence,</strong></p><p><strong>that combines the names of the people with the given phrase.</strong></p><p><strong>If you do not do this correctly you will not be paid.</strong></p><p><strong> You do not need to capitalise names or use punctuation.</strong></p><br><p>Press 'Continue' to begin.</p>",0,html-button-response,49,253770,0.0-12.0,51752,List1B,white,woman,,,,,,,,
null,"<div style=""font-size:60px;"">+</div>",,html-keyboard-response,50,255272,0.0-13.0-0.0,51752,List1B,white,woman,,,,null,,,,
null,"<img src=""stim_listB/fight4.gif""</stim_listB>",,html-keyboard-response,51,257274,0.0-13.0-1.0,51752,List1B,white,woman,,,,null,,,,
null,are fighting each other,,html-keyboard-response,52,259275,0.0-13.0-2.0,51752,List1B,white,woman,,,,null,,,,
10453,,,survey-text,53,269730,0.0-13.0-3.0,51752,List1B,white,woman,,,,,"{""Q0"":""Ruth and Luke are fighting each other""}","<img src=""stim_listB/fight4.gif""</stim_listB>",are fighting each other,
null,"<div style=""font-size:60px;"">+</div>",,html-keyboard-response,54,270231,0.0-13.0-0.1,51752,List1B,white,woman,,,,null,,,,
null,"<img src=""stim_listB/dance3.gif""</stim_listB>",,html-keyboard-response,55,272233,0.0-13.0-1.1,51752,List1B,white,woman,,,,null,,,,
null,is dancing with,,html-keyboard-response,56,274233,0.0-13.0-2.1,51752,List1B,white,woman,,,,null,,,,
9167,,,survey-text,57,283402,0.0-13.0-3.1,51752,List1B,white,woman,,,,,"{""Q0"":""luke is dancing with jane""}","<img src=""stim_listB/dance3.gif""</stim_listB>",is dancing with,
null,"<div style=""font-size:60px;"">+</div>",,html-keyboard-response,58,283903,0.0-13.0-0.2,51752,List1B,white,woman,,,,null,,,,
null,"<img src=""stim_listB/meet4.gif""</stim_listB>",,html-keyboard-response,59,285905,0.0-13.0-1.2,51752,List1B,white,woman,,,,null,,,,
null,are meeting each other,,html-keyboard-response,60,287906,0.0-13.0-2.2,51752,List1B,white,woman,,,,null,,,,
10601,,,survey-text,61,298509,0.0-13.0-3.2,51752,List1B,white,woman,,,,,"{""Q0"":""ruth and luke are meeting each other""}","<img src=""stim_listB/meet4.gif""</stim_listB>",are meeting each other,
null,"<div style=""font-size:60px;"">+</div>",,html-keyboard-response,62,299010,0.0-13.0-0.3,51752,List1B,white,woman,,,,null,,,,
null,"<img src=""stim_listB/kiss1.gif""</stim_listB>",,html-keyboard-response,63,301011,0.0-13.0-1.3,51752,List1B,white,woman,,,,null,,,,
null,is kissing,,html-keyboard-response,64,303012,0.0-13.0-2.3,51752,List1B,white,woman,,,,null,,,,
7479,,,survey-text,65,310493,0.0-13.0-3.3,51752,List1B,white,woman,,,,,"{""Q0"":""beth is kissing fred""}","<img src=""stim_listB/kiss1.gif""</stim_listB>",is kissing,
null,"<div style=""font-size:60px;"">+</div>",,html-keyboard-response,66,310994,0.0-13.0-0.4,51752,List1B,white,woman,,,,null,,,,
null,"<img src=""stim_listB/shout7.gif""</stim_listB>",,html-keyboard-response,67,312995,0.0-13.0-1.4,51752,List1B,white,woman,,,,null,,,,
null,is shouting at,,html-keyboard-response,68,314996,0.0-13.0-2.4,51752,List1B,white,woman,,,,null,,,,
6560,,,survey-text,69,321557,0.0-13.0-3.4,51752,List1B,white,woman,,,,,"{""Q0"":""beth is shouting at ruth""}","<img src=""stim_listB/shout7.gif""</stim_listB>",is shouting at,
null,"<div style=""font-size:60px;"">+</div>",,html-keyboard-response,70,322058,0.0-13.0-0.5,51752,List1B,white,woman,,,,null,,,,
null,"<img src=""stim_listB/dance2.gif""</stim_listB>",,html-keyboard-response,71,324059,0.0-13.0-1.5,51752,List1B,white,woman,,,,null,,,,
null,are dancing with each other,,html-keyboard-response,72,326060,0.0-13.0-2.5,51752,List1B,white,woman,,,,null,,,,
9799,,,survey-text,73,335860,0.0-13.0-3.5,51752,List1B,white,woman,,,,,"{""Q0"":""beth and mike are dancing with each other""}","<img src=""stim_listB/dance2.gif""</stim_listB>",are dancing with each other,
null,"<div style=""font-size:60px;"">+</div>",,html-keyboard-response,74,336362,0.0-13.0-0.6,51752,List1B,white,woman,,,,null,,,,
null,"<img src=""stim_listB/fight6.gif""</stim_listB>",,html-keyboard-response,75,338363,0.0-13.0-1.6,51752,List1B,white,woman,,,,null,,,,
null,are fighting each other,,html-keyboard-response,76,340364,0.0-13.0-2.6,51752,List1B,white,woman,,,,null,,,,
9187,,,survey-text,77,349551,0.0-13.0-3.6,51752,List1B,white,woman,,,,,"{""Q0"":""luke and fred are fighting each other""}","<img src=""stim_listB/fight6.gif""</stim_listB>",are fighting each other,
null,"<div style=""font-size:60px;"">+</div>",,html-keyboard-response,78,350052,0.0-13.0-0.7,51752,List1B,white,woman,,,,null,,,,
null,"<img src=""stim_listB/dance8.gif""</stim_listB>",,html-keyboard-response,79,352053,0.0-13.0-1.7,51752,List1B,white,woman,,,,null,,,,
null,are dancing with each other,,html-keyboard-response,80,354055,0.0-13.0-2.7,51752,List1B,white,woman,,,,null,,,,
8264,,,survey-text,81,362319,0.0-13.0-3.7,51752,List1B,white,woman,,,,,"{""Q0"":""kate and ruth are fighting each other""}","<img src=""stim_listB/dance8.gif""</stim_listB>",are dancing with each other,
null,"<div style=""font-size:60px;"">+</div>",,html-keyboard-response,82,362820,0.0-13.0-0.8,51752,List1B,white,woman,,,,null,,,,
null,"<img src=""stim_listB/shout4.gif""</stim_listB>",,html-keyboard-response,83,364821,0.0-13.0-1.8,51752,List1B,white,woman,,,,null,,,,
null,are shouting at each other,,html-keyboard-response,84,366822,0.0-13.0-2.8,51752,List1B,white,woman,,,,null,,,,
9280,,,survey-text,85,376103,0.0-13.0-3.8,51752,List1B,white,woman,,,,,"{""Q0"":""jane and dave are shouting at each other""}","<img src=""stim_listB/shout4.gif""</stim_listB>",are shouting at each other,
null,"<div style=""font-size:60px;"">+</div>",,html-keyboard-response,86,376604,0.0-13.0-0.9,51752,List1B,white,woman,,,,null,,,,
null,"<img src=""stim_listB/marry5.gif""</stim_listB>",,html-keyboard-response,87,378605,0.0-13.0-1.9,51752,List1B,white,woman,,,,null,,,,
null,is marrying,,html-keyboard-response,88,380606,0.0-13.0-2.9,51752,List1B,white,woman,,,,null,,,,
6128,,,survey-text,89,386735,0.0-13.0-3.9,51752,List1B,white,woman,,,,,"{""Q0"":""mike is marrying luke""}","<img src=""stim_listB/marry5.gif""</stim_listB>",is marrying,
null,"<div style=""font-size:60px;"">+</div>",,html-keyboard-response,90,387236,0.0-13.0-0.10,51752,List1B,white,woman,,,,null,,,,
null,"<img src=""stim_listB/marry1.gif""</stim_listB>",,html-keyboard-response,91,389237,0.0-13.0-1.10,51752,List1B,white,woman,,,,null,,,,
null,is marrying,,html-keyboard-response,92,391238,0.0-13.0-2.10,51752,List1B,white,woman,,,,null,,,,
7784,,,survey-text,93,399022,0.0-13.0-3.10,51752,List1B,white,woman,,,,,"{""Q0"":""beth is marrying mike""}","<img src=""stim_listB/marry1.gif""</stim_listB>",is marrying,
null,"<div style=""font-size:60px;"">+</div>",,html-keyboard-response,94,399524,0.0-13.0-0.11,51752,List1B,white,woman,,,,null,,,,
null,"<img src=""stim_listB/meet6.gif""</stim_listB>",,html-keyboard-response,95,401525,0.0-13.0-1.11,51752,List1B,white,woman,,,,null,,,,
null,are meeting each other,,html-keyboard-response,96,403526,0.0-13.0-2.11,51752,List1B,white,woman,,,,null,,,,
8716,,,survey-text,97,412242,0.0-13.0-3.11,51752,List1B,white,woman,,,,,"{""Q0"":""fred and luke are meeting each other""}","<img src=""stim_listB/meet6.gif""</stim_listB>",are meeting each other,
null,"<div style=""font-size:60px;"">+</div>",,html-keyboard-response,98,412743,0.0-13.0-0.12,51752,List1B,white,woman,,,,null,,,,
null,"<img src=""stim_listB/kiss4.gif""</stim_listB>",,html-keyboard-response,99,414744,0.0-13.0-1.12,51752,List1B,white,woman,,,,null,,,,
null,are kissing each other,,html-keyboard-response,100,416746,0.0-13.0-2.12,51752,List1B,white,woman,,,,null,,,,
8839,,,survey-text,101,425586,0.0-13.0-3.12,51752,List1B,white,woman,,,,,"{""Q0"":""dave and jane are kissing each other""}","<img src=""stim_listB/kiss4.gif""</stim_listB>",are kissing each other,
null,"<div style=""font-size:60px;"">+</div>",,html-keyboard-response,102,426086,0.0-13.0-0.13,51752,List1B,white,woman,,,,null,,,,
null,"<img src=""stim_listB/meet5.gif""</stim_listB>",,html-keyboard-response,103,428088,0.0-13.0-1.13,51752,List1B,white,woman,,,,null,,,,
null,is meeting,,html-keyboard-response,104,430089,0.0-13.0-2.13,51752,List1B,white,woman,,,,null,,,,
5904,,,survey-text,105,435994,0.0-13.0-3.13,51752,List1B,white,woman,,,,,"{""Q0"":""dave is meeting mike""}","<img src=""stim_listB/meet5.gif""</stim_listB>",is meeting,
null,"<div style=""font-size:60px;"">+</div>",,html-keyboard-response,106,436495,0.0-13.0-0.14,51752,List1B,white,woman,,,,null,,,,
null,"<img src=""stim_listB/argue2.gif""</stim_listB>",,html-keyboard-response,107,438496,0.0-13.0-1.14,51752,List1B,white,woman,,,,null,,,,
null,are arguing with each other,,html-keyboard-response,108,440497,0.0-13.0-2.14,51752,List1B,white,woman,,,,null,,,,
10400,,,survey-text,109,450898,0.0-13.0-3.14,51752,List1B,white,woman,,,,,"{""Q0"":""fred and kate are arguing with each other""}","<img src=""stim_listB/argue2.gif""</stim_listB>",are arguing with each other,
null,"<div style=""font-size:60px;"">+</div>",,html-keyboard-response,110,451399,0.0-13.0-0.15,51752,List1B,white,woman,,,,null,,,,
null,"<img src=""stim_listB/hug7.gif""</stim_listB>",,html-keyboard-response,111,453400,0.0-13.0-1.15,51752,List1B,white,woman,,,,null,,,,
null,is hugging,,html-keyboard-response,112,455401,0.0-13.0-2.15,51752,List1B,white,woman,,,,null,,,,
7192,,,survey-text,113,462594,0.0-13.0-3.15,51752,List1B,white,woman,,,,,"{""Q0"":""beth is hugging ruth""}","<img src=""stim_listB/hug7.gif""</stim_listB>",is hugging,
null,"<div style=""font-size:60px;"">+</div>",,html-keyboard-response,114,463095,0.0-13.0-0.16,51752,List1B,white,woman,,,,null,,,,
null,"<img src=""stim_listB/hug4.gif""</stim_listB>",,html-keyboard-response,115,465096,0.0-13.0-1.16,51752,List1B,white,woman,,,,null,,,,
null,are hugging each other,,html-keyboard-response,116,467098,0.0-13.0-2.16,51752,List1B,white,woman,,,,null,,,,
10699,,,survey-text,117,477797,0.0-13.0-3.16,51752,List1B,white,woman,,,,,"{""Q0"":""jane and dave are hugging each other""}","<img src=""stim_listB/hug4.gif""</stim_listB>",are hugging each other,
null,"<div style=""font-size:60px;"">+</div>",,html-keyboard-response,118,478298,0.0-13.0-0.17,51752,List1B,white,woman,,,,null,,,,
null,"<img src=""stim_listB/dance5.gif""</stim_listB>",,html-keyboard-response,119,480300,0.0-13.0-1.17,51752,List1B,white,woman,,,,null,,,,
null,is dancing with,,html-keyboard-response,120,482301,0.0-13.0-2.17,51752,List1B,white,woman,,,,null,,,,
7975,,,survey-text,121,490277,0.0-13.0-3.17,51752,List1B,white,woman,,,,,"{""Q0"":""fred is dancing with dave""}","<img src=""stim_listB/dance5.gif""</stim_listB>",is dancing with,
null,"<div style=""font-size:60px;"">+</div>",,html-keyboard-response,122,490778,0.0-13.0-0.18,51752,List1B,white,woman,,,,null,,,,
null,"<img src=""stim_listB/shout8.gif""</stim_listB>",,html-keyboard-response,123,492779,0.0-13.0-1.18,51752,List1B,white,woman,,,,null,,,,
null,are shouting at each other,,html-keyboard-response,124,494780,0.0-13.0-2.18,51752,List1B,white,woman,,,,null,,,,
9575,,,survey-text,125,504357,0.0-13.0-3.18,51752,List1B,white,woman,,,,,"{""Q0"":""jane and kate are shouting at each other""}","<img src=""stim_listB/shout8.gif""</stim_listB>",are shouting at each other,
null,"<div style=""font-size:60px;"">+</div>",,html-keyboard-response,126,504858,0.0-13.0-0.19,51752,List1B,white,woman,,,,null,,,,
null,"<img src=""stim_listB/marry4.gif""</stim_listB>",,html-keyboard-response,127,506859,0.0-13.0-1.19,51752,List1B,white,woman,,,,null,,,,
null,are marrying each other,,html-keyboard-response,128,508860,0.0-13.0-2.19,51752,List1B,white,woman,,,,null,,,,
7800,,,survey-text,129,516661,0.0-13.0-3.19,51752,List1B,white,woman,,,,,"{""Q0"":""jane and luke are marrying each other""}","<img src=""stim_listB/marry4.gif""</stim_listB>",are marrying each other,
5143,"<img src='img/portrait_matrix_list1.JPG' style='width:900px;height:500px;''></img><p>If you have memorised all the portraits and names and are ready to start, press Continue.</p><p><strong>Please note: Your memory of these faces will be tested 4 times during this experiment.</strong></p>",0,html-button-response,130,521804,0.0-14.0-0.0,51752,List1B,white,woman,,,,,,,,
2406,"<img src=""portrait/WM2.jpg""style=""width:400px;height:400px;""></img>",7,html-button-response,131,525213,0.0-14.0-1.0,51752,List1B,white,woman,,TRUE,7,,,,,
null,CORRECT,,html-keyboard-response,132,526715,0.0-14.0-2.0-0.0,51752,List1B,white,woman,,,,null,,,,
2265,"<img src=""portrait/BW1.jpg""style=""width:400px;height:400px;""></img>",0,html-button-response,133,528981,0.0-14.0-4.0,51752,List1B,white,woman,,TRUE,0,,,,,
null,CORRECT,,html-keyboard-response,134,530486,0.0-14.0-5.0-0.0,51752,List1B,white,woman,,,,null,,,,
1833,"<img src=""portrait/BM1.jpg""style=""width:400px;height:400px;""></img>",4,html-button-response,135,532319,0.0-14.0-7.0,51752,List1B,white,woman,,TRUE,4,,,,,
null,CORRECT,,html-keyboard-response,136,533822,0.0-14.0-8.0-0.0,51752,List1B,white,woman,,,,null,,,,
1465,"<img src=""portrait/BW2.jpg""style=""width:400px;height:400px;""></img>",2,html-button-response,137,535287,0.0-14.0-10.0,51752,List1B,white,woman,,TRUE,2,,,,,
null,CORRECT,,html-keyboard-response,138,536789,0.0-14.0-11.0-0.0,51752,List1B,white,woman,,,,null,,,,
1690,"<img src=""portrait/WM1.jpg""style=""width:400px;height:400px;""></img>",6,html-button-response,139,538479,0.0-14.0-13.0,51752,List1B,white,woman,,TRUE,6,,,,,
null,CORRECT,,html-keyboard-response,140,539981,0.0-14.0-14.0-0.0,51752,List1B,white,woman,,,,null,,,,
2282,"<img src=""portrait/BM2.jpg""style=""width:400px;height:400px;""></img>",5,html-button-response,141,542263,0.0-14.0-16.0,51752,List1B,white,woman,,TRUE,5,,,,,
null,CORRECT,,html-keyboard-response,142,543765,0.0-14.0-17.0-0.0,51752,List1B,white,woman,,,,null,,,,
1889,"<img src=""portrait/WW2.jpg""style=""width:400px;height:400px;""></img>",3,html-button-response,143,545655,0.0-14.0-19.0,51752,List1B,white,woman,,TRUE,3,,,,,
null,CORRECT,,html-keyboard-response,144,547158,0.0-14.0-20.0-0.0,51752,List1B,white,woman,,,,null,,,,
2841,"<img src=""portrait/WW1.jpg""style=""width:400px;height:400px;""></img>",1,html-button-response,145,549999,0.0-14.0-22.0,51752,List1B,white,woman,,TRUE,1,,,,,
null,CORRECT,,html-keyboard-response,146,551501,0.0-14.0-23.0-0.0,51752,List1B,white,woman,,,,null,,,,
1666,<p>You got 8 out of 8 right first time. Press Continue.</p>,0,html-button-response,147,553167,0.0-14.0-25.0,51752,List1B,white,woman,,,,,,,,
null,"<div style=""font-size:60px;"">+</div>",,html-keyboard-response,148,554669,0.0-15.0-0.0,51752,List1B,white,woman,,,,null,,,,
null,"<img src=""stim_listB/fight2.gif""</stim_listB>",,html-keyboard-response,149,556670,0.0-15.0-1.0,51752,List1B,white,woman,,,,null,,,,
null,are fighting each other,,html-keyboard-response,150,558671,0.0-15.0-2.0,51752,List1B,white,woman,,,,null,,,,
7903,,,survey-text,151,566575,0.0-15.0-3.0,51752,List1B,white,woman,,,,,"{""Q0"":""beth and fred are fighting each other""}","<img src=""stim_listB/fight2.gif""</stim_listB>",are fighting each other,
null,"<div style=""font-size:60px;"">+</div>",,html-keyboard-response,152,567076,0.0-15.0-0.1,51752,List1B,white,woman,,,,null,,,,
null,"<img src=""stim_listB/marry3.gif""</stim_listB>",,html-keyboard-response,153,569078,0.0-15.0-1.1,51752,List1B,white,woman,,,,null,,,,
null,is marrying,,html-keyboard-response,154,571079,0.0-15.0-2.1,51752,List1B,white,woman,,,,null,,,,
6943,,,survey-text,155,578023,0.0-15.0-3.1,51752,List1B,white,woman,,,,,"{""Q0"":""ruth is marrying dave""}","<img src=""stim_listB/marry3.gif""</stim_listB>",is marrying,
null,"<div style=""font-size:60px;"">+</div>",,html-keyboard-response,156,578524,0.0-15.0-0.2,51752,List1B,white,woman,,,,null,,,,
null,"<img src=""stim_listB/kiss7.gif""</stim_listB>",,html-keyboard-response,157,580526,0.0-15.0-1.2,51752,List1B,white,woman,,,,null,,,,
null,is kissing,,html-keyboard-response,158,582527,0.0-15.0-2.2,51752,List1B,white,woman,,,,null,,,,
6734,,,survey-text,159,589263,0.0-15.0-3.2,51752,List1B,white,woman,,,,,"{""Q0"":""ruth is kissing beth""}","<img src=""stim_listB/kiss7.gif""</stim_listB>",is kissing,
null,"<div style=""font-size:60px;"">+</div>",,html-keyboard-response,160,589764,0.0-15.0-0.3,51752,List1B,white,woman,,,,null,,,,
null,"<img src=""stim_listB/talk8.gif""</stim_listB>",,html-keyboard-response,161,591768,0.0-15.0-1.3,51752,List1B,white,woman,,,,null,,,,
null,are talking to each other,,html-keyboard-response,162,593769,0.0-15.0-2.3,51752,List1B,white,woman,,,,null,,,,
7800,,,survey-text,163,601570,0.0-15.0-3.3,51752,List1B,white,woman,,,,,"{""Q0"":""kate and ruth are talking to each other""}","<img src=""stim_listB/talk8.gif""</stim_listB>",are talking to each other,
null,"<div style=""font-size:60px;"">+</div>",,html-keyboard-response,164,602071,0.0-15.0-0.4,51752,List1B,white,woman,,,,null,,,,
null,"<img src=""stim_listB/marry8.gif""</stim_listB>",,html-keyboard-response,165,604072,0.0-15.0-1.4,51752,List1B,white,woman,,,,null,,,,
null,are marrying each other,,html-keyboard-response,166,606073,0.0-15.0-2.4,51752,List1B,white,woman,,,,null,,,,
7487,,,survey-text,167,613561,0.0-15.0-3.4,51752,List1B,white,woman,,,,,"{""Q0"":""beth and jane are marrying each other""}","<img src=""stim_listB/marry8.gif""</stim_listB>",are marrying each other,
null,"<div style=""font-size:60px;"">+</div>",,html-keyboard-response,168,614063,0.0-15.0-0.5,51752,List1B,white,woman,,,,null,,,,
null,"<img src=""stim_listB/touch3.gif""</stim_listB>",,html-keyboard-response,169,616065,0.0-15.0-1.5,51752,List1B,white,woman,,,,null,,,,
null,is touching,,html-keyboard-response,170,618066,0.0-15.0-2.5,51752,List1B,white,woman,,,,null,,,,
5927,,,survey-text,171,623993,0.0-15.0-3.5,51752,List1B,white,woman,,,,,"{""Q0"":""jane is touching dave""}","<img src=""stim_listB/touch3.gif""</stim_listB>",is touching,
null,"<div style=""font-size:60px;"">+</div>",,html-keyboard-response,172,624494,0.0-15.0-0.6,51752,List1B,white,woman,,,,null,,,,
null,"<img src=""stim_listB/dance6.gif""</stim_listB>",,html-keyboard-response,173,626495,0.0-15.0-1.6,51752,List1B,white,woman,,,,null,,,,
null,are dancing with each other,,html-keyboard-response,174,628496,0.0-15.0-2.6,51752,List1B,white,woman,,,,null,,,,
12152,,,survey-text,175,640649,0.0-15.0-3.6,51752,List1B,white,woman,,,,,"{""Q0"":""luke and mike are dancing with each other""}","<img src=""stim_listB/dance6.gif""</stim_listB>",are dancing with each other,
null,"<div style=""font-size:60px;"">+</div>",,html-keyboard-response,176,641150,0.0-15.0-0.7,51752,List1B,white,woman,,,,null,,,,
null,"<img src=""stim_listB/hug6.gif""</stim_listB>",,html-keyboard-response,177,643152,0.0-15.0-1.7,51752,List1B,white,woman,,,,null,,,,
null,are hugging each other,,html-keyboard-response,178,645153,0.0-15.0-2.7,51752,List1B,white,woman,,,,null,,,,
15115,,,survey-text,179,660268,0.0-15.0-3.7,51752,List1B,white,woman,,,,,"{""Q0"":""dave and mike are hugging each other""}","<img src=""stim_listB/hug6.gif""</stim_listB>",are hugging each other,
null,"<div style=""font-size:60px;"">+</div>",,html-keyboard-response,180,660769,0.0-15.0-0.8,51752,List1B,white,woman,,,,null,,,,
null,"<img src=""stim_listB/hug5.gif""</stim_listB>",,html-keyboard-response,181,662770,0.0-15.0-1.8,51752,List1B,white,woman,,,,null,,,,
null,is hugging,,html-keyboard-response,182,664771,0.0-15.0-2.8,51752,List1B,white,woman,,,,null,,,,
11289,,,survey-text,183,676060,0.0-15.0-3.8,51752,List1B,white,woman,,,,,"{""Q0"":""luke is hugging fred""}","<img src=""stim_listB/hug5.gif""</stim_listB>",is hugging,
null,"<div style=""font-size:60px;"">+</div>",,html-keyboard-response,184,676562,0.0-15.0-0.9,51752,List1B,white,woman,,,,null,,,,
null,"<img src=""stim_listB/dance7.gif""</stim_listB>",,html-keyboard-response,185,678563,0.0-15.0-1.9,51752,List1B,white,woman,,,,null,,,,
null,is dancing with,,html-keyboard-response,186,680564,0.0-15.0-2.9,51752,List1B,white,woman,,,,null,,,,
7440,,,survey-text,187,688004,0.0-15.0-3.9,51752,List1B,white,woman,,,,,"{""Q0"":""jane is dancing with beth""}","<img src=""stim_listB/dance7.gif""</stim_listB>",is dancing with,
null,"<div style=""font-size:60px;"">+</div>",,html-keyboard-response,188,688505,0.0-15.0-0.10,51752,List1B,white,woman,,,,null,,,,
null,"<img src=""stim_listB/talk2.gif""</stim_listB>",,html-keyboard-response,189,690506,0.0-15.0-1.10,51752,List1B,white,woman,,,,null,,,,
null,are talking to each other,,html-keyboard-response,190,692507,0.0-15.0-2.10,51752,List1B,white,woman,,,,null,,,,
9255,,,survey-text,191,701764,0.0-15.0-3.10,51752,List1B,white,woman,,,,,"{""Q0"":""beth and mike are talking to each other""}","<img src=""stim_listB/talk2.gif""</stim_listB>",are talking to each other,
null,"<div style=""font-size:60px;"">+</div>",,html-keyboard-response,192,702265,0.0-15.0-0.11,51752,List1B,white,woman,,,,null,,,,
null,"<img src=""stim_listB/kiss5.gif""</stim_listB>",,html-keyboard-response,193,704267,0.0-15.0-1.11,51752,List1B,white,woman,,,,null,,,,
null,is kissing,,html-keyboard-response,194,706268,0.0-15.0-2.11,51752,List1B,white,woman,,,,null,,,,
7459,,,survey-text,195,713727,0.0-15.0-3.11,51752,List1B,white,woman,,,,,"{""Q0"":""luke is kissing fred""}","<img src=""stim_listB/kiss5.gif""</stim_listB>",is kissing,
null,"<div style=""font-size:60px;"">+</div>",,html-keyboard-response,196,714229,0.0-15.0-0.12,51752,List1B,white,woman,,,,null,,,,
null,"<img src=""stim_listB/marry2.gif""</stim_listB>",,html-keyboard-response,197,716230,0.0-15.0-1.12,51752,List1B,white,woman,,,,null,,,,
null,are marrying each other,,html-keyboard-response,198,718231,0.0-15.0-2.12,51752,List1B,white,woman,,,,null,,,,
8488,,,survey-text,199,726719,0.0-15.0-3.12,51752,List1B,white,woman,,,,,"{""Q0"":""fred and kate are marrying each other""}","<img src=""stim_listB/marry2.gif""</stim_listB>",are marrying each other,
null,"<div style=""font-size:60px;"">+</div>",,html-keyboard-response,200,727221,0.0-15.0-0.13,51752,List1B,white,woman,,,,null,,,,
null,"<img src=""stim_listB/fight7.gif""</stim_listB>",,html-keyboard-response,201,729222,0.0-15.0-1.13,51752,List1B,white,woman,,,,null,,,,
null,is fighting,,html-keyboard-response,202,731223,0.0-15.0-2.13,51752,List1B,white,woman,,,,null,,,,
6456,,,survey-text,203,737679,0.0-15.0-3.13,51752,List1B,white,woman,,,,,"{""Q0"":""kate is fighting jane""}","<img src=""stim_listB/fight7.gif""</stim_listB>",is fighting,
null,"<div style=""font-size:60px;"">+</div>",,html-keyboard-response,204,738180,0.0-15.0-0.14,51752,List1B,white,woman,,,,null,,,,
null,"<img src=""stim_listB/argue1.gif""</stim_listB>",,html-keyboard-response,205,740181,0.0-15.0-1.14,51752,List1B,white,woman,,,,null,,,,
null,is arguing with,,html-keyboard-response,206,742182,0.0-15.0-2.14,51752,List1B,white,woman,,,,null,,,,
8719,,,survey-text,207,750903,0.0-15.0-3.14,51752,List1B,white,woman,,,,,"{""Q0"":""beth is arguing with mike""}","<img src=""stim_listB/argue1.gif""</stim_listB>",is arguing with,
null,"<div style=""font-size:60px;"">+</div>",,html-keyboard-response,208,751404,0.0-15.0-0.15,51752,List1B,white,woman,,,,null,,,,
null,"<img src=""stim_listB/meet1.gif""</stim_listB>",,html-keyboard-response,209,753405,0.0-15.0-1.15,51752,List1B,white,woman,,,,null,,,,
null,is meeting,,html-keyboard-response,210,755406,0.0-15.0-2.15,51752,List1B,white,woman,,,,null,,,,
5920,,,survey-text,211,761327,0.0-15.0-3.15,51752,List1B,white,woman,,,,,"{""Q0"":""kate is meeting mike""}","<img src=""stim_listB/meet1.gif""</stim_listB>",is meeting,
null,"<div style=""font-size:60px;"">+</div>",,html-keyboard-response,212,761828,0.0-15.0-0.16,51752,List1B,white,woman,,,,null,,,,
null,"<img src=""stim_listB/fight3.gif""</stim_listB>",,html-keyboard-response,213,763830,0.0-15.0-1.16,51752,List1B,white,woman,,,,null,,,,
null,is fighting,,html-keyboard-response,214,765831,0.0-15.0-2.16,51752,List1B,white,woman,,,,null,,,,
7473,,,survey-text,215,773305,0.0-15.0-3.16,51752,List1B,white,woman,,,,,"{""Q0"":""dave is fighting jane""}","<img src=""stim_listB/fight3.gif""</stim_listB>",is fighting,
null,"<div style=""font-size:60px;"">+</div>",,html-keyboard-response,216,773807,0.0-15.0-0.17,51752,List1B,white,woman,,,,null,,,,
null,"<img src=""stim_listB/talk5.gif""</stim_listB>",,html-keyboard-response,217,775808,0.0-15.0-1.17,51752,List1B,white,woman,,,,null,,,,
null,is talking to,,html-keyboard-response,218,777809,0.0-15.0-2.17,51752,List1B,white,woman,,,,null,,,,
7624,,,survey-text,219,785433,0.0-15.0-3.17,51752,List1B,white,woman,,,,,"{""Q0"":""dave is talking to fred""}","<img src=""stim_listB/talk5.gif""</stim_listB>",is talking to,
null,"<div style=""font-size:60px;"">+</div>",,html-keyboard-response,220,785934,0.0-15.0-0.18,51752,List1B,white,woman,,,,null,,,,
null,"<img src=""stim_listB/marry6.gif""</stim_listB>",,html-keyboard-response,221,787935,0.0-15.0-1.18,51752,List1B,white,woman,,,,null,,,,
null,are marrying each other,,html-keyboard-response,222,789936,0.0-15.0-2.18,51752,List1B,white,woman,,,,null,,,,
8352,,,survey-text,223,798289,0.0-15.0-3.18,51752,List1B,white,woman,,,,,"{""Q0"":""fred and dave are marrying each other""}","<img src=""stim_listB/marry6.gif""</stim_listB>",are marrying each other,
null,"<div style=""font-size:60px;"">+</div>",,html-keyboard-response,224,798791,0.0-15.0-0.19,51752,List1B,white,woman,,,,null,,,,
null,"<img src=""stim_listB/marry7.gif""</stim_listB>",,html-keyboard-response,225,800792,0.0-15.0-1.19,51752,List1B,white,woman,,,,null,,,,
null,is marrying,,html-keyboard-response,226,802793,0.0-15.0-2.19,51752,List1B,white,woman,,,,null,,,,
6726,,,survey-text,227,809521,0.0-15.0-3.19,51752,List1B,white,woman,,,,,"{""Q0"":""kate is marrying ruth""}","<img src=""stim_listB/marry7.gif""</stim_listB>",is marrying,
5560,"<img src='img/portrait_matrix_list1.JPG' style='width:900px;height:500px;''></img><p>If you have memorised all the portraits and names and are ready to start, press Continue.</p><p><strong>Please note: Your memory of these faces will be tested 4 times during this experiment.</strong></p>",0,html-button-response,228,815081,0.0-16.0-0.0,51752,List1B,white,woman,,,,,,,,
2975,"<img src=""portrait/WW1.jpg""style=""width:400px;height:400px;""></img>",1,html-button-response,229,819057,0.0-16.0-1.0,51752,List1B,white,woman,,TRUE,1,,,,,
null,CORRECT,,html-keyboard-response,230,820559,0.0-16.0-2.0-0.0,51752,List1B,white,woman,,,,null,,,,
2785,"<img src=""portrait/BM1.jpg""style=""width:400px;height:400px;""></img>",4,html-button-response,231,823345,0.0-16.0-4.0,51752,List1B,white,woman,,TRUE,4,,,,,
null,CORRECT,,html-keyboard-response,232,824847,0.0-16.0-5.0-0.0,51752,List1B,white,woman,,,,null,,,,
5329,"<img src=""portrait/BM2.jpg""style=""width:400px;height:400px;""></img>",5,html-button-response,233,830177,0.0-16.0-7.0,51752,List1B,white,woman,,TRUE,5,,,,,
null,CORRECT,,html-keyboard-response,234,831677,0.0-16.0-8.0-0.0,51752,List1B,white,woman,,,,null,,,,
1561,"<img src=""portrait/WW2.jpg""style=""width:400px;height:400px;""></img>",3,html-button-response,235,833239,0.0-16.0-10.0,51752,List1B,white,woman,,TRUE,3,,,,,
null,CORRECT,,html-keyboard-response,236,834742,0.0-16.0-11.0-0.0,51752,List1B,white,woman,,,,null,,,,
1417,"<img src=""portrait/WM2.jpg""style=""width:400px;height:400px;""></img>",7,html-button-response,237,836159,0.0-16.0-13.0,51752,List1B,white,woman,,TRUE,7,,,,,
null,CORRECT,,html-keyboard-response,238,837661,0.0-16.0-14.0-0.0,51752,List1B,white,woman,,,,null,,,,
2562,"<img src=""portrait/BW1.jpg""style=""width:400px;height:400px;""></img>",0,html-button-response,239,840223,0.0-16.0-16.0,51752,List1B,white,woman,,TRUE,0,,,,,
null,CORRECT,,html-keyboard-response,240,841725,0.0-16.0-17.0-0.0,51752,List1B,white,woman,,,,null,,,,
1794,"<img src=""portrait/BW2.jpg""style=""width:400px;height:400px;""></img>",2,html-button-response,241,843519,0.0-16.0-19.0,51752,List1B,white,woman,,TRUE,2,,,,,
null,CORRECT,,html-keyboard-response,242,845021,0.0-16.0-20.0-0.0,51752,List1B,white,woman,,,,null,,,,
1641,"<img src=""portrait/WM1.jpg""style=""width:400px;height:400px;""></img>",6,html-button-response,243,846663,0.0-16.0-22.0,51752,List1B,white,woman,,TRUE,6,,,,,
null,CORRECT,,html-keyboard-response,244,848165,0.0-16.0-23.0-0.0,51752,List1B,white,woman,,,,null,,,,
1529,<p>You got 8 out of 8 right first time. Press Continue.</p>,0,html-button-response,245,849695,0.0-16.0-25.0,51752,List1B,white,woman,,,,,,,,
null,"<div style=""font-size:60px;"">+</div>",,html-keyboard-response,246,851197,0.0-17.0-0.0,51752,List1B,white,woman,,,,null,,,,
null,"<img src=""stim_listB/argue6.gif""</stim_listB>",,html-keyboard-response,247,853198,0.0-17.0-1.0,51752,List1B,white,woman,,,,null,,,,
null,are arguing with each other,,html-keyboard-response,248,855199,0.0-17.0-2.0,51752,List1B,white,woman,,,,null,,,,
7007,,,survey-text,249,862207,0.0-17.0-3.0,51752,List1B,white,woman,,,,,"{""Q0"":""dave and fred are fighting each other""}","<img src=""stim_listB/argue6.gif""</stim_listB>",are arguing with each other,
null,"<div style=""font-size:60px;"">+</div>",,html-keyboard-response,250,862708,0.0-17.0-0.1,51752,List1B,white,woman,,,,null,,,,
null,"<img src=""stim_listB/talk6.gif""</stim_listB>",,html-keyboard-response,251,864710,0.0-17.0-1.1,51752,List1B,white,woman,,,,null,,,,
null,are talking to each other,,html-keyboard-response,252,866711,0.0-17.0-2.1,51752,List1B,white,woman,,,,null,,,,
13767,,,survey-text,253,880478,0.0-17.0-3.1,51752,List1B,white,woman,,,,,"{""Q0"":""luke  and mike are talking to each other""}","<img src=""stim_listB/talk6.gif""</stim_listB>",are talking to each other,
null,"<div style=""font-size:60px;"">+</div>",,html-keyboard-response,254,880980,0.0-17.0-0.2,51752,List1B,white,woman,,,,null,,,,
null,"<img src=""stim_listB/shout3.gif""</stim_listB>",,html-keyboard-response,255,882981,0.0-17.0-1.2,51752,List1B,white,woman,,,,null,,,,
null,is shouting at,,html-keyboard-response,256,884982,0.0-17.0-2.2,51752,List1B,white,woman,,,,null,,,,
6845,,,survey-text,257,891828,0.0-17.0-3.2,51752,List1B,white,woman,,,,,"{""Q0"":""luke is shouting at ruth""}","<img src=""stim_listB/shout3.gif""</stim_listB>",is shouting at,
null,"<div style=""font-size:60px;"">+</div>",,html-keyboard-response,258,892329,0.0-17.0-0.3,51752,List1B,white,woman,,,,null,,,,
null,"<img src=""stim_listB/fight5.gif""</stim_listB>",,html-keyboard-response,259,894330,0.0-17.0-1.3,51752,List1B,white,woman,,,,null,,,,
null,is fighting,,html-keyboard-response,260,896331,0.0-17.0-2.3,51752,List1B,white,woman,,,,null,,,,
6144,,,survey-text,261,902476,0.0-17.0-3.3,51752,List1B,white,woman,,,,,"{""Q0"":""mike is fighting dave""}","<img src=""stim_listB/fight5.gif""</stim_listB>",is fighting,
null,"<div style=""font-size:60px;"">+</div>",,html-keyboard-response,262,902977,0.0-17.0-0.4,51752,List1B,white,woman,,,,null,,,,
null,"<img src=""stim_listB/fight8.gif""</stim_listB>",,html-keyboard-response,263,904978,0.0-17.0-1.4,51752,List1B,white,woman,,,,null,,,,
null,are fighting each other,,html-keyboard-response,264,906979,0.0-17.0-2.4,51752,List1B,white,woman,,,,null,,,,
8183,,,survey-text,265,915164,0.0-17.0-3.4,51752,List1B,white,woman,,,,,"{""Q0"":""beth and ruth are fighting each other""}","<img src=""stim_listB/fight8.gif""</stim_listB>",are fighting each other,
null,"<div style=""font-size:60px;"">+</div>",,html-keyboard-response,266,915665,0.0-17.0-0.5,51752,List1B,white,woman,,,,null,,,,
null,"<img src=""stim_listB/meet7.gif""</stim_listB>",,html-keyboard-response,267,917666,0.0-17.0-1.5,51752,List1B,white,woman,,,,null,,,,
null,is meeting,,html-keyboard-response,268,919667,0.0-17.0-2.5,51752,List1B,white,woman,,,,null,,,,
5328,,,survey-text,269,924996,0.0-17.0-3.5,51752,List1B,white,woman,,,,,"{""Q0"":""jane is meeting kate""}","<img src=""stim_listB/meet7.gif""</stim_listB>",is meeting,
null,"<div style=""font-size:60px;"">+</div>",,html-keyboard-response,270,925497,0.0-17.0-0.6,51752,List1B,white,woman,,,,null,,,,
null,"<img src=""stim_listB/shout1.gif""</stim_listB>",,html-keyboard-response,271,927498,0.0-17.0-1.6,51752,List1B,white,woman,,,,null,,,,
null,is shouting at,,html-keyboard-response,272,929499,0.0-17.0-2.6,51752,List1B,white,woman,,,,null,,,,
7247,,,survey-text,273,936748,0.0-17.0-3.6,51752,List1B,white,woman,,,,,"{""Q0"":""beth is shouting at fred""}","<img src=""stim_listB/shout1.gif""</stim_listB>",is shouting at,
null,"<div style=""font-size:60px;"">+</div>",,html-keyboard-response,274,937249,0.0-17.0-0.7,51752,List1B,white,woman,,,,null,,,,
null,"<img src=""stim_listB/shout2.gif""</stim_listB>",,html-keyboard-response,275,939250,0.0-17.0-1.7,51752,List1B,white,woman,,,,null,,,,
null,are shouting at each other,,html-keyboard-response,276,941251,0.0-17.0-2.7,51752,List1B,white,woman,,,,null,,,,
12276,,,survey-text,277,953528,0.0-17.0-3.7,51752,List1B,white,woman,,,,,"{""Q0"":""kate and mike are shouting at each other""}","<img src=""stim_listB/shout2.gif""</stim_listB>",are shouting at each other,
null,"<div style=""font-size:60px;"">+</div>",,html-keyboard-response,278,954029,0.0-17.0-0.8,51752,List1B,white,woman,,,,null,,,,
null,"<img src=""stim_listB/dance4.gif""</stim_listB>",,html-keyboard-response,279,956030,0.0-17.0-1.8,51752,List1B,white,woman,,,,null,,,,
null,are dancing with each other,,html-keyboard-response,280,958031,0.0-17.0-2.8,51752,List1B,white,woman,,,,null,,,,
10759,,,survey-text,281,968792,0.0-17.0-3.8,51752,List1B,white,woman,,,,,"{""Q0"":""dave and ruth are dancing with each other""}","<img src=""stim_listB/dance4.gif""</stim_listB>",are dancing with each other,
null,"<div style=""font-size:60px;"">+</div>",,html-keyboard-response,282,969293,0.0-17.0-0.9,51752,List1B,white,woman,,,,null,,,,
null,"<img src=""stim_listB/talk7.gif""</stim_listB>",,html-keyboard-response,283,971294,0.0-17.0-1.9,51752,List1B,white,woman,,,,null,,,,
null,is talking to,,html-keyboard-response,284,973295,0.0-17.0-2.9,51752,List1B,white,woman,,,,null,,,,
9344,,,survey-text,285,982640,0.0-17.0-3.9,51752,List1B,white,woman,,,,,"{""Q0"":""beth is talking to jane""}","<img src=""stim_listB/talk7.gif""</stim_listB>",is talking to,
null,"<div style=""font-size:60px;"">+</div>",,html-keyboard-response,286,983140,0.0-17.0-0.10,51752,List1B,white,woman,,,,null,,,,
null,"<img src=""stim_listB/touch4.gif""</stim_listB>",,html-keyboard-response,287,985141,0.0-17.0-1.10,51752,List1B,white,woman,,,,null,,,,
null,are touching each other,,html-keyboard-response,288,987143,0.0-17.0-2.10,51752,List1B,white,woman,,,,null,,,,
10184,,,survey-text,289,997328,0.0-17.0-3.10,51752,List1B,white,woman,,,,,"{""Q0"":""ruth and luke are touching each other""}","<img src=""stim_listB/touch4.gif""</stim_listB>",are touching each other,
null,"<div style=""font-size:60px;"">+</div>",,html-keyboard-response,290,997829,0.0-17.0-0.11,51752,List1B,white,woman,,,,null,,,,
null,"<img src=""stim_listB/hug3.gif""</stim_listB>",,html-keyboard-response,291,999830,0.0-17.0-1.11,51752,List1B,white,woman,,,,null,,,,
null,is hugging,,html-keyboard-response,292,1001831,0.0-17.0-2.11,51752,List1B,white,woman,,,,null,,,,
5816,,,survey-text,293,1007647,0.0-17.0-3.11,51752,List1B,white,woman,,,,,"{""Q0"":""ruth is hugging luke""}","<img src=""stim_listB/hug3.gif""</stim_listB>",is hugging,
null,"<div style=""font-size:60px;"">+</div>",,html-keyboard-response,294,1008149,0.0-17.0-0.12,51752,List1B,white,woman,,,,null,,,,
null,"<img src=""stim_listB/kiss8.gif""</stim_listB>",,html-keyboard-response,295,1010150,0.0-17.0-1.12,51752,List1B,white,woman,,,,null,,,,
null,are kissing each other,,html-keyboard-response,296,1012149,0.0-17.0-2.12,51752,List1B,white,woman,,,,null,,,,
7448,,,survey-text,297,1019597,0.0-17.0-3.12,51752,List1B,white,woman,,,,,"{""Q0"":""jane and kate are kissing each other""}","<img src=""stim_listB/kiss8.gif""</stim_listB>",are kissing each other,
null,"<div style=""font-size:60px;"">+</div>",,html-keyboard-response,298,1020099,0.0-17.0-0.13,51752,List1B,white,woman,,,,null,,,,
null,"<img src=""stim_listB/shout6.gif""</stim_listB>",,html-keyboard-response,299,1022100,0.0-17.0-1.13,51752,List1B,white,woman,,,,null,,,,
null,are shouting at each other,,html-keyboard-response,300,1024101,0.0-17.0-2.13,51752,List1B,white,woman,,,,null,,,,
11319,,,survey-text,301,1035421,0.0-17.0-3.13,51752,List1B,white,woman,,,,,"{""Q0"":""dave and mike are shouting at each other""}","<img src=""stim_listB/shout6.gif""</stim_listB>",are shouting at each other,
null,"<div style=""font-size:60px;"">+</div>",,html-keyboard-response,302,1035922,0.0-17.0-0.14,51752,List1B,white,woman,,,,null,,,,
null,"<img src=""stim_listB/meet8.gif""</stim_listB>",,html-keyboard-response,303,1037923,0.0-17.0-1.14,51752,List1B,white,woman,,,,null,,,,
null,are meeting each other,,html-keyboard-response,304,1039924,0.0-17.0-2.14,51752,List1B,white,woman,,,,null,,,,
7080,,,survey-text,305,1047005,0.0-17.0-3.14,51752,List1B,white,woman,,,,,"{""Q0"":""ruth and kate are meeting each other""}","<img src=""stim_listB/meet8.gif""</stim_listB>",are meeting each other,
null,"<div style=""font-size:60px;"">+</div>",,html-keyboard-response,306,1047506,0.0-17.0-0.15,51752,List1B,white,woman,,,,null,,,,
null,"<img src=""stim_listB/meet3.gif""</stim_listB>",,html-keyboard-response,307,1049507,0.0-17.0-1.15,51752,List1B,white,woman,,,,null,,,,
null,is meeting,,html-keyboard-response,308,1051508,0.0-17.0-2.15,51752,List1B,white,woman,,,,null,,,,
9783,,,survey-text,309,1061293,0.0-17.0-3.15,51752,List1B,white,woman,,,,,"{""Q0"":""dave is meeting jane""}","<img src=""stim_listB/meet3.gif""</stim_listB>",is meeting,
null,"<div style=""font-size:60px;"">+</div>",,html-keyboard-response,310,1061794,0.0-17.0-0.16,51752,List1B,white,woman,,,,null,,,,
null,"<img src=""stim_listB/kiss6.gif""</stim_listB>",,html-keyboard-response,311,1063795,0.0-17.0-1.16,51752,List1B,white,woman,,,,null,,,,
null,are kissing each other,,html-keyboard-response,312,1065796,0.0-17.0-2.16,51752,List1B,white,woman,,,,null,,,,
13669,,,survey-text,313,1079465,0.0-17.0-3.16,51752,List1B,white,woman,,,,,"{""Q0"":""mike and dave are kissing each other""}","<img src=""stim_listB/kiss6.gif""</stim_listB>",are kissing each other,
null,"<div style=""font-size:60px;"">+</div>",,html-keyboard-response,314,1079967,0.0-17.0-0.17,51752,List1B,white,woman,,,,null,,,,
null,"<img src=""stim_listB/argue8.gif""</stim_listB>",,html-keyboard-response,315,1081968,0.0-17.0-1.17,51752,List1B,white,woman,,,,null,,,,
null,are arguing with each other,,html-keyboard-response,316,1083969,0.0-17.0-2.17,51752,List1B,white,woman,,,,null,,,,
10040,,,survey-text,317,1094009,0.0-17.0-3.17,51752,List1B,white,woman,,,,,"{""Q0"":""beth and jane are arguing with each other""}","<img src=""stim_listB/argue8.gif""</stim_listB>",are arguing with each other,
null,"<div style=""font-size:60px;"">+</div>",,html-keyboard-response,318,1094510,0.0-17.0-0.18,51752,List1B,white,woman,,,,null,,,,
null,"<img src=""stim_listB/argue3.gif""</stim_listB>",,html-keyboard-response,319,1096511,0.0-17.0-1.18,51752,List1B,white,woman,,,,null,,,,
null,is arguing with,,html-keyboard-response,320,1098512,0.0-17.0-2.18,51752,List1B,white,woman,,,,null,,,,
11823,,,survey-text,321,1110337,0.0-17.0-3.18,51752,List1B,white,woman,,,,,"{""Q0"":""ruth is arguing with dave""}","<img src=""stim_listB/argue3.gif""</stim_listB>",is arguing with,
null,"<div style=""font-size:60px;"">+</div>",,html-keyboard-response,322,1110838,0.0-17.0-0.19,51752,List1B,white,woman,,,,null,,,,
null,"<img src=""stim_listB/touch2.gif""</stim_listB>",,html-keyboard-response,323,1112839,0.0-17.0-1.19,51752,List1B,white,woman,,,,null,,,,
null,are touching each other,,html-keyboard-response,324,1114840,0.0-17.0-2.19,51752,List1B,white,woman,,,,null,,,,
11359,,,survey-text,325,1126201,0.0-17.0-3.19,51752,List1B,white,woman,,,,,"{""Q0"":""fred and beth are touching each other""}","<img src=""stim_listB/touch2.gif""</stim_listB>",are touching each other,
2863,"<img src='img/portrait_matrix_list1.JPG' style='width:900px;height:500px;''></img><p>If you have memorised all the portraits and names and are ready to start, press Continue.</p><p><strong>Please note: Your memory of these faces will be tested 4 times during this experiment.</strong></p>",0,html-button-response,326,1129065,0.0-18.0-0.0,51752,List1B,white,woman,,,,,,,,
2054,"<img src=""portrait/BW2.jpg""style=""width:400px;height:400px;""></img>",2,html-button-response,327,1132121,0.0-18.0-1.0,51752,List1B,white,woman,,TRUE,2,,,,,
null,CORRECT,,html-keyboard-response,328,1133621,0.0-18.0-2.0-0.0,51752,List1B,white,woman,,,,null,,,,
1569,"<img src=""portrait/WM2.jpg""style=""width:400px;height:400px;""></img>",7,html-button-response,329,1135190,0.0-18.0-4.0,51752,List1B,white,woman,,TRUE,7,,,,,
null,CORRECT,,html-keyboard-response,330,1136693,0.0-18.0-5.0-0.0,51752,List1B,white,woman,,,,null,,,,
1417,"<img src=""portrait/BW1.jpg""style=""width:400px;height:400px;""></img>",0,html-button-response,331,1138110,0.0-18.0-7.0,51752,List1B,white,woman,,TRUE,0,,,,,
null,CORRECT,,html-keyboard-response,332,1139612,0.0-18.0-8.0-0.0,51752,List1B,white,woman,,,,null,,,,
1546,"<img src=""portrait/WW2.jpg""style=""width:400px;height:400px;""></img>",3,html-button-response,333,1141158,0.0-18.0-10.0,51752,List1B,white,woman,,TRUE,3,,,,,
null,CORRECT,,html-keyboard-response,334,1142660,0.0-18.0-11.0-0.0,51752,List1B,white,woman,,,,null,,,,
1442,"<img src=""portrait/WW1.jpg""style=""width:400px;height:400px;""></img>",1,html-button-response,335,1144102,0.0-18.0-13.0,51752,List1B,white,woman,,TRUE,1,,,,,
null,CORRECT,,html-keyboard-response,336,1145604,0.0-18.0-14.0-0.0,51752,List1B,white,woman,,,,null,,,,
2033,"<img src=""portrait/BM1.jpg""style=""width:400px;height:400px;""></img>",4,html-button-response,337,1147638,0.0-18.0-16.0,51752,List1B,white,woman,,TRUE,4,,,,,
null,CORRECT,,html-keyboard-response,338,1149140,0.0-18.0-17.0-0.0,51752,List1B,white,woman,,,,null,,,,
2560,"<img src=""portrait/BM2.jpg""style=""width:400px;height:400px;""></img>",5,html-button-response,339,1151702,0.0-18.0-19.0,51752,List1B,white,woman,,TRUE,5,,,,,
null,CORRECT,,html-keyboard-response,340,1153204,0.0-18.0-20.0-0.0,51752,List1B,white,woman,,,,null,,,,
2680,"<img src=""portrait/WM1.jpg""style=""width:400px;height:400px;""></img>",6,html-button-response,341,1155886,0.0-18.0-22.0,51752,List1B,white,woman,,TRUE,6,,,,,
null,CORRECT,,html-keyboard-response,342,1157388,0.0-18.0-23.0-0.0,51752,List1B,white,woman,,,,null,,,,
1177,<p>You got 8 out of 8 right first time. Press Continue.</p>,0,html-button-response,343,1158566,0.0-18.0-25.0,51752,List1B,white,woman,,,,,,,,
null,"<div style=""font-size:60px;"">+</div>",,html-keyboard-response,344,1160068,0.0-19.0-0.0,51752,List1B,white,woman,,,,null,,,,
null,"<img src=""stim_listB/kiss2.gif""</stim_listB>",,html-keyboard-response,345,1162070,0.0-19.0-1.0,51752,List1B,white,woman,,,,null,,,,
null,are kissing each other,,html-keyboard-response,346,1164071,0.0-19.0-2.0,51752,List1B,white,woman,,,,null,,,,
11398,,,survey-text,347,1175470,0.0-19.0-3.0,51752,List1B,white,woman,,,,,"{""Q0"":""mike and kate are kissing each other""}","<img src=""stim_listB/kiss2.gif""</stim_listB>",are kissing each other,
null,"<div style=""font-size:60px;"">+</div>",,html-keyboard-response,348,1175970,0.0-19.0-0.1,51752,List1B,white,woman,,,,null,,,,
null,"<img src=""stim_listB/meet2.gif""</stim_listB>",,html-keyboard-response,349,1177972,0.0-19.0-1.1,51752,List1B,white,woman,,,,null,,,,
null,are meeting each other,,html-keyboard-response,350,1179973,0.0-19.0-2.1,51752,List1B,white,woman,,,,null,,,,
8688,,,survey-text,351,1188662,0.0-19.0-3.1,51752,List1B,white,woman,,,,,"{""Q0"":""fred and beth are meeting each other""}","<img src=""stim_listB/meet2.gif""</stim_listB>",are meeting each other,
null,"<div style=""font-size:60px;"">+</div>",,html-keyboard-response,352,1189163,0.0-19.0-0.2,51752,List1B,white,woman,,,,null,,,,
null,"<img src=""stim_listB/talk3.gif""</stim_listB>",,html-keyboard-response,353,1191164,0.0-19.0-1.2,51752,List1B,white,woman,,,,null,,,,
null,is talking to,,html-keyboard-response,354,1193163,0.0-19.0-2.2,51752,List1B,white,woman,,,,null,,,,
6031,,,survey-text,355,1199195,0.0-19.0-3.2,51752,List1B,white,woman,,,,,"{""Q0"":""luke is talking to jane""}","<img src=""stim_listB/talk3.gif""</stim_listB>",is talking to,
null,"<div style=""font-size:60px;"">+</div>",,html-keyboard-response,356,1199696,0.0-19.0-0.3,51752,List1B,white,woman,,,,null,,,,
null,"<img src=""stim_listB/dance1.gif""</stim_listB>",,html-keyboard-response,357,1201697,0.0-19.0-1.3,51752,List1B,white,woman,,,,null,,,,
null,is dancing with,,html-keyboard-response,358,1203698,0.0-19.0-2.3,51752,List1B,white,woman,,,,null,,,,
5920,,,survey-text,359,1209619,0.0-19.0-3.3,51752,List1B,white,woman,,,,,"{""Q0"":""fred is dancing with kate""}","<img src=""stim_listB/dance1.gif""</stim_listB>",is dancing with,
null,"<div style=""font-size:60px;"">+</div>",,html-keyboard-response,360,1210120,0.0-19.0-0.4,51752,List1B,white,woman,,,,null,,,,
null,"<img src=""stim_listB/hug1.gif""</stim_listB>",,html-keyboard-response,361,1212121,0.0-19.0-1.4,51752,List1B,white,woman,,,,null,,,,
null,is hugging,,html-keyboard-response,362,1214123,0.0-19.0-2.4,51752,List1B,white,woman,,,,null,,,,
9775,,,survey-text,363,1223899,0.0-19.0-3.4,51752,List1B,white,woman,,,,,"{""Q0"":""beth is hugging fred""}","<img src=""stim_listB/hug1.gif""</stim_listB>",is hugging,
null,"<div style=""font-size:60px;"">+</div>",,html-keyboard-response,364,1224400,0.0-19.0-0.5,51752,List1B,white,woman,,,,null,,,,
null,"<img src=""stim_listB/talk4.gif""</stim_listB>",,html-keyboard-response,365,1226401,0.0-19.0-1.5,51752,List1B,white,woman,,,,null,,,,
null,are talking to each other,,html-keyboard-response,366,1228402,0.0-19.0-2.5,51752,List1B,white,woman,,,,null,,,,
9056,,,survey-text,367,1237458,0.0-19.0-3.5,51752,List1B,white,woman,,,,,"{""Q0"":""dave and ruth are talking to each other""}","<img src=""stim_listB/talk4.gif""</stim_listB>",are talking to each other,
null,"<div style=""font-size:60px;"">+</div>",,html-keyboard-response,368,1237960,0.0-19.0-0.6,51752,List1B,white,woman,,,,null,,,,
null,"<img src=""stim_listB/argue7.gif""</stim_listB>",,html-keyboard-response,369,1239961,0.0-19.0-1.6,51752,List1B,white,woman,,,,null,,,,
null,is arguing with,,html-keyboard-response,370,1241962,0.0-19.0-2.6,51752,List1B,white,woman,,,,null,,,,
9488,,,survey-text,371,1251450,0.0-19.0-3.6,51752,List1B,white,woman,,,,,"{""Q0"":""kate is arguing with ruth""}","<img src=""stim_listB/argue7.gif""</stim_listB>",is arguing with,
null,"<div style=""font-size:60px;"">+</div>",,html-keyboard-response,372,1251951,0.0-19.0-0.7,51752,List1B,white,woman,,,,null,,,,
null,"<img src=""stim_listB/touch6.gif""</stim_listB>",,html-keyboard-response,373,1253950,0.0-19.0-1.7,51752,List1B,white,woman,,,,null,,,,
null,are touching each other,,html-keyboard-response,374,1255951,0.0-19.0-2.7,51752,List1B,white,woman,,,,null,,,,
13200,,,survey-text,375,1269151,0.0-19.0-3.7,51752,List1B,white,woman,,,,,"{""Q0"":""luke and fred are touching each other""}","<img src=""stim_listB/touch6.gif""</stim_listB>",are touching each other,
null,"<div style=""font-size:60px;"">+</div>",,html-keyboard-response,376,1269652,0.0-19.0-0.8,51752,List1B,white,woman,,,,null,,,,
null,"<img src=""stim_listB/fight1.gif""</stim_listB>",,html-keyboard-response,377,1271653,0.0-19.0-1.8,51752,List1B,white,woman,,,,null,,,,
null,is fighting,,html-keyboard-response,378,1273654,0.0-19.0-2.8,51752,List1B,white,woman,,,,null,,,,
5208,,,survey-text,379,1278863,0.0-19.0-3.8,51752,List1B,white,woman,,,,,"{""Q0"":""mike is fighting kate""}","<img src=""stim_listB/fight1.gif""</stim_listB>",is fighting,
null,"<div style=""font-size:60px;"">+</div>",,html-keyboard-response,380,1279364,0.0-19.0-0.9,51752,List1B,white,woman,,,,null,,,,
null,"<img src=""stim_listB/touch5.gif""</stim_listB>",,html-keyboard-response,381,1281366,0.0-19.0-1.9,51752,List1B,white,woman,,,,null,,,,
null,is touching,,html-keyboard-response,382,1283367,0.0-19.0-2.9,51752,List1B,white,woman,,,,null,,,,
5440,,,survey-text,383,1288807,0.0-19.0-3.9,51752,List1B,white,woman,,,,,"{""Q0"":""dave is touching mike""}","<img src=""stim_listB/touch5.gif""</stim_listB>",is touching,
null,"<div style=""font-size:60px;"">+</div>",,html-keyboard-response,384,1289308,0.0-19.0-0.10,51752,List1B,white,woman,,,,null,,,,
null,"<img src=""stim_listB/shout5.gif""</stim_listB>",,html-keyboard-response,385,1291309,0.0-19.0-1.10,51752,List1B,white,woman,,,,null,,,,
null,is shouting at,,html-keyboard-response,386,1293310,0.0-19.0-2.10,51752,List1B,white,woman,,,,null,,,,
5759,,,survey-text,387,1299071,0.0-19.0-3.10,51752,List1B,white,woman,,,,,"{""Q0"":""fred is shouting at luke""}","<img src=""stim_listB/shout5.gif""</stim_listB>",is shouting at,
null,"<div style=""font-size:60px;"">+</div>",,html-keyboard-response,388,1299573,0.0-19.0-0.11,51752,List1B,white,woman,,,,null,,,,
null,"<img src=""stim_listB/hug8.gif""</stim_listB>",,html-keyboard-response,389,1301574,0.0-19.0-1.11,51752,List1B,white,woman,,,,null,,,,
null,are hugging each other,,html-keyboard-response,390,1303575,0.0-19.0-2.11,51752,List1B,white,woman,,,,null,,,,
8247,,,survey-text,391,1311823,0.0-19.0-3.11,51752,List1B,white,woman,,,,,"{""Q0"":""kate and jane are hugging each other""}","<img src=""stim_listB/hug8.gif""</stim_listB>",are hugging each other,
null,"<div style=""font-size:60px;"">+</div>",,html-keyboard-response,392,1312324,0.0-19.0-0.12,51752,List1B,white,woman,,,,null,,,,
null,"<img src=""stim_listB/kiss3.gif""</stim_listB>",,html-keyboard-response,393,1314323,0.0-19.0-1.12,51752,List1B,white,woman,,,,null,,,,
null,is kissing,,html-keyboard-response,394,1316324,0.0-19.0-2.12,51752,List1B,white,woman,,,,null,,,,
5248,,,survey-text,395,1321572,0.0-19.0-3.12,51752,List1B,white,woman,,,,,"{""Q0"":""ruth is kissing luke""}","<img src=""stim_listB/kiss3.gif""</stim_listB>",is kissing,
null,"<div style=""font-size:60px;"">+</div>",,html-keyboard-response,396,1322073,0.0-19.0-0.13,51752,List1B,white,woman,,,,null,,,,
null,"<img src=""stim_listB/touch1.gif""</stim_listB>",,html-keyboard-response,397,1324074,0.0-19.0-1.13,51752,List1B,white,woman,,,,null,,,,
null,is touching,,html-keyboard-response,398,1326075,0.0-19.0-2.13,51752,List1B,white,woman,,,,null,,,,
6887,,,survey-text,399,1332964,0.0-19.0-3.13,51752,List1B,white,woman,,,,,"{""Q0"":""kate is touching  mike""}","<img src=""stim_listB/touch1.gif""</stim_listB>",is touching,
null,"<div style=""font-size:60px;"">+</div>",,html-keyboard-response,400,1333465,0.0-19.0-0.14,51752,List1B,white,woman,,,,null,,,,
null,"<img src=""stim_listB/touch8.gif""</stim_listB>",,html-keyboard-response,401,1335466,0.0-19.0-1.14,51752,List1B,white,woman,,,,null,,,,
null,are touching each other,,html-keyboard-response,402,1337468,0.0-19.0-2.14,51752,List1B,white,woman,,,,null,,,,
11855,,,survey-text,403,1349324,0.0-19.0-3.14,51752,List1B,white,woman,,,,,"{""Q0"":""ruth and beth are touching each other""}","<img src=""stim_listB/touch8.gif""</stim_listB>",are touching each other,
null,"<div style=""font-size:60px;"">+</div>",,html-keyboard-response,404,1349825,0.0-19.0-0.15,51752,List1B,white,woman,,,,null,,,,
null,"<img src=""stim_listB/argue5.gif""</stim_listB>",,html-keyboard-response,405,1351826,0.0-19.0-1.15,51752,List1B,white,woman,,,,null,,,,
null,is arguing with,,html-keyboard-response,406,1353827,0.0-19.0-2.15,51752,List1B,white,woman,,,,null,,,,
9055,,,survey-text,407,1362884,0.0-19.0-3.15,51752,List1B,white,woman,,,,,"{""Q0"":""mike is arguing with luke""}","<img src=""stim_listB/argue5.gif""</stim_listB>",is arguing with,
null,"<div style=""font-size:60px;"">+</div>",,html-keyboard-response,408,1363385,0.0-19.0-0.16,51752,List1B,white,woman,,,,null,,,,
null,"<img src=""stim_listB/argue4.gif""</stim_listB>",,html-keyboard-response,409,1365386,0.0-19.0-1.16,51752,List1B,white,woman,,,,null,,,,
null,are arguing with each other,,html-keyboard-response,410,1367387,0.0-19.0-2.16,51752,List1B,white,woman,,,,null,,,,
12965,,,survey-text,411,1380353,0.0-19.0-3.16,51752,List1B,white,woman,,,,,"{""Q0"":""luke and jane are arguing with each other""}","<img src=""stim_listB/argue4.gif""</stim_listB>",are arguing with each other,
null,"<div style=""font-size:60px;"">+</div>",,html-keyboard-response,412,1380854,0.0-19.0-0.17,51752,List1B,white,woman,,,,null,,,,
null,"<img src=""stim_listB/touch7.gif""</stim_listB>",,html-keyboard-response,413,1382855,0.0-19.0-1.17,51752,List1B,white,woman,,,,null,,,,
null,is touching,,html-keyboard-response,414,1384856,0.0-19.0-2.17,51752,List1B,white,woman,,,,null,,,,
5599,,,survey-text,415,1390457,0.0-19.0-3.17,51752,List1B,white,woman,,,,,"{""Q0"":""kate is touching jane""}","<img src=""stim_listB/touch7.gif""</stim_listB>",is touching,
null,"<div style=""font-size:60px;"">+</div>",,html-keyboard-response,416,1390958,0.0-19.0-0.18,51752,List1B,white,woman,,,,null,,,,
null,"<img src=""stim_listB/hug2.gif""</stim_listB>",,html-keyboard-response,417,1392959,0.0-19.0-1.18,51752,List1B,white,woman,,,,null,,,,
null,are hugging each other,,html-keyboard-response,418,1394960,0.0-19.0-2.18,51752,List1B,white,woman,,,,null,,,,
8944,,,survey-text,419,1403904,0.0-19.0-3.18,51752,List1B,white,woman,,,,,"{""Q0"":""kate and mike are hugging each other""}","<img src=""stim_listB/hug2.gif""</stim_listB>",are hugging each other,
null,"<div style=""font-size:60px;"">+</div>",,html-keyboard-response,420,1404405,0.0-19.0-0.19,51752,List1B,white,woman,,,,null,,,,
null,"<img src=""stim_listB/talk1.gif""</stim_listB>",,html-keyboard-response,421,1406407,0.0-19.0-1.19,51752,List1B,white,woman,,,,null,,,,
null,is talking to,,html-keyboard-response,422,1408408,0.0-19.0-2.19,51752,List1B,white,woman,,,,null,,,,
6687,,,survey-text,423,1415096,0.0-19.0-3.19,51752,List1B,white,woman,,,,,"{""Q0"":""kate is talking to fred""}","<img src=""stim_listB/talk1.gif""</stim_listB>",is talking to,
2519,<p>Thank you for completing that task.</p><p>The final part of this session is a short questionnaire.</p><p>Press Continue.</p>,0,html-button-response,424,1417616,0.0-20.0,51752,List1B,white,woman,,,,,,,,
29097,,,survey-text,425,1447715,0.0-21.0,51752,List1B,white,woman,,,,,"{""Q0"":""41"",""Q1"":""English"",""Q2"":""English"",""Q3"":""England"",""Q4"":""White"",""Q5"":""Female""}",,,demographics
64390,,,survey-likert,426,1512121,0.0-22.0,51752,List1B,white,woman,,,,,"{""Q0"":5,""Q1"":5,""Q2"":3,""Q3"":5,""Q4"":3,""Q5"":3,""Q6"":3,""Q7"":2,""Q8"":1,""Q9"":1,""Q10"":3,""Q11"":3,""Q12"":3,""Q13"":2}",,,likert_race
48366,,,survey-likert,427,1560491,0.0-23.0,51752,List1B,white,woman,,,,,"{""Q0"":5,""Q1"":5,""Q2"":5,""Q3"":3,""Q4"":5,""Q5"":5,""Q6"":5,""Q7"":5,""Q8"":5,""Q9"":5,""Q10"":5,""Q11"":4,""Q12"":5,""Q13"":2}",,,likert_gender
10828,,,survey-text,428,1571320,0.0-24.0,51752,List1B,white,woman,,,,,"{""Q0"":""ccc""}",,,worker_id
18242,,,external-html,429,1589608,0.0-25.0,51752,List1B,white,woman,debrief.html,,,,,,,
