rt,stimulus,button_pressed,trial_type,trial_index,time_elapsed,internal_node_id,subject,list,ppt_race,ppt_gender,url,first_guess,correct,key_press,responses,image_type,phrase_type,test_part
2322,Welcome to the experiment. Press Continue to begin.,0,html-button-response,0,2378,0.0-0.0,51928,List2A,white,woman,,,,,,,,
9378,,,external-html,1,12802,0.0-1.0,51928,List2A,white,woman,consent.html,,,,,,,
11747,"<p>On the next page, you will see portraits of 8 people and their names.</p><p>Your first task is to take a few minutes to memorise the names of these people.</p><p>You will have to recall their names during the rest of the experiment, so it is</p><p>essential that you try to memorise these people and their names as best as you can.</p><br><p><strong>You will then be tested on your memory of these names and portraits.</strong></p><br><p>The experiment will start after you have completed this memory test.</p><br><p>Ready?</p>",0,html-button-response,2,24551,0.0-2.0,51928,List2A,white,woman,,,,,,,,
32887,"<img src='img/portrait_matrix_list2.JPG' style='width:900px;height:500px;''></img><p>If you have memorised all the portraits and names and are ready to start, press Continue.</p><p><strong>Please note: Your memory of these faces will be tested 4 times during this experiment.</strong></p>",0,html-button-response,3,58451,0.0-3.0-0.0,51928,List2A,white,woman,,,,,,,,
5802,"<img src=""portrait/BM1.jpg""style=""width:400px;height:400px;""></img>",4,html-button-response,4,65266,0.0-3.0-1.0,51928,List2A,white,woman,,TRUE,4,,,,,
null,CORRECT,,html-keyboard-response,5,66793,0.0-3.0-2.0-0.0,51928,List2A,white,woman,,,,null,,,,
3006,"<img src=""portrait/WM2.jpg""style=""width:400px;height:400px;""></img>",7,html-button-response,6,69801,0.0-3.0-4.0,51928,List2A,white,woman,,TRUE,7,,,,,
null,CORRECT,,html-keyboard-response,7,71329,0.0-3.0-5.0-0.0,51928,List2A,white,woman,,,,null,,,,
2353,"<img src=""portrait/WW2.jpg""style=""width:400px;height:400px;""></img>",1,html-button-response,8,73684,0.0-3.0-7.0,51928,List2A,white,woman,,TRUE,3,,,,,
3586,"<img src=""portrait/WW2.jpg""style=""width:400px;height:400px;""></img>",3,html-button-response,9,78282,0.0-3.0-9.0-0.0,51928,List2A,white,woman,,FALSE,3,,,,,
null,CORRECT,,html-keyboard-response,10,79794,0.0-3.0-9.0-1.0-0.0,51928,List2A,white,woman,,,,null,,,,
3021,"<img src=""portrait/BW2.jpg""style=""width:400px;height:400px;""></img>",2,html-button-response,11,82817,0.0-3.0-10.0,51928,List2A,white,woman,,TRUE,2,,,,,
null,CORRECT,,html-keyboard-response,12,84328,0.0-3.0-11.0-0.0,51928,List2A,white,woman,,,,null,,,,
2835,"<img src=""portrait/WW1.jpg""style=""width:400px;height:400px;""></img>",0,html-button-response,13,87165,0.0-3.0-13.0,51928,List2A,white,woman,,TRUE,1,,,,,
2002,"<img src=""portrait/WW1.jpg""style=""width:400px;height:400px;""></img>",1,html-button-response,14,90184,0.0-3.0-15.0-0.0,51928,List2A,white,woman,,FALSE,1,,,,,
null,CORRECT,,html-keyboard-response,15,91708,0.0-3.0-15.0-1.0-0.0,51928,List2A,white,woman,,,,null,,,,
6291,"<img src=""portrait/WM1.jpg""style=""width:400px;height:400px;""></img>",6,html-button-response,16,98000,0.0-3.0-16.0,51928,List2A,white,woman,,TRUE,6,,,,,
null,CORRECT,,html-keyboard-response,17,99509,0.0-3.0-17.0-0.0,51928,List2A,white,woman,,,,null,,,,
4251,"<img src=""portrait/BM2.jpg""style=""width:400px;height:400px;""></img>",4,html-button-response,18,103761,0.0-3.0-19.0,51928,List2A,white,woman,,TRUE,5,,,,,
2814,"<img src=""portrait/BM2.jpg""style=""width:400px;height:400px;""></img>",5,html-button-response,19,107581,0.0-3.0-21.0-0.0,51928,List2A,white,woman,,FALSE,5,,,,,
null,CORRECT,,html-keyboard-response,20,109089,0.0-3.0-21.0-1.0-0.0,51928,List2A,white,woman,,,,null,,,,
4124,"<img src=""portrait/BW1.jpg""style=""width:400px;height:400px;""></img>",2,html-button-response,21,113214,0.0-3.0-22.0,51928,List2A,white,woman,,TRUE,0,,,,,
3882,"<img src=""portrait/BW1.jpg""style=""width:400px;height:400px;""></img>",0,html-button-response,22,118099,0.0-3.0-24.0-0.0,51928,List2A,white,woman,,FALSE,0,,,,,
null,CORRECT,,html-keyboard-response,23,119610,0.0-3.0-24.0-1.0-0.0,51928,List2A,white,woman,,,,null,,,,
1819,<p>You got 4 out of 8 right first time. Press Continue.</p>,0,html-button-response,24,121431,0.0-3.0-25.0,51928,List2A,white,woman,,,,,,,,
3638,"As you did not score 100%, the memory game will repeat. Press Continue.",0,html-button-response,25,126080,0.0-3.0-26.0-0.0,51928,List2A,white,woman,,,,,,,,
16471,"<img src='img/portrait_matrix_list2.JPG' style='width:900px;height:500px;''></img><p>If you have memorised all the portraits and names and are ready to start, press Continue.</p><p><strong>Please note: Your memory of these faces will be tested 4 times during this experiment.</strong></p>",0,html-button-response,26,143564,0.0-3.1-0.1,51928,List2A,white,woman,,,,,,,,
6854,"<img src=""portrait/BM1.jpg""style=""width:400px;height:400px;""></img>",4,html-button-response,27,151430,0.0-3.1-1.1,51928,List2A,white,woman,,TRUE,4,,,,,
null,CORRECT,,html-keyboard-response,28,152956,0.0-3.1-2.1-0.1,51928,List2A,white,woman,,,,null,,,,
2040,"<img src=""portrait/WM2.jpg""style=""width:400px;height:400px;""></img>",7,html-button-response,29,154997,0.0-3.1-4.1,51928,List2A,white,woman,,TRUE,7,,,,,
null,CORRECT,,html-keyboard-response,30,156508,0.0-3.1-5.1-0.1,51928,List2A,white,woman,,,,null,,,,
8420,"<img src=""portrait/WW2.jpg""style=""width:400px;height:400px;""></img>",0,html-button-response,31,164929,0.0-3.1-7.1,51928,List2A,white,woman,,TRUE,3,,,,,
2205,"<img src=""portrait/WW2.jpg""style=""width:400px;height:400px;""></img>",3,html-button-response,32,168146,0.0-3.1-9.1-0.1,51928,List2A,white,woman,,FALSE,3,,,,,
null,CORRECT,,html-keyboard-response,33,169656,0.0-3.1-9.1-1.1-0.1,51928,List2A,white,woman,,,,null,,,,
2553,"<img src=""portrait/BW2.jpg""style=""width:400px;height:400px;""></img>",2,html-button-response,34,172211,0.0-3.1-10.1,51928,List2A,white,woman,,TRUE,2,,,,,
null,CORRECT,,html-keyboard-response,35,173723,0.0-3.1-11.1-0.1,51928,List2A,white,woman,,,,null,,,,
4786,"<img src=""portrait/WW1.jpg""style=""width:400px;height:400px;""></img>",1,html-button-response,36,178510,0.0-3.1-13.1,51928,List2A,white,woman,,TRUE,1,,,,,
null,CORRECT,,html-keyboard-response,37,180024,0.0-3.1-14.1-0.1,51928,List2A,white,woman,,,,null,,,,
6836,"<img src=""portrait/WM1.jpg""style=""width:400px;height:400px;""></img>",6,html-button-response,38,186861,0.0-3.1-16.1,51928,List2A,white,woman,,TRUE,6,,,,,
null,CORRECT,,html-keyboard-response,39,188388,0.0-3.1-17.1-0.1,51928,List2A,white,woman,,,,null,,,,
1937,"<img src=""portrait/BM2.jpg""style=""width:400px;height:400px;""></img>",5,html-button-response,40,190327,0.0-3.1-19.1,51928,List2A,white,woman,,TRUE,5,,,,,
null,CORRECT,,html-keyboard-response,41,191840,0.0-3.1-20.1-0.1,51928,List2A,white,woman,,,,null,,,,
4569,"<img src=""portrait/BW1.jpg""style=""width:400px;height:400px;""></img>",3,html-button-response,42,196411,0.0-3.1-22.1,51928,List2A,white,woman,,TRUE,0,,,,,
2170,"<img src=""portrait/BW1.jpg""style=""width:400px;height:400px;""></img>",0,html-button-response,43,199593,0.0-3.1-24.1-0.1,51928,List2A,white,woman,,FALSE,0,,,,,
null,CORRECT,,html-keyboard-response,44,201123,0.0-3.1-24.1-1.1-0.1,51928,List2A,white,woman,,,,null,,,,
1290,<p>You got 6 out of 8 right first time. Press Continue.</p>,0,html-button-response,45,202414,0.0-3.1-25.1,51928,List2A,white,woman,,,,,,,,
1191,"As you did not score 100%, the memory game will repeat. Press Continue.",0,html-button-response,46,204611,0.0-3.1-26.1-0.1,51928,List2A,white,woman,,,,,,,,
35934,"<img src='img/portrait_matrix_list2.JPG' style='width:900px;height:500px;''></img><p>If you have memorised all the portraits and names and are ready to start, press Continue.</p><p><strong>Please note: Your memory of these faces will be tested 4 times during this experiment.</strong></p>",0,html-button-response,47,241551,0.0-3.2-0.2,51928,List2A,white,woman,,,,,,,,
3871,"<img src=""portrait/BM1.jpg""style=""width:400px;height:400px;""></img>",4,html-button-response,48,246436,0.0-3.2-1.2,51928,List2A,white,woman,,TRUE,4,,,,,
null,CORRECT,,html-keyboard-response,49,247947,0.0-3.2-2.2-0.2,51928,List2A,white,woman,,,,null,,,,
1869,"<img src=""portrait/WM2.jpg""style=""width:400px;height:400px;""></img>",7,html-button-response,50,249818,0.0-3.2-4.2,51928,List2A,white,woman,,TRUE,7,,,,,
null,CORRECT,,html-keyboard-response,51,251330,0.0-3.2-5.2-0.2,51928,List2A,white,woman,,,,null,,,,
8616,"<img src=""portrait/WW2.jpg""style=""width:400px;height:400px;""></img>",3,html-button-response,52,259951,0.0-3.2-7.2,51928,List2A,white,woman,,TRUE,3,,,,,
null,CORRECT,,html-keyboard-response,53,261477,0.0-3.2-8.2-0.2,51928,List2A,white,woman,,,,null,,,,
5142,"<img src=""portrait/BW2.jpg""style=""width:400px;height:400px;""></img>",0,html-button-response,54,266620,0.0-3.2-10.2,51928,List2A,white,woman,,TRUE,2,,,,,
1839,"<img src=""portrait/BW2.jpg""style=""width:400px;height:400px;""></img>",2,html-button-response,55,269468,0.0-3.2-12.2-0.2,51928,List2A,white,woman,,FALSE,2,,,,,
null,CORRECT,,html-keyboard-response,56,270979,0.0-3.2-12.2-1.2-0.2,51928,List2A,white,woman,,,,null,,,,
2402,"<img src=""portrait/WW1.jpg""style=""width:400px;height:400px;""></img>",1,html-button-response,57,273382,0.0-3.2-13.2,51928,List2A,white,woman,,TRUE,1,,,,,
null,CORRECT,,html-keyboard-response,58,274896,0.0-3.2-14.2-0.2,51928,List2A,white,woman,,,,null,,,,
4104,"<img src=""portrait/WM1.jpg""style=""width:400px;height:400px;""></img>",6,html-button-response,59,279002,0.0-3.2-16.2,51928,List2A,white,woman,,TRUE,6,,,,,
null,CORRECT,,html-keyboard-response,60,280512,0.0-3.2-17.2-0.2,51928,List2A,white,woman,,,,null,,,,
1803,"<img src=""portrait/BM2.jpg""style=""width:400px;height:400px;""></img>",5,html-button-response,61,282317,0.0-3.2-19.2,51928,List2A,white,woman,,TRUE,5,,,,,
null,CORRECT,,html-keyboard-response,62,283843,0.0-3.2-20.2-0.2,51928,List2A,white,woman,,,,null,,,,
7755,"<img src=""portrait/BW1.jpg""style=""width:400px;height:400px;""></img>",1,html-button-response,63,291599,0.0-3.2-22.2,51928,List2A,white,woman,,TRUE,0,,,,,
1921,"<img src=""portrait/BW1.jpg""style=""width:400px;height:400px;""></img>",0,html-button-response,64,294532,0.0-3.2-24.2-0.2,51928,List2A,white,woman,,FALSE,0,,,,,
null,CORRECT,,html-keyboard-response,65,296044,0.0-3.2-24.2-1.2-0.2,51928,List2A,white,woman,,,,null,,,,
1187,<p>You got 6 out of 8 right first time. Press Continue.</p>,0,html-button-response,66,297232,0.0-3.2-25.2,51928,List2A,white,woman,,,,,,,,
1390,"As you did not score 100%, the memory game will repeat. Press Continue.",0,html-button-response,67,299635,0.0-3.2-26.2-0.2,51928,List2A,white,woman,,,,,,,,
77075,"<img src='img/portrait_matrix_list2.JPG' style='width:900px;height:500px;''></img><p>If you have memorised all the portraits and names and are ready to start, press Continue.</p><p><strong>Please note: Your memory of these faces will be tested 4 times during this experiment.</strong></p>",0,html-button-response,68,377725,0.0-3.3-0.3,51928,List2A,white,woman,,,,,,,,
4838,"<img src=""portrait/BM1.jpg""style=""width:400px;height:400px;""></img>",4,html-button-response,69,383575,0.0-3.3-1.3,51928,List2A,white,woman,,TRUE,4,,,,,
null,CORRECT,,html-keyboard-response,70,385102,0.0-3.3-2.3-0.3,51928,List2A,white,woman,,,,null,,,,
3120,"<img src=""portrait/WM2.jpg""style=""width:400px;height:400px;""></img>",7,html-button-response,71,388224,0.0-3.3-4.3,51928,List2A,white,woman,,TRUE,7,,,,,
null,CORRECT,,html-keyboard-response,72,389736,0.0-3.3-5.3-0.3,51928,List2A,white,woman,,,,null,,,,
3918,"<img src=""portrait/WW2.jpg""style=""width:400px;height:400px;""></img>",3,html-button-response,73,393656,0.0-3.3-7.3,51928,List2A,white,woman,,TRUE,3,,,,,
null,CORRECT,,html-keyboard-response,74,395170,0.0-3.3-8.3-0.3,51928,List2A,white,woman,,,,null,,,,
2719,"<img src=""portrait/BW2.jpg""style=""width:400px;height:400px;""></img>",2,html-button-response,75,397891,0.0-3.3-10.3,51928,List2A,white,woman,,TRUE,2,,,,,
null,CORRECT,,html-keyboard-response,76,399403,0.0-3.3-11.3-0.3,51928,List2A,white,woman,,,,null,,,,
3781,"<img src=""portrait/WW1.jpg""style=""width:400px;height:400px;""></img>",1,html-button-response,77,403186,0.0-3.3-13.3,51928,List2A,white,woman,,TRUE,1,,,,,
null,CORRECT,,html-keyboard-response,78,404693,0.0-3.3-14.3-0.3,51928,List2A,white,woman,,,,null,,,,
3822,"<img src=""portrait/WM1.jpg""style=""width:400px;height:400px;""></img>",6,html-button-response,79,408517,0.0-3.3-16.3,51928,List2A,white,woman,,TRUE,6,,,,,
null,CORRECT,,html-keyboard-response,80,410025,0.0-3.3-17.3-0.3,51928,List2A,white,woman,,,,null,,,,
2148,"<img src=""portrait/BM2.jpg""style=""width:400px;height:400px;""></img>",5,html-button-response,81,412174,0.0-3.3-19.3,51928,List2A,white,woman,,TRUE,5,,,,,
null,CORRECT,,html-keyboard-response,82,413686,0.0-3.3-20.3-0.3,51928,List2A,white,woman,,,,null,,,,
7186,"<img src=""portrait/BW1.jpg""style=""width:400px;height:400px;""></img>",0,html-button-response,83,420874,0.0-3.3-22.3,51928,List2A,white,woman,,TRUE,0,,,,,
null,CORRECT,,html-keyboard-response,84,422400,0.0-3.3-23.3-0.3,51928,List2A,white,woman,,,,null,,,,
2404,<p>You got 8 out of 8 right first time. Press Continue.</p>,0,html-button-response,85,424805,0.0-3.3-25.3,51928,List2A,white,woman,,,,,,,,
27404,"<p>In this experiment, you will view photographs of the people from the memory game interacting.</p><p>By using the <strong>exact</strong> phrase given <i>after</i> the photograph appears and recalling the correct names of the people in the photographs, form a sentence describing the interaction. You do not need to capitalise names.</p><p>Type your answer in the space provided. Please complete every sentence before moving onto the next trial.</p><p>You will only have a few seconds to memorise each given photograph and phrase before you can respond, so try your best to focus.</p><p>An example is given below. Press 'Continue' when you are ready.</p><img src='img/speaking_example_v2.jpg' style='width:800px;height:460px;''></img>",0,html-button-response,86,453222,0.0-4.0,51928,List2A,white,woman,,,,,,,,
2237,"<p>Before the experiment starts, you will watch two example trials. Press 'Continue'.</p>",0,html-button-response,87,456470,0.0-5.0,51928,List2A,white,woman,,,,,,,,
null,<img src='img/speaking_WW.gif'></img>,,html-keyboard-response,88,459491,0.0-6.0,51928,List2A,white,woman,,,,null,,,,
null,<p>is speaking to</p>,,html-keyboard-response,89,461508,0.0-7.0,51928,List2A,white,woman,,,,null,,,,
2714,<p><b>Answer:</b> jane is speaking to ruth</p>,0,html-button-response,90,464222,0.0-8.0,51928,List2A,white,woman,,,,,,,,
null,<img src='img/pointing_BM.gif'></img>,,html-keyboard-response,91,467241,0.0-9.0,51928,List2A,white,woman,,,,null,,,,
null,<p>are pointing at each other</p>,,html-keyboard-response,92,469257,0.0-10.0,51928,List2A,white,woman,,,,null,,,,
2916,<p><b>Answer:</b> fred and mike are pointing at each other</p>,0,html-button-response,93,472174,0.0-11.0,51928,List2A,white,woman,,,,,,,,
2906,"<p>Ready to start the experiment?</p><br><p><strong>Remember to describe the picture using a full sentence,</strong></p><p><strong>that combines the names of the people with the given phrase.</strong></p><p><strong>If you do not do this correctly you will not be paid.</strong></p><p><strong> You do not need to capitalise names or use punctuation.</strong></p><br><p>Press 'Continue' to begin.</p>",0,html-button-response,94,476088,0.0-12.0,51928,List2A,white,woman,,,,,,,,
null,"<div style=""font-size:60px;"">+</div>",,html-keyboard-response,95,477603,0.0-13.0-0.0,51928,List2A,white,woman,,,,null,,,,
null,"<img src=""stim_listA/argue6.gif""</stim_listA>",,html-keyboard-response,96,479606,0.0-13.0-1.0,51928,List2A,white,woman,,,,null,,,,
null,are arguing with each other,,html-keyboard-response,97,481622,0.0-13.0-2.0,51928,List2A,white,woman,,,,null,,,,
18977,,,survey-text,98,500601,0.0-13.0-3.0,51928,List2A,white,woman,,,,,"{""Q0"":""Mike and Luke are arguing with each other""}","<img src=""stim_listA/argue6.gif""</stim_listA>",are arguing with each other,
null,"<div style=""font-size:60px;"">+</div>",,html-keyboard-response,99,501113,0.0-13.0-0.1,51928,List2A,white,woman,,,,null,,,,
null,"<img src=""stim_listA/dance1.gif""</stim_listA>",,html-keyboard-response,100,503119,0.0-13.0-1.1,51928,List2A,white,woman,,,,null,,,,
null,is dancing with,,html-keyboard-response,101,505130,0.0-13.0-2.1,51928,List2A,white,woman,,,,null,,,,
30953,,,survey-text,102,536084,0.0-13.0-3.1,51928,List2A,white,woman,,,,,"{""Q0"":""Luke is dancing with Jane""}","<img src=""stim_listA/dance1.gif""</stim_listA>",is dancing with,
null,"<div style=""font-size:60px;"">+</div>",,html-keyboard-response,103,536596,0.0-13.0-0.2,51928,List2A,white,woman,,,,null,,,,
null,"<img src=""stim_listA/hug8.gif""</stim_listA>",,html-keyboard-response,104,538602,0.0-13.0-1.2,51928,List2A,white,woman,,,,null,,,,
null,are hugging each other,,html-keyboard-response,105,540618,0.0-13.0-2.2,51928,List2A,white,woman,,,,null,,,,
27789,,,survey-text,106,568409,0.0-13.0-3.2,51928,List2A,white,woman,,,,,"{""Q0"":""Jane and Beth are hugging each other""}","<img src=""stim_listA/hug8.gif""</stim_listA>",are hugging each other,
null,"<div style=""font-size:60px;"">+</div>",,html-keyboard-response,107,568919,0.0-13.0-0.3,51928,List2A,white,woman,,,,null,,,,
null,"<img src=""stim_listA/argue3.gif""</stim_listA>",,html-keyboard-response,108,570931,0.0-13.0-1.3,51928,List2A,white,woman,,,,null,,,,
null,is arguing with,,html-keyboard-response,109,572944,0.0-13.0-2.3,51928,List2A,white,woman,,,,null,,,,
18694,,,survey-text,110,591640,0.0-13.0-3.3,51928,List2A,white,woman,,,,,"{""Q0"":""Beth is arguing with Mike""}","<img src=""stim_listA/argue3.gif""</stim_listA>",is arguing with,
null,"<div style=""font-size:60px;"">+</div>",,html-keyboard-response,111,592152,0.0-13.0-0.4,51928,List2A,white,woman,,,,null,,,,
null,"<img src=""stim_listA/meet8.gif""</stim_listA>",,html-keyboard-response,112,594160,0.0-13.0-1.4,51928,List2A,white,woman,,,,null,,,,
null,are meeting each other,,html-keyboard-response,113,596162,0.0-13.0-2.4,51928,List2A,white,woman,,,,null,,,,
30308,,,survey-text,114,626470,0.0-13.0-3.4,51928,List2A,white,woman,,,,,"{""Q0"":""Beth and Jane are meeting each other""}","<img src=""stim_listA/meet8.gif""</stim_listA>",are meeting each other,
null,"<div style=""font-size:60px;"">+</div>",,html-keyboard-response,115,626980,0.0-13.0-0.5,51928,List2A,white,woman,,,,null,,,,
null,"<img src=""stim_listA/fight3.gif""</stim_listA>",,html-keyboard-response,116,628990,0.0-13.0-1.5,51928,List2A,white,woman,,,,null,,,,
null,is fighting,,html-keyboard-response,117,631005,0.0-13.0-2.5,51928,List2A,white,woman,,,,null,,,,
18697,,,survey-text,118,649703,0.0-13.0-3.5,51928,List2A,white,woman,,,,,"{""Q0"":""Kate is fighting Mike""}","<img src=""stim_listA/fight3.gif""</stim_listA>",is fighting,
null,"<div style=""font-size:60px;"">+</div>",,html-keyboard-response,119,650212,0.0-13.0-0.6,51928,List2A,white,woman,,,,null,,,,
null,"<img src=""stim_listA/shout2.gif""</stim_listA>",,html-keyboard-response,120,652222,0.0-13.0-1.6,51928,List2A,white,woman,,,,null,,,,
null,are shouting at each other,,html-keyboard-response,121,654224,0.0-13.0-2.6,51928,List2A,white,woman,,,,null,,,,
29940,,,survey-text,122,684166,0.0-13.0-3.6,51928,List2A,white,woman,,,,,"{""Q0"":""Jane and Dave are shouting at each other""}","<img src=""stim_listA/shout2.gif""</stim_listA>",are shouting at each other,
null,"<div style=""font-size:60px;"">+</div>",,html-keyboard-response,123,684678,0.0-13.0-0.7,51928,List2A,white,woman,,,,null,,,,
null,"<img src=""stim_listA/marry1.gif""</stim_listA>",,html-keyboard-response,124,686689,0.0-13.0-1.7,51928,List2A,white,woman,,,,null,,,,
null,is marrying,,html-keyboard-response,125,688704,0.0-13.0-2.7,51928,List2A,white,woman,,,,null,,,,
10331,,,survey-text,126,699037,0.0-13.0-3.7,51928,List2A,white,woman,,,,,"{""Q0"":""Dave is marrying Ruth""}","<img src=""stim_listA/marry1.gif""</stim_listA>",is marrying,
null,"<div style=""font-size:60px;"">+</div>",,html-keyboard-response,127,699548,0.0-13.0-0.8,51928,List2A,white,woman,,,,null,,,,
null,"<img src=""stim_listA/kiss1.gif""</stim_listA>",,html-keyboard-response,128,701554,0.0-13.0-1.8,51928,List2A,white,woman,,,,null,,,,
null,is kissing,,html-keyboard-response,129,703567,0.0-13.0-2.8,51928,List2A,white,woman,,,,null,,,,
29298,,,survey-text,130,732867,0.0-13.0-3.8,51928,List2A,white,woman,,,,,"{""Q0"":""Luke is kissing Ruth""}","<img src=""stim_listA/kiss1.gif""</stim_listA>",is kissing,
null,"<div style=""font-size:60px;"">+</div>",,html-keyboard-response,131,733379,0.0-13.0-0.9,51928,List2A,white,woman,,,,null,,,,
null,"<img src=""stim_listA/marry8.gif""</stim_listA>",,html-keyboard-response,132,735387,0.0-13.0-1.9,51928,List2A,white,woman,,,,null,,,,
null,are marrying each other,,html-keyboard-response,133,737403,0.0-13.0-2.9,51928,List2A,white,woman,,,,null,,,,
15859,,,survey-text,134,753263,0.0-13.0-3.9,51928,List2A,white,woman,,,,,"{""Q0"":""Kate and Ruth are marrying each other""}","<img src=""stim_listA/marry8.gif""</stim_listA>",are marrying each other,
null,"<div style=""font-size:60px;"">+</div>",,html-keyboard-response,135,753774,0.0-13.0-0.10,51928,List2A,white,woman,,,,null,,,,
null,"<img src=""stim_listA/meet7.gif""</stim_listA>",,html-keyboard-response,136,755776,0.0-13.0-1.10,51928,List2A,white,woman,,,,null,,,,
null,is meeting,,html-keyboard-response,137,757783,0.0-13.0-2.10,51928,List2A,white,woman,,,,null,,,,
17295,,,survey-text,138,775079,0.0-13.0-3.10,51928,List2A,white,woman,,,,,"{""Q0"":""Kate is meeting Jane""}","<img src=""stim_listA/meet7.gif""</stim_listA>",is meeting,
null,"<div style=""font-size:60px;"">+</div>",,html-keyboard-response,139,775591,0.0-13.0-0.11,51928,List2A,white,woman,,,,null,,,,
null,"<img src=""stim_listA/meet5.gif""</stim_listA>",,html-keyboard-response,140,777597,0.0-13.0-1.11,51928,List2A,white,woman,,,,null,,,,
null,is meeting,,html-keyboard-response,141,779612,0.0-13.0-2.11,51928,List2A,white,woman,,,,null,,,,
9116,,,survey-text,142,788729,0.0-13.0-3.11,51928,List2A,white,woman,,,,,"{""Q0"":""Mike is meeting Dave""}","<img src=""stim_listA/meet5.gif""</stim_listA>",is meeting,
null,"<div style=""font-size:60px;"">+</div>",,html-keyboard-response,143,789241,0.0-13.0-0.12,51928,List2A,white,woman,,,,null,,,,
null,"<img src=""stim_listA/marry5.gif""</stim_listA>",,html-keyboard-response,144,791247,0.0-13.0-1.12,51928,List2A,white,woman,,,,null,,,,
null,is marrying,,html-keyboard-response,145,793263,0.0-13.0-2.12,51928,List2A,white,woman,,,,null,,,,
13417,,,survey-text,146,806681,0.0-13.0-3.12,51928,List2A,white,woman,,,,,"{""Q0"":""Dave is marrying Fred""}","<img src=""stim_listA/marry5.gif""</stim_listA>",is marrying,
null,"<div style=""font-size:60px;"">+</div>",,html-keyboard-response,147,807186,0.0-13.0-0.13,51928,List2A,white,woman,,,,null,,,,
null,"<img src=""stim_listA/argue7.gif""</stim_listA>",,html-keyboard-response,148,809200,0.0-13.0-1.13,51928,List2A,white,woman,,,,null,,,,
null,is arguing with,,html-keyboard-response,149,811214,0.0-13.0-2.13,51928,List2A,white,woman,,,,null,,,,
15200,,,survey-text,150,826414,0.0-13.0-3.13,51928,List2A,white,woman,,,,,"{""Q0"":""Beth is arguing with Jane""}","<img src=""stim_listA/argue7.gif""</stim_listA>",is arguing with,
null,"<div style=""font-size:60px;"">+</div>",,html-keyboard-response,151,826927,0.0-13.0-0.14,51928,List2A,white,woman,,,,null,,,,
null,"<img src=""stim_listA/talk7.gif""</stim_listA>",,html-keyboard-response,152,828934,0.0-13.0-1.14,51928,List2A,white,woman,,,,null,,,,
null,is talking to,,html-keyboard-response,153,830948,0.0-13.0-2.14,51928,List2A,white,woman,,,,null,,,,
17214,,,survey-text,154,848163,0.0-13.0-3.14,51928,List2A,white,woman,,,,,"{""Q0"":""Kate is talking to Ruth""}","<img src=""stim_listA/talk7.gif""</stim_listA>",is talking to,
null,"<div style=""font-size:60px;"">+</div>",,html-keyboard-response,155,848674,0.0-13.0-0.15,51928,List2A,white,woman,,,,null,,,,
null,"<img src=""stim_listA/dance8.gif""</stim_listA>",,html-keyboard-response,156,850682,0.0-13.0-1.15,51928,List2A,white,woman,,,,null,,,,
null,are dancing with each other,,html-keyboard-response,157,852697,0.0-13.0-2.15,51928,List2A,white,woman,,,,null,,,,
26785,,,survey-text,158,879484,0.0-13.0-3.15,51928,List2A,white,woman,,,,,"{""Q0"":""Beth and Jane are dancing with each other""}","<img src=""stim_listA/dance8.gif""</stim_listA>",are dancing with each other,
null,"<div style=""font-size:60px;"">+</div>",,html-keyboard-response,159,879995,0.0-13.0-0.16,51928,List2A,white,woman,,,,null,,,,
null,"<img src=""stim_listA/fight2.gif""</stim_listA>",,html-keyboard-response,160,882002,0.0-13.0-1.16,51928,List2A,white,woman,,,,null,,,,
null,are fighting each other,,html-keyboard-response,161,884018,0.0-13.0-2.16,51928,List2A,white,woman,,,,null,,,,
35646,,,survey-text,162,919664,0.0-13.0-3.16,51928,List2A,white,woman,,,,,"{""Q0"":""Ruth and Luke are fighting each other""}","<img src=""stim_listA/fight2.gif""</stim_listA>",are fighting each other,
null,"<div style=""font-size:60px;"">+</div>",,html-keyboard-response,163,920174,0.0-13.0-0.17,51928,List2A,white,woman,,,,null,,,,
null,"<img src=""stim_listA/hug6.gif""</stim_listA>",,html-keyboard-response,164,922189,0.0-13.0-1.17,51928,List2A,white,woman,,,,null,,,,
null,are hugging each other,,html-keyboard-response,165,924192,0.0-13.0-2.17,51928,List2A,white,woman,,,,null,,,,
12558,,,survey-text,166,936751,0.0-13.0-3.17,51928,List2A,white,woman,,,,,"{""Q0"":""Mike and Dave are hugging each other""}","<img src=""stim_listA/hug6.gif""</stim_listA>",are hugging each other,
null,"<div style=""font-size:60px;"">+</div>",,html-keyboard-response,167,937262,0.0-13.0-0.18,51928,List2A,white,woman,,,,null,,,,
null,"<img src=""stim_listA/touch5.gif""</stim_listA>",,html-keyboard-response,168,939271,0.0-13.0-1.18,51928,List2A,white,woman,,,,null,,,,
null,is touching,,html-keyboard-response,169,941286,0.0-13.0-2.18,51928,List2A,white,woman,,,,null,,,,
11278,,,survey-text,170,952565,0.0-13.0-3.18,51928,List2A,white,woman,,,,,"{""Q0"":""Mike is touching Dave""}","<img src=""stim_listA/touch5.gif""</stim_listA>",is touching,
null,"<div style=""font-size:60px;"">+</div>",,html-keyboard-response,171,953072,0.0-13.0-0.19,51928,List2A,white,woman,,,,null,,,,
null,"<img src=""stim_listA/shout6.gif""</stim_listA>",,html-keyboard-response,172,955086,0.0-13.0-1.19,51928,List2A,white,woman,,,,null,,,,
null,are shouting at each other,,html-keyboard-response,173,957102,0.0-13.0-2.19,51928,List2A,white,woman,,,,null,,,,
14295,,,survey-text,174,971398,0.0-13.0-3.19,51928,List2A,white,woman,,,,,"{""Q0"":""Mike and Dave are shouting at each other""}","<img src=""stim_listA/shout6.gif""</stim_listA>",are shouting at each other,
10382,"<img src='img/portrait_matrix_list2.JPG' style='width:900px;height:500px;''></img><p>If you have memorised all the portraits and names and are ready to start, press Continue.</p><p><strong>Please note: Your memory of these faces will be tested 4 times during this experiment.</strong></p>",0,html-button-response,175,981782,0.0-14.0-0.0,51928,List2A,white,woman,,,,,,,,
2707,"<img src=""portrait/BM1.jpg""style=""width:400px;height:400px;""></img>",4,html-button-response,176,985500,0.0-14.0-1.0,51928,List2A,white,woman,,TRUE,4,,,,,
null,CORRECT,,html-keyboard-response,177,987025,0.0-14.0-2.0-0.0,51928,List2A,white,woman,,,,null,,,,
4173,"<img src=""portrait/WW2.jpg""style=""width:400px;height:400px;""></img>",3,html-button-response,178,991200,0.0-14.0-4.0,51928,List2A,white,woman,,TRUE,3,,,,,
null,CORRECT,,html-keyboard-response,179,992711,0.0-14.0-5.0-0.0,51928,List2A,white,woman,,,,null,,,,
2987,"<img src=""portrait/BW2.jpg""style=""width:400px;height:400px;""></img>",2,html-button-response,180,995700,0.0-14.0-7.0,51928,List2A,white,woman,,TRUE,2,,,,,
null,CORRECT,,html-keyboard-response,181,997212,0.0-14.0-8.0-0.0,51928,List2A,white,woman,,,,null,,,,
1734,"<img src=""portrait/WM2.jpg""style=""width:400px;height:400px;""></img>",7,html-button-response,182,998948,0.0-14.0-10.0,51928,List2A,white,woman,,TRUE,7,,,,,
null,CORRECT,,html-keyboard-response,183,1000475,0.0-14.0-11.0-0.0,51928,List2A,white,woman,,,,null,,,,
1993,"<img src=""portrait/WW1.jpg""style=""width:400px;height:400px;""></img>",1,html-button-response,184,1002470,0.0-14.0-13.0,51928,List2A,white,woman,,TRUE,1,,,,,
null,CORRECT,,html-keyboard-response,185,1003977,0.0-14.0-14.0-0.0,51928,List2A,white,woman,,,,null,,,,
2759,"<img src=""portrait/WM1.jpg""style=""width:400px;height:400px;""></img>",6,html-button-response,186,1006738,0.0-14.0-16.0,51928,List2A,white,woman,,TRUE,6,,,,,
null,CORRECT,,html-keyboard-response,187,1008245,0.0-14.0-17.0-0.0,51928,List2A,white,woman,,,,null,,,,
4186,"<img src=""portrait/BW1.jpg""style=""width:400px;height:400px;""></img>",0,html-button-response,188,1012432,0.0-14.0-19.0,51928,List2A,white,woman,,TRUE,0,,,,,
null,CORRECT,,html-keyboard-response,189,1013944,0.0-14.0-20.0-0.0,51928,List2A,white,woman,,,,null,,,,
1836,"<img src=""portrait/BM2.jpg""style=""width:400px;height:400px;""></img>",5,html-button-response,190,1015781,0.0-14.0-22.0,51928,List2A,white,woman,,TRUE,5,,,,,
null,CORRECT,,html-keyboard-response,191,1017295,0.0-14.0-23.0-0.0,51928,List2A,white,woman,,,,null,,,,
1886,<p>You got 8 out of 8 right first time. Press Continue.</p>,0,html-button-response,192,1019183,0.0-14.0-25.0,51928,List2A,white,woman,,,,,,,,
null,"<div style=""font-size:60px;"">+</div>",,html-keyboard-response,193,1020709,0.0-15.0-0.0,51928,List2A,white,woman,,,,null,,,,
null,"<img src=""stim_listA/touch7.gif""</stim_listA>",,html-keyboard-response,194,1022719,0.0-15.0-1.0,51928,List2A,white,woman,,,,null,,,,
null,is touching,,html-keyboard-response,195,1024735,0.0-15.0-2.0,51928,List2A,white,woman,,,,null,,,,
16828,,,survey-text,196,1041565,0.0-15.0-3.0,51928,List2A,white,woman,,,,,"{""Q0"":""Jane is touching Kate""}","<img src=""stim_listA/touch7.gif""</stim_listA>",is touching,
null,"<div style=""font-size:60px;"">+</div>",,html-keyboard-response,197,1042077,0.0-15.0-0.1,51928,List2A,white,woman,,,,null,,,,
null,"<img src=""stim_listA/dance7.gif""</stim_listA>",,html-keyboard-response,198,1044084,0.0-15.0-1.1,51928,List2A,white,woman,,,,null,,,,
null,is dancing with,,html-keyboard-response,199,1046099,0.0-15.0-2.1,51928,List2A,white,woman,,,,null,,,,
13517,,,survey-text,200,1059617,0.0-15.0-3.1,51928,List2A,white,woman,,,,,"{""Q0"":""Ruth is dancing with Kate""}","<img src=""stim_listA/dance7.gif""</stim_listA>",is dancing with,
null,"<div style=""font-size:60px;"">+</div>",,html-keyboard-response,201,1060130,0.0-15.0-0.2,51928,List2A,white,woman,,,,null,,,,
null,"<img src=""stim_listA/kiss8.gif""</stim_listA>",,html-keyboard-response,202,1062143,0.0-15.0-1.2,51928,List2A,white,woman,,,,null,,,,
null,are kissing each other,,html-keyboard-response,203,1064157,0.0-15.0-2.2,51928,List2A,white,woman,,,,null,,,,
4809,,,survey-text,204,1068967,0.0-15.0-3.2,51928,List2A,white,woman,,,,,"{""Q0"":""unsure""}","<img src=""stim_listA/kiss8.gif""</stim_listA>",are kissing each other,
null,"<div style=""font-size:60px;"">+</div>",,html-keyboard-response,205,1069480,0.0-15.0-0.3,51928,List2A,white,woman,,,,null,,,,
null,"<img src=""stim_listA/shout3.gif""</stim_listA>",,html-keyboard-response,206,1071487,0.0-15.0-1.3,51928,List2A,white,woman,,,,null,,,,
null,is shouting at,,html-keyboard-response,207,1073501,0.0-15.0-2.3,51928,List2A,white,woman,,,,null,,,,
13197,,,survey-text,208,1086699,0.0-15.0-3.3,51928,List2A,white,woman,,,,,"{""Q0"":""Fred is shouting at Beth""}","<img src=""stim_listA/shout3.gif""</stim_listA>",is shouting at,
null,"<div style=""font-size:60px;"">+</div>",,html-keyboard-response,209,1087212,0.0-15.0-0.4,51928,List2A,white,woman,,,,null,,,,
null,"<img src=""stim_listA/marry7.gif""</stim_listA>",,html-keyboard-response,210,1089228,0.0-15.0-1.4,51928,List2A,white,woman,,,,null,,,,
null,is marrying,,html-keyboard-response,211,1091235,0.0-15.0-2.4,51928,List2A,white,woman,,,,null,,,,
13662,,,survey-text,212,1104898,0.0-15.0-3.4,51928,List2A,white,woman,,,,,"{""Q0"":""Beth is marrying Jane""}","<img src=""stim_listA/marry7.gif""</stim_listA>",is marrying,
null,"<div style=""font-size:60px;"">+</div>",,html-keyboard-response,213,1105415,0.0-15.0-0.5,51928,List2A,white,woman,,,,null,,,,
null,"<img src=""stim_listA/hug2.gif""</stim_listA>",,html-keyboard-response,214,1107424,0.0-15.0-1.5,51928,List2A,white,woman,,,,null,,,,
null,are hugging each other,,html-keyboard-response,215,1109435,0.0-15.0-2.5,51928,List2A,white,woman,,,,null,,,,
15709,,,survey-text,216,1125145,0.0-15.0-3.5,51928,List2A,white,woman,,,,,"{""Q0"":""Jane and Dave are hugging each other""}","<img src=""stim_listA/hug2.gif""</stim_listA>",are hugging each other,
null,"<div style=""font-size:60px;"">+</div>",,html-keyboard-response,217,1125658,0.0-15.0-0.6,51928,List2A,white,woman,,,,null,,,,
null,"<img src=""stim_listA/shout7.gif""</stim_listA>",,html-keyboard-response,218,1127665,0.0-15.0-1.6,51928,List2A,white,woman,,,,null,,,,
null,is shouting at,,html-keyboard-response,219,1129668,0.0-15.0-2.6,51928,List2A,white,woman,,,,null,,,,
12025,,,survey-text,220,1141695,0.0-15.0-3.6,51928,List2A,white,woman,,,,,"{""Q0"":""Ruth is shouting at Beth""}","<img src=""stim_listA/shout7.gif""</stim_listA>",is shouting at,
null,"<div style=""font-size:60px;"">+</div>",,html-keyboard-response,221,1142205,0.0-15.0-0.7,51928,List2A,white,woman,,,,null,,,,
null,"<img src=""stim_listA/shout5.gif""</stim_listA>",,html-keyboard-response,222,1144213,0.0-15.0-1.7,51928,List2A,white,woman,,,,null,,,,
null,is shouting at,,html-keyboard-response,223,1146214,0.0-15.0-2.7,51928,List2A,white,woman,,,,null,,,,
11644,,,survey-text,224,1157859,0.0-15.0-3.7,51928,List2A,white,woman,,,,,"{""Q0"":""Fred is shouting at Luke""}","<img src=""stim_listA/shout5.gif""</stim_listA>",is shouting at,
null,"<div style=""font-size:60px;"">+</div>",,html-keyboard-response,225,1158373,0.0-15.0-0.8,51928,List2A,white,woman,,,,null,,,,
null,"<img src=""stim_listA/shout4.gif""</stim_listA>",,html-keyboard-response,226,1160380,0.0-15.0-1.8,51928,List2A,white,woman,,,,null,,,,
null,are shouting at each other,,html-keyboard-response,227,1162383,0.0-15.0-2.8,51928,List2A,white,woman,,,,null,,,,
14199,,,survey-text,228,1176584,0.0-15.0-3.8,51928,List2A,white,woman,,,,,"{""Q0"":""Mike and Kate are shouting at each other""}","<img src=""stim_listA/shout4.gif""</stim_listA>",are shouting at each other,
null,"<div style=""font-size:60px;"">+</div>",,html-keyboard-response,229,1177098,0.0-15.0-0.9,51928,List2A,white,woman,,,,null,,,,
null,"<img src=""stim_listA/fight7.gif""</stim_listA>",,html-keyboard-response,230,1179105,0.0-15.0-1.9,51928,List2A,white,woman,,,,null,,,,
null,is fighting,,html-keyboard-response,231,1181121,0.0-15.0-2.9,51928,List2A,white,woman,,,,null,,,,
10746,,,survey-text,232,1191868,0.0-15.0-3.9,51928,List2A,white,woman,,,,,"{""Q0"":""Kate is fighting Jane""}","<img src=""stim_listA/fight7.gif""</stim_listA>",is fighting,
null,"<div style=""font-size:60px;"">+</div>",,html-keyboard-response,233,1192378,0.0-15.0-0.10,51928,List2A,white,woman,,,,null,,,,
null,"<img src=""stim_listA/talk8.gif""</stim_listA>",,html-keyboard-response,234,1194389,0.0-15.0-1.10,51928,List2A,white,woman,,,,null,,,,
null,are talking to each other,,html-keyboard-response,235,1196404,0.0-15.0-2.10,51928,List2A,white,woman,,,,null,,,,
26661,,,survey-text,236,1223066,0.0-15.0-3.10,51928,List2A,white,woman,,,,,"{""Q0"":""Jane and Ruth are talking to each other""}","<img src=""stim_listA/talk8.gif""</stim_listA>",are talking to each other,
null,"<div style=""font-size:60px;"">+</div>",,html-keyboard-response,237,1223580,0.0-15.0-0.11,51928,List2A,white,woman,,,,null,,,,
null,"<img src=""stim_listA/argue5.gif""</stim_listA>",,html-keyboard-response,238,1225586,0.0-15.0-1.11,51928,List2A,white,woman,,,,null,,,,
null,is arguing with,,html-keyboard-response,239,1227588,0.0-15.0-2.11,51928,List2A,white,woman,,,,null,,,,
9415,,,survey-text,240,1237004,0.0-15.0-3.11,51928,List2A,white,woman,,,,,"{""Q0"":""Fred is arguing with Dave""}","<img src=""stim_listA/argue5.gif""</stim_listA>",is arguing with,
null,"<div style=""font-size:60px;"">+</div>",,html-keyboard-response,241,1237515,0.0-15.0-0.12,51928,List2A,white,woman,,,,null,,,,
null,"<img src=""stim_listA/touch2.gif""</stim_listA>",,html-keyboard-response,242,1239524,0.0-15.0-1.12,51928,List2A,white,woman,,,,null,,,,
null,are touching each other,,html-keyboard-response,243,1241525,0.0-15.0-2.12,51928,List2A,white,woman,,,,null,,,,
11744,,,survey-text,244,1253271,0.0-15.0-3.12,51928,List2A,white,woman,,,,,"{""Q0"":""Luke and Ruth are touching each other""}","<img src=""stim_listA/touch2.gif""</stim_listA>",are touching each other,
null,"<div style=""font-size:60px;"">+</div>",,html-keyboard-response,245,1253783,0.0-15.0-0.13,51928,List2A,white,woman,,,,null,,,,
null,"<img src=""stim_listA/kiss4.gif""</stim_listA>",,html-keyboard-response,246,1255791,0.0-15.0-1.13,51928,List2A,white,woman,,,,null,,,,
null,are kissing each other,,html-keyboard-response,247,1257793,0.0-15.0-2.13,51928,List2A,white,woman,,,,null,,,,
13661,,,survey-text,248,1271454,0.0-15.0-3.13,51928,List2A,white,woman,,,,,"{""Q0"":""Mike and Kate are kissing each other""}","<img src=""stim_listA/kiss4.gif""</stim_listA>",are kissing each other,
null,"<div style=""font-size:60px;"">+</div>",,html-keyboard-response,249,1271966,0.0-15.0-0.14,51928,List2A,white,woman,,,,null,,,,
null,"<img src=""stim_listA/dance4.gif""</stim_listA>",,html-keyboard-response,250,1273973,0.0-15.0-1.14,51928,List2A,white,woman,,,,null,,,,
null,are dancing with each other,,html-keyboard-response,251,1275987,0.0-15.0-2.14,51928,List2A,white,woman,,,,null,,,,
15670,,,survey-text,252,1291658,0.0-15.0-3.14,51928,List2A,white,woman,,,,,"{""Q0"":""Mike and Beth are dancing with each other""}","<img src=""stim_listA/dance4.gif""</stim_listA>",are dancing with each other,
null,"<div style=""font-size:60px;"">+</div>",,html-keyboard-response,253,1292170,0.0-15.0-0.15,51928,List2A,white,woman,,,,null,,,,
null,"<img src=""stim_listA/hug7.gif""</stim_listA>",,html-keyboard-response,254,1294178,0.0-15.0-1.15,51928,List2A,white,woman,,,,null,,,,
null,is hugging,,html-keyboard-response,255,1296179,0.0-15.0-2.15,51928,List2A,white,woman,,,,null,,,,
10181,,,survey-text,256,1306362,0.0-15.0-3.15,51928,List2A,white,woman,,,,,"{""Q0"":""Ruth is hugging Beth""}","<img src=""stim_listA/hug7.gif""</stim_listA>",is hugging,
null,"<div style=""font-size:60px;"">+</div>",,html-keyboard-response,257,1306864,0.0-15.0-0.16,51928,List2A,white,woman,,,,null,,,,
null,"<img src=""stim_listA/marry6.gif""</stim_listA>",,html-keyboard-response,258,1308884,0.0-15.0-1.16,51928,List2A,white,woman,,,,null,,,,
null,are marrying each other,,html-keyboard-response,259,1310895,0.0-15.0-2.16,51928,List2A,white,woman,,,,null,,,,
12828,,,survey-text,260,1323725,0.0-15.0-3.16,51928,List2A,white,woman,,,,,"{""Q0"":""Luke and Mike are marrying each other""}","<img src=""stim_listA/marry6.gif""</stim_listA>",are marrying each other,
null,"<div style=""font-size:60px;"">+</div>",,html-keyboard-response,261,1324236,0.0-15.0-0.17,51928,List2A,white,woman,,,,null,,,,
null,"<img src=""stim_listA/hug3.gif""</stim_listA>",,html-keyboard-response,262,1326247,0.0-15.0-1.17,51928,List2A,white,woman,,,,null,,,,
null,is hugging,,html-keyboard-response,263,1328261,0.0-15.0-2.17,51928,List2A,white,woman,,,,null,,,,
10310,,,survey-text,264,1338573,0.0-15.0-3.17,51928,List2A,white,woman,,,,,"{""Q0"":""Fred is hugging Beth""}","<img src=""stim_listA/hug3.gif""</stim_listA>",is hugging,
null,"<div style=""font-size:60px;"">+</div>",,html-keyboard-response,265,1339083,0.0-15.0-0.18,51928,List2A,white,woman,,,,null,,,,
null,"<img src=""stim_listA/meet3.gif""</stim_listA>",,html-keyboard-response,266,1341092,0.0-15.0-1.18,51928,List2A,white,woman,,,,null,,,,
null,is meeting,,html-keyboard-response,267,1343094,0.0-15.0-2.18,51928,List2A,white,woman,,,,null,,,,
8915,,,survey-text,268,1352010,0.0-15.0-3.18,51928,List2A,white,woman,,,,,"{""Q0"":""Mike is meeting Beth""}","<img src=""stim_listA/meet3.gif""</stim_listA>",is meeting,
null,"<div style=""font-size:60px;"">+</div>",,html-keyboard-response,269,1352521,0.0-15.0-0.19,51928,List2A,white,woman,,,,null,,,,
null,"<img src=""stim_listA/talk3.gif""</stim_listA>",,html-keyboard-response,270,1354536,0.0-15.0-1.19,51928,List2A,white,woman,,,,null,,,,
null,is talking to,,html-keyboard-response,271,1356551,0.0-15.0-2.19,51928,List2A,white,woman,,,,null,,,,
9838,,,survey-text,272,1366391,0.0-15.0-3.19,51928,List2A,white,woman,,,,,"{""Q0"":""Fred is talking to Kate""}","<img src=""stim_listA/talk3.gif""</stim_listA>",is talking to,
3016,"<img src='img/portrait_matrix_list2.JPG' style='width:900px;height:500px;''></img><p>If you have memorised all the portraits and names and are ready to start, press Continue.</p><p><strong>Please note: Your memory of these faces will be tested 4 times during this experiment.</strong></p>",0,html-button-response,273,1369409,0.0-16.0-0.0,51928,List2A,white,woman,,,,,,,,
2330,"<img src=""portrait/WM2.jpg""style=""width:400px;height:400px;""></img>",7,html-button-response,274,1372742,0.0-16.0-1.0,51928,List2A,white,woman,,TRUE,7,,,,,
null,CORRECT,,html-keyboard-response,275,1374255,0.0-16.0-2.0-0.0,51928,List2A,white,woman,,,,null,,,,
2004,"<img src=""portrait/BM1.jpg""style=""width:400px;height:400px;""></img>",4,html-button-response,276,1376261,0.0-16.0-4.0,51928,List2A,white,woman,,TRUE,4,,,,,
null,CORRECT,,html-keyboard-response,277,1377786,0.0-16.0-5.0-0.0,51928,List2A,white,woman,,,,null,,,,
2955,"<img src=""portrait/BW2.jpg""style=""width:400px;height:400px;""></img>",2,html-button-response,278,1380742,0.0-16.0-7.0,51928,List2A,white,woman,,TRUE,2,,,,,
null,CORRECT,,html-keyboard-response,279,1382253,0.0-16.0-8.0-0.0,51928,List2A,white,woman,,,,null,,,,
1592,"<img src=""portrait/WW1.jpg""style=""width:400px;height:400px;""></img>",1,html-button-response,280,1383846,0.0-16.0-10.0,51928,List2A,white,woman,,TRUE,1,,,,,
null,CORRECT,,html-keyboard-response,281,1385355,0.0-16.0-11.0-0.0,51928,List2A,white,woman,,,,null,,,,
3386,"<img src=""portrait/BW1.jpg""style=""width:400px;height:400px;""></img>",0,html-button-response,282,1388742,0.0-16.0-13.0,51928,List2A,white,woman,,TRUE,0,,,,,
null,CORRECT,,html-keyboard-response,283,1390254,0.0-16.0-14.0-0.0,51928,List2A,white,woman,,,,null,,,,
1736,"<img src=""portrait/WM1.jpg""style=""width:400px;height:400px;""></img>",6,html-button-response,284,1391992,0.0-16.0-16.0,51928,List2A,white,woman,,TRUE,6,,,,,
null,CORRECT,,html-keyboard-response,285,1393520,0.0-16.0-17.0-0.0,51928,List2A,white,woman,,,,null,,,,
1921,"<img src=""portrait/BM2.jpg""style=""width:400px;height:400px;""></img>",5,html-button-response,286,1395443,0.0-16.0-19.0,51928,List2A,white,woman,,TRUE,5,,,,,
null,CORRECT,,html-keyboard-response,287,1396955,0.0-16.0-20.0-0.0,51928,List2A,white,woman,,,,null,,,,
3683,"<img src=""portrait/WW2.jpg""style=""width:400px;height:400px;""></img>",3,html-button-response,288,1400640,0.0-16.0-22.0,51928,List2A,white,woman,,TRUE,3,,,,,
null,CORRECT,,html-keyboard-response,289,1402153,0.0-16.0-23.0-0.0,51928,List2A,white,woman,,,,null,,,,
1169,<p>You got 8 out of 8 right first time. Press Continue.</p>,0,html-button-response,290,1403323,0.0-16.0-25.0,51928,List2A,white,woman,,,,,,,,
null,"<div style=""font-size:60px;"">+</div>",,html-keyboard-response,291,1404831,0.0-17.0-0.0,51928,List2A,white,woman,,,,null,,,,
null,"<img src=""stim_listA/touch6.gif""</stim_listA>",,html-keyboard-response,292,1406834,0.0-17.0-1.0,51928,List2A,white,woman,,,,null,,,,
null,are touching each other,,html-keyboard-response,293,1408845,0.0-17.0-2.0,51928,List2A,white,woman,,,,null,,,,
141953,,,survey-text,294,1550800,0.0-17.0-3.0,51928,List2A,white,woman,,,,,"{""Q0"":""Luke and Fred are touching each other""}","<img src=""stim_listA/touch6.gif""</stim_listA>",are touching each other,
null,"<div style=""font-size:60px;"">+</div>",,html-keyboard-response,295,1551312,0.0-17.0-0.1,51928,List2A,white,woman,,,,null,,,,
null,"<img src=""stim_listA/argue2.gif""</stim_listA>",,html-keyboard-response,296,1553320,0.0-17.0-1.1,51928,List2A,white,woman,,,,null,,,,
null,are arguing with each other,,html-keyboard-response,297,1555336,0.0-17.0-2.1,51928,List2A,white,woman,,,,null,,,,
67787,,,survey-text,298,1623125,0.0-17.0-3.1,51928,List2A,white,woman,,,,,"{""Q0"":""Luke and Jane are arguing with each other""}","<img src=""stim_listA/argue2.gif""</stim_listA>",are arguing with each other,
null,"<div style=""font-size:60px;"">+</div>",,html-keyboard-response,299,1623637,0.0-17.0-0.2,51928,List2A,white,woman,,,,null,,,,
null,"<img src=""stim_listA/argue8.gif""</stim_listA>",,html-keyboard-response,300,1625645,0.0-17.0-1.2,51928,List2A,white,woman,,,,null,,,,
null,are arguing with each other,,html-keyboard-response,301,1627661,0.0-17.0-2.2,51928,List2A,white,woman,,,,null,,,,
27495,,,survey-text,302,1655156,0.0-17.0-3.2,51928,List2A,white,woman,,,,,"{""Q0"":""Ruth and Kate are arguing with each other""}","<img src=""stim_listA/argue8.gif""</stim_listA>",are arguing with each other,
null,"<div style=""font-size:60px;"">+</div>",,html-keyboard-response,303,1655669,0.0-17.0-0.3,51928,List2A,white,woman,,,,null,,,,
null,"<img src=""stim_listA/touch3.gif""</stim_listA>",,html-keyboard-response,304,1657676,0.0-17.0-1.3,51928,List2A,white,woman,,,,null,,,,
null,is touching,,html-keyboard-response,305,1659678,0.0-17.0-2.3,51928,List2A,white,woman,,,,null,,,,
27969,,,survey-text,306,1687648,0.0-17.0-3.3,51928,List2A,white,woman,,,,,"{""Q0"":""Mike is touching Kate""}","<img src=""stim_listA/touch3.gif""</stim_listA>",is touching,
null,"<div style=""font-size:60px;"">+</div>",,html-keyboard-response,307,1688160,0.0-17.0-0.4,51928,List2A,white,woman,,,,null,,,,
null,"<img src=""stim_listA/fight1.gif""</stim_listA>",,html-keyboard-response,308,1690172,0.0-17.0-1.4,51928,List2A,white,woman,,,,null,,,,
null,is fighting,,html-keyboard-response,309,1692187,0.0-17.0-2.4,51928,List2A,white,woman,,,,null,,,,
18599,,,survey-text,310,1710788,0.0-17.0-3.4,51928,List2A,white,woman,,,,,"{""Q0"":""Dave is fighting Jane""}","<img src=""stim_listA/fight1.gif""</stim_listA>",is fighting,
null,"<div style=""font-size:60px;"">+</div>",,html-keyboard-response,311,1711289,0.0-17.0-0.5,51928,List2A,white,woman,,,,null,,,,
null,"<img src=""stim_listA/touch1.gif""</stim_listA>",,html-keyboard-response,312,1713299,0.0-17.0-1.5,51928,List2A,white,woman,,,,null,,,,
null,is touching,,html-keyboard-response,313,1715315,0.0-17.0-2.5,51928,List2A,white,woman,,,,null,,,,
17945,,,survey-text,314,1733261,0.0-17.0-3.5,51928,List2A,white,woman,,,,,"{""Q0"":""Dave is touching Jane""}","<img src=""stim_listA/touch1.gif""</stim_listA>",is touching,
null,"<div style=""font-size:60px;"">+</div>",,html-keyboard-response,315,1733774,0.0-17.0-0.6,51928,List2A,white,woman,,,,null,,,,
null,"<img src=""stim_listA/fight6.gif""</stim_listA>",,html-keyboard-response,316,1735781,0.0-17.0-1.6,51928,List2A,white,woman,,,,null,,,,
null,are fighting each other,,html-keyboard-response,317,1737796,0.0-17.0-2.6,51928,List2A,white,woman,,,,null,,,,
20271,,,survey-text,318,1758068,0.0-17.0-3.6,51928,List2A,white,woman,,,,,"{""Q0"":""Luke and Fred are fighting each other""}","<img src=""stim_listA/fight6.gif""</stim_listA>",are fighting each other,
null,"<div style=""font-size:60px;"">+</div>",,html-keyboard-response,319,1758581,0.0-17.0-0.7,51928,List2A,white,woman,,,,null,,,,
null,"<img src=""stim_listA/meet4.gif""</stim_listA>",,html-keyboard-response,320,1760589,0.0-17.0-1.7,51928,List2A,white,woman,,,,null,,,,
null,are meeting each other,,html-keyboard-response,321,1762605,0.0-17.0-2.7,51928,List2A,white,woman,,,,null,,,,
19814,,,survey-text,322,1782420,0.0-17.0-3.7,51928,List2A,white,woman,,,,,"{""Q0"":""Fred and Beth are meeting each other""}","<img src=""stim_listA/meet4.gif""</stim_listA>",are meeting each other,
null,"<div style=""font-size:60px;"">+</div>",,html-keyboard-response,323,1782929,0.0-17.0-0.8,51928,List2A,white,woman,,,,null,,,,
null,"<img src=""stim_listA/kiss6.gif""</stim_listA>",,html-keyboard-response,324,1784937,0.0-17.0-1.8,51928,List2A,white,woman,,,,null,,,,
null,are kissing each other,,html-keyboard-response,325,1786939,0.0-17.0-2.8,51928,List2A,white,woman,,,,null,,,,
20663,,,survey-text,326,1807603,0.0-17.0-3.8,51928,List2A,white,woman,,,,,"{""Q0"":""Dave and Mike are kissing each other""}","<img src=""stim_listA/kiss6.gif""</stim_listA>",are kissing each other,
null,"<div style=""font-size:60px;"">+</div>",,html-keyboard-response,327,1808105,0.0-17.0-0.9,51928,List2A,white,woman,,,,null,,,,
null,"<img src=""stim_listA/touch4.gif""</stim_listA>",,html-keyboard-response,328,1810108,0.0-17.0-1.9,51928,List2A,white,woman,,,,null,,,,
null,are touching each other,,html-keyboard-response,329,1812115,0.0-17.0-2.9,51928,List2A,white,woman,,,,null,,,,
19747,,,survey-text,330,1831863,0.0-17.0-3.9,51928,List2A,white,woman,,,,,"{""Q0"":""Fred and Beth are touching each other""}","<img src=""stim_listA/touch4.gif""</stim_listA>",are touching each other,
null,"<div style=""font-size:60px;"">+</div>",,html-keyboard-response,331,1832375,0.0-17.0-0.10,51928,List2A,white,woman,,,,null,,,,
null,"<img src=""stim_listA/talk1.gif""</stim_listA>",,html-keyboard-response,332,1834385,0.0-17.0-1.10,51928,List2A,white,woman,,,,null,,,,
null,is talking to,,html-keyboard-response,333,1836399,0.0-17.0-2.10,51928,List2A,white,woman,,,,null,,,,
15845,,,survey-text,334,1852246,0.0-17.0-3.10,51928,List2A,white,woman,,,,,"{""Q0"":""Luke is talking to Jane""}","<img src=""stim_listA/talk1.gif""</stim_listA>",is talking to,
null,"<div style=""font-size:60px;"">+</div>",,html-keyboard-response,335,1852756,0.0-17.0-0.11,51928,List2A,white,woman,,,,null,,,,
null,"<img src=""stim_listA/meet1.gif""</stim_listA>",,html-keyboard-response,336,1854764,0.0-17.0-1.11,51928,List2A,white,woman,,,,null,,,,
null,is meeting,,html-keyboard-response,337,1856765,0.0-17.0-2.11,51928,List2A,white,woman,,,,null,,,,
13022,,,survey-text,338,1869789,0.0-17.0-3.11,51928,List2A,white,woman,,,,,"{""Q0"":""Jane is meeting Dave""}","<img src=""stim_listA/meet1.gif""</stim_listA>",is meeting,
null,"<div style=""font-size:60px;"">+</div>",,html-keyboard-response,339,1870301,0.0-17.0-0.12,51928,List2A,white,woman,,,,null,,,,
null,"<img src=""stim_listA/fight4.gif""</stim_listA>",,html-keyboard-response,340,1872309,0.0-17.0-1.12,51928,List2A,white,woman,,,,null,,,,
null,are fighting each other,,html-keyboard-response,341,1874311,0.0-17.0-2.12,51928,List2A,white,woman,,,,null,,,,
17791,,,survey-text,342,1892104,0.0-17.0-3.12,51928,List2A,white,woman,,,,,"{""Q0"":""Fred and Beth are fighting each other""}","<img src=""stim_listA/fight4.gif""</stim_listA>",are fighting each other,
null,"<div style=""font-size:60px;"">+</div>",,html-keyboard-response,343,1892615,0.0-17.0-0.13,51928,List2A,white,woman,,,,null,,,,
null,"<img src=""stim_listA/dance5.gif""</stim_listA>",,html-keyboard-response,344,1894625,0.0-17.0-1.13,51928,List2A,white,woman,,,,null,,,,
null,is dancing with,,html-keyboard-response,345,1896628,0.0-17.0-2.13,51928,List2A,white,woman,,,,null,,,,
15349,,,survey-text,346,1911978,0.0-17.0-3.13,51928,List2A,white,woman,,,,,"{""Q0"":""Mike is dancing with Luke""}","<img src=""stim_listA/dance5.gif""</stim_listA>",is dancing with,
null,"<div style=""font-size:60px;"">+</div>",,html-keyboard-response,347,1912482,0.0-17.0-0.14,51928,List2A,white,woman,,,,null,,,,
null,"<img src=""stim_listA/kiss5.gif""</stim_listA>",,html-keyboard-response,348,1914490,0.0-17.0-1.14,51928,List2A,white,woman,,,,null,,,,
null,is kissing,,html-keyboard-response,349,1916493,0.0-17.0-2.14,51928,List2A,white,woman,,,,null,,,,
13601,,,survey-text,350,1930095,0.0-17.0-3.14,51928,List2A,white,woman,,,,,"{""Q0"":""Fred is kissing Luke""}","<img src=""stim_listA/kiss5.gif""</stim_listA>",is kissing,
null,"<div style=""font-size:60px;"">+</div>",,html-keyboard-response,351,1930605,0.0-17.0-0.15,51928,List2A,white,woman,,,,null,,,,
null,"<img src=""stim_listA/talk6.gif""</stim_listA>",,html-keyboard-response,352,1932616,0.0-17.0-1.15,51928,List2A,white,woman,,,,null,,,,
null,are talking to each other,,html-keyboard-response,353,1934630,0.0-17.0-2.15,51928,List2A,white,woman,,,,null,,,,
20215,,,survey-text,354,1954845,0.0-17.0-3.15,51928,List2A,white,woman,,,,,"{""Q0"":""Fred and Dave are talking to each other""}","<img src=""stim_listA/talk6.gif""</stim_listA>",are talking to each other,
null,"<div style=""font-size:60px;"">+</div>",,html-keyboard-response,355,1955355,0.0-17.0-0.16,51928,List2A,white,woman,,,,null,,,,
null,"<img src=""stim_listA/shout8.gif""</stim_listA>",,html-keyboard-response,356,1957363,0.0-17.0-1.16,51928,List2A,white,woman,,,,null,,,,
null,are shouting at each other,,html-keyboard-response,357,1959379,0.0-17.0-2.16,51928,List2A,white,woman,,,,null,,,,
23528,,,survey-text,358,1982908,0.0-17.0-3.16,51928,List2A,white,woman,,,,,"{""Q0"":""Jane and Kate are shouting at each other""}","<img src=""stim_listA/shout8.gif""</stim_listA>",are shouting at each other,
null,"<div style=""font-size:60px;"">+</div>",,html-keyboard-response,359,1983419,0.0-17.0-0.17,51928,List2A,white,woman,,,,null,,,,
null,"<img src=""stim_listA/kiss7.gif""</stim_listA>",,html-keyboard-response,360,1985428,0.0-17.0-1.17,51928,List2A,white,woman,,,,null,,,,
null,is kissing,,html-keyboard-response,361,1987431,0.0-17.0-2.17,51928,List2A,white,woman,,,,null,,,,
16965,,,survey-text,362,2004396,0.0-17.0-3.17,51928,List2A,white,woman,,,,,"{""Q0"":""Ruth is kissing Beth""}","<img src=""stim_listA/kiss7.gif""</stim_listA>",is kissing,
null,"<div style=""font-size:60px;"">+</div>",,html-keyboard-response,363,2004898,0.0-17.0-0.18,51928,List2A,white,woman,,,,null,,,,
null,"<img src=""stim_listA/meet2.gif""</stim_listA>",,html-keyboard-response,364,2006915,0.0-17.0-1.18,51928,List2A,white,woman,,,,null,,,,
null,are meeting each other,,html-keyboard-response,365,2008917,0.0-17.0-2.18,51928,List2A,white,woman,,,,null,,,,
19938,,,survey-text,366,2028857,0.0-17.0-3.18,51928,List2A,white,woman,,,,,"{""Q0"":""Ruth and Luke are meeting each other""}","<img src=""stim_listA/meet2.gif""</stim_listA>",are meeting each other,
null,"<div style=""font-size:60px;"">+</div>",,html-keyboard-response,367,2029369,0.0-17.0-0.19,51928,List2A,white,woman,,,,null,,,,
null,"<img src=""stim_listA/dance6.gif""</stim_listA>",,html-keyboard-response,368,2031378,0.0-17.0-1.19,51928,List2A,white,woman,,,,null,,,,
null,are dancing with each other,,html-keyboard-response,369,2033394,0.0-17.0-2.19,51928,List2A,white,woman,,,,null,,,,
37046,,,survey-text,370,2070442,0.0-17.0-3.19,51928,List2A,white,woman,,,,,"{""Q0"":""Dave and Fred are dancing with each other""}","<img src=""stim_listA/dance6.gif""</stim_listA>",are dancing with each other,
4683,"<img src='img/portrait_matrix_list2.JPG' style='width:900px;height:500px;''></img><p>If you have memorised all the portraits and names and are ready to start, press Continue.</p><p><strong>Please note: Your memory of these faces will be tested 4 times during this experiment.</strong></p>",0,html-button-response,371,2075125,0.0-18.0-0.0,51928,List2A,white,woman,,,,,,,,
2373,"<img src=""portrait/WM2.jpg""style=""width:400px;height:400px;""></img>",7,html-button-response,372,2078510,0.0-18.0-1.0,51928,List2A,white,woman,,TRUE,7,,,,,
null,CORRECT,,html-keyboard-response,373,2080034,0.0-18.0-2.0-0.0,51928,List2A,white,woman,,,,null,,,,
4239,"<img src=""portrait/BW2.jpg""style=""width:400px;height:400px;""></img>",2,html-button-response,374,2084275,0.0-18.0-4.0,51928,List2A,white,woman,,TRUE,2,,,,,
null,CORRECT,,html-keyboard-response,375,2085802,0.0-18.0-5.0-0.0,51928,List2A,white,woman,,,,null,,,,
2721,"<img src=""portrait/WW2.jpg""style=""width:400px;height:400px;""></img>",3,html-button-response,376,2088525,0.0-18.0-7.0,51928,List2A,white,woman,,TRUE,3,,,,,
null,CORRECT,,html-keyboard-response,377,2090037,0.0-18.0-8.0-0.0,51928,List2A,white,woman,,,,null,,,,
2302,"<img src=""portrait/WM1.jpg""style=""width:400px;height:400px;""></img>",6,html-button-response,378,2092341,0.0-18.0-10.0,51928,List2A,white,woman,,TRUE,6,,,,,
null,CORRECT,,html-keyboard-response,379,2093853,0.0-18.0-11.0-0.0,51928,List2A,white,woman,,,,null,,,,
2671,"<img src=""portrait/BM1.jpg""style=""width:400px;height:400px;""></img>",4,html-button-response,380,2096526,0.0-18.0-13.0,51928,List2A,white,woman,,TRUE,4,,,,,
null,CORRECT,,html-keyboard-response,381,2098037,0.0-18.0-14.0-0.0,51928,List2A,white,woman,,,,null,,,,
2001,"<img src=""portrait/BM2.jpg""style=""width:400px;height:400px;""></img>",5,html-button-response,382,2100040,0.0-18.0-16.0,51928,List2A,white,woman,,TRUE,5,,,,,
null,CORRECT,,html-keyboard-response,383,2101555,0.0-18.0-17.0-0.0,51928,List2A,white,woman,,,,null,,,,
2447,"<img src=""portrait/WW1.jpg""style=""width:400px;height:400px;""></img>",1,html-button-response,384,2104004,0.0-18.0-19.0,51928,List2A,white,woman,,TRUE,1,,,,,
null,CORRECT,,html-keyboard-response,385,2105514,0.0-18.0-20.0-0.0,51928,List2A,white,woman,,,,null,,,,
2331,"<img src=""portrait/BW1.jpg""style=""width:400px;height:400px;""></img>",0,html-button-response,386,2107847,0.0-18.0-22.0,51928,List2A,white,woman,,TRUE,0,,,,,
null,CORRECT,,html-keyboard-response,387,2109354,0.0-18.0-23.0-0.0,51928,List2A,white,woman,,,,null,,,,
2387,<p>You got 8 out of 8 right first time. Press Continue.</p>,0,html-button-response,388,2111743,0.0-18.0-25.0,51928,List2A,white,woman,,,,,,,,
null,"<div style=""font-size:60px;"">+</div>",,html-keyboard-response,389,2113281,0.0-19.0-0.0,51928,List2A,white,woman,,,,null,,,,
null,"<img src=""stim_listA/dance3.gif""</stim_listA>",,html-keyboard-response,390,2115292,0.0-19.0-1.0,51928,List2A,white,woman,,,,null,,,,
null,is dancing with,,html-keyboard-response,391,2117307,0.0-19.0-2.0,51928,List2A,white,woman,,,,null,,,,
18427,,,survey-text,392,2135735,0.0-19.0-3.0,51928,List2A,white,woman,,,,,"{""Q0"":""Fred is dancing with Kate""}","<img src=""stim_listA/dance3.gif""</stim_listA>",is dancing with,
null,"<div style=""font-size:60px;"">+</div>",,html-keyboard-response,393,2136247,0.0-19.0-0.1,51928,List2A,white,woman,,,,null,,,,
null,"<img src=""stim_listA/hug1.gif""</stim_listA>",,html-keyboard-response,394,2138256,0.0-19.0-1.1,51928,List2A,white,woman,,,,null,,,,
null,is hugging,,html-keyboard-response,395,2140269,0.0-19.0-2.1,51928,List2A,white,woman,,,,null,,,,
13249,,,survey-text,396,2153520,0.0-19.0-3.1,51928,List2A,white,woman,,,,,"{""Q0"":""Ruth is hugging Luke""}","<img src=""stim_listA/hug1.gif""</stim_listA>",is hugging,
null,"<div style=""font-size:60px;"">+</div>",,html-keyboard-response,397,2154032,0.0-19.0-0.2,51928,List2A,white,woman,,,,null,,,,
null,"<img src=""stim_listA/argue1.gif""</stim_listA>",,html-keyboard-response,398,2156039,0.0-19.0-1.2,51928,List2A,white,woman,,,,null,,,,
null,is arguing with,,html-keyboard-response,399,2158040,0.0-19.0-2.2,51928,List2A,white,woman,,,,null,,,,
13625,,,survey-text,400,2171667,0.0-19.0-3.2,51928,List2A,white,woman,,,,,"{""Q0"":""Dave is arguing with Ruth""}","<img src=""stim_listA/argue1.gif""</stim_listA>",is arguing with,
null,"<div style=""font-size:60px;"">+</div>",,html-keyboard-response,401,2172180,0.0-19.0-0.3,51928,List2A,white,woman,,,,null,,,,
null,"<img src=""stim_listA/argue4.gif""</stim_listA>",,html-keyboard-response,402,2174187,0.0-19.0-1.3,51928,List2A,white,woman,,,,null,,,,
null,are arguing with each other,,html-keyboard-response,403,2176202,0.0-19.0-2.3,51928,List2A,white,woman,,,,null,,,,
20480,,,survey-text,404,2196683,0.0-19.0-3.3,51928,List2A,white,woman,,,,,"{""Q0"":""Fred and Beth are arguing with each other""}","<img src=""stim_listA/argue4.gif""</stim_listA>",are arguing with each other,
null,"<div style=""font-size:60px;"">+</div>",,html-keyboard-response,405,2197195,0.0-19.0-0.4,51928,List2A,white,woman,,,,null,,,,
null,"<img src=""stim_listA/shout1.gif""</stim_listA>",,html-keyboard-response,406,2199205,0.0-19.0-1.4,51928,List2A,white,woman,,,,null,,,,
null,is shouting at,,html-keyboard-response,407,2201219,0.0-19.0-2.4,51928,List2A,white,woman,,,,null,,,,
14428,,,survey-text,408,2215648,0.0-19.0-3.4,51928,List2A,white,woman,,,,,"{""Q0"":""Ruth is shouting at Luke""}","<img src=""stim_listA/shout1.gif""</stim_listA>",is shouting at,
null,"<div style=""font-size:60px;"">+</div>",,html-keyboard-response,409,2216162,0.0-19.0-0.5,51928,List2A,white,woman,,,,null,,,,
null,"<img src=""stim_listA/touch8.gif""</stim_listA>",,html-keyboard-response,410,2218169,0.0-19.0-1.5,51928,List2A,white,woman,,,,null,,,,
null,are touching each other,,html-keyboard-response,411,2220184,0.0-19.0-2.5,51928,List2A,white,woman,,,,null,,,,
23759,,,survey-text,412,2243944,0.0-19.0-3.5,51928,List2A,white,woman,,,,,"{""Q0"":""Beth and Jane are touching each other""}","<img src=""stim_listA/touch8.gif""</stim_listA>",are touching each other,
null,"<div style=""font-size:60px;"">+</div>",,html-keyboard-response,413,2244456,0.0-19.0-0.6,51928,List2A,white,woman,,,,null,,,,
null,"<img src=""stim_listA/talk5.gif""</stim_listA>",,html-keyboard-response,414,2246465,0.0-19.0-1.6,51928,List2A,white,woman,,,,null,,,,
null,is talking to,,html-keyboard-response,415,2248467,0.0-19.0-2.6,51928,List2A,white,woman,,,,null,,,,
28974,,,survey-text,416,2277442,0.0-19.0-3.6,51928,List2A,white,woman,,,,,"{""Q0"":""Mike is talking with Luke""}","<img src=""stim_listA/talk5.gif""</stim_listA>",is talking to,
null,"<div style=""font-size:60px;"">+</div>",,html-keyboard-response,417,2277955,0.0-19.0-0.7,51928,List2A,white,woman,,,,null,,,,
null,"<img src=""stim_listA/fight5.gif""</stim_listA>",,html-keyboard-response,418,2279962,0.0-19.0-1.7,51928,List2A,white,woman,,,,null,,,,
null,is fighting,,html-keyboard-response,419,2281978,0.0-19.0-2.7,51928,List2A,white,woman,,,,null,,,,
8812,,,survey-text,420,2290792,0.0-19.0-3.7,51928,List2A,white,woman,,,,,"{""Q0"":""Mike is fighting Dave""}","<img src=""stim_listA/fight5.gif""</stim_listA>",is fighting,
null,"<div style=""font-size:60px;"">+</div>",,html-keyboard-response,421,2291303,0.0-19.0-0.8,51928,List2A,white,woman,,,,null,,,,
null,"<img src=""stim_listA/kiss3.gif""</stim_listA>",,html-keyboard-response,422,2293315,0.0-19.0-1.8,51928,List2A,white,woman,,,,null,,,,
null,is kissing,,html-keyboard-response,423,2295332,0.0-19.0-2.8,51928,List2A,white,woman,,,,null,,,,
9759,,,survey-text,424,2305093,0.0-19.0-3.8,51928,List2A,white,woman,,,,,"{""Q0"":""Fred is kissing Beth""}","<img src=""stim_listA/kiss3.gif""</stim_listA>",is kissing,
null,"<div style=""font-size:60px;"">+</div>",,html-keyboard-response,425,2305595,0.0-19.0-0.9,51928,List2A,white,woman,,,,null,,,,
null,"<img src=""stim_listA/kiss2.gif""</stim_listA>",,html-keyboard-response,426,2307613,0.0-19.0-1.9,51928,List2A,white,woman,,,,null,,,,
null,are kissing each other,,html-keyboard-response,427,2309625,0.0-19.0-2.9,51928,List2A,white,woman,,,,null,,,,
17850,,,survey-text,428,2327477,0.0-19.0-3.9,51928,List2A,white,woman,,,,,"{""Q0"":""Dave and Jane are kissing each other""}","<img src=""stim_listA/kiss2.gif""</stim_listA>",are kissing each other,
null,"<div style=""font-size:60px;"">+</div>",,html-keyboard-response,429,2327989,0.0-19.0-0.10,51928,List2A,white,woman,,,,null,,,,
null,"<img src=""stim_listA/talk2.gif""</stim_listA>",,html-keyboard-response,430,2329997,0.0-19.0-1.10,51928,List2A,white,woman,,,,null,,,,
null,are talking to each other,,html-keyboard-response,431,2332013,0.0-19.0-2.10,51928,List2A,white,woman,,,,null,,,,
15563,,,survey-text,432,2347577,0.0-19.0-3.10,51928,List2A,white,woman,,,,,"{""Q0"":""Ruth and Dave are talking to each other""}","<img src=""stim_listA/talk2.gif""</stim_listA>",are talking to each other,
null,"<div style=""font-size:60px;"">+</div>",,html-keyboard-response,433,2348087,0.0-19.0-0.11,51928,List2A,white,woman,,,,null,,,,
null,"<img src=""stim_listA/talk4.gif""</stim_listA>",,html-keyboard-response,434,2350096,0.0-19.0-1.11,51928,List2A,white,woman,,,,null,,,,
null,are talking to each other,,html-keyboard-response,435,2352112,0.0-19.0-2.11,51928,List2A,white,woman,,,,null,,,,
13769,,,survey-text,436,2365883,0.0-19.0-3.11,51928,List2A,white,woman,,,,,"{""Q0"":""Mike and Beth are talking to each other""}","<img src=""stim_listA/talk4.gif""</stim_listA>",are talking to each other,
null,"<div style=""font-size:60px;"">+</div>",,html-keyboard-response,437,2366393,0.0-19.0-0.12,51928,List2A,white,woman,,,,null,,,,
null,"<img src=""stim_listA/marry4.gif""</stim_listA>",,html-keyboard-response,438,2368400,0.0-19.0-1.12,51928,List2A,white,woman,,,,null,,,,
null,are marrying each other,,html-keyboard-response,439,2370415,0.0-19.0-2.12,51928,List2A,white,woman,,,,null,,,,
15249,,,survey-text,440,2385664,0.0-19.0-3.12,51928,List2A,white,woman,,,,,"{""Q0"":""Fred and Kate are marrying each other""}","<img src=""stim_listA/marry4.gif""</stim_listA>",are marrying each other,
null,"<div style=""font-size:60px;"">+</div>",,html-keyboard-response,441,2386176,0.0-19.0-0.13,51928,List2A,white,woman,,,,null,,,,
null,"<img src=""stim_listA/fight8.gif""</stim_listA>",,html-keyboard-response,442,2388184,0.0-19.0-1.13,51928,List2A,white,woman,,,,null,,,,
null,are fighting each other,,html-keyboard-response,443,2390198,0.0-19.0-2.13,51928,List2A,white,woman,,,,null,,,,
13471,,,survey-text,444,2403670,0.0-19.0-3.13,51928,List2A,white,woman,,,,,"{""Q0"":""Beth and Ruth are fighting each other""}","<img src=""stim_listA/fight8.gif""</stim_listA>",are fighting each other,
null,"<div style=""font-size:60px;"">+</div>",,html-keyboard-response,445,2404175,0.0-19.0-0.14,51928,List2A,white,woman,,,,null,,,,
null,"<img src=""stim_listA/meet6.gif""</stim_listA>",,html-keyboard-response,446,2406194,0.0-19.0-1.14,51928,List2A,white,woman,,,,null,,,,
null,are meeting each other,,html-keyboard-response,447,2408207,0.0-19.0-2.14,51928,List2A,white,woman,,,,null,,,,
12726,,,survey-text,448,2420934,0.0-19.0-3.14,51928,List2A,white,woman,,,,,"{""Q0"":""Fred and Luke are meeting each other""}","<img src=""stim_listA/meet6.gif""</stim_listA>",are meeting each other,
null,"<div style=""font-size:60px;"">+</div>",,html-keyboard-response,449,2421446,0.0-19.0-0.15,51928,List2A,white,woman,,,,null,,,,
null,"<img src=""stim_listA/dance2.gif""</stim_listA>",,html-keyboard-response,450,2423453,0.0-19.0-1.15,51928,List2A,white,woman,,,,null,,,,
null,are dancing with each other,,html-keyboard-response,451,2425468,0.0-19.0-2.15,51928,List2A,white,woman,,,,null,,,,
14945,,,survey-text,452,2440414,0.0-19.0-3.15,51928,List2A,white,woman,,,,,"{""Q0"":""Ruth and Dave are dancing with each other""}","<img src=""stim_listA/dance2.gif""</stim_listA>",are dancing with each other,
null,"<div style=""font-size:60px;"">+</div>",,html-keyboard-response,453,2440927,0.0-19.0-0.16,51928,List2A,white,woman,,,,null,,,,
null,"<img src=""stim_listA/marry2.gif""</stim_listA>",,html-keyboard-response,454,2442935,0.0-19.0-1.16,51928,List2A,white,woman,,,,null,,,,
null,are marrying each other,,html-keyboard-response,455,2444951,0.0-19.0-2.16,51928,List2A,white,woman,,,,null,,,,
14630,,,survey-text,456,2459582,0.0-19.0-3.16,51928,List2A,white,woman,,,,,"{""Q0"":""Luke and Jane are marrying each other""}","<img src=""stim_listA/marry2.gif""</stim_listA>",are marrying each other,
null,"<div style=""font-size:60px;"">+</div>",,html-keyboard-response,457,2460093,0.0-19.0-0.17,51928,List2A,white,woman,,,,null,,,,
null,"<img src=""stim_listA/hug5.gif""</stim_listA>",,html-keyboard-response,458,2462100,0.0-19.0-1.17,51928,List2A,white,woman,,,,null,,,,
null,is hugging,,html-keyboard-response,459,2464103,0.0-19.0-2.17,51928,List2A,white,woman,,,,null,,,,
10548,,,survey-text,460,2474653,0.0-19.0-3.17,51928,List2A,white,woman,,,,,"{""Q0"":""Fred is hugging Mike""}","<img src=""stim_listA/hug5.gif""</stim_listA>",is hugging,
null,"<div style=""font-size:60px;"">+</div>",,html-keyboard-response,461,2475162,0.0-19.0-0.18,51928,List2A,white,woman,,,,null,,,,
null,"<img src=""stim_listA/marry3.gif""</stim_listA>",,html-keyboard-response,462,2477171,0.0-19.0-1.18,51928,List2A,white,woman,,,,null,,,,
null,is marrying,,html-keyboard-response,463,2479183,0.0-19.0-2.18,51928,List2A,white,woman,,,,null,,,,
8448,,,survey-text,464,2487633,0.0-19.0-3.18,51928,List2A,white,woman,,,,,"{""Q0"":""Mike is marrying Beth""}","<img src=""stim_listA/marry3.gif""</stim_listA>",is marrying,
null,"<div style=""font-size:60px;"">+</div>",,html-keyboard-response,465,2488145,0.0-19.0-0.19,51928,List2A,white,woman,,,,null,,,,
null,"<img src=""stim_listA/hug4.gif""</stim_listA>",,html-keyboard-response,466,2490154,0.0-19.0-1.19,51928,List2A,white,woman,,,,null,,,,
null,are hugging each other,,html-keyboard-response,467,2492155,0.0-19.0-2.19,51928,List2A,white,woman,,,,null,,,,
48976,,,survey-text,468,2541133,0.0-19.0-3.19,51928,List2A,white,woman,,,,,"{""Q0"":""unsure""}","<img src=""stim_listA/hug4.gif""</stim_listA>",are hugging each other,
2066,<p>Thank you for completing that task.</p><p>The final part of this session is a short questionnaire.</p><p>Press Continue.</p>,0,html-button-response,469,2543200,0.0-20.0,51928,List2A,white,woman,,,,,,,,
28552,,,survey-text,470,2572765,0.0-21.0,51928,List2A,white,woman,,,,,"{""Q0"":""27"",""Q1"":""English"",""Q2"":""English"",""Q3"":""UK"",""Q4"":""British"",""Q5"":""Female""}",,,demographics
51695,,,survey-likert,471,2624467,0.0-22.0,51928,List2A,white,woman,,,,,"{""Q0"":3,""Q1"":3,""Q2"":3,""Q3"":3,""Q4"":3,""Q5"":3,""Q6"":3,""Q7"":3,""Q8"":3,""Q9"":3,""Q10"":3,""Q11"":3,""Q12"":3,""Q13"":3}",,,likert_race
48417,,,survey-likert,472,2672896,0.0-23.0,51928,List2A,white,woman,,,,,"{""Q0"":4,""Q1"":4,""Q2"":4,""Q3"":4,""Q4"":4,""Q5"":4,""Q6"":4,""Q7"":4,""Q8"":4,""Q9"":4,""Q10"":4,""Q11"":4,""Q12"":4,""Q13"":4}",,,likert_gender
3986,,,survey-text,473,2676892,0.0-24.0,51928,List2A,white,woman,,,,,"{""Q0"":""ccc""}",,,worker_id
9444,,,external-html,474,2686443,0.0-25.0,51928,List2A,white,woman,debrief.html,,,,,,,
