rt,stimulus,button_pressed,trial_type,trial_index,time_elapsed,internal_node_id,subject,list,ppt_race,ppt_gender,url,first_guess,correct,key_press,responses,image_type,phrase_type,test_part
1939,Welcome to the experiment. Press Continue to begin.,0,html-button-response,0,1940,0.0-0.0,53669,List1B,white,woman,,,,,,,,
20083,,,external-html,1,23081,0.0-1.0,53669,List1B,white,woman,consent.html,,,,,,,
5701,"<p>On the next page, you will see portraits of 8 people and their names.</p><p>Your first task is to take a few minutes to memorise the names of these people.</p><p>You will have to recall their names during the rest of the experiment, so it is</p><p>essential that you try to memorise these people and their names as best as you can.</p><br><p><strong>You will then be tested on your memory of these names and portraits.</strong></p><br><p>The experiment will start after you have completed this memory test.</p><br><p>Ready?</p>",0,html-button-response,2,28783,0.0-2.0,53669,List1B,white,woman,,,,,,,,
150496,"<img src='img/portrait_matrix_list1.JPG' style='width:900px;height:500px;''></img><p>If you have memorised all the portraits and names and are ready to start, press Continue.</p><p><strong>Please note: Your memory of these faces will be tested 4 times during this experiment.</strong></p>",0,html-button-response,3,180281,0.0-3.0-0.0,53669,List1B,white,woman,,,,,,,,
5456,"<img src=""portrait/BM2.jpg""style=""width:400px;height:400px;""></img>",5,html-button-response,4,186738,0.0-3.0-1.0,53669,List1B,white,woman,,TRUE,5,,,,,
null,CORRECT,,html-keyboard-response,5,188240,0.0-3.0-2.0-0.0,53669,List1B,white,woman,,,,null,,,,
2909,"<img src=""portrait/BW2.jpg""style=""width:400px;height:400px;""></img>",2,html-button-response,6,191149,0.0-3.0-4.0,53669,List1B,white,woman,,TRUE,2,,,,,
null,CORRECT,,html-keyboard-response,7,192652,0.0-3.0-5.0-0.0,53669,List1B,white,woman,,,,null,,,,
1534,"<img src=""portrait/WW2.jpg""style=""width:400px;height:400px;""></img>",3,html-button-response,8,194186,0.0-3.0-7.0,53669,List1B,white,woman,,TRUE,3,,,,,
null,CORRECT,,html-keyboard-response,9,195689,0.0-3.0-8.0-0.0,53669,List1B,white,woman,,,,null,,,,
2873,"<img src=""portrait/WM2.jpg""style=""width:400px;height:400px;""></img>",7,html-button-response,10,198563,0.0-3.0-10.0,53669,List1B,white,woman,,TRUE,7,,,,,
null,CORRECT,,html-keyboard-response,11,200065,0.0-3.0-11.0-0.0,53669,List1B,white,woman,,,,null,,,,
3480,"<img src=""portrait/BW1.jpg""style=""width:400px;height:400px;""></img>",0,html-button-response,12,203547,0.0-3.0-13.0,53669,List1B,white,woman,,TRUE,0,,,,,
null,CORRECT,,html-keyboard-response,13,205049,0.0-3.0-14.0-0.0,53669,List1B,white,woman,,,,null,,,,
2738,"<img src=""portrait/BM1.jpg""style=""width:400px;height:400px;""></img>",4,html-button-response,14,207788,0.0-3.0-16.0,53669,List1B,white,woman,,TRUE,4,,,,,
null,CORRECT,,html-keyboard-response,15,209291,0.0-3.0-17.0-0.0,53669,List1B,white,woman,,,,null,,,,
2839,"<img src=""portrait/WW1.jpg""style=""width:400px;height:400px;""></img>",1,html-button-response,16,212131,0.0-3.0-19.0,53669,List1B,white,woman,,TRUE,1,,,,,
null,CORRECT,,html-keyboard-response,17,213631,0.0-3.0-20.0-0.0,53669,List1B,white,woman,,,,null,,,,
2459,"<img src=""portrait/WM1.jpg""style=""width:400px;height:400px;""></img>",6,html-button-response,18,216091,0.0-3.0-22.0,53669,List1B,white,woman,,TRUE,6,,,,,
null,CORRECT,,html-keyboard-response,19,217592,0.0-3.0-23.0-0.0,53669,List1B,white,woman,,,,null,,,,
2030,<p>You got 8 out of 8 right first time. Press Continue.</p>,0,html-button-response,20,219623,0.0-3.0-25.0,53669,List1B,white,woman,,,,,,,,
21634,"<p>In this experiment, you will view photographs of the people from the memory game interacting.</p><p>By using the <strong>exact</strong> phrase given <i>after</i> the photograph appears and recalling the correct names of the people in the photographs, form a sentence describing the interaction. You do not need to capitalise names.</p><p>Type your answer in the space provided. Please complete every sentence before moving onto the next trial.</p><p>You will only have a few seconds to memorise each given photograph and phrase before you can respond, so try your best to focus.</p><p>An example is given below. Press 'Continue' when you are ready.</p><img src='img/speaking_example_v2.jpg' style='width:800px;height:460px;''></img>",0,html-button-response,21,242259,0.0-4.0,53669,List1B,white,woman,,,,,,,,
2182,"<p>Before the experiment starts, you will watch two example trials. Press 'Continue'.</p>",0,html-button-response,22,245443,0.0-5.0,53669,List1B,white,woman,,,,,,,,
null,<img src='img/speaking_WW.gif'></img>,,html-keyboard-response,23,248445,0.0-6.0,53669,List1B,white,woman,,,,null,,,,
null,<p>is speaking to</p>,,html-keyboard-response,24,250447,0.0-7.0,53669,List1B,white,woman,,,,null,,,,
3231,<p><b>Answer:</b> kate is speaking to beth</p>,0,html-button-response,25,253678,0.0-8.0,53669,List1B,white,woman,,,,,,,,
null,<img src='img/pointing_BM.gif'></img>,,html-keyboard-response,26,256681,0.0-9.0,53669,List1B,white,woman,,,,null,,,,
null,<p>are pointing at each other</p>,,html-keyboard-response,27,258683,0.0-10.0,53669,List1B,white,woman,,,,null,,,,
2578,<p><b>Answer:</b> luke and dave are pointing at each other</p>,0,html-button-response,28,261261,0.0-11.0,53669,List1B,white,woman,,,,,,,,
7257,"<p>Ready to start the experiment?</p><br><p><strong>Remember to describe the picture using a full sentence,</strong></p><p><strong>that combines the names of the people with the given phrase.</strong></p><p><strong>If you do not do this correctly you will not be paid.</strong></p><p><strong> You do not need to capitalise names or use punctuation.</strong></p><br><p>Press 'Continue' to begin.</p>",0,html-button-response,29,269519,0.0-12.0,53669,List1B,white,woman,,,,,,,,
null,"<div style=""font-size:60px;"">+</div>",,html-keyboard-response,30,271022,0.0-13.0-0.0,53669,List1B,white,woman,,,,null,,,,
null,"<img src=""stim_listB/marry4.gif""</stim_listB>",,html-keyboard-response,31,273024,0.0-13.0-1.0,53669,List1B,white,woman,,,,null,,,,
null,are marrying each other,,html-keyboard-response,32,275025,0.0-13.0-2.0,53669,List1B,white,woman,,,,null,,,,
9490,,,survey-text,33,284516,0.0-13.0-3.0,53669,List1B,white,woman,,,,,"{""Q0"":""Dave and Jane are marrying each other""}","<img src=""stim_listB/marry4.gif""</stim_listB>",are marrying each other,
null,"<div style=""font-size:60px;"">+</div>",,html-keyboard-response,34,285018,0.0-13.0-0.1,53669,List1B,white,woman,,,,null,,,,
null,"<img src=""stim_listB/touch5.gif""</stim_listB>",,html-keyboard-response,35,287019,0.0-13.0-1.1,53669,List1B,white,woman,,,,null,,,,
null,is touching,,html-keyboard-response,36,289021,0.0-13.0-2.1,53669,List1B,white,woman,,,,null,,,,
15655,,,survey-text,37,304677,0.0-13.0-3.1,53669,List1B,white,woman,,,,,"{""Q0"":""Mike and Dave are touching""}","<img src=""stim_listB/touch5.gif""</stim_listB>",is touching,
null,"<div style=""font-size:60px;"">+</div>",,html-keyboard-response,38,305178,0.0-13.0-0.2,53669,List1B,white,woman,,,,null,,,,
null,"<img src=""stim_listB/kiss6.gif""</stim_listB>",,html-keyboard-response,39,307180,0.0-13.0-1.2,53669,List1B,white,woman,,,,null,,,,
null,are kissing each other,,html-keyboard-response,40,309182,0.0-13.0-2.2,53669,List1B,white,woman,,,,null,,,,
8309,,,survey-text,41,317491,0.0-13.0-3.2,53669,List1B,white,woman,,,,,"{""Q0"":""Mike and Dave are kissing each other""}","<img src=""stim_listB/kiss6.gif""</stim_listB>",are kissing each other,
null,"<div style=""font-size:60px;"">+</div>",,html-keyboard-response,42,317992,0.0-13.0-0.3,53669,List1B,white,woman,,,,null,,,,
null,"<img src=""stim_listB/talk1.gif""</stim_listB>",,html-keyboard-response,43,319994,0.0-13.0-1.3,53669,List1B,white,woman,,,,null,,,,
null,is talking to,,html-keyboard-response,44,321996,0.0-13.0-2.3,53669,List1B,white,woman,,,,null,,,,
5384,,,survey-text,45,327380,0.0-13.0-3.3,53669,List1B,white,woman,,,,,"{""Q0"":""Kate is talking to Fred""}","<img src=""stim_listB/talk1.gif""</stim_listB>",is talking to,
null,"<div style=""font-size:60px;"">+</div>",,html-keyboard-response,46,327882,0.0-13.0-0.4,53669,List1B,white,woman,,,,null,,,,
null,"<img src=""stim_listB/fight3.gif""</stim_listB>",,html-keyboard-response,47,329884,0.0-13.0-1.4,53669,List1B,white,woman,,,,null,,,,
null,is fighting,,html-keyboard-response,48,331885,0.0-13.0-2.4,53669,List1B,white,woman,,,,null,,,,
7713,,,survey-text,49,339598,0.0-13.0-3.4,53669,List1B,white,woman,,,,,"{""Q0"":""Jane is fighting Dave""}","<img src=""stim_listB/fight3.gif""</stim_listB>",is fighting,
null,"<div style=""font-size:60px;"">+</div>",,html-keyboard-response,50,340099,0.0-13.0-0.5,53669,List1B,white,woman,,,,null,,,,
null,"<img src=""stim_listB/marry3.gif""</stim_listB>",,html-keyboard-response,51,342101,0.0-13.0-1.5,53669,List1B,white,woman,,,,null,,,,
null,is marrying,,html-keyboard-response,52,344103,0.0-13.0-2.5,53669,List1B,white,woman,,,,null,,,,
10513,,,survey-text,53,354617,0.0-13.0-3.5,53669,List1B,white,woman,,,,,"{""Q0"":""Ruth is marrying Dave""}","<img src=""stim_listB/marry3.gif""</stim_listB>",is marrying,
null,"<div style=""font-size:60px;"">+</div>",,html-keyboard-response,54,355118,0.0-13.0-0.6,53669,List1B,white,woman,,,,null,,,,
null,"<img src=""stim_listB/talk2.gif""</stim_listB>",,html-keyboard-response,55,357120,0.0-13.0-1.6,53669,List1B,white,woman,,,,null,,,,
null,are talking to each other,,html-keyboard-response,56,359122,0.0-13.0-2.6,53669,List1B,white,woman,,,,null,,,,
17366,,,survey-text,57,376488,0.0-13.0-3.6,53669,List1B,white,woman,,,,,"{""Q0"":""Beth and Mike are talking to each other""}","<img src=""stim_listB/talk2.gif""</stim_listB>",are talking to each other,
null,"<div style=""font-size:60px;"">+</div>",,html-keyboard-response,58,376990,0.0-13.0-0.7,53669,List1B,white,woman,,,,null,,,,
null,"<img src=""stim_listB/argue4.gif""</stim_listB>",,html-keyboard-response,59,378991,0.0-13.0-1.7,53669,List1B,white,woman,,,,null,,,,
null,are arguing with each other,,html-keyboard-response,60,380993,0.0-13.0-2.7,53669,List1B,white,woman,,,,null,,,,
10232,,,survey-text,61,391226,0.0-13.0-3.7,53669,List1B,white,woman,,,,,"{""Q0"":""Jane & Luke are arguing with each other""}","<img src=""stim_listB/argue4.gif""</stim_listB>",are arguing with each other,
null,"<div style=""font-size:60px;"">+</div>",,html-keyboard-response,62,391728,0.0-13.0-0.8,53669,List1B,white,woman,,,,null,,,,
null,"<img src=""stim_listB/touch7.gif""</stim_listB>",,html-keyboard-response,63,393729,0.0-13.0-1.8,53669,List1B,white,woman,,,,null,,,,
null,is touching,,html-keyboard-response,64,395731,0.0-13.0-2.8,53669,List1B,white,woman,,,,null,,,,
5125,,,survey-text,65,400856,0.0-13.0-3.8,53669,List1B,white,woman,,,,,"{""Q0"":""Jane is touching Kate""}","<img src=""stim_listB/touch7.gif""</stim_listB>",is touching,
null,"<div style=""font-size:60px;"">+</div>",,html-keyboard-response,66,401358,0.0-13.0-0.9,53669,List1B,white,woman,,,,null,,,,
null,"<img src=""stim_listB/shout7.gif""</stim_listB>",,html-keyboard-response,67,403360,0.0-13.0-1.9,53669,List1B,white,woman,,,,null,,,,
null,is shouting at,,html-keyboard-response,68,405361,0.0-13.0-2.9,53669,List1B,white,woman,,,,null,,,,
14406,,,survey-text,69,419768,0.0-13.0-3.9,53669,List1B,white,woman,,,,,"{""Q0"":""Ruth is shouting at Beth""}","<img src=""stim_listB/shout7.gif""</stim_listB>",is shouting at,
null,"<div style=""font-size:60px;"">+</div>",,html-keyboard-response,70,420270,0.0-13.0-0.10,53669,List1B,white,woman,,,,null,,,,
null,"<img src=""stim_listB/argue7.gif""</stim_listB>",,html-keyboard-response,71,422272,0.0-13.0-1.10,53669,List1B,white,woman,,,,null,,,,
null,is arguing with,,html-keyboard-response,72,424273,0.0-13.0-2.10,53669,List1B,white,woman,,,,null,,,,
12133,,,survey-text,73,436407,0.0-13.0-3.10,53669,List1B,white,woman,,,,,"{""Q0"":""Ruth is arguing with Kate""}","<img src=""stim_listB/argue7.gif""</stim_listB>",is arguing with,
null,"<div style=""font-size:60px;"">+</div>",,html-keyboard-response,74,436909,0.0-13.0-0.11,53669,List1B,white,woman,,,,null,,,,
null,"<img src=""stim_listB/argue6.gif""</stim_listB>",,html-keyboard-response,75,438911,0.0-13.0-1.11,53669,List1B,white,woman,,,,null,,,,
null,are arguing with each other,,html-keyboard-response,76,440912,0.0-13.0-2.11,53669,List1B,white,woman,,,,null,,,,
9715,,,survey-text,77,450628,0.0-13.0-3.11,53669,List1B,white,woman,,,,,"{""Q0"":""Fred & Dave are arguing with each other""}","<img src=""stim_listB/argue6.gif""</stim_listB>",are arguing with each other,
null,"<div style=""font-size:60px;"">+</div>",,html-keyboard-response,78,451129,0.0-13.0-0.12,53669,List1B,white,woman,,,,null,,,,
null,"<img src=""stim_listB/talk8.gif""</stim_listB>",,html-keyboard-response,79,453131,0.0-13.0-1.12,53669,List1B,white,woman,,,,null,,,,
null,are talking to each other,,html-keyboard-response,80,455132,0.0-13.0-2.12,53669,List1B,white,woman,,,,null,,,,
7669,,,survey-text,81,462801,0.0-13.0-3.12,53669,List1B,white,woman,,,,,"{""Q0"":""Kate & Ruth are talking to each other""}","<img src=""stim_listB/talk8.gif""</stim_listB>",are talking to each other,
null,"<div style=""font-size:60px;"">+</div>",,html-keyboard-response,82,463303,0.0-13.0-0.13,53669,List1B,white,woman,,,,null,,,,
null,"<img src=""stim_listB/touch4.gif""</stim_listB>",,html-keyboard-response,83,465304,0.0-13.0-1.13,53669,List1B,white,woman,,,,null,,,,
null,are touching each other,,html-keyboard-response,84,467306,0.0-13.0-2.13,53669,List1B,white,woman,,,,null,,,,
6733,,,survey-text,85,474040,0.0-13.0-3.13,53669,List1B,white,woman,,,,,"{""Q0"":""Luke & Ruth are touching each other""}","<img src=""stim_listB/touch4.gif""</stim_listB>",are touching each other,
null,"<div style=""font-size:60px;"">+</div>",,html-keyboard-response,86,474542,0.0-13.0-0.14,53669,List1B,white,woman,,,,null,,,,
null,"<img src=""stim_listB/hug8.gif""</stim_listB>",,html-keyboard-response,87,476544,0.0-13.0-1.14,53669,List1B,white,woman,,,,null,,,,
null,are hugging each other,,html-keyboard-response,88,478545,0.0-13.0-2.14,53669,List1B,white,woman,,,,null,,,,
8623,,,survey-text,89,487169,0.0-13.0-3.14,53669,List1B,white,woman,,,,,"{""Q0"":""Jane & Kate are hugging each other""}","<img src=""stim_listB/hug8.gif""</stim_listB>",are hugging each other,
null,"<div style=""font-size:60px;"">+</div>",,html-keyboard-response,90,487671,0.0-13.0-0.15,53669,List1B,white,woman,,,,null,,,,
null,"<img src=""stim_listB/meet3.gif""</stim_listB>",,html-keyboard-response,91,489672,0.0-13.0-1.15,53669,List1B,white,woman,,,,null,,,,
null,is meeting,,html-keyboard-response,92,491674,0.0-13.0-2.15,53669,List1B,white,woman,,,,null,,,,
4664,,,survey-text,93,496338,0.0-13.0-3.15,53669,List1B,white,woman,,,,,"{""Q0"":""Jane is meeting Dave""}","<img src=""stim_listB/meet3.gif""</stim_listB>",is meeting,
null,"<div style=""font-size:60px;"">+</div>",,html-keyboard-response,94,496840,0.0-13.0-0.16,53669,List1B,white,woman,,,,null,,,,
null,"<img src=""stim_listB/kiss8.gif""</stim_listB>",,html-keyboard-response,95,498842,0.0-13.0-1.16,53669,List1B,white,woman,,,,null,,,,
null,are kissing each other,,html-keyboard-response,96,500843,0.0-13.0-2.16,53669,List1B,white,woman,,,,null,,,,
8793,,,survey-text,97,509636,0.0-13.0-3.16,53669,List1B,white,woman,,,,,"{""Q0"":""Jane & Kate are kissing each other""}","<img src=""stim_listB/kiss8.gif""</stim_listB>",are kissing each other,
null,"<div style=""font-size:60px;"">+</div>",,html-keyboard-response,98,510138,0.0-13.0-0.17,53669,List1B,white,woman,,,,null,,,,
null,"<img src=""stim_listB/hug3.gif""</stim_listB>",,html-keyboard-response,99,512140,0.0-13.0-1.17,53669,List1B,white,woman,,,,null,,,,
null,is hugging,,html-keyboard-response,100,514140,0.0-13.0-2.17,53669,List1B,white,woman,,,,null,,,,
6824,,,survey-text,101,520966,0.0-13.0-3.17,53669,List1B,white,woman,,,,,"{""Q0"":""Luke is hugging Ruth""}","<img src=""stim_listB/hug3.gif""</stim_listB>",is hugging,
null,"<div style=""font-size:60px;"">+</div>",,html-keyboard-response,102,521467,0.0-13.0-0.18,53669,List1B,white,woman,,,,null,,,,
null,"<img src=""stim_listB/meet7.gif""</stim_listB>",,html-keyboard-response,103,523469,0.0-13.0-1.18,53669,List1B,white,woman,,,,null,,,,
null,is meeting,,html-keyboard-response,104,525471,0.0-13.0-2.18,53669,List1B,white,woman,,,,null,,,,
4034,,,survey-text,105,529505,0.0-13.0-3.18,53669,List1B,white,woman,,,,,"{""Q0"":""Jane is meeting Kate""}","<img src=""stim_listB/meet7.gif""</stim_listB>",is meeting,
null,"<div style=""font-size:60px;"">+</div>",,html-keyboard-response,106,530007,0.0-13.0-0.19,53669,List1B,white,woman,,,,null,,,,
null,"<img src=""stim_listB/dance4.gif""</stim_listB>",,html-keyboard-response,107,532008,0.0-13.0-1.19,53669,List1B,white,woman,,,,null,,,,
null,are dancing with each other,,html-keyboard-response,108,534010,0.0-13.0-2.19,53669,List1B,white,woman,,,,null,,,,
11751,,,survey-text,109,545761,0.0-13.0-3.19,53669,List1B,white,woman,,,,,"{""Q0"":""Ruth & Dave are dancing with each other""}","<img src=""stim_listB/dance4.gif""</stim_listB>",are dancing with each other,
8774,"<img src='img/portrait_matrix_list1.JPG' style='width:900px;height:500px;''></img><p>If you have memorised all the portraits and names and are ready to start, press Continue.</p><p><strong>Please note: Your memory of these faces will be tested 4 times during this experiment.</strong></p>",0,html-button-response,110,554537,0.0-14.0-0.0,53669,List1B,white,woman,,,,,,,,
4422,"<img src=""portrait/BW1.jpg""style=""width:400px;height:400px;""></img>",0,html-button-response,111,559960,0.0-14.0-1.0,53669,List1B,white,woman,,TRUE,0,,,,,
null,CORRECT,,html-keyboard-response,112,561462,0.0-14.0-2.0-0.0,53669,List1B,white,woman,,,,null,,,,
1984,"<img src=""portrait/WW1.jpg""style=""width:400px;height:400px;""></img>",1,html-button-response,113,563447,0.0-14.0-4.0,53669,List1B,white,woman,,TRUE,1,,,,,
null,CORRECT,,html-keyboard-response,114,564949,0.0-14.0-5.0-0.0,53669,List1B,white,woman,,,,null,,,,
1749,"<img src=""portrait/WW2.jpg""style=""width:400px;height:400px;""></img>",3,html-button-response,115,566698,0.0-14.0-7.0,53669,List1B,white,woman,,TRUE,3,,,,,
null,CORRECT,,html-keyboard-response,116,568201,0.0-14.0-8.0-0.0,53669,List1B,white,woman,,,,null,,,,
3672,"<img src=""portrait/BM2.jpg""style=""width:400px;height:400px;""></img>",5,html-button-response,117,571873,0.0-14.0-10.0,53669,List1B,white,woman,,TRUE,5,,,,,
null,CORRECT,,html-keyboard-response,118,573375,0.0-14.0-11.0-0.0,53669,List1B,white,woman,,,,null,,,,
2334,"<img src=""portrait/WM2.jpg""style=""width:400px;height:400px;""></img>",7,html-button-response,119,575710,0.0-14.0-13.0,53669,List1B,white,woman,,TRUE,7,,,,,
null,CORRECT,,html-keyboard-response,120,577212,0.0-14.0-14.0-0.0,53669,List1B,white,woman,,,,null,,,,
1535,"<img src=""portrait/WM1.jpg""style=""width:400px;height:400px;""></img>",6,html-button-response,121,578747,0.0-14.0-16.0,53669,List1B,white,woman,,TRUE,6,,,,,
null,CORRECT,,html-keyboard-response,122,580250,0.0-14.0-17.0-0.0,53669,List1B,white,woman,,,,null,,,,
1961,"<img src=""portrait/BM1.jpg""style=""width:400px;height:400px;""></img>",4,html-button-response,123,582212,0.0-14.0-19.0,53669,List1B,white,woman,,TRUE,4,,,,,
null,CORRECT,,html-keyboard-response,124,583714,0.0-14.0-20.0-0.0,53669,List1B,white,woman,,,,null,,,,
2187,"<img src=""portrait/BW2.jpg""style=""width:400px;height:400px;""></img>",2,html-button-response,125,585903,0.0-14.0-22.0,53669,List1B,white,woman,,TRUE,2,,,,,
null,CORRECT,,html-keyboard-response,126,587405,0.0-14.0-23.0-0.0,53669,List1B,white,woman,,,,null,,,,
1849,<p>You got 8 out of 8 right first time. Press Continue.</p>,0,html-button-response,127,589255,0.0-14.0-25.0,53669,List1B,white,woman,,,,,,,,
null,"<div style=""font-size:60px;"">+</div>",,html-keyboard-response,128,590757,0.0-15.0-0.0,53669,List1B,white,woman,,,,null,,,,
null,"<img src=""stim_listB/marry5.gif""</stim_listB>",,html-keyboard-response,129,592759,0.0-15.0-1.0,53669,List1B,white,woman,,,,null,,,,
null,is marrying,,html-keyboard-response,130,594761,0.0-15.0-2.0,53669,List1B,white,woman,,,,null,,,,
6903,,,survey-text,131,601665,0.0-15.0-3.0,53669,List1B,white,woman,,,,,"{""Q0"":""Mike is marrying Luke""}","<img src=""stim_listB/marry5.gif""</stim_listB>",is marrying,
null,"<div style=""font-size:60px;"">+</div>",,html-keyboard-response,132,602166,0.0-15.0-0.1,53669,List1B,white,woman,,,,null,,,,
null,"<img src=""stim_listB/shout3.gif""</stim_listB>",,html-keyboard-response,133,604168,0.0-15.0-1.1,53669,List1B,white,woman,,,,null,,,,
null,is shouting at,,html-keyboard-response,134,606169,0.0-15.0-2.1,53669,List1B,white,woman,,,,null,,,,
7252,,,survey-text,135,613421,0.0-15.0-3.1,53669,List1B,white,woman,,,,,"{""Q0"":""Ruth is shouting at Luke""}","<img src=""stim_listB/shout3.gif""</stim_listB>",is shouting at,
null,"<div style=""font-size:60px;"">+</div>",,html-keyboard-response,136,613922,0.0-15.0-0.2,53669,List1B,white,woman,,,,null,,,,
null,"<img src=""stim_listB/argue3.gif""</stim_listB>",,html-keyboard-response,137,615923,0.0-15.0-1.2,53669,List1B,white,woman,,,,null,,,,
null,is arguing with,,html-keyboard-response,138,617924,0.0-15.0-2.2,53669,List1B,white,woman,,,,null,,,,
6116,,,survey-text,139,624042,0.0-15.0-3.2,53669,List1B,white,woman,,,,,"{""Q0"":""Ruth is arguing with Dave""}","<img src=""stim_listB/argue3.gif""</stim_listB>",is arguing with,
null,"<div style=""font-size:60px;"">+</div>",,html-keyboard-response,140,624543,0.0-15.0-0.3,53669,List1B,white,woman,,,,null,,,,
null,"<img src=""stim_listB/marry1.gif""</stim_listB>",,html-keyboard-response,141,626545,0.0-15.0-1.3,53669,List1B,white,woman,,,,null,,,,
null,is marrying,,html-keyboard-response,142,628546,0.0-15.0-2.3,53669,List1B,white,woman,,,,null,,,,
4990,,,survey-text,143,633537,0.0-15.0-3.3,53669,List1B,white,woman,,,,,"{""Q0"":""Beth is marrying Mike""}","<img src=""stim_listB/marry1.gif""</stim_listB>",is marrying,
null,"<div style=""font-size:60px;"">+</div>",,html-keyboard-response,144,634038,0.0-15.0-0.4,53669,List1B,white,woman,,,,null,,,,
null,"<img src=""stim_listB/touch6.gif""</stim_listB>",,html-keyboard-response,145,636040,0.0-15.0-1.4,53669,List1B,white,woman,,,,null,,,,
null,are touching each other,,html-keyboard-response,146,638041,0.0-15.0-2.4,53669,List1B,white,woman,,,,null,,,,
8411,,,survey-text,147,646452,0.0-15.0-3.4,53669,List1B,white,woman,,,,,"{""Q0"":""Luke & Fred are touching each other""}","<img src=""stim_listB/touch6.gif""</stim_listB>",are touching each other,
null,"<div style=""font-size:60px;"">+</div>",,html-keyboard-response,148,646954,0.0-15.0-0.5,53669,List1B,white,woman,,,,null,,,,
null,"<img src=""stim_listB/kiss7.gif""</stim_listB>",,html-keyboard-response,149,648956,0.0-15.0-1.5,53669,List1B,white,woman,,,,null,,,,
null,is kissing,,html-keyboard-response,150,650957,0.0-15.0-2.5,53669,List1B,white,woman,,,,null,,,,
4708,,,survey-text,151,655666,0.0-15.0-3.5,53669,List1B,white,woman,,,,,"{""Q0"":""Ruth is kissing Kate""}","<img src=""stim_listB/kiss7.gif""</stim_listB>",is kissing,
null,"<div style=""font-size:60px;"">+</div>",,html-keyboard-response,152,656167,0.0-15.0-0.6,53669,List1B,white,woman,,,,null,,,,
null,"<img src=""stim_listB/kiss2.gif""</stim_listB>",,html-keyboard-response,153,658169,0.0-15.0-1.6,53669,List1B,white,woman,,,,null,,,,
null,are kissing each other,,html-keyboard-response,154,660169,0.0-15.0-2.6,53669,List1B,white,woman,,,,null,,,,
6161,,,survey-text,155,666332,0.0-15.0-3.6,53669,List1B,white,woman,,,,,"{""Q0"":""Mike & Kate are kissing each other""}","<img src=""stim_listB/kiss2.gif""</stim_listB>",are kissing each other,
null,"<div style=""font-size:60px;"">+</div>",,html-keyboard-response,156,666833,0.0-15.0-0.7,53669,List1B,white,woman,,,,null,,,,
null,"<img src=""stim_listB/kiss1.gif""</stim_listB>",,html-keyboard-response,157,668835,0.0-15.0-1.7,53669,List1B,white,woman,,,,null,,,,
null,is kissing,,html-keyboard-response,158,670837,0.0-15.0-2.7,53669,List1B,white,woman,,,,null,,,,
5294,,,survey-text,159,676131,0.0-15.0-3.7,53669,List1B,white,woman,,,,,"{""Q0"":""Beth is kissing Fred""}","<img src=""stim_listB/kiss1.gif""</stim_listB>",is kissing,
null,"<div style=""font-size:60px;"">+</div>",,html-keyboard-response,160,676633,0.0-15.0-0.8,53669,List1B,white,woman,,,,null,,,,
null,"<img src=""stim_listB/dance5.gif""</stim_listB>",,html-keyboard-response,161,678635,0.0-15.0-1.8,53669,List1B,white,woman,,,,null,,,,
null,is dancing with,,html-keyboard-response,162,680636,0.0-15.0-2.8,53669,List1B,white,woman,,,,null,,,,
6452,,,survey-text,163,687089,0.0-15.0-3.8,53669,List1B,white,woman,,,,,"{""Q0"":""Fred is dancing with Dave""}","<img src=""stim_listB/dance5.gif""</stim_listB>",is dancing with,
null,"<div style=""font-size:60px;"">+</div>",,html-keyboard-response,164,687590,0.0-15.0-0.9,53669,List1B,white,woman,,,,null,,,,
null,"<img src=""stim_listB/fight6.gif""</stim_listB>",,html-keyboard-response,165,689592,0.0-15.0-1.9,53669,List1B,white,woman,,,,null,,,,
null,are fighting each other,,html-keyboard-response,166,691593,0.0-15.0-2.9,53669,List1B,white,woman,,,,null,,,,
11955,,,survey-text,167,703548,0.0-15.0-3.9,53669,List1B,white,woman,,,,,"{""Q0"":""Fred and Luke are fighting each other.""}","<img src=""stim_listB/fight6.gif""</stim_listB>",are fighting each other,
null,"<div style=""font-size:60px;"">+</div>",,html-keyboard-response,168,704049,0.0-15.0-0.10,53669,List1B,white,woman,,,,null,,,,
null,"<img src=""stim_listB/talk7.gif""</stim_listB>",,html-keyboard-response,169,706050,0.0-15.0-1.10,53669,List1B,white,woman,,,,null,,,,
null,is talking to,,html-keyboard-response,170,708051,0.0-15.0-2.10,53669,List1B,white,woman,,,,null,,,,
6611,,,survey-text,171,714663,0.0-15.0-3.10,53669,List1B,white,woman,,,,,"{""Q0"":""Jane is talking to Beth""}","<img src=""stim_listB/talk7.gif""</stim_listB>",is talking to,
null,"<div style=""font-size:60px;"">+</div>",,html-keyboard-response,172,715165,0.0-15.0-0.11,53669,List1B,white,woman,,,,null,,,,
null,"<img src=""stim_listB/fight7.gif""</stim_listB>",,html-keyboard-response,173,717167,0.0-15.0-1.11,53669,List1B,white,woman,,,,null,,,,
null,is fighting,,html-keyboard-response,174,719168,0.0-15.0-2.11,53669,List1B,white,woman,,,,null,,,,
6216,,,survey-text,175,725385,0.0-15.0-3.11,53669,List1B,white,woman,,,,,"{""Q0"":""Jane is fighting Kate""}","<img src=""stim_listB/fight7.gif""</stim_listB>",is fighting,
null,"<div style=""font-size:60px;"">+</div>",,html-keyboard-response,176,725887,0.0-15.0-0.12,53669,List1B,white,woman,,,,null,,,,
null,"<img src=""stim_listB/kiss4.gif""</stim_listB>",,html-keyboard-response,177,727889,0.0-15.0-1.12,53669,List1B,white,woman,,,,null,,,,
null,are kissing each other,,html-keyboard-response,178,729890,0.0-15.0-2.12,53669,List1B,white,woman,,,,null,,,,
8218,,,survey-text,179,738109,0.0-15.0-3.12,53669,List1B,white,woman,,,,,"{""Q0"":""Jane & Dave are kissing each other""}","<img src=""stim_listB/kiss4.gif""</stim_listB>",are kissing each other,
null,"<div style=""font-size:60px;"">+</div>",,html-keyboard-response,180,738610,0.0-15.0-0.13,53669,List1B,white,woman,,,,null,,,,
null,"<img src=""stim_listB/meet2.gif""</stim_listB>",,html-keyboard-response,181,740611,0.0-15.0-1.13,53669,List1B,white,woman,,,,null,,,,
null,are meeting each other,,html-keyboard-response,182,742611,0.0-15.0-2.13,53669,List1B,white,woman,,,,null,,,,
8649,,,survey-text,183,751261,0.0-15.0-3.13,53669,List1B,white,woman,,,,,"{""Q0"":""Fred & Beth are meeting each other""}","<img src=""stim_listB/meet2.gif""</stim_listB>",are meeting each other,
null,"<div style=""font-size:60px;"">+</div>",,html-keyboard-response,184,751762,0.0-15.0-0.14,53669,List1B,white,woman,,,,null,,,,
null,"<img src=""stim_listB/talk5.gif""</stim_listB>",,html-keyboard-response,185,753764,0.0-15.0-1.14,53669,List1B,white,woman,,,,null,,,,
null,is talking to,,html-keyboard-response,186,755765,0.0-15.0-2.14,53669,List1B,white,woman,,,,null,,,,
6284,,,survey-text,187,762050,0.0-15.0-3.14,53669,List1B,white,woman,,,,,"{""Q0"":""Dave is talking to Fred""}","<img src=""stim_listB/talk5.gif""</stim_listB>",is talking to,
null,"<div style=""font-size:60px;"">+</div>",,html-keyboard-response,188,762551,0.0-15.0-0.15,53669,List1B,white,woman,,,,null,,,,
null,"<img src=""stim_listB/hug1.gif""</stim_listB>",,html-keyboard-response,189,764552,0.0-15.0-1.15,53669,List1B,white,woman,,,,null,,,,
null,is hugging,,html-keyboard-response,190,766552,0.0-15.0-2.15,53669,List1B,white,woman,,,,null,,,,
8210,,,survey-text,191,774763,0.0-15.0-3.15,53669,List1B,white,woman,,,,,"{""Q0"":""Fred is hugging Beth""}","<img src=""stim_listB/hug1.gif""</stim_listB>",is hugging,
null,"<div style=""font-size:60px;"">+</div>",,html-keyboard-response,192,775264,0.0-15.0-0.16,53669,List1B,white,woman,,,,null,,,,
null,"<img src=""stim_listB/hug5.gif""</stim_listB>",,html-keyboard-response,193,777266,0.0-15.0-1.16,53669,List1B,white,woman,,,,null,,,,
null,is hugging,,html-keyboard-response,194,779268,0.0-15.0-2.16,53669,List1B,white,woman,,,,null,,,,
6790,,,survey-text,195,786059,0.0-15.0-3.16,53669,List1B,white,woman,,,,,"{""Q0"":""Luke is hugging Fred""}","<img src=""stim_listB/hug5.gif""</stim_listB>",is hugging,
null,"<div style=""font-size:60px;"">+</div>",,html-keyboard-response,196,786560,0.0-15.0-0.17,53669,List1B,white,woman,,,,null,,,,
null,"<img src=""stim_listB/shout4.gif""</stim_listB>",,html-keyboard-response,197,788562,0.0-15.0-1.17,53669,List1B,white,woman,,,,null,,,,
null,are shouting at each other,,html-keyboard-response,198,790563,0.0-15.0-2.17,53669,List1B,white,woman,,,,null,,,,
9006,,,survey-text,199,799570,0.0-15.0-3.17,53669,List1B,white,woman,,,,,"{""Q0"":""Dave & Jane are shouting at each other""}","<img src=""stim_listB/shout4.gif""</stim_listB>",are shouting at each other,
null,"<div style=""font-size:60px;"">+</div>",,html-keyboard-response,200,800072,0.0-15.0-0.18,53669,List1B,white,woman,,,,null,,,,
null,"<img src=""stim_listB/meet4.gif""</stim_listB>",,html-keyboard-response,201,802073,0.0-15.0-1.18,53669,List1B,white,woman,,,,null,,,,
null,are meeting each other,,html-keyboard-response,202,804075,0.0-15.0-2.18,53669,List1B,white,woman,,,,null,,,,
8061,,,survey-text,203,812137,0.0-15.0-3.18,53669,List1B,white,woman,,,,,"{""Q0"":""Jane and Luke are meeting each other""}","<img src=""stim_listB/meet4.gif""</stim_listB>",are meeting each other,
null,"<div style=""font-size:60px;"">+</div>",,html-keyboard-response,204,812637,0.0-15.0-0.19,53669,List1B,white,woman,,,,null,,,,
null,"<img src=""stim_listB/marry2.gif""</stim_listB>",,html-keyboard-response,205,814639,0.0-15.0-1.19,53669,List1B,white,woman,,,,null,,,,
null,are marrying each other,,html-keyboard-response,206,816640,0.0-15.0-2.19,53669,List1B,white,woman,,,,null,,,,
7410,,,survey-text,207,824051,0.0-15.0-3.19,53669,List1B,white,woman,,,,,"{""Q0"":""Kate & Fred are marrying each other.""}","<img src=""stim_listB/marry2.gif""</stim_listB>",are marrying each other,
6953,"<img src='img/portrait_matrix_list1.JPG' style='width:900px;height:500px;''></img><p>If you have memorised all the portraits and names and are ready to start, press Continue.</p><p><strong>Please note: Your memory of these faces will be tested 4 times during this experiment.</strong></p>",0,html-button-response,208,831004,0.0-16.0-0.0,53669,List1B,white,woman,,,,,,,,
3151,"<img src=""portrait/WM1.jpg""style=""width:400px;height:400px;""></img>",6,html-button-response,209,835155,0.0-16.0-1.0,53669,List1B,white,woman,,TRUE,6,,,,,
null,CORRECT,,html-keyboard-response,210,836657,0.0-16.0-2.0-0.0,53669,List1B,white,woman,,,,null,,,,
1884,"<img src=""portrait/BM1.jpg""style=""width:400px;height:400px;""></img>",4,html-button-response,211,838541,0.0-16.0-4.0,53669,List1B,white,woman,,TRUE,4,,,,,
null,CORRECT,,html-keyboard-response,212,840043,0.0-16.0-5.0-0.0,53669,List1B,white,woman,,,,null,,,,
1839,"<img src=""portrait/BW2.jpg""style=""width:400px;height:400px;""></img>",2,html-button-response,213,841883,0.0-16.0-7.0,53669,List1B,white,woman,,TRUE,2,,,,,
null,CORRECT,,html-keyboard-response,214,843385,0.0-16.0-8.0-0.0,53669,List1B,white,woman,,,,null,,,,
3583,"<img src=""portrait/WM2.jpg""style=""width:400px;height:400px;""></img>",7,html-button-response,215,846968,0.0-16.0-10.0,53669,List1B,white,woman,,TRUE,7,,,,,
null,CORRECT,,html-keyboard-response,216,848470,0.0-16.0-11.0-0.0,53669,List1B,white,woman,,,,null,,,,
4247,"<img src=""portrait/BW1.jpg""style=""width:400px;height:400px;""></img>",0,html-button-response,217,852717,0.0-16.0-13.0,53669,List1B,white,woman,,TRUE,0,,,,,
null,CORRECT,,html-keyboard-response,218,854219,0.0-16.0-14.0-0.0,53669,List1B,white,woman,,,,null,,,,
3572,"<img src=""portrait/BM2.jpg""style=""width:400px;height:400px;""></img>",5,html-button-response,219,857791,0.0-16.0-16.0,53669,List1B,white,woman,,TRUE,5,,,,,
null,CORRECT,,html-keyboard-response,220,859294,0.0-16.0-17.0-0.0,53669,List1B,white,woman,,,,null,,,,
2266,"<img src=""portrait/WW1.jpg""style=""width:400px;height:400px;""></img>",1,html-button-response,221,861560,0.0-16.0-19.0,53669,List1B,white,woman,,TRUE,1,,,,,
null,CORRECT,,html-keyboard-response,222,863062,0.0-16.0-20.0-0.0,53669,List1B,white,woman,,,,null,,,,
2603,"<img src=""portrait/WW2.jpg""style=""width:400px;height:400px;""></img>",3,html-button-response,223,865666,0.0-16.0-22.0,53669,List1B,white,woman,,TRUE,3,,,,,
null,CORRECT,,html-keyboard-response,224,867167,0.0-16.0-23.0-0.0,53669,List1B,white,woman,,,,null,,,,
1604,<p>You got 8 out of 8 right first time. Press Continue.</p>,0,html-button-response,225,868771,0.0-16.0-25.0,53669,List1B,white,woman,,,,,,,,
null,"<div style=""font-size:60px;"">+</div>",,html-keyboard-response,226,870273,0.0-17.0-0.0,53669,List1B,white,woman,,,,null,,,,
null,"<img src=""stim_listB/shout8.gif""</stim_listB>",,html-keyboard-response,227,872275,0.0-17.0-1.0,53669,List1B,white,woman,,,,null,,,,
null,are shouting at each other,,html-keyboard-response,228,874276,0.0-17.0-2.0,53669,List1B,white,woman,,,,null,,,,
9492,,,survey-text,229,883768,0.0-17.0-3.0,53669,List1B,white,woman,,,,,"{""Q0"":""Jane & Kate are shouting at each other""}","<img src=""stim_listB/shout8.gif""</stim_listB>",are shouting at each other,
null,"<div style=""font-size:60px;"">+</div>",,html-keyboard-response,230,884270,0.0-17.0-0.1,53669,List1B,white,woman,,,,null,,,,
null,"<img src=""stim_listB/hug2.gif""</stim_listB>",,html-keyboard-response,231,886271,0.0-17.0-1.1,53669,List1B,white,woman,,,,null,,,,
null,are hugging each other,,html-keyboard-response,232,888273,0.0-17.0-2.1,53669,List1B,white,woman,,,,null,,,,
8500,,,survey-text,233,896774,0.0-17.0-3.1,53669,List1B,white,woman,,,,,"{""Q0"":""Kate & Mike are hugging each other.""}","<img src=""stim_listB/hug2.gif""</stim_listB>",are hugging each other,
null,"<div style=""font-size:60px;"">+</div>",,html-keyboard-response,234,897275,0.0-17.0-0.2,53669,List1B,white,woman,,,,null,,,,
null,"<img src=""stim_listB/dance8.gif""</stim_listB>",,html-keyboard-response,235,899277,0.0-17.0-1.2,53669,List1B,white,woman,,,,null,,,,
null,are dancing with each other,,html-keyboard-response,236,901277,0.0-17.0-2.2,53669,List1B,white,woman,,,,null,,,,
9367,,,survey-text,237,910645,0.0-17.0-3.2,53669,List1B,white,woman,,,,,"{""Q0"":""Kate & Ruth are dancing with each other.""}","<img src=""stim_listB/dance8.gif""</stim_listB>",are dancing with each other,
null,"<div style=""font-size:60px;"">+</div>",,html-keyboard-response,238,911147,0.0-17.0-0.3,53669,List1B,white,woman,,,,null,,,,
null,"<img src=""stim_listB/touch1.gif""</stim_listB>",,html-keyboard-response,239,913148,0.0-17.0-1.3,53669,List1B,white,woman,,,,null,,,,
null,is touching,,html-keyboard-response,240,915149,0.0-17.0-2.3,53669,List1B,white,woman,,,,null,,,,
6150,,,survey-text,241,921299,0.0-17.0-3.3,53669,List1B,white,woman,,,,,"{""Q0"":""Mike is touching Kate""}","<img src=""stim_listB/touch1.gif""</stim_listB>",is touching,
null,"<div style=""font-size:60px;"">+</div>",,html-keyboard-response,242,921801,0.0-17.0-0.4,53669,List1B,white,woman,,,,null,,,,
null,"<img src=""stim_listB/hug6.gif""</stim_listB>",,html-keyboard-response,243,923803,0.0-17.0-1.4,53669,List1B,white,woman,,,,null,,,,
null,are hugging each other,,html-keyboard-response,244,925804,0.0-17.0-2.4,53669,List1B,white,woman,,,,null,,,,
7139,,,survey-text,245,932944,0.0-17.0-3.4,53669,List1B,white,woman,,,,,"{""Q0"":""Mike & Dave are hugging each other.""}","<img src=""stim_listB/hug6.gif""</stim_listB>",are hugging each other,
null,"<div style=""font-size:60px;"">+</div>",,html-keyboard-response,246,933445,0.0-17.0-0.5,53669,List1B,white,woman,,,,null,,,,
null,"<img src=""stim_listB/argue1.gif""</stim_listB>",,html-keyboard-response,247,935447,0.0-17.0-1.5,53669,List1B,white,woman,,,,null,,,,
null,is arguing with,,html-keyboard-response,248,937449,0.0-17.0-2.5,53669,List1B,white,woman,,,,null,,,,
8387,,,survey-text,249,945836,0.0-17.0-3.5,53669,List1B,white,woman,,,,,"{""Q0"":""Beth is arguing with Mike.""}","<img src=""stim_listB/argue1.gif""</stim_listB>",is arguing with,
null,"<div style=""font-size:60px;"">+</div>",,html-keyboard-response,250,946338,0.0-17.0-0.6,53669,List1B,white,woman,,,,null,,,,
null,"<img src=""stim_listB/hug7.gif""</stim_listB>",,html-keyboard-response,251,948340,0.0-17.0-1.6,53669,List1B,white,woman,,,,null,,,,
null,is hugging,,html-keyboard-response,252,950341,0.0-17.0-2.6,53669,List1B,white,woman,,,,null,,,,
10334,,,survey-text,253,960676,0.0-17.0-3.6,53669,List1B,white,woman,,,,,"{""Q0"":""Ruth is hugging Beth.""}","<img src=""stim_listB/hug7.gif""</stim_listB>",is hugging,
null,"<div style=""font-size:60px;"">+</div>",,html-keyboard-response,254,961178,0.0-17.0-0.7,53669,List1B,white,woman,,,,null,,,,
null,"<img src=""stim_listB/dance3.gif""</stim_listB>",,html-keyboard-response,255,963179,0.0-17.0-1.7,53669,List1B,white,woman,,,,null,,,,
null,is dancing with,,html-keyboard-response,256,965180,0.0-17.0-2.7,53669,List1B,white,woman,,,,null,,,,
7218,,,survey-text,257,972399,0.0-17.0-3.7,53669,List1B,white,woman,,,,,"{""Q0"":""Jane is dancing with Luke.""}","<img src=""stim_listB/dance3.gif""</stim_listB>",is dancing with,
null,"<div style=""font-size:60px;"">+</div>",,html-keyboard-response,258,972899,0.0-17.0-0.8,53669,List1B,white,woman,,,,null,,,,
null,"<img src=""stim_listB/dance7.gif""</stim_listB>",,html-keyboard-response,259,974900,0.0-17.0-1.8,53669,List1B,white,woman,,,,null,,,,
null,is dancing with,,html-keyboard-response,260,976901,0.0-17.0-2.8,53669,List1B,white,woman,,,,null,,,,
7389,,,survey-text,261,984290,0.0-17.0-3.8,53669,List1B,white,woman,,,,,"{""Q0"":""Jane is dancing with Beth.""}","<img src=""stim_listB/dance7.gif""</stim_listB>",is dancing with,
null,"<div style=""font-size:60px;"">+</div>",,html-keyboard-response,262,984792,0.0-17.0-0.9,53669,List1B,white,woman,,,,null,,,,
null,"<img src=""stim_listB/talk6.gif""</stim_listB>",,html-keyboard-response,263,986794,0.0-17.0-1.9,53669,List1B,white,woman,,,,null,,,,
null,are talking to each other,,html-keyboard-response,264,988795,0.0-17.0-2.9,53669,List1B,white,woman,,,,null,,,,
8556,,,survey-text,265,997352,0.0-17.0-3.9,53669,List1B,white,woman,,,,,"{""Q0"":""Mike and Luke are talking to each other.""}","<img src=""stim_listB/talk6.gif""</stim_listB>",are talking to each other,
null,"<div style=""font-size:60px;"">+</div>",,html-keyboard-response,266,997854,0.0-17.0-0.10,53669,List1B,white,woman,,,,null,,,,
null,"<img src=""stim_listB/fight1.gif""</stim_listB>",,html-keyboard-response,267,999855,0.0-17.0-1.10,53669,List1B,white,woman,,,,null,,,,
null,is fighting,,html-keyboard-response,268,1001857,0.0-17.0-2.10,53669,List1B,white,woman,,,,null,,,,
6543,,,survey-text,269,1008400,0.0-17.0-3.10,53669,List1B,white,woman,,,,,"{""Q0"":""Kate is fighting Mike.""}","<img src=""stim_listB/fight1.gif""</stim_listB>",is fighting,
null,"<div style=""font-size:60px;"">+</div>",,html-keyboard-response,270,1008902,0.0-17.0-0.11,53669,List1B,white,woman,,,,null,,,,
null,"<img src=""stim_listB/touch2.gif""</stim_listB>",,html-keyboard-response,271,1010903,0.0-17.0-1.11,53669,List1B,white,woman,,,,null,,,,
null,are touching each other,,html-keyboard-response,272,1012905,0.0-17.0-2.11,53669,List1B,white,woman,,,,null,,,,
7679,,,survey-text,273,1020584,0.0-17.0-3.11,53669,List1B,white,woman,,,,,"{""Q0"":""Fred & Beth are touching each other.""}","<img src=""stim_listB/touch2.gif""</stim_listB>",are touching each other,
null,"<div style=""font-size:60px;"">+</div>",,html-keyboard-response,274,1021086,0.0-17.0-0.12,53669,List1B,white,woman,,,,null,,,,
null,"<img src=""stim_listB/dance2.gif""</stim_listB>",,html-keyboard-response,275,1023087,0.0-17.0-1.12,53669,List1B,white,woman,,,,null,,,,
null,are dancing with each other,,html-keyboard-response,276,1025089,0.0-17.0-2.12,53669,List1B,white,woman,,,,null,,,,
9446,,,survey-text,277,1034535,0.0-17.0-3.12,53669,List1B,white,woman,,,,,"{""Q0"":""Mike & Beth are dancing with each other.""}","<img src=""stim_listB/dance2.gif""</stim_listB>",are dancing with each other,
null,"<div style=""font-size:60px;"">+</div>",,html-keyboard-response,278,1035036,0.0-17.0-0.13,53669,List1B,white,woman,,,,null,,,,
null,"<img src=""stim_listB/meet6.gif""</stim_listB>",,html-keyboard-response,279,1037037,0.0-17.0-1.13,53669,List1B,white,woman,,,,null,,,,
null,are meeting each other,,html-keyboard-response,280,1039039,0.0-17.0-2.13,53669,List1B,white,woman,,,,null,,,,
7815,,,survey-text,281,1046854,0.0-17.0-3.13,53669,List1B,white,woman,,,,,"{""Q0"":""Fred & Luke are meeting each other.""}","<img src=""stim_listB/meet6.gif""</stim_listB>",are meeting each other,
null,"<div style=""font-size:60px;"">+</div>",,html-keyboard-response,282,1047355,0.0-17.0-0.14,53669,List1B,white,woman,,,,null,,,,
null,"<img src=""stim_listB/fight8.gif""</stim_listB>",,html-keyboard-response,283,1049356,0.0-17.0-1.14,53669,List1B,white,woman,,,,null,,,,
null,are fighting each other,,html-keyboard-response,284,1051357,0.0-17.0-2.14,53669,List1B,white,woman,,,,null,,,,
7411,,,survey-text,285,1058768,0.0-17.0-3.14,53669,List1B,white,woman,,,,,"{""Q0"":""Ruth & Beth are fighting each other.""}","<img src=""stim_listB/fight8.gif""</stim_listB>",are fighting each other,
null,"<div style=""font-size:60px;"">+</div>",,html-keyboard-response,286,1059270,0.0-17.0-0.15,53669,List1B,white,woman,,,,null,,,,
null,"<img src=""stim_listB/fight4.gif""</stim_listB>",,html-keyboard-response,287,1061271,0.0-17.0-1.15,53669,List1B,white,woman,,,,null,,,,
null,are fighting each other,,html-keyboard-response,288,1063273,0.0-17.0-2.15,53669,List1B,white,woman,,,,null,,,,
8230,,,survey-text,289,1071504,0.0-17.0-3.15,53669,List1B,white,woman,,,,,"{""Q0"":""Luke & Beth are fighting each other.""}","<img src=""stim_listB/fight4.gif""</stim_listB>",are fighting each other,
null,"<div style=""font-size:60px;"">+</div>",,html-keyboard-response,290,1072005,0.0-17.0-0.16,53669,List1B,white,woman,,,,null,,,,
null,"<img src=""stim_listB/fight5.gif""</stim_listB>",,html-keyboard-response,291,1074007,0.0-17.0-1.16,53669,List1B,white,woman,,,,null,,,,
null,is fighting,,html-keyboard-response,292,1076009,0.0-17.0-2.16,53669,List1B,white,woman,,,,null,,,,
7330,,,survey-text,293,1083339,0.0-17.0-3.16,53669,List1B,white,woman,,,,,"{""Q0"":""Dave is fighting Mike.""}","<img src=""stim_listB/fight5.gif""</stim_listB>",is fighting,
null,"<div style=""font-size:60px;"">+</div>",,html-keyboard-response,294,1083841,0.0-17.0-0.17,53669,List1B,white,woman,,,,null,,,,
null,"<img src=""stim_listB/marry7.gif""</stim_listB>",,html-keyboard-response,295,1085842,0.0-17.0-1.17,53669,List1B,white,woman,,,,null,,,,
null,is marrying,,html-keyboard-response,296,1087844,0.0-17.0-2.17,53669,List1B,white,woman,,,,null,,,,
6745,,,survey-text,297,1094589,0.0-17.0-3.17,53669,List1B,white,woman,,,,,"{""Q0"":""Ruth is marrying Kate.""}","<img src=""stim_listB/marry7.gif""</stim_listB>",is marrying,
null,"<div style=""font-size:60px;"">+</div>",,html-keyboard-response,298,1095090,0.0-17.0-0.18,53669,List1B,white,woman,,,,null,,,,
null,"<img src=""stim_listB/hug4.gif""</stim_listB>",,html-keyboard-response,299,1097091,0.0-17.0-1.18,53669,List1B,white,woman,,,,null,,,,
null,are hugging each other,,html-keyboard-response,300,1099093,0.0-17.0-2.18,53669,List1B,white,woman,,,,null,,,,
8232,,,survey-text,301,1107325,0.0-17.0-3.18,53669,List1B,white,woman,,,,,"{""Q0"":""Jane & Dave are hugging each other.""}","<img src=""stim_listB/hug4.gif""</stim_listB>",are hugging each other,
null,"<div style=""font-size:60px;"">+</div>",,html-keyboard-response,302,1107826,0.0-17.0-0.19,53669,List1B,white,woman,,,,null,,,,
null,"<img src=""stim_listB/shout2.gif""</stim_listB>",,html-keyboard-response,303,1109828,0.0-17.0-1.19,53669,List1B,white,woman,,,,null,,,,
null,are shouting at each other,,html-keyboard-response,304,1111830,0.0-17.0-2.19,53669,List1B,white,woman,,,,null,,,,
7960,,,survey-text,305,1119790,0.0-17.0-3.19,53669,List1B,white,woman,,,,,"{""Q0"":""Mike & Kate are shouting at each other.""}","<img src=""stim_listB/shout2.gif""</stim_listB>",are shouting at each other,
4083,"<img src='img/portrait_matrix_list1.JPG' style='width:900px;height:500px;''></img><p>If you have memorised all the portraits and names and are ready to start, press Continue.</p><p><strong>Please note: Your memory of these faces will be tested 4 times during this experiment.</strong></p>",0,html-button-response,306,1123874,0.0-18.0-0.0,53669,List1B,white,woman,,,,,,,,
2779,"<img src=""portrait/BM2.jpg""style=""width:400px;height:400px;""></img>",5,html-button-response,307,1127654,0.0-18.0-1.0,53669,List1B,white,woman,,TRUE,5,,,,,
null,CORRECT,,html-keyboard-response,308,1129156,0.0-18.0-2.0-0.0,53669,List1B,white,woman,,,,null,,,,
2121,"<img src=""portrait/BW1.jpg""style=""width:400px;height:400px;""></img>",0,html-button-response,309,1131277,0.0-18.0-4.0,53669,List1B,white,woman,,TRUE,0,,,,,
null,CORRECT,,html-keyboard-response,310,1132779,0.0-18.0-5.0-0.0,53669,List1B,white,woman,,,,null,,,,
3898,"<img src=""portrait/WM2.jpg""style=""width:400px;height:400px;""></img>",7,html-button-response,311,1136677,0.0-18.0-7.0,53669,List1B,white,woman,,TRUE,7,,,,,
null,CORRECT,,html-keyboard-response,312,1138179,0.0-18.0-8.0-0.0,53669,List1B,white,woman,,,,null,,,,
4550,"<img src=""portrait/WW1.jpg""style=""width:400px;height:400px;""></img>",1,html-button-response,313,1142730,0.0-18.0-10.0,53669,List1B,white,woman,,TRUE,1,,,,,
null,CORRECT,,html-keyboard-response,314,1144231,0.0-18.0-11.0-0.0,53669,List1B,white,woman,,,,null,,,,
2965,"<img src=""portrait/BW2.jpg""style=""width:400px;height:400px;""></img>",2,html-button-response,315,1147196,0.0-18.0-13.0,53669,List1B,white,woman,,TRUE,2,,,,,
null,CORRECT,,html-keyboard-response,316,1148699,0.0-18.0-14.0-0.0,53669,List1B,white,woman,,,,null,,,,
1253,"<img src=""portrait/WW2.jpg""style=""width:400px;height:400px;""></img>",3,html-button-response,317,1149952,0.0-18.0-16.0,53669,List1B,white,woman,,TRUE,3,,,,,
null,CORRECT,,html-keyboard-response,318,1151454,0.0-18.0-17.0-0.0,53669,List1B,white,woman,,,,null,,,,
2086,"<img src=""portrait/BM1.jpg""style=""width:400px;height:400px;""></img>",4,html-button-response,319,1153541,0.0-18.0-19.0,53669,List1B,white,woman,,TRUE,4,,,,,
null,CORRECT,,html-keyboard-response,320,1155043,0.0-18.0-20.0-0.0,53669,List1B,white,woman,,,,null,,,,
2458,"<img src=""portrait/WM1.jpg""style=""width:400px;height:400px;""></img>",6,html-button-response,321,1157501,0.0-18.0-22.0,53669,List1B,white,woman,,TRUE,6,,,,,
null,CORRECT,,html-keyboard-response,322,1159003,0.0-18.0-23.0-0.0,53669,List1B,white,woman,,,,null,,,,
1433,<p>You got 8 out of 8 right first time. Press Continue.</p>,0,html-button-response,323,1160438,0.0-18.0-25.0,53669,List1B,white,woman,,,,,,,,
null,"<div style=""font-size:60px;"">+</div>",,html-keyboard-response,324,1161940,0.0-19.0-0.0,53669,List1B,white,woman,,,,null,,,,
null,"<img src=""stim_listB/shout1.gif""</stim_listB>",,html-keyboard-response,325,1163941,0.0-19.0-1.0,53669,List1B,white,woman,,,,null,,,,
null,is shouting at,,html-keyboard-response,326,1165943,0.0-19.0-2.0,53669,List1B,white,woman,,,,null,,,,
5734,,,survey-text,327,1171677,0.0-19.0-3.0,53669,List1B,white,woman,,,,,"{""Q0"":""Beth is shouting at Fred.""}","<img src=""stim_listB/shout1.gif""</stim_listB>",is shouting at,
null,"<div style=""font-size:60px;"">+</div>",,html-keyboard-response,328,1172178,0.0-19.0-0.1,53669,List1B,white,woman,,,,null,,,,
null,"<img src=""stim_listB/meet1.gif""</stim_listB>",,html-keyboard-response,329,1174178,0.0-19.0-1.1,53669,List1B,white,woman,,,,null,,,,
null,is meeting,,html-keyboard-response,330,1176179,0.0-19.0-2.1,53669,List1B,white,woman,,,,null,,,,
5331,,,survey-text,331,1181510,0.0-19.0-3.1,53669,List1B,white,woman,,,,,"{""Q0"":""Kate is meeting Mike.""}","<img src=""stim_listB/meet1.gif""</stim_listB>",is meeting,
null,"<div style=""font-size:60px;"">+</div>",,html-keyboard-response,332,1182011,0.0-19.0-0.2,53669,List1B,white,woman,,,,null,,,,
null,"<img src=""stim_listB/argue2.gif""</stim_listB>",,html-keyboard-response,333,1184012,0.0-19.0-1.2,53669,List1B,white,woman,,,,null,,,,
null,are arguing with each other,,html-keyboard-response,334,1186013,0.0-19.0-2.2,53669,List1B,white,woman,,,,null,,,,
7702,,,survey-text,335,1193717,0.0-19.0-3.2,53669,List1B,white,woman,,,,,"{""Q0"":""Fred & Kate are arguing with each other.""}","<img src=""stim_listB/argue2.gif""</stim_listB>",are arguing with each other,
null,"<div style=""font-size:60px;"">+</div>",,html-keyboard-response,336,1194218,0.0-19.0-0.3,53669,List1B,white,woman,,,,null,,,,
null,"<img src=""stim_listB/marry6.gif""</stim_listB>",,html-keyboard-response,337,1196219,0.0-19.0-1.3,53669,List1B,white,woman,,,,null,,,,
null,are marrying each other,,html-keyboard-response,338,1198220,0.0-19.0-2.3,53669,List1B,white,woman,,,,null,,,,
6105,,,survey-text,339,1204325,0.0-19.0-3.3,53669,List1B,white,woman,,,,,"{""Q0"":""Fred & Dave are marrying each other.""}","<img src=""stim_listB/marry6.gif""</stim_listB>",are marrying each other,
null,"<div style=""font-size:60px;"">+</div>",,html-keyboard-response,340,1204827,0.0-19.0-0.4,53669,List1B,white,woman,,,,null,,,,
null,"<img src=""stim_listB/argue5.gif""</stim_listB>",,html-keyboard-response,341,1206829,0.0-19.0-1.4,53669,List1B,white,woman,,,,null,,,,
null,is arguing with,,html-keyboard-response,342,1208830,0.0-19.0-2.4,53669,List1B,white,woman,,,,null,,,,
5507,,,survey-text,343,1214339,0.0-19.0-3.4,53669,List1B,white,woman,,,,,"{""Q0"":""Luke is arguing with Mike.""}","<img src=""stim_listB/argue5.gif""</stim_listB>",is arguing with,
null,"<div style=""font-size:60px;"">+</div>",,html-keyboard-response,344,1214840,0.0-19.0-0.5,53669,List1B,white,woman,,,,null,,,,
null,"<img src=""stim_listB/meet5.gif""</stim_listB>",,html-keyboard-response,345,1216842,0.0-19.0-1.5,53669,List1B,white,woman,,,,null,,,,
null,is meeting,,html-keyboard-response,346,1218843,0.0-19.0-2.5,53669,List1B,white,woman,,,,null,,,,
5812,,,survey-text,347,1224655,0.0-19.0-3.5,53669,List1B,white,woman,,,,,"{""Q0"":""Dave is meeting Mike.""}","<img src=""stim_listB/meet5.gif""</stim_listB>",is meeting,
null,"<div style=""font-size:60px;"">+</div>",,html-keyboard-response,348,1225157,0.0-19.0-0.6,53669,List1B,white,woman,,,,null,,,,
null,"<img src=""stim_listB/argue8.gif""</stim_listB>",,html-keyboard-response,349,1227159,0.0-19.0-1.6,53669,List1B,white,woman,,,,null,,,,
null,are arguing with each other,,html-keyboard-response,350,1229160,0.0-19.0-2.6,53669,List1B,white,woman,,,,null,,,,
9536,,,survey-text,351,1238696,0.0-19.0-3.6,53669,List1B,white,woman,,,,,"{""Q0"":""Beth & Jane are arguing with each other.""}","<img src=""stim_listB/argue8.gif""</stim_listB>",are arguing with each other,
null,"<div style=""font-size:60px;"">+</div>",,html-keyboard-response,352,1239197,0.0-19.0-0.7,53669,List1B,white,woman,,,,null,,,,
null,"<img src=""stim_listB/talk4.gif""</stim_listB>",,html-keyboard-response,353,1241199,0.0-19.0-1.7,53669,List1B,white,woman,,,,null,,,,
null,are talking to each other,,html-keyboard-response,354,1243200,0.0-19.0-2.7,53669,List1B,white,woman,,,,null,,,,
9525,,,survey-text,355,1252725,0.0-19.0-3.7,53669,List1B,white,woman,,,,,"{""Q0"":""Dave & Ruth are taking to each other.""}","<img src=""stim_listB/talk4.gif""</stim_listB>",are talking to each other,
null,"<div style=""font-size:60px;"">+</div>",,html-keyboard-response,356,1253227,0.0-19.0-0.8,53669,List1B,white,woman,,,,null,,,,
null,"<img src=""stim_listB/dance1.gif""</stim_listB>",,html-keyboard-response,357,1255228,0.0-19.0-1.8,53669,List1B,white,woman,,,,null,,,,
null,is dancing with,,html-keyboard-response,358,1257230,0.0-19.0-2.8,53669,List1B,white,woman,,,,null,,,,
7218,,,survey-text,359,1264448,0.0-19.0-3.8,53669,List1B,white,woman,,,,,"{""Q0"":""Kate is dancing with Fred.""}","<img src=""stim_listB/dance1.gif""</stim_listB>",is dancing with,
null,"<div style=""font-size:60px;"">+</div>",,html-keyboard-response,360,1264949,0.0-19.0-0.9,53669,List1B,white,woman,,,,null,,,,
null,"<img src=""stim_listB/touch3.gif""</stim_listB>",,html-keyboard-response,361,1266949,0.0-19.0-1.9,53669,List1B,white,woman,,,,null,,,,
null,is touching,,html-keyboard-response,362,1268950,0.0-19.0-2.9,53669,List1B,white,woman,,,,null,,,,
5105,,,survey-text,363,1274055,0.0-19.0-3.9,53669,List1B,white,woman,,,,,"{""Q0"":""Jane is touching Dave.""}","<img src=""stim_listB/touch3.gif""</stim_listB>",is touching,
null,"<div style=""font-size:60px;"">+</div>",,html-keyboard-response,364,1274557,0.0-19.0-0.10,53669,List1B,white,woman,,,,null,,,,
null,"<img src=""stim_listB/fight2.gif""</stim_listB>",,html-keyboard-response,365,1276559,0.0-19.0-1.10,53669,List1B,white,woman,,,,null,,,,
null,are fighting each other,,html-keyboard-response,366,1278560,0.0-19.0-2.10,53669,List1B,white,woman,,,,null,,,,
8084,,,survey-text,367,1286645,0.0-19.0-3.10,53669,List1B,white,woman,,,,,"{""Q0"":""Fred & Beth are fighting each other.""}","<img src=""stim_listB/fight2.gif""</stim_listB>",are fighting each other,
null,"<div style=""font-size:60px;"">+</div>",,html-keyboard-response,368,1287146,0.0-19.0-0.11,53669,List1B,white,woman,,,,null,,,,
null,"<img src=""stim_listB/dance6.gif""</stim_listB>",,html-keyboard-response,369,1289147,0.0-19.0-1.11,53669,List1B,white,woman,,,,null,,,,
null,are dancing with each other,,html-keyboard-response,370,1291148,0.0-19.0-2.11,53669,List1B,white,woman,,,,null,,,,
10887,,,survey-text,371,1302035,0.0-19.0-3.11,53669,List1B,white,woman,,,,,"{""Q0"":""Mike & Luke are dancing with each other.""}","<img src=""stim_listB/dance6.gif""</stim_listB>",are dancing with each other,
null,"<div style=""font-size:60px;"">+</div>",,html-keyboard-response,372,1302537,0.0-19.0-0.12,53669,List1B,white,woman,,,,null,,,,
null,"<img src=""stim_listB/marry8.gif""</stim_listB>",,html-keyboard-response,373,1304539,0.0-19.0-1.12,53669,List1B,white,woman,,,,null,,,,
null,are marrying each other,,html-keyboard-response,374,1306540,0.0-19.0-2.12,53669,List1B,white,woman,,,,null,,,,
9333,,,survey-text,375,1315873,0.0-19.0-3.12,53669,List1B,white,woman,,,,,"{""Q0"":""Jane & Beth are marrying each other.""}","<img src=""stim_listB/marry8.gif""</stim_listB>",are marrying each other,
null,"<div style=""font-size:60px;"">+</div>",,html-keyboard-response,376,1316375,0.0-19.0-0.13,53669,List1B,white,woman,,,,null,,,,
null,"<img src=""stim_listB/meet8.gif""</stim_listB>",,html-keyboard-response,377,1318377,0.0-19.0-1.13,53669,List1B,white,woman,,,,null,,,,
null,are meeting each other,,html-keyboard-response,378,1320378,0.0-19.0-2.13,53669,List1B,white,woman,,,,null,,,,
12437,,,survey-text,379,1332816,0.0-19.0-3.13,53669,List1B,white,woman,,,,,"{""Q0"":""Beth and Ruth are meeting each other.""}","<img src=""stim_listB/meet8.gif""</stim_listB>",are meeting each other,
null,"<div style=""font-size:60px;"">+</div>",,html-keyboard-response,380,1333318,0.0-19.0-0.14,53669,List1B,white,woman,,,,null,,,,
null,"<img src=""stim_listB/kiss5.gif""</stim_listB>",,html-keyboard-response,381,1335319,0.0-19.0-1.14,53669,List1B,white,woman,,,,null,,,,
null,is kissing,,html-keyboard-response,382,1337321,0.0-19.0-2.14,53669,List1B,white,woman,,,,null,,,,
5227,,,survey-text,383,1342548,0.0-19.0-3.14,53669,List1B,white,woman,,,,,"{""Q0"":""Luke is kissing Fred""}","<img src=""stim_listB/kiss5.gif""</stim_listB>",is kissing,
null,"<div style=""font-size:60px;"">+</div>",,html-keyboard-response,384,1343050,0.0-19.0-0.15,53669,List1B,white,woman,,,,null,,,,
null,"<img src=""stim_listB/touch8.gif""</stim_listB>",,html-keyboard-response,385,1345052,0.0-19.0-1.15,53669,List1B,white,woman,,,,null,,,,
null,are touching each other,,html-keyboard-response,386,1347053,0.0-19.0-2.15,53669,List1B,white,woman,,,,null,,,,
10390,,,survey-text,387,1357444,0.0-19.0-3.15,53669,List1B,white,woman,,,,,"{""Q0"":""Ruth and Beth are touching each other.""}","<img src=""stim_listB/touch8.gif""</stim_listB>",are touching each other,
null,"<div style=""font-size:60px;"">+</div>",,html-keyboard-response,388,1357945,0.0-19.0-0.16,53669,List1B,white,woman,,,,null,,,,
null,"<img src=""stim_listB/shout5.gif""</stim_listB>",,html-keyboard-response,389,1359947,0.0-19.0-1.16,53669,List1B,white,woman,,,,null,,,,
null,is shouting at,,html-keyboard-response,390,1361949,0.0-19.0-2.16,53669,List1B,white,woman,,,,null,,,,
6565,,,survey-text,391,1368514,0.0-19.0-3.16,53669,List1B,white,woman,,,,,"{""Q0"":""Luke is shouting at Fred.""}","<img src=""stim_listB/shout5.gif""</stim_listB>",is shouting at,
null,"<div style=""font-size:60px;"">+</div>",,html-keyboard-response,392,1369016,0.0-19.0-0.17,53669,List1B,white,woman,,,,null,,,,
null,"<img src=""stim_listB/talk3.gif""</stim_listB>",,html-keyboard-response,393,1371018,0.0-19.0-1.17,53669,List1B,white,woman,,,,null,,,,
null,is talking to,,html-keyboard-response,394,1373018,0.0-19.0-2.17,53669,List1B,white,woman,,,,null,,,,
5215,,,survey-text,395,1378234,0.0-19.0-3.17,53669,List1B,white,woman,,,,,"{""Q0"":""Jane is talking to Luke.""}","<img src=""stim_listB/talk3.gif""</stim_listB>",is talking to,
null,"<div style=""font-size:60px;"">+</div>",,html-keyboard-response,396,1378736,0.0-19.0-0.18,53669,List1B,white,woman,,,,null,,,,
null,"<img src=""stim_listB/kiss3.gif""</stim_listB>",,html-keyboard-response,397,1380738,0.0-19.0-1.18,53669,List1B,white,woman,,,,null,,,,
null,is kissing,,html-keyboard-response,398,1382739,0.0-19.0-2.18,53669,List1B,white,woman,,,,null,,,,
5462,,,survey-text,399,1388202,0.0-19.0-3.18,53669,List1B,white,woman,,,,,"{""Q0"":""Ruth is kissing Luke.""}","<img src=""stim_listB/kiss3.gif""</stim_listB>",is kissing,
null,"<div style=""font-size:60px;"">+</div>",,html-keyboard-response,400,1388704,0.0-19.0-0.19,53669,List1B,white,woman,,,,null,,,,
null,"<img src=""stim_listB/shout6.gif""</stim_listB>",,html-keyboard-response,401,1390706,0.0-19.0-1.19,53669,List1B,white,woman,,,,null,,,,
null,are shouting at each other,,html-keyboard-response,402,1392707,0.0-19.0-2.19,53669,List1B,white,woman,,,,null,,,,
8961,,,survey-text,403,1401669,0.0-19.0-3.19,53669,List1B,white,woman,,,,,"{""Q0"":""Mike & Dave are shouting at each other.""}","<img src=""stim_listB/shout6.gif""</stim_listB>",are shouting at each other,
1552,<p>Thank you for completing that task.</p><p>The final part of this session is a short questionnaire.</p><p>Press Continue.</p>,0,html-button-response,404,1403221,0.0-20.0,53669,List1B,white,woman,,,,,,,,
22636,,,survey-text,405,1426858,0.0-21.0,53669,List1B,white,woman,,,,,"{""Q0"":""41"",""Q1"":""English"",""Q2"":""English"",""Q3"":""England"",""Q4"":""White"",""Q5"":""Female""}",,,demographics
43620,,,survey-likert,406,1470481,0.0-22.0,53669,List1B,white,woman,,,,,"{""Q0"":4,""Q1"":4,""Q2"":4,""Q3"":4,""Q4"":4,""Q5"":4,""Q6"":4,""Q7"":1,""Q8"":4,""Q9"":4,""Q10"":4,""Q11"":4,""Q12"":4,""Q13"":4}",,,likert_race
56249,,,survey-likert,407,1526733,0.0-23.0,53669,List1B,white,woman,,,,,"{""Q0"":5,""Q1"":5,""Q2"":5,""Q3"":4,""Q4"":5,""Q5"":4,""Q6"":4,""Q7"":1,""Q8"":5,""Q9"":4,""Q10"":4,""Q11"":4,""Q12"":3,""Q13"":4}",,,likert_gender
29381,,,survey-text,408,1556114,0.0-24.0,53669,List1B,white,woman,,,,,"{""Q0"":""ccc""}",,,worker_id
19380,,,external-html,409,1575589,0.0-25.0,53669,List1B,white,woman,debrief.html,,,,,,,
