rt,stimulus,button_pressed,trial_type,trial_index,time_elapsed,internal_node_id,subject,list,ppt_race,ppt_gender,url,first_guess,correct,key_press,responses,image_type,phrase_type,test_part
6589,Welcome to the experiment. Press Continue to begin.,0,html-button-response,0,6646,0.0-0.0,54296,List1A,black,man,,,,,,,,
7892,,,external-html,1,15798,0.0-1.0,54296,List1A,black,man,consent.html,,,,,,,
13191,"<p>On the next page, you will see portraits of 8 people and their names.</p><p>Your first task is to take a few minutes to memorise the names of these people.</p><p>You will have to recall their names during the rest of the experiment, so it is</p><p>essential that you try to memorise these people and their names as best as you can.</p><br><p><strong>You will then be tested on your memory of these names and portraits.</strong></p><br><p>The experiment will start after you have completed this memory test.</p><br><p>Ready?</p>",0,html-button-response,2,28991,0.0-2.0,54296,List1A,black,man,,,,,,,,
140680,"<img src='img/portrait_matrix_list1.JPG' style='width:900px;height:500px;''></img><p>If you have memorised all the portraits and names and are ready to start, press Continue.</p><p><strong>Please note: Your memory of these faces will be tested 4 times during this experiment.</strong></p>",0,html-button-response,3,170675,0.0-3.0-0.0,54296,List1A,black,man,,,,,,,,
12427,"<img src=""portrait/BW2.jpg""style=""width:400px;height:400px;""></img>",2,html-button-response,4,184106,0.0-3.0-1.0,54296,List1A,black,man,,TRUE,2,,,,,
null,CORRECT,,html-keyboard-response,5,185611,0.0-3.0-2.0-0.0,54296,List1A,black,man,,,,null,,,,
8719,"<img src=""portrait/WM2.jpg""style=""width:400px;height:400px;""></img>",4,html-button-response,6,194335,0.0-3.0-4.0,54296,List1A,black,man,,TRUE,7,,,,,
2074,"<img src=""portrait/WM2.jpg""style=""width:400px;height:400px;""></img>",7,html-button-response,7,197413,0.0-3.0-6.0-0.0,54296,List1A,black,man,,FALSE,7,,,,,
null,CORRECT,,html-keyboard-response,8,198917,0.0-3.0-6.0-1.0-0.0,54296,List1A,black,man,,,,null,,,,
12587,"<img src=""portrait/WM1.jpg""style=""width:400px;height:400px;""></img>",4,html-button-response,9,211507,0.0-3.0-7.0,54296,List1A,black,man,,TRUE,6,,,,,
5945,"<img src=""portrait/WM1.jpg""style=""width:400px;height:400px;""></img>",6,html-button-response,10,218456,0.0-3.0-9.0-0.0,54296,List1A,black,man,,FALSE,6,,,,,
null,CORRECT,,html-keyboard-response,11,219960,0.0-3.0-9.0-1.0-0.0,54296,List1A,black,man,,,,null,,,,
3755,"<img src=""portrait/BM2.jpg""style=""width:400px;height:400px;""></img>",5,html-button-response,12,223717,0.0-3.0-10.0,54296,List1A,black,man,,TRUE,5,,,,,
null,CORRECT,,html-keyboard-response,13,225220,0.0-3.0-11.0-0.0,54296,List1A,black,man,,,,null,,,,
12959,"<img src=""portrait/BM1.jpg""style=""width:400px;height:400px;""></img>",4,html-button-response,14,238180,0.0-3.0-13.0,54296,List1A,black,man,,TRUE,4,,,,,
null,CORRECT,,html-keyboard-response,15,239684,0.0-3.0-14.0-0.0,54296,List1A,black,man,,,,null,,,,
5239,"<img src=""portrait/WW1.jpg""style=""width:400px;height:400px;""></img>",3,html-button-response,16,244926,0.0-3.0-16.0,54296,List1A,black,man,,TRUE,1,,,,,
3208,"<img src=""portrait/WW1.jpg""style=""width:400px;height:400px;""></img>",1,html-button-response,17,249138,0.0-3.0-18.0-0.0,54296,List1A,black,man,,FALSE,1,,,,,
null,CORRECT,,html-keyboard-response,18,250642,0.0-3.0-18.0-1.0-0.0,54296,List1A,black,man,,,,null,,,,
9804,"<img src=""portrait/WW2.jpg""style=""width:400px;height:400px;""></img>",0,html-button-response,19,260449,0.0-3.0-19.0,54296,List1A,black,man,,TRUE,3,,,,,
1795,"<img src=""portrait/WW2.jpg""style=""width:400px;height:400px;""></img>",3,html-button-response,20,263246,0.0-3.0-21.0-0.0,54296,List1A,black,man,,FALSE,3,,,,,
null,CORRECT,,html-keyboard-response,21,264750,0.0-3.0-21.0-1.0-0.0,54296,List1A,black,man,,,,null,,,,
17073,"<img src=""portrait/BW1.jpg""style=""width:400px;height:400px;""></img>",0,html-button-response,22,281825,0.0-3.0-22.0,54296,List1A,black,man,,TRUE,0,,,,,
null,CORRECT,,html-keyboard-response,23,283327,0.0-3.0-23.0-0.0,54296,List1A,black,man,,,,null,,,,
2006,<p>You got 4 out of 8 right first time. Press Continue.</p>,0,html-button-response,24,285339,0.0-3.0-25.0,54296,List1A,black,man,,,,,,,,
4692,"As you did not score 100%, the memory game will repeat. Press Continue.",0,html-button-response,25,291033,0.0-3.0-26.0-0.0,54296,List1A,black,man,,,,,,,,
214542,"<img src='img/portrait_matrix_list1.JPG' style='width:900px;height:500px;''></img><p>If you have memorised all the portraits and names and are ready to start, press Continue.</p><p><strong>Please note: Your memory of these faces will be tested 4 times during this experiment.</strong></p>",0,html-button-response,26,506582,0.0-3.1-0.1,54296,List1A,black,man,,,,,,,,
3237,"<img src=""portrait/BW2.jpg""style=""width:400px;height:400px;""></img>",2,html-button-response,27,510824,0.0-3.1-1.1,54296,List1A,black,man,,TRUE,2,,,,,
null,CORRECT,,html-keyboard-response,28,512328,0.0-3.1-2.1-0.1,54296,List1A,black,man,,,,null,,,,
3200,"<img src=""portrait/WM2.jpg""style=""width:400px;height:400px;""></img>",7,html-button-response,29,515530,0.0-3.1-4.1,54296,List1A,black,man,,TRUE,7,,,,,
null,CORRECT,,html-keyboard-response,30,517032,0.0-3.1-5.1-0.1,54296,List1A,black,man,,,,null,,,,
3453,"<img src=""portrait/WM1.jpg""style=""width:400px;height:400px;""></img>",6,html-button-response,31,520487,0.0-3.1-7.1,54296,List1A,black,man,,TRUE,6,,,,,
null,CORRECT,,html-keyboard-response,32,521990,0.0-3.1-8.1-0.1,54296,List1A,black,man,,,,null,,,,
2241,"<img src=""portrait/BM2.jpg""style=""width:400px;height:400px;""></img>",5,html-button-response,33,524233,0.0-3.1-10.1,54296,List1A,black,man,,TRUE,5,,,,,
null,CORRECT,,html-keyboard-response,34,525737,0.0-3.1-11.1-0.1,54296,List1A,black,man,,,,null,,,,
2167,"<img src=""portrait/BM1.jpg""style=""width:400px;height:400px;""></img>",4,html-button-response,35,527907,0.0-3.1-13.1,54296,List1A,black,man,,TRUE,4,,,,,
null,CORRECT,,html-keyboard-response,36,529411,0.0-3.1-14.1-0.1,54296,List1A,black,man,,,,null,,,,
7669,"<img src=""portrait/WW1.jpg""style=""width:400px;height:400px;""></img>",1,html-button-response,37,537082,0.0-3.1-16.1,54296,List1A,black,man,,TRUE,1,,,,,
null,CORRECT,,html-keyboard-response,38,538584,0.0-3.1-17.1-0.1,54296,List1A,black,man,,,,null,,,,
1777,"<img src=""portrait/WW2.jpg""style=""width:400px;height:400px;""></img>",3,html-button-response,39,540363,0.0-3.1-19.1,54296,List1A,black,man,,TRUE,3,,,,,
null,CORRECT,,html-keyboard-response,40,541866,0.0-3.1-20.1-0.1,54296,List1A,black,man,,,,null,,,,
10790,"<img src=""portrait/BW1.jpg""style=""width:400px;height:400px;""></img>",0,html-button-response,41,552657,0.0-3.1-22.1,54296,List1A,black,man,,TRUE,0,,,,,
null,CORRECT,,html-keyboard-response,42,554160,0.0-3.1-23.1-0.1,54296,List1A,black,man,,,,null,,,,
2613,<p>You got 8 out of 8 right first time. Press Continue.</p>,0,html-button-response,43,556774,0.0-3.1-25.1,54296,List1A,black,man,,,,,,,,
83629,"<p>In this experiment, you will view photographs of the people from the memory game interacting.</p><p>By using the <strong>exact</strong> phrase given <i>after</i> the photograph appears and recalling the correct names of the people in the photographs, form a sentence describing the interaction. You do not need to capitalise names.</p><p>Type your answer in the space provided. Please complete every sentence before moving onto the next trial.</p><p>You will only have a few seconds to memorise each given photograph and phrase before you can respond, so try your best to focus.</p><p>An example is given below. Press 'Continue' when you are ready.</p><img src='img/speaking_example_v2.jpg' style='width:800px;height:460px;''></img>",0,html-button-response,44,641407,0.0-4.0,54296,List1A,black,man,,,,,,,,
3378,"<p>Before the experiment starts, you will watch two example trials. Press 'Continue'.</p>",0,html-button-response,45,645787,0.0-5.0,54296,List1A,black,man,,,,,,,,
null,<img src='img/speaking_WW.gif'></img>,,html-keyboard-response,46,648792,0.0-6.0,54296,List1A,black,man,,,,null,,,,
null,<p>is speaking to</p>,,html-keyboard-response,47,650794,0.0-7.0,54296,List1A,black,man,,,,null,,,,
5085,<p><b>Answer:</b> kate is speaking to beth</p>,0,html-button-response,48,655881,0.0-8.0,54296,List1A,black,man,,,,,,,,
null,<img src='img/pointing_BM.gif'></img>,,html-keyboard-response,49,658886,0.0-9.0,54296,List1A,black,man,,,,null,,,,
null,<p>are pointing at each other</p>,,html-keyboard-response,50,660890,0.0-10.0,54296,List1A,black,man,,,,null,,,,
6636,<p><b>Answer:</b> luke and dave are pointing at each other</p>,0,html-button-response,51,667529,0.0-11.0,54296,List1A,black,man,,,,,,,,
34492,"<p>Ready to start the experiment?</p><br><p><strong>Remember to describe the picture using a full sentence,</strong></p><p><strong>that combines the names of the people with the given phrase.</strong></p><p><strong>If you do not do this correctly you will not be paid.</strong></p><p><strong> You do not need to capitalise names or use punctuation.</strong></p><br><p>Press 'Continue' to begin.</p>",0,html-button-response,52,703023,0.0-12.0,54296,List1A,black,man,,,,,,,,
null,"<div style=""font-size:60px;"">+</div>",,html-keyboard-response,53,704527,0.0-13.0-0.0,54296,List1A,black,man,,,,null,,,,
null,"<img src=""stim_listA/talk1.gif""</stim_listA>",,html-keyboard-response,54,706532,0.0-13.0-1.0,54296,List1A,black,man,,,,null,,,,
null,is talking to,,html-keyboard-response,55,708534,0.0-13.0-2.0,54296,List1A,black,man,,,,null,,,,
31015,,,survey-text,56,739551,0.0-13.0-3.0,54296,List1A,black,man,,,,,"{""Q0"":""fred is talking to kate""}","<img src=""stim_listA/talk1.gif""</stim_listA>",is talking to,
null,"<div style=""font-size:60px;"">+</div>",,html-keyboard-response,57,740056,0.0-13.0-0.1,54296,List1A,black,man,,,,null,,,,
null,"<img src=""stim_listA/shout8.gif""</stim_listA>",,html-keyboard-response,58,742058,0.0-13.0-1.1,54296,List1A,black,man,,,,null,,,,
null,are shouting at each other,,html-keyboard-response,59,744060,0.0-13.0-2.1,54296,List1A,black,man,,,,null,,,,
26491,,,survey-text,60,770551,0.0-13.0-3.1,54296,List1A,black,man,,,,,"{""Q0"":""kate is talking to jane""}","<img src=""stim_listA/shout8.gif""</stim_listA>",are shouting at each other,
null,"<div style=""font-size:60px;"">+</div>",,html-keyboard-response,61,771054,0.0-13.0-0.2,54296,List1A,black,man,,,,null,,,,
null,"<img src=""stim_listA/hug8.gif""</stim_listA>",,html-keyboard-response,62,773056,0.0-13.0-1.2,54296,List1A,black,man,,,,null,,,,
null,are hugging each other,,html-keyboard-response,63,775057,0.0-13.0-2.2,54296,List1A,black,man,,,,null,,,,
30312,,,survey-text,64,805370,0.0-13.0-3.2,54296,List1A,black,man,,,,,"{""Q0"":""kate and jane are hugging each other""}","<img src=""stim_listA/hug8.gif""</stim_listA>",are hugging each other,
null,"<div style=""font-size:60px;"">+</div>",,html-keyboard-response,65,805872,0.0-13.0-0.3,54296,List1A,black,man,,,,null,,,,
null,"<img src=""stim_listA/kiss8.gif""</stim_listA>",,html-keyboard-response,66,807876,0.0-13.0-1.3,54296,List1A,black,man,,,,null,,,,
null,are kissing each other,,html-keyboard-response,67,809879,0.0-13.0-2.3,54296,List1A,black,man,,,,null,,,,
21093,,,survey-text,68,830973,0.0-13.0-3.3,54296,List1A,black,man,,,,,"{""Q0"":""kate and jane are kissing each other""}","<img src=""stim_listA/kiss8.gif""</stim_listA>",are kissing each other,
null,"<div style=""font-size:60px;"">+</div>",,html-keyboard-response,69,831477,0.0-13.0-0.4,54296,List1A,black,man,,,,null,,,,
null,"<img src=""stim_listA/talk3.gif""</stim_listA>",,html-keyboard-response,70,833481,0.0-13.0-1.4,54296,List1A,black,man,,,,null,,,,
null,is talking to,,html-keyboard-response,71,835482,0.0-13.0-2.4,54296,List1A,black,man,,,,null,,,,
26266,,,survey-text,72,861749,0.0-13.0-3.4,54296,List1A,black,man,,,,,"{""Q0"":""Luke is talking to jane""}","<img src=""stim_listA/talk3.gif""</stim_listA>",is talking to,
null,"<div style=""font-size:60px;"">+</div>",,html-keyboard-response,73,862251,0.0-13.0-0.5,54296,List1A,black,man,,,,null,,,,
null,"<img src=""stim_listA/dance5.gif""</stim_listA>",,html-keyboard-response,74,864253,0.0-13.0-1.5,54296,List1A,black,man,,,,null,,,,
null,is dancing with,,html-keyboard-response,75,866255,0.0-13.0-2.5,54296,List1A,black,man,,,,null,,,,
16364,,,survey-text,76,882619,0.0-13.0-3.5,54296,List1A,black,man,,,,,"{""Q0"":""fred is dancing with dave""}","<img src=""stim_listA/dance5.gif""</stim_listA>",is dancing with,
null,"<div style=""font-size:60px;"">+</div>",,html-keyboard-response,77,883121,0.0-13.0-0.6,54296,List1A,black,man,,,,null,,,,
null,"<img src=""stim_listA/argue6.gif""</stim_listA>",,html-keyboard-response,78,885127,0.0-13.0-1.6,54296,List1A,black,man,,,,null,,,,
null,are arguing with each other,,html-keyboard-response,79,887130,0.0-13.0-2.6,54296,List1A,black,man,,,,null,,,,
19743,,,survey-text,80,906873,0.0-13.0-3.6,54296,List1A,black,man,,,,,"{""Q0"":""fred and dave are arguing with each other""}","<img src=""stim_listA/argue6.gif""</stim_listA>",are arguing with each other,
null,"<div style=""font-size:60px;"">+</div>",,html-keyboard-response,81,907376,0.0-13.0-0.7,54296,List1A,black,man,,,,null,,,,
null,"<img src=""stim_listA/touch3.gif""</stim_listA>",,html-keyboard-response,82,909380,0.0-13.0-1.7,54296,List1A,black,man,,,,null,,,,
null,is touching,,html-keyboard-response,83,911382,0.0-13.0-2.7,54296,List1A,black,man,,,,null,,,,
11595,,,survey-text,84,922979,0.0-13.0-3.7,54296,List1A,black,man,,,,,"{""Q0"":""dave is touching jane""}","<img src=""stim_listA/touch3.gif""</stim_listA>",is touching,
null,"<div style=""font-size:60px;"">+</div>",,html-keyboard-response,85,923481,0.0-13.0-0.8,54296,List1A,black,man,,,,null,,,,
null,"<img src=""stim_listA/touch4.gif""</stim_listA>",,html-keyboard-response,86,925484,0.0-13.0-1.8,54296,List1A,black,man,,,,null,,,,
null,are touching each other,,html-keyboard-response,87,927485,0.0-13.0-2.8,54296,List1A,black,man,,,,null,,,,
45517,,,survey-text,88,973004,0.0-13.0-3.8,54296,List1A,black,man,,,,,"{""Q0"":""luke is touching ruth""}","<img src=""stim_listA/touch4.gif""</stim_listA>",are touching each other,
null,"<div style=""font-size:60px;"">+</div>",,html-keyboard-response,89,973505,0.0-13.0-0.9,54296,List1A,black,man,,,,null,,,,
null,"<img src=""stim_listA/shout2.gif""</stim_listA>",,html-keyboard-response,90,975509,0.0-13.0-1.9,54296,List1A,black,man,,,,null,,,,
null,are shouting at each other,,html-keyboard-response,91,977512,0.0-13.0-2.9,54296,List1A,black,man,,,,null,,,,
89819,,,survey-text,92,1067332,0.0-13.0-3.9,54296,List1A,black,man,,,,,"{""Q0"":""mike and beth are shouting at each other ""}","<img src=""stim_listA/shout2.gif""</stim_listA>",are shouting at each other,
null,"<div style=""font-size:60px;"">+</div>",,html-keyboard-response,93,1067834,0.0-13.0-0.10,54296,List1A,black,man,,,,null,,,,
null,"<img src=""stim_listA/kiss5.gif""</stim_listA>",,html-keyboard-response,94,1069838,0.0-13.0-1.10,54296,List1A,black,man,,,,null,,,,
null,is kissing,,html-keyboard-response,95,1071840,0.0-13.0-2.10,54296,List1A,black,man,,,,null,,,,
18762,,,survey-text,96,1090603,0.0-13.0-3.10,54296,List1A,black,man,,,,,"{""Q0"":""fred is kissing luke""}","<img src=""stim_listA/kiss5.gif""</stim_listA>",is kissing,
null,"<div style=""font-size:60px;"">+</div>",,html-keyboard-response,97,1091105,0.0-13.0-0.11,54296,List1A,black,man,,,,null,,,,
null,"<img src=""stim_listA/kiss2.gif""</stim_listA>",,html-keyboard-response,98,1093109,0.0-13.0-1.11,54296,List1A,black,man,,,,null,,,,
null,are kissing each other,,html-keyboard-response,99,1095112,0.0-13.0-2.11,54296,List1A,black,man,,,,null,,,,
62437,,,survey-text,100,1157550,0.0-13.0-3.11,54296,List1A,black,man,,,,,"{""Q0"":""mike and kate are kissing each other""}","<img src=""stim_listA/kiss2.gif""</stim_listA>",are kissing each other,
null,"<div style=""font-size:60px;"">+</div>",,html-keyboard-response,101,1158053,0.0-13.0-0.12,54296,List1A,black,man,,,,null,,,,
null,"<img src=""stim_listA/marry4.gif""</stim_listA>",,html-keyboard-response,102,1160057,0.0-13.0-1.12,54296,List1A,black,man,,,,null,,,,
null,are marrying each other,,html-keyboard-response,103,1162058,0.0-13.0-2.12,54296,List1A,black,man,,,,null,,,,
17155,,,survey-text,104,1179215,0.0-13.0-3.12,54296,List1A,black,man,,,,,"{""Q0"":""jane and luke are marrying each other""}","<img src=""stim_listA/marry4.gif""</stim_listA>",are marrying each other,
null,"<div style=""font-size:60px;"">+</div>",,html-keyboard-response,105,1179717,0.0-13.0-0.13,54296,List1A,black,man,,,,null,,,,
null,"<img src=""stim_listA/meet4.gif""</stim_listA>",,html-keyboard-response,106,1181720,0.0-13.0-1.13,54296,List1A,black,man,,,,null,,,,
null,are meeting each other,,html-keyboard-response,107,1183722,0.0-13.0-2.13,54296,List1A,black,man,,,,null,,,,
63992,,,survey-text,108,1247716,0.0-13.0-3.13,54296,List1A,black,man,,,,,"{""Q0"":""ruth and luke are meeting each other""}","<img src=""stim_listA/meet4.gif""</stim_listA>",are meeting each other,
null,"<div style=""font-size:60px;"">+</div>",,html-keyboard-response,109,1248218,0.0-13.0-0.14,54296,List1A,black,man,,,,null,,,,
null,"<img src=""stim_listA/talk7.gif""</stim_listA>",,html-keyboard-response,110,1250222,0.0-13.0-1.14,54296,List1A,black,man,,,,null,,,,
null,is talking to,,html-keyboard-response,111,1252224,0.0-13.0-2.14,54296,List1A,black,man,,,,null,,,,
19322,,,survey-text,112,1271548,0.0-13.0-3.14,54296,List1A,black,man,,,,,"{""Q0"":""jane is talking to beth""}","<img src=""stim_listA/talk7.gif""</stim_listA>",is talking to,
null,"<div style=""font-size:60px;"">+</div>",,html-keyboard-response,113,1272050,0.0-13.0-0.15,54296,List1A,black,man,,,,null,,,,
null,"<img src=""stim_listA/argue3.gif""</stim_listA>",,html-keyboard-response,114,1274054,0.0-13.0-1.15,54296,List1A,black,man,,,,null,,,,
null,is arguing with,,html-keyboard-response,115,1276055,0.0-13.0-2.15,54296,List1A,black,man,,,,null,,,,
27679,,,survey-text,116,1303735,0.0-13.0-3.15,54296,List1A,black,man,,,,,"{""Q0"":""ruth is arguing with dave""}","<img src=""stim_listA/argue3.gif""</stim_listA>",is arguing with,
null,"<div style=""font-size:60px;"">+</div>",,html-keyboard-response,117,1304237,0.0-13.0-0.16,54296,List1A,black,man,,,,null,,,,
null,"<img src=""stim_listA/argue2.gif""</stim_listA>",,html-keyboard-response,118,1306241,0.0-13.0-1.16,54296,List1A,black,man,,,,null,,,,
null,are arguing with each other,,html-keyboard-response,119,1308243,0.0-13.0-2.16,54296,List1A,black,man,,,,null,,,,
61467,,,survey-text,120,1369711,0.0-13.0-3.16,54296,List1A,black,man,,,,,"{""Q0"":""fred and kate are arguing with each other ""}","<img src=""stim_listA/argue2.gif""</stim_listA>",are arguing with each other,
null,"<div style=""font-size:60px;"">+</div>",,html-keyboard-response,121,1370213,0.0-13.0-0.17,54296,List1A,black,man,,,,null,,,,
null,"<img src=""stim_listA/shout1.gif""</stim_listA>",,html-keyboard-response,122,1372217,0.0-13.0-1.17,54296,List1A,black,man,,,,null,,,,
null,is shouting at,,html-keyboard-response,123,1374220,0.0-13.0-2.17,54296,List1A,black,man,,,,null,,,,
13787,,,survey-text,124,1388009,0.0-13.0-3.17,54296,List1A,black,man,,,,,"{""Q0"":""Beth is shouting at fred""}","<img src=""stim_listA/shout1.gif""</stim_listA>",is shouting at,
null,"<div style=""font-size:60px;"">+</div>",,html-keyboard-response,125,1388510,0.0-13.0-0.18,54296,List1A,black,man,,,,null,,,,
null,"<img src=""stim_listA/touch5.gif""</stim_listA>",,html-keyboard-response,126,1390512,0.0-13.0-1.18,54296,List1A,black,man,,,,null,,,,
null,is touching,,html-keyboard-response,127,1392514,0.0-13.0-2.18,54296,List1A,black,man,,,,null,,,,
34777,,,survey-text,128,1427292,0.0-13.0-3.18,54296,List1A,black,man,,,,,"{""Q0"":""mike is touching dave""}","<img src=""stim_listA/touch5.gif""</stim_listA>",is touching,
null,"<div style=""font-size:60px;"">+</div>",,html-keyboard-response,129,1427796,0.0-13.0-0.19,54296,List1A,black,man,,,,null,,,,
null,"<img src=""stim_listA/meet7.gif""</stim_listA>",,html-keyboard-response,130,1429800,0.0-13.0-1.19,54296,List1A,black,man,,,,null,,,,
null,is meeting,,html-keyboard-response,131,1431801,0.0-13.0-2.19,54296,List1A,black,man,,,,null,,,,
12815,,,survey-text,132,1444616,0.0-13.0-3.19,54296,List1A,black,man,,,,,"{""Q0"":""kate is meeting jane""}","<img src=""stim_listA/meet7.gif""</stim_listA>",is meeting,
9958,"<img src='img/portrait_matrix_list1.JPG' style='width:900px;height:500px;''></img><p>If you have memorised all the portraits and names and are ready to start, press Continue.</p><p><strong>Please note: Your memory of these faces will be tested 4 times during this experiment.</strong></p>",0,html-button-response,133,1454576,0.0-14.0-0.0,54296,List1A,black,man,,,,,,,,
15961,"<img src=""portrait/WW1.jpg""style=""width:400px;height:400px;""></img>",1,html-button-response,134,1471540,0.0-14.0-1.0,54296,List1A,black,man,,TRUE,1,,,,,
null,CORRECT,,html-keyboard-response,135,1473046,0.0-14.0-2.0-0.0,54296,List1A,black,man,,,,null,,,,
2614,"<img src=""portrait/WM2.jpg""style=""width:400px;height:400px;""></img>",7,html-button-response,136,1475663,0.0-14.0-4.0,54296,List1A,black,man,,TRUE,7,,,,,
null,CORRECT,,html-keyboard-response,137,1477165,0.0-14.0-5.0-0.0,54296,List1A,black,man,,,,null,,,,
3476,"<img src=""portrait/WW2.jpg""style=""width:400px;height:400px;""></img>",3,html-button-response,138,1480642,0.0-14.0-7.0,54296,List1A,black,man,,TRUE,3,,,,,
null,CORRECT,,html-keyboard-response,139,1482144,0.0-14.0-8.0-0.0,54296,List1A,black,man,,,,null,,,,
2164,"<img src=""portrait/BM1.jpg""style=""width:400px;height:400px;""></img>",4,html-button-response,140,1484341,0.0-14.0-10.0,54296,List1A,black,man,,TRUE,4,,,,,
null,CORRECT,,html-keyboard-response,141,1485847,0.0-14.0-11.0-0.0,54296,List1A,black,man,,,,null,,,,
4176,"<img src=""portrait/BW2.jpg""style=""width:400px;height:400px;""></img>",2,html-button-response,142,1490026,0.0-14.0-13.0,54296,List1A,black,man,,TRUE,2,,,,,
null,CORRECT,,html-keyboard-response,143,1491528,0.0-14.0-14.0-0.0,54296,List1A,black,man,,,,null,,,,
6206,"<img src=""portrait/BW1.jpg""style=""width:400px;height:400px;""></img>",0,html-button-response,144,1497737,0.0-14.0-16.0,54296,List1A,black,man,,TRUE,0,,,,,
null,CORRECT,,html-keyboard-response,145,1499240,0.0-14.0-17.0-0.0,54296,List1A,black,man,,,,null,,,,
1641,"<img src=""portrait/BM2.jpg""style=""width:400px;height:400px;""></img>",5,html-button-response,146,1500882,0.0-14.0-19.0,54296,List1A,black,man,,TRUE,5,,,,,
null,CORRECT,,html-keyboard-response,147,1502385,0.0-14.0-20.0-0.0,54296,List1A,black,man,,,,null,,,,
2385,"<img src=""portrait/WM1.jpg""style=""width:400px;height:400px;""></img>",6,html-button-response,148,1504772,0.0-14.0-22.0,54296,List1A,black,man,,TRUE,6,,,,,
null,CORRECT,,html-keyboard-response,149,1506275,0.0-14.0-23.0-0.0,54296,List1A,black,man,,,,null,,,,
1649,<p>You got 8 out of 8 right first time. Press Continue.</p>,0,html-button-response,150,1507927,0.0-14.0-25.0,54296,List1A,black,man,,,,,,,,
null,"<div style=""font-size:60px;"">+</div>",,html-keyboard-response,151,1509430,0.0-15.0-0.0,54296,List1A,black,man,,,,null,,,,
null,"<img src=""stim_listA/hug4.gif""</stim_listA>",,html-keyboard-response,152,1511434,0.0-15.0-1.0,54296,List1A,black,man,,,,null,,,,
null,are hugging each other,,html-keyboard-response,153,1513435,0.0-15.0-2.0,54296,List1A,black,man,,,,null,,,,
24310,,,survey-text,154,1537746,0.0-15.0-3.0,54296,List1A,black,man,,,,,"{""Q0"":""dave and jane are hugging each other""}","<img src=""stim_listA/hug4.gif""</stim_listA>",are hugging each other,
null,"<div style=""font-size:60px;"">+</div>",,html-keyboard-response,155,1538248,0.0-15.0-0.1,54296,List1A,black,man,,,,null,,,,
null,"<img src=""stim_listA/dance6.gif""</stim_listA>",,html-keyboard-response,156,1540250,0.0-15.0-1.1,54296,List1A,black,man,,,,null,,,,
null,are dancing with each other,,html-keyboard-response,157,1542252,0.0-15.0-2.1,54296,List1A,black,man,,,,null,,,,
26146,,,survey-text,158,1568400,0.0-15.0-3.1,54296,List1A,black,man,,,,,"{""Q0"":""mike and luke are dancing with each other""}","<img src=""stim_listA/dance6.gif""</stim_listA>",are dancing with each other,
null,"<div style=""font-size:60px;"">+</div>",,html-keyboard-response,159,1568901,0.0-15.0-0.2,54296,List1A,black,man,,,,null,,,,
null,"<img src=""stim_listA/marry2.gif""</stim_listA>",,html-keyboard-response,160,1570905,0.0-15.0-1.2,54296,List1A,black,man,,,,null,,,,
null,are marrying each other,,html-keyboard-response,161,1572907,0.0-15.0-2.2,54296,List1A,black,man,,,,null,,,,
21823,,,survey-text,162,1594731,0.0-15.0-3.2,54296,List1A,black,man,,,,,"{""Q0"":""fred and kate are marrying each other""}","<img src=""stim_listA/marry2.gif""</stim_listA>",are marrying each other,
null,"<div style=""font-size:60px;"">+</div>",,html-keyboard-response,163,1595233,0.0-15.0-0.3,54296,List1A,black,man,,,,null,,,,
null,"<img src=""stim_listA/argue7.gif""</stim_listA>",,html-keyboard-response,164,1597235,0.0-15.0-1.3,54296,List1A,black,man,,,,null,,,,
null,is arguing with,,html-keyboard-response,165,1599238,0.0-15.0-2.3,54296,List1A,black,man,,,,null,,,,
18863,,,survey-text,166,1618103,0.0-15.0-3.3,54296,List1A,black,man,,,,,"{""Q0"":""kate is arguing with ruth""}","<img src=""stim_listA/argue7.gif""</stim_listA>",is arguing with,
null,"<div style=""font-size:60px;"">+</div>",,html-keyboard-response,167,1618604,0.0-15.0-0.4,54296,List1A,black,man,,,,null,,,,
null,"<img src=""stim_listA/shout6.gif""</stim_listA>",,html-keyboard-response,168,1620609,0.0-15.0-1.4,54296,List1A,black,man,,,,null,,,,
null,are shouting at each other,,html-keyboard-response,169,1622611,0.0-15.0-2.4,54296,List1A,black,man,,,,null,,,,
22971,,,survey-text,170,1645584,0.0-15.0-3.4,54296,List1A,black,man,,,,,"{""Q0"":""mike and dave are shouting at each other""}","<img src=""stim_listA/shout6.gif""</stim_listA>",are shouting at each other,
null,"<div style=""font-size:60px;"">+</div>",,html-keyboard-response,171,1646086,0.0-15.0-0.5,54296,List1A,black,man,,,,null,,,,
null,"<img src=""stim_listA/kiss6.gif""</stim_listA>",,html-keyboard-response,172,1648089,0.0-15.0-1.5,54296,List1A,black,man,,,,null,,,,
null,are kissing each other,,html-keyboard-response,173,1650090,0.0-15.0-2.5,54296,List1A,black,man,,,,null,,,,
16904,,,survey-text,174,1666995,0.0-15.0-3.5,54296,List1A,black,man,,,,,"{""Q0"":""mike and dave are kissing each other""}","<img src=""stim_listA/kiss6.gif""</stim_listA>",are kissing each other,
null,"<div style=""font-size:60px;"">+</div>",,html-keyboard-response,175,1667497,0.0-15.0-0.6,54296,List1A,black,man,,,,null,,,,
null,"<img src=""stim_listA/fight3.gif""</stim_listA>",,html-keyboard-response,176,1669500,0.0-15.0-1.6,54296,List1A,black,man,,,,null,,,,
null,is fighting,,html-keyboard-response,177,1671502,0.0-15.0-2.6,54296,List1A,black,man,,,,null,,,,
14665,,,survey-text,178,1686169,0.0-15.0-3.6,54296,List1A,black,man,,,,,"{""Q0"":""dave is fighting jane""}","<img src=""stim_listA/fight3.gif""</stim_listA>",is fighting,
null,"<div style=""font-size:60px;"">+</div>",,html-keyboard-response,179,1686672,0.0-15.0-0.7,54296,List1A,black,man,,,,null,,,,
null,"<img src=""stim_listA/dance2.gif""</stim_listA>",,html-keyboard-response,180,1688675,0.0-15.0-1.7,54296,List1A,black,man,,,,null,,,,
null,are dancing with each other,,html-keyboard-response,181,1690677,0.0-15.0-2.7,54296,List1A,black,man,,,,null,,,,
19501,,,survey-text,182,1710180,0.0-15.0-3.7,54296,List1A,black,man,,,,,"{""Q0"":""mike and beth are dancing with each other""}","<img src=""stim_listA/dance2.gif""</stim_listA>",are dancing with each other,
null,"<div style=""font-size:60px;"">+</div>",,html-keyboard-response,183,1710682,0.0-15.0-0.8,54296,List1A,black,man,,,,null,,,,
null,"<img src=""stim_listA/meet1.gif""</stim_listA>",,html-keyboard-response,184,1712685,0.0-15.0-1.8,54296,List1A,black,man,,,,null,,,,
null,is meeting,,html-keyboard-response,185,1714688,0.0-15.0-2.8,54296,List1A,black,man,,,,null,,,,
9207,,,survey-text,186,1723897,0.0-15.0-3.8,54296,List1A,black,man,,,,,"{""Q0"":""mike is meeting kate""}","<img src=""stim_listA/meet1.gif""</stim_listA>",is meeting,
null,"<div style=""font-size:60px;"">+</div>",,html-keyboard-response,187,1724399,0.0-15.0-0.9,54296,List1A,black,man,,,,null,,,,
null,"<img src=""stim_listA/dance8.gif""</stim_listA>",,html-keyboard-response,188,1726403,0.0-15.0-1.9,54296,List1A,black,man,,,,null,,,,
null,are dancing with each other,,html-keyboard-response,189,1728406,0.0-15.0-2.9,54296,List1A,black,man,,,,null,,,,
23408,,,survey-text,190,1751820,0.0-15.0-3.9,54296,List1A,black,man,,,,,"{""Q0"":""kate and ruth are dancing with each other""}","<img src=""stim_listA/dance8.gif""</stim_listA>",are dancing with each other,
null,"<div style=""font-size:60px;"">+</div>",,html-keyboard-response,191,1752322,0.0-15.0-0.10,54296,List1A,black,man,,,,null,,,,
null,"<img src=""stim_listA/fight8.gif""</stim_listA>",,html-keyboard-response,192,1754327,0.0-15.0-1.10,54296,List1A,black,man,,,,null,,,,
null,are fighting each other,,html-keyboard-response,193,1756330,0.0-15.0-2.10,54296,List1A,black,man,,,,null,,,,
36076,,,survey-text,194,1792408,0.0-15.0-3.10,54296,List1A,black,man,,,,,"{""Q0"":""kate and ruth are fighting each other""}","<img src=""stim_listA/fight8.gif""</stim_listA>",are fighting each other,
null,"<div style=""font-size:60px;"">+</div>",,html-keyboard-response,195,1792909,0.0-15.0-0.11,54296,List1A,black,man,,,,null,,,,
null,"<img src=""stim_listA/hug3.gif""</stim_listA>",,html-keyboard-response,196,1794914,0.0-15.0-1.11,54296,List1A,black,man,,,,null,,,,
null,is hugging,,html-keyboard-response,197,1796916,0.0-15.0-2.11,54296,List1A,black,man,,,,null,,,,
18747,,,survey-text,198,1815664,0.0-15.0-3.11,54296,List1A,black,man,,,,,"{""Q0"":""luke is hugging ruth""}","<img src=""stim_listA/hug3.gif""</stim_listA>",is hugging,
null,"<div style=""font-size:60px;"">+</div>",,html-keyboard-response,199,1816167,0.0-15.0-0.12,54296,List1A,black,man,,,,null,,,,
null,"<img src=""stim_listA/hug7.gif""</stim_listA>",,html-keyboard-response,200,1818171,0.0-15.0-1.12,54296,List1A,black,man,,,,null,,,,
null,is hugging,,html-keyboard-response,201,1820173,0.0-15.0-2.12,54296,List1A,black,man,,,,null,,,,
15095,,,survey-text,202,1835269,0.0-15.0-3.12,54296,List1A,black,man,,,,,"{""Q0"":""beth is hugging ruth""}","<img src=""stim_listA/hug7.gif""</stim_listA>",is hugging,
null,"<div style=""font-size:60px;"">+</div>",,html-keyboard-response,203,1835770,0.0-15.0-0.13,54296,List1A,black,man,,,,null,,,,
null,"<img src=""stim_listA/kiss1.gif""</stim_listA>",,html-keyboard-response,204,1837774,0.0-15.0-1.13,54296,List1A,black,man,,,,null,,,,
null,is kissing,,html-keyboard-response,205,1839775,0.0-15.0-2.13,54296,List1A,black,man,,,,null,,,,
10662,,,survey-text,206,1850438,0.0-15.0-3.13,54296,List1A,black,man,,,,,"{""Q0"":""fred is kissing beth""}","<img src=""stim_listA/kiss1.gif""</stim_listA>",is kissing,
null,"<div style=""font-size:60px;"">+</div>",,html-keyboard-response,207,1850940,0.0-15.0-0.14,54296,List1A,black,man,,,,null,,,,
null,"<img src=""stim_listA/fight1.gif""</stim_listA>",,html-keyboard-response,208,1852946,0.0-15.0-1.14,54296,List1A,black,man,,,,null,,,,
null,is fighting,,html-keyboard-response,209,1854947,0.0-15.0-2.14,54296,List1A,black,man,,,,null,,,,
29888,,,survey-text,210,1884838,0.0-15.0-3.14,54296,List1A,black,man,,,,,"{""Q0"":""kate is fighting mike""}","<img src=""stim_listA/fight1.gif""</stim_listA>",is fighting,
null,"<div style=""font-size:60px;"">+</div>",,html-keyboard-response,211,1885341,0.0-15.0-0.15,54296,List1A,black,man,,,,null,,,,
null,"<img src=""stim_listA/talk2.gif""</stim_listA>",,html-keyboard-response,212,1887346,0.0-15.0-1.15,54296,List1A,black,man,,,,null,,,,
null,are talking to each other,,html-keyboard-response,213,1889348,0.0-15.0-2.15,54296,List1A,black,man,,,,null,,,,
17606,,,survey-text,214,1906956,0.0-15.0-3.15,54296,List1A,black,man,,,,,"{""Q0"":""mike and beth are talking to each other""}","<img src=""stim_listA/talk2.gif""</stim_listA>",are talking to each other,
null,"<div style=""font-size:60px;"">+</div>",,html-keyboard-response,215,1907457,0.0-15.0-0.16,54296,List1A,black,man,,,,null,,,,
null,"<img src=""stim_listA/marry6.gif""</stim_listA>",,html-keyboard-response,216,1909460,0.0-15.0-1.16,54296,List1A,black,man,,,,null,,,,
null,are marrying each other,,html-keyboard-response,217,1911461,0.0-15.0-2.16,54296,List1A,black,man,,,,null,,,,
17290,,,survey-text,218,1928752,0.0-15.0-3.16,54296,List1A,black,man,,,,,"{""Q0"":""fred and dave are marrying each other""}","<img src=""stim_listA/marry6.gif""</stim_listA>",are marrying each other,
null,"<div style=""font-size:60px;"">+</div>",,html-keyboard-response,219,1929253,0.0-15.0-0.17,54296,List1A,black,man,,,,null,,,,
null,"<img src=""stim_listA/hug5.gif""</stim_listA>",,html-keyboard-response,220,1931256,0.0-15.0-1.17,54296,List1A,black,man,,,,null,,,,
null,is hugging,,html-keyboard-response,221,1933259,0.0-15.0-2.17,54296,List1A,black,man,,,,null,,,,
10268,,,survey-text,222,1943529,0.0-15.0-3.17,54296,List1A,black,man,,,,,"{""Q0"":""fred is hugging luke""}","<img src=""stim_listA/hug5.gif""</stim_listA>",is hugging,
null,"<div style=""font-size:60px;"">+</div>",,html-keyboard-response,223,1944032,0.0-15.0-0.18,54296,List1A,black,man,,,,null,,,,
null,"<img src=""stim_listA/talk4.gif""</stim_listA>",,html-keyboard-response,224,1946034,0.0-15.0-1.18,54296,List1A,black,man,,,,null,,,,
null,are talking to each other,,html-keyboard-response,225,1948035,0.0-15.0-2.18,54296,List1A,black,man,,,,null,,,,
16787,,,survey-text,226,1964824,0.0-15.0-3.18,54296,List1A,black,man,,,,,"{""Q0"":""ruth and dave are talking to each other""}","<img src=""stim_listA/talk4.gif""</stim_listA>",are talking to each other,
null,"<div style=""font-size:60px;"">+</div>",,html-keyboard-response,227,1965327,0.0-15.0-0.19,54296,List1A,black,man,,,,null,,,,
null,"<img src=""stim_listA/shout3.gif""</stim_listA>",,html-keyboard-response,228,1967330,0.0-15.0-1.19,54296,List1A,black,man,,,,null,,,,
null,is shouting at,,html-keyboard-response,229,1969333,0.0-15.0-2.19,54296,List1A,black,man,,,,null,,,,
14194,,,survey-text,230,1983529,0.0-15.0-3.19,54296,List1A,black,man,,,,,"{""Q0"":""ruth is shouting at luke""}","<img src=""stim_listA/shout3.gif""</stim_listA>",is shouting at,
7928,"<img src='img/portrait_matrix_list1.JPG' style='width:900px;height:500px;''></img><p>If you have memorised all the portraits and names and are ready to start, press Continue.</p><p><strong>Please note: Your memory of these faces will be tested 4 times during this experiment.</strong></p>",0,html-button-response,231,1991458,0.0-16.0-0.0,54296,List1A,black,man,,,,,,,,
6068,"<img src=""portrait/BW1.jpg""style=""width:400px;height:400px;""></img>",0,html-button-response,232,1998533,0.0-16.0-1.0,54296,List1A,black,man,,TRUE,0,,,,,
null,CORRECT,,html-keyboard-response,233,2000035,0.0-16.0-2.0-0.0,54296,List1A,black,man,,,,null,,,,
2584,"<img src=""portrait/WM2.jpg""style=""width:400px;height:400px;""></img>",7,html-button-response,234,2002624,0.0-16.0-4.0,54296,List1A,black,man,,TRUE,7,,,,,
null,CORRECT,,html-keyboard-response,235,2004128,0.0-16.0-5.0-0.0,54296,List1A,black,man,,,,null,,,,
1758,"<img src=""portrait/BM2.jpg""style=""width:400px;height:400px;""></img>",5,html-button-response,236,2005888,0.0-16.0-7.0,54296,List1A,black,man,,TRUE,5,,,,,
null,CORRECT,,html-keyboard-response,237,2007392,0.0-16.0-8.0-0.0,54296,List1A,black,man,,,,null,,,,
1916,"<img src=""portrait/WM1.jpg""style=""width:400px;height:400px;""></img>",6,html-button-response,238,2009314,0.0-16.0-10.0,54296,List1A,black,man,,TRUE,6,,,,,
null,CORRECT,,html-keyboard-response,239,2010819,0.0-16.0-11.0-0.0,54296,List1A,black,man,,,,null,,,,
1544,"<img src=""portrait/BM1.jpg""style=""width:400px;height:400px;""></img>",4,html-button-response,240,2012367,0.0-16.0-13.0,54296,List1A,black,man,,TRUE,4,,,,,
null,CORRECT,,html-keyboard-response,241,2013872,0.0-16.0-14.0-0.0,54296,List1A,black,man,,,,null,,,,
2393,"<img src=""portrait/WW1.jpg""style=""width:400px;height:400px;""></img>",1,html-button-response,242,2016267,0.0-16.0-16.0,54296,List1A,black,man,,TRUE,1,,,,,
null,CORRECT,,html-keyboard-response,243,2017771,0.0-16.0-17.0-0.0,54296,List1A,black,man,,,,null,,,,
3038,"<img src=""portrait/WW2.jpg""style=""width:400px;height:400px;""></img>",3,html-button-response,244,2020811,0.0-16.0-19.0,54296,List1A,black,man,,TRUE,3,,,,,
null,CORRECT,,html-keyboard-response,245,2022314,0.0-16.0-20.0-0.0,54296,List1A,black,man,,,,null,,,,
2465,"<img src=""portrait/BW2.jpg""style=""width:400px;height:400px;""></img>",2,html-button-response,246,2024781,0.0-16.0-22.0,54296,List1A,black,man,,TRUE,2,,,,,
null,CORRECT,,html-keyboard-response,247,2026284,0.0-16.0-23.0-0.0,54296,List1A,black,man,,,,null,,,,
1799,<p>You got 8 out of 8 right first time. Press Continue.</p>,0,html-button-response,248,2028086,0.0-16.0-25.0,54296,List1A,black,man,,,,,,,,
null,"<div style=""font-size:60px;"">+</div>",,html-keyboard-response,249,2029592,0.0-17.0-0.0,54296,List1A,black,man,,,,null,,,,
null,"<img src=""stim_listA/talk6.gif""</stim_listA>",,html-keyboard-response,250,2031595,0.0-17.0-1.0,54296,List1A,black,man,,,,null,,,,
null,are talking to each other,,html-keyboard-response,251,2033597,0.0-17.0-2.0,54296,List1A,black,man,,,,null,,,,
19510,,,survey-text,252,2053109,0.0-17.0-3.0,54296,List1A,black,man,,,,,"{""Q0"":""mike and luke are talking to each other""}","<img src=""stim_listA/talk6.gif""</stim_listA>",are talking to each other,
null,"<div style=""font-size:60px;"">+</div>",,html-keyboard-response,253,2053613,0.0-17.0-0.1,54296,List1A,black,man,,,,null,,,,
null,"<img src=""stim_listA/marry7.gif""</stim_listA>",,html-keyboard-response,254,2055617,0.0-17.0-1.1,54296,List1A,black,man,,,,null,,,,
null,is marrying,,html-keyboard-response,255,2057619,0.0-17.0-2.1,54296,List1A,black,man,,,,null,,,,
13489,,,survey-text,256,2071109,0.0-17.0-3.1,54296,List1A,black,man,,,,,"{""Q0"":""kate is marrying ruth""}","<img src=""stim_listA/marry7.gif""</stim_listA>",is marrying,
null,"<div style=""font-size:60px;"">+</div>",,html-keyboard-response,257,2071611,0.0-17.0-0.2,54296,List1A,black,man,,,,null,,,,
null,"<img src=""stim_listA/marry5.gif""</stim_listA>",,html-keyboard-response,258,2073616,0.0-17.0-1.2,54296,List1A,black,man,,,,null,,,,
null,is marrying,,html-keyboard-response,259,2075619,0.0-17.0-2.2,54296,List1A,black,man,,,,null,,,,
15283,,,survey-text,260,2090903,0.0-17.0-3.2,54296,List1A,black,man,,,,,"{""Q0"":""mike is marrying luke""}","<img src=""stim_listA/marry5.gif""</stim_listA>",is marrying,
null,"<div style=""font-size:60px;"">+</div>",,html-keyboard-response,261,2091406,0.0-17.0-0.3,54296,List1A,black,man,,,,null,,,,
null,"<img src=""stim_listA/meet8.gif""</stim_listA>",,html-keyboard-response,262,2093408,0.0-17.0-1.3,54296,List1A,black,man,,,,null,,,,
null,are meeting each other,,html-keyboard-response,263,2095411,0.0-17.0-2.3,54296,List1A,black,man,,,,null,,,,
17089,,,survey-text,264,2112502,0.0-17.0-3.3,54296,List1A,black,man,,,,,"{""Q0"":""ruth and beth are meeting each other""}","<img src=""stim_listA/meet8.gif""</stim_listA>",are meeting each other,
null,"<div style=""font-size:60px;"">+</div>",,html-keyboard-response,265,2113003,0.0-17.0-0.4,54296,List1A,black,man,,,,null,,,,
null,"<img src=""stim_listA/shout4.gif""</stim_listA>",,html-keyboard-response,266,2115004,0.0-17.0-1.4,54296,List1A,black,man,,,,null,,,,
null,are shouting at each other,,html-keyboard-response,267,2117006,0.0-17.0-2.4,54296,List1A,black,man,,,,null,,,,
22088,,,survey-text,268,2139096,0.0-17.0-3.4,54296,List1A,black,man,,,,,"{""Q0"":""jane and dave are shouting at each other""}","<img src=""stim_listA/shout4.gif""</stim_listA>",are shouting at each other,
null,"<div style=""font-size:60px;"">+</div>",,html-keyboard-response,269,2139597,0.0-17.0-0.5,54296,List1A,black,man,,,,null,,,,
null,"<img src=""stim_listA/marry8.gif""</stim_listA>",,html-keyboard-response,270,2141601,0.0-17.0-1.5,54296,List1A,black,man,,,,null,,,,
null,are marrying each other,,html-keyboard-response,271,2143603,0.0-17.0-2.5,54296,List1A,black,man,,,,null,,,,
16884,,,survey-text,272,2160490,0.0-17.0-3.5,54296,List1A,black,man,,,,,"{""Q0"":""jane and beth are marrying each other""}","<img src=""stim_listA/marry8.gif""</stim_listA>",are marrying each other,
null,"<div style=""font-size:60px;"">+</div>",,html-keyboard-response,273,2160992,0.0-17.0-0.6,54296,List1A,black,man,,,,null,,,,
null,"<img src=""stim_listA/fight7.gif""</stim_listA>",,html-keyboard-response,274,2162994,0.0-17.0-1.6,54296,List1A,black,man,,,,null,,,,
null,is fighting,,html-keyboard-response,275,2164996,0.0-17.0-2.6,54296,List1A,black,man,,,,null,,,,
9882,,,survey-text,276,2174879,0.0-17.0-3.6,54296,List1A,black,man,,,,,"{""Q0"":""kate is fighting jane""}","<img src=""stim_listA/fight7.gif""</stim_listA>",is fighting,
null,"<div style=""font-size:60px;"">+</div>",,html-keyboard-response,277,2175380,0.0-17.0-0.7,54296,List1A,black,man,,,,null,,,,
null,"<img src=""stim_listA/fight4.gif""</stim_listA>",,html-keyboard-response,278,2177384,0.0-17.0-1.7,54296,List1A,black,man,,,,null,,,,
null,are fighting each other,,html-keyboard-response,279,2179386,0.0-17.0-2.7,54296,List1A,black,man,,,,null,,,,
16889,,,survey-text,280,2196278,0.0-17.0-3.7,54296,List1A,black,man,,,,,"{""Q0"":""ruth and luke are fighting each other""}","<img src=""stim_listA/fight4.gif""</stim_listA>",are fighting each other,
null,"<div style=""font-size:60px;"">+</div>",,html-keyboard-response,281,2196780,0.0-17.0-0.8,54296,List1A,black,man,,,,null,,,,
null,"<img src=""stim_listA/hug2.gif""</stim_listA>",,html-keyboard-response,282,2198785,0.0-17.0-1.8,54296,List1A,black,man,,,,null,,,,
null,are hugging each other,,html-keyboard-response,283,2200788,0.0-17.0-2.8,54296,List1A,black,man,,,,null,,,,
21027,,,survey-text,284,2221817,0.0-17.0-3.8,54296,List1A,black,man,,,,,"{""Q0"":""beth and mike are hugging each other""}","<img src=""stim_listA/hug2.gif""</stim_listA>",are hugging each other,
null,"<div style=""font-size:60px;"">+</div>",,html-keyboard-response,285,2222320,0.0-17.0-0.9,54296,List1A,black,man,,,,null,,,,
null,"<img src=""stim_listA/argue1.gif""</stim_listA>",,html-keyboard-response,286,2224325,0.0-17.0-1.9,54296,List1A,black,man,,,,null,,,,
null,is arguing with,,html-keyboard-response,287,2226327,0.0-17.0-2.9,54296,List1A,black,man,,,,null,,,,
21637,,,survey-text,288,2247966,0.0-17.0-3.9,54296,List1A,black,man,,,,,"{""Q0"":""beth is arguing with mike""}","<img src=""stim_listA/argue1.gif""</stim_listA>",is arguing with,
null,"<div style=""font-size:60px;"">+</div>",,html-keyboard-response,289,2248469,0.0-17.0-0.10,54296,List1A,black,man,,,,null,,,,
null,"<img src=""stim_listA/touch8.gif""</stim_listA>",,html-keyboard-response,290,2250471,0.0-17.0-1.10,54296,List1A,black,man,,,,null,,,,
null,are touching each other,,html-keyboard-response,291,2252473,0.0-17.0-2.10,54296,List1A,black,man,,,,null,,,,
30825,,,survey-text,292,2283299,0.0-17.0-3.10,54296,List1A,black,man,,,,,"{""Q0"":""beth and ruth are touching each other""}","<img src=""stim_listA/touch8.gif""</stim_listA>",are touching each other,
null,"<div style=""font-size:60px;"">+</div>",,html-keyboard-response,293,2283802,0.0-17.0-0.11,54296,List1A,black,man,,,,null,,,,
null,"<img src=""stim_listA/dance1.gif""</stim_listA>",,html-keyboard-response,294,2285806,0.0-17.0-1.11,54296,List1A,black,man,,,,null,,,,
null,is dancing with,,html-keyboard-response,295,2287808,0.0-17.0-2.11,54296,List1A,black,man,,,,null,,,,
15463,,,survey-text,296,2303273,0.0-17.0-3.11,54296,List1A,black,man,,,,,"{""Q0"":""kate is dancing with fred""}","<img src=""stim_listA/dance1.gif""</stim_listA>",is dancing with,
null,"<div style=""font-size:60px;"">+</div>",,html-keyboard-response,297,2303774,0.0-17.0-0.12,54296,List1A,black,man,,,,null,,,,
null,"<img src=""stim_listA/shout5.gif""</stim_listA>",,html-keyboard-response,298,2305777,0.0-17.0-1.12,54296,List1A,black,man,,,,null,,,,
null,is shouting at,,html-keyboard-response,299,2307779,0.0-17.0-2.12,54296,List1A,black,man,,,,null,,,,
32686,,,survey-text,300,2340467,0.0-17.0-3.12,54296,List1A,black,man,,,,,"{""Q0"":""fred is shouting at luke""}","<img src=""stim_listA/shout5.gif""</stim_listA>",is shouting at,
null,"<div style=""font-size:60px;"">+</div>",,html-keyboard-response,301,2340968,0.0-17.0-0.13,54296,List1A,black,man,,,,null,,,,
null,"<img src=""stim_listA/meet3.gif""</stim_listA>",,html-keyboard-response,302,2342971,0.0-17.0-1.13,54296,List1A,black,man,,,,null,,,,
null,is meeting,,html-keyboard-response,303,2344973,0.0-17.0-2.13,54296,List1A,black,man,,,,null,,,,
16408,,,survey-text,304,2361382,0.0-17.0-3.13,54296,List1A,black,man,,,,,"{""Q0"":""jane is meeting dave""}","<img src=""stim_listA/meet3.gif""</stim_listA>",is meeting,
null,"<div style=""font-size:60px;"">+</div>",,html-keyboard-response,305,2361883,0.0-17.0-0.14,54296,List1A,black,man,,,,null,,,,
null,"<img src=""stim_listA/dance3.gif""</stim_listA>",,html-keyboard-response,306,2363889,0.0-17.0-1.14,54296,List1A,black,man,,,,null,,,,
null,is dancing with,,html-keyboard-response,307,2365891,0.0-17.0-2.14,54296,List1A,black,man,,,,null,,,,
18400,,,survey-text,308,2384292,0.0-17.0-3.14,54296,List1A,black,man,,,,,"{""Q0"":""jane is dancing with luke""}","<img src=""stim_listA/dance3.gif""</stim_listA>",is dancing with,
null,"<div style=""font-size:60px;"">+</div>",,html-keyboard-response,309,2384795,0.0-17.0-0.15,54296,List1A,black,man,,,,null,,,,
null,"<img src=""stim_listA/dance7.gif""</stim_listA>",,html-keyboard-response,310,2386799,0.0-17.0-1.15,54296,List1A,black,man,,,,null,,,,
null,is dancing with,,html-keyboard-response,311,2388802,0.0-17.0-2.15,54296,List1A,black,man,,,,null,,,,
14274,,,survey-text,312,2403077,0.0-17.0-3.15,54296,List1A,black,man,,,,,"{""Q0"":""beth is dancing with jane""}","<img src=""stim_listA/dance7.gif""</stim_listA>",is dancing with,
null,"<div style=""font-size:60px;"">+</div>",,html-keyboard-response,313,2403579,0.0-17.0-0.16,54296,List1A,black,man,,,,null,,,,
null,"<img src=""stim_listA/kiss4.gif""</stim_listA>",,html-keyboard-response,314,2405582,0.0-17.0-1.16,54296,List1A,black,man,,,,null,,,,
null,are kissing each other,,html-keyboard-response,315,2407584,0.0-17.0-2.16,54296,List1A,black,man,,,,null,,,,
18384,,,survey-text,316,2425970,0.0-17.0-3.16,54296,List1A,black,man,,,,,"{""Q0"":""dave and jane are kissing each other""}","<img src=""stim_listA/kiss4.gif""</stim_listA>",are kissing each other,
null,"<div style=""font-size:60px;"">+</div>",,html-keyboard-response,317,2426473,0.0-17.0-0.17,54296,List1A,black,man,,,,null,,,,
null,"<img src=""stim_listA/kiss7.gif""</stim_listA>",,html-keyboard-response,318,2428479,0.0-17.0-1.17,54296,List1A,black,man,,,,null,,,,
null,is kissing,,html-keyboard-response,319,2430481,0.0-17.0-2.17,54296,List1A,black,man,,,,null,,,,
11499,,,survey-text,320,2441981,0.0-17.0-3.17,54296,List1A,black,man,,,,,"{""Q0"":""beth is kissing ruth""}","<img src=""stim_listA/kiss7.gif""</stim_listA>",is kissing,
null,"<div style=""font-size:60px;"">+</div>",,html-keyboard-response,321,2442484,0.0-17.0-0.18,54296,List1A,black,man,,,,null,,,,
null,"<img src=""stim_listA/argue4.gif""</stim_listA>",,html-keyboard-response,322,2444487,0.0-17.0-1.18,54296,List1A,black,man,,,,null,,,,
null,are arguing with each other,,html-keyboard-response,323,2446489,0.0-17.0-2.18,54296,List1A,black,man,,,,null,,,,
23546,,,survey-text,324,2470036,0.0-17.0-3.18,54296,List1A,black,man,,,,,"{""Q0"":""jane and luke are arguing with each other""}","<img src=""stim_listA/argue4.gif""</stim_listA>",are arguing with each other,
null,"<div style=""font-size:60px;"">+</div>",,html-keyboard-response,325,2470538,0.0-17.0-0.19,54296,List1A,black,man,,,,null,,,,
null,"<img src=""stim_listA/touch7.gif""</stim_listA>",,html-keyboard-response,326,2472541,0.0-17.0-1.19,54296,List1A,black,man,,,,null,,,,
null,is touching,,html-keyboard-response,327,2474545,0.0-17.0-2.19,54296,List1A,black,man,,,,null,,,,
21968,,,survey-text,328,2496515,0.0-17.0-3.19,54296,List1A,black,man,,,,,"{""Q0"":""jane is touching kate""}","<img src=""stim_listA/touch7.gif""</stim_listA>",is touching,
13969,"<img src='img/portrait_matrix_list1.JPG' style='width:900px;height:500px;''></img><p>If you have memorised all the portraits and names and are ready to start, press Continue.</p><p><strong>Please note: Your memory of these faces will be tested 4 times during this experiment.</strong></p>",0,html-button-response,329,2510485,0.0-18.0-0.0,54296,List1A,black,man,,,,,,,,
3821,"<img src=""portrait/WW1.jpg""style=""width:400px;height:400px;""></img>",1,html-button-response,330,2515312,0.0-18.0-1.0,54296,List1A,black,man,,TRUE,1,,,,,
null,CORRECT,,html-keyboard-response,331,2516817,0.0-18.0-2.0-0.0,54296,List1A,black,man,,,,null,,,,
6261,"<img src=""portrait/WM2.jpg""style=""width:400px;height:400px;""></img>",7,html-button-response,332,2523082,0.0-18.0-4.0,54296,List1A,black,man,,TRUE,7,,,,,
null,CORRECT,,html-keyboard-response,333,2524584,0.0-18.0-5.0-0.0,54296,List1A,black,man,,,,null,,,,
4550,"<img src=""portrait/WM1.jpg""style=""width:400px;height:400px;""></img>",6,html-button-response,334,2529137,0.0-18.0-7.0,54296,List1A,black,man,,TRUE,6,,,,,
null,CORRECT,,html-keyboard-response,335,2530641,0.0-18.0-8.0-0.0,54296,List1A,black,man,,,,null,,,,
4357,"<img src=""portrait/BW1.jpg""style=""width:400px;height:400px;""></img>",0,html-button-response,336,2535001,0.0-18.0-10.0,54296,List1A,black,man,,TRUE,0,,,,,
null,CORRECT,,html-keyboard-response,337,2536504,0.0-18.0-11.0-0.0,54296,List1A,black,man,,,,null,,,,
2073,"<img src=""portrait/BM2.jpg""style=""width:400px;height:400px;""></img>",5,html-button-response,338,2538579,0.0-18.0-13.0,54296,List1A,black,man,,TRUE,5,,,,,
null,CORRECT,,html-keyboard-response,339,2540082,0.0-18.0-14.0-0.0,54296,List1A,black,man,,,,null,,,,
1818,"<img src=""portrait/WW2.jpg""style=""width:400px;height:400px;""></img>",3,html-button-response,340,2541904,0.0-18.0-16.0,54296,List1A,black,man,,TRUE,3,,,,,
null,CORRECT,,html-keyboard-response,341,2543407,0.0-18.0-17.0-0.0,54296,List1A,black,man,,,,null,,,,
1687,"<img src=""portrait/BM1.jpg""style=""width:400px;height:400px;""></img>",4,html-button-response,342,2545097,0.0-18.0-19.0,54296,List1A,black,man,,TRUE,4,,,,,
null,CORRECT,,html-keyboard-response,343,2546600,0.0-18.0-20.0-0.0,54296,List1A,black,man,,,,null,,,,
2414,"<img src=""portrait/BW2.jpg""style=""width:400px;height:400px;""></img>",2,html-button-response,344,2549017,0.0-18.0-22.0,54296,List1A,black,man,,TRUE,2,,,,,
null,CORRECT,,html-keyboard-response,345,2550521,0.0-18.0-23.0-0.0,54296,List1A,black,man,,,,null,,,,
1495,<p>You got 8 out of 8 right first time. Press Continue.</p>,0,html-button-response,346,2552020,0.0-18.0-25.0,54296,List1A,black,man,,,,,,,,
null,"<div style=""font-size:60px;"">+</div>",,html-keyboard-response,347,2553524,0.0-19.0-0.0,54296,List1A,black,man,,,,null,,,,
null,"<img src=""stim_listA/kiss3.gif""</stim_listA>",,html-keyboard-response,348,2555529,0.0-19.0-1.0,54296,List1A,black,man,,,,null,,,,
null,is kissing,,html-keyboard-response,349,2557531,0.0-19.0-2.0,54296,List1A,black,man,,,,null,,,,
11952,,,survey-text,350,2569486,0.0-19.0-3.0,54296,List1A,black,man,,,,,"{""Q0"":""ruth is kissing luke""}","<img src=""stim_listA/kiss3.gif""</stim_listA>",is kissing,
null,"<div style=""font-size:60px;"">+</div>",,html-keyboard-response,351,2569989,0.0-19.0-0.1,54296,List1A,black,man,,,,null,,,,
null,"<img src=""stim_listA/touch2.gif""</stim_listA>",,html-keyboard-response,352,2571992,0.0-19.0-1.1,54296,List1A,black,man,,,,null,,,,
null,are touching each other,,html-keyboard-response,353,2573994,0.0-19.0-2.1,54296,List1A,black,man,,,,null,,,,
24590,,,survey-text,354,2598585,0.0-19.0-3.1,54296,List1A,black,man,,,,,"{""Q0"":""fred and beth are touching each other""}","<img src=""stim_listA/touch2.gif""</stim_listA>",are touching each other,
null,"<div style=""font-size:60px;"">+</div>",,html-keyboard-response,355,2599088,0.0-19.0-0.2,54296,List1A,black,man,,,,null,,,,
null,"<img src=""stim_listA/talk8.gif""</stim_listA>",,html-keyboard-response,356,2601091,0.0-19.0-1.2,54296,List1A,black,man,,,,null,,,,
null,are talking to each other,,html-keyboard-response,357,2603094,0.0-19.0-2.2,54296,List1A,black,man,,,,null,,,,
21506,,,survey-text,358,2624600,0.0-19.0-3.2,54296,List1A,black,man,,,,,"{""Q0"":""ruth and kate are talking to each other""}","<img src=""stim_listA/talk8.gif""</stim_listA>",are talking to each other,
null,"<div style=""font-size:60px;"">+</div>",,html-keyboard-response,359,2625103,0.0-19.0-0.3,54296,List1A,black,man,,,,null,,,,
null,"<img src=""stim_listA/talk5.gif""</stim_listA>",,html-keyboard-response,360,2627105,0.0-19.0-1.3,54296,List1A,black,man,,,,null,,,,
null,is talking to,,html-keyboard-response,361,2629107,0.0-19.0-2.3,54296,List1A,black,man,,,,null,,,,
13783,,,survey-text,362,2642891,0.0-19.0-3.3,54296,List1A,black,man,,,,,"{""Q0"":""dave is talking to fred""}","<img src=""stim_listA/talk5.gif""</stim_listA>",is talking to,
null,"<div style=""font-size:60px;"">+</div>",,html-keyboard-response,363,2643394,0.0-19.0-0.4,54296,List1A,black,man,,,,null,,,,
null,"<img src=""stim_listA/meet2.gif""</stim_listA>",,html-keyboard-response,364,2645398,0.0-19.0-1.4,54296,List1A,black,man,,,,null,,,,
null,are meeting each other,,html-keyboard-response,365,2647399,0.0-19.0-2.4,54296,List1A,black,man,,,,null,,,,
65338,,,survey-text,366,2712739,0.0-19.0-3.4,54296,List1A,black,man,,,,,"{""Q0"":""kate and mike are meeting each other""}","<img src=""stim_listA/meet2.gif""</stim_listA>",are meeting each other,
null,"<div style=""font-size:60px;"">+</div>",,html-keyboard-response,367,2713241,0.0-19.0-0.5,54296,List1A,black,man,,,,null,,,,
null,"<img src=""stim_listA/fight2.gif""</stim_listA>",,html-keyboard-response,368,2715244,0.0-19.0-1.5,54296,List1A,black,man,,,,null,,,,
null,are fighting each other,,html-keyboard-response,369,2717247,0.0-19.0-2.5,54296,List1A,black,man,,,,null,,,,
22146,,,survey-text,370,2739396,0.0-19.0-3.5,54296,List1A,black,man,,,,,"{""Q0"":""fred and beth are fighting each other""}","<img src=""stim_listA/fight2.gif""</stim_listA>",are fighting each other,
null,"<div style=""font-size:60px;"">+</div>",,html-keyboard-response,371,2739898,0.0-19.0-0.6,54296,List1A,black,man,,,,null,,,,
null,"<img src=""stim_listA/touch1.gif""</stim_listA>",,html-keyboard-response,372,2741902,0.0-19.0-1.6,54296,List1A,black,man,,,,null,,,,
null,is touching,,html-keyboard-response,373,2743905,0.0-19.0-2.6,54296,List1A,black,man,,,,null,,,,
10729,,,survey-text,374,2754636,0.0-19.0-3.6,54296,List1A,black,man,,,,,"{""Q0"":""mike is touching kate""}","<img src=""stim_listA/touch1.gif""</stim_listA>",is touching,
null,"<div style=""font-size:60px;"">+</div>",,html-keyboard-response,375,2755140,0.0-19.0-0.7,54296,List1A,black,man,,,,null,,,,
null,"<img src=""stim_listA/hug6.gif""</stim_listA>",,html-keyboard-response,376,2757144,0.0-19.0-1.7,54296,List1A,black,man,,,,null,,,,
null,are hugging each other,,html-keyboard-response,377,2759145,0.0-19.0-2.7,54296,List1A,black,man,,,,null,,,,
16052,,,survey-text,378,2775198,0.0-19.0-3.7,54296,List1A,black,man,,,,,"{""Q0"":""mike and dave are hugging each other""}","<img src=""stim_listA/hug6.gif""</stim_listA>",are hugging each other,
null,"<div style=""font-size:60px;"">+</div>",,html-keyboard-response,379,2775701,0.0-19.0-0.8,54296,List1A,black,man,,,,null,,,,
null,"<img src=""stim_listA/marry3.gif""</stim_listA>",,html-keyboard-response,380,2777706,0.0-19.0-1.8,54296,List1A,black,man,,,,null,,,,
null,is marrying,,html-keyboard-response,381,2779707,0.0-19.0-2.8,54296,List1A,black,man,,,,null,,,,
12451,,,survey-text,382,2792161,0.0-19.0-3.8,54296,List1A,black,man,,,,,"{""Q0"":""ruth is marrying dave""}","<img src=""stim_listA/marry3.gif""</stim_listA>",is marrying,
null,"<div style=""font-size:60px;"">+</div>",,html-keyboard-response,383,2792662,0.0-19.0-0.9,54296,List1A,black,man,,,,null,,,,
null,"<img src=""stim_listA/touch6.gif""</stim_listA>",,html-keyboard-response,384,2794666,0.0-19.0-1.9,54296,List1A,black,man,,,,null,,,,
null,are touching each other,,html-keyboard-response,385,2796669,0.0-19.0-2.9,54296,List1A,black,man,,,,null,,,,
15339,,,survey-text,386,2812010,0.0-19.0-3.9,54296,List1A,black,man,,,,,"{""Q0"":""luke and fred are touching each other""}","<img src=""stim_listA/touch6.gif""</stim_listA>",are touching each other,
null,"<div style=""font-size:60px;"">+</div>",,html-keyboard-response,387,2812513,0.0-19.0-0.10,54296,List1A,black,man,,,,null,,,,
null,"<img src=""stim_listA/fight6.gif""</stim_listA>",,html-keyboard-response,388,2814516,0.0-19.0-1.10,54296,List1A,black,man,,,,null,,,,
null,are fighting each other,,html-keyboard-response,389,2816518,0.0-19.0-2.10,54296,List1A,black,man,,,,null,,,,
23603,,,survey-text,390,2840123,0.0-19.0-3.10,54296,List1A,black,man,,,,,"{""Q0"":""fred and luke are fighting each other""}","<img src=""stim_listA/fight6.gif""</stim_listA>",are fighting each other,
null,"<div style=""font-size:60px;"">+</div>",,html-keyboard-response,391,2840625,0.0-19.0-0.11,54296,List1A,black,man,,,,null,,,,
null,"<img src=""stim_listA/dance4.gif""</stim_listA>",,html-keyboard-response,392,2842627,0.0-19.0-1.11,54296,List1A,black,man,,,,null,,,,
null,are dancing with each other,,html-keyboard-response,393,2844630,0.0-19.0-2.11,54296,List1A,black,man,,,,null,,,,
20081,,,survey-text,394,2864712,0.0-19.0-3.11,54296,List1A,black,man,,,,,"{""Q0"":""dave and ruth are dancing with each other""}","<img src=""stim_listA/dance4.gif""</stim_listA>",are dancing with each other,
null,"<div style=""font-size:60px;"">+</div>",,html-keyboard-response,395,2865213,0.0-19.0-0.12,54296,List1A,black,man,,,,null,,,,
null,"<img src=""stim_listA/shout7.gif""</stim_listA>",,html-keyboard-response,396,2867216,0.0-19.0-1.12,54296,List1A,black,man,,,,null,,,,
null,is shouting at,,html-keyboard-response,397,2869218,0.0-19.0-2.12,54296,List1A,black,man,,,,null,,,,
19417,,,survey-text,398,2888636,0.0-19.0-3.12,54296,List1A,black,man,,,,,"{""Q0"":""ruth is shouting at beth""}","<img src=""stim_listA/shout7.gif""</stim_listA>",is shouting at,
null,"<div style=""font-size:60px;"">+</div>",,html-keyboard-response,399,2889139,0.0-19.0-0.13,54296,List1A,black,man,,,,null,,,,
null,"<img src=""stim_listA/fight5.gif""</stim_listA>",,html-keyboard-response,400,2891144,0.0-19.0-1.13,54296,List1A,black,man,,,,null,,,,
null,is fighting,,html-keyboard-response,401,2893149,0.0-19.0-2.13,54296,List1A,black,man,,,,null,,,,
13918,,,survey-text,402,2907068,0.0-19.0-3.13,54296,List1A,black,man,,,,,"{""Q0"":""mike is fighting dave""}","<img src=""stim_listA/fight5.gif""</stim_listA>",is fighting,
null,"<div style=""font-size:60px;"">+</div>",,html-keyboard-response,403,2907570,0.0-19.0-0.14,54296,List1A,black,man,,,,null,,,,
null,"<img src=""stim_listA/argue8.gif""</stim_listA>",,html-keyboard-response,404,2909575,0.0-19.0-1.14,54296,List1A,black,man,,,,null,,,,
null,are arguing with each other,,html-keyboard-response,405,2911578,0.0-19.0-2.14,54296,List1A,black,man,,,,null,,,,
28417,,,survey-text,406,2939996,0.0-19.0-3.14,54296,List1A,black,man,,,,,"{""Q0"":""beth and jane are arguing with each other""}","<img src=""stim_listA/argue8.gif""</stim_listA>",are arguing with each other,
null,"<div style=""font-size:60px;"">+</div>",,html-keyboard-response,407,2940498,0.0-19.0-0.15,54296,List1A,black,man,,,,null,,,,
null,"<img src=""stim_listA/argue5.gif""</stim_listA>",,html-keyboard-response,408,2942506,0.0-19.0-1.15,54296,List1A,black,man,,,,null,,,,
null,is arguing with,,html-keyboard-response,409,2944508,0.0-19.0-2.15,54296,List1A,black,man,,,,null,,,,
48851,,,survey-text,410,2993361,0.0-19.0-3.15,54296,List1A,black,man,,,,,"{""Q0"":""luke is arguing with mike""}","<img src=""stim_listA/argue5.gif""</stim_listA>",is arguing with,
null,"<div style=""font-size:60px;"">+</div>",,html-keyboard-response,411,2993863,0.0-19.0-0.16,54296,List1A,black,man,,,,null,,,,
null,"<img src=""stim_listA/hug1.gif""</stim_listA>",,html-keyboard-response,412,2995866,0.0-19.0-1.16,54296,List1A,black,man,,,,null,,,,
null,is hugging,,html-keyboard-response,413,2997868,0.0-19.0-2.16,54296,List1A,black,man,,,,null,,,,
13800,,,survey-text,414,3011670,0.0-19.0-3.16,54296,List1A,black,man,,,,,"{""Q0"":""fred is hugging beth""}","<img src=""stim_listA/hug1.gif""</stim_listA>",is hugging,
null,"<div style=""font-size:60px;"">+</div>",,html-keyboard-response,415,3012172,0.0-19.0-0.17,54296,List1A,black,man,,,,null,,,,
null,"<img src=""stim_listA/marry1.gif""</stim_listA>",,html-keyboard-response,416,3014176,0.0-19.0-1.17,54296,List1A,black,man,,,,null,,,,
null,is marrying,,html-keyboard-response,417,3016178,0.0-19.0-2.17,54296,List1A,black,man,,,,null,,,,
12261,,,survey-text,418,3028441,0.0-19.0-3.17,54296,List1A,black,man,,,,,"{""Q0"":""mike is marrying beth""}","<img src=""stim_listA/marry1.gif""</stim_listA>",is marrying,
null,"<div style=""font-size:60px;"">+</div>",,html-keyboard-response,419,3028942,0.0-19.0-0.18,54296,List1A,black,man,,,,null,,,,
null,"<img src=""stim_listA/meet6.gif""</stim_listA>",,html-keyboard-response,420,3030944,0.0-19.0-1.18,54296,List1A,black,man,,,,null,,,,
null,are meeting each other,,html-keyboard-response,421,3032947,0.0-19.0-2.18,54296,List1A,black,man,,,,null,,,,
22309,,,survey-text,422,3055257,0.0-19.0-3.18,54296,List1A,black,man,,,,,"{""Q0"":""fred and luke are meeting each other""}","<img src=""stim_listA/meet6.gif""</stim_listA>",are meeting each other,
null,"<div style=""font-size:60px;"">+</div>",,html-keyboard-response,423,3055760,0.0-19.0-0.19,54296,List1A,black,man,,,,null,,,,
null,"<img src=""stim_listA/meet5.gif""</stim_listA>",,html-keyboard-response,424,3057764,0.0-19.0-1.19,54296,List1A,black,man,,,,null,,,,
null,is meeting,,html-keyboard-response,425,3059765,0.0-19.0-2.19,54296,List1A,black,man,,,,null,,,,
9690,,,survey-text,426,3069458,0.0-19.0-3.19,54296,List1A,black,man,,,,,"{""Q0"":""mike is meeting dave""}","<img src=""stim_listA/meet5.gif""</stim_listA>",is meeting,
3324,<p>Thank you for completing that task.</p><p>The final part of this session is a short questionnaire.</p><p>Press Continue.</p>,0,html-button-response,427,3072783,0.0-20.0,54296,List1A,black,man,,,,,,,,
60492,,,survey-text,428,3134281,0.0-21.0,54296,List1A,black,man,,,,,"{""Q0"":""24"",""Q1"":""English"",""Q2"":""English"",""Q3"":""United Kingdom"",""Q4"":""Black"",""Q5"":""Male""}",,,demographics
77020,,,survey-likert,429,3211315,0.0-22.0,54296,List1A,black,man,,,,,"{""Q0"":5,""Q1"":5,""Q2"":5,""Q3"":5,""Q4"":5,""Q5"":5,""Q6"":5,""Q7"":5,""Q8"":6,""Q9"":5,""Q10"":5,""Q11"":4,""Q12"":4,""Q13"":4}",,,likert_race
55308,,,survey-likert,430,3266638,0.0-23.0,54296,List1A,black,man,,,,,"{""Q0"":6,""Q1"":6,""Q2"":6,""Q3"":6,""Q4"":6,""Q5"":6,""Q6"":6,""Q7"":5,""Q8"":6,""Q9"":6,""Q10"":6,""Q11"":5,""Q12"":5,""Q13"":5}",,,likert_gender
9812,,,survey-text,431,3276456,0.0-24.0,54296,List1A,black,man,,,,,"{""Q0"":""ccc""}",,,worker_id
33102,,,external-html,432,3309626,0.0-25.0,54296,List1A,black,man,debrief.html,,,,,,,
