rt,stimulus,button_pressed,trial_type,trial_index,time_elapsed,internal_node_id,subject,list,ppt_race,ppt_gender,url,first_guess,correct,key_press,responses,image_type,phrase_type,test_part
2535,Welcome to the experiment. Press Continue to begin.,0,html-button-response,0,2547,0.0-0.0,54624,List2B,black,man,,,,,,,,
7798,,,external-html,1,11467,0.0-1.0,54624,List2B,black,man,consent.html,,,,,,,
10198,"<p>On the next page, you will see portraits of 8 people and their names.</p><p>Your first task is to take a few minutes to memorise the names of these people.</p><p>You will have to recall their names during the rest of the experiment, so it is</p><p>essential that you try to memorise these people and their names as best as you can.</p><br><p><strong>You will then be tested on your memory of these names and portraits.</strong></p><br><p>The experiment will start after you have completed this memory test.</p><br><p>Ready?</p>",0,html-button-response,2,21669,0.0-2.0,54624,List2B,black,man,,,,,,,,
44940,"<img src='img/portrait_matrix_list2.JPG' style='width:900px;height:500px;''></img><p>If you have memorised all the portraits and names and are ready to start, press Continue.</p><p><strong>Please note: Your memory of these faces will be tested 4 times during this experiment.</strong></p>",0,html-button-response,3,67612,0.0-3.0-0.0,54624,List2B,black,man,,,,,,,,
4367,"<img src=""portrait/BW1.jpg""style=""width:400px;height:400px;""></img>",0,html-button-response,4,72982,0.0-3.0-1.0,54624,List2B,black,man,,TRUE,0,,,,,
null,CORRECT,,html-keyboard-response,5,74489,0.0-3.0-2.0-0.0,54624,List2B,black,man,,,,null,,,,
2659,"<img src=""portrait/WW2.jpg""style=""width:400px;height:400px;""></img>",3,html-button-response,6,77153,0.0-3.0-4.0,54624,List2B,black,man,,TRUE,3,,,,,
null,CORRECT,,html-keyboard-response,7,78656,0.0-3.0-5.0-0.0,54624,List2B,black,man,,,,null,,,,
4469,"<img src=""portrait/WM1.jpg""style=""width:400px;height:400px;""></img>",4,html-button-response,8,83128,0.0-3.0-7.0,54624,List2B,black,man,,TRUE,6,,,,,
3614,"<img src=""portrait/WM1.jpg""style=""width:400px;height:400px;""></img>",6,html-button-response,9,87747,0.0-3.0-9.0-0.0,54624,List2B,black,man,,FALSE,6,,,,,
null,CORRECT,,html-keyboard-response,10,89251,0.0-3.0-9.0-1.0-0.0,54624,List2B,black,man,,,,null,,,,
5399,"<img src=""portrait/BM1.jpg""style=""width:400px;height:400px;""></img>",4,html-button-response,11,94653,0.0-3.0-10.0,54624,List2B,black,man,,TRUE,4,,,,,
null,CORRECT,,html-keyboard-response,12,96156,0.0-3.0-11.0-0.0,54624,List2B,black,man,,,,null,,,,
5416,"<img src=""portrait/BW2.jpg""style=""width:400px;height:400px;""></img>",1,html-button-response,13,101575,0.0-3.0-13.0,54624,List2B,black,man,,TRUE,2,,,,,
1956,"<img src=""portrait/BW2.jpg""style=""width:400px;height:400px;""></img>",2,html-button-response,14,104535,0.0-3.0-15.0-0.0,54624,List2B,black,man,,FALSE,2,,,,,
null,CORRECT,,html-keyboard-response,15,106038,0.0-3.0-15.0-1.0-0.0,54624,List2B,black,man,,,,null,,,,
2842,"<img src=""portrait/BM2.jpg""style=""width:400px;height:400px;""></img>",5,html-button-response,16,108884,0.0-3.0-16.0,54624,List2B,black,man,,TRUE,5,,,,,
null,CORRECT,,html-keyboard-response,17,110387,0.0-3.0-17.0-0.0,54624,List2B,black,man,,,,null,,,,
3297,"<img src=""portrait/WW1.jpg""style=""width:400px;height:400px;""></img>",1,html-button-response,18,113687,0.0-3.0-19.0,54624,List2B,black,man,,TRUE,1,,,,,
null,CORRECT,,html-keyboard-response,19,115189,0.0-3.0-20.0-0.0,54624,List2B,black,man,,,,null,,,,
1777,"<img src=""portrait/WM2.jpg""style=""width:400px;height:400px;""></img>",7,html-button-response,20,116968,0.0-3.0-22.0,54624,List2B,black,man,,TRUE,7,,,,,
null,CORRECT,,html-keyboard-response,21,118471,0.0-3.0-23.0-0.0,54624,List2B,black,man,,,,null,,,,
1607,<p>You got 6 out of 8 right first time. Press Continue.</p>,0,html-button-response,22,120081,0.0-3.0-25.0,54624,List2B,black,man,,,,,,,,
3120,"As you did not score 100%, the memory game will repeat. Press Continue.",0,html-button-response,23,124204,0.0-3.0-26.0-0.0,54624,List2B,black,man,,,,,,,,
10176,"<img src='img/portrait_matrix_list2.JPG' style='width:900px;height:500px;''></img><p>If you have memorised all the portraits and names and are ready to start, press Continue.</p><p><strong>Please note: Your memory of these faces will be tested 4 times during this experiment.</strong></p>",0,html-button-response,24,135386,0.0-3.1-0.1,54624,List2B,black,man,,,,,,,,
2480,"<img src=""portrait/BW1.jpg""style=""width:400px;height:400px;""></img>",0,html-button-response,25,138871,0.0-3.1-1.1,54624,List2B,black,man,,TRUE,0,,,,,
null,CORRECT,,html-keyboard-response,26,140374,0.0-3.1-2.1-0.1,54624,List2B,black,man,,,,null,,,,
1942,"<img src=""portrait/WW2.jpg""style=""width:400px;height:400px;""></img>",3,html-button-response,27,142318,0.0-3.1-4.1,54624,List2B,black,man,,TRUE,3,,,,,
null,CORRECT,,html-keyboard-response,28,143821,0.0-3.1-5.1-0.1,54624,List2B,black,man,,,,null,,,,
2694,"<img src=""portrait/WM1.jpg""style=""width:400px;height:400px;""></img>",6,html-button-response,29,146518,0.0-3.1-7.1,54624,List2B,black,man,,TRUE,6,,,,,
null,CORRECT,,html-keyboard-response,30,148021,0.0-3.1-8.1-0.1,54624,List2B,black,man,,,,null,,,,
2009,"<img src=""portrait/BM1.jpg""style=""width:400px;height:400px;""></img>",4,html-button-response,31,150032,0.0-3.1-10.1,54624,List2B,black,man,,TRUE,4,,,,,
null,CORRECT,,html-keyboard-response,32,151535,0.0-3.1-11.1-0.1,54624,List2B,black,man,,,,null,,,,
5753,"<img src=""portrait/BW2.jpg""style=""width:400px;height:400px;""></img>",2,html-button-response,33,157291,0.0-3.1-13.1,54624,List2B,black,man,,TRUE,2,,,,,
null,CORRECT,,html-keyboard-response,34,158794,0.0-3.1-14.1-0.1,54624,List2B,black,man,,,,null,,,,
1405,"<img src=""portrait/BM2.jpg""style=""width:400px;height:400px;""></img>",5,html-button-response,35,160202,0.0-3.1-16.1,54624,List2B,black,man,,TRUE,5,,,,,
null,CORRECT,,html-keyboard-response,36,161705,0.0-3.1-17.1-0.1,54624,List2B,black,man,,,,null,,,,
24345,"<img src=""portrait/WW1.jpg""style=""width:400px;height:400px;""></img>",1,html-button-response,37,186054,0.0-3.1-19.1,54624,List2B,black,man,,TRUE,1,,,,,
null,CORRECT,,html-keyboard-response,38,187556,0.0-3.1-20.1-0.1,54624,List2B,black,man,,,,null,,,,
1590,"<img src=""portrait/WM2.jpg""style=""width:400px;height:400px;""></img>",7,html-button-response,39,189158,0.0-3.1-22.1,54624,List2B,black,man,,TRUE,7,,,,,
null,CORRECT,,html-keyboard-response,40,190660,0.0-3.1-23.1-0.1,54624,List2B,black,man,,,,null,,,,
1524,<p>You got 8 out of 8 right first time. Press Continue.</p>,0,html-button-response,41,192187,0.0-3.1-25.1,54624,List2B,black,man,,,,,,,,
31107,"<p>In this experiment, you will view photographs of the people from the memory game interacting.</p><p>By using the <strong>exact</strong> phrase given <i>after</i> the photograph appears and recalling the correct names of the people in the photographs, form a sentence describing the interaction. You do not need to capitalise names.</p><p>Type your answer in the space provided. Please complete every sentence before moving onto the next trial.</p><p>You will only have a few seconds to memorise each given photograph and phrase before you can respond, so try your best to focus.</p><p>An example is given below. Press 'Continue' when you are ready.</p><img src='img/speaking_example_v2.jpg' style='width:800px;height:460px;''></img>",0,html-button-response,42,224297,0.0-4.0,54624,List2B,black,man,,,,,,,,
2539,"<p>Before the experiment starts, you will watch two example trials. Press 'Continue'.</p>",0,html-button-response,43,227838,0.0-5.0,54624,List2B,black,man,,,,,,,,
null,<img src='img/speaking_WW.gif'></img>,,html-keyboard-response,44,230841,0.0-6.0,54624,List2B,black,man,,,,null,,,,
null,<p>is speaking to</p>,,html-keyboard-response,45,232843,0.0-7.0,54624,List2B,black,man,,,,null,,,,
3859,<p><b>Answer:</b> jane is speaking to ruth</p>,0,html-button-response,46,236703,0.0-8.0,54624,List2B,black,man,,,,,,,,
null,<img src='img/pointing_BM.gif'></img>,,html-keyboard-response,47,239705,0.0-9.0,54624,List2B,black,man,,,,null,,,,
null,<p>are pointing at each other</p>,,html-keyboard-response,48,241707,0.0-10.0,54624,List2B,black,man,,,,null,,,,
2149,<p><b>Answer:</b> fred and mike are pointing at each other</p>,0,html-button-response,49,243858,0.0-11.0,54624,List2B,black,man,,,,,,,,
19203,"<p>Ready to start the experiment?</p><br><p><strong>Remember to describe the picture using a full sentence,</strong></p><p><strong>that combines the names of the people with the given phrase.</strong></p><p><strong>If you do not do this correctly you will not be paid.</strong></p><p><strong> You do not need to capitalise names or use punctuation.</strong></p><br><p>Press 'Continue' to begin.</p>",0,html-button-response,50,264063,0.0-12.0,54624,List2B,black,man,,,,,,,,
null,"<div style=""font-size:60px;"">+</div>",,html-keyboard-response,51,265566,0.0-13.0-0.0,54624,List2B,black,man,,,,null,,,,
null,"<img src=""stim_listB/touch8.gif""</stim_listB>",,html-keyboard-response,52,267570,0.0-13.0-1.0,54624,List2B,black,man,,,,null,,,,
null,are touching each other,,html-keyboard-response,53,269571,0.0-13.0-2.0,54624,List2B,black,man,,,,null,,,,
32711,,,survey-text,54,302286,0.0-13.0-3.0,54624,List2B,black,man,,,,,"{""Q0"":""Beth and Ruth are touching each other.""}","<img src=""stim_listB/touch8.gif""</stim_listB>",are touching each other,
null,"<div style=""font-size:60px;"">+</div>",,html-keyboard-response,55,302789,0.0-13.0-0.1,54624,List2B,black,man,,,,null,,,,
null,"<img src=""stim_listB/argue2.gif""</stim_listB>",,html-keyboard-response,56,304791,0.0-13.0-1.1,54624,List2B,black,man,,,,null,,,,
null,are arguing with each other,,html-keyboard-response,57,306793,0.0-13.0-2.1,54624,List2B,black,man,,,,null,,,,
33418,,,survey-text,58,340213,0.0-13.0-3.1,54624,List2B,black,man,,,,,"{""Q0"":""Luke and Jane are arguing with each other.""}","<img src=""stim_listB/argue2.gif""</stim_listB>",are arguing with each other,
null,"<div style=""font-size:60px;"">+</div>",,html-keyboard-response,59,340717,0.0-13.0-0.2,54624,List2B,black,man,,,,null,,,,
null,"<img src=""stim_listB/talk8.gif""</stim_listB>",,html-keyboard-response,60,342719,0.0-13.0-1.2,54624,List2B,black,man,,,,null,,,,
null,are talking to each other,,html-keyboard-response,61,344720,0.0-13.0-2.2,54624,List2B,black,man,,,,null,,,,
24069,,,survey-text,62,368790,0.0-13.0-3.2,54624,List2B,black,man,,,,,"{""Q0"":""Beth and Jane are talking to each other.""}","<img src=""stim_listB/talk8.gif""</stim_listB>",are talking to each other,
null,"<div style=""font-size:60px;"">+</div>",,html-keyboard-response,63,369292,0.0-13.0-0.3,54624,List2B,black,man,,,,null,,,,
null,"<img src=""stim_listB/kiss2.gif""</stim_listB>",,html-keyboard-response,64,371294,0.0-13.0-1.3,54624,List2B,black,man,,,,null,,,,
null,are kissing each other,,html-keyboard-response,65,373296,0.0-13.0-2.3,54624,List2B,black,man,,,,null,,,,
16869,,,survey-text,66,390166,0.0-13.0-3.3,54624,List2B,black,man,,,,,"{""Q0"":""Dave and Jane are kissing each other.""}","<img src=""stim_listB/kiss2.gif""</stim_listB>",are kissing each other,
null,"<div style=""font-size:60px;"">+</div>",,html-keyboard-response,67,390668,0.0-13.0-0.4,54624,List2B,black,man,,,,null,,,,
null,"<img src=""stim_listB/dance7.gif""</stim_listB>",,html-keyboard-response,68,392671,0.0-13.0-1.4,54624,List2B,black,man,,,,null,,,,
null,is dancing with,,html-keyboard-response,69,394673,0.0-13.0-2.4,54624,List2B,black,man,,,,null,,,,
27451,,,survey-text,70,422126,0.0-13.0-3.4,54624,List2B,black,man,,,,,"{""Q0"":""Kate is dancing with Ruth.""}","<img src=""stim_listB/dance7.gif""</stim_listB>",is dancing with,
null,"<div style=""font-size:60px;"">+</div>",,html-keyboard-response,71,422627,0.0-13.0-0.5,54624,List2B,black,man,,,,null,,,,
null,"<img src=""stim_listB/meet3.gif""</stim_listB>",,html-keyboard-response,72,424630,0.0-13.0-1.5,54624,List2B,black,man,,,,null,,,,
null,is meeting,,html-keyboard-response,73,426632,0.0-13.0-2.5,54624,List2B,black,man,,,,null,,,,
20690,,,survey-text,74,447324,0.0-13.0-3.5,54624,List2B,black,man,,,,,"{""Q0"":""Mike is meeting Kate.""}","<img src=""stim_listB/meet3.gif""</stim_listB>",is meeting,
null,"<div style=""font-size:60px;"">+</div>",,html-keyboard-response,75,447826,0.0-13.0-0.6,54624,List2B,black,man,,,,null,,,,
null,"<img src=""stim_listB/marry4.gif""</stim_listB>",,html-keyboard-response,76,449829,0.0-13.0-1.6,54624,List2B,black,man,,,,null,,,,
null,are marrying each other,,html-keyboard-response,77,451830,0.0-13.0-2.6,54624,List2B,black,man,,,,null,,,,
28450,,,survey-text,78,480282,0.0-13.0-3.6,54624,List2B,black,man,,,,,"{""Q0"":""Fred and Kate are marrying each other.""}","<img src=""stim_listB/marry4.gif""</stim_listB>",are marrying each other,
null,"<div style=""font-size:60px;"">+</div>",,html-keyboard-response,79,480784,0.0-13.0-0.7,54624,List2B,black,man,,,,null,,,,
null,"<img src=""stim_listB/argue8.gif""</stim_listB>",,html-keyboard-response,80,482787,0.0-13.0-1.7,54624,List2B,black,man,,,,null,,,,
null,are arguing with each other,,html-keyboard-response,81,484788,0.0-13.0-2.7,54624,List2B,black,man,,,,null,,,,
28248,,,survey-text,82,513038,0.0-13.0-3.7,54624,List2B,black,man,,,,,"{""Q0"":""Ruth and Kate are arguing with each other.""}","<img src=""stim_listB/argue8.gif""</stim_listB>",are arguing with each other,
null,"<div style=""font-size:60px;"">+</div>",,html-keyboard-response,83,513539,0.0-13.0-0.8,54624,List2B,black,man,,,,null,,,,
null,"<img src=""stim_listB/argue6.gif""</stim_listB>",,html-keyboard-response,84,515540,0.0-13.0-1.8,54624,List2B,black,man,,,,null,,,,
null,are arguing with each other,,html-keyboard-response,85,517541,0.0-13.0-2.8,54624,List2B,black,man,,,,null,,,,
15713,,,survey-text,86,533256,0.0-13.0-3.8,54624,List2B,black,man,,,,,"{""Q0"":""Luke and Mike are arguing with each other.""}","<img src=""stim_listB/argue6.gif""</stim_listB>",are arguing with each other,
null,"<div style=""font-size:60px;"">+</div>",,html-keyboard-response,87,533758,0.0-13.0-0.9,54624,List2B,black,man,,,,null,,,,
null,"<img src=""stim_listB/meet1.gif""</stim_listB>",,html-keyboard-response,88,535761,0.0-13.0-1.9,54624,List2B,black,man,,,,null,,,,
null,is meeting,,html-keyboard-response,89,537763,0.0-13.0-2.9,54624,List2B,black,man,,,,null,,,,
14500,,,survey-text,90,552265,0.0-13.0-3.9,54624,List2B,black,man,,,,,"{""Q0"":""Dave is meeting Jane.""}","<img src=""stim_listB/meet1.gif""</stim_listB>",is meeting,
null,"<div style=""font-size:60px;"">+</div>",,html-keyboard-response,91,552767,0.0-13.0-0.10,54624,List2B,black,man,,,,null,,,,
null,"<img src=""stim_listB/marry6.gif""</stim_listB>",,html-keyboard-response,92,554770,0.0-13.0-1.10,54624,List2B,black,man,,,,null,,,,
null,are marrying each other,,html-keyboard-response,93,556771,0.0-13.0-2.10,54624,List2B,black,man,,,,null,,,,
13554,,,survey-text,94,570327,0.0-13.0-3.10,54624,List2B,black,man,,,,,"{""Q0"":""Luke and Mike are marrying each other.""}","<img src=""stim_listB/marry6.gif""</stim_listB>",are marrying each other,
null,"<div style=""font-size:60px;"">+</div>",,html-keyboard-response,95,570829,0.0-13.0-0.11,54624,List2B,black,man,,,,null,,,,
null,"<img src=""stim_listB/shout4.gif""</stim_listB>",,html-keyboard-response,96,572832,0.0-13.0-1.11,54624,List2B,black,man,,,,null,,,,
null,are shouting at each other,,html-keyboard-response,97,574833,0.0-13.0-2.11,54624,List2B,black,man,,,,null,,,,
21745,,,survey-text,98,596580,0.0-13.0-3.11,54624,List2B,black,man,,,,,"{""Q0"":""Mike and Kate are shouting at each other.""}","<img src=""stim_listB/shout4.gif""</stim_listB>",are shouting at each other,
null,"<div style=""font-size:60px;"">+</div>",,html-keyboard-response,99,597082,0.0-13.0-0.12,54624,List2B,black,man,,,,null,,,,
null,"<img src=""stim_listB/kiss8.gif""</stim_listB>",,html-keyboard-response,100,599085,0.0-13.0-1.12,54624,List2B,black,man,,,,null,,,,
null,are kissing each other,,html-keyboard-response,101,601087,0.0-13.0-2.12,54624,List2B,black,man,,,,null,,,,
22006,,,survey-text,102,623094,0.0-13.0-3.12,54624,List2B,black,man,,,,,"{""Q0"":""Jane and Kate are kissing each other.""}","<img src=""stim_listB/kiss8.gif""</stim_listB>",are kissing each other,
null,"<div style=""font-size:60px;"">+</div>",,html-keyboard-response,103,623596,0.0-13.0-0.13,54624,List2B,black,man,,,,null,,,,
null,"<img src=""stim_listB/marry7.gif""</stim_listB>",,html-keyboard-response,104,625599,0.0-13.0-1.13,54624,List2B,black,man,,,,null,,,,
null,is marrying,,html-keyboard-response,105,627601,0.0-13.0-2.13,54624,List2B,black,man,,,,null,,,,
16627,,,survey-text,106,644229,0.0-13.0-3.13,54624,List2B,black,man,,,,,"{""Q0"":""Beth is marrying Jane.""}","<img src=""stim_listB/marry7.gif""</stim_listB>",is marrying,
null,"<div style=""font-size:60px;"">+</div>",,html-keyboard-response,107,644731,0.0-13.0-0.14,54624,List2B,black,man,,,,null,,,,
null,"<img src=""stim_listB/shout2.gif""</stim_listB>",,html-keyboard-response,108,646734,0.0-13.0-1.14,54624,List2B,black,man,,,,null,,,,
null,are shouting at each other,,html-keyboard-response,109,648736,0.0-13.0-2.14,54624,List2B,black,man,,,,null,,,,
30243,,,survey-text,110,678981,0.0-13.0-3.14,54624,List2B,black,man,,,,,"{""Q0"":""Dave and Jane are shouting at each other.""}","<img src=""stim_listB/shout2.gif""</stim_listB>",are shouting at each other,
null,"<div style=""font-size:60px;"">+</div>",,html-keyboard-response,111,679483,0.0-13.0-0.15,54624,List2B,black,man,,,,null,,,,
null,"<img src=""stim_listB/hug6.gif""</stim_listB>",,html-keyboard-response,112,681486,0.0-13.0-1.15,54624,List2B,black,man,,,,null,,,,
null,are hugging each other,,html-keyboard-response,113,683487,0.0-13.0-2.15,54624,List2B,black,man,,,,null,,,,
20365,,,survey-text,114,703854,0.0-13.0-3.15,54624,List2B,black,man,,,,,"{""Q0"":""Mike and Dave are hugging each other.""}","<img src=""stim_listB/hug6.gif""</stim_listB>",are hugging each other,
null,"<div style=""font-size:60px;"">+</div>",,html-keyboard-response,115,704356,0.0-13.0-0.16,54624,List2B,black,man,,,,null,,,,
null,"<img src=""stim_listB/meet8.gif""</stim_listB>",,html-keyboard-response,116,706359,0.0-13.0-1.16,54624,List2B,black,man,,,,null,,,,
null,are meeting each other,,html-keyboard-response,117,708360,0.0-13.0-2.16,54624,List2B,black,man,,,,null,,,,
20385,,,survey-text,118,728746,0.0-13.0-3.16,54624,List2B,black,man,,,,,"{""Q0"":""Beth and Jane are meeting each other.""}","<img src=""stim_listB/meet8.gif""</stim_listB>",are meeting each other,
null,"<div style=""font-size:60px;"">+</div>",,html-keyboard-response,119,729248,0.0-13.0-0.17,54624,List2B,black,man,,,,null,,,,
null,"<img src=""stim_listB/talk6.gif""</stim_listB>",,html-keyboard-response,120,731251,0.0-13.0-1.17,54624,List2B,black,man,,,,null,,,,
null,are talking to each other,,html-keyboard-response,121,733252,0.0-13.0-2.17,54624,List2B,black,man,,,,null,,,,
17171,,,survey-text,122,750424,0.0-13.0-3.17,54624,List2B,black,man,,,,,"{""Q0"":""Fred and Dave are talking to each other.""}","<img src=""stim_listB/talk6.gif""</stim_listB>",are talking to each other,
null,"<div style=""font-size:60px;"">+</div>",,html-keyboard-response,123,750927,0.0-13.0-0.18,54624,List2B,black,man,,,,null,,,,
null,"<img src=""stim_listB/hug2.gif""</stim_listB>",,html-keyboard-response,124,752929,0.0-13.0-1.18,54624,List2B,black,man,,,,null,,,,
null,are hugging each other,,html-keyboard-response,125,754931,0.0-13.0-2.18,54624,List2B,black,man,,,,null,,,,
21702,,,survey-text,126,776635,0.0-13.0-3.18,54624,List2B,black,man,,,,,"{""Q0"":""Dave and Jane are hugging each other.""}","<img src=""stim_listB/hug2.gif""</stim_listB>",are hugging each other,
null,"<div style=""font-size:60px;"">+</div>",,html-keyboard-response,127,777137,0.0-13.0-0.19,54624,List2B,black,man,,,,null,,,,
null,"<img src=""stim_listB/marry1.gif""</stim_listB>",,html-keyboard-response,128,779140,0.0-13.0-1.19,54624,List2B,black,man,,,,null,,,,
null,is marrying,,html-keyboard-response,129,781141,0.0-13.0-2.19,54624,List2B,black,man,,,,null,,,,
11925,,,survey-text,130,793068,0.0-13.0-3.19,54624,List2B,black,man,,,,,"{""Q0"":""Dave is marrying Ruth.""}","<img src=""stim_listB/marry1.gif""</stim_listB>",is marrying,
13491,"<img src='img/portrait_matrix_list2.JPG' style='width:900px;height:500px;''></img><p>If you have memorised all the portraits and names and are ready to start, press Continue.</p><p><strong>Please note: Your memory of these faces will be tested 4 times during this experiment.</strong></p>",0,html-button-response,131,806561,0.0-14.0-0.0,54624,List2B,black,man,,,,,,,,
5495,"<img src=""portrait/WW2.jpg""style=""width:400px;height:400px;""></img>",3,html-button-response,132,813061,0.0-14.0-1.0,54624,List2B,black,man,,TRUE,3,,,,,
null,CORRECT,,html-keyboard-response,133,814564,0.0-14.0-2.0-0.0,54624,List2B,black,man,,,,null,,,,
1617,"<img src=""portrait/WM2.jpg""style=""width:400px;height:400px;""></img>",7,html-button-response,134,816185,0.0-14.0-4.0,54624,List2B,black,man,,TRUE,7,,,,,
null,CORRECT,,html-keyboard-response,135,817688,0.0-14.0-5.0-0.0,54624,List2B,black,man,,,,null,,,,
6007,"<img src=""portrait/BW2.jpg""style=""width:400px;height:400px;""></img>",2,html-button-response,136,823697,0.0-14.0-7.0,54624,List2B,black,man,,TRUE,2,,,,,
null,CORRECT,,html-keyboard-response,137,825200,0.0-14.0-8.0-0.0,54624,List2B,black,man,,,,null,,,,
1833,"<img src=""portrait/WM1.jpg""style=""width:400px;height:400px;""></img>",6,html-button-response,138,827036,0.0-14.0-10.0,54624,List2B,black,man,,TRUE,6,,,,,
null,CORRECT,,html-keyboard-response,139,828539,0.0-14.0-11.0-0.0,54624,List2B,black,man,,,,null,,,,
7469,"<img src=""portrait/WW1.jpg""style=""width:400px;height:400px;""></img>",1,html-button-response,140,836011,0.0-14.0-13.0,54624,List2B,black,man,,TRUE,1,,,,,
null,CORRECT,,html-keyboard-response,141,837515,0.0-14.0-14.0-0.0,54624,List2B,black,man,,,,null,,,,
5602,"<img src=""portrait/BW1.jpg""style=""width:400px;height:400px;""></img>",0,html-button-response,142,843120,0.0-14.0-16.0,54624,List2B,black,man,,TRUE,0,,,,,
null,CORRECT,,html-keyboard-response,143,844624,0.0-14.0-17.0-0.0,54624,List2B,black,man,,,,null,,,,
1906,"<img src=""portrait/BM1.jpg""style=""width:400px;height:400px;""></img>",4,html-button-response,144,846533,0.0-14.0-19.0,54624,List2B,black,man,,TRUE,4,,,,,
null,CORRECT,,html-keyboard-response,145,848035,0.0-14.0-20.0-0.0,54624,List2B,black,man,,,,null,,,,
983,"<img src=""portrait/BM2.jpg""style=""width:400px;height:400px;""></img>",5,html-button-response,146,849021,0.0-14.0-22.0,54624,List2B,black,man,,TRUE,5,,,,,
null,CORRECT,,html-keyboard-response,147,850524,0.0-14.0-23.0-0.0,54624,List2B,black,man,,,,null,,,,
1642,<p>You got 8 out of 8 right first time. Press Continue.</p>,0,html-button-response,148,852169,0.0-14.0-25.0,54624,List2B,black,man,,,,,,,,
null,"<div style=""font-size:60px;"">+</div>",,html-keyboard-response,149,853672,0.0-15.0-0.0,54624,List2B,black,man,,,,null,,,,
null,"<img src=""stim_listB/marry3.gif""</stim_listB>",,html-keyboard-response,150,855674,0.0-15.0-1.0,54624,List2B,black,man,,,,null,,,,
null,is marrying,,html-keyboard-response,151,857676,0.0-15.0-2.0,54624,List2B,black,man,,,,null,,,,
23567,,,survey-text,152,881245,0.0-15.0-3.0,54624,List2B,black,man,,,,,"{""Q0"":""Mike is marrying Beth.""}","<img src=""stim_listB/marry3.gif""</stim_listB>",is marrying,
null,"<div style=""font-size:60px;"">+</div>",,html-keyboard-response,153,881747,0.0-15.0-0.1,54624,List2B,black,man,,,,null,,,,
null,"<img src=""stim_listB/argue5.gif""</stim_listB>",,html-keyboard-response,154,883752,0.0-15.0-1.1,54624,List2B,black,man,,,,null,,,,
null,is arguing with,,html-keyboard-response,155,885753,0.0-15.0-2.1,54624,List2B,black,man,,,,null,,,,
14364,,,survey-text,156,900121,0.0-15.0-3.1,54624,List2B,black,man,,,,,"{""Q0"":""Fred is arguing with Dave.""}","<img src=""stim_listB/argue5.gif""</stim_listB>",is arguing with,
null,"<div style=""font-size:60px;"">+</div>",,html-keyboard-response,157,900624,0.0-15.0-0.2,54624,List2B,black,man,,,,null,,,,
null,"<img src=""stim_listB/hug5.gif""</stim_listB>",,html-keyboard-response,158,902627,0.0-15.0-1.2,54624,List2B,black,man,,,,null,,,,
null,is hugging,,html-keyboard-response,159,904629,0.0-15.0-2.2,54624,List2B,black,man,,,,null,,,,
41334,,,survey-text,160,945965,0.0-15.0-3.2,54624,List2B,black,man,,,,,"{""Q0"":""Fred is hugging Luke.""}","<img src=""stim_listB/hug5.gif""</stim_listB>",is hugging,
null,"<div style=""font-size:60px;"">+</div>",,html-keyboard-response,161,946467,0.0-15.0-0.3,54624,List2B,black,man,,,,null,,,,
null,"<img src=""stim_listB/kiss7.gif""</stim_listB>",,html-keyboard-response,162,948470,0.0-15.0-1.3,54624,List2B,black,man,,,,null,,,,
null,is kissing,,html-keyboard-response,163,950472,0.0-15.0-2.3,54624,List2B,black,man,,,,null,,,,
20193,,,survey-text,164,970667,0.0-15.0-3.3,54624,List2B,black,man,,,,,"{""Q0"":""Beth is kissing Jane.""}","<img src=""stim_listB/kiss7.gif""</stim_listB>",is kissing,
null,"<div style=""font-size:60px;"">+</div>",,html-keyboard-response,165,971170,0.0-15.0-0.4,54624,List2B,black,man,,,,null,,,,
null,"<img src=""stim_listB/dance8.gif""</stim_listB>",,html-keyboard-response,166,973173,0.0-15.0-1.4,54624,List2B,black,man,,,,null,,,,
null,are dancing with each other,,html-keyboard-response,167,975175,0.0-15.0-2.4,54624,List2B,black,man,,,,null,,,,
33422,,,survey-text,168,1008599,0.0-15.0-3.4,54624,List2B,black,man,,,,,"{""Q0"":""Beth and Jane are dancing with each other.""}","<img src=""stim_listB/dance8.gif""</stim_listB>",are dancing with each other,
null,"<div style=""font-size:60px;"">+</div>",,html-keyboard-response,169,1009101,0.0-15.0-0.5,54624,List2B,black,man,,,,null,,,,
null,"<img src=""stim_listB/touch2.gif""</stim_listB>",,html-keyboard-response,170,1011104,0.0-15.0-1.5,54624,List2B,black,man,,,,null,,,,
null,are touching each other,,html-keyboard-response,171,1013106,0.0-15.0-2.5,54624,List2B,black,man,,,,null,,,,
14058,,,survey-text,172,1027166,0.0-15.0-3.5,54624,List2B,black,man,,,,,"{""Q0"":""Luke and Ruth are touching each other.""}","<img src=""stim_listB/touch2.gif""</stim_listB>",are touching each other,
null,"<div style=""font-size:60px;"">+</div>",,html-keyboard-response,173,1027668,0.0-15.0-0.6,54624,List2B,black,man,,,,null,,,,
null,"<img src=""stim_listB/talk1.gif""</stim_listB>",,html-keyboard-response,174,1029671,0.0-15.0-1.6,54624,List2B,black,man,,,,null,,,,
null,is talking to,,html-keyboard-response,175,1031672,0.0-15.0-2.6,54624,List2B,black,man,,,,null,,,,
26905,,,survey-text,176,1058580,0.0-15.0-3.6,54624,List2B,black,man,,,,,"{""Q0"":""Luke is talking to Jane.""}","<img src=""stim_listB/talk1.gif""</stim_listB>",is talking to,
null,"<div style=""font-size:60px;"">+</div>",,html-keyboard-response,177,1059082,0.0-15.0-0.7,54624,List2B,black,man,,,,null,,,,
null,"<img src=""stim_listB/fight6.gif""</stim_listB>",,html-keyboard-response,178,1061085,0.0-15.0-1.7,54624,List2B,black,man,,,,null,,,,
null,are fighting each other,,html-keyboard-response,179,1063086,0.0-15.0-2.7,54624,List2B,black,man,,,,null,,,,
23408,,,survey-text,180,1086495,0.0-15.0-3.7,54624,List2B,black,man,,,,,"{""Q0"":""Luke and Fred are fighting each other.""}","<img src=""stim_listB/fight6.gif""</stim_listB>",are fighting each other,
null,"<div style=""font-size:60px;"">+</div>",,html-keyboard-response,181,1086997,0.0-15.0-0.8,54624,List2B,black,man,,,,null,,,,
null,"<img src=""stim_listB/shout3.gif""</stim_listB>",,html-keyboard-response,182,1089000,0.0-15.0-1.8,54624,List2B,black,man,,,,null,,,,
null,is shouting at,,html-keyboard-response,183,1091002,0.0-15.0-2.8,54624,List2B,black,man,,,,null,,,,
18918,,,survey-text,184,1109921,0.0-15.0-3.8,54624,List2B,black,man,,,,,"{""Q0"":""Beth is shouting at Fred.""}","<img src=""stim_listB/shout3.gif""</stim_listB>",is shouting at,
null,"<div style=""font-size:60px;"">+</div>",,html-keyboard-response,185,1110423,0.0-15.0-0.9,54624,List2B,black,man,,,,null,,,,
null,"<img src=""stim_listB/talk3.gif""</stim_listB>",,html-keyboard-response,186,1112426,0.0-15.0-1.9,54624,List2B,black,man,,,,null,,,,
null,is talking to,,html-keyboard-response,187,1114428,0.0-15.0-2.9,54624,List2B,black,man,,,,null,,,,
15615,,,survey-text,188,1130045,0.0-15.0-3.9,54624,List2B,black,man,,,,,"{""Q0"":""Kate is talking to Fred.""}","<img src=""stim_listB/talk3.gif""</stim_listB>",is talking to,
null,"<div style=""font-size:60px;"">+</div>",,html-keyboard-response,189,1130547,0.0-15.0-0.10,54624,List2B,black,man,,,,null,,,,
null,"<img src=""stim_listB/marry2.gif""</stim_listB>",,html-keyboard-response,190,1132550,0.0-15.0-1.10,54624,List2B,black,man,,,,null,,,,
null,are marrying each other,,html-keyboard-response,191,1134551,0.0-15.0-2.10,54624,List2B,black,man,,,,null,,,,
25028,,,survey-text,192,1159581,0.0-15.0-3.10,54624,List2B,black,man,,,,,"{""Q0"":""Jane and Luke are marrying each other.""}","<img src=""stim_listB/marry2.gif""</stim_listB>",are marrying each other,
null,"<div style=""font-size:60px;"">+</div>",,html-keyboard-response,193,1160083,0.0-15.0-0.11,54624,List2B,black,man,,,,null,,,,
null,"<img src=""stim_listB/hug3.gif""</stim_listB>",,html-keyboard-response,194,1162086,0.0-15.0-1.11,54624,List2B,black,man,,,,null,,,,
null,is hugging,,html-keyboard-response,195,1164088,0.0-15.0-2.11,54624,List2B,black,man,,,,null,,,,
12622,,,survey-text,196,1176711,0.0-15.0-3.11,54624,List2B,black,man,,,,,"{""Q0"":""Beth is hugging Fred.""}","<img src=""stim_listB/hug3.gif""</stim_listB>",is hugging,
null,"<div style=""font-size:60px;"">+</div>",,html-keyboard-response,197,1177213,0.0-15.0-0.12,54624,List2B,black,man,,,,null,,,,
null,"<img src=""stim_listB/fight4.gif""</stim_listB>",,html-keyboard-response,198,1179216,0.0-15.0-1.12,54624,List2B,black,man,,,,null,,,,
null,are fighting each other,,html-keyboard-response,199,1181218,0.0-15.0-2.12,54624,List2B,black,man,,,,null,,,,
26785,,,survey-text,200,1208007,0.0-15.0-3.12,54624,List2B,black,man,,,,,"{""Q0"":""Beth and Fred are fighting each other.""}","<img src=""stim_listB/fight4.gif""</stim_listB>",are fighting each other,
null,"<div style=""font-size:60px;"">+</div>",,html-keyboard-response,201,1208510,0.0-15.0-0.13,54624,List2B,black,man,,,,null,,,,
null,"<img src=""stim_listB/talk4.gif""</stim_listB>",,html-keyboard-response,202,1210512,0.0-15.0-1.13,54624,List2B,black,man,,,,null,,,,
null,are talking to each other,,html-keyboard-response,203,1212514,0.0-15.0-2.13,54624,List2B,black,man,,,,null,,,,
17854,,,survey-text,204,1230370,0.0-15.0-3.13,54624,List2B,black,man,,,,,"{""Q0"":""Beth and Mike are talking to each other.""}","<img src=""stim_listB/talk4.gif""</stim_listB>",are talking to each other,
null,"<div style=""font-size:60px;"">+</div>",,html-keyboard-response,205,1230873,0.0-15.0-0.14,54624,List2B,black,man,,,,null,,,,
null,"<img src=""stim_listB/shout8.gif""</stim_listB>",,html-keyboard-response,206,1232876,0.0-15.0-1.14,54624,List2B,black,man,,,,null,,,,
null,are shouting at each other,,html-keyboard-response,207,1234877,0.0-15.0-2.14,54624,List2B,black,man,,,,null,,,,
17158,,,survey-text,208,1252037,0.0-15.0-3.14,54624,List2B,black,man,,,,,"{""Q0"":""Jane and Kate are shouting at each other.""}","<img src=""stim_listB/shout8.gif""</stim_listB>",are shouting at each other,
null,"<div style=""font-size:60px;"">+</div>",,html-keyboard-response,209,1252539,0.0-15.0-0.15,54624,List2B,black,man,,,,null,,,,
null,"<img src=""stim_listB/fight8.gif""</stim_listB>",,html-keyboard-response,210,1254542,0.0-15.0-1.15,54624,List2B,black,man,,,,null,,,,
null,are fighting each other,,html-keyboard-response,211,1256543,0.0-15.0-2.15,54624,List2B,black,man,,,,null,,,,
20793,,,survey-text,212,1277338,0.0-15.0-3.15,54624,List2B,black,man,,,,,"{""Q0"":""Beth and Ruth are fighting each other.""}","<img src=""stim_listB/fight8.gif""</stim_listB>",are fighting each other,
null,"<div style=""font-size:60px;"">+</div>",,html-keyboard-response,213,1277840,0.0-15.0-0.16,54624,List2B,black,man,,,,null,,,,
null,"<img src=""stim_listB/kiss3.gif""</stim_listB>",,html-keyboard-response,214,1279843,0.0-15.0-1.16,54624,List2B,black,man,,,,null,,,,
null,is kissing,,html-keyboard-response,215,1281845,0.0-15.0-2.16,54624,List2B,black,man,,,,null,,,,
10916,,,survey-text,216,1292762,0.0-15.0-3.16,54624,List2B,black,man,,,,,"{""Q0"":""Fred is kissing Beth.""}","<img src=""stim_listB/kiss3.gif""</stim_listB>",is kissing,
null,"<div style=""font-size:60px;"">+</div>",,html-keyboard-response,217,1293264,0.0-15.0-0.17,54624,List2B,black,man,,,,null,,,,
null,"<img src=""stim_listB/kiss5.gif""</stim_listB>",,html-keyboard-response,218,1295268,0.0-15.0-1.17,54624,List2B,black,man,,,,null,,,,
null,is kissing,,html-keyboard-response,219,1297269,0.0-15.0-2.17,54624,List2B,black,man,,,,null,,,,
6964,,,survey-text,220,1304235,0.0-15.0-3.17,54624,List2B,black,man,,,,,"{""Q0"":""Fred is kissing Luke.""}","<img src=""stim_listB/kiss5.gif""</stim_listB>",is kissing,
null,"<div style=""font-size:60px;"">+</div>",,html-keyboard-response,221,1304737,0.0-15.0-0.18,54624,List2B,black,man,,,,null,,,,
null,"<img src=""stim_listB/argue4.gif""</stim_listB>",,html-keyboard-response,222,1306740,0.0-15.0-1.18,54624,List2B,black,man,,,,null,,,,
null,are arguing with each other,,html-keyboard-response,223,1308742,0.0-15.0-2.18,54624,List2B,black,man,,,,null,,,,
18170,,,survey-text,224,1326914,0.0-15.0-3.18,54624,List2B,black,man,,,,,"{""Q0"":""Fred and Kate are arguing with each other.""}","<img src=""stim_listB/argue4.gif""</stim_listB>",are arguing with each other,
null,"<div style=""font-size:60px;"">+</div>",,html-keyboard-response,225,1327416,0.0-15.0-0.19,54624,List2B,black,man,,,,null,,,,
null,"<img src=""stim_listB/touch6.gif""</stim_listB>",,html-keyboard-response,226,1329419,0.0-15.0-1.19,54624,List2B,black,man,,,,null,,,,
null,are touching each other,,html-keyboard-response,227,1331420,0.0-15.0-2.19,54624,List2B,black,man,,,,null,,,,
20364,,,survey-text,228,1351786,0.0-15.0-3.19,54624,List2B,black,man,,,,,"{""Q0"":""Fred and Luke are touching each other.""}","<img src=""stim_listB/touch6.gif""</stim_listB>",are touching each other,
14177,"<img src='img/portrait_matrix_list2.JPG' style='width:900px;height:500px;''></img><p>If you have memorised all the portraits and names and are ready to start, press Continue.</p><p><strong>Please note: Your memory of these faces will be tested 4 times during this experiment.</strong></p>",0,html-button-response,229,1365964,0.0-16.0-0.0,54624,List2B,black,man,,,,,,,,
5624,"<img src=""portrait/WW1.jpg""style=""width:400px;height:400px;""></img>",1,html-button-response,230,1372591,0.0-16.0-1.0,54624,List2B,black,man,,TRUE,1,,,,,
null,CORRECT,,html-keyboard-response,231,1374094,0.0-16.0-2.0-0.0,54624,List2B,black,man,,,,null,,,,
1663,"<img src=""portrait/WW2.jpg""style=""width:400px;height:400px;""></img>",3,html-button-response,232,1375760,0.0-16.0-4.0,54624,List2B,black,man,,TRUE,3,,,,,
null,CORRECT,,html-keyboard-response,233,1377262,0.0-16.0-5.0-0.0,54624,List2B,black,man,,,,null,,,,
3014,"<img src=""portrait/WM1.jpg""style=""width:400px;height:400px;""></img>",6,html-button-response,234,1380280,0.0-16.0-7.0,54624,List2B,black,man,,TRUE,6,,,,,
null,CORRECT,,html-keyboard-response,235,1381783,0.0-16.0-8.0-0.0,54624,List2B,black,man,,,,null,,,,
1713,"<img src=""portrait/BM1.jpg""style=""width:400px;height:400px;""></img>",4,html-button-response,236,1383499,0.0-16.0-10.0,54624,List2B,black,man,,TRUE,4,,,,,
null,CORRECT,,html-keyboard-response,237,1385002,0.0-16.0-11.0-0.0,54624,List2B,black,man,,,,null,,,,
1516,"<img src=""portrait/WM2.jpg""style=""width:400px;height:400px;""></img>",7,html-button-response,238,1386521,0.0-16.0-13.0,54624,List2B,black,man,,TRUE,7,,,,,
null,CORRECT,,html-keyboard-response,239,1388024,0.0-16.0-14.0-0.0,54624,List2B,black,man,,,,null,,,,
1629,"<img src=""portrait/BW2.jpg""style=""width:400px;height:400px;""></img>",2,html-button-response,240,1389655,0.0-16.0-16.0,54624,List2B,black,man,,TRUE,2,,,,,
null,CORRECT,,html-keyboard-response,241,1391158,0.0-16.0-17.0-0.0,54624,List2B,black,man,,,,null,,,,
2280,"<img src=""portrait/BM2.jpg""style=""width:400px;height:400px;""></img>",5,html-button-response,242,1393441,0.0-16.0-19.0,54624,List2B,black,man,,TRUE,5,,,,,
null,CORRECT,,html-keyboard-response,243,1394946,0.0-16.0-20.0-0.0,54624,List2B,black,man,,,,null,,,,
8226,"<img src=""portrait/BW1.jpg""style=""width:400px;height:400px;""></img>",0,html-button-response,244,1403175,0.0-16.0-22.0,54624,List2B,black,man,,TRUE,0,,,,,
null,CORRECT,,html-keyboard-response,245,1404678,0.0-16.0-23.0-0.0,54624,List2B,black,man,,,,null,,,,
2438,<p>You got 8 out of 8 right first time. Press Continue.</p>,0,html-button-response,246,1407118,0.0-16.0-25.0,54624,List2B,black,man,,,,,,,,
null,"<div style=""font-size:60px;"">+</div>",,html-keyboard-response,247,1408621,0.0-17.0-0.0,54624,List2B,black,man,,,,null,,,,
null,"<img src=""stim_listB/shout6.gif""</stim_listB>",,html-keyboard-response,248,1410624,0.0-17.0-1.0,54624,List2B,black,man,,,,null,,,,
null,are shouting at each other,,html-keyboard-response,249,1412625,0.0-17.0-2.0,54624,List2B,black,man,,,,null,,,,
24361,,,survey-text,250,1436988,0.0-17.0-3.0,54624,List2B,black,man,,,,,"{""Q0"":""Dave and Mike are shouting at each other.""}","<img src=""stim_listB/shout6.gif""</stim_listB>",are shouting at each other,
null,"<div style=""font-size:60px;"">+</div>",,html-keyboard-response,251,1437491,0.0-17.0-0.1,54624,List2B,black,man,,,,null,,,,
null,"<img src=""stim_listB/meet6.gif""</stim_listB>",,html-keyboard-response,252,1439496,0.0-17.0-1.1,54624,List2B,black,man,,,,null,,,,
null,are meeting each other,,html-keyboard-response,253,1441498,0.0-17.0-2.1,54624,List2B,black,man,,,,null,,,,
10963,,,survey-text,254,1452463,0.0-17.0-3.1,54624,List2B,black,man,,,,,"{""Q0"":""Luke and Fred are meeting each other.""}","<img src=""stim_listB/meet6.gif""</stim_listB>",are meeting each other,
null,"<div style=""font-size:60px;"">+</div>",,html-keyboard-response,255,1452964,0.0-17.0-0.2,54624,List2B,black,man,,,,null,,,,
null,"<img src=""stim_listB/meet4.gif""</stim_listB>",,html-keyboard-response,256,1454966,0.0-17.0-1.2,54624,List2B,black,man,,,,null,,,,
null,are meeting each other,,html-keyboard-response,257,1456967,0.0-17.0-2.2,54624,List2B,black,man,,,,null,,,,
10355,,,survey-text,258,1467324,0.0-17.0-3.2,54624,List2B,black,man,,,,,"{""Q0"":""Beth and Fred are meeting each other.""}","<img src=""stim_listB/meet4.gif""</stim_listB>",are meeting each other,
null,"<div style=""font-size:60px;"">+</div>",,html-keyboard-response,259,1467826,0.0-17.0-0.3,54624,List2B,black,man,,,,null,,,,
null,"<img src=""stim_listB/meet7.gif""</stim_listB>",,html-keyboard-response,260,1469829,0.0-17.0-1.3,54624,List2B,black,man,,,,null,,,,
null,is meeting,,html-keyboard-response,261,1471831,0.0-17.0-2.3,54624,List2B,black,man,,,,null,,,,
8633,,,survey-text,262,1480466,0.0-17.0-3.3,54624,List2B,black,man,,,,,"{""Q0"":""Kate is meeting Jane.""}","<img src=""stim_listB/meet7.gif""</stim_listB>",is meeting,
null,"<div style=""font-size:60px;"">+</div>",,html-keyboard-response,263,1480968,0.0-17.0-0.4,54624,List2B,black,man,,,,null,,,,
null,"<img src=""stim_listB/touch7.gif""</stim_listB>",,html-keyboard-response,264,1482970,0.0-17.0-1.4,54624,List2B,black,man,,,,null,,,,
null,is touching,,html-keyboard-response,265,1484971,0.0-17.0-2.4,54624,List2B,black,man,,,,null,,,,
16255,,,survey-text,266,1501228,0.0-17.0-3.4,54624,List2B,black,man,,,,,"{""Q0"":""Jane is touching Kate.""}","<img src=""stim_listB/touch7.gif""</stim_listB>",is touching,
null,"<div style=""font-size:60px;"">+</div>",,html-keyboard-response,267,1501730,0.0-17.0-0.5,54624,List2B,black,man,,,,null,,,,
null,"<img src=""stim_listB/kiss1.gif""</stim_listB>",,html-keyboard-response,268,1503733,0.0-17.0-1.5,54624,List2B,black,man,,,,null,,,,
null,is kissing,,html-keyboard-response,269,1505735,0.0-17.0-2.5,54624,List2B,black,man,,,,null,,,,
14928,,,survey-text,270,1520665,0.0-17.0-3.5,54624,List2B,black,man,,,,,"{""Q0"":""Luke is kissing Ruth.""}","<img src=""stim_listB/kiss1.gif""</stim_listB>",is kissing,
null,"<div style=""font-size:60px;"">+</div>",,html-keyboard-response,271,1521168,0.0-17.0-0.6,54624,List2B,black,man,,,,null,,,,
null,"<img src=""stim_listB/talk2.gif""</stim_listB>",,html-keyboard-response,272,1523171,0.0-17.0-1.6,54624,List2B,black,man,,,,null,,,,
null,are talking to each other,,html-keyboard-response,273,1525172,0.0-17.0-2.6,54624,List2B,black,man,,,,null,,,,
15319,,,survey-text,274,1540494,0.0-17.0-3.6,54624,List2B,black,man,,,,,"{""Q0"":""Dave and Ruth are talking to each other.""}","<img src=""stim_listB/talk2.gif""</stim_listB>",are talking to each other,
null,"<div style=""font-size:60px;"">+</div>",,html-keyboard-response,275,1540996,0.0-17.0-0.7,54624,List2B,black,man,,,,null,,,,
null,"<img src=""stim_listB/hug4.gif""</stim_listB>",,html-keyboard-response,276,1542999,0.0-17.0-1.7,54624,List2B,black,man,,,,null,,,,
null,are hugging each other,,html-keyboard-response,277,1545001,0.0-17.0-2.7,54624,List2B,black,man,,,,null,,,,
12335,,,survey-text,278,1557338,0.0-17.0-3.7,54624,List2B,black,man,,,,,"{""Q0"":""Mike and Kate are hugging each other.""}","<img src=""stim_listB/hug4.gif""</stim_listB>",are hugging each other,
null,"<div style=""font-size:60px;"">+</div>",,html-keyboard-response,279,1557840,0.0-17.0-0.8,54624,List2B,black,man,,,,null,,,,
null,"<img src=""stim_listB/dance3.gif""</stim_listB>",,html-keyboard-response,280,1559843,0.0-17.0-1.8,54624,List2B,black,man,,,,null,,,,
null,is dancing with,,html-keyboard-response,281,1561845,0.0-17.0-2.8,54624,List2B,black,man,,,,null,,,,
10630,,,survey-text,282,1572477,0.0-17.0-3.8,54624,List2B,black,man,,,,,"{""Q0"":""Fred is dancing with Kate.""}","<img src=""stim_listB/dance3.gif""</stim_listB>",is dancing with,
null,"<div style=""font-size:60px;"">+</div>",,html-keyboard-response,283,1572978,0.0-17.0-0.9,54624,List2B,black,man,,,,null,,,,
null,"<img src=""stim_listB/dance1.gif""</stim_listB>",,html-keyboard-response,284,1574981,0.0-17.0-1.9,54624,List2B,black,man,,,,null,,,,
null,is dancing with,,html-keyboard-response,285,1576983,0.0-17.0-2.9,54624,List2B,black,man,,,,null,,,,
11459,,,survey-text,286,1588443,0.0-17.0-3.9,54624,List2B,black,man,,,,,"{""Q0"":""Luke is dancing with Jane.""}","<img src=""stim_listB/dance1.gif""</stim_listB>",is dancing with,
null,"<div style=""font-size:60px;"">+</div>",,html-keyboard-response,287,1588946,0.0-17.0-0.10,54624,List2B,black,man,,,,null,,,,
null,"<img src=""stim_listB/dance6.gif""</stim_listB>",,html-keyboard-response,288,1590948,0.0-17.0-1.10,54624,List2B,black,man,,,,null,,,,
null,are dancing with each other,,html-keyboard-response,289,1592949,0.0-17.0-2.10,54624,List2B,black,man,,,,null,,,,
13058,,,survey-text,290,1606010,0.0-17.0-3.10,54624,List2B,black,man,,,,,"{""Q0"":""Dave and Fred are dancing with each other.""}","<img src=""stim_listB/dance6.gif""</stim_listB>",are dancing with each other,
null,"<div style=""font-size:60px;"">+</div>",,html-keyboard-response,291,1606513,0.0-17.0-0.11,54624,List2B,black,man,,,,null,,,,
null,"<img src=""stim_listB/touch3.gif""</stim_listB>",,html-keyboard-response,292,1608518,0.0-17.0-1.11,54624,List2B,black,man,,,,null,,,,
null,is touching,,html-keyboard-response,293,1610520,0.0-17.0-2.11,54624,List2B,black,man,,,,null,,,,
9416,,,survey-text,294,1619937,0.0-17.0-3.11,54624,List2B,black,man,,,,,"{""Q0"":""Kate is touching Mike.""}","<img src=""stim_listB/touch3.gif""</stim_listB>",is touching,
null,"<div style=""font-size:60px;"">+</div>",,html-keyboard-response,295,1620439,0.0-17.0-0.12,54624,List2B,black,man,,,,null,,,,
null,"<img src=""stim_listB/fight3.gif""</stim_listB>",,html-keyboard-response,296,1622442,0.0-17.0-1.12,54624,List2B,black,man,,,,null,,,,
null,is fighting,,html-keyboard-response,297,1624444,0.0-17.0-2.12,54624,List2B,black,man,,,,null,,,,
7381,,,survey-text,298,1631826,0.0-17.0-3.12,54624,List2B,black,man,,,,,"{""Q0"":""Kate is fighting Mike.""}","<img src=""stim_listB/fight3.gif""</stim_listB>",is fighting,
null,"<div style=""font-size:60px;"">+</div>",,html-keyboard-response,299,1632328,0.0-17.0-0.13,54624,List2B,black,man,,,,null,,,,
null,"<img src=""stim_listB/fight7.gif""</stim_listB>",,html-keyboard-response,300,1634331,0.0-17.0-1.13,54624,List2B,black,man,,,,null,,,,
null,is fighting,,html-keyboard-response,301,1636333,0.0-17.0-2.13,54624,List2B,black,man,,,,null,,,,
7845,,,survey-text,302,1644180,0.0-17.0-3.13,54624,List2B,black,man,,,,,"{""Q0"":""Kate is fighting Jane.""}","<img src=""stim_listB/fight7.gif""</stim_listB>",is fighting,
null,"<div style=""font-size:60px;"">+</div>",,html-keyboard-response,303,1644682,0.0-17.0-0.14,54624,List2B,black,man,,,,null,,,,
null,"<img src=""stim_listB/kiss6.gif""</stim_listB>",,html-keyboard-response,304,1646685,0.0-17.0-1.14,54624,List2B,black,man,,,,null,,,,
null,are kissing each other,,html-keyboard-response,305,1648687,0.0-17.0-2.14,54624,List2B,black,man,,,,null,,,,
11687,,,survey-text,306,1660376,0.0-17.0-3.14,54624,List2B,black,man,,,,,"{""Q0"":""Mike and Dave are kissing each other.""}","<img src=""stim_listB/kiss6.gif""</stim_listB>",are kissing each other,
null,"<div style=""font-size:60px;"">+</div>",,html-keyboard-response,307,1660877,0.0-17.0-0.15,54624,List2B,black,man,,,,null,,,,
null,"<img src=""stim_listB/marry5.gif""</stim_listB>",,html-keyboard-response,308,1662880,0.0-17.0-1.15,54624,List2B,black,man,,,,null,,,,
null,is marrying,,html-keyboard-response,309,1664882,0.0-17.0-2.15,54624,List2B,black,man,,,,null,,,,
11955,,,survey-text,310,1676838,0.0-17.0-3.15,54624,List2B,black,man,,,,,"{""Q0"":""Fred is marrying Dave.""}","<img src=""stim_listB/marry5.gif""</stim_listB>",is marrying,
null,"<div style=""font-size:60px;"">+</div>",,html-keyboard-response,311,1677340,0.0-17.0-0.16,54624,List2B,black,man,,,,null,,,,
null,"<img src=""stim_listB/touch5.gif""</stim_listB>",,html-keyboard-response,312,1679343,0.0-17.0-1.16,54624,List2B,black,man,,,,null,,,,
null,is touching,,html-keyboard-response,313,1681344,0.0-17.0-2.16,54624,List2B,black,man,,,,null,,,,
12565,,,survey-text,314,1693911,0.0-17.0-3.16,54624,List2B,black,man,,,,,"{""Q0"":""Dave is touching Mike.""}","<img src=""stim_listB/touch5.gif""</stim_listB>",is touching,
null,"<div style=""font-size:60px;"">+</div>",,html-keyboard-response,315,1694413,0.0-17.0-0.17,54624,List2B,black,man,,,,null,,,,
null,"<img src=""stim_listB/touch4.gif""</stim_listB>",,html-keyboard-response,316,1696417,0.0-17.0-1.17,54624,List2B,black,man,,,,null,,,,
null,are touching each other,,html-keyboard-response,317,1698419,0.0-17.0-2.17,54624,List2B,black,man,,,,null,,,,
12853,,,survey-text,318,1711274,0.0-17.0-3.17,54624,List2B,black,man,,,,,"{""Q0"":""Beth and Fred are touching each other.""}","<img src=""stim_listB/touch4.gif""</stim_listB>",are touching each other,
null,"<div style=""font-size:60px;"">+</div>",,html-keyboard-response,319,1711776,0.0-17.0-0.18,54624,List2B,black,man,,,,null,,,,
null,"<img src=""stim_listB/dance4.gif""</stim_listB>",,html-keyboard-response,320,1713779,0.0-17.0-1.18,54624,List2B,black,man,,,,null,,,,
null,are dancing with each other,,html-keyboard-response,321,1715781,0.0-17.0-2.18,54624,List2B,black,man,,,,null,,,,
18929,,,survey-text,322,1734712,0.0-17.0-3.18,54624,List2B,black,man,,,,,"{""Q0"":""Beth and Mike are dancing with each other.""}","<img src=""stim_listB/dance4.gif""</stim_listB>",are dancing with each other,
null,"<div style=""font-size:60px;"">+</div>",,html-keyboard-response,323,1735214,0.0-17.0-0.19,54624,List2B,black,man,,,,null,,,,
null,"<img src=""stim_listB/marry8.gif""</stim_listB>",,html-keyboard-response,324,1737217,0.0-17.0-1.19,54624,List2B,black,man,,,,null,,,,
null,are marrying each other,,html-keyboard-response,325,1739218,0.0-17.0-2.19,54624,List2B,black,man,,,,null,,,,
17111,,,survey-text,326,1756331,0.0-17.0-3.19,54624,List2B,black,man,,,,,"{""Q0"":""Ruth and Kate are marrying each other.""}","<img src=""stim_listB/marry8.gif""</stim_listB>",are marrying each other,
7698,"<img src='img/portrait_matrix_list2.JPG' style='width:900px;height:500px;''></img><p>If you have memorised all the portraits and names and are ready to start, press Continue.</p><p><strong>Please note: Your memory of these faces will be tested 4 times during this experiment.</strong></p>",0,html-button-response,327,1764033,0.0-18.0-0.0,54624,List2B,black,man,,,,,,,,
1518,"<img src=""portrait/WW2.jpg""style=""width:400px;height:400px;""></img>",3,html-button-response,328,1766555,0.0-18.0-1.0,54624,List2B,black,man,,TRUE,3,,,,,
null,CORRECT,,html-keyboard-response,329,1768058,0.0-18.0-2.0-0.0,54624,List2B,black,man,,,,null,,,,
2142,"<img src=""portrait/BW1.jpg""style=""width:400px;height:400px;""></img>",0,html-button-response,330,1770203,0.0-18.0-4.0,54624,List2B,black,man,,TRUE,0,,,,,
null,CORRECT,,html-keyboard-response,331,1771706,0.0-18.0-5.0-0.0,54624,List2B,black,man,,,,null,,,,
1558,"<img src=""portrait/WM2.jpg""style=""width:400px;height:400px;""></img>",7,html-button-response,332,1773268,0.0-18.0-7.0,54624,List2B,black,man,,TRUE,7,,,,,
null,CORRECT,,html-keyboard-response,333,1774771,0.0-18.0-8.0-0.0,54624,List2B,black,man,,,,null,,,,
1793,"<img src=""portrait/BW2.jpg""style=""width:400px;height:400px;""></img>",2,html-button-response,334,1776568,0.0-18.0-10.0,54624,List2B,black,man,,TRUE,2,,,,,
null,CORRECT,,html-keyboard-response,335,1778071,0.0-18.0-11.0-0.0,54624,List2B,black,man,,,,null,,,,
2583,"<img src=""portrait/WW1.jpg""style=""width:400px;height:400px;""></img>",1,html-button-response,336,1780658,0.0-18.0-13.0,54624,List2B,black,man,,TRUE,1,,,,,
null,CORRECT,,html-keyboard-response,337,1782161,0.0-18.0-14.0-0.0,54624,List2B,black,man,,,,null,,,,
1661,"<img src=""portrait/BM2.jpg""style=""width:400px;height:400px;""></img>",5,html-button-response,338,1783825,0.0-18.0-16.0,54624,List2B,black,man,,TRUE,5,,,,,
null,CORRECT,,html-keyboard-response,339,1785329,0.0-18.0-17.0-0.0,54624,List2B,black,man,,,,null,,,,
1508,"<img src=""portrait/BM1.jpg""style=""width:400px;height:400px;""></img>",4,html-button-response,340,1786841,0.0-18.0-19.0,54624,List2B,black,man,,TRUE,4,,,,,
null,CORRECT,,html-keyboard-response,341,1788343,0.0-18.0-20.0-0.0,54624,List2B,black,man,,,,null,,,,
827,"<img src=""portrait/WM1.jpg""style=""width:400px;height:400px;""></img>",6,html-button-response,342,1789172,0.0-18.0-22.0,54624,List2B,black,man,,TRUE,6,,,,,
null,CORRECT,,html-keyboard-response,343,1790674,0.0-18.0-23.0-0.0,54624,List2B,black,man,,,,null,,,,
1465,<p>You got 8 out of 8 right first time. Press Continue.</p>,0,html-button-response,344,1792142,0.0-18.0-25.0,54624,List2B,black,man,,,,,,,,
null,"<div style=""font-size:60px;"">+</div>",,html-keyboard-response,345,1793646,0.0-19.0-0.0,54624,List2B,black,man,,,,null,,,,
null,"<img src=""stim_listB/argue3.gif""</stim_listB>",,html-keyboard-response,346,1795649,0.0-19.0-1.0,54624,List2B,black,man,,,,null,,,,
null,is arguing with,,html-keyboard-response,347,1797651,0.0-19.0-2.0,54624,List2B,black,man,,,,null,,,,
13195,,,survey-text,348,1810849,0.0-19.0-3.0,54624,List2B,black,man,,,,,"{""Q0"":""Beth is arguing with Mike.""}","<img src=""stim_listB/argue3.gif""</stim_listB>",is arguing with,
null,"<div style=""font-size:60px;"">+</div>",,html-keyboard-response,349,1811351,0.0-19.0-0.1,54624,List2B,black,man,,,,null,,,,
null,"<img src=""stim_listB/dance5.gif""</stim_listB>",,html-keyboard-response,350,1813354,0.0-19.0-1.1,54624,List2B,black,man,,,,null,,,,
null,is dancing with,,html-keyboard-response,351,1815356,0.0-19.0-2.1,54624,List2B,black,man,,,,null,,,,
13605,,,survey-text,352,1828964,0.0-19.0-3.1,54624,List2B,black,man,,,,,"{""Q0"":""Mike is dancing with Luke.""}","<img src=""stim_listB/dance5.gif""</stim_listB>",is dancing with,
null,"<div style=""font-size:60px;"">+</div>",,html-keyboard-response,353,1829465,0.0-19.0-0.2,54624,List2B,black,man,,,,null,,,,
null,"<img src=""stim_listB/shout5.gif""</stim_listB>",,html-keyboard-response,354,1831468,0.0-19.0-1.2,54624,List2B,black,man,,,,null,,,,
null,is shouting at,,html-keyboard-response,355,1833470,0.0-19.0-2.2,54624,List2B,black,man,,,,null,,,,
13629,,,survey-text,356,1847101,0.0-19.0-3.2,54624,List2B,black,man,,,,,"{""Q0"":""Fred is shouting at Luke.""}","<img src=""stim_listB/shout5.gif""</stim_listB>",is shouting at,
null,"<div style=""font-size:60px;"">+</div>",,html-keyboard-response,357,1847604,0.0-19.0-0.3,54624,List2B,black,man,,,,null,,,,
null,"<img src=""stim_listB/meet2.gif""</stim_listB>",,html-keyboard-response,358,1849607,0.0-19.0-1.3,54624,List2B,black,man,,,,null,,,,
null,are meeting each other,,html-keyboard-response,359,1851608,0.0-19.0-2.3,54624,List2B,black,man,,,,null,,,,
11176,,,survey-text,360,1862786,0.0-19.0-3.3,54624,List2B,black,man,,,,,"{""Q0"":""Luke and Ruth are meeting each other.""}","<img src=""stim_listB/meet2.gif""</stim_listB>",are meeting each other,
null,"<div style=""font-size:60px;"">+</div>",,html-keyboard-response,361,1863288,0.0-19.0-0.4,54624,List2B,black,man,,,,null,,,,
null,"<img src=""stim_listB/hug7.gif""</stim_listB>",,html-keyboard-response,362,1865291,0.0-19.0-1.4,54624,List2B,black,man,,,,null,,,,
null,is hugging,,html-keyboard-response,363,1867293,0.0-19.0-2.4,54624,List2B,black,man,,,,null,,,,
11587,,,survey-text,364,1878881,0.0-19.0-3.4,54624,List2B,black,man,,,,,"{""Q0"":""Beth is hugging Ruth.""}","<img src=""stim_listB/hug7.gif""</stim_listB>",is hugging,
null,"<div style=""font-size:60px;"">+</div>",,html-keyboard-response,365,1879382,0.0-19.0-0.5,54624,List2B,black,man,,,,null,,,,
null,"<img src=""stim_listB/kiss4.gif""</stim_listB>",,html-keyboard-response,366,1881385,0.0-19.0-1.5,54624,List2B,black,man,,,,null,,,,
null,are kissing each other,,html-keyboard-response,367,1883387,0.0-19.0-2.5,54624,List2B,black,man,,,,null,,,,
11288,,,survey-text,368,1894676,0.0-19.0-3.5,54624,List2B,black,man,,,,,"{""Q0"":""Mike and Kate are kissing each other.""}","<img src=""stim_listB/kiss4.gif""</stim_listB>",are kissing each other,
null,"<div style=""font-size:60px;"">+</div>",,html-keyboard-response,369,1895179,0.0-19.0-0.6,54624,List2B,black,man,,,,null,,,,
null,"<img src=""stim_listB/shout7.gif""</stim_listB>",,html-keyboard-response,370,1897182,0.0-19.0-1.6,54624,List2B,black,man,,,,null,,,,
null,is shouting at,,html-keyboard-response,371,1899183,0.0-19.0-2.6,54624,List2B,black,man,,,,null,,,,
17422,,,survey-text,372,1916606,0.0-19.0-3.6,54624,List2B,black,man,,,,,"{""Q0"":""Beth is shouting at Ruth.""}","<img src=""stim_listB/shout7.gif""</stim_listB>",is shouting at,
null,"<div style=""font-size:60px;"">+</div>",,html-keyboard-response,373,1917108,0.0-19.0-0.7,54624,List2B,black,man,,,,null,,,,
null,"<img src=""stim_listB/shout1.gif""</stim_listB>",,html-keyboard-response,374,1919111,0.0-19.0-1.7,54624,List2B,black,man,,,,null,,,,
null,is shouting at,,html-keyboard-response,375,1921113,0.0-19.0-2.7,54624,List2B,black,man,,,,null,,,,
13810,,,survey-text,376,1934925,0.0-19.0-3.7,54624,List2B,black,man,,,,,"{""Q0"":""Ruth is shouting at Luke.""}","<img src=""stim_listB/shout1.gif""</stim_listB>",is shouting at,
null,"<div style=""font-size:60px;"">+</div>",,html-keyboard-response,377,1935427,0.0-19.0-0.8,54624,List2B,black,man,,,,null,,,,
null,"<img src=""stim_listB/hug8.gif""</stim_listB>",,html-keyboard-response,378,1937430,0.0-19.0-1.8,54624,List2B,black,man,,,,null,,,,
null,are hugging each other,,html-keyboard-response,379,1939432,0.0-19.0-2.8,54624,List2B,black,man,,,,null,,,,
19644,,,survey-text,380,1959078,0.0-19.0-3.8,54624,List2B,black,man,,,,,"{""Q0"":""Jane and Kate are hugging each other.""}","<img src=""stim_listB/hug8.gif""</stim_listB>",are hugging each other,
null,"<div style=""font-size:60px;"">+</div>",,html-keyboard-response,381,1959580,0.0-19.0-0.9,54624,List2B,black,man,,,,null,,,,
null,"<img src=""stim_listB/fight2.gif""</stim_listB>",,html-keyboard-response,382,1961581,0.0-19.0-1.9,54624,List2B,black,man,,,,null,,,,
null,are fighting each other,,html-keyboard-response,383,1963583,0.0-19.0-2.9,54624,List2B,black,man,,,,null,,,,
15696,,,survey-text,384,1979281,0.0-19.0-3.9,54624,List2B,black,man,,,,,"{""Q0"":""Luke and Ruth are fighting each other.""}","<img src=""stim_listB/fight2.gif""</stim_listB>",are fighting each other,
null,"<div style=""font-size:60px;"">+</div>",,html-keyboard-response,385,1979785,0.0-19.0-0.10,54624,List2B,black,man,,,,null,,,,
null,"<img src=""stim_listB/talk7.gif""</stim_listB>",,html-keyboard-response,386,1981789,0.0-19.0-1.10,54624,List2B,black,man,,,,null,,,,
null,is talking to,,html-keyboard-response,387,1983790,0.0-19.0-2.10,54624,List2B,black,man,,,,null,,,,
11838,,,survey-text,388,1995630,0.0-19.0-3.10,54624,List2B,black,man,,,,,"{""Q0"":""Kate is talking to Ruth.""}","<img src=""stim_listB/talk7.gif""</stim_listB>",is talking to,
null,"<div style=""font-size:60px;"">+</div>",,html-keyboard-response,389,1996133,0.0-19.0-0.11,54624,List2B,black,man,,,,null,,,,
null,"<img src=""stim_listB/meet5.gif""</stim_listB>",,html-keyboard-response,390,1998136,0.0-19.0-1.11,54624,List2B,black,man,,,,null,,,,
null,is meeting,,html-keyboard-response,391,2000137,0.0-19.0-2.11,54624,List2B,black,man,,,,null,,,,
12976,,,survey-text,392,2013116,0.0-19.0-3.11,54624,List2B,black,man,,,,,"{""Q0"":""Mike is meeting Dave.""}","<img src=""stim_listB/meet5.gif""</stim_listB>",is meeting,
null,"<div style=""font-size:60px;"">+</div>",,html-keyboard-response,393,2013618,0.0-19.0-0.12,54624,List2B,black,man,,,,null,,,,
null,"<img src=""stim_listB/hug1.gif""</stim_listB>",,html-keyboard-response,394,2015621,0.0-19.0-1.12,54624,List2B,black,man,,,,null,,,,
null,is hugging,,html-keyboard-response,395,2017622,0.0-19.0-2.12,54624,List2B,black,man,,,,null,,,,
11405,,,survey-text,396,2029029,0.0-19.0-3.12,54624,List2B,black,man,,,,,"{""Q0"":""Luke is hugging Ruth.""}","<img src=""stim_listB/hug1.gif""</stim_listB>",is hugging,
null,"<div style=""font-size:60px;"">+</div>",,html-keyboard-response,397,2029531,0.0-19.0-0.13,54624,List2B,black,man,,,,null,,,,
null,"<img src=""stim_listB/fight5.gif""</stim_listB>",,html-keyboard-response,398,2031534,0.0-19.0-1.13,54624,List2B,black,man,,,,null,,,,
null,is fighting,,html-keyboard-response,399,2033536,0.0-19.0-2.13,54624,List2B,black,man,,,,null,,,,
8549,,,survey-text,400,2042087,0.0-19.0-3.13,54624,List2B,black,man,,,,,"{""Q0"":""Mike is fighting Dave.""}","<img src=""stim_listB/fight5.gif""</stim_listB>",is fighting,
null,"<div style=""font-size:60px;"">+</div>",,html-keyboard-response,401,2042590,0.0-19.0-0.14,54624,List2B,black,man,,,,null,,,,
null,"<img src=""stim_listB/touch1.gif""</stim_listB>",,html-keyboard-response,402,2044593,0.0-19.0-1.14,54624,List2B,black,man,,,,null,,,,
null,is touching,,html-keyboard-response,403,2046595,0.0-19.0-2.14,54624,List2B,black,man,,,,null,,,,
12313,,,survey-text,404,2058909,0.0-19.0-3.14,54624,List2B,black,man,,,,,"{""Q0"":""Jane is touching Dave.""}","<img src=""stim_listB/touch1.gif""</stim_listB>",is touching,
null,"<div style=""font-size:60px;"">+</div>",,html-keyboard-response,405,2059411,0.0-19.0-0.15,54624,List2B,black,man,,,,null,,,,
null,"<img src=""stim_listB/fight1.gif""</stim_listB>",,html-keyboard-response,406,2061415,0.0-19.0-1.15,54624,List2B,black,man,,,,null,,,,
null,is fighting,,html-keyboard-response,407,2063416,0.0-19.0-2.15,54624,List2B,black,man,,,,null,,,,
9757,,,survey-text,408,2073175,0.0-19.0-3.15,54624,List2B,black,man,,,,,"{""Q0"":""Jane is fighting Dave.""}","<img src=""stim_listB/fight1.gif""</stim_listB>",is fighting,
null,"<div style=""font-size:60px;"">+</div>",,html-keyboard-response,409,2073678,0.0-19.0-0.16,54624,List2B,black,man,,,,null,,,,
null,"<img src=""stim_listB/argue7.gif""</stim_listB>",,html-keyboard-response,410,2075681,0.0-19.0-1.16,54624,List2B,black,man,,,,null,,,,
null,is arguing with,,html-keyboard-response,411,2077683,0.0-19.0-2.16,54624,List2B,black,man,,,,null,,,,
15031,,,survey-text,412,2092716,0.0-19.0-3.16,54624,List2B,black,man,,,,,"{""Q0"":""Jane is arguing with Beth.""}","<img src=""stim_listB/argue7.gif""</stim_listB>",is arguing with,
null,"<div style=""font-size:60px;"">+</div>",,html-keyboard-response,413,2093218,0.0-19.0-0.17,54624,List2B,black,man,,,,null,,,,
null,"<img src=""stim_listB/dance2.gif""</stim_listB>",,html-keyboard-response,414,2095221,0.0-19.0-1.17,54624,List2B,black,man,,,,null,,,,
null,are dancing with each other,,html-keyboard-response,415,2097223,0.0-19.0-2.17,54624,List2B,black,man,,,,null,,,,
18824,,,survey-text,416,2116050,0.0-19.0-3.17,54624,List2B,black,man,,,,,"{""Q0"":""Ruth and Dave are dancing with each other.""}","<img src=""stim_listB/dance2.gif""</stim_listB>",are dancing with each other,
null,"<div style=""font-size:60px;"">+</div>",,html-keyboard-response,417,2116553,0.0-19.0-0.18,54624,List2B,black,man,,,,null,,,,
null,"<img src=""stim_listB/talk5.gif""</stim_listB>",,html-keyboard-response,418,2118555,0.0-19.0-1.18,54624,List2B,black,man,,,,null,,,,
null,is talking to,,html-keyboard-response,419,2120557,0.0-19.0-2.18,54624,List2B,black,man,,,,null,,,,
13005,,,survey-text,420,2133564,0.0-19.0-3.18,54624,List2B,black,man,,,,,"{""Q0"":""Luke is talking to Mike.""}","<img src=""stim_listB/talk5.gif""</stim_listB>",is talking to,
null,"<div style=""font-size:60px;"">+</div>",,html-keyboard-response,421,2134066,0.0-19.0-0.19,54624,List2B,black,man,,,,null,,,,
null,"<img src=""stim_listB/argue1.gif""</stim_listB>",,html-keyboard-response,422,2136069,0.0-19.0-1.19,54624,List2B,black,man,,,,null,,,,
null,is arguing with,,html-keyboard-response,423,2138071,0.0-19.0-2.19,54624,List2B,black,man,,,,null,,,,
12490,,,survey-text,424,2150562,0.0-19.0-3.19,54624,List2B,black,man,,,,,"{""Q0"":""Dave is arguing with Ruth.""}","<img src=""stim_listB/argue1.gif""</stim_listB>",is arguing with,
3201,<p>Thank you for completing that task.</p><p>The final part of this session is a short questionnaire.</p><p>Press Continue.</p>,0,html-button-response,425,2153765,0.0-20.0,54624,List2B,black,man,,,,,,,,
37367,,,survey-text,426,2192137,0.0-21.0,54624,List2B,black,man,,,,,"{""Q0"":""25"",""Q1"":""English"",""Q2"":""English"",""Q3"":""United States"",""Q4"":""African-American"",""Q5"":""Male""}",,,demographics
48446,,,survey-likert,427,2240593,0.0-22.0,54624,List2B,black,man,,,,,"{""Q0"":5,""Q1"":4,""Q2"":4,""Q3"":5,""Q4"":5,""Q5"":5,""Q6"":5,""Q7"":5,""Q8"":5,""Q9"":5,""Q10"":4,""Q11"":4,""Q12"":4,""Q13"":4}",,,likert_race
40156,,,survey-likert,428,2280753,0.0-23.0,54624,List2B,black,man,,,,,"{""Q0"":5,""Q1"":5,""Q2"":5,""Q3"":5,""Q4"":5,""Q5"":5,""Q6"":5,""Q7"":5,""Q8"":5,""Q9"":5,""Q10"":4,""Q11"":4,""Q12"":4,""Q13"":4}",,,likert_gender
12601,,,survey-text,429,2293357,0.0-24.0,54624,List2B,black,man,,,,,"{""Q0"":""ccc""}",,,worker_id
39092,,,external-html,430,2332856,0.0-25.0,54624,List2B,black,man,debrief.html,,,,,,,
