rt,stimulus,button_pressed,trial_type,trial_index,time_elapsed,internal_node_id,subject,list,ppt_race,ppt_gender,url,first_guess,correct,key_press,responses,image_type,phrase_type,test_part
4034,Welcome to the experiment. Press Continue to begin.,0,html-button-response,0,4041,0.0-0.0,55994,List2A,black,woman,,,,,,,,
48289,,,external-html,1,53451,0.0-1.0,55994,List2A,black,woman,consent.html,,,,,,,
13443,"<p>On the next page, you will see portraits of 8 people and their names.</p><p>Your first task is to take a few minutes to memorise the names of these people.</p><p>You will have to recall their names during the rest of the experiment, so it is</p><p>essential that you try to memorise these people and their names as best as you can.</p><br><p><strong>You will then be tested on your memory of these names and portraits.</strong></p><br><p>The experiment will start after you have completed this memory test.</p><br><p>Ready?</p>",0,html-button-response,2,66898,0.0-2.0,55994,List2A,black,woman,,,,,,,,
61336,"<img src='img/portrait_matrix_list2.JPG' style='width:900px;height:500px;''></img><p>If you have memorised all the portraits and names and are ready to start, press Continue.</p><p><strong>Please note: Your memory of these faces will be tested 4 times during this experiment.</strong></p>",0,html-button-response,3,129237,0.0-3.0-0.0,55994,List2A,black,woman,,,,,,,,
4422,"<img src=""portrait/WM1.jpg""style=""width:400px;height:400px;""></img>",6,html-button-response,4,134666,0.0-3.0-1.0,55994,List2A,black,woman,,TRUE,6,,,,,
null,CORRECT,,html-keyboard-response,5,136175,0.0-3.0-2.0-0.0,55994,List2A,black,woman,,,,null,,,,
3850,"<img src=""portrait/BM2.jpg""style=""width:400px;height:400px;""></img>",5,html-button-response,6,140031,0.0-3.0-4.0,55994,List2A,black,woman,,TRUE,5,,,,,
null,CORRECT,,html-keyboard-response,7,141535,0.0-3.0-5.0-0.0,55994,List2A,black,woman,,,,null,,,,
2635,"<img src=""portrait/BM1.jpg""style=""width:400px;height:400px;""></img>",4,html-button-response,8,144174,0.0-3.0-7.0,55994,List2A,black,woman,,TRUE,4,,,,,
null,CORRECT,,html-keyboard-response,9,145678,0.0-3.0-8.0-0.0,55994,List2A,black,woman,,,,null,,,,
6366,"<img src=""portrait/BW2.jpg""style=""width:400px;height:400px;""></img>",2,html-button-response,10,152048,0.0-3.0-10.0,55994,List2A,black,woman,,TRUE,2,,,,,
null,CORRECT,,html-keyboard-response,11,153552,0.0-3.0-11.0-0.0,55994,List2A,black,woman,,,,null,,,,
8543,"<img src=""portrait/WW2.jpg""style=""width:400px;height:400px;""></img>",3,html-button-response,12,162100,0.0-3.0-13.0,55994,List2A,black,woman,,TRUE,3,,,,,
null,CORRECT,,html-keyboard-response,13,163604,0.0-3.0-14.0-0.0,55994,List2A,black,woman,,,,null,,,,
4101,"<img src=""portrait/WW1.jpg""style=""width:400px;height:400px;""></img>",1,html-button-response,14,167710,0.0-3.0-16.0,55994,List2A,black,woman,,TRUE,1,,,,,
null,CORRECT,,html-keyboard-response,15,169214,0.0-3.0-17.0-0.0,55994,List2A,black,woman,,,,null,,,,
5666,"<img src=""portrait/BW1.jpg""style=""width:400px;height:400px;""></img>",0,html-button-response,16,174883,0.0-3.0-19.0,55994,List2A,black,woman,,TRUE,0,,,,,
null,CORRECT,,html-keyboard-response,17,176387,0.0-3.0-20.0-0.0,55994,List2A,black,woman,,,,null,,,,
2744,"<img src=""portrait/WM2.jpg""style=""width:400px;height:400px;""></img>",7,html-button-response,18,179134,0.0-3.0-22.0,55994,List2A,black,woman,,TRUE,7,,,,,
null,CORRECT,,html-keyboard-response,19,180638,0.0-3.0-23.0-0.0,55994,List2A,black,woman,,,,null,,,,
1868,<p>You got 8 out of 8 right first time. Press Continue.</p>,0,html-button-response,20,182509,0.0-3.0-25.0,55994,List2A,black,woman,,,,,,,,
32892,"<p>In this experiment, you will view photographs of the people from the memory game interacting.</p><p>By using the <strong>exact</strong> phrase given <i>after</i> the photograph appears and recalling the correct names of the people in the photographs, form a sentence describing the interaction. You do not need to capitalise names.</p><p>Type your answer in the space provided. Please complete every sentence before moving onto the next trial.</p><p>You will only have a few seconds to memorise each given photograph and phrase before you can respond, so try your best to focus.</p><p>An example is given below. Press 'Continue' when you are ready.</p><img src='img/speaking_example_v2.jpg' style='width:800px;height:460px;''></img>",0,html-button-response,21,216407,0.0-4.0,55994,List2A,black,woman,,,,,,,,
2874,"<p>Before the experiment starts, you will watch two example trials. Press 'Continue'.</p>",0,html-button-response,22,220283,0.0-5.0,55994,List2A,black,woman,,,,,,,,
null,<img src='img/speaking_WW.gif'></img>,,html-keyboard-response,23,223288,0.0-6.0,55994,List2A,black,woman,,,,null,,,,
null,<p>is speaking to</p>,,html-keyboard-response,24,225291,0.0-7.0,55994,List2A,black,woman,,,,null,,,,
2864,<p><b>Answer:</b> jane is speaking to ruth</p>,0,html-button-response,25,228158,0.0-8.0,55994,List2A,black,woman,,,,,,,,
null,<img src='img/pointing_BM.gif'></img>,,html-keyboard-response,26,231165,0.0-9.0,55994,List2A,black,woman,,,,null,,,,
null,<p>are pointing at each other</p>,,html-keyboard-response,27,233169,0.0-10.0,55994,List2A,black,woman,,,,null,,,,
1918,<p><b>Answer:</b> fred and mike are pointing at each other</p>,0,html-button-response,28,235089,0.0-11.0,55994,List2A,black,woman,,,,,,,,
3149,"<p>Ready to start the experiment?</p><br><p><strong>Remember to describe the picture using a full sentence,</strong></p><p><strong> that combines the names of the people with the given phrase.</strong></p><p><strong> You do not need to capitalise names or use punctuation.</strong></p><br><p>Press 'Continue' to begin.</p>",0,html-button-response,29,239243,0.0-12.0,55994,List2A,black,woman,,,,,,,,
null,"<div style=""font-size:60px;"">+</div>",,html-keyboard-response,30,240748,0.0-13.0-0.0,55994,List2A,black,woman,,,,null,,,,
null,"<img src=""stim_listA/hug2.gif""</stim_listA>",,html-keyboard-response,31,242753,0.0-13.0-1.0,55994,List2A,black,woman,,,,null,,,,
null,are hugging each other,,html-keyboard-response,32,244757,0.0-13.0-2.0,55994,List2A,black,woman,,,,null,,,,
13017,,,survey-text,33,257779,0.0-13.0-3.0,55994,List2A,black,woman,,,,,"{""Q0"":""Dave and Jane are hugging each other ""}","<img src=""stim_listA/hug2.gif""</stim_listA>",are hugging each other,
null,"<div style=""font-size:60px;"">+</div>",,html-keyboard-response,34,258283,0.0-13.0-0.1,55994,List2A,black,woman,,,,null,,,,
null,"<img src=""stim_listA/argue7.gif""</stim_listA>",,html-keyboard-response,35,260287,0.0-13.0-1.1,55994,List2A,black,woman,,,,null,,,,
null,is arguing with,,html-keyboard-response,36,262291,0.0-13.0-2.1,55994,List2A,black,woman,,,,null,,,,
16101,,,survey-text,37,278395,0.0-13.0-3.1,55994,List2A,black,woman,,,,,"{""Q0"":""Kate is arguing with jane""}","<img src=""stim_listA/argue7.gif""</stim_listA>",is arguing with,
null,"<div style=""font-size:60px;"">+</div>",,html-keyboard-response,38,278899,0.0-13.0-0.2,55994,List2A,black,woman,,,,null,,,,
null,"<img src=""stim_listA/argue1.gif""</stim_listA>",,html-keyboard-response,39,280903,0.0-13.0-1.2,55994,List2A,black,woman,,,,null,,,,
null,is arguing with,,html-keyboard-response,40,282906,0.0-13.0-2.2,55994,List2A,black,woman,,,,null,,,,
14690,,,survey-text,41,297599,0.0-13.0-3.2,55994,List2A,black,woman,,,,,"{""Q0"":""Dave is arguing with Ruth""}","<img src=""stim_listA/argue1.gif""</stim_listA>",is arguing with,
null,"<div style=""font-size:60px;"">+</div>",,html-keyboard-response,42,298102,0.0-13.0-0.3,55994,List2A,black,woman,,,,null,,,,
null,"<img src=""stim_listA/talk4.gif""</stim_listA>",,html-keyboard-response,43,300107,0.0-13.0-1.3,55994,List2A,black,woman,,,,null,,,,
null,are talking to each other,,html-keyboard-response,44,302111,0.0-13.0-2.3,55994,List2A,black,woman,,,,null,,,,
13811,,,survey-text,45,315925,0.0-13.0-3.3,55994,List2A,black,woman,,,,,"{""Q0"":""Mike and Beth are talking to each other ""}","<img src=""stim_listA/talk4.gif""</stim_listA>",are talking to each other,
null,"<div style=""font-size:60px;"">+</div>",,html-keyboard-response,46,316429,0.0-13.0-0.4,55994,List2A,black,woman,,,,null,,,,
null,"<img src=""stim_listA/talk2.gif""</stim_listA>",,html-keyboard-response,47,318433,0.0-13.0-1.4,55994,List2A,black,woman,,,,null,,,,
null,are talking to each other,,html-keyboard-response,48,320437,0.0-13.0-2.4,55994,List2A,black,woman,,,,null,,,,
25532,,,survey-text,49,345972,0.0-13.0-3.4,55994,List2A,black,woman,,,,,"{""Q0"":""Luke and Jane are talking to each other ""}","<img src=""stim_listA/talk2.gif""</stim_listA>",are talking to each other,
null,"<div style=""font-size:60px;"">+</div>",,html-keyboard-response,50,346476,0.0-13.0-0.5,55994,List2A,black,woman,,,,null,,,,
null,"<img src=""stim_listA/dance4.gif""</stim_listA>",,html-keyboard-response,51,348480,0.0-13.0-1.5,55994,List2A,black,woman,,,,null,,,,
null,are dancing with each other,,html-keyboard-response,52,350484,0.0-13.0-2.5,55994,List2A,black,woman,,,,null,,,,
24309,,,survey-text,53,374796,0.0-13.0-3.5,55994,List2A,black,woman,,,,,"{""Q0"":""Mike and Kate are dancing with each other ""}","<img src=""stim_listA/dance4.gif""</stim_listA>",are dancing with each other,
null,"<div style=""font-size:60px;"">+</div>",,html-keyboard-response,54,375299,0.0-13.0-0.6,55994,List2A,black,woman,,,,null,,,,
null,"<img src=""stim_listA/dance5.gif""</stim_listA>",,html-keyboard-response,55,377303,0.0-13.0-1.6,55994,List2A,black,woman,,,,null,,,,
null,is dancing with,,html-keyboard-response,56,379306,0.0-13.0-2.6,55994,List2A,black,woman,,,,null,,,,
9151,,,survey-text,57,388459,0.0-13.0-3.6,55994,List2A,black,woman,,,,,"{""Q0"":""Luke is dancing with mike ""}","<img src=""stim_listA/dance5.gif""</stim_listA>",is dancing with,
null,"<div style=""font-size:60px;"">+</div>",,html-keyboard-response,58,388963,0.0-13.0-0.7,55994,List2A,black,woman,,,,null,,,,
null,"<img src=""stim_listA/talk8.gif""</stim_listA>",,html-keyboard-response,59,390965,0.0-13.0-1.7,55994,List2A,black,woman,,,,null,,,,
null,are talking to each other,,html-keyboard-response,60,392969,0.0-13.0-2.7,55994,List2A,black,woman,,,,null,,,,
14006,,,survey-text,61,406977,0.0-13.0-3.7,55994,List2A,black,woman,,,,,"{""Q0"":""Kate and Beth are talking to each other ""}","<img src=""stim_listA/talk8.gif""</stim_listA>",are talking to each other,
null,"<div style=""font-size:60px;"">+</div>",,html-keyboard-response,62,407479,0.0-13.0-0.8,55994,List2A,black,woman,,,,null,,,,
null,"<img src=""stim_listA/kiss8.gif""</stim_listA>",,html-keyboard-response,63,409482,0.0-13.0-1.8,55994,List2A,black,woman,,,,null,,,,
null,are kissing each other,,html-keyboard-response,64,411485,0.0-13.0-2.8,55994,List2A,black,woman,,,,null,,,,
9177,,,survey-text,65,420664,0.0-13.0-3.8,55994,List2A,black,woman,,,,,"{""Q0"":""Jane and Kate are kissing ""}","<img src=""stim_listA/kiss8.gif""</stim_listA>",are kissing each other,
null,"<div style=""font-size:60px;"">+</div>",,html-keyboard-response,66,421167,0.0-13.0-0.9,55994,List2A,black,woman,,,,null,,,,
null,"<img src=""stim_listA/argue3.gif""</stim_listA>",,html-keyboard-response,67,423171,0.0-13.0-1.9,55994,List2A,black,woman,,,,null,,,,
null,is arguing with,,html-keyboard-response,68,425175,0.0-13.0-2.9,55994,List2A,black,woman,,,,null,,,,
8047,,,survey-text,69,433229,0.0-13.0-3.9,55994,List2A,black,woman,,,,,"{""Q0"":""Mike is arguing with Beth ""}","<img src=""stim_listA/argue3.gif""</stim_listA>",is arguing with,
null,"<div style=""font-size:60px;"">+</div>",,html-keyboard-response,70,433732,0.0-13.0-0.10,55994,List2A,black,woman,,,,null,,,,
null,"<img src=""stim_listA/shout5.gif""</stim_listA>",,html-keyboard-response,71,435736,0.0-13.0-1.10,55994,List2A,black,woman,,,,null,,,,
null,is shouting at,,html-keyboard-response,72,437739,0.0-13.0-2.10,55994,List2A,black,woman,,,,null,,,,
11571,,,survey-text,73,449312,0.0-13.0-3.10,55994,List2A,black,woman,,,,,"{""Q0"":""Luke is shouting at fred""}","<img src=""stim_listA/shout5.gif""</stim_listA>",is shouting at,
null,"<div style=""font-size:60px;"">+</div>",,html-keyboard-response,74,449817,0.0-13.0-0.11,55994,List2A,black,woman,,,,null,,,,
null,"<img src=""stim_listA/argue4.gif""</stim_listA>",,html-keyboard-response,75,451821,0.0-13.0-1.11,55994,List2A,black,woman,,,,null,,,,
null,are arguing with each other,,html-keyboard-response,76,453824,0.0-13.0-2.11,55994,List2A,black,woman,,,,null,,,,
12598,,,survey-text,77,466424,0.0-13.0-3.11,55994,List2A,black,woman,,,,,"{""Q0"":""Kate and Fred are arguing with each other ""}","<img src=""stim_listA/argue4.gif""</stim_listA>",are arguing with each other,
null,"<div style=""font-size:60px;"">+</div>",,html-keyboard-response,78,466928,0.0-13.0-0.12,55994,List2A,black,woman,,,,null,,,,
null,"<img src=""stim_listA/talk7.gif""</stim_listA>",,html-keyboard-response,79,468932,0.0-13.0-1.12,55994,List2A,black,woman,,,,null,,,,
null,is talking to,,html-keyboard-response,80,470935,0.0-13.0-2.12,55994,List2A,black,woman,,,,null,,,,
7942,,,survey-text,81,478880,0.0-13.0-3.12,55994,List2A,black,woman,,,,,"{""Q0"":""Kate is talking to Ruth ""}","<img src=""stim_listA/talk7.gif""</stim_listA>",is talking to,
null,"<div style=""font-size:60px;"">+</div>",,html-keyboard-response,82,479384,0.0-13.0-0.13,55994,List2A,black,woman,,,,null,,,,
null,"<img src=""stim_listA/touch7.gif""</stim_listA>",,html-keyboard-response,83,481388,0.0-13.0-1.13,55994,List2A,black,woman,,,,null,,,,
null,is touching,,html-keyboard-response,84,483391,0.0-13.0-2.13,55994,List2A,black,woman,,,,null,,,,
8185,,,survey-text,85,491579,0.0-13.0-3.13,55994,List2A,black,woman,,,,,"{""Q0"":""Kate is touching Jane ""}","<img src=""stim_listA/touch7.gif""</stim_listA>",is touching,
null,"<div style=""font-size:60px;"">+</div>",,html-keyboard-response,86,492088,0.0-13.0-0.14,55994,List2A,black,woman,,,,null,,,,
null,"<img src=""stim_listA/dance1.gif""</stim_listA>",,html-keyboard-response,87,494091,0.0-13.0-1.14,55994,List2A,black,woman,,,,null,,,,
null,is dancing with,,html-keyboard-response,88,496094,0.0-13.0-2.14,55994,List2A,black,woman,,,,null,,,,
8829,,,survey-text,89,504926,0.0-13.0-3.14,55994,List2A,black,woman,,,,,"{""Q0"":""Luke is dancing with Jane ""}","<img src=""stim_listA/dance1.gif""</stim_listA>",is dancing with,
null,"<div style=""font-size:60px;"">+</div>",,html-keyboard-response,90,505429,0.0-13.0-0.15,55994,List2A,black,woman,,,,null,,,,
null,"<img src=""stim_listA/meet1.gif""</stim_listA>",,html-keyboard-response,91,507433,0.0-13.0-1.15,55994,List2A,black,woman,,,,null,,,,
null,is meeting,,html-keyboard-response,92,509436,0.0-13.0-2.15,55994,List2A,black,woman,,,,null,,,,
7683,,,survey-text,93,517122,0.0-13.0-3.15,55994,List2A,black,woman,,,,,"{""Q0"":""Dave is meeting Jane ""}","<img src=""stim_listA/meet1.gif""</stim_listA>",is meeting,
null,"<div style=""font-size:60px;"">+</div>",,html-keyboard-response,94,517625,0.0-13.0-0.16,55994,List2A,black,woman,,,,null,,,,
null,"<img src=""stim_listA/talk6.gif""</stim_listA>",,html-keyboard-response,95,519629,0.0-13.0-1.16,55994,List2A,black,woman,,,,null,,,,
null,are talking to each other,,html-keyboard-response,96,521633,0.0-13.0-2.16,55994,List2A,black,woman,,,,null,,,,
10271,,,survey-text,97,531907,0.0-13.0-3.16,55994,List2A,black,woman,,,,,"{""Q0"":""Fred and Dave are talking to each other ""}","<img src=""stim_listA/talk6.gif""</stim_listA>",are talking to each other,
null,"<div style=""font-size:60px;"">+</div>",,html-keyboard-response,98,532409,0.0-13.0-0.17,55994,List2A,black,woman,,,,null,,,,
null,"<img src=""stim_listA/touch6.gif""</stim_listA>",,html-keyboard-response,99,534412,0.0-13.0-1.17,55994,List2A,black,woman,,,,null,,,,
null,are touching each other,,html-keyboard-response,100,536416,0.0-13.0-2.17,55994,List2A,black,woman,,,,null,,,,
11113,,,survey-text,101,547531,0.0-13.0-3.17,55994,List2A,black,woman,,,,,"{""Q0"":""Fred and Luke are touching each other ""}","<img src=""stim_listA/touch6.gif""</stim_listA>",are touching each other,
null,"<div style=""font-size:60px;"">+</div>",,html-keyboard-response,102,548034,0.0-13.0-0.18,55994,List2A,black,woman,,,,null,,,,
null,"<img src=""stim_listA/dance2.gif""</stim_listA>",,html-keyboard-response,103,550037,0.0-13.0-1.18,55994,List2A,black,woman,,,,null,,,,
null,are dancing with each other,,html-keyboard-response,104,552041,0.0-13.0-2.18,55994,List2A,black,woman,,,,null,,,,
19788,,,survey-text,105,571832,0.0-13.0-3.18,55994,List2A,black,woman,,,,,"{""Q0"":""Dave and Ruth are dancing with each other ""}","<img src=""stim_listA/dance2.gif""</stim_listA>",are dancing with each other,
null,"<div style=""font-size:60px;"">+</div>",,html-keyboard-response,106,572334,0.0-13.0-0.19,55994,List2A,black,woman,,,,null,,,,
null,"<img src=""stim_listA/argue2.gif""</stim_listA>",,html-keyboard-response,107,574338,0.0-13.0-1.19,55994,List2A,black,woman,,,,null,,,,
null,are arguing with each other,,html-keyboard-response,108,576341,0.0-13.0-2.19,55994,List2A,black,woman,,,,null,,,,
10838,,,survey-text,109,587182,0.0-13.0-3.19,55994,List2A,black,woman,,,,,"{""Q0"":""Jane and Luke are arguing with each other ""}","<img src=""stim_listA/argue2.gif""</stim_listA>",are arguing with each other,
11331,"<img src='img/portrait_matrix_list2.JPG' style='width:900px;height:500px;''></img><p>If you have memorised all the portraits and names and are ready to start, press Continue.</p><p><strong>Please note: Your memory of these faces will be tested 4 times during this experiment.</strong></p>",0,html-button-response,110,598527,0.0-14.0-0.0,55994,List2A,black,woman,,,,,,,,
2902,"<img src=""portrait/BM2.jpg""style=""width:400px;height:400px;""></img>",5,html-button-response,111,602439,0.0-14.0-1.0,55994,List2A,black,woman,,TRUE,5,,,,,
null,CORRECT,,html-keyboard-response,112,603949,0.0-14.0-2.0-0.0,55994,List2A,black,woman,,,,null,,,,
4595,"<img src=""portrait/WW1.jpg""style=""width:400px;height:400px;""></img>",1,html-button-response,113,608552,0.0-14.0-4.0,55994,List2A,black,woman,,TRUE,1,,,,,
null,CORRECT,,html-keyboard-response,114,610056,0.0-14.0-5.0-0.0,55994,List2A,black,woman,,,,null,,,,
2191,"<img src=""portrait/BM1.jpg""style=""width:400px;height:400px;""></img>",4,html-button-response,115,612256,0.0-14.0-7.0,55994,List2A,black,woman,,TRUE,4,,,,,
null,CORRECT,,html-keyboard-response,116,613760,0.0-14.0-8.0-0.0,55994,List2A,black,woman,,,,null,,,,
2228,"<img src=""portrait/WW2.jpg""style=""width:400px;height:400px;""></img>",3,html-button-response,117,615996,0.0-14.0-10.0,55994,List2A,black,woman,,TRUE,3,,,,,
null,CORRECT,,html-keyboard-response,118,617501,0.0-14.0-11.0-0.0,55994,List2A,black,woman,,,,null,,,,
1959,"<img src=""portrait/WM2.jpg""style=""width:400px;height:400px;""></img>",7,html-button-response,119,619467,0.0-14.0-13.0,55994,List2A,black,woman,,TRUE,7,,,,,
null,CORRECT,,html-keyboard-response,120,620972,0.0-14.0-14.0-0.0,55994,List2A,black,woman,,,,null,,,,
3590,"<img src=""portrait/WM1.jpg""style=""width:400px;height:400px;""></img>",6,html-button-response,121,624567,0.0-14.0-16.0,55994,List2A,black,woman,,TRUE,6,,,,,
null,CORRECT,,html-keyboard-response,122,626071,0.0-14.0-17.0-0.0,55994,List2A,black,woman,,,,null,,,,
2819,"<img src=""portrait/BW2.jpg""style=""width:400px;height:400px;""></img>",2,html-button-response,123,628898,0.0-14.0-19.0,55994,List2A,black,woman,,TRUE,2,,,,,
null,CORRECT,,html-keyboard-response,124,630402,0.0-14.0-20.0-0.0,55994,List2A,black,woman,,,,null,,,,
3192,"<img src=""portrait/BW1.jpg""style=""width:400px;height:400px;""></img>",0,html-button-response,125,633601,0.0-14.0-22.0,55994,List2A,black,woman,,TRUE,0,,,,,
null,CORRECT,,html-keyboard-response,126,635105,0.0-14.0-23.0-0.0,55994,List2A,black,woman,,,,null,,,,
1381,<p>You got 8 out of 8 right first time. Press Continue.</p>,0,html-button-response,127,636490,0.0-14.0-25.0,55994,List2A,black,woman,,,,,,,,
null,"<div style=""font-size:60px;"">+</div>",,html-keyboard-response,128,637998,0.0-15.0-0.0,55994,List2A,black,woman,,,,null,,,,
null,"<img src=""stim_listA/kiss6.gif""</stim_listA>",,html-keyboard-response,129,640002,0.0-15.0-1.0,55994,List2A,black,woman,,,,null,,,,
null,are kissing each other,,html-keyboard-response,130,642005,0.0-15.0-2.0,55994,List2A,black,woman,,,,null,,,,
10673,,,survey-text,131,652681,0.0-15.0-3.0,55994,List2A,black,woman,,,,,"{""Q0"":""Dave and mike are kissing each other ""}","<img src=""stim_listA/kiss6.gif""</stim_listA>",are kissing each other,
null,"<div style=""font-size:60px;"">+</div>",,html-keyboard-response,132,653185,0.0-15.0-0.1,55994,List2A,black,woman,,,,null,,,,
null,"<img src=""stim_listA/dance7.gif""</stim_listA>",,html-keyboard-response,133,655189,0.0-15.0-1.1,55994,List2A,black,woman,,,,null,,,,
null,is dancing with,,html-keyboard-response,134,657192,0.0-15.0-2.1,55994,List2A,black,woman,,,,null,,,,
10456,,,survey-text,135,667650,0.0-15.0-3.1,55994,List2A,black,woman,,,,,"{""Q0"":""Kate is dancing with Ruth ""}","<img src=""stim_listA/dance7.gif""</stim_listA>",is dancing with,
null,"<div style=""font-size:60px;"">+</div>",,html-keyboard-response,136,668154,0.0-15.0-0.2,55994,List2A,black,woman,,,,null,,,,
null,"<img src=""stim_listA/marry6.gif""</stim_listA>",,html-keyboard-response,137,670157,0.0-15.0-1.2,55994,List2A,black,woman,,,,null,,,,
null,are marrying each other,,html-keyboard-response,138,672159,0.0-15.0-2.2,55994,List2A,black,woman,,,,null,,,,
10633,,,survey-text,139,682795,0.0-15.0-3.2,55994,List2A,black,woman,,,,,"{""Q0"":""Mike and Luke are marrying each other ""}","<img src=""stim_listA/marry6.gif""</stim_listA>",are marrying each other,
null,"<div style=""font-size:60px;"">+</div>",,html-keyboard-response,140,683298,0.0-15.0-0.3,55994,List2A,black,woman,,,,null,,,,
null,"<img src=""stim_listA/fight5.gif""</stim_listA>",,html-keyboard-response,141,685302,0.0-15.0-1.3,55994,List2A,black,woman,,,,null,,,,
null,is fighting,,html-keyboard-response,142,687305,0.0-15.0-2.3,55994,List2A,black,woman,,,,null,,,,
7101,,,survey-text,143,694409,0.0-15.0-3.3,55994,List2A,black,woman,,,,,"{""Q0"":""Dave is fighting mike ""}","<img src=""stim_listA/fight5.gif""</stim_listA>",is fighting,
null,"<div style=""font-size:60px;"">+</div>",,html-keyboard-response,144,694912,0.0-15.0-0.4,55994,List2A,black,woman,,,,null,,,,
null,"<img src=""stim_listA/meet6.gif""</stim_listA>",,html-keyboard-response,145,696916,0.0-15.0-1.4,55994,List2A,black,woman,,,,null,,,,
null,are meeting each other,,html-keyboard-response,146,698919,0.0-15.0-2.4,55994,List2A,black,woman,,,,null,,,,
10634,,,survey-text,147,709557,0.0-15.0-3.4,55994,List2A,black,woman,,,,,"{""Q0"":""Fred and Luke are meeting each other ""}","<img src=""stim_listA/meet6.gif""</stim_listA>",are meeting each other,
null,"<div style=""font-size:60px;"">+</div>",,html-keyboard-response,148,710059,0.0-15.0-0.5,55994,List2A,black,woman,,,,null,,,,
null,"<img src=""stim_listA/shout8.gif""</stim_listA>",,html-keyboard-response,149,712063,0.0-15.0-1.5,55994,List2A,black,woman,,,,null,,,,
null,are shouting at each other,,html-keyboard-response,150,714066,0.0-15.0-2.5,55994,List2A,black,woman,,,,null,,,,
13501,,,survey-text,151,727569,0.0-15.0-3.5,55994,List2A,black,woman,,,,,"{""Q0"":""Kate and Jane are shouting at each other ""}","<img src=""stim_listA/shout8.gif""</stim_listA>",are shouting at each other,
null,"<div style=""font-size:60px;"">+</div>",,html-keyboard-response,152,728071,0.0-15.0-0.6,55994,List2A,black,woman,,,,null,,,,
null,"<img src=""stim_listA/argue8.gif""</stim_listA>",,html-keyboard-response,153,730076,0.0-15.0-1.6,55994,List2A,black,woman,,,,null,,,,
null,are arguing with each other,,html-keyboard-response,154,732078,0.0-15.0-2.6,55994,List2A,black,woman,,,,null,,,,
12153,,,survey-text,155,744235,0.0-15.0-3.6,55994,List2A,black,woman,,,,,"{""Q0"":""Kate and Ruth are arguing with each other ""}","<img src=""stim_listA/argue8.gif""</stim_listA>",are arguing with each other,
null,"<div style=""font-size:60px;"">+</div>",,html-keyboard-response,156,744739,0.0-15.0-0.7,55994,List2A,black,woman,,,,null,,,,
null,"<img src=""stim_listA/argue6.gif""</stim_listA>",,html-keyboard-response,157,746743,0.0-15.0-1.7,55994,List2A,black,woman,,,,null,,,,
null,are arguing with each other,,html-keyboard-response,158,748746,0.0-15.0-2.7,55994,List2A,black,woman,,,,null,,,,
10685,,,survey-text,159,759433,0.0-15.0-3.7,55994,List2A,black,woman,,,,,"{""Q0"":""Mike and Luke are arguing with each other ""}","<img src=""stim_listA/argue6.gif""</stim_listA>",are arguing with each other,
null,"<div style=""font-size:60px;"">+</div>",,html-keyboard-response,160,759936,0.0-15.0-0.8,55994,List2A,black,woman,,,,null,,,,
null,"<img src=""stim_listA/hug7.gif""</stim_listA>",,html-keyboard-response,161,761940,0.0-15.0-1.8,55994,List2A,black,woman,,,,null,,,,
null,is hugging,,html-keyboard-response,162,763943,0.0-15.0-2.8,55994,List2A,black,woman,,,,null,,,,
7140,,,survey-text,163,771087,0.0-15.0-3.8,55994,List2A,black,woman,,,,,"{""Q0"":""Beth is hugging Ruth ""}","<img src=""stim_listA/hug7.gif""</stim_listA>",is hugging,
null,"<div style=""font-size:60px;"">+</div>",,html-keyboard-response,164,771591,0.0-15.0-0.9,55994,List2A,black,woman,,,,null,,,,
null,"<img src=""stim_listA/touch8.gif""</stim_listA>",,html-keyboard-response,165,773594,0.0-15.0-1.9,55994,List2A,black,woman,,,,null,,,,
null,are touching each other,,html-keyboard-response,166,775598,0.0-15.0-2.9,55994,List2A,black,woman,,,,null,,,,
11682,,,survey-text,167,787283,0.0-15.0-3.9,55994,List2A,black,woman,,,,,"{""Q0"":""Beth and Ruth are touching each other ""}","<img src=""stim_listA/touch8.gif""</stim_listA>",are touching each other,
null,"<div style=""font-size:60px;"">+</div>",,html-keyboard-response,168,787786,0.0-15.0-0.10,55994,List2A,black,woman,,,,null,,,,
null,"<img src=""stim_listA/meet2.gif""</stim_listA>",,html-keyboard-response,169,789790,0.0-15.0-1.10,55994,List2A,black,woman,,,,null,,,,
null,are meeting each other,,html-keyboard-response,170,791792,0.0-15.0-2.10,55994,List2A,black,woman,,,,null,,,,
13461,,,survey-text,171,805255,0.0-15.0-3.10,55994,List2A,black,woman,,,,,"{""Q0"":""Luke and Ruth are meeting each other ""}","<img src=""stim_listA/meet2.gif""</stim_listA>",are meeting each other,
null,"<div style=""font-size:60px;"">+</div>",,html-keyboard-response,172,805759,0.0-15.0-0.11,55994,List2A,black,woman,,,,null,,,,
null,"<img src=""stim_listA/touch2.gif""</stim_listA>",,html-keyboard-response,173,807762,0.0-15.0-1.11,55994,List2A,black,woman,,,,null,,,,
null,are touching each other,,html-keyboard-response,174,809765,0.0-15.0-2.11,55994,List2A,black,woman,,,,null,,,,
10345,,,survey-text,175,820113,0.0-15.0-3.11,55994,List2A,black,woman,,,,,"{""Q0"":""Ruth and Luke are touching each other ""}","<img src=""stim_listA/touch2.gif""</stim_listA>",are touching each other,
null,"<div style=""font-size:60px;"">+</div>",,html-keyboard-response,176,820617,0.0-15.0-0.12,55994,List2A,black,woman,,,,null,,,,
null,"<img src=""stim_listA/meet4.gif""</stim_listA>",,html-keyboard-response,177,822620,0.0-15.0-1.12,55994,List2A,black,woman,,,,null,,,,
null,are meeting each other,,html-keyboard-response,178,824623,0.0-15.0-2.12,55994,List2A,black,woman,,,,null,,,,
12083,,,survey-text,179,836708,0.0-15.0-3.12,55994,List2A,black,woman,,,,,"{""Q0"":""Fred and Beth are meeting each other ""}","<img src=""stim_listA/meet4.gif""</stim_listA>",are meeting each other,
null,"<div style=""font-size:60px;"">+</div>",,html-keyboard-response,180,837211,0.0-15.0-0.13,55994,List2A,black,woman,,,,null,,,,
null,"<img src=""stim_listA/kiss5.gif""</stim_listA>",,html-keyboard-response,181,839214,0.0-15.0-1.13,55994,List2A,black,woman,,,,null,,,,
null,is kissing,,html-keyboard-response,182,841218,0.0-15.0-2.13,55994,List2A,black,woman,,,,null,,,,
6992,,,survey-text,183,848212,0.0-15.0-3.13,55994,List2A,black,woman,,,,,"{""Q0"":""Fred is kissing Luke ""}","<img src=""stim_listA/kiss5.gif""</stim_listA>",is kissing,
null,"<div style=""font-size:60px;"">+</div>",,html-keyboard-response,184,848715,0.0-15.0-0.14,55994,List2A,black,woman,,,,null,,,,
null,"<img src=""stim_listA/hug4.gif""</stim_listA>",,html-keyboard-response,185,850717,0.0-15.0-1.14,55994,List2A,black,woman,,,,null,,,,
null,are hugging each other,,html-keyboard-response,186,852721,0.0-15.0-2.14,55994,List2A,black,woman,,,,null,,,,
10620,,,survey-text,187,863344,0.0-15.0-3.14,55994,List2A,black,woman,,,,,"{""Q0"":""Kate and mike are hugging each other ""}","<img src=""stim_listA/hug4.gif""</stim_listA>",are hugging each other,
null,"<div style=""font-size:60px;"">+</div>",,html-keyboard-response,188,863847,0.0-15.0-0.15,55994,List2A,black,woman,,,,null,,,,
null,"<img src=""stim_listA/meet3.gif""</stim_listA>",,html-keyboard-response,189,865851,0.0-15.0-1.15,55994,List2A,black,woman,,,,null,,,,
null,is meeting,,html-keyboard-response,190,867854,0.0-15.0-2.15,55994,List2A,black,woman,,,,null,,,,
6613,,,survey-text,191,874470,0.0-15.0-3.15,55994,List2A,black,woman,,,,,"{""Q0"":""Mike is meeting Kate ""}","<img src=""stim_listA/meet3.gif""</stim_listA>",is meeting,
null,"<div style=""font-size:60px;"">+</div>",,html-keyboard-response,192,874973,0.0-15.0-0.16,55994,List2A,black,woman,,,,null,,,,
null,"<img src=""stim_listA/fight8.gif""</stim_listA>",,html-keyboard-response,193,876977,0.0-15.0-1.16,55994,List2A,black,woman,,,,null,,,,
null,are fighting each other,,html-keyboard-response,194,878980,0.0-15.0-2.16,55994,List2A,black,woman,,,,null,,,,
11936,,,survey-text,195,890918,0.0-15.0-3.16,55994,List2A,black,woman,,,,,"{""Q0"":""Beth and Ruth are fighting each other ""}","<img src=""stim_listA/fight8.gif""</stim_listA>",are fighting each other,
null,"<div style=""font-size:60px;"">+</div>",,html-keyboard-response,196,891421,0.0-15.0-0.17,55994,List2A,black,woman,,,,null,,,,
null,"<img src=""stim_listA/argue5.gif""</stim_listA>",,html-keyboard-response,197,893425,0.0-15.0-1.17,55994,List2A,black,woman,,,,null,,,,
null,is arguing with,,html-keyboard-response,198,895428,0.0-15.0-2.17,55994,List2A,black,woman,,,,null,,,,
11242,,,survey-text,199,906673,0.0-15.0-3.17,55994,List2A,black,woman,,,,,"{""Q0"":""Dave is arguing with Fred ""}","<img src=""stim_listA/argue5.gif""</stim_listA>",is arguing with,
null,"<div style=""font-size:60px;"">+</div>",,html-keyboard-response,200,907177,0.0-15.0-0.18,55994,List2A,black,woman,,,,null,,,,
null,"<img src=""stim_listA/shout7.gif""</stim_listA>",,html-keyboard-response,201,909180,0.0-15.0-1.18,55994,List2A,black,woman,,,,null,,,,
null,is shouting at,,html-keyboard-response,202,911183,0.0-15.0-2.18,55994,List2A,black,woman,,,,null,,,,
11208,,,survey-text,203,922393,0.0-15.0-3.18,55994,List2A,black,woman,,,,,"{""Q0"":""Beth is shouting at Ruth ""}","<img src=""stim_listA/shout7.gif""</stim_listA>",is shouting at,
null,"<div style=""font-size:60px;"">+</div>",,html-keyboard-response,204,922897,0.0-15.0-0.19,55994,List2A,black,woman,,,,null,,,,
null,"<img src=""stim_listA/marry2.gif""</stim_listA>",,html-keyboard-response,205,924901,0.0-15.0-1.19,55994,List2A,black,woman,,,,null,,,,
null,are marrying each other,,html-keyboard-response,206,926904,0.0-15.0-2.19,55994,List2A,black,woman,,,,null,,,,
13820,,,survey-text,207,940726,0.0-15.0-3.19,55994,List2A,black,woman,,,,,"{""Q0"":""Jane and Luke are marrying each other""}","<img src=""stim_listA/marry2.gif""</stim_listA>",are marrying each other,
6969,"<img src='img/portrait_matrix_list2.JPG' style='width:900px;height:500px;''></img><p>If you have memorised all the portraits and names and are ready to start, press Continue.</p><p><strong>Please note: Your memory of these faces will be tested 4 times during this experiment.</strong></p>",0,html-button-response,208,947699,0.0-16.0-0.0,55994,List2A,black,woman,,,,,,,,
2244,"<img src=""portrait/WW1.jpg""style=""width:400px;height:400px;""></img>",1,html-button-response,209,950949,0.0-16.0-1.0,55994,List2A,black,woman,,TRUE,1,,,,,
null,CORRECT,,html-keyboard-response,210,952453,0.0-16.0-2.0-0.0,55994,List2A,black,woman,,,,null,,,,
2246,"<img src=""portrait/BM2.jpg""style=""width:400px;height:400px;""></img>",5,html-button-response,211,954702,0.0-16.0-4.0,55994,List2A,black,woman,,TRUE,5,,,,,
null,CORRECT,,html-keyboard-response,212,956206,0.0-16.0-5.0-0.0,55994,List2A,black,woman,,,,null,,,,
2251,"<img src=""portrait/WW2.jpg""style=""width:400px;height:400px;""></img>",3,html-button-response,213,958461,0.0-16.0-7.0,55994,List2A,black,woman,,TRUE,3,,,,,
null,CORRECT,,html-keyboard-response,214,959965,0.0-16.0-8.0-0.0,55994,List2A,black,woman,,,,null,,,,
1781,"<img src=""portrait/BW1.jpg""style=""width:400px;height:400px;""></img>",0,html-button-response,215,961748,0.0-16.0-10.0,55994,List2A,black,woman,,TRUE,0,,,,,
null,CORRECT,,html-keyboard-response,216,963251,0.0-16.0-11.0-0.0,55994,List2A,black,woman,,,,null,,,,
3504,"<img src=""portrait/BM1.jpg""style=""width:400px;height:400px;""></img>",4,html-button-response,217,966760,0.0-16.0-13.0,55994,List2A,black,woman,,TRUE,4,,,,,
null,CORRECT,,html-keyboard-response,218,968263,0.0-16.0-14.0-0.0,55994,List2A,black,woman,,,,null,,,,
1723,"<img src=""portrait/WM2.jpg""style=""width:400px;height:400px;""></img>",7,html-button-response,219,969990,0.0-16.0-16.0,55994,List2A,black,woman,,TRUE,7,,,,,
null,CORRECT,,html-keyboard-response,220,971493,0.0-16.0-17.0-0.0,55994,List2A,black,woman,,,,null,,,,
2148,"<img src=""portrait/WM1.jpg""style=""width:400px;height:400px;""></img>",6,html-button-response,221,973645,0.0-16.0-19.0,55994,List2A,black,woman,,TRUE,6,,,,,
null,CORRECT,,html-keyboard-response,222,975149,0.0-16.0-20.0-0.0,55994,List2A,black,woman,,,,null,,,,
1892,"<img src=""portrait/BW2.jpg""style=""width:400px;height:400px;""></img>",2,html-button-response,223,977044,0.0-16.0-22.0,55994,List2A,black,woman,,TRUE,2,,,,,
null,CORRECT,,html-keyboard-response,224,978548,0.0-16.0-23.0-0.0,55994,List2A,black,woman,,,,null,,,,
1421,<p>You got 8 out of 8 right first time. Press Continue.</p>,0,html-button-response,225,979973,0.0-16.0-25.0,55994,List2A,black,woman,,,,,,,,
null,"<div style=""font-size:60px;"">+</div>",,html-keyboard-response,226,981479,0.0-17.0-0.0,55994,List2A,black,woman,,,,null,,,,
null,"<img src=""stim_listA/fight7.gif""</stim_listA>",,html-keyboard-response,227,983482,0.0-17.0-1.0,55994,List2A,black,woman,,,,null,,,,
null,is fighting,,html-keyboard-response,228,985486,0.0-17.0-2.0,55994,List2A,black,woman,,,,null,,,,
8506,,,survey-text,229,993993,0.0-17.0-3.0,55994,List2A,black,woman,,,,,"{""Q0"":""Jane is fighting Kate ""}","<img src=""stim_listA/fight7.gif""</stim_listA>",is fighting,
null,"<div style=""font-size:60px;"">+</div>",,html-keyboard-response,230,994497,0.0-17.0-0.1,55994,List2A,black,woman,,,,null,,,,
null,"<img src=""stim_listA/touch1.gif""</stim_listA>",,html-keyboard-response,231,996501,0.0-17.0-1.1,55994,List2A,black,woman,,,,null,,,,
null,is touching,,html-keyboard-response,232,998505,0.0-17.0-2.1,55994,List2A,black,woman,,,,null,,,,
7109,,,survey-text,233,1005616,0.0-17.0-3.1,55994,List2A,black,woman,,,,,"{""Q0"":""Dave is touching Jane ""}","<img src=""stim_listA/touch1.gif""</stim_listA>",is touching,
null,"<div style=""font-size:60px;"">+</div>",,html-keyboard-response,234,1006119,0.0-17.0-0.2,55994,List2A,black,woman,,,,null,,,,
null,"<img src=""stim_listA/dance8.gif""</stim_listA>",,html-keyboard-response,235,1008124,0.0-17.0-1.2,55994,List2A,black,woman,,,,null,,,,
null,are dancing with each other,,html-keyboard-response,236,1010127,0.0-17.0-2.2,55994,List2A,black,woman,,,,null,,,,
14453,,,survey-text,237,1024583,0.0-17.0-3.2,55994,List2A,black,woman,,,,,"{""Q0"":""Beth and Jane are dancing with each other ""}","<img src=""stim_listA/dance8.gif""</stim_listA>",are dancing with each other,
null,"<div style=""font-size:60px;"">+</div>",,html-keyboard-response,238,1025086,0.0-17.0-0.3,55994,List2A,black,woman,,,,null,,,,
null,"<img src=""stim_listA/meet5.gif""</stim_listA>",,html-keyboard-response,239,1027090,0.0-17.0-1.3,55994,List2A,black,woman,,,,null,,,,
null,is meeting,,html-keyboard-response,240,1029093,0.0-17.0-2.3,55994,List2A,black,woman,,,,null,,,,
9287,,,survey-text,241,1038382,0.0-17.0-3.3,55994,List2A,black,woman,,,,,"{""Q0"":""Dave is meeting mike ""}","<img src=""stim_listA/meet5.gif""</stim_listA>",is meeting,
null,"<div style=""font-size:60px;"">+</div>",,html-keyboard-response,242,1038884,0.0-17.0-0.4,55994,List2A,black,woman,,,,null,,,,
null,"<img src=""stim_listA/kiss3.gif""</stim_listA>",,html-keyboard-response,243,1040889,0.0-17.0-1.4,55994,List2A,black,woman,,,,null,,,,
null,is kissing,,html-keyboard-response,244,1042891,0.0-17.0-2.4,55994,List2A,black,woman,,,,null,,,,
9774,,,survey-text,245,1052667,0.0-17.0-3.4,55994,List2A,black,woman,,,,,"{""Q0"":""Beth is kisssing Fred ""}","<img src=""stim_listA/kiss3.gif""</stim_listA>",is kissing,
null,"<div style=""font-size:60px;"">+</div>",,html-keyboard-response,246,1053171,0.0-17.0-0.5,55994,List2A,black,woman,,,,null,,,,
null,"<img src=""stim_listA/shout6.gif""</stim_listA>",,html-keyboard-response,247,1055175,0.0-17.0-1.5,55994,List2A,black,woman,,,,null,,,,
null,are shouting at each other,,html-keyboard-response,248,1057178,0.0-17.0-2.5,55994,List2A,black,woman,,,,null,,,,
11401,,,survey-text,249,1068583,0.0-17.0-3.5,55994,List2A,black,woman,,,,,"{""Q0"":""Mike and Dave are shouting at each other ""}","<img src=""stim_listA/shout6.gif""</stim_listA>",are shouting at each other,
null,"<div style=""font-size:60px;"">+</div>",,html-keyboard-response,250,1069086,0.0-17.0-0.6,55994,List2A,black,woman,,,,null,,,,
null,"<img src=""stim_listA/marry8.gif""</stim_listA>",,html-keyboard-response,251,1071090,0.0-17.0-1.6,55994,List2A,black,woman,,,,null,,,,
null,are marrying each other,,html-keyboard-response,252,1073093,0.0-17.0-2.6,55994,List2A,black,woman,,,,null,,,,
10809,,,survey-text,253,1083904,0.0-17.0-3.6,55994,List2A,black,woman,,,,,"{""Q0"":""Kate and Ruth are marrying each other ""}","<img src=""stim_listA/marry8.gif""</stim_listA>",are marrying each other,
null,"<div style=""font-size:60px;"">+</div>",,html-keyboard-response,254,1084407,0.0-17.0-0.7,55994,List2A,black,woman,,,,null,,,,
null,"<img src=""stim_listA/shout1.gif""</stim_listA>",,html-keyboard-response,255,1086410,0.0-17.0-1.7,55994,List2A,black,woman,,,,null,,,,
null,is shouting at,,html-keyboard-response,256,1088413,0.0-17.0-2.7,55994,List2A,black,woman,,,,null,,,,
7913,,,survey-text,257,1096328,0.0-17.0-3.7,55994,List2A,black,woman,,,,,"{""Q0"":""Luke is shouting at Ruth ""}","<img src=""stim_listA/shout1.gif""</stim_listA>",is shouting at,
null,"<div style=""font-size:60px;"">+</div>",,html-keyboard-response,258,1096830,0.0-17.0-0.8,55994,List2A,black,woman,,,,null,,,,
null,"<img src=""stim_listA/marry3.gif""</stim_listA>",,html-keyboard-response,259,1098834,0.0-17.0-1.8,55994,List2A,black,woman,,,,null,,,,
null,is marrying,,html-keyboard-response,260,1100837,0.0-17.0-2.8,55994,List2A,black,woman,,,,null,,,,
9352,,,survey-text,261,1110192,0.0-17.0-3.8,55994,List2A,black,woman,,,,,"{""Q0"":""Mike is marrying beth""}","<img src=""stim_listA/marry3.gif""</stim_listA>",is marrying,
null,"<div style=""font-size:60px;"">+</div>",,html-keyboard-response,262,1110695,0.0-17.0-0.9,55994,List2A,black,woman,,,,null,,,,
null,"<img src=""stim_listA/talk5.gif""</stim_listA>",,html-keyboard-response,263,1112698,0.0-17.0-1.9,55994,List2A,black,woman,,,,null,,,,
null,is talking to,,html-keyboard-response,264,1114701,0.0-17.0-2.9,55994,List2A,black,woman,,,,null,,,,
11507,,,survey-text,265,1126210,0.0-17.0-3.9,55994,List2A,black,woman,,,,,"{""Q0"":""Luke is talking to mike ""}","<img src=""stim_listA/talk5.gif""</stim_listA>",is talking to,
null,"<div style=""font-size:60px;"">+</div>",,html-keyboard-response,266,1126714,0.0-17.0-0.10,55994,List2A,black,woman,,,,null,,,,
null,"<img src=""stim_listA/dance3.gif""</stim_listA>",,html-keyboard-response,267,1128718,0.0-17.0-1.10,55994,List2A,black,woman,,,,null,,,,
null,is dancing with,,html-keyboard-response,268,1130721,0.0-17.0-2.10,55994,List2A,black,woman,,,,null,,,,
9519,,,survey-text,269,1140241,0.0-17.0-3.10,55994,List2A,black,woman,,,,,"{""Q0"":""Fred is dancing with Kate ""}","<img src=""stim_listA/dance3.gif""</stim_listA>",is dancing with,
null,"<div style=""font-size:60px;"">+</div>",,html-keyboard-response,270,1140744,0.0-17.0-0.11,55994,List2A,black,woman,,,,null,,,,
null,"<img src=""stim_listA/touch5.gif""</stim_listA>",,html-keyboard-response,271,1142748,0.0-17.0-1.11,55994,List2A,black,woman,,,,null,,,,
null,is touching,,html-keyboard-response,272,1144751,0.0-17.0-2.11,55994,List2A,black,woman,,,,null,,,,
7874,,,survey-text,273,1152628,0.0-17.0-3.11,55994,List2A,black,woman,,,,,"{""Q0"":""Dave is touching mike ""}","<img src=""stim_listA/touch5.gif""</stim_listA>",is touching,
null,"<div style=""font-size:60px;"">+</div>",,html-keyboard-response,274,1153131,0.0-17.0-0.12,55994,List2A,black,woman,,,,null,,,,
null,"<img src=""stim_listA/meet7.gif""</stim_listA>",,html-keyboard-response,275,1155134,0.0-17.0-1.12,55994,List2A,black,woman,,,,null,,,,
null,is meeting,,html-keyboard-response,276,1157137,0.0-17.0-2.12,55994,List2A,black,woman,,,,null,,,,
10842,,,survey-text,277,1167981,0.0-17.0-3.12,55994,List2A,black,woman,,,,,"{""Q0"":""Jane is meeting Kate ""}","<img src=""stim_listA/meet7.gif""</stim_listA>",is meeting,
null,"<div style=""font-size:60px;"">+</div>",,html-keyboard-response,278,1168484,0.0-17.0-0.13,55994,List2A,black,woman,,,,null,,,,
null,"<img src=""stim_listA/talk3.gif""</stim_listA>",,html-keyboard-response,279,1170488,0.0-17.0-1.13,55994,List2A,black,woman,,,,null,,,,
null,is talking to,,html-keyboard-response,280,1172491,0.0-17.0-2.13,55994,List2A,black,woman,,,,null,,,,
9221,,,survey-text,281,1181715,0.0-17.0-3.13,55994,List2A,black,woman,,,,,"{""Q0"":""Fred is talking to Kate ""}","<img src=""stim_listA/talk3.gif""</stim_listA>",is talking to,
null,"<div style=""font-size:60px;"">+</div>",,html-keyboard-response,282,1182219,0.0-17.0-0.14,55994,List2A,black,woman,,,,null,,,,
null,"<img src=""stim_listA/fight1.gif""</stim_listA>",,html-keyboard-response,283,1184222,0.0-17.0-1.14,55994,List2A,black,woman,,,,null,,,,
null,is fighting,,html-keyboard-response,284,1186225,0.0-17.0-2.14,55994,List2A,black,woman,,,,null,,,,
8299,,,survey-text,285,1194526,0.0-17.0-3.14,55994,List2A,black,woman,,,,,"{""Q0"":""Dave is fighting Jane ""}","<img src=""stim_listA/fight1.gif""</stim_listA>",is fighting,
null,"<div style=""font-size:60px;"">+</div>",,html-keyboard-response,286,1195030,0.0-17.0-0.15,55994,List2A,black,woman,,,,null,,,,
null,"<img src=""stim_listA/touch4.gif""</stim_listA>",,html-keyboard-response,287,1197034,0.0-17.0-1.15,55994,List2A,black,woman,,,,null,,,,
null,are touching each other,,html-keyboard-response,288,1199037,0.0-17.0-2.15,55994,List2A,black,woman,,,,null,,,,
11238,,,survey-text,289,1210277,0.0-17.0-3.15,55994,List2A,black,woman,,,,,"{""Q0"":""Beth and Fred are touching each other ""}","<img src=""stim_listA/touch4.gif""</stim_listA>",are touching each other,
null,"<div style=""font-size:60px;"">+</div>",,html-keyboard-response,290,1210781,0.0-17.0-0.16,55994,List2A,black,woman,,,,null,,,,
null,"<img src=""stim_listA/marry7.gif""</stim_listA>",,html-keyboard-response,291,1212785,0.0-17.0-1.16,55994,List2A,black,woman,,,,null,,,,
null,is marrying,,html-keyboard-response,292,1214788,0.0-17.0-2.16,55994,List2A,black,woman,,,,null,,,,
9738,,,survey-text,293,1224529,0.0-17.0-3.16,55994,List2A,black,woman,,,,,"{""Q0"":""Jane is marrying Beth ""}","<img src=""stim_listA/marry7.gif""</stim_listA>",is marrying,
null,"<div style=""font-size:60px;"">+</div>",,html-keyboard-response,294,1225032,0.0-17.0-0.17,55994,List2A,black,woman,,,,null,,,,
null,"<img src=""stim_listA/marry4.gif""</stim_listA>",,html-keyboard-response,295,1227036,0.0-17.0-1.17,55994,List2A,black,woman,,,,null,,,,
null,are marrying each other,,html-keyboard-response,296,1229039,0.0-17.0-2.17,55994,List2A,black,woman,,,,null,,,,
10218,,,survey-text,297,1239258,0.0-17.0-3.17,55994,List2A,black,woman,,,,,"{""Q0"":""Kate and Fred are marrying each other ""}","<img src=""stim_listA/marry4.gif""</stim_listA>",are marrying each other,
null,"<div style=""font-size:60px;"">+</div>",,html-keyboard-response,298,1239762,0.0-17.0-0.18,55994,List2A,black,woman,,,,null,,,,
null,"<img src=""stim_listA/kiss2.gif""</stim_listA>",,html-keyboard-response,299,1241765,0.0-17.0-1.18,55994,List2A,black,woman,,,,null,,,,
null,are kissing each other,,html-keyboard-response,300,1243768,0.0-17.0-2.18,55994,List2A,black,woman,,,,null,,,,
11101,,,survey-text,301,1254872,0.0-17.0-3.18,55994,List2A,black,woman,,,,,"{""Q0"":""Dave and Jane are kissing each other ""}","<img src=""stim_listA/kiss2.gif""</stim_listA>",are kissing each other,
null,"<div style=""font-size:60px;"">+</div>",,html-keyboard-response,302,1255374,0.0-17.0-0.19,55994,List2A,black,woman,,,,null,,,,
null,"<img src=""stim_listA/shout2.gif""</stim_listA>",,html-keyboard-response,303,1257378,0.0-17.0-1.19,55994,List2A,black,woman,,,,null,,,,
null,are shouting at each other,,html-keyboard-response,304,1259381,0.0-17.0-2.19,55994,List2A,black,woman,,,,null,,,,
11303,,,survey-text,305,1270686,0.0-17.0-3.19,55994,List2A,black,woman,,,,,"{""Q0"":""Jane and Dave are shouting at each other ""}","<img src=""stim_listA/shout2.gif""</stim_listA>",are shouting at each other,
1921,"<img src='img/portrait_matrix_list2.JPG' style='width:900px;height:500px;''></img><p>If you have memorised all the portraits and names and are ready to start, press Continue.</p><p><strong>Please note: Your memory of these faces will be tested 4 times during this experiment.</strong></p>",0,html-button-response,306,1272611,0.0-18.0-0.0,55994,List2A,black,woman,,,,,,,,
2025,"<img src=""portrait/BW1.jpg""style=""width:400px;height:400px;""></img>",0,html-button-response,307,1275640,0.0-18.0-1.0,55994,List2A,black,woman,,TRUE,0,,,,,
null,CORRECT,,html-keyboard-response,308,1277144,0.0-18.0-2.0-0.0,55994,List2A,black,woman,,,,null,,,,
2021,"<img src=""portrait/BW2.jpg""style=""width:400px;height:400px;""></img>",2,html-button-response,309,1279169,0.0-18.0-4.0,55994,List2A,black,woman,,TRUE,2,,,,,
null,CORRECT,,html-keyboard-response,310,1280673,0.0-18.0-5.0-0.0,55994,List2A,black,woman,,,,null,,,,
1838,"<img src=""portrait/BM1.jpg""style=""width:400px;height:400px;""></img>",4,html-button-response,311,1282514,0.0-18.0-7.0,55994,List2A,black,woman,,TRUE,4,,,,,
null,CORRECT,,html-keyboard-response,312,1284018,0.0-18.0-8.0-0.0,55994,List2A,black,woman,,,,null,,,,
1894,"<img src=""portrait/WM1.jpg""style=""width:400px;height:400px;""></img>",6,html-button-response,313,1285915,0.0-18.0-10.0,55994,List2A,black,woman,,TRUE,6,,,,,
null,CORRECT,,html-keyboard-response,314,1287419,0.0-18.0-11.0-0.0,55994,List2A,black,woman,,,,null,,,,
2097,"<img src=""portrait/BM2.jpg""style=""width:400px;height:400px;""></img>",5,html-button-response,315,1289519,0.0-18.0-13.0,55994,List2A,black,woman,,TRUE,5,,,,,
null,CORRECT,,html-keyboard-response,316,1291023,0.0-18.0-14.0-0.0,55994,List2A,black,woman,,,,null,,,,
1712,"<img src=""portrait/WW2.jpg""style=""width:400px;height:400px;""></img>",3,html-button-response,317,1292740,0.0-18.0-16.0,55994,List2A,black,woman,,TRUE,3,,,,,
null,CORRECT,,html-keyboard-response,318,1294244,0.0-18.0-17.0-0.0,55994,List2A,black,woman,,,,null,,,,
2174,"<img src=""portrait/WW1.jpg""style=""width:400px;height:400px;""></img>",1,html-button-response,319,1296420,0.0-18.0-19.0,55994,List2A,black,woman,,TRUE,1,,,,,
null,CORRECT,,html-keyboard-response,320,1297924,0.0-18.0-20.0-0.0,55994,List2A,black,woman,,,,null,,,,
1761,"<img src=""portrait/WM2.jpg""style=""width:400px;height:400px;""></img>",7,html-button-response,321,1299689,0.0-18.0-22.0,55994,List2A,black,woman,,TRUE,7,,,,,
null,CORRECT,,html-keyboard-response,322,1301193,0.0-18.0-23.0-0.0,55994,List2A,black,woman,,,,null,,,,
1394,<p>You got 8 out of 8 right first time. Press Continue.</p>,0,html-button-response,323,1302590,0.0-18.0-25.0,55994,List2A,black,woman,,,,,,,,
null,"<div style=""font-size:60px;"">+</div>",,html-keyboard-response,324,1304096,0.0-19.0-0.0,55994,List2A,black,woman,,,,null,,,,
null,"<img src=""stim_listA/hug6.gif""</stim_listA>",,html-keyboard-response,325,1306100,0.0-19.0-1.0,55994,List2A,black,woman,,,,null,,,,
null,are hugging each other,,html-keyboard-response,326,1308103,0.0-19.0-2.0,55994,List2A,black,woman,,,,null,,,,
11845,,,survey-text,327,1319951,0.0-19.0-3.0,55994,List2A,black,woman,,,,,"{""Q0"":""Mike and Dave are hugging each other ""}","<img src=""stim_listA/hug6.gif""</stim_listA>",are hugging each other,
null,"<div style=""font-size:60px;"">+</div>",,html-keyboard-response,328,1320453,0.0-19.0-0.1,55994,List2A,black,woman,,,,null,,,,
null,"<img src=""stim_listA/kiss4.gif""</stim_listA>",,html-keyboard-response,329,1322457,0.0-19.0-1.1,55994,List2A,black,woman,,,,null,,,,
null,are kissing each other,,html-keyboard-response,330,1324459,0.0-19.0-2.1,55994,List2A,black,woman,,,,null,,,,
9479,,,survey-text,331,1333941,0.0-19.0-3.1,55994,List2A,black,woman,,,,,"{""Q0"":""Kate and mike are kissing each other ""}","<img src=""stim_listA/kiss4.gif""</stim_listA>",are kissing each other,
null,"<div style=""font-size:60px;"">+</div>",,html-keyboard-response,332,1334444,0.0-19.0-0.2,55994,List2A,black,woman,,,,null,,,,
null,"<img src=""stim_listA/hug1.gif""</stim_listA>",,html-keyboard-response,333,1336448,0.0-19.0-1.2,55994,List2A,black,woman,,,,null,,,,
null,is hugging,,html-keyboard-response,334,1338451,0.0-19.0-2.2,55994,List2A,black,woman,,,,null,,,,
9242,,,survey-text,335,1347699,0.0-19.0-3.2,55994,List2A,black,woman,,,,,"{""Q0"":""Ruth is hugging Luke ""}","<img src=""stim_listA/hug1.gif""</stim_listA>",is hugging,
null,"<div style=""font-size:60px;"">+</div>",,html-keyboard-response,336,1348201,0.0-19.0-0.3,55994,List2A,black,woman,,,,null,,,,
null,"<img src=""stim_listA/marry5.gif""</stim_listA>",,html-keyboard-response,337,1350205,0.0-19.0-1.3,55994,List2A,black,woman,,,,null,,,,
null,is marrying,,html-keyboard-response,338,1352208,0.0-19.0-2.3,55994,List2A,black,woman,,,,null,,,,
7574,,,survey-text,339,1359785,0.0-19.0-3.3,55994,List2A,black,woman,,,,,"{""Q0"":""Dave is marrying Fred ""}","<img src=""stim_listA/marry5.gif""</stim_listA>",is marrying,
null,"<div style=""font-size:60px;"">+</div>",,html-keyboard-response,340,1360289,0.0-19.0-0.4,55994,List2A,black,woman,,,,null,,,,
null,"<img src=""stim_listA/shout3.gif""</stim_listA>",,html-keyboard-response,341,1362292,0.0-19.0-1.4,55994,List2A,black,woman,,,,null,,,,
null,is shouting at,,html-keyboard-response,342,1364294,0.0-19.0-2.4,55994,List2A,black,woman,,,,null,,,,
37695,,,survey-text,343,1401993,0.0-19.0-3.4,55994,List2A,black,woman,,,,,"{""Q0"":""Jane and Fred are fighting ""}","<img src=""stim_listA/shout3.gif""</stim_listA>",is shouting at,
null,"<div style=""font-size:60px;"">+</div>",,html-keyboard-response,344,1402496,0.0-19.0-0.5,55994,List2A,black,woman,,,,null,,,,
null,"<img src=""stim_listA/fight6.gif""</stim_listA>",,html-keyboard-response,345,1404506,0.0-19.0-1.5,55994,List2A,black,woman,,,,null,,,,
null,are fighting each other,,html-keyboard-response,346,1406509,0.0-19.0-2.5,55994,List2A,black,woman,,,,null,,,,
11775,,,survey-text,347,1418289,0.0-19.0-3.5,55994,List2A,black,woman,,,,,"{""Q0"":""Luke and Fred are fighting each other ""}","<img src=""stim_listA/fight6.gif""</stim_listA>",are fighting each other,
null,"<div style=""font-size:60px;"">+</div>",,html-keyboard-response,348,1418791,0.0-19.0-0.6,55994,List2A,black,woman,,,,null,,,,
null,"<img src=""stim_listA/hug8.gif""</stim_listA>",,html-keyboard-response,349,1420795,0.0-19.0-1.6,55994,List2A,black,woman,,,,null,,,,
null,are hugging each other,,html-keyboard-response,350,1422798,0.0-19.0-2.6,55994,List2A,black,woman,,,,null,,,,
9143,,,survey-text,351,1431944,0.0-19.0-3.6,55994,List2A,black,woman,,,,,"{""Q0"":""Jane and Kate are hugging each other ""}","<img src=""stim_listA/hug8.gif""</stim_listA>",are hugging each other,
null,"<div style=""font-size:60px;"">+</div>",,html-keyboard-response,352,1432448,0.0-19.0-0.7,55994,List2A,black,woman,,,,null,,,,
null,"<img src=""stim_listA/shout4.gif""</stim_listA>",,html-keyboard-response,353,1434451,0.0-19.0-1.7,55994,List2A,black,woman,,,,null,,,,
null,are shouting at each other,,html-keyboard-response,354,1436455,0.0-19.0-2.7,55994,List2A,black,woman,,,,null,,,,
10504,,,survey-text,355,1446961,0.0-19.0-3.7,55994,List2A,black,woman,,,,,"{""Q0"":""Mike and Kate are shouting at each other ""}","<img src=""stim_listA/shout4.gif""</stim_listA>",are shouting at each other,
null,"<div style=""font-size:60px;"">+</div>",,html-keyboard-response,356,1447464,0.0-19.0-0.8,55994,List2A,black,woman,,,,null,,,,
null,"<img src=""stim_listA/meet8.gif""</stim_listA>",,html-keyboard-response,357,1449467,0.0-19.0-1.8,55994,List2A,black,woman,,,,null,,,,
null,are meeting each other,,html-keyboard-response,358,1451470,0.0-19.0-2.8,55994,List2A,black,woman,,,,null,,,,
10121,,,survey-text,359,1461594,0.0-19.0-3.8,55994,List2A,black,woman,,,,,"{""Q0"":""Beth and Ruth are meeting each other ""}","<img src=""stim_listA/meet8.gif""</stim_listA>",are meeting each other,
null,"<div style=""font-size:60px;"">+</div>",,html-keyboard-response,360,1462098,0.0-19.0-0.9,55994,List2A,black,woman,,,,null,,,,
null,"<img src=""stim_listA/fight3.gif""</stim_listA>",,html-keyboard-response,361,1464101,0.0-19.0-1.9,55994,List2A,black,woman,,,,null,,,,
null,is fighting,,html-keyboard-response,362,1466105,0.0-19.0-2.9,55994,List2A,black,woman,,,,null,,,,
7978,,,survey-text,363,1474085,0.0-19.0-3.9,55994,List2A,black,woman,,,,,"{""Q0"":""Mike is fighting Kate ""}","<img src=""stim_listA/fight3.gif""</stim_listA>",is fighting,
null,"<div style=""font-size:60px;"">+</div>",,html-keyboard-response,364,1474587,0.0-19.0-0.10,55994,List2A,black,woman,,,,null,,,,
null,"<img src=""stim_listA/talk1.gif""</stim_listA>",,html-keyboard-response,365,1476592,0.0-19.0-1.10,55994,List2A,black,woman,,,,null,,,,
null,is talking to,,html-keyboard-response,366,1478596,0.0-19.0-2.10,55994,List2A,black,woman,,,,null,,,,
7154,,,survey-text,367,1485753,0.0-19.0-3.10,55994,List2A,black,woman,,,,,"{""Q0"":""Luke is talking to Jane ""}","<img src=""stim_listA/talk1.gif""</stim_listA>",is talking to,
null,"<div style=""font-size:60px;"">+</div>",,html-keyboard-response,368,1486256,0.0-19.0-0.11,55994,List2A,black,woman,,,,null,,,,
null,"<img src=""stim_listA/kiss1.gif""</stim_listA>",,html-keyboard-response,369,1488260,0.0-19.0-1.11,55994,List2A,black,woman,,,,null,,,,
null,is kissing,,html-keyboard-response,370,1490263,0.0-19.0-2.11,55994,List2A,black,woman,,,,null,,,,
14049,,,survey-text,371,1504315,0.0-19.0-3.11,55994,List2A,black,woman,,,,,"{""Q0"":""Luke is kissing Ruth ""}","<img src=""stim_listA/kiss1.gif""</stim_listA>",is kissing,
null,"<div style=""font-size:60px;"">+</div>",,html-keyboard-response,372,1504819,0.0-19.0-0.12,55994,List2A,black,woman,,,,null,,,,
null,"<img src=""stim_listA/hug5.gif""</stim_listA>",,html-keyboard-response,373,1506823,0.0-19.0-1.12,55994,List2A,black,woman,,,,null,,,,
null,is hugging,,html-keyboard-response,374,1508826,0.0-19.0-2.12,55994,List2A,black,woman,,,,null,,,,
7694,,,survey-text,375,1516522,0.0-19.0-3.12,55994,List2A,black,woman,,,,,"{""Q0"":""Fred is hugging Luke ""}","<img src=""stim_listA/hug5.gif""</stim_listA>",is hugging,
null,"<div style=""font-size:60px;"">+</div>",,html-keyboard-response,376,1517027,0.0-19.0-0.13,55994,List2A,black,woman,,,,null,,,,
null,"<img src=""stim_listA/fight2.gif""</stim_listA>",,html-keyboard-response,377,1519032,0.0-19.0-1.13,55994,List2A,black,woman,,,,null,,,,
null,are fighting each other,,html-keyboard-response,378,1521034,0.0-19.0-2.13,55994,List2A,black,woman,,,,null,,,,
9361,,,survey-text,379,1530398,0.0-19.0-3.13,55994,List2A,black,woman,,,,,"{""Q0"":""Ruth and Luke are fighting each other ""}","<img src=""stim_listA/fight2.gif""</stim_listA>",are fighting each other,
null,"<div style=""font-size:60px;"">+</div>",,html-keyboard-response,380,1530901,0.0-19.0-0.14,55994,List2A,black,woman,,,,null,,,,
null,"<img src=""stim_listA/marry1.gif""</stim_listA>",,html-keyboard-response,381,1532904,0.0-19.0-1.14,55994,List2A,black,woman,,,,null,,,,
null,is marrying,,html-keyboard-response,382,1534907,0.0-19.0-2.14,55994,List2A,black,woman,,,,null,,,,
6001,,,survey-text,383,1540911,0.0-19.0-3.14,55994,List2A,black,woman,,,,,"{""Q0"":""Dave is marrying Ruth ""}","<img src=""stim_listA/marry1.gif""</stim_listA>",is marrying,
null,"<div style=""font-size:60px;"">+</div>",,html-keyboard-response,384,1541413,0.0-19.0-0.15,55994,List2A,black,woman,,,,null,,,,
null,"<img src=""stim_listA/kiss7.gif""</stim_listA>",,html-keyboard-response,385,1543417,0.0-19.0-1.15,55994,List2A,black,woman,,,,null,,,,
null,is kissing,,html-keyboard-response,386,1545421,0.0-19.0-2.15,55994,List2A,black,woman,,,,null,,,,
6028,,,survey-text,387,1551451,0.0-19.0-3.15,55994,List2A,black,woman,,,,,"{""Q0"":""Beth is kissing Ruth ""}","<img src=""stim_listA/kiss7.gif""</stim_listA>",is kissing,
null,"<div style=""font-size:60px;"">+</div>",,html-keyboard-response,388,1551953,0.0-19.0-0.16,55994,List2A,black,woman,,,,null,,,,
null,"<img src=""stim_listA/dance6.gif""</stim_listA>",,html-keyboard-response,389,1553956,0.0-19.0-1.16,55994,List2A,black,woman,,,,null,,,,
null,are dancing with each other,,html-keyboard-response,390,1555958,0.0-19.0-2.16,55994,List2A,black,woman,,,,null,,,,
9654,,,survey-text,391,1565615,0.0-19.0-3.16,55994,List2A,black,woman,,,,,"{""Q0"":""Fred and Dave are dancing with each other ""}","<img src=""stim_listA/dance6.gif""</stim_listA>",are dancing with each other,
null,"<div style=""font-size:60px;"">+</div>",,html-keyboard-response,392,1566119,0.0-19.0-0.17,55994,List2A,black,woman,,,,null,,,,
null,"<img src=""stim_listA/hug3.gif""</stim_listA>",,html-keyboard-response,393,1568123,0.0-19.0-1.17,55994,List2A,black,woman,,,,null,,,,
null,is hugging,,html-keyboard-response,394,1570126,0.0-19.0-2.17,55994,List2A,black,woman,,,,null,,,,
6715,,,survey-text,395,1576844,0.0-19.0-3.17,55994,List2A,black,woman,,,,,"{""Q0"":""Fred is hugging Beth ""}","<img src=""stim_listA/hug3.gif""</stim_listA>",is hugging,
null,"<div style=""font-size:60px;"">+</div>",,html-keyboard-response,396,1577347,0.0-19.0-0.18,55994,List2A,black,woman,,,,null,,,,
null,"<img src=""stim_listA/touch3.gif""</stim_listA>",,html-keyboard-response,397,1579351,0.0-19.0-1.18,55994,List2A,black,woman,,,,null,,,,
null,is touching,,html-keyboard-response,398,1581354,0.0-19.0-2.18,55994,List2A,black,woman,,,,null,,,,
5421,,,survey-text,399,1586776,0.0-19.0-3.18,55994,List2A,black,woman,,,,,"{""Q0"":""Mike is touching Kate ""}","<img src=""stim_listA/touch3.gif""</stim_listA>",is touching,
null,"<div style=""font-size:60px;"">+</div>",,html-keyboard-response,400,1587279,0.0-19.0-0.19,55994,List2A,black,woman,,,,null,,,,
null,"<img src=""stim_listA/fight4.gif""</stim_listA>",,html-keyboard-response,401,1589283,0.0-19.0-1.19,55994,List2A,black,woman,,,,null,,,,
null,are fighting each other,,html-keyboard-response,402,1591286,0.0-19.0-2.19,55994,List2A,black,woman,,,,null,,,,
11339,,,survey-text,403,1602627,0.0-19.0-3.19,55994,List2A,black,woman,,,,,"{""Q0"":""Fred and Kate are fighting each other ""}","<img src=""stim_listA/fight4.gif""</stim_listA>",are fighting each other,
2245,<p>Thank you for completing that task.</p><p>The final part of this session is a short questionnaire.</p><p>Press Continue.</p>,0,html-button-response,404,1604878,0.0-20.0,55994,List2A,black,woman,,,,,,,,
61741,,,survey-text,405,1667629,0.0-21.0,55994,List2A,black,woman,,,,,"{""Q0"":""28"",""Q1"":""Somali"",""Q2"":""English "",""Q3"":""England "",""Q4"":""Black African "",""Q5"":""Female ""}",,,demographics
2196725,,,survey-likert,406,3864382,0.0-22.0,55994,List2A,black,woman,,,,,"{""Q0"":6,""Q1"":6,""Q2"":6,""Q3"":6,""Q4"":6,""Q5"":4,""Q6"":5,""Q7"":3,""Q8"":5,""Q9"":5,""Q10"":4,""Q11"":3,""Q12"":5,""Q13"":3}",,,likert_race
32321,,,survey-likert,407,3896721,0.0-23.0,55994,List2A,black,woman,,,,,"{""Q0"":"""",""Q1"":"""",""Q2"":"""",""Q3"":"""",""Q4"":"""",""Q5"":"""",""Q6"":"""",""Q7"":3,""Q8"":5,""Q9"":5,""Q10"":3,""Q11"":2,""Q12"":2,""Q13"":1}",,,likert_gender
42389,,,survey-text,408,3939119,0.0-24.0,55994,List2A,black,woman,,,,,"{""Q0"":""ccc""}",,,worker_id
4359,,,external-html,409,3943814,0.0-25.0,55994,List2A,black,woman,debrief.html,,,,,,,
