rt,stimulus,button_pressed,trial_type,trial_index,time_elapsed,internal_node_id,subject,list,ppt_race,ppt_gender,url,first_guess,correct,key_press,responses,image_type,phrase_type,test_part
379018,Welcome to the experiment. Press Continue to begin.,0,html-button-response,0,379096,0.0-0.0,56077,List2B,black,man,,,,,,,,
8511,,,external-html,1,389635,0.0-1.0,56077,List2B,black,man,consent.html,,,,,,,
39284,"<p>On the next page, you will see portraits of 8 people and their names.</p><p>Your first task is to take a few minutes to memorise the names of these people.</p><p>You will have to recall their names during the rest of the experiment, so it is</p><p>essential that you try to memorise these people and their names as best as you can.</p><br><p><strong>You will then be tested on your memory of these names and portraits.</strong></p><br><p>The experiment will start after you have completed this memory test.</p><br><p>Ready?</p>",0,html-button-response,2,428922,0.0-2.0,56077,List2B,black,man,,,,,,,,
20716,"<img src='img/portrait_matrix_list2.JPG' style='width:900px;height:500px;''></img><p>If you have memorised all the portraits and names and are ready to start, press Continue.</p><p><strong>Please note: Your memory of these faces will be tested 4 times during this experiment.</strong></p>",0,html-button-response,3,450644,0.0-3.0-0.0,56077,List2B,black,man,,,,,,,,
5333,"<img src=""portrait/BM2.jpg""style=""width:400px;height:400px;""></img>",5,html-button-response,4,456991,0.0-3.0-1.0,56077,List2B,black,man,,TRUE,5,,,,,
null,CORRECT,,html-keyboard-response,5,458525,0.0-3.0-2.0-0.0,56077,List2B,black,man,,,,null,,,,
4024,"<img src=""portrait/WW1.jpg""style=""width:400px;height:400px;""></img>",1,html-button-response,6,462553,0.0-3.0-4.0,56077,List2B,black,man,,TRUE,1,,,,,
null,CORRECT,,html-keyboard-response,7,464064,0.0-3.0-5.0-0.0,56077,List2B,black,man,,,,null,,,,
3990,"<img src=""portrait/WW2.jpg""style=""width:400px;height:400px;""></img>",3,html-button-response,8,468058,0.0-3.0-7.0,56077,List2B,black,man,,TRUE,3,,,,,
null,CORRECT,,html-keyboard-response,9,469588,0.0-3.0-8.0-0.0,56077,List2B,black,man,,,,null,,,,
5570,"<img src=""portrait/WM1.jpg""style=""width:400px;height:400px;""></img>",6,html-button-response,10,475162,0.0-3.0-10.0,56077,List2B,black,man,,TRUE,6,,,,,
null,CORRECT,,html-keyboard-response,11,476675,0.0-3.0-11.0-0.0,56077,List2B,black,man,,,,null,,,,
6107,"<img src=""portrait/WM2.jpg""style=""width:400px;height:400px;""></img>",7,html-button-response,12,482786,0.0-3.0-13.0,56077,List2B,black,man,,TRUE,7,,,,,
null,CORRECT,,html-keyboard-response,13,484294,0.0-3.0-14.0-0.0,56077,List2B,black,man,,,,null,,,,
3391,"<img src=""portrait/BW1.jpg""style=""width:400px;height:400px;""></img>",0,html-button-response,14,487689,0.0-3.0-16.0,56077,List2B,black,man,,TRUE,0,,,,,
null,CORRECT,,html-keyboard-response,15,489199,0.0-3.0-17.0-0.0,56077,List2B,black,man,,,,null,,,,
4396,"<img src=""portrait/BW2.jpg""style=""width:400px;height:400px;""></img>",2,html-button-response,16,493598,0.0-3.0-19.0,56077,List2B,black,man,,TRUE,2,,,,,
null,CORRECT,,html-keyboard-response,17,495132,0.0-3.0-20.0-0.0,56077,List2B,black,man,,,,null,,,,
6076,"<img src=""portrait/BM1.jpg""style=""width:400px;height:400px;""></img>",4,html-button-response,18,501211,0.0-3.0-22.0,56077,List2B,black,man,,TRUE,4,,,,,
null,CORRECT,,html-keyboard-response,19,502722,0.0-3.0-23.0-0.0,56077,List2B,black,man,,,,null,,,,
1710,<p>You got 8 out of 8 right first time. Press Continue.</p>,0,html-button-response,20,504436,0.0-3.0-25.0,56077,List2B,black,man,,,,,,,,
64091,"<p>In this experiment, you will view photographs of the people from the memory game interacting.</p><p>By using the <strong>exact</strong> phrase given <i>after</i> the photograph appears and recalling the correct names of the people in the photographs, form a sentence describing the interaction. You do not need to capitalise names.</p><p>Type your answer in the space provided. Please complete every sentence before moving onto the next trial.</p><p>You will only have a few seconds to memorise each given photograph and phrase before you can respond, so try your best to focus.</p><p>An example is given below. Press 'Continue' when you are ready.</p><img src='img/speaking_example_v2.jpg' style='width:800px;height:460px;''></img>",0,html-button-response,21,569545,0.0-4.0,56077,List2B,black,man,,,,,,,,
1674,"<p>Before the experiment starts, you will watch two example trials. Press 'Continue'.</p>",0,html-button-response,22,572221,0.0-5.0,56077,List2B,black,man,,,,,,,,
null,<img src='img/speaking_WW.gif'></img>,,html-keyboard-response,23,575251,0.0-6.0,56077,List2B,black,man,,,,null,,,,
null,<p>is speaking to</p>,,html-keyboard-response,24,577261,0.0-7.0,56077,List2B,black,man,,,,null,,,,
4485,<p><b>Answer:</b> jane is speaking to ruth</p>,0,html-button-response,25,581748,0.0-8.0,56077,List2B,black,man,,,,,,,,
null,<img src='img/pointing_BM.gif'></img>,,html-keyboard-response,26,584754,0.0-9.0,56077,List2B,black,man,,,,null,,,,
null,<p>are pointing at each other</p>,,html-keyboard-response,27,586759,0.0-10.0,56077,List2B,black,man,,,,null,,,,
2536,<p><b>Answer:</b> fred and mike are pointing at each other</p>,0,html-button-response,28,589297,0.0-11.0,56077,List2B,black,man,,,,,,,,
19368,"<p>Ready to start the experiment?</p><br><p><strong>Remember to describe the picture using a full sentence,</strong></p><p><strong>that combines the names of the people with the given phrase.</strong></p><p><strong>If you do not do this correctly you will not be paid.</strong></p><p><strong> You do not need to capitalise names or use punctuation.</strong></p><br><p>Press 'Continue' to begin.</p>",0,html-button-response,29,609680,0.0-12.0,56077,List2B,black,man,,,,,,,,
null,"<div style=""font-size:60px;"">+</div>",,html-keyboard-response,30,611187,0.0-13.0-0.0,56077,List2B,black,man,,,,null,,,,
null,"<img src=""stim_listB/marry6.gif""</stim_listB>",,html-keyboard-response,31,613192,0.0-13.0-1.0,56077,List2B,black,man,,,,null,,,,
null,are marrying each other,,html-keyboard-response,32,615205,0.0-13.0-2.0,56077,List2B,black,man,,,,null,,,,
32992,,,survey-text,33,648200,0.0-13.0-3.0,56077,List2B,black,man,,,,,"{""Q0"":""Luke and Mike are marrying each other.""}","<img src=""stim_listB/marry6.gif""</stim_listB>",are marrying each other,
null,"<div style=""font-size:60px;"">+</div>",,html-keyboard-response,34,648719,0.0-13.0-0.1,56077,List2B,black,man,,,,null,,,,
null,"<img src=""stim_listB/shout2.gif""</stim_listB>",,html-keyboard-response,35,650722,0.0-13.0-1.1,56077,List2B,black,man,,,,null,,,,
null,are shouting at each other,,html-keyboard-response,36,652725,0.0-13.0-2.1,56077,List2B,black,man,,,,null,,,,
29721,,,survey-text,37,682448,0.0-13.0-3.1,56077,List2B,black,man,,,,,"{""Q0"":""Dave and Beth are shouting at each other.""}","<img src=""stim_listB/shout2.gif""</stim_listB>",are shouting at each other,
null,"<div style=""font-size:60px;"">+</div>",,html-keyboard-response,38,682962,0.0-13.0-0.2,56077,List2B,black,man,,,,null,,,,
null,"<img src=""stim_listB/dance2.gif""</stim_listB>",,html-keyboard-response,39,684981,0.0-13.0-1.2,56077,List2B,black,man,,,,null,,,,
null,are dancing with each other,,html-keyboard-response,40,687001,0.0-13.0-2.2,56077,List2B,black,man,,,,null,,,,
24504,,,survey-text,41,711507,0.0-13.0-3.2,56077,List2B,black,man,,,,,"{""Q0"":""Ruth and Dave are dancing together.""}","<img src=""stim_listB/dance2.gif""</stim_listB>",are dancing with each other,
null,"<div style=""font-size:60px;"">+</div>",,html-keyboard-response,42,712011,0.0-13.0-0.3,56077,List2B,black,man,,,,null,,,,
null,"<img src=""stim_listB/meet8.gif""</stim_listB>",,html-keyboard-response,43,714016,0.0-13.0-1.3,56077,List2B,black,man,,,,null,,,,
null,are meeting each other,,html-keyboard-response,44,716023,0.0-13.0-2.3,56077,List2B,black,man,,,,null,,,,
14418,,,survey-text,45,730443,0.0-13.0-3.3,56077,List2B,black,man,,,,,"{""Q0"":""Beth and Ruth are meeting each other.""}","<img src=""stim_listB/meet8.gif""</stim_listB>",are meeting each other,
null,"<div style=""font-size:60px;"">+</div>",,html-keyboard-response,46,730951,0.0-13.0-0.4,56077,List2B,black,man,,,,null,,,,
null,"<img src=""stim_listB/argue4.gif""</stim_listB>",,html-keyboard-response,47,732964,0.0-13.0-1.4,56077,List2B,black,man,,,,null,,,,
null,are arguing with each other,,html-keyboard-response,48,734976,0.0-13.0-2.4,56077,List2B,black,man,,,,null,,,,
18798,,,survey-text,49,753776,0.0-13.0-3.4,56077,List2B,black,man,,,,,"{""Q0"":""Fred and Kate are arguing with each other.""}","<img src=""stim_listB/argue4.gif""</stim_listB>",are arguing with each other,
null,"<div style=""font-size:60px;"">+</div>",,html-keyboard-response,50,754294,0.0-13.0-0.5,56077,List2B,black,man,,,,null,,,,
null,"<img src=""stim_listB/talk3.gif""</stim_listB>",,html-keyboard-response,51,756313,0.0-13.0-1.5,56077,List2B,black,man,,,,null,,,,
null,is talking to,,html-keyboard-response,52,758316,0.0-13.0-2.5,56077,List2B,black,man,,,,null,,,,
8471,,,survey-text,53,766789,0.0-13.0-3.5,56077,List2B,black,man,,,,,"{""Q0"":""Fred is talking to Kate.""}","<img src=""stim_listB/talk3.gif""</stim_listB>",is talking to,
null,"<div style=""font-size:60px;"">+</div>",,html-keyboard-response,54,767291,0.0-13.0-0.6,56077,List2B,black,man,,,,null,,,,
null,"<img src=""stim_listB/kiss3.gif""</stim_listB>",,html-keyboard-response,55,769299,0.0-13.0-1.6,56077,List2B,black,man,,,,null,,,,
null,is kissing,,html-keyboard-response,56,771308,0.0-13.0-2.6,56077,List2B,black,man,,,,null,,,,
10236,,,survey-text,57,781546,0.0-13.0-3.6,56077,List2B,black,man,,,,,"{""Q0"":""Beth is kissing Fred.""}","<img src=""stim_listB/kiss3.gif""</stim_listB>",is kissing,
null,"<div style=""font-size:60px;"">+</div>",,html-keyboard-response,58,782060,0.0-13.0-0.7,56077,List2B,black,man,,,,null,,,,
null,"<img src=""stim_listB/dance4.gif""</stim_listB>",,html-keyboard-response,59,784071,0.0-13.0-1.7,56077,List2B,black,man,,,,null,,,,
null,are dancing with each other,,html-keyboard-response,60,786078,0.0-13.0-2.7,56077,List2B,black,man,,,,null,,,,
15169,,,survey-text,61,801249,0.0-13.0-3.7,56077,List2B,black,man,,,,,"{""Q0"":""Mike and Beth are dancing with each other.""}","<img src=""stim_listB/dance4.gif""</stim_listB>",are dancing with each other,
null,"<div style=""font-size:60px;"">+</div>",,html-keyboard-response,62,801755,0.0-13.0-0.8,56077,List2B,black,man,,,,null,,,,
null,"<img src=""stim_listB/marry5.gif""</stim_listB>",,html-keyboard-response,63,803755,0.0-13.0-1.8,56077,List2B,black,man,,,,null,,,,
null,is marrying,,html-keyboard-response,64,805761,0.0-13.0-2.8,56077,List2B,black,man,,,,null,,,,
10397,,,survey-text,65,816160,0.0-13.0-3.8,56077,List2B,black,man,,,,,"{""Q0"":""Fred is marrying Dave.""}","<img src=""stim_listB/marry5.gif""</stim_listB>",is marrying,
null,"<div style=""font-size:60px;"">+</div>",,html-keyboard-response,66,816680,0.0-13.0-0.9,56077,List2B,black,man,,,,null,,,,
null,"<img src=""stim_listB/marry7.gif""</stim_listB>",,html-keyboard-response,67,818694,0.0-13.0-1.9,56077,List2B,black,man,,,,null,,,,
null,is marrying,,html-keyboard-response,68,820698,0.0-13.0-2.9,56077,List2B,black,man,,,,null,,,,
8990,,,survey-text,69,829690,0.0-13.0-3.9,56077,List2B,black,man,,,,,"{""Q0"":""Beth is marrying Jane.""}","<img src=""stim_listB/marry7.gif""</stim_listB>",is marrying,
null,"<div style=""font-size:60px;"">+</div>",,html-keyboard-response,70,830203,0.0-13.0-0.10,56077,List2B,black,man,,,,null,,,,
null,"<img src=""stim_listB/touch6.gif""</stim_listB>",,html-keyboard-response,71,832214,0.0-13.0-1.10,56077,List2B,black,man,,,,null,,,,
null,are touching each other,,html-keyboard-response,72,834226,0.0-13.0-2.10,56077,List2B,black,man,,,,null,,,,
33205,,,survey-text,73,867433,0.0-13.0-3.10,56077,List2B,black,man,,,,,"{""Q0"":""Luke and Fred are touching each other.""}","<img src=""stim_listB/touch6.gif""</stim_listB>",are touching each other,
null,"<div style=""font-size:60px;"">+</div>",,html-keyboard-response,74,867937,0.0-13.0-0.11,56077,List2B,black,man,,,,null,,,,
null,"<img src=""stim_listB/hug3.gif""</stim_listB>",,html-keyboard-response,75,869940,0.0-13.0-1.11,56077,List2B,black,man,,,,null,,,,
null,is hugging,,html-keyboard-response,76,871946,0.0-13.0-2.11,56077,List2B,black,man,,,,null,,,,
7767,,,survey-text,77,879714,0.0-13.0-3.11,56077,List2B,black,man,,,,,"{""Q0"":""Fred is hugging Beth.""}","<img src=""stim_listB/hug3.gif""</stim_listB>",is hugging,
null,"<div style=""font-size:60px;"">+</div>",,html-keyboard-response,78,880222,0.0-13.0-0.12,56077,List2B,black,man,,,,null,,,,
null,"<img src=""stim_listB/meet3.gif""</stim_listB>",,html-keyboard-response,79,882228,0.0-13.0-1.12,56077,List2B,black,man,,,,null,,,,
null,is meeting,,html-keyboard-response,80,884235,0.0-13.0-2.12,56077,List2B,black,man,,,,null,,,,
7393,,,survey-text,81,891630,0.0-13.0-3.12,56077,List2B,black,man,,,,,"{""Q0"":""Mike is meeting Kate.""}","<img src=""stim_listB/meet3.gif""</stim_listB>",is meeting,
null,"<div style=""font-size:60px;"">+</div>",,html-keyboard-response,82,892136,0.0-13.0-0.13,56077,List2B,black,man,,,,null,,,,
null,"<img src=""stim_listB/shout4.gif""</stim_listB>",,html-keyboard-response,83,894143,0.0-13.0-1.13,56077,List2B,black,man,,,,null,,,,
null,are shouting at each other,,html-keyboard-response,84,896145,0.0-13.0-2.13,56077,List2B,black,man,,,,null,,,,
17329,,,survey-text,85,913476,0.0-13.0-3.13,56077,List2B,black,man,,,,,"{""Q0"":""Mike and Kate are shouting at each other.""}","<img src=""stim_listB/shout4.gif""</stim_listB>",are shouting at each other,
null,"<div style=""font-size:60px;"">+</div>",,html-keyboard-response,86,913981,0.0-13.0-0.14,56077,List2B,black,man,,,,null,,,,
null,"<img src=""stim_listB/meet6.gif""</stim_listB>",,html-keyboard-response,87,915986,0.0-13.0-1.14,56077,List2B,black,man,,,,null,,,,
null,are meeting each other,,html-keyboard-response,88,917988,0.0-13.0-2.14,56077,List2B,black,man,,,,null,,,,
17801,,,survey-text,89,935791,0.0-13.0-3.14,56077,List2B,black,man,,,,,"{""Q0"":""Fred and Luke are meeting each other.""}","<img src=""stim_listB/meet6.gif""</stim_listB>",are meeting each other,
null,"<div style=""font-size:60px;"">+</div>",,html-keyboard-response,90,936303,0.0-13.0-0.15,56077,List2B,black,man,,,,null,,,,
null,"<img src=""stim_listB/touch4.gif""</stim_listB>",,html-keyboard-response,91,938307,0.0-13.0-1.15,56077,List2B,black,man,,,,null,,,,
null,are touching each other,,html-keyboard-response,92,940319,0.0-13.0-2.15,56077,List2B,black,man,,,,null,,,,
13027,,,survey-text,93,953349,0.0-13.0-3.15,56077,List2B,black,man,,,,,"{""Q0"":""Fred and Beth are touching each other.""}","<img src=""stim_listB/touch4.gif""</stim_listB>",are touching each other,
null,"<div style=""font-size:60px;"">+</div>",,html-keyboard-response,94,953854,0.0-13.0-0.16,56077,List2B,black,man,,,,null,,,,
null,"<img src=""stim_listB/talk1.gif""</stim_listB>",,html-keyboard-response,95,955860,0.0-13.0-1.16,56077,List2B,black,man,,,,null,,,,
null,is talking to,,html-keyboard-response,96,957864,0.0-13.0-2.16,56077,List2B,black,man,,,,null,,,,
9481,,,survey-text,97,967347,0.0-13.0-3.16,56077,List2B,black,man,,,,,"{""Q0"":""Jane is talking to Luke.""}","<img src=""stim_listB/talk1.gif""</stim_listB>",is talking to,
null,"<div style=""font-size:60px;"">+</div>",,html-keyboard-response,98,967853,0.0-13.0-0.17,56077,List2B,black,man,,,,null,,,,
null,"<img src=""stim_listB/touch7.gif""</stim_listB>",,html-keyboard-response,99,969857,0.0-13.0-1.17,56077,List2B,black,man,,,,null,,,,
null,is touching,,html-keyboard-response,100,971860,0.0-13.0-2.17,56077,List2B,black,man,,,,null,,,,
11314,,,survey-text,101,983176,0.0-13.0-3.17,56077,List2B,black,man,,,,,"{""Q0"":""Jane is touching Kate.""}","<img src=""stim_listB/touch7.gif""</stim_listB>",is touching,
null,"<div style=""font-size:60px;"">+</div>",,html-keyboard-response,102,983681,0.0-13.0-0.18,56077,List2B,black,man,,,,null,,,,
null,"<img src=""stim_listB/dance6.gif""</stim_listB>",,html-keyboard-response,103,985694,0.0-13.0-1.18,56077,List2B,black,man,,,,null,,,,
null,are dancing with each other,,html-keyboard-response,104,987706,0.0-13.0-2.18,56077,List2B,black,man,,,,null,,,,
17231,,,survey-text,105,1004939,0.0-13.0-3.18,56077,List2B,black,man,,,,,"{""Q0"":""Fred and Dave are dancing with each other.""}","<img src=""stim_listB/dance6.gif""</stim_listB>",are dancing with each other,
null,"<div style=""font-size:60px;"">+</div>",,html-keyboard-response,106,1005443,0.0-13.0-0.19,56077,List2B,black,man,,,,null,,,,
null,"<img src=""stim_listB/touch1.gif""</stim_listB>",,html-keyboard-response,107,1007448,0.0-13.0-1.19,56077,List2B,black,man,,,,null,,,,
null,is touching,,html-keyboard-response,108,1009451,0.0-13.0-2.19,56077,List2B,black,man,,,,null,,,,
12224,,,survey-text,109,1021677,0.0-13.0-3.19,56077,List2B,black,man,,,,,"{""Q0"":""Jane is touching Dave.""}","<img src=""stim_listB/touch1.gif""</stim_listB>",is touching,
13166,"<img src='img/portrait_matrix_list2.JPG' style='width:900px;height:500px;''></img><p>If you have memorised all the portraits and names and are ready to start, press Continue.</p><p><strong>Please note: Your memory of these faces will be tested 4 times during this experiment.</strong></p>",0,html-button-response,110,1034847,0.0-14.0-0.0,56077,List2B,black,man,,,,,,,,
3732,"<img src=""portrait/BW1.jpg""style=""width:400px;height:400px;""></img>",0,html-button-response,111,1039593,0.0-14.0-1.0,56077,List2B,black,man,,TRUE,0,,,,,
null,CORRECT,,html-keyboard-response,112,1041104,0.0-14.0-2.0-0.0,56077,List2B,black,man,,,,null,,,,
2983,"<img src=""portrait/WM1.jpg""style=""width:400px;height:400px;""></img>",6,html-button-response,113,1044091,0.0-14.0-4.0,56077,List2B,black,man,,TRUE,6,,,,,
null,CORRECT,,html-keyboard-response,114,1045595,0.0-14.0-5.0-0.0,56077,List2B,black,man,,,,null,,,,
2538,"<img src=""portrait/BM2.jpg""style=""width:400px;height:400px;""></img>",5,html-button-response,115,1048137,0.0-14.0-7.0,56077,List2B,black,man,,TRUE,5,,,,,
null,CORRECT,,html-keyboard-response,116,1049644,0.0-14.0-8.0-0.0,56077,List2B,black,man,,,,null,,,,
5246,"<img src=""portrait/WW2.jpg""style=""width:400px;height:400px;""></img>",3,html-button-response,117,1054892,0.0-14.0-10.0,56077,List2B,black,man,,TRUE,3,,,,,
null,CORRECT,,html-keyboard-response,118,1056418,0.0-14.0-11.0-0.0,56077,List2B,black,man,,,,null,,,,
2486,"<img src=""portrait/BM1.jpg""style=""width:400px;height:400px;""></img>",4,html-button-response,119,1058907,0.0-14.0-13.0,56077,List2B,black,man,,TRUE,4,,,,,
null,CORRECT,,html-keyboard-response,120,1060419,0.0-14.0-14.0-0.0,56077,List2B,black,man,,,,null,,,,
3029,"<img src=""portrait/WW1.jpg""style=""width:400px;height:400px;""></img>",1,html-button-response,121,1063450,0.0-14.0-16.0,56077,List2B,black,man,,TRUE,1,,,,,
null,CORRECT,,html-keyboard-response,122,1064969,0.0-14.0-17.0-0.0,56077,List2B,black,man,,,,null,,,,
2774,"<img src=""portrait/BW2.jpg""style=""width:400px;height:400px;""></img>",2,html-button-response,123,1067746,0.0-14.0-19.0,56077,List2B,black,man,,TRUE,2,,,,,
null,CORRECT,,html-keyboard-response,124,1069252,0.0-14.0-20.0-0.0,56077,List2B,black,man,,,,null,,,,
2876,"<img src=""portrait/WM2.jpg""style=""width:400px;height:400px;""></img>",7,html-button-response,125,1072132,0.0-14.0-22.0,56077,List2B,black,man,,TRUE,7,,,,,
null,CORRECT,,html-keyboard-response,126,1073642,0.0-14.0-23.0-0.0,56077,List2B,black,man,,,,null,,,,
1788,<p>You got 8 out of 8 right first time. Press Continue.</p>,0,html-button-response,127,1075432,0.0-14.0-25.0,56077,List2B,black,man,,,,,,,,
null,"<div style=""font-size:60px;"">+</div>",,html-keyboard-response,128,1076944,0.0-15.0-0.0,56077,List2B,black,man,,,,null,,,,
null,"<img src=""stim_listB/marry1.gif""</stim_listB>",,html-keyboard-response,129,1078950,0.0-15.0-1.0,56077,List2B,black,man,,,,null,,,,
null,is marrying,,html-keyboard-response,130,1080960,0.0-15.0-2.0,56077,List2B,black,man,,,,null,,,,
14471,,,survey-text,131,1095433,0.0-15.0-3.0,56077,List2B,black,man,,,,,"{""Q0"":""Ruth is marrying Dave.""}","<img src=""stim_listB/marry1.gif""</stim_listB>",is marrying,
null,"<div style=""font-size:60px;"">+</div>",,html-keyboard-response,132,1095935,0.0-15.0-0.1,56077,List2B,black,man,,,,null,,,,
null,"<img src=""stim_listB/meet1.gif""</stim_listB>",,html-keyboard-response,133,1097944,0.0-15.0-1.1,56077,List2B,black,man,,,,null,,,,
null,is meeting,,html-keyboard-response,134,1099953,0.0-15.0-2.1,56077,List2B,black,man,,,,null,,,,
10535,,,survey-text,135,1110491,0.0-15.0-3.1,56077,List2B,black,man,,,,,"{""Q0"":""Jane is meeting Dave.""}","<img src=""stim_listB/meet1.gif""</stim_listB>",is meeting,
null,"<div style=""font-size:60px;"">+</div>",,html-keyboard-response,136,1110997,0.0-15.0-0.2,56077,List2B,black,man,,,,null,,,,
null,"<img src=""stim_listB/shout6.gif""</stim_listB>",,html-keyboard-response,137,1113012,0.0-15.0-1.2,56077,List2B,black,man,,,,null,,,,
null,are shouting at each other,,html-keyboard-response,138,1115029,0.0-15.0-2.2,56077,List2B,black,man,,,,null,,,,
13801,,,survey-text,139,1128832,0.0-15.0-3.2,56077,List2B,black,man,,,,,"{""Q0"":""Dave and Mike are shouting at each other.""}","<img src=""stim_listB/shout6.gif""</stim_listB>",are shouting at each other,
null,"<div style=""font-size:60px;"">+</div>",,html-keyboard-response,140,1129334,0.0-15.0-0.3,56077,List2B,black,man,,,,null,,,,
null,"<img src=""stim_listB/talk8.gif""</stim_listB>",,html-keyboard-response,141,1131341,0.0-15.0-1.3,56077,List2B,black,man,,,,null,,,,
null,are talking to each other,,html-keyboard-response,142,1133343,0.0-15.0-2.3,56077,List2B,black,man,,,,null,,,,
15704,,,survey-text,143,1149049,0.0-15.0-3.3,56077,List2B,black,man,,,,,"{""Q0"":""Beth and Jane are talking to each other.""}","<img src=""stim_listB/talk8.gif""</stim_listB>",are talking to each other,
null,"<div style=""font-size:60px;"">+</div>",,html-keyboard-response,144,1149564,0.0-15.0-0.4,56077,List2B,black,man,,,,null,,,,
null,"<img src=""stim_listB/talk4.gif""</stim_listB>",,html-keyboard-response,145,1151570,0.0-15.0-1.4,56077,List2B,black,man,,,,null,,,,
null,are talking to each other,,html-keyboard-response,146,1153577,0.0-15.0-2.4,56077,List2B,black,man,,,,null,,,,
14583,,,survey-text,147,1168162,0.0-15.0-3.4,56077,List2B,black,man,,,,,"{""Q0"":""Mike and Beth are talking to each other.""}","<img src=""stim_listB/talk4.gif""</stim_listB>",are talking to each other,
null,"<div style=""font-size:60px;"">+</div>",,html-keyboard-response,148,1168676,0.0-15.0-0.5,56077,List2B,black,man,,,,null,,,,
null,"<img src=""stim_listB/marry8.gif""</stim_listB>",,html-keyboard-response,149,1170678,0.0-15.0-1.5,56077,List2B,black,man,,,,null,,,,
null,are marrying each other,,html-keyboard-response,150,1172684,0.0-15.0-2.5,56077,List2B,black,man,,,,null,,,,
13038,,,survey-text,151,1185724,0.0-15.0-3.5,56077,List2B,black,man,,,,,"{""Q0"":""Ruth and Kate are marrying each other.""}","<img src=""stim_listB/marry8.gif""</stim_listB>",are marrying each other,
null,"<div style=""font-size:60px;"">+</div>",,html-keyboard-response,152,1186227,0.0-15.0-0.6,56077,List2B,black,man,,,,null,,,,
null,"<img src=""stim_listB/touch5.gif""</stim_listB>",,html-keyboard-response,153,1188239,0.0-15.0-1.6,56077,List2B,black,man,,,,null,,,,
null,is touching,,html-keyboard-response,154,1190243,0.0-15.0-2.6,56077,List2B,black,man,,,,null,,,,
11004,,,survey-text,155,1201249,0.0-15.0-3.6,56077,List2B,black,man,,,,,"{""Q0"":""Mike is touching Dave.""}","<img src=""stim_listB/touch5.gif""</stim_listB>",is touching,
null,"<div style=""font-size:60px;"">+</div>",,html-keyboard-response,156,1201755,0.0-15.0-0.7,56077,List2B,black,man,,,,null,,,,
null,"<img src=""stim_listB/marry4.gif""</stim_listB>",,html-keyboard-response,157,1203763,0.0-15.0-1.7,56077,List2B,black,man,,,,null,,,,
null,are marrying each other,,html-keyboard-response,158,1205765,0.0-15.0-2.7,56077,List2B,black,man,,,,null,,,,
33830,,,survey-text,159,1239597,0.0-15.0-3.7,56077,List2B,black,man,,,,,"{""Q0"":""Kate is marrying Fred.""}","<img src=""stim_listB/marry4.gif""</stim_listB>",are marrying each other,
null,"<div style=""font-size:60px;"">+</div>",,html-keyboard-response,160,1240102,0.0-15.0-0.8,56077,List2B,black,man,,,,null,,,,
null,"<img src=""stim_listB/meet5.gif""</stim_listB>",,html-keyboard-response,161,1242107,0.0-15.0-1.8,56077,List2B,black,man,,,,null,,,,
null,is meeting,,html-keyboard-response,162,1244110,0.0-15.0-2.8,56077,List2B,black,man,,,,null,,,,
13132,,,survey-text,163,1257244,0.0-15.0-3.8,56077,List2B,black,man,,,,,"{""Q0"":""Mike is meeting Dave.""}","<img src=""stim_listB/meet5.gif""</stim_listB>",is meeting,
null,"<div style=""font-size:60px;"">+</div>",,html-keyboard-response,164,1257748,0.0-15.0-0.9,56077,List2B,black,man,,,,null,,,,
null,"<img src=""stim_listB/touch8.gif""</stim_listB>",,html-keyboard-response,165,1259752,0.0-15.0-1.9,56077,List2B,black,man,,,,null,,,,
null,are touching each other,,html-keyboard-response,166,1261757,0.0-15.0-2.9,56077,List2B,black,man,,,,null,,,,
14258,,,survey-text,167,1276016,0.0-15.0-3.9,56077,List2B,black,man,,,,,"{""Q0"":""Beth and Ruth are touching each other.""}","<img src=""stim_listB/touch8.gif""</stim_listB>",are touching each other,
null,"<div style=""font-size:60px;"">+</div>",,html-keyboard-response,168,1276519,0.0-15.0-0.10,56077,List2B,black,man,,,,null,,,,
null,"<img src=""stim_listB/kiss8.gif""</stim_listB>",,html-keyboard-response,169,1278527,0.0-15.0-1.10,56077,List2B,black,man,,,,null,,,,
null,are kissing each other,,html-keyboard-response,170,1280529,0.0-15.0-2.10,56077,List2B,black,man,,,,null,,,,
15298,,,survey-text,171,1295830,0.0-15.0-3.10,56077,List2B,black,man,,,,,"{""Q0"":""Jane and Kate are kissing each other.""}","<img src=""stim_listB/kiss8.gif""</stim_listB>",are kissing each other,
null,"<div style=""font-size:60px;"">+</div>",,html-keyboard-response,172,1296335,0.0-15.0-0.11,56077,List2B,black,man,,,,null,,,,
null,"<img src=""stim_listB/hug5.gif""</stim_listB>",,html-keyboard-response,173,1298338,0.0-15.0-1.11,56077,List2B,black,man,,,,null,,,,
null,is hugging,,html-keyboard-response,174,1300341,0.0-15.0-2.11,56077,List2B,black,man,,,,null,,,,
14830,,,survey-text,175,1315173,0.0-15.0-3.11,56077,List2B,black,man,,,,,"{""Q0"":""Mike is hugging Luke.""}","<img src=""stim_listB/hug5.gif""</stim_listB>",is hugging,
null,"<div style=""font-size:60px;"">+</div>",,html-keyboard-response,176,1315677,0.0-15.0-0.12,56077,List2B,black,man,,,,null,,,,
null,"<img src=""stim_listB/argue7.gif""</stim_listB>",,html-keyboard-response,177,1317683,0.0-15.0-1.12,56077,List2B,black,man,,,,null,,,,
null,is arguing with,,html-keyboard-response,178,1319686,0.0-15.0-2.12,56077,List2B,black,man,,,,null,,,,
10905,,,survey-text,179,1330592,0.0-15.0-3.12,56077,List2B,black,man,,,,,"{""Q0"":""Beth is arguing with Jane.""}","<img src=""stim_listB/argue7.gif""</stim_listB>",is arguing with,
null,"<div style=""font-size:60px;"">+</div>",,html-keyboard-response,180,1331099,0.0-15.0-0.13,56077,List2B,black,man,,,,null,,,,
null,"<img src=""stim_listB/meet2.gif""</stim_listB>",,html-keyboard-response,181,1333108,0.0-15.0-1.13,56077,List2B,black,man,,,,null,,,,
null,are meeting each other,,html-keyboard-response,182,1335111,0.0-15.0-2.13,56077,List2B,black,man,,,,null,,,,
10937,,,survey-text,183,1346050,0.0-15.0-3.13,56077,List2B,black,man,,,,,"{""Q0"":""Luke and Ruth are meeting each other.""}","<img src=""stim_listB/meet2.gif""</stim_listB>",are meeting each other,
null,"<div style=""font-size:60px;"">+</div>",,html-keyboard-response,184,1346556,0.0-15.0-0.14,56077,List2B,black,man,,,,null,,,,
null,"<img src=""stim_listB/kiss1.gif""</stim_listB>",,html-keyboard-response,185,1348560,0.0-15.0-1.14,56077,List2B,black,man,,,,null,,,,
null,is kissing,,html-keyboard-response,186,1350566,0.0-15.0-2.14,56077,List2B,black,man,,,,null,,,,
8368,,,survey-text,187,1358937,0.0-15.0-3.14,56077,List2B,black,man,,,,,"{""Q0"":""Ruth is kissing Luke.""}","<img src=""stim_listB/kiss1.gif""</stim_listB>",is kissing,
null,"<div style=""font-size:60px;"">+</div>",,html-keyboard-response,188,1359444,0.0-15.0-0.15,56077,List2B,black,man,,,,null,,,,
null,"<img src=""stim_listB/touch2.gif""</stim_listB>",,html-keyboard-response,189,1361448,0.0-15.0-1.15,56077,List2B,black,man,,,,null,,,,
null,are touching each other,,html-keyboard-response,190,1363456,0.0-15.0-2.15,56077,List2B,black,man,,,,null,,,,
13977,,,survey-text,191,1377435,0.0-15.0-3.15,56077,List2B,black,man,,,,,"{""Q0"":""Ruth and Luke are touching each other.""}","<img src=""stim_listB/touch2.gif""</stim_listB>",are touching each other,
null,"<div style=""font-size:60px;"">+</div>",,html-keyboard-response,192,1377939,0.0-15.0-0.16,56077,List2B,black,man,,,,null,,,,
null,"<img src=""stim_listB/hug2.gif""</stim_listB>",,html-keyboard-response,193,1379946,0.0-15.0-1.16,56077,List2B,black,man,,,,null,,,,
null,are hugging each other,,html-keyboard-response,194,1381952,0.0-15.0-2.16,56077,List2B,black,man,,,,null,,,,
16048,,,survey-text,195,1398003,0.0-15.0-3.16,56077,List2B,black,man,,,,,"{""Q0"":""Jane and Dave are hugging each other.""}","<img src=""stim_listB/hug2.gif""</stim_listB>",are hugging each other,
null,"<div style=""font-size:60px;"">+</div>",,html-keyboard-response,196,1398507,0.0-15.0-0.17,56077,List2B,black,man,,,,null,,,,
null,"<img src=""stim_listB/kiss4.gif""</stim_listB>",,html-keyboard-response,197,1400512,0.0-15.0-1.17,56077,List2B,black,man,,,,null,,,,
null,are kissing each other,,html-keyboard-response,198,1402518,0.0-15.0-2.17,56077,List2B,black,man,,,,null,,,,
10951,,,survey-text,199,1413471,0.0-15.0-3.17,56077,List2B,black,man,,,,,"{""Q0"":""Mike and Kate are kissing each other.""}","<img src=""stim_listB/kiss4.gif""</stim_listB>",are kissing each other,
null,"<div style=""font-size:60px;"">+</div>",,html-keyboard-response,200,1413975,0.0-15.0-0.18,56077,List2B,black,man,,,,null,,,,
null,"<img src=""stim_listB/marry3.gif""</stim_listB>",,html-keyboard-response,201,1415978,0.0-15.0-1.18,56077,List2B,black,man,,,,null,,,,
null,is marrying,,html-keyboard-response,202,1417980,0.0-15.0-2.18,56077,List2B,black,man,,,,null,,,,
8064,,,survey-text,203,1426048,0.0-15.0-3.18,56077,List2B,black,man,,,,,"{""Q0"":""Mike is marrying Beth.""}","<img src=""stim_listB/marry3.gif""</stim_listB>",is marrying,
null,"<div style=""font-size:60px;"">+</div>",,html-keyboard-response,204,1426551,0.0-15.0-0.19,56077,List2B,black,man,,,,null,,,,
null,"<img src=""stim_listB/hug1.gif""</stim_listB>",,html-keyboard-response,205,1428558,0.0-15.0-1.19,56077,List2B,black,man,,,,null,,,,
null,is hugging,,html-keyboard-response,206,1430566,0.0-15.0-2.19,56077,List2B,black,man,,,,null,,,,
30833,,,survey-text,207,1461402,0.0-15.0-3.19,56077,List2B,black,man,,,,,"{""Q0"":""Luke is hugging Ruth.""}","<img src=""stim_listB/hug1.gif""</stim_listB>",is hugging,
13762,"<img src='img/portrait_matrix_list2.JPG' style='width:900px;height:500px;''></img><p>If you have memorised all the portraits and names and are ready to start, press Continue.</p><p><strong>Please note: Your memory of these faces will be tested 4 times during this experiment.</strong></p>",0,html-button-response,208,1475167,0.0-16.0-0.0,56077,List2B,black,man,,,,,,,,
2461,"<img src=""portrait/WW2.jpg""style=""width:400px;height:400px;""></img>",3,html-button-response,209,1478636,0.0-16.0-1.0,56077,List2B,black,man,,TRUE,3,,,,,
null,CORRECT,,html-keyboard-response,210,1480144,0.0-16.0-2.0-0.0,56077,List2B,black,man,,,,null,,,,
2331,"<img src=""portrait/WM2.jpg""style=""width:400px;height:400px;""></img>",7,html-button-response,211,1482478,0.0-16.0-4.0,56077,List2B,black,man,,TRUE,7,,,,,
null,CORRECT,,html-keyboard-response,212,1483984,0.0-16.0-5.0-0.0,56077,List2B,black,man,,,,null,,,,
2889,"<img src=""portrait/WM1.jpg""style=""width:400px;height:400px;""></img>",6,html-button-response,213,1486874,0.0-16.0-7.0,56077,List2B,black,man,,TRUE,6,,,,,
null,CORRECT,,html-keyboard-response,214,1488397,0.0-16.0-8.0-0.0,56077,List2B,black,man,,,,null,,,,
2417,"<img src=""portrait/BM1.jpg""style=""width:400px;height:400px;""></img>",4,html-button-response,215,1490817,0.0-16.0-10.0,56077,List2B,black,man,,TRUE,4,,,,,
null,CORRECT,,html-keyboard-response,216,1492325,0.0-16.0-11.0-0.0,56077,List2B,black,man,,,,null,,,,
3052,"<img src=""portrait/WW1.jpg""style=""width:400px;height:400px;""></img>",1,html-button-response,217,1495380,0.0-16.0-13.0,56077,List2B,black,man,,TRUE,1,,,,,
null,CORRECT,,html-keyboard-response,218,1496889,0.0-16.0-14.0-0.0,56077,List2B,black,man,,,,null,,,,
3460,"<img src=""portrait/BW1.jpg""style=""width:400px;height:400px;""></img>",0,html-button-response,219,1500353,0.0-16.0-16.0,56077,List2B,black,man,,TRUE,0,,,,,
null,CORRECT,,html-keyboard-response,220,1501861,0.0-16.0-17.0-0.0,56077,List2B,black,man,,,,null,,,,
2900,"<img src=""portrait/BW2.jpg""style=""width:400px;height:400px;""></img>",2,html-button-response,221,1504766,0.0-16.0-19.0,56077,List2B,black,man,,TRUE,2,,,,,
null,CORRECT,,html-keyboard-response,222,1506278,0.0-16.0-20.0-0.0,56077,List2B,black,man,,,,null,,,,
3218,"<img src=""portrait/BM2.jpg""style=""width:400px;height:400px;""></img>",5,html-button-response,223,1509500,0.0-16.0-22.0,56077,List2B,black,man,,TRUE,5,,,,,
null,CORRECT,,html-keyboard-response,224,1511010,0.0-16.0-23.0-0.0,56077,List2B,black,man,,,,null,,,,
1569,<p>You got 8 out of 8 right first time. Press Continue.</p>,0,html-button-response,225,1512582,0.0-16.0-25.0,56077,List2B,black,man,,,,,,,,
null,"<div style=""font-size:60px;"">+</div>",,html-keyboard-response,226,1514091,0.0-17.0-0.0,56077,List2B,black,man,,,,null,,,,
null,"<img src=""stim_listB/kiss6.gif""</stim_listB>",,html-keyboard-response,227,1516095,0.0-17.0-1.0,56077,List2B,black,man,,,,null,,,,
null,are kissing each other,,html-keyboard-response,228,1518101,0.0-17.0-2.0,56077,List2B,black,man,,,,null,,,,
32064,,,survey-text,229,1550167,0.0-17.0-3.0,56077,List2B,black,man,,,,,"{""Q0"":""Mike and Dave are kissing each other.""}","<img src=""stim_listB/kiss6.gif""</stim_listB>",are kissing each other,
null,"<div style=""font-size:60px;"">+</div>",,html-keyboard-response,230,1550672,0.0-17.0-0.1,56077,List2B,black,man,,,,null,,,,
null,"<img src=""stim_listB/fight3.gif""</stim_listB>",,html-keyboard-response,231,1552677,0.0-17.0-1.1,56077,List2B,black,man,,,,null,,,,
null,is fighting,,html-keyboard-response,232,1554681,0.0-17.0-2.1,56077,List2B,black,man,,,,null,,,,
8073,,,survey-text,233,1562756,0.0-17.0-3.1,56077,List2B,black,man,,,,,"{""Q0"":""Mike is fighting Kate.""}","<img src=""stim_listB/fight3.gif""</stim_listB>",is fighting,
null,"<div style=""font-size:60px;"">+</div>",,html-keyboard-response,234,1563261,0.0-17.0-0.2,56077,List2B,black,man,,,,null,,,,
null,"<img src=""stim_listB/fight6.gif""</stim_listB>",,html-keyboard-response,235,1565267,0.0-17.0-1.2,56077,List2B,black,man,,,,null,,,,
null,are fighting each other,,html-keyboard-response,236,1567269,0.0-17.0-2.2,56077,List2B,black,man,,,,null,,,,
12444,,,survey-text,237,1579715,0.0-17.0-3.2,56077,List2B,black,man,,,,,"{""Q0"":""Luke and Fred are fighting each other.""}","<img src=""stim_listB/fight6.gif""</stim_listB>",are fighting each other,
null,"<div style=""font-size:60px;"">+</div>",,html-keyboard-response,238,1580221,0.0-17.0-0.3,56077,List2B,black,man,,,,null,,,,
null,"<img src=""stim_listB/dance1.gif""</stim_listB>",,html-keyboard-response,239,1582228,0.0-17.0-1.3,56077,List2B,black,man,,,,null,,,,
null,is dancing with,,html-keyboard-response,240,1584232,0.0-17.0-2.3,56077,List2B,black,man,,,,null,,,,
11737,,,survey-text,241,1595971,0.0-17.0-3.3,56077,List2B,black,man,,,,,"{""Q0"":""Luke is dancing with Jane.""}","<img src=""stim_listB/dance1.gif""</stim_listB>",is dancing with,
null,"<div style=""font-size:60px;"">+</div>",,html-keyboard-response,242,1596478,0.0-17.0-0.4,56077,List2B,black,man,,,,null,,,,
null,"<img src=""stim_listB/argue1.gif""</stim_listB>",,html-keyboard-response,243,1598487,0.0-17.0-1.4,56077,List2B,black,man,,,,null,,,,
null,is arguing with,,html-keyboard-response,244,1600495,0.0-17.0-2.4,56077,List2B,black,man,,,,null,,,,
8424,,,survey-text,245,1608921,0.0-17.0-3.4,56077,List2B,black,man,,,,,"{""Q0"":""Ruth is arguing with Dave.""}","<img src=""stim_listB/argue1.gif""</stim_listB>",is arguing with,
null,"<div style=""font-size:60px;"">+</div>",,html-keyboard-response,246,1609428,0.0-17.0-0.5,56077,List2B,black,man,,,,null,,,,
null,"<img src=""stim_listB/shout1.gif""</stim_listB>",,html-keyboard-response,247,1611431,0.0-17.0-1.5,56077,List2B,black,man,,,,null,,,,
null,is shouting at,,html-keyboard-response,248,1613437,0.0-17.0-2.5,56077,List2B,black,man,,,,null,,,,
41399,,,survey-text,249,1654838,0.0-17.0-3.5,56077,List2B,black,man,,,,,"{""Q0"":""Luke is shouting at Ruth.""}","<img src=""stim_listB/shout1.gif""</stim_listB>",is shouting at,
null,"<div style=""font-size:60px;"">+</div>",,html-keyboard-response,250,1655340,0.0-17.0-0.6,56077,List2B,black,man,,,,null,,,,
null,"<img src=""stim_listB/dance5.gif""</stim_listB>",,html-keyboard-response,251,1657344,0.0-17.0-1.6,56077,List2B,black,man,,,,null,,,,
null,is dancing with,,html-keyboard-response,252,1659346,0.0-17.0-2.6,56077,List2B,black,man,,,,null,,,,
11246,,,survey-text,253,1670595,0.0-17.0-3.6,56077,List2B,black,man,,,,,"{""Q0"":""Mike is dancing with Luke.""}","<img src=""stim_listB/dance5.gif""</stim_listB>",is dancing with,
null,"<div style=""font-size:60px;"">+</div>",,html-keyboard-response,254,1671099,0.0-17.0-0.7,56077,List2B,black,man,,,,null,,,,
null,"<img src=""stim_listB/fight1.gif""</stim_listB>",,html-keyboard-response,255,1673104,0.0-17.0-1.7,56077,List2B,black,man,,,,null,,,,
null,is fighting,,html-keyboard-response,256,1675107,0.0-17.0-2.7,56077,List2B,black,man,,,,null,,,,
9110,,,survey-text,257,1684219,0.0-17.0-3.7,56077,List2B,black,man,,,,,"{""Q0"":""Jane is fighting Dave.""}","<img src=""stim_listB/fight1.gif""</stim_listB>",is fighting,
null,"<div style=""font-size:60px;"">+</div>",,html-keyboard-response,258,1684723,0.0-17.0-0.8,56077,List2B,black,man,,,,null,,,,
null,"<img src=""stim_listB/fight8.gif""</stim_listB>",,html-keyboard-response,259,1686731,0.0-17.0-1.8,56077,List2B,black,man,,,,null,,,,
null,are fighting each other,,html-keyboard-response,260,1688735,0.0-17.0-2.8,56077,List2B,black,man,,,,null,,,,
11022,,,survey-text,261,1699759,0.0-17.0-3.8,56077,List2B,black,man,,,,,"{""Q0"":""Ruth and Beth are fighting each other.""}","<img src=""stim_listB/fight8.gif""</stim_listB>",are fighting each other,
null,"<div style=""font-size:60px;"">+</div>",,html-keyboard-response,262,1700263,0.0-17.0-0.9,56077,List2B,black,man,,,,null,,,,
null,"<img src=""stim_listB/dance3.gif""</stim_listB>",,html-keyboard-response,263,1702266,0.0-17.0-1.9,56077,List2B,black,man,,,,null,,,,
null,is dancing with,,html-keyboard-response,264,1704268,0.0-17.0-2.9,56077,List2B,black,man,,,,null,,,,
10664,,,survey-text,265,1714935,0.0-17.0-3.9,56077,List2B,black,man,,,,,"{""Q0"":""Fred is dancing with Kate.""}","<img src=""stim_listB/dance3.gif""</stim_listB>",is dancing with,
null,"<div style=""font-size:60px;"">+</div>",,html-keyboard-response,266,1715454,0.0-17.0-0.10,56077,List2B,black,man,,,,null,,,,
null,"<img src=""stim_listB/kiss5.gif""</stim_listB>",,html-keyboard-response,267,1717459,0.0-17.0-1.10,56077,List2B,black,man,,,,null,,,,
null,is kissing,,html-keyboard-response,268,1719462,0.0-17.0-2.10,56077,List2B,black,man,,,,null,,,,
10002,,,survey-text,269,1729466,0.0-17.0-3.10,56077,List2B,black,man,,,,,"{""Q0"":""Luke is kissing Fred.""}","<img src=""stim_listB/kiss5.gif""</stim_listB>",is kissing,
null,"<div style=""font-size:60px;"">+</div>",,html-keyboard-response,270,1729972,0.0-17.0-0.11,56077,List2B,black,man,,,,null,,,,
null,"<img src=""stim_listB/fight2.gif""</stim_listB>",,html-keyboard-response,271,1731979,0.0-17.0-1.11,56077,List2B,black,man,,,,null,,,,
null,are fighting each other,,html-keyboard-response,272,1733985,0.0-17.0-2.11,56077,List2B,black,man,,,,null,,,,
16033,,,survey-text,273,1750021,0.0-17.0-3.11,56077,List2B,black,man,,,,,"{""Q0"":""Luke and Ruth are fighting each other.""}","<img src=""stim_listB/fight2.gif""</stim_listB>",are fighting each other,
null,"<div style=""font-size:60px;"">+</div>",,html-keyboard-response,274,1750523,0.0-17.0-0.12,56077,List2B,black,man,,,,null,,,,
null,"<img src=""stim_listB/meet7.gif""</stim_listB>",,html-keyboard-response,275,1752530,0.0-17.0-1.12,56077,List2B,black,man,,,,null,,,,
null,is meeting,,html-keyboard-response,276,1754533,0.0-17.0-2.12,56077,List2B,black,man,,,,null,,,,
11480,,,survey-text,277,1766016,0.0-17.0-3.12,56077,List2B,black,man,,,,,"{""Q0"":""Jane is meeting Kate.""}","<img src=""stim_listB/meet7.gif""</stim_listB>",is meeting,
null,"<div style=""font-size:60px;"">+</div>",,html-keyboard-response,278,1766519,0.0-17.0-0.13,56077,List2B,black,man,,,,null,,,,
null,"<img src=""stim_listB/argue6.gif""</stim_listB>",,html-keyboard-response,279,1768524,0.0-17.0-1.13,56077,List2B,black,man,,,,null,,,,
null,are arguing with each other,,html-keyboard-response,280,1770531,0.0-17.0-2.13,56077,List2B,black,man,,,,null,,,,
13001,,,survey-text,281,1783534,0.0-17.0-3.13,56077,List2B,black,man,,,,,"{""Q0"":""Luke and Mike are arguing with each other.""}","<img src=""stim_listB/argue6.gif""</stim_listB>",are arguing with each other,
null,"<div style=""font-size:60px;"">+</div>",,html-keyboard-response,282,1784040,0.0-17.0-0.14,56077,List2B,black,man,,,,null,,,,
null,"<img src=""stim_listB/argue8.gif""</stim_listB>",,html-keyboard-response,283,1786044,0.0-17.0-1.14,56077,List2B,black,man,,,,null,,,,
null,are arguing with each other,,html-keyboard-response,284,1788051,0.0-17.0-2.14,56077,List2B,black,man,,,,null,,,,
12222,,,survey-text,285,1800275,0.0-17.0-3.14,56077,List2B,black,man,,,,,"{""Q0"":""Ruth and Kate are arguing with each other.""}","<img src=""stim_listB/argue8.gif""</stim_listB>",are arguing with each other,
null,"<div style=""font-size:60px;"">+</div>",,html-keyboard-response,286,1800780,0.0-17.0-0.15,56077,List2B,black,man,,,,null,,,,
null,"<img src=""stim_listB/talk7.gif""</stim_listB>",,html-keyboard-response,287,1802794,0.0-17.0-1.15,56077,List2B,black,man,,,,null,,,,
null,is talking to,,html-keyboard-response,288,1804798,0.0-17.0-2.15,56077,List2B,black,man,,,,null,,,,
13795,,,survey-text,289,1818595,0.0-17.0-3.15,56077,List2B,black,man,,,,,"{""Q0"":""Ruth is talking to Kate.""}","<img src=""stim_listB/talk7.gif""</stim_listB>",is talking to,
null,"<div style=""font-size:60px;"">+</div>",,html-keyboard-response,290,1819098,0.0-17.0-0.16,56077,List2B,black,man,,,,null,,,,
null,"<img src=""stim_listB/fight7.gif""</stim_listB>",,html-keyboard-response,291,1821110,0.0-17.0-1.16,56077,List2B,black,man,,,,null,,,,
null,is fighting,,html-keyboard-response,292,1823114,0.0-17.0-2.16,56077,List2B,black,man,,,,null,,,,
8418,,,survey-text,293,1831534,0.0-17.0-3.16,56077,List2B,black,man,,,,,"{""Q0"":""Jane is fighting Kate.""}","<img src=""stim_listB/fight7.gif""</stim_listB>",is fighting,
null,"<div style=""font-size:60px;"">+</div>",,html-keyboard-response,294,1832040,0.0-17.0-0.17,56077,List2B,black,man,,,,null,,,,
null,"<img src=""stim_listB/meet4.gif""</stim_listB>",,html-keyboard-response,295,1834044,0.0-17.0-1.17,56077,List2B,black,man,,,,null,,,,
null,are meeting each other,,html-keyboard-response,296,1836046,0.0-17.0-2.17,56077,List2B,black,man,,,,null,,,,
19799,,,survey-text,297,1855848,0.0-17.0-3.17,56077,List2B,black,man,,,,,"{""Q0"":""Fred and Beth are meeting each other.""}","<img src=""stim_listB/meet4.gif""</stim_listB>",are meeting each other,
null,"<div style=""font-size:60px;"">+</div>",,html-keyboard-response,298,1856350,0.0-17.0-0.18,56077,List2B,black,man,,,,null,,,,
null,"<img src=""stim_listB/argue3.gif""</stim_listB>",,html-keyboard-response,299,1858356,0.0-17.0-1.18,56077,List2B,black,man,,,,null,,,,
null,is arguing with,,html-keyboard-response,300,1860361,0.0-17.0-2.18,56077,List2B,black,man,,,,null,,,,
9005,,,survey-text,301,1869368,0.0-17.0-3.18,56077,List2B,black,man,,,,,"{""Q0"":""Beth is arguing with Mike.""}","<img src=""stim_listB/argue3.gif""</stim_listB>",is arguing with,
null,"<div style=""font-size:60px;"">+</div>",,html-keyboard-response,302,1869871,0.0-17.0-0.19,56077,List2B,black,man,,,,null,,,,
null,"<img src=""stim_listB/hug7.gif""</stim_listB>",,html-keyboard-response,303,1871879,0.0-17.0-1.19,56077,List2B,black,man,,,,null,,,,
null,is hugging,,html-keyboard-response,304,1873882,0.0-17.0-2.19,56077,List2B,black,man,,,,null,,,,
11354,,,survey-text,305,1885238,0.0-17.0-3.19,56077,List2B,black,man,,,,,"{""Q0"":""Beth is hugging Ruth.""}","<img src=""stim_listB/hug7.gif""</stim_listB>",is hugging,
3153,"<img src='img/portrait_matrix_list2.JPG' style='width:900px;height:500px;''></img><p>If you have memorised all the portraits and names and are ready to start, press Continue.</p><p><strong>Please note: Your memory of these faces will be tested 4 times during this experiment.</strong></p>",0,html-button-response,306,1888394,0.0-18.0-0.0,56077,List2B,black,man,,,,,,,,
2745,"<img src=""portrait/BM2.jpg""style=""width:400px;height:400px;""></img>",5,html-button-response,307,1892148,0.0-18.0-1.0,56077,List2B,black,man,,TRUE,5,,,,,
null,CORRECT,,html-keyboard-response,308,1893654,0.0-18.0-2.0-0.0,56077,List2B,black,man,,,,null,,,,
3742,"<img src=""portrait/BW1.jpg""style=""width:400px;height:400px;""></img>",0,html-button-response,309,1897400,0.0-18.0-4.0,56077,List2B,black,man,,TRUE,0,,,,,
null,CORRECT,,html-keyboard-response,310,1898909,0.0-18.0-5.0-0.0,56077,List2B,black,man,,,,null,,,,
2123,"<img src=""portrait/WW1.jpg""style=""width:400px;height:400px;""></img>",1,html-button-response,311,1901035,0.0-18.0-7.0,56077,List2B,black,man,,TRUE,1,,,,,
null,CORRECT,,html-keyboard-response,312,1902544,0.0-18.0-8.0-0.0,56077,List2B,black,man,,,,null,,,,
2065,"<img src=""portrait/WW2.jpg""style=""width:400px;height:400px;""></img>",3,html-button-response,313,1904613,0.0-18.0-10.0,56077,List2B,black,man,,TRUE,3,,,,,
null,CORRECT,,html-keyboard-response,314,1906120,0.0-18.0-11.0-0.0,56077,List2B,black,man,,,,null,,,,
3882,"<img src=""portrait/WM1.jpg""style=""width:400px;height:400px;""></img>",6,html-button-response,315,1910006,0.0-18.0-13.0,56077,List2B,black,man,,TRUE,6,,,,,
null,CORRECT,,html-keyboard-response,316,1911514,0.0-18.0-14.0-0.0,56077,List2B,black,man,,,,null,,,,
3367,"<img src=""portrait/BW2.jpg""style=""width:400px;height:400px;""></img>",2,html-button-response,317,1914884,0.0-18.0-16.0,56077,List2B,black,man,,TRUE,2,,,,,
null,CORRECT,,html-keyboard-response,318,1916394,0.0-18.0-17.0-0.0,56077,List2B,black,man,,,,null,,,,
3656,"<img src=""portrait/WM2.jpg""style=""width:400px;height:400px;""></img>",7,html-button-response,319,1920054,0.0-18.0-19.0,56077,List2B,black,man,,TRUE,7,,,,,
null,CORRECT,,html-keyboard-response,320,1921564,0.0-18.0-20.0-0.0,56077,List2B,black,man,,,,null,,,,
1982,"<img src=""portrait/BM1.jpg""style=""width:400px;height:400px;""></img>",4,html-button-response,321,1923549,0.0-18.0-22.0,56077,List2B,black,man,,TRUE,4,,,,,
null,CORRECT,,html-keyboard-response,322,1925053,0.0-18.0-23.0-0.0,56077,List2B,black,man,,,,null,,,,
1883,<p>You got 8 out of 8 right first time. Press Continue.</p>,0,html-button-response,323,1926942,0.0-18.0-25.0,56077,List2B,black,man,,,,,,,,
null,"<div style=""font-size:60px;"">+</div>",,html-keyboard-response,324,1928449,0.0-19.0-0.0,56077,List2B,black,man,,,,null,,,,
null,"<img src=""stim_listB/shout3.gif""</stim_listB>",,html-keyboard-response,325,1930453,0.0-19.0-1.0,56077,List2B,black,man,,,,null,,,,
null,is shouting at,,html-keyboard-response,326,1932457,0.0-19.0-2.0,56077,List2B,black,man,,,,null,,,,
10408,,,survey-text,327,1942867,0.0-19.0-3.0,56077,List2B,black,man,,,,,"{""Q0"":""Beth is shouting at Fred.""}","<img src=""stim_listB/shout3.gif""</stim_listB>",is shouting at,
null,"<div style=""font-size:60px;"">+</div>",,html-keyboard-response,328,1943371,0.0-19.0-0.1,56077,List2B,black,man,,,,null,,,,
null,"<img src=""stim_listB/hug6.gif""</stim_listB>",,html-keyboard-response,329,1945380,0.0-19.0-1.1,56077,List2B,black,man,,,,null,,,,
null,are hugging each other,,html-keyboard-response,330,1947382,0.0-19.0-2.1,56077,List2B,black,man,,,,null,,,,
11109,,,survey-text,331,1958494,0.0-19.0-3.1,56077,List2B,black,man,,,,,"{""Q0"":""Mike and Dave are hugging each other.""}","<img src=""stim_listB/hug6.gif""</stim_listB>",are hugging each other,
null,"<div style=""font-size:60px;"">+</div>",,html-keyboard-response,332,1958999,0.0-19.0-0.2,56077,List2B,black,man,,,,null,,,,
null,"<img src=""stim_listB/shout7.gif""</stim_listB>",,html-keyboard-response,333,1961003,0.0-19.0-1.2,56077,List2B,black,man,,,,null,,,,
null,is shouting at,,html-keyboard-response,334,1963009,0.0-19.0-2.2,56077,List2B,black,man,,,,null,,,,
17355,,,survey-text,335,1980367,0.0-19.0-3.2,56077,List2B,black,man,,,,,"{""Q0"":""Beth is shouting at Ruth.""}","<img src=""stim_listB/shout7.gif""</stim_listB>",is shouting at,
null,"<div style=""font-size:60px;"">+</div>",,html-keyboard-response,336,1980870,0.0-19.0-0.3,56077,List2B,black,man,,,,null,,,,
null,"<img src=""stim_listB/talk6.gif""</stim_listB>",,html-keyboard-response,337,1982879,0.0-19.0-1.3,56077,List2B,black,man,,,,null,,,,
null,are talking to each other,,html-keyboard-response,338,1984881,0.0-19.0-2.3,56077,List2B,black,man,,,,null,,,,
26714,,,survey-text,339,2011597,0.0-19.0-3.3,56077,List2B,black,man,,,,,"{""Q0"":""Fred and Dave are talking to each other.""}","<img src=""stim_listB/talk6.gif""</stim_listB>",are talking to each other,
null,"<div style=""font-size:60px;"">+</div>",,html-keyboard-response,340,2012103,0.0-19.0-0.4,56077,List2B,black,man,,,,null,,,,
null,"<img src=""stim_listB/kiss2.gif""</stim_listB>",,html-keyboard-response,341,2014109,0.0-19.0-1.4,56077,List2B,black,man,,,,null,,,,
null,are kissing each other,,html-keyboard-response,342,2016113,0.0-19.0-2.4,56077,List2B,black,man,,,,null,,,,
10328,,,survey-text,343,2026443,0.0-19.0-3.4,56077,List2B,black,man,,,,,"{""Q0"":""Jane and Dave are kissing each other.""}","<img src=""stim_listB/kiss2.gif""</stim_listB>",are kissing each other,
null,"<div style=""font-size:60px;"">+</div>",,html-keyboard-response,344,2026950,0.0-19.0-0.5,56077,List2B,black,man,,,,null,,,,
null,"<img src=""stim_listB/fight4.gif""</stim_listB>",,html-keyboard-response,345,2028955,0.0-19.0-1.5,56077,List2B,black,man,,,,null,,,,
null,are fighting each other,,html-keyboard-response,346,2030958,0.0-19.0-2.5,56077,List2B,black,man,,,,null,,,,
15332,,,survey-text,347,2046293,0.0-19.0-3.5,56077,List2B,black,man,,,,,"{""Q0"":""Fred and Beth are fighting each other.""}","<img src=""stim_listB/fight4.gif""</stim_listB>",are fighting each other,
null,"<div style=""font-size:60px;"">+</div>",,html-keyboard-response,348,2046798,0.0-19.0-0.6,56077,List2B,black,man,,,,null,,,,
null,"<img src=""stim_listB/dance8.gif""</stim_listB>",,html-keyboard-response,349,2048803,0.0-19.0-1.6,56077,List2B,black,man,,,,null,,,,
null,are dancing with each other,,html-keyboard-response,350,2050809,0.0-19.0-2.6,56077,List2B,black,man,,,,null,,,,
13804,,,survey-text,351,2064616,0.0-19.0-3.6,56077,List2B,black,man,,,,,"{""Q0"":""Jane and Beth are dancing with each other.""}","<img src=""stim_listB/dance8.gif""</stim_listB>",are dancing with each other,
null,"<div style=""font-size:60px;"">+</div>",,html-keyboard-response,352,2065121,0.0-19.0-0.7,56077,List2B,black,man,,,,null,,,,
null,"<img src=""stim_listB/dance7.gif""</stim_listB>",,html-keyboard-response,353,2067125,0.0-19.0-1.7,56077,List2B,black,man,,,,null,,,,
null,is dancing with,,html-keyboard-response,354,2069129,0.0-19.0-2.7,56077,List2B,black,man,,,,null,,,,
9969,,,survey-text,355,2079101,0.0-19.0-3.7,56077,List2B,black,man,,,,,"{""Q0"":""Kate is dancing with Ruth.""}","<img src=""stim_listB/dance7.gif""</stim_listB>",is dancing with,
null,"<div style=""font-size:60px;"">+</div>",,html-keyboard-response,356,2079608,0.0-19.0-0.8,56077,List2B,black,man,,,,null,,,,
null,"<img src=""stim_listB/touch3.gif""</stim_listB>",,html-keyboard-response,357,2081614,0.0-19.0-1.8,56077,List2B,black,man,,,,null,,,,
null,is touching,,html-keyboard-response,358,2083618,0.0-19.0-2.8,56077,List2B,black,man,,,,null,,,,
8334,,,survey-text,359,2091954,0.0-19.0-3.8,56077,List2B,black,man,,,,,"{""Q0"":""Mike is touching Kate.""}","<img src=""stim_listB/touch3.gif""</stim_listB>",is touching,
null,"<div style=""font-size:60px;"">+</div>",,html-keyboard-response,360,2092457,0.0-19.0-0.9,56077,List2B,black,man,,,,null,,,,
null,"<img src=""stim_listB/hug4.gif""</stim_listB>",,html-keyboard-response,361,2094463,0.0-19.0-1.9,56077,List2B,black,man,,,,null,,,,
null,are hugging each other,,html-keyboard-response,362,2096467,0.0-19.0-2.9,56077,List2B,black,man,,,,null,,,,
12385,,,survey-text,363,2108854,0.0-19.0-3.9,56077,List2B,black,man,,,,,"{""Q0"":""Kate and Mike are hugging each other.""}","<img src=""stim_listB/hug4.gif""</stim_listB>",are hugging each other,
null,"<div style=""font-size:60px;"">+</div>",,html-keyboard-response,364,2109360,0.0-19.0-0.10,56077,List2B,black,man,,,,null,,,,
null,"<img src=""stim_listB/argue5.gif""</stim_listB>",,html-keyboard-response,365,2111365,0.0-19.0-1.10,56077,List2B,black,man,,,,null,,,,
null,is arguing with,,html-keyboard-response,366,2113372,0.0-19.0-2.10,56077,List2B,black,man,,,,null,,,,
8878,,,survey-text,367,2122253,0.0-19.0-3.10,56077,List2B,black,man,,,,,"{""Q0"":""Fred is arguing with Dave.""}","<img src=""stim_listB/argue5.gif""</stim_listB>",is arguing with,
null,"<div style=""font-size:60px;"">+</div>",,html-keyboard-response,368,2122761,0.0-19.0-0.11,56077,List2B,black,man,,,,null,,,,
null,"<img src=""stim_listB/marry2.gif""</stim_listB>",,html-keyboard-response,369,2124769,0.0-19.0-1.11,56077,List2B,black,man,,,,null,,,,
null,are marrying each other,,html-keyboard-response,370,2126773,0.0-19.0-2.11,56077,List2B,black,man,,,,null,,,,
13492,,,survey-text,371,2140268,0.0-19.0-3.11,56077,List2B,black,man,,,,,"{""Q0"":""Jane and Luke are marrying each other.""}","<img src=""stim_listB/marry2.gif""</stim_listB>",are marrying each other,
null,"<div style=""font-size:60px;"">+</div>",,html-keyboard-response,372,2140775,0.0-19.0-0.12,56077,List2B,black,man,,,,null,,,,
null,"<img src=""stim_listB/fight5.gif""</stim_listB>",,html-keyboard-response,373,2142779,0.0-19.0-1.12,56077,List2B,black,man,,,,null,,,,
null,is fighting,,html-keyboard-response,374,2144788,0.0-19.0-2.12,56077,List2B,black,man,,,,null,,,,
9964,,,survey-text,375,2154755,0.0-19.0-3.12,56077,List2B,black,man,,,,,"{""Q0"":""Mike is fighting Dave.""}","<img src=""stim_listB/fight5.gif""</stim_listB>",is fighting,
null,"<div style=""font-size:60px;"">+</div>",,html-keyboard-response,376,2155257,0.0-19.0-0.13,56077,List2B,black,man,,,,null,,,,
null,"<img src=""stim_listB/shout8.gif""</stim_listB>",,html-keyboard-response,377,2157264,0.0-19.0-1.13,56077,List2B,black,man,,,,null,,,,
null,are shouting at each other,,html-keyboard-response,378,2159269,0.0-19.0-2.13,56077,List2B,black,man,,,,null,,,,
12682,,,survey-text,379,2171954,0.0-19.0-3.13,56077,List2B,black,man,,,,,"{""Q0"":""Jane and Kate are shouting at each other.""}","<img src=""stim_listB/shout8.gif""</stim_listB>",are shouting at each other,
null,"<div style=""font-size:60px;"">+</div>",,html-keyboard-response,380,2172459,0.0-19.0-0.14,56077,List2B,black,man,,,,null,,,,
null,"<img src=""stim_listB/kiss7.gif""</stim_listB>",,html-keyboard-response,381,2174464,0.0-19.0-1.14,56077,List2B,black,man,,,,null,,,,
null,is kissing,,html-keyboard-response,382,2176466,0.0-19.0-2.14,56077,List2B,black,man,,,,null,,,,
12035,,,survey-text,383,2188503,0.0-19.0-3.14,56077,List2B,black,man,,,,,"{""Q0"":""Beth is kissing Ruth.""}","<img src=""stim_listB/kiss7.gif""</stim_listB>",is kissing,
null,"<div style=""font-size:60px;"">+</div>",,html-keyboard-response,384,2189009,0.0-19.0-0.15,56077,List2B,black,man,,,,null,,,,
null,"<img src=""stim_listB/talk5.gif""</stim_listB>",,html-keyboard-response,385,2191015,0.0-19.0-1.15,56077,List2B,black,man,,,,null,,,,
null,is talking to,,html-keyboard-response,386,2193020,0.0-19.0-2.15,56077,List2B,black,man,,,,null,,,,
8590,,,survey-text,387,2201613,0.0-19.0-3.15,56077,List2B,black,man,,,,,"{""Q0"":""Mike is talking to Luke.""}","<img src=""stim_listB/talk5.gif""</stim_listB>",is talking to,
null,"<div style=""font-size:60px;"">+</div>",,html-keyboard-response,388,2202115,0.0-19.0-0.16,56077,List2B,black,man,,,,null,,,,
null,"<img src=""stim_listB/shout5.gif""</stim_listB>",,html-keyboard-response,389,2204121,0.0-19.0-1.16,56077,List2B,black,man,,,,null,,,,
null,is shouting at,,html-keyboard-response,390,2206126,0.0-19.0-2.16,56077,List2B,black,man,,,,null,,,,
11025,,,survey-text,391,2217153,0.0-19.0-3.16,56077,List2B,black,man,,,,,"{""Q0"":""Fred is shouting at Luke.""}","<img src=""stim_listB/shout5.gif""</stim_listB>",is shouting at,
null,"<div style=""font-size:60px;"">+</div>",,html-keyboard-response,392,2217658,0.0-19.0-0.17,56077,List2B,black,man,,,,null,,,,
null,"<img src=""stim_listB/hug8.gif""</stim_listB>",,html-keyboard-response,393,2219663,0.0-19.0-1.17,56077,List2B,black,man,,,,null,,,,
null,are hugging each other,,html-keyboard-response,394,2221670,0.0-19.0-2.17,56077,List2B,black,man,,,,null,,,,
11685,,,survey-text,395,2233357,0.0-19.0-3.17,56077,List2B,black,man,,,,,"{""Q0"":""Jane and Kate are hugging each other.""}","<img src=""stim_listB/hug8.gif""</stim_listB>",are hugging each other,
null,"<div style=""font-size:60px;"">+</div>",,html-keyboard-response,396,2233863,0.0-19.0-0.18,56077,List2B,black,man,,,,null,,,,
null,"<img src=""stim_listB/argue2.gif""</stim_listB>",,html-keyboard-response,397,2235868,0.0-19.0-1.18,56077,List2B,black,man,,,,null,,,,
null,are arguing with each other,,html-keyboard-response,398,2237872,0.0-19.0-2.18,56077,List2B,black,man,,,,null,,,,
14259,,,survey-text,399,2252133,0.0-19.0-3.18,56077,List2B,black,man,,,,,"{""Q0"":""Jane and Luke are arguing with each other.""}","<img src=""stim_listB/argue2.gif""</stim_listB>",are arguing with each other,
null,"<div style=""font-size:60px;"">+</div>",,html-keyboard-response,400,2252639,0.0-19.0-0.19,56077,List2B,black,man,,,,null,,,,
null,"<img src=""stim_listB/talk2.gif""</stim_listB>",,html-keyboard-response,401,2254643,0.0-19.0-1.19,56077,List2B,black,man,,,,null,,,,
null,are talking to each other,,html-keyboard-response,402,2256646,0.0-19.0-2.19,56077,List2B,black,man,,,,null,,,,
11400,,,survey-text,403,2268048,0.0-19.0-3.19,56077,List2B,black,man,,,,,"{""Q0"":""Ruth and Dave are talking to each other.""}","<img src=""stim_listB/talk2.gif""</stim_listB>",are talking to each other,
3221,<p>Thank you for completing that task.</p><p>The final part of this session is a short questionnaire.</p><p>Press Continue.</p>,0,html-button-response,404,2271272,0.0-20.0,56077,List2B,black,man,,,,,,,,
43873,,,survey-text,405,2316154,0.0-21.0,56077,List2B,black,man,,,,,"{""Q0"":""25"",""Q1"":""English"",""Q2"":""English"",""Q3"":""United States"",""Q4"":""African American"",""Q5"":""male""}",,,demographics
32578,,,survey-likert,406,2348748,0.0-22.0,56077,List2B,black,man,,,,,"{""Q0"":5,""Q1"":5,""Q2"":5,""Q3"":5,""Q4"":5,""Q5"":5,""Q6"":5,""Q7"":3,""Q8"":5,""Q9"":5,""Q10"":5,""Q11"":5,""Q12"":5,""Q13"":5}",,,likert_race
38606,,,survey-likert,407,2387373,0.0-23.0,56077,List2B,black,man,,,,,"{""Q0"":3,""Q1"":3,""Q2"":3,""Q3"":5,""Q4"":"""",""Q5"":3,""Q6"":3,""Q7"":3,""Q8"":3,""Q9"":3,""Q10"":3,""Q11"":3,""Q12"":3,""Q13"":3}",,,likert_gender
16174,,,survey-text,408,2403552,0.0-24.0,56077,List2B,black,man,,,,,"{""Q0"":""ccc""}",,,worker_id
2682,,,external-html,409,2406513,0.0-25.0,56077,List2B,black,man,debrief.html,,,,,,,
