rt,stimulus,button_pressed,trial_type,trial_index,time_elapsed,internal_node_id,subject,list,ppt_race,ppt_gender,url,first_guess,correct,key_press,responses,image_type,phrase_type,test_part
1914,Welcome to the experiment. Press Continue to begin.,0,html-button-response,0,1920,0.0-0.0,57083,List1A,white,man,,,,,,,,
30678,,,external-html,1,33660,0.0-1.0,57083,List1A,white,man,consent.html,,,,,,,
14336,"<p>On the next page, you will see portraits of 8 people and their names.</p><p>Your first task is to take a few minutes to memorise the names of these people.</p><p>You will have to recall their names during the rest of the experiment, so it is</p><p>essential that you try to memorise these people and their names as best as you can.</p><br><p><strong>You will then be tested on your memory of these names and portraits.</strong></p><br><p>The experiment will start after you have completed this memory test.</p><br><p>Ready?</p>",0,html-button-response,2,47999,0.0-2.0,57083,List1A,white,man,,,,,,,,
166599,"<img src='img/portrait_matrix_list1.JPG' style='width:900px;height:500px;''></img><p>If you have memorised all the portraits and names and are ready to start, press Continue.</p><p><strong>Please note: Your memory of these faces will be tested 4 times during this experiment.</strong></p>",0,html-button-response,3,215621,0.0-3.0-0.0,57083,List1A,white,man,,,,,,,,
2878,"<img src=""portrait/BM2.jpg""style=""width:400px;height:400px;""></img>",5,html-button-response,4,219520,0.0-3.0-1.0,57083,List1A,white,man,,TRUE,5,,,,,
null,CORRECT,,html-keyboard-response,5,221058,0.0-3.0-2.0-0.0,57083,List1A,white,man,,,,null,,,,
2514,"<img src=""portrait/WW2.jpg""style=""width:400px;height:400px;""></img>",3,html-button-response,6,223574,0.0-3.0-4.0,57083,List1A,white,man,,TRUE,3,,,,,
null,CORRECT,,html-keyboard-response,7,225097,0.0-3.0-5.0-0.0,57083,List1A,white,man,,,,null,,,,
2500,"<img src=""portrait/WM2.jpg""style=""width:400px;height:400px;""></img>",7,html-button-response,8,227599,0.0-3.0-7.0,57083,List1A,white,man,,TRUE,7,,,,,
null,CORRECT,,html-keyboard-response,9,229138,0.0-3.0-8.0-0.0,57083,List1A,white,man,,,,null,,,,
2599,"<img src=""portrait/WW1.jpg""style=""width:400px;height:400px;""></img>",1,html-button-response,10,231739,0.0-3.0-10.0,57083,List1A,white,man,,TRUE,1,,,,,
null,CORRECT,,html-keyboard-response,11,233278,0.0-3.0-11.0-0.0,57083,List1A,white,man,,,,null,,,,
4261,"<img src=""portrait/BW1.jpg""style=""width:400px;height:400px;""></img>",0,html-button-response,12,237539,0.0-3.0-13.0,57083,List1A,white,man,,TRUE,0,,,,,
null,CORRECT,,html-keyboard-response,13,239078,0.0-3.0-14.0-0.0,57083,List1A,white,man,,,,null,,,,
2519,"<img src=""portrait/BM1.jpg""style=""width:400px;height:400px;""></img>",4,html-button-response,14,241599,0.0-3.0-16.0,57083,List1A,white,man,,TRUE,4,,,,,
null,CORRECT,,html-keyboard-response,15,243138,0.0-3.0-17.0-0.0,57083,List1A,white,man,,,,null,,,,
2199,"<img src=""portrait/BW2.jpg""style=""width:400px;height:400px;""></img>",2,html-button-response,16,245339,0.0-3.0-19.0,57083,List1A,white,man,,TRUE,2,,,,,
null,CORRECT,,html-keyboard-response,17,246878,0.0-3.0-20.0-0.0,57083,List1A,white,man,,,,null,,,,
2879,"<img src=""portrait/WM1.jpg""style=""width:400px;height:400px;""></img>",6,html-button-response,18,249759,0.0-3.0-22.0,57083,List1A,white,man,,TRUE,6,,,,,
null,CORRECT,,html-keyboard-response,19,251297,0.0-3.0-23.0-0.0,57083,List1A,white,man,,,,null,,,,
3499,<p>You got 8 out of 8 right first time. Press Continue.</p>,0,html-button-response,20,254798,0.0-3.0-25.0,57083,List1A,white,man,,,,,,,,
32119,"<p>In this experiment, you will view photographs of the people from the memory game interacting.</p><p>By using the <strong>exact</strong> phrase given <i>after</i> the photograph appears and recalling the correct names of the people in the photographs, form a sentence describing the interaction. You do not need to capitalise names.</p><p>Type your answer in the space provided. Please complete every sentence before moving onto the next trial.</p><p>You will only have a few seconds to memorise each given photograph and phrase before you can respond, so try your best to focus.</p><p>An example is given below. Press 'Continue' when you are ready.</p><img src='img/speaking_example_v2.jpg' style='width:800px;height:460px;''></img>",0,html-button-response,21,287940,0.0-4.0,57083,List1A,white,man,,,,,,,,
2181,"<p>Before the experiment starts, you will watch two example trials. Press 'Continue'.</p>",0,html-button-response,22,291139,0.0-5.0,57083,List1A,white,man,,,,,,,,
null,<img src='img/speaking_WW.gif'></img>,,html-keyboard-response,23,294178,0.0-6.0,57083,List1A,white,man,,,,null,,,,
null,<p>is speaking to</p>,,html-keyboard-response,24,296198,0.0-7.0,57083,List1A,white,man,,,,null,,,,
5098,<p><b>Answer:</b> kate is speaking to beth</p>,0,html-button-response,25,301298,0.0-8.0,57083,List1A,white,man,,,,,,,,
null,<img src='img/pointing_BM.gif'></img>,,html-keyboard-response,26,304337,0.0-9.0,57083,List1A,white,man,,,,null,,,,
null,<p>are pointing at each other</p>,,html-keyboard-response,27,306357,0.0-10.0,57083,List1A,white,man,,,,null,,,,
2700,<p><b>Answer:</b> luke and dave are pointing at each other</p>,0,html-button-response,28,309058,0.0-11.0,57083,List1A,white,man,,,,,,,,
7799,"<p>Ready to start the experiment?</p><br><p><strong>Remember to describe the picture using a full sentence,</strong></p><p><strong>that combines the names of the people with the given phrase.</strong></p><p><strong>If you do not do this correctly you will not be paid.</strong></p><p><strong> You do not need to capitalise names or use punctuation.</strong></p><br><p>Press 'Continue' to begin.</p>",0,html-button-response,29,317879,0.0-12.0,57083,List1A,white,man,,,,,,,,
null,"<div style=""font-size:60px;"">+</div>",,html-keyboard-response,30,319418,0.0-13.0-0.0,57083,List1A,white,man,,,,null,,,,
null,"<img src=""stim_listA/dance5.gif""</stim_listA>",,html-keyboard-response,31,321436,0.0-13.0-1.0,57083,List1A,white,man,,,,null,,,,
null,is dancing with,,html-keyboard-response,32,323457,0.0-13.0-2.0,57083,List1A,white,man,,,,null,,,,
15000,,,survey-text,33,338459,0.0-13.0-3.0,57083,List1A,white,man,,,,,"{""Q0"":""Fred is dancing with Dave""}","<img src=""stim_listA/dance5.gif""</stim_listA>",is dancing with,
null,"<div style=""font-size:60px;"">+</div>",,html-keyboard-response,34,338977,0.0-13.0-0.1,57083,List1A,white,man,,,,null,,,,
null,"<img src=""stim_listA/fight8.gif""</stim_listA>",,html-keyboard-response,35,340998,0.0-13.0-1.1,57083,List1A,white,man,,,,null,,,,
null,are fighting each other,,html-keyboard-response,36,343017,0.0-13.0-2.1,57083,List1A,white,man,,,,null,,,,
27649,,,survey-text,37,370670,0.0-13.0-3.1,57083,List1A,white,man,,,,,"{""Q0"":""Beth and Ruth are fighting with each other""}","<img src=""stim_listA/fight8.gif""</stim_listA>",are fighting each other,
null,"<div style=""font-size:60px;"">+</div>",,html-keyboard-response,38,371188,0.0-13.0-0.2,57083,List1A,white,man,,,,null,,,,
null,"<img src=""stim_listA/dance4.gif""</stim_listA>",,html-keyboard-response,39,373207,0.0-13.0-1.2,57083,List1A,white,man,,,,null,,,,
null,are dancing with each other,,html-keyboard-response,40,375227,0.0-13.0-2.2,57083,List1A,white,man,,,,null,,,,
12159,,,survey-text,41,387388,0.0-13.0-3.2,57083,List1A,white,man,,,,,"{""Q0"":""Dave is dancing with Ruth""}","<img src=""stim_listA/dance4.gif""</stim_listA>",are dancing with each other,
null,"<div style=""font-size:60px;"">+</div>",,html-keyboard-response,42,387907,0.0-13.0-0.3,57083,List1A,white,man,,,,null,,,,
null,"<img src=""stim_listA/fight4.gif""</stim_listA>",,html-keyboard-response,43,389927,0.0-13.0-1.3,57083,List1A,white,man,,,,null,,,,
null,are fighting each other,,html-keyboard-response,44,391944,0.0-13.0-2.3,57083,List1A,white,man,,,,null,,,,
25704,,,survey-text,45,417648,0.0-13.0-3.3,57083,List1A,white,man,,,,,"{""Q0"":""Luke and Ruth are fighting each other""}","<img src=""stim_listA/fight4.gif""</stim_listA>",are fighting each other,
null,"<div style=""font-size:60px;"">+</div>",,html-keyboard-response,46,418166,0.0-13.0-0.4,57083,List1A,white,man,,,,null,,,,
null,"<img src=""stim_listA/shout3.gif""</stim_listA>",,html-keyboard-response,47,420187,0.0-13.0-1.4,57083,List1A,white,man,,,,null,,,,
null,is shouting at,,html-keyboard-response,48,422207,0.0-13.0-2.4,57083,List1A,white,man,,,,null,,,,
8320,,,survey-text,49,430529,0.0-13.0-3.4,57083,List1A,white,man,,,,,"{""Q0"":""Luke is shouting at Ruth""}","<img src=""stim_listA/shout3.gif""</stim_listA>",is shouting at,
null,"<div style=""font-size:60px;"">+</div>",,html-keyboard-response,50,431047,0.0-13.0-0.5,57083,List1A,white,man,,,,null,,,,
null,"<img src=""stim_listA/hug3.gif""</stim_listA>",,html-keyboard-response,51,433067,0.0-13.0-1.5,57083,List1A,white,man,,,,null,,,,
null,is hugging,,html-keyboard-response,52,435087,0.0-13.0-2.5,57083,List1A,white,man,,,,null,,,,
7519,,,survey-text,53,442609,0.0-13.0-3.5,57083,List1A,white,man,,,,,"{""Q0"":""Luke is hugging Ruth""}","<img src=""stim_listA/hug3.gif""</stim_listA>",is hugging,
null,"<div style=""font-size:60px;"">+</div>",,html-keyboard-response,54,443127,0.0-13.0-0.6,57083,List1A,white,man,,,,null,,,,
null,"<img src=""stim_listA/fight1.gif""</stim_listA>",,html-keyboard-response,55,445147,0.0-13.0-1.6,57083,List1A,white,man,,,,null,,,,
null,is fighting,,html-keyboard-response,56,447167,0.0-13.0-2.6,57083,List1A,white,man,,,,null,,,,
7959,,,survey-text,57,455128,0.0-13.0-3.6,57083,List1A,white,man,,,,,"{""Q0"":""Mike is fighting Kate""}","<img src=""stim_listA/fight1.gif""</stim_listA>",is fighting,
null,"<div style=""font-size:60px;"">+</div>",,html-keyboard-response,58,455647,0.0-13.0-0.7,57083,List1A,white,man,,,,null,,,,
null,"<img src=""stim_listA/kiss6.gif""</stim_listA>",,html-keyboard-response,59,457666,0.0-13.0-1.7,57083,List1A,white,man,,,,null,,,,
null,are kissing each other,,html-keyboard-response,60,459687,0.0-13.0-2.7,57083,List1A,white,man,,,,null,,,,
11760,,,survey-text,61,471448,0.0-13.0-3.7,57083,List1A,white,man,,,,,"{""Q0"":""Mike and Dave are kissing each other.""}","<img src=""stim_listA/kiss6.gif""</stim_listA>",are kissing each other,
null,"<div style=""font-size:60px;"">+</div>",,html-keyboard-response,62,471967,0.0-13.0-0.8,57083,List1A,white,man,,,,null,,,,
null,"<img src=""stim_listA/marry3.gif""</stim_listA>",,html-keyboard-response,63,473987,0.0-13.0-1.8,57083,List1A,white,man,,,,null,,,,
null,is marrying,,html-keyboard-response,64,476007,0.0-13.0-2.8,57083,List1A,white,man,,,,null,,,,
9520,,,survey-text,65,485527,0.0-13.0-3.8,57083,List1A,white,man,,,,,"{""Q0"":""Dave is marrying Ruth""}","<img src=""stim_listA/marry3.gif""</stim_listA>",is marrying,
null,"<div style=""font-size:60px;"">+</div>",,html-keyboard-response,66,486047,0.0-13.0-0.9,57083,List1A,white,man,,,,null,,,,
null,"<img src=""stim_listA/talk8.gif""</stim_listA>",,html-keyboard-response,67,488057,0.0-13.0-1.9,57083,List1A,white,man,,,,null,,,,
null,are talking to each other,,html-keyboard-response,68,490077,0.0-13.0-2.9,57083,List1A,white,man,,,,null,,,,
12821,,,survey-text,69,502898,0.0-13.0-3.9,57083,List1A,white,man,,,,,"{""Q0"":""Kate and Ruth are talking to each other.""}","<img src=""stim_listA/talk8.gif""</stim_listA>",are talking to each other,
null,"<div style=""font-size:60px;"">+</div>",,html-keyboard-response,70,503417,0.0-13.0-0.10,57083,List1A,white,man,,,,null,,,,
null,"<img src=""stim_listA/marry8.gif""</stim_listA>",,html-keyboard-response,71,505437,0.0-13.0-1.10,57083,List1A,white,man,,,,null,,,,
null,are marrying each other,,html-keyboard-response,72,507437,0.0-13.0-2.10,57083,List1A,white,man,,,,null,,,,
9360,,,survey-text,73,516798,0.0-13.0-3.10,57083,List1A,white,man,,,,,"{""Q0"":""Jane and Beth are marrying each other.""}","<img src=""stim_listA/marry8.gif""</stim_listA>",are marrying each other,
null,"<div style=""font-size:60px;"">+</div>",,html-keyboard-response,74,517317,0.0-13.0-0.11,57083,List1A,white,man,,,,null,,,,
null,"<img src=""stim_listA/marry5.gif""</stim_listA>",,html-keyboard-response,75,519337,0.0-13.0-1.11,57083,List1A,white,man,,,,null,,,,
null,is marrying,,html-keyboard-response,76,521358,0.0-13.0-2.11,57083,List1A,white,man,,,,null,,,,
8879,,,survey-text,77,530239,0.0-13.0-3.11,57083,List1A,white,man,,,,,"{""Q0"":""Luke is marrying Mike.""}","<img src=""stim_listA/marry5.gif""</stim_listA>",is marrying,
null,"<div style=""font-size:60px;"">+</div>",,html-keyboard-response,78,530757,0.0-13.0-0.12,57083,List1A,white,man,,,,null,,,,
null,"<img src=""stim_listA/kiss7.gif""</stim_listA>",,html-keyboard-response,79,532777,0.0-13.0-1.12,57083,List1A,white,man,,,,null,,,,
null,is kissing,,html-keyboard-response,80,534797,0.0-13.0-2.12,57083,List1A,white,man,,,,null,,,,
8539,,,survey-text,81,543339,0.0-13.0-3.12,57083,List1A,white,man,,,,,"{""Q0"":""Beth is kissing Ruth.""}","<img src=""stim_listA/kiss7.gif""</stim_listA>",is kissing,
null,"<div style=""font-size:60px;"">+</div>",,html-keyboard-response,82,543855,0.0-13.0-0.13,57083,List1A,white,man,,,,null,,,,
null,"<img src=""stim_listA/fight7.gif""</stim_listA>",,html-keyboard-response,83,545877,0.0-13.0-1.13,57083,List1A,white,man,,,,null,,,,
null,is fighting,,html-keyboard-response,84,547897,0.0-13.0-2.13,57083,List1A,white,man,,,,null,,,,
7920,,,survey-text,85,555819,0.0-13.0-3.13,57083,List1A,white,man,,,,,"{""Q0"":""Jane is fighting Kate""}","<img src=""stim_listA/fight7.gif""</stim_listA>",is fighting,
null,"<div style=""font-size:60px;"">+</div>",,html-keyboard-response,86,556337,0.0-13.0-0.14,57083,List1A,white,man,,,,null,,,,
null,"<img src=""stim_listA/talk2.gif""</stim_listA>",,html-keyboard-response,87,558358,0.0-13.0-1.14,57083,List1A,white,man,,,,null,,,,
null,are talking to each other,,html-keyboard-response,88,560377,0.0-13.0-2.14,57083,List1A,white,man,,,,null,,,,
13600,,,survey-text,89,573979,0.0-13.0-3.14,57083,List1A,white,man,,,,,"{""Q0"":""Beth and Mike are talking to each other.""}","<img src=""stim_listA/talk2.gif""</stim_listA>",are talking to each other,
null,"<div style=""font-size:60px;"">+</div>",,html-keyboard-response,90,574497,0.0-13.0-0.15,57083,List1A,white,man,,,,null,,,,
null,"<img src=""stim_listA/argue7.gif""</stim_listA>",,html-keyboard-response,91,576516,0.0-13.0-1.15,57083,List1A,white,man,,,,null,,,,
null,is arguing with,,html-keyboard-response,92,578537,0.0-13.0-2.15,57083,List1A,white,man,,,,null,,,,
20701,,,survey-text,93,599239,0.0-13.0-3.15,57083,List1A,white,man,,,,,"{""Q0"":""Ruth is arguing with Kate.""}","<img src=""stim_listA/argue7.gif""</stim_listA>",is arguing with,
null,"<div style=""font-size:60px;"">+</div>",,html-keyboard-response,94,599756,0.0-13.0-0.16,57083,List1A,white,man,,,,null,,,,
null,"<img src=""stim_listA/argue6.gif""</stim_listA>",,html-keyboard-response,95,601777,0.0-13.0-1.16,57083,List1A,white,man,,,,null,,,,
null,are arguing with each other,,html-keyboard-response,96,603797,0.0-13.0-2.16,57083,List1A,white,man,,,,null,,,,
13395,,,survey-text,97,617194,0.0-13.0-3.16,57083,List1A,white,man,,,,,"{""Q0"":""Fred and Dave are fighting each other.""}","<img src=""stim_listA/argue6.gif""</stim_listA>",are arguing with each other,
null,"<div style=""font-size:60px;"">+</div>",,html-keyboard-response,98,617698,0.0-13.0-0.17,57083,List1A,white,man,,,,null,,,,
null,"<img src=""stim_listA/touch6.gif""</stim_listA>",,html-keyboard-response,99,619717,0.0-13.0-1.17,57083,List1A,white,man,,,,null,,,,
null,are touching each other,,html-keyboard-response,100,621737,0.0-13.0-2.17,57083,List1A,white,man,,,,null,,,,
10080,,,survey-text,101,631818,0.0-13.0-3.17,57083,List1A,white,man,,,,,"{""Q0"":""Luke and Fred are touching each other. ""}","<img src=""stim_listA/touch6.gif""</stim_listA>",are touching each other,
null,"<div style=""font-size:60px;"">+</div>",,html-keyboard-response,102,632335,0.0-13.0-0.18,57083,List1A,white,man,,,,null,,,,
null,"<img src=""stim_listA/kiss1.gif""</stim_listA>",,html-keyboard-response,103,634358,0.0-13.0-1.18,57083,List1A,white,man,,,,null,,,,
null,is kissing,,html-keyboard-response,104,636370,0.0-13.0-2.18,57083,List1A,white,man,,,,null,,,,
7727,,,survey-text,105,644098,0.0-13.0-3.18,57083,List1A,white,man,,,,,"{""Q0"":""Beth is kissing Fred.""}","<img src=""stim_listA/kiss1.gif""</stim_listA>",is kissing,
null,"<div style=""font-size:60px;"">+</div>",,html-keyboard-response,106,644617,0.0-13.0-0.19,57083,List1A,white,man,,,,null,,,,
null,"<img src=""stim_listA/fight6.gif""</stim_listA>",,html-keyboard-response,107,646637,0.0-13.0-1.19,57083,List1A,white,man,,,,null,,,,
null,are fighting each other,,html-keyboard-response,108,648657,0.0-13.0-2.19,57083,List1A,white,man,,,,null,,,,
10281,,,survey-text,109,658938,0.0-13.0-3.19,57083,List1A,white,man,,,,,"{""Q0"":""Luke and Fred are fighting each other.""}","<img src=""stim_listA/fight6.gif""</stim_listA>",are fighting each other,
14519,"<img src='img/portrait_matrix_list1.JPG' style='width:900px;height:500px;''></img><p>If you have memorised all the portraits and names and are ready to start, press Continue.</p><p><strong>Please note: Your memory of these faces will be tested 4 times during this experiment.</strong></p>",0,html-button-response,110,673459,0.0-14.0-0.0,57083,List1A,white,man,,,,,,,,
3639,"<img src=""portrait/BM1.jpg""style=""width:400px;height:400px;""></img>",4,html-button-response,111,678118,0.0-14.0-1.0,57083,List1A,white,man,,TRUE,4,,,,,
null,CORRECT,,html-keyboard-response,112,679657,0.0-14.0-2.0-0.0,57083,List1A,white,man,,,,null,,,,
2580,"<img src=""portrait/BM2.jpg""style=""width:400px;height:400px;""></img>",5,html-button-response,113,682239,0.0-14.0-4.0,57083,List1A,white,man,,TRUE,5,,,,,
null,CORRECT,,html-keyboard-response,114,683777,0.0-14.0-5.0-0.0,57083,List1A,white,man,,,,null,,,,
2018,"<img src=""portrait/WM2.jpg""style=""width:400px;height:400px;""></img>",7,html-button-response,115,685799,0.0-14.0-7.0,57083,List1A,white,man,,TRUE,7,,,,,
null,CORRECT,,html-keyboard-response,116,687337,0.0-14.0-8.0-0.0,57083,List1A,white,man,,,,null,,,,
1979,"<img src=""portrait/BW2.jpg""style=""width:400px;height:400px;""></img>",2,html-button-response,117,689319,0.0-14.0-10.0,57083,List1A,white,man,,TRUE,2,,,,,
null,CORRECT,,html-keyboard-response,118,690857,0.0-14.0-11.0-0.0,57083,List1A,white,man,,,,null,,,,
2199,"<img src=""portrait/BW1.jpg""style=""width:400px;height:400px;""></img>",1,html-button-response,119,693058,0.0-14.0-13.0,57083,List1A,white,man,,TRUE,0,,,,,
5999,"<img src=""portrait/BW1.jpg""style=""width:400px;height:400px;""></img>",0,html-button-response,120,700079,0.0-14.0-15.0-0.0,57083,List1A,white,man,,FALSE,0,,,,,
null,CORRECT,,html-keyboard-response,121,701617,0.0-14.0-15.0-1.0-0.0,57083,List1A,white,man,,,,null,,,,
2481,"<img src=""portrait/WM1.jpg""style=""width:400px;height:400px;""></img>",6,html-button-response,122,704099,0.0-14.0-16.0,57083,List1A,white,man,,TRUE,6,,,,,
null,CORRECT,,html-keyboard-response,123,705637,0.0-14.0-17.0-0.0,57083,List1A,white,man,,,,null,,,,
2598,"<img src=""portrait/WW2.jpg""style=""width:400px;height:400px;""></img>",1,html-button-response,124,708239,0.0-14.0-19.0,57083,List1A,white,man,,TRUE,3,,,,,
2040,"<img src=""portrait/WW2.jpg""style=""width:400px;height:400px;""></img>",3,html-button-response,125,711298,0.0-14.0-21.0-0.0,57083,List1A,white,man,,FALSE,3,,,,,
null,CORRECT,,html-keyboard-response,126,712836,0.0-14.0-21.0-1.0-0.0,57083,List1A,white,man,,,,null,,,,
1820,"<img src=""portrait/WW1.jpg""style=""width:400px;height:400px;""></img>",1,html-button-response,127,714659,0.0-14.0-22.0,57083,List1A,white,man,,TRUE,1,,,,,
null,CORRECT,,html-keyboard-response,128,716197,0.0-14.0-23.0-0.0,57083,List1A,white,man,,,,null,,,,
1879,<p>You got 6 out of 8 right first time. Press Continue.</p>,0,html-button-response,129,718078,0.0-14.0-25.0,57083,List1A,white,man,,,,,,,,
2621,"As you did not score 100%, the memory game will repeat. Press Continue.",0,html-button-response,130,721718,0.0-14.0-26.0-0.0,57083,List1A,white,man,,,,,,,,
3379,"<img src='img/portrait_matrix_list1.JPG' style='width:900px;height:500px;''></img><p>If you have memorised all the portraits and names and are ready to start, press Continue.</p><p><strong>Please note: Your memory of these faces will be tested 4 times during this experiment.</strong></p>",0,html-button-response,131,726119,0.0-14.1-0.1,57083,List1A,white,man,,,,,,,,
2160,"<img src=""portrait/BM1.jpg""style=""width:400px;height:400px;""></img>",4,html-button-response,132,729299,0.0-14.1-1.1,57083,List1A,white,man,,TRUE,4,,,,,
null,CORRECT,,html-keyboard-response,133,730837,0.0-14.1-2.1-0.1,57083,List1A,white,man,,,,null,,,,
3101,"<img src=""portrait/BM2.jpg""style=""width:400px;height:400px;""></img>",5,html-button-response,134,733939,0.0-14.1-4.1,57083,List1A,white,man,,TRUE,5,,,,,
null,CORRECT,,html-keyboard-response,135,735477,0.0-14.1-5.1-0.1,57083,List1A,white,man,,,,null,,,,
1620,"<img src=""portrait/WM2.jpg""style=""width:400px;height:400px;""></img>",7,html-button-response,136,737099,0.0-14.1-7.1,57083,List1A,white,man,,TRUE,7,,,,,
null,CORRECT,,html-keyboard-response,137,738636,0.0-14.1-8.1-0.1,57083,List1A,white,man,,,,null,,,,
2171,"<img src=""portrait/BW2.jpg""style=""width:400px;height:400px;""></img>",2,html-button-response,138,740809,0.0-14.1-10.1,57083,List1A,white,man,,TRUE,2,,,,,
null,CORRECT,,html-keyboard-response,139,742337,0.0-14.1-11.1-0.1,57083,List1A,white,man,,,,null,,,,
2378,"<img src=""portrait/BW1.jpg""style=""width:400px;height:400px;""></img>",0,html-button-response,140,744718,0.0-14.1-13.1,57083,List1A,white,man,,TRUE,0,,,,,
null,CORRECT,,html-keyboard-response,141,746257,0.0-14.1-14.1-0.1,57083,List1A,white,man,,,,null,,,,
2398,"<img src=""portrait/WM1.jpg""style=""width:400px;height:400px;""></img>",6,html-button-response,142,748658,0.0-14.1-16.1,57083,List1A,white,man,,TRUE,6,,,,,
null,CORRECT,,html-keyboard-response,143,750196,0.0-14.1-17.1-0.1,57083,List1A,white,man,,,,null,,,,
2320,"<img src=""portrait/WW2.jpg""style=""width:400px;height:400px;""></img>",3,html-button-response,144,752519,0.0-14.1-19.1,57083,List1A,white,man,,TRUE,3,,,,,
null,CORRECT,,html-keyboard-response,145,754057,0.0-14.1-20.1-0.1,57083,List1A,white,man,,,,null,,,,
1701,"<img src=""portrait/WW1.jpg""style=""width:400px;height:400px;""></img>",1,html-button-response,146,755758,0.0-14.1-22.1,57083,List1A,white,man,,TRUE,1,,,,,
null,CORRECT,,html-keyboard-response,147,757297,0.0-14.1-23.1-0.1,57083,List1A,white,man,,,,null,,,,
1721,<p>You got 8 out of 8 right first time. Press Continue.</p>,0,html-button-response,148,759019,0.0-14.1-25.1,57083,List1A,white,man,,,,,,,,
null,"<div style=""font-size:60px;"">+</div>",,html-keyboard-response,149,760557,0.0-15.0-0.0,57083,List1A,white,man,,,,null,,,,
null,"<img src=""stim_listA/touch5.gif""</stim_listA>",,html-keyboard-response,150,762575,0.0-15.0-1.0,57083,List1A,white,man,,,,null,,,,
null,is touching,,html-keyboard-response,151,764577,0.0-15.0-2.0,57083,List1A,white,man,,,,null,,,,
8580,,,survey-text,152,773159,0.0-15.0-3.0,57083,List1A,white,man,,,,,"{""Q0"":""Dave is touching Mike.""}","<img src=""stim_listA/touch5.gif""</stim_listA>",is touching,
null,"<div style=""font-size:60px;"">+</div>",,html-keyboard-response,153,773677,0.0-15.0-0.1,57083,List1A,white,man,,,,null,,,,
null,"<img src=""stim_listA/touch4.gif""</stim_listA>",,html-keyboard-response,154,775696,0.0-15.0-1.1,57083,List1A,white,man,,,,null,,,,
null,are touching each other,,html-keyboard-response,155,777716,0.0-15.0-2.1,57083,List1A,white,man,,,,null,,,,
13750,,,survey-text,156,791468,0.0-15.0-3.1,57083,List1A,white,man,,,,,"{""Q0"":""Ruth and Luke are touching each other.""}","<img src=""stim_listA/touch4.gif""</stim_listA>",are touching each other,
null,"<div style=""font-size:60px;"">+</div>",,html-keyboard-response,157,791986,0.0-15.0-0.2,57083,List1A,white,man,,,,null,,,,
null,"<img src=""stim_listA/argue3.gif""</stim_listA>",,html-keyboard-response,158,794007,0.0-15.0-1.2,57083,List1A,white,man,,,,null,,,,
null,is arguing with,,html-keyboard-response,159,796026,0.0-15.0-2.2,57083,List1A,white,man,,,,null,,,,
10457,,,survey-text,160,806484,0.0-15.0-3.2,57083,List1A,white,man,,,,,"{""Q0"":""Dave is argueing with Ruth.""}","<img src=""stim_listA/argue3.gif""</stim_listA>",is arguing with,
null,"<div style=""font-size:60px;"">+</div>",,html-keyboard-response,161,806987,0.0-15.0-0.3,57083,List1A,white,man,,,,null,,,,
null,"<img src=""stim_listA/dance6.gif""</stim_listA>",,html-keyboard-response,162,809007,0.0-15.0-1.3,57083,List1A,white,man,,,,null,,,,
null,are dancing with each other,,html-keyboard-response,163,811027,0.0-15.0-2.3,57083,List1A,white,man,,,,null,,,,
9713,,,survey-text,164,820741,0.0-15.0-3.3,57083,List1A,white,man,,,,,"{""Q0"":""Mike and Luke are dancing with each other.""}","<img src=""stim_listA/dance6.gif""</stim_listA>",are dancing with each other,
null,"<div style=""font-size:60px;"">+</div>",,html-keyboard-response,165,821256,0.0-15.0-0.4,57083,List1A,white,man,,,,null,,,,
null,"<img src=""stim_listA/touch7.gif""</stim_listA>",,html-keyboard-response,166,823276,0.0-15.0-1.4,57083,List1A,white,man,,,,null,,,,
null,is touching,,html-keyboard-response,167,825297,0.0-15.0-2.4,57083,List1A,white,man,,,,null,,,,
7580,,,survey-text,168,832878,0.0-15.0-3.4,57083,List1A,white,man,,,,,"{""Q0"":""Jane is touching Kate.""}","<img src=""stim_listA/touch7.gif""</stim_listA>",is touching,
null,"<div style=""font-size:60px;"">+</div>",,html-keyboard-response,169,833397,0.0-15.0-0.5,57083,List1A,white,man,,,,null,,,,
null,"<img src=""stim_listA/shout4.gif""</stim_listA>",,html-keyboard-response,170,835416,0.0-15.0-1.5,57083,List1A,white,man,,,,null,,,,
null,are shouting at each other,,html-keyboard-response,171,837437,0.0-15.0-2.5,57083,List1A,white,man,,,,null,,,,
9080,,,survey-text,172,846518,0.0-15.0-3.5,57083,List1A,white,man,,,,,"{""Q0"":""Jane and Dave are shouting at each other. ""}","<img src=""stim_listA/shout4.gif""</stim_listA>",are shouting at each other,
null,"<div style=""font-size:60px;"">+</div>",,html-keyboard-response,173,847036,0.0-15.0-0.6,57083,List1A,white,man,,,,null,,,,
null,"<img src=""stim_listA/fight5.gif""</stim_listA>",,html-keyboard-response,174,849047,0.0-15.0-1.6,57083,List1A,white,man,,,,null,,,,
null,is fighting,,html-keyboard-response,175,851067,0.0-15.0-2.6,57083,List1A,white,man,,,,null,,,,
7799,,,survey-text,176,858868,0.0-15.0-3.6,57083,List1A,white,man,,,,,"{""Q0"":""Mike is fighting Dave.""}","<img src=""stim_listA/fight5.gif""</stim_listA>",is fighting,
null,"<div style=""font-size:60px;"">+</div>",,html-keyboard-response,177,859387,0.0-15.0-0.7,57083,List1A,white,man,,,,null,,,,
null,"<img src=""stim_listA/talk1.gif""</stim_listA>",,html-keyboard-response,178,861406,0.0-15.0-1.7,57083,List1A,white,man,,,,null,,,,
null,is talking to,,html-keyboard-response,179,863427,0.0-15.0-2.7,57083,List1A,white,man,,,,null,,,,
8441,,,survey-text,180,871868,0.0-15.0-3.7,57083,List1A,white,man,,,,,"{""Q0"":""Fred is talking to Kate.""}","<img src=""stim_listA/talk1.gif""</stim_listA>",is talking to,
null,"<div style=""font-size:60px;"">+</div>",,html-keyboard-response,181,872387,0.0-15.0-0.8,57083,List1A,white,man,,,,null,,,,
null,"<img src=""stim_listA/fight2.gif""</stim_listA>",,html-keyboard-response,182,874392,0.0-15.0-1.8,57083,List1A,white,man,,,,null,,,,
null,are fighting each other,,html-keyboard-response,183,876407,0.0-15.0-2.8,57083,List1A,white,man,,,,null,,,,
14275,,,survey-text,184,890687,0.0-15.0-3.8,57083,List1A,white,man,,,,,"{""Q0"":""Beth and Fred are fighting each other.""}","<img src=""stim_listA/fight2.gif""</stim_listA>",are fighting each other,
null,"<div style=""font-size:60px;"">+</div>",,html-keyboard-response,185,891206,0.0-15.0-0.9,57083,List1A,white,man,,,,null,,,,
null,"<img src=""stim_listA/talk4.gif""</stim_listA>",,html-keyboard-response,186,893227,0.0-15.0-1.9,57083,List1A,white,man,,,,null,,,,
null,are talking to each other,,html-keyboard-response,187,895246,0.0-15.0-2.9,57083,List1A,white,man,,,,null,,,,
10860,,,survey-text,188,906109,0.0-15.0-3.9,57083,List1A,white,man,,,,,"{""Q0"":""Ruth and Dave are talking to each other. ""}","<img src=""stim_listA/talk4.gif""</stim_listA>",are talking to each other,
null,"<div style=""font-size:60px;"">+</div>",,html-keyboard-response,189,906626,0.0-15.0-0.10,57083,List1A,white,man,,,,null,,,,
null,"<img src=""stim_listA/dance7.gif""</stim_listA>",,html-keyboard-response,190,908647,0.0-15.0-1.10,57083,List1A,white,man,,,,null,,,,
null,is dancing with,,html-keyboard-response,191,910666,0.0-15.0-2.10,57083,List1A,white,man,,,,null,,,,
11981,,,survey-text,192,922648,0.0-15.0-3.10,57083,List1A,white,man,,,,,"{""Q0"":""Beth is dancing with Jane.""}","<img src=""stim_listA/dance7.gif""</stim_listA>",is dancing with,
null,"<div style=""font-size:60px;"">+</div>",,html-keyboard-response,193,923167,0.0-15.0-0.11,57083,List1A,white,man,,,,null,,,,
null,"<img src=""stim_listA/touch8.gif""</stim_listA>",,html-keyboard-response,194,925187,0.0-15.0-1.11,57083,List1A,white,man,,,,null,,,,
null,are touching each other,,html-keyboard-response,195,927206,0.0-15.0-2.11,57083,List1A,white,man,,,,null,,,,
13760,,,survey-text,196,940968,0.0-15.0-3.11,57083,List1A,white,man,,,,,"{""Q0"":""Ruth is touching Beth.""}","<img src=""stim_listA/touch8.gif""</stim_listA>",are touching each other,
null,"<div style=""font-size:60px;"">+</div>",,html-keyboard-response,197,941487,0.0-15.0-0.12,57083,List1A,white,man,,,,null,,,,
null,"<img src=""stim_listA/dance3.gif""</stim_listA>",,html-keyboard-response,198,943506,0.0-15.0-1.12,57083,List1A,white,man,,,,null,,,,
null,is dancing with,,html-keyboard-response,199,945526,0.0-15.0-2.12,57083,List1A,white,man,,,,null,,,,
8461,,,survey-text,200,953988,0.0-15.0-3.12,57083,List1A,white,man,,,,,"{""Q0"":""Jane is dancing with Luke.""}","<img src=""stim_listA/dance3.gif""</stim_listA>",is dancing with,
null,"<div style=""font-size:60px;"">+</div>",,html-keyboard-response,201,954507,0.0-15.0-0.13,57083,List1A,white,man,,,,null,,,,
null,"<img src=""stim_listA/touch3.gif""</stim_listA>",,html-keyboard-response,202,956527,0.0-15.0-1.13,57083,List1A,white,man,,,,null,,,,
null,is touching,,html-keyboard-response,203,958547,0.0-15.0-2.13,57083,List1A,white,man,,,,null,,,,
6970,,,survey-text,204,965518,0.0-15.0-3.13,57083,List1A,white,man,,,,,"{""Q0"":""Dave is touching Jane.""}","<img src=""stim_listA/touch3.gif""</stim_listA>",is touching,
null,"<div style=""font-size:60px;"">+</div>",,html-keyboard-response,205,966036,0.0-15.0-0.14,57083,List1A,white,man,,,,null,,,,
null,"<img src=""stim_listA/meet6.gif""</stim_listA>",,html-keyboard-response,206,968057,0.0-15.0-1.14,57083,List1A,white,man,,,,null,,,,
null,are meeting each other,,html-keyboard-response,207,970075,0.0-15.0-2.14,57083,List1A,white,man,,,,null,,,,
14662,,,survey-text,208,984738,0.0-15.0-3.14,57083,List1A,white,man,,,,,"{""Q0"":""Fred and Luke are meeting each other. ""}","<img src=""stim_listA/meet6.gif""</stim_listA>",are meeting each other,
null,"<div style=""font-size:60px;"">+</div>",,html-keyboard-response,209,985257,0.0-15.0-0.15,57083,List1A,white,man,,,,null,,,,
null,"<img src=""stim_listA/meet1.gif""</stim_listA>",,html-keyboard-response,210,987276,0.0-15.0-1.15,57083,List1A,white,man,,,,null,,,,
null,is meeting,,html-keyboard-response,211,989297,0.0-15.0-2.15,57083,List1A,white,man,,,,null,,,,
6979,,,survey-text,212,996278,0.0-15.0-3.15,57083,List1A,white,man,,,,,"{""Q0"":""Kate is meeting Mike.""}","<img src=""stim_listA/meet1.gif""</stim_listA>",is meeting,
null,"<div style=""font-size:60px;"">+</div>",,html-keyboard-response,213,996796,0.0-15.0-0.16,57083,List1A,white,man,,,,null,,,,
null,"<img src=""stim_listA/kiss3.gif""</stim_listA>",,html-keyboard-response,214,998815,0.0-15.0-1.16,57083,List1A,white,man,,,,null,,,,
null,is kissing,,html-keyboard-response,215,1000817,0.0-15.0-2.16,57083,List1A,white,man,,,,null,,,,
11040,,,survey-text,216,1011857,0.0-15.0-3.16,57083,List1A,white,man,,,,,"{""Q0"":""Ruth is kissing Luke. ""}","<img src=""stim_listA/kiss3.gif""</stim_listA>",is kissing,
null,"<div style=""font-size:60px;"">+</div>",,html-keyboard-response,217,1012376,0.0-15.0-0.17,57083,List1A,white,man,,,,null,,,,
null,"<img src=""stim_listA/shout2.gif""</stim_listA>",,html-keyboard-response,218,1014397,0.0-15.0-1.17,57083,List1A,white,man,,,,null,,,,
null,are shouting at each other,,html-keyboard-response,219,1016402,0.0-15.0-2.17,57083,List1A,white,man,,,,null,,,,
11096,,,survey-text,220,1027498,0.0-15.0-3.17,57083,List1A,white,man,,,,,"{""Q0"":""Mike and Kate are shouting at each other.""}","<img src=""stim_listA/shout2.gif""</stim_listA>",are shouting at each other,
null,"<div style=""font-size:60px;"">+</div>",,html-keyboard-response,221,1028017,0.0-15.0-0.18,57083,List1A,white,man,,,,null,,,,
null,"<img src=""stim_listA/argue5.gif""</stim_listA>",,html-keyboard-response,222,1030037,0.0-15.0-1.18,57083,List1A,white,man,,,,null,,,,
null,is arguing with,,html-keyboard-response,223,1032057,0.0-15.0-2.18,57083,List1A,white,man,,,,null,,,,
10641,,,survey-text,224,1042699,0.0-15.0-3.18,57083,List1A,white,man,,,,,"{""Q0"":""Mike is argueing with Luke.""}","<img src=""stim_listA/argue5.gif""</stim_listA>",is arguing with,
null,"<div style=""font-size:60px;"">+</div>",,html-keyboard-response,225,1043217,0.0-15.0-0.19,57083,List1A,white,man,,,,null,,,,
null,"<img src=""stim_listA/shout1.gif""</stim_listA>",,html-keyboard-response,226,1045236,0.0-15.0-1.19,57083,List1A,white,man,,,,null,,,,
null,is shouting at,,html-keyboard-response,227,1047247,0.0-15.0-2.19,57083,List1A,white,man,,,,null,,,,
7519,,,survey-text,228,1054768,0.0-15.0-3.19,57083,List1A,white,man,,,,,"{""Q0"":""Beth is shouting at Fred.""}","<img src=""stim_listA/shout1.gif""</stim_listA>",is shouting at,
8028,"<img src='img/portrait_matrix_list1.JPG' style='width:900px;height:500px;''></img><p>If you have memorised all the portraits and names and are ready to start, press Continue.</p><p><strong>Please note: Your memory of these faces will be tested 4 times during this experiment.</strong></p>",0,html-button-response,229,1062799,0.0-16.0-0.0,57083,List1A,white,man,,,,,,,,
2159,"<img src=""portrait/WW2.jpg""style=""width:400px;height:400px;""></img>",3,html-button-response,230,1065979,0.0-16.0-1.0,57083,List1A,white,man,,TRUE,3,,,,,
null,CORRECT,,html-keyboard-response,231,1067516,0.0-16.0-2.0-0.0,57083,List1A,white,man,,,,null,,,,
2558,"<img src=""portrait/WM1.jpg""style=""width:400px;height:400px;""></img>",6,html-button-response,232,1070078,0.0-16.0-4.0,57083,List1A,white,man,,TRUE,6,,,,,
null,CORRECT,,html-keyboard-response,233,1071596,0.0-16.0-5.0-0.0,57083,List1A,white,man,,,,null,,,,
3801,"<img src=""portrait/WW1.jpg""style=""width:400px;height:400px;""></img>",1,html-button-response,234,1075399,0.0-16.0-7.0,57083,List1A,white,man,,TRUE,1,,,,,
null,CORRECT,,html-keyboard-response,235,1076936,0.0-16.0-8.0-0.0,57083,List1A,white,man,,,,null,,,,
2060,"<img src=""portrait/BM1.jpg""style=""width:400px;height:400px;""></img>",4,html-button-response,236,1078998,0.0-16.0-10.0,57083,List1A,white,man,,TRUE,4,,,,,
null,CORRECT,,html-keyboard-response,237,1080536,0.0-16.0-11.0-0.0,57083,List1A,white,man,,,,null,,,,
1917,"<img src=""portrait/BW2.jpg""style=""width:400px;height:400px;""></img>",2,html-button-response,238,1082456,0.0-16.0-13.0,57083,List1A,white,man,,TRUE,2,,,,,
null,CORRECT,,html-keyboard-response,239,1083977,0.0-16.0-14.0-0.0,57083,List1A,white,man,,,,null,,,,
2075,"<img src=""portrait/WM2.jpg""style=""width:400px;height:400px;""></img>",7,html-button-response,240,1086053,0.0-16.0-16.0,57083,List1A,white,man,,TRUE,7,,,,,
null,CORRECT,,html-keyboard-response,241,1087567,0.0-16.0-17.0-0.0,57083,List1A,white,man,,,,null,,,,
2500,"<img src=""portrait/BW1.jpg""style=""width:400px;height:400px;""></img>",0,html-button-response,242,1090069,0.0-16.0-19.0,57083,List1A,white,man,,TRUE,0,,,,,
null,CORRECT,,html-keyboard-response,243,1091607,0.0-16.0-20.0-0.0,57083,List1A,white,man,,,,null,,,,
2459,"<img src=""portrait/BM2.jpg""style=""width:400px;height:400px;""></img>",5,html-button-response,244,1094067,0.0-16.0-22.0,57083,List1A,white,man,,TRUE,5,,,,,
null,CORRECT,,html-keyboard-response,245,1095606,0.0-16.0-23.0-0.0,57083,List1A,white,man,,,,null,,,,
1779,<p>You got 8 out of 8 right first time. Press Continue.</p>,0,html-button-response,246,1097388,0.0-16.0-25.0,57083,List1A,white,man,,,,,,,,
null,"<div style=""font-size:60px;"">+</div>",,html-keyboard-response,247,1098926,0.0-17.0-0.0,57083,List1A,white,man,,,,null,,,,
null,"<img src=""stim_listA/hug6.gif""</stim_listA>",,html-keyboard-response,248,1100946,0.0-17.0-1.0,57083,List1A,white,man,,,,null,,,,
null,are hugging each other,,html-keyboard-response,249,1102957,0.0-17.0-2.0,57083,List1A,white,man,,,,null,,,,
9330,,,survey-text,250,1112288,0.0-17.0-3.0,57083,List1A,white,man,,,,,"{""Q0"":""Mike and Dave are hugging each other. ""}","<img src=""stim_listA/hug6.gif""</stim_listA>",are hugging each other,
null,"<div style=""font-size:60px;"">+</div>",,html-keyboard-response,251,1112806,0.0-17.0-0.1,57083,List1A,white,man,,,,null,,,,
null,"<img src=""stim_listA/shout8.gif""</stim_listA>",,html-keyboard-response,252,1114825,0.0-17.0-1.1,57083,List1A,white,man,,,,null,,,,
null,are shouting at each other,,html-keyboard-response,253,1116825,0.0-17.0-2.1,57083,List1A,white,man,,,,null,,,,
11601,,,survey-text,254,1128428,0.0-17.0-3.1,57083,List1A,white,man,,,,,"{""Q0"":""Kate and Jane are shouting at each other. ""}","<img src=""stim_listA/shout8.gif""</stim_listA>",are shouting at each other,
null,"<div style=""font-size:60px;"">+</div>",,html-keyboard-response,255,1128946,0.0-17.0-0.2,57083,List1A,white,man,,,,null,,,,
null,"<img src=""stim_listA/hug1.gif""</stim_listA>",,html-keyboard-response,256,1130966,0.0-17.0-1.2,57083,List1A,white,man,,,,null,,,,
null,is hugging,,html-keyboard-response,257,1132986,0.0-17.0-2.2,57083,List1A,white,man,,,,null,,,,
7660,,,survey-text,258,1140647,0.0-17.0-3.2,57083,List1A,white,man,,,,,"{""Q0"":""Beth is hugging Fred.""}","<img src=""stim_listA/hug1.gif""</stim_listA>",is hugging,
null,"<div style=""font-size:60px;"">+</div>",,html-keyboard-response,259,1141166,0.0-17.0-0.3,57083,List1A,white,man,,,,null,,,,
null,"<img src=""stim_listA/meet8.gif""</stim_listA>",,html-keyboard-response,260,1143186,0.0-17.0-1.3,57083,List1A,white,man,,,,null,,,,
null,are meeting each other,,html-keyboard-response,261,1145206,0.0-17.0-2.3,57083,List1A,white,man,,,,null,,,,
13680,,,survey-text,262,1158887,0.0-17.0-3.3,57083,List1A,white,man,,,,,"{""Q0"":""Ruth and Beth are meeting each other. ""}","<img src=""stim_listA/meet8.gif""</stim_listA>",are meeting each other,
null,"<div style=""font-size:60px;"">+</div>",,html-keyboard-response,263,1159407,0.0-17.0-0.4,57083,List1A,white,man,,,,null,,,,
null,"<img src=""stim_listA/argue2.gif""</stim_listA>",,html-keyboard-response,264,1161425,0.0-17.0-1.4,57083,List1A,white,man,,,,null,,,,
null,are arguing with each other,,html-keyboard-response,265,1163446,0.0-17.0-2.4,57083,List1A,white,man,,,,null,,,,
13778,,,survey-text,266,1177228,0.0-17.0-3.4,57083,List1A,white,man,,,,,"{""Q0"":""Kate and Fred are argueing with each other. ""}","<img src=""stim_listA/argue2.gif""</stim_listA>",are arguing with each other,
null,"<div style=""font-size:60px;"">+</div>",,html-keyboard-response,267,1177746,0.0-17.0-0.5,57083,List1A,white,man,,,,null,,,,
null,"<img src=""stim_listA/hug2.gif""</stim_listA>",,html-keyboard-response,268,1179765,0.0-17.0-1.5,57083,List1A,white,man,,,,null,,,,
null,are hugging each other,,html-keyboard-response,269,1181787,0.0-17.0-2.5,57083,List1A,white,man,,,,null,,,,
11660,,,survey-text,270,1193448,0.0-17.0-3.5,57083,List1A,white,man,,,,,"{""Q0"":""Mike and Kate are hugging each other. ""}","<img src=""stim_listA/hug2.gif""</stim_listA>",are hugging each other,
null,"<div style=""font-size:60px;"">+</div>",,html-keyboard-response,271,1193967,0.0-17.0-0.6,57083,List1A,white,man,,,,null,,,,
null,"<img src=""stim_listA/kiss2.gif""</stim_listA>",,html-keyboard-response,272,1195986,0.0-17.0-1.6,57083,List1A,white,man,,,,null,,,,
null,are kissing each other,,html-keyboard-response,273,1198006,0.0-17.0-2.6,57083,List1A,white,man,,,,null,,,,
9120,,,survey-text,274,1207128,0.0-17.0-3.6,57083,List1A,white,man,,,,,"{""Q0"":""Mike and Kate are kissing each other. ""}","<img src=""stim_listA/kiss2.gif""</stim_listA>",are kissing each other,
null,"<div style=""font-size:60px;"">+</div>",,html-keyboard-response,275,1207646,0.0-17.0-0.7,57083,List1A,white,man,,,,null,,,,
null,"<img src=""stim_listA/talk5.gif""</stim_listA>",,html-keyboard-response,276,1209666,0.0-17.0-1.7,57083,List1A,white,man,,,,null,,,,
null,is talking to,,html-keyboard-response,277,1211680,0.0-17.0-2.7,57083,List1A,white,man,,,,null,,,,
11347,,,survey-text,278,1223028,0.0-17.0-3.7,57083,List1A,white,man,,,,,"{""Q0"":""Fred is talking to Dave.""}","<img src=""stim_listA/talk5.gif""</stim_listA>",is talking to,
null,"<div style=""font-size:60px;"">+</div>",,html-keyboard-response,279,1223546,0.0-17.0-0.8,57083,List1A,white,man,,,,null,,,,
null,"<img src=""stim_listA/hug8.gif""</stim_listA>",,html-keyboard-response,280,1225566,0.0-17.0-1.8,57083,List1A,white,man,,,,null,,,,
null,are hugging each other,,html-keyboard-response,281,1227585,0.0-17.0-2.8,57083,List1A,white,man,,,,null,,,,
10419,,,survey-text,282,1238007,0.0-17.0-3.8,57083,List1A,white,man,,,,,"{""Q0"":""Kate and Jane are hugging each other. ""}","<img src=""stim_listA/hug8.gif""</stim_listA>",are hugging each other,
null,"<div style=""font-size:60px;"">+</div>",,html-keyboard-response,283,1238527,0.0-17.0-0.9,57083,List1A,white,man,,,,null,,,,
null,"<img src=""stim_listA/dance1.gif""</stim_listA>",,html-keyboard-response,284,1240546,0.0-17.0-1.9,57083,List1A,white,man,,,,null,,,,
null,is dancing with,,html-keyboard-response,285,1242566,0.0-17.0-2.9,57083,List1A,white,man,,,,null,,,,
10880,,,survey-text,286,1253447,0.0-17.0-3.9,57083,List1A,white,man,,,,,"{""Q0"":""Kate is dancing with Fred.""}","<img src=""stim_listA/dance1.gif""</stim_listA>",is dancing with,
null,"<div style=""font-size:60px;"">+</div>",,html-keyboard-response,287,1253967,0.0-17.0-0.10,57083,List1A,white,man,,,,null,,,,
null,"<img src=""stim_listA/kiss5.gif""</stim_listA>",,html-keyboard-response,288,1255986,0.0-17.0-1.10,57083,List1A,white,man,,,,null,,,,
null,is kissing,,html-keyboard-response,289,1257997,0.0-17.0-2.10,57083,List1A,white,man,,,,null,,,,
7489,,,survey-text,290,1265487,0.0-17.0-3.10,57083,List1A,white,man,,,,,"{""Q0"":""Luke is kissing Fred.""}","<img src=""stim_listA/kiss5.gif""</stim_listA>",is kissing,
null,"<div style=""font-size:60px;"">+</div>",,html-keyboard-response,291,1266006,0.0-17.0-0.11,57083,List1A,white,man,,,,null,,,,
null,"<img src=""stim_listA/shout6.gif""</stim_listA>",,html-keyboard-response,292,1268026,0.0-17.0-1.11,57083,List1A,white,man,,,,null,,,,
null,are shouting at each other,,html-keyboard-response,293,1270046,0.0-17.0-2.11,57083,List1A,white,man,,,,null,,,,
11159,,,survey-text,294,1281207,0.0-17.0-3.11,57083,List1A,white,man,,,,,"{""Q0"":""Mike and Dave are shouting at each other. ""}","<img src=""stim_listA/shout6.gif""</stim_listA>",are shouting at each other,
null,"<div style=""font-size:60px;"">+</div>",,html-keyboard-response,295,1281726,0.0-17.0-0.12,57083,List1A,white,man,,,,null,,,,
null,"<img src=""stim_listA/touch2.gif""</stim_listA>",,html-keyboard-response,296,1283746,0.0-17.0-1.12,57083,List1A,white,man,,,,null,,,,
null,are touching each other,,html-keyboard-response,297,1285760,0.0-17.0-2.12,57083,List1A,white,man,,,,null,,,,
9506,,,survey-text,298,1295267,0.0-17.0-3.12,57083,List1A,white,man,,,,,"{""Q0"":""Beth and Fred are touching each other. ""}","<img src=""stim_listA/touch2.gif""</stim_listA>",are touching each other,
null,"<div style=""font-size:60px;"">+</div>",,html-keyboard-response,299,1295786,0.0-17.0-0.13,57083,List1A,white,man,,,,null,,,,
null,"<img src=""stim_listA/marry6.gif""</stim_listA>",,html-keyboard-response,300,1297806,0.0-17.0-1.13,57083,List1A,white,man,,,,null,,,,
null,are marrying each other,,html-keyboard-response,301,1299826,0.0-17.0-2.13,57083,List1A,white,man,,,,null,,,,
10600,,,survey-text,302,1310428,0.0-17.0-3.13,57083,List1A,white,man,,,,,"{""Q0"":""Dave and Fred are marrying each other. ""}","<img src=""stim_listA/marry6.gif""</stim_listA>",are marrying each other,
null,"<div style=""font-size:60px;"">+</div>",,html-keyboard-response,303,1310946,0.0-17.0-0.14,57083,List1A,white,man,,,,null,,,,
null,"<img src=""stim_listA/hug7.gif""</stim_listA>",,html-keyboard-response,304,1312966,0.0-17.0-1.14,57083,List1A,white,man,,,,null,,,,
null,is hugging,,html-keyboard-response,305,1314987,0.0-17.0-2.14,57083,List1A,white,man,,,,null,,,,
10577,,,survey-text,306,1325567,0.0-17.0-3.14,57083,List1A,white,man,,,,,"{""Q0"":""Ruth is hugging Beth.""}","<img src=""stim_listA/hug7.gif""</stim_listA>",is hugging,
null,"<div style=""font-size:60px;"">+</div>",,html-keyboard-response,307,1326086,0.0-17.0-0.15,57083,List1A,white,man,,,,null,,,,
null,"<img src=""stim_listA/marry2.gif""</stim_listA>",,html-keyboard-response,308,1328106,0.0-17.0-1.15,57083,List1A,white,man,,,,null,,,,
null,are marrying each other,,html-keyboard-response,309,1330126,0.0-17.0-2.15,57083,List1A,white,man,,,,null,,,,
8760,,,survey-text,310,1338887,0.0-17.0-3.15,57083,List1A,white,man,,,,,"{""Q0"":""Fred and Kate are marrying each other. ""}","<img src=""stim_listA/marry2.gif""</stim_listA>",are marrying each other,
null,"<div style=""font-size:60px;"">+</div>",,html-keyboard-response,311,1339406,0.0-17.0-0.16,57083,List1A,white,man,,,,null,,,,
null,"<img src=""stim_listA/shout7.gif""</stim_listA>",,html-keyboard-response,312,1341426,0.0-17.0-1.16,57083,List1A,white,man,,,,null,,,,
null,is shouting at,,html-keyboard-response,313,1343446,0.0-17.0-2.16,57083,List1A,white,man,,,,null,,,,
7660,,,survey-text,314,1351107,0.0-17.0-3.16,57083,List1A,white,man,,,,,"{""Q0"":""Beth is shouting at Ruth. ""}","<img src=""stim_listA/shout7.gif""</stim_listA>",is shouting at,
null,"<div style=""font-size:60px;"">+</div>",,html-keyboard-response,315,1351627,0.0-17.0-0.17,57083,List1A,white,man,,,,null,,,,
null,"<img src=""stim_listA/hug5.gif""</stim_listA>",,html-keyboard-response,316,1353646,0.0-17.0-1.17,57083,List1A,white,man,,,,null,,,,
null,is hugging,,html-keyboard-response,317,1355666,0.0-17.0-2.17,57083,List1A,white,man,,,,null,,,,
10420,,,survey-text,318,1366087,0.0-17.0-3.17,57083,List1A,white,man,,,,,"{""Q0"":""Luke is hugging Fred.""}","<img src=""stim_listA/hug5.gif""</stim_listA>",is hugging,
null,"<div style=""font-size:60px;"">+</div>",,html-keyboard-response,319,1366606,0.0-17.0-0.18,57083,List1A,white,man,,,,null,,,,
null,"<img src=""stim_listA/meet3.gif""</stim_listA>",,html-keyboard-response,320,1368625,0.0-17.0-1.18,57083,List1A,white,man,,,,null,,,,
null,is meeting,,html-keyboard-response,321,1370635,0.0-17.0-2.18,57083,List1A,white,man,,,,null,,,,
6889,,,survey-text,322,1377527,0.0-17.0-3.18,57083,List1A,white,man,,,,,"{""Q0"":""Jane is meeting Dave.""}","<img src=""stim_listA/meet3.gif""</stim_listA>",is meeting,
null,"<div style=""font-size:60px;"">+</div>",,html-keyboard-response,323,1378046,0.0-17.0-0.19,57083,List1A,white,man,,,,null,,,,
null,"<img src=""stim_listA/dance2.gif""</stim_listA>",,html-keyboard-response,324,1380066,0.0-17.0-1.19,57083,List1A,white,man,,,,null,,,,
null,are dancing with each other,,html-keyboard-response,325,1382086,0.0-17.0-2.19,57083,List1A,white,man,,,,null,,,,
12119,,,survey-text,326,1394207,0.0-17.0-3.19,57083,List1A,white,man,,,,,"{""Q0"":""Beth and Mike are dancing with each other. ""}","<img src=""stim_listA/dance2.gif""</stim_listA>",are dancing with each other,
9538,"<img src='img/portrait_matrix_list1.JPG' style='width:900px;height:500px;''></img><p>If you have memorised all the portraits and names and are ready to start, press Continue.</p><p><strong>Please note: Your memory of these faces will be tested 4 times during this experiment.</strong></p>",0,html-button-response,327,1403748,0.0-18.0-0.0,57083,List1A,white,man,,,,,,,,
2439,"<img src=""portrait/WM2.jpg""style=""width:400px;height:400px;""></img>",7,html-button-response,328,1407208,0.0-18.0-1.0,57083,List1A,white,man,,TRUE,7,,,,,
null,CORRECT,,html-keyboard-response,329,1408746,0.0-18.0-2.0-0.0,57083,List1A,white,man,,,,null,,,,
2459,"<img src=""portrait/BW2.jpg""style=""width:400px;height:400px;""></img>",2,html-button-response,330,1411208,0.0-18.0-4.0,57083,List1A,white,man,,TRUE,2,,,,,
null,CORRECT,,html-keyboard-response,331,1412746,0.0-18.0-5.0-0.0,57083,List1A,white,man,,,,null,,,,
2260,"<img src=""portrait/WW1.jpg""style=""width:400px;height:400px;""></img>",1,html-button-response,332,1415008,0.0-18.0-7.0,57083,List1A,white,man,,TRUE,1,,,,,
null,CORRECT,,html-keyboard-response,333,1416546,0.0-18.0-8.0-0.0,57083,List1A,white,man,,,,null,,,,
1840,"<img src=""portrait/WW2.jpg""style=""width:400px;height:400px;""></img>",3,html-button-response,334,1418388,0.0-18.0-10.0,57083,List1A,white,man,,TRUE,3,,,,,
null,CORRECT,,html-keyboard-response,335,1419926,0.0-18.0-11.0-0.0,57083,List1A,white,man,,,,null,,,,
2030,"<img src=""portrait/BM2.jpg""style=""width:400px;height:400px;""></img>",5,html-button-response,336,1421958,0.0-18.0-13.0,57083,List1A,white,man,,TRUE,5,,,,,
null,CORRECT,,html-keyboard-response,337,1423496,0.0-18.0-14.0-0.0,57083,List1A,white,man,,,,null,,,,
2540,"<img src=""portrait/BW1.jpg""style=""width:400px;height:400px;""></img>",0,html-button-response,338,1426038,0.0-18.0-16.0,57083,List1A,white,man,,TRUE,0,,,,,
null,CORRECT,,html-keyboard-response,339,1427577,0.0-18.0-17.0-0.0,57083,List1A,white,man,,,,null,,,,
2279,"<img src=""portrait/WM1.jpg""style=""width:400px;height:400px;""></img>",6,html-button-response,340,1429858,0.0-18.0-19.0,57083,List1A,white,man,,TRUE,6,,,,,
null,CORRECT,,html-keyboard-response,341,1431396,0.0-18.0-20.0-0.0,57083,List1A,white,man,,,,null,,,,
4780,"<img src=""portrait/BM1.jpg""style=""width:400px;height:400px;""></img>",4,html-button-response,342,1436178,0.0-18.0-22.0,57083,List1A,white,man,,TRUE,4,,,,,
null,CORRECT,,html-keyboard-response,343,1437716,0.0-18.0-23.0-0.0,57083,List1A,white,man,,,,null,,,,
1958,<p>You got 8 out of 8 right first time. Press Continue.</p>,0,html-button-response,344,1439677,0.0-18.0-25.0,57083,List1A,white,man,,,,,,,,
null,"<div style=""font-size:60px;"">+</div>",,html-keyboard-response,345,1441216,0.0-19.0-0.0,57083,List1A,white,man,,,,null,,,,
null,"<img src=""stim_listA/meet4.gif""</stim_listA>",,html-keyboard-response,346,1443235,0.0-19.0-1.0,57083,List1A,white,man,,,,null,,,,
null,are meeting each other,,html-keyboard-response,347,1445256,0.0-19.0-2.0,57083,List1A,white,man,,,,null,,,,
10021,,,survey-text,348,1455277,0.0-19.0-3.0,57083,List1A,white,man,,,,,"{""Q0"":""Ruth and Luke are meeting each other. ""}","<img src=""stim_listA/meet4.gif""</stim_listA>",are meeting each other,
null,"<div style=""font-size:60px;"">+</div>",,html-keyboard-response,349,1455795,0.0-19.0-0.1,57083,List1A,white,man,,,,null,,,,
null,"<img src=""stim_listA/kiss4.gif""</stim_listA>",,html-keyboard-response,350,1457816,0.0-19.0-1.1,57083,List1A,white,man,,,,null,,,,
null,are kissing each other,,html-keyboard-response,351,1459836,0.0-19.0-2.1,57083,List1A,white,man,,,,null,,,,
9901,,,survey-text,352,1469738,0.0-19.0-3.1,57083,List1A,white,man,,,,,"{""Q0"":""Jane and Dave are kissing each other. ""}","<img src=""stim_listA/kiss4.gif""</stim_listA>",are kissing each other,
null,"<div style=""font-size:60px;"">+</div>",,html-keyboard-response,353,1470256,0.0-19.0-0.2,57083,List1A,white,man,,,,null,,,,
null,"<img src=""stim_listA/marry1.gif""</stim_listA>",,html-keyboard-response,354,1472276,0.0-19.0-1.2,57083,List1A,white,man,,,,null,,,,
null,is marrying,,html-keyboard-response,355,1474276,0.0-19.0-2.2,57083,List1A,white,man,,,,null,,,,
7260,,,survey-text,356,1481537,0.0-19.0-3.2,57083,List1A,white,man,,,,,"{""Q0"":""Beth is marrying Mike. ""}","<img src=""stim_listA/marry1.gif""</stim_listA>",is marrying,
null,"<div style=""font-size:60px;"">+</div>",,html-keyboard-response,357,1482057,0.0-19.0-0.3,57083,List1A,white,man,,,,null,,,,
null,"<img src=""stim_listA/argue4.gif""</stim_listA>",,html-keyboard-response,358,1484076,0.0-19.0-1.3,57083,List1A,white,man,,,,null,,,,
null,are arguing with each other,,html-keyboard-response,359,1486096,0.0-19.0-2.3,57083,List1A,white,man,,,,null,,,,
10681,,,survey-text,360,1496779,0.0-19.0-3.3,57083,List1A,white,man,,,,,"{""Q0"":""Jane and Luke are arguing with each other. ""}","<img src=""stim_listA/argue4.gif""</stim_listA>",are arguing with each other,
null,"<div style=""font-size:60px;"">+</div>",,html-keyboard-response,361,1497296,0.0-19.0-0.4,57083,List1A,white,man,,,,null,,,,
null,"<img src=""stim_listA/meet5.gif""</stim_listA>",,html-keyboard-response,362,1499315,0.0-19.0-1.4,57083,List1A,white,man,,,,null,,,,
null,is meeting,,html-keyboard-response,363,1501336,0.0-19.0-2.4,57083,List1A,white,man,,,,null,,,,
7840,,,survey-text,364,1509177,0.0-19.0-3.4,57083,List1A,white,man,,,,,"{""Q0"":""Dave is meeting Mike.""}","<img src=""stim_listA/meet5.gif""</stim_listA>",is meeting,
null,"<div style=""font-size:60px;"">+</div>",,html-keyboard-response,365,1509696,0.0-19.0-0.5,57083,List1A,white,man,,,,null,,,,
null,"<img src=""stim_listA/shout5.gif""</stim_listA>",,html-keyboard-response,366,1511715,0.0-19.0-1.5,57083,List1A,white,man,,,,null,,,,
null,is shouting at,,html-keyboard-response,367,1513737,0.0-19.0-2.5,57083,List1A,white,man,,,,null,,,,
7199,,,survey-text,368,1520937,0.0-19.0-3.5,57083,List1A,white,man,,,,,"{""Q0"":""Fred is shouting at Luke. ""}","<img src=""stim_listA/shout5.gif""</stim_listA>",is shouting at,
null,"<div style=""font-size:60px;"">+</div>",,html-keyboard-response,369,1521455,0.0-19.0-0.6,57083,List1A,white,man,,,,null,,,,
null,"<img src=""stim_listA/talk6.gif""</stim_listA>",,html-keyboard-response,370,1523476,0.0-19.0-1.6,57083,List1A,white,man,,,,null,,,,
null,are talking to each other,,html-keyboard-response,371,1525496,0.0-19.0-2.6,57083,List1A,white,man,,,,null,,,,
10940,,,survey-text,372,1536438,0.0-19.0-3.6,57083,List1A,white,man,,,,,"{""Q0"":""Luke and Mike are talking to each other. ""}","<img src=""stim_listA/talk6.gif""</stim_listA>",are talking to each other,
null,"<div style=""font-size:60px;"">+</div>",,html-keyboard-response,373,1536956,0.0-19.0-0.7,57083,List1A,white,man,,,,null,,,,
null,"<img src=""stim_listA/meet2.gif""</stim_listA>",,html-keyboard-response,374,1538976,0.0-19.0-1.7,57083,List1A,white,man,,,,null,,,,
null,are meeting each other,,html-keyboard-response,375,1540996,0.0-19.0-2.7,57083,List1A,white,man,,,,null,,,,
9221,,,survey-text,376,1550217,0.0-19.0-3.7,57083,List1A,white,man,,,,,"{""Q0"":""Beth and Fred are meeting each other. ""}","<img src=""stim_listA/meet2.gif""</stim_listA>",are meeting each other,
null,"<div style=""font-size:60px;"">+</div>",,html-keyboard-response,377,1550736,0.0-19.0-0.8,57083,List1A,white,man,,,,null,,,,
null,"<img src=""stim_listA/argue8.gif""</stim_listA>",,html-keyboard-response,378,1552756,0.0-19.0-1.8,57083,List1A,white,man,,,,null,,,,
null,are arguing with each other,,html-keyboard-response,379,1554776,0.0-19.0-2.8,57083,List1A,white,man,,,,null,,,,
10498,,,survey-text,380,1565277,0.0-19.0-3.8,57083,List1A,white,man,,,,,"{""Q0"":""Jane and Beth are arguing with each other. ""}","<img src=""stim_listA/argue8.gif""</stim_listA>",are arguing with each other,
null,"<div style=""font-size:60px;"">+</div>",,html-keyboard-response,381,1565795,0.0-19.0-0.9,57083,List1A,white,man,,,,null,,,,
null,"<img src=""stim_listA/marry4.gif""</stim_listA>",,html-keyboard-response,382,1567815,0.0-19.0-1.9,57083,List1A,white,man,,,,null,,,,
null,are marrying each other,,html-keyboard-response,383,1569836,0.0-19.0-2.9,57083,List1A,white,man,,,,null,,,,
11219,,,survey-text,384,1581057,0.0-19.0-3.9,57083,List1A,white,man,,,,,"{""Q0"":""Jane and Luke are marrying each other. ""}","<img src=""stim_listA/marry4.gif""</stim_listA>",are marrying each other,
null,"<div style=""font-size:60px;"">+</div>",,html-keyboard-response,385,1581576,0.0-19.0-0.10,57083,List1A,white,man,,,,null,,,,
null,"<img src=""stim_listA/talk7.gif""</stim_listA>",,html-keyboard-response,386,1583596,0.0-19.0-1.10,57083,List1A,white,man,,,,null,,,,
null,is talking to,,html-keyboard-response,387,1585616,0.0-19.0-2.10,57083,List1A,white,man,,,,null,,,,
8520,,,survey-text,388,1594137,0.0-19.0-3.10,57083,List1A,white,man,,,,,"{""Q0"":""Jane is talking to Beth. ""}","<img src=""stim_listA/talk7.gif""</stim_listA>",is talking to,
null,"<div style=""font-size:60px;"">+</div>",,html-keyboard-response,389,1594656,0.0-19.0-0.11,57083,List1A,white,man,,,,null,,,,
null,"<img src=""stim_listA/meet7.gif""</stim_listA>",,html-keyboard-response,390,1596675,0.0-19.0-1.11,57083,List1A,white,man,,,,null,,,,
null,is meeting,,html-keyboard-response,391,1598696,0.0-19.0-2.11,57083,List1A,white,man,,,,null,,,,
6440,,,survey-text,392,1605137,0.0-19.0-3.11,57083,List1A,white,man,,,,,"{""Q0"":""Kate is meeting Jane. ""}","<img src=""stim_listA/meet7.gif""</stim_listA>",is meeting,
null,"<div style=""font-size:60px;"">+</div>",,html-keyboard-response,393,1605656,0.0-19.0-0.12,57083,List1A,white,man,,,,null,,,,
null,"<img src=""stim_listA/marry7.gif""</stim_listA>",,html-keyboard-response,394,1607675,0.0-19.0-1.12,57083,List1A,white,man,,,,null,,,,
null,is marrying,,html-keyboard-response,395,1609682,0.0-19.0-2.12,57083,List1A,white,man,,,,null,,,,
9375,,,survey-text,396,1619057,0.0-19.0-3.12,57083,List1A,white,man,,,,,"{""Q0"":""Kate is marrying Ruth.""}","<img src=""stim_listA/marry7.gif""</stim_listA>",is marrying,
null,"<div style=""font-size:60px;"">+</div>",,html-keyboard-response,397,1619576,0.0-19.0-0.13,57083,List1A,white,man,,,,null,,,,
null,"<img src=""stim_listA/hug4.gif""</stim_listA>",,html-keyboard-response,398,1621596,0.0-19.0-1.13,57083,List1A,white,man,,,,null,,,,
null,are hugging each other,,html-keyboard-response,399,1623615,0.0-19.0-2.13,57083,List1A,white,man,,,,null,,,,
10892,,,survey-text,400,1634508,0.0-19.0-3.13,57083,List1A,white,man,,,,,"{""Q0"":""Jane and Dave are hugging each other.""}","<img src=""stim_listA/hug4.gif""</stim_listA>",are hugging each other,
null,"<div style=""font-size:60px;"">+</div>",,html-keyboard-response,401,1635026,0.0-19.0-0.14,57083,List1A,white,man,,,,null,,,,
null,"<img src=""stim_listA/talk3.gif""</stim_listA>",,html-keyboard-response,402,1637046,0.0-19.0-1.14,57083,List1A,white,man,,,,null,,,,
null,is talking to,,html-keyboard-response,403,1639066,0.0-19.0-2.14,57083,List1A,white,man,,,,null,,,,
7341,,,survey-text,404,1646407,0.0-19.0-3.14,57083,List1A,white,man,,,,,"{""Q0"":""Luke is talking to Jane. ""}","<img src=""stim_listA/talk3.gif""</stim_listA>",is talking to,
null,"<div style=""font-size:60px;"">+</div>",,html-keyboard-response,405,1646926,0.0-19.0-0.15,57083,List1A,white,man,,,,null,,,,
null,"<img src=""stim_listA/argue1.gif""</stim_listA>",,html-keyboard-response,406,1648945,0.0-19.0-1.15,57083,List1A,white,man,,,,null,,,,
null,is arguing with,,html-keyboard-response,407,1650965,0.0-19.0-2.15,57083,List1A,white,man,,,,null,,,,
10950,,,survey-text,408,1661916,0.0-19.0-3.15,57083,List1A,white,man,,,,,"{""Q0"":""Mike is arguing with Beth.""}","<img src=""stim_listA/argue1.gif""</stim_listA>",is arguing with,
null,"<div style=""font-size:60px;"">+</div>",,html-keyboard-response,409,1662435,0.0-19.0-0.16,57083,List1A,white,man,,,,null,,,,
null,"<img src=""stim_listA/kiss8.gif""</stim_listA>",,html-keyboard-response,410,1664455,0.0-19.0-1.16,57083,List1A,white,man,,,,null,,,,
null,are kissing each other,,html-keyboard-response,411,1666476,0.0-19.0-2.16,57083,List1A,white,man,,,,null,,,,
13021,,,survey-text,412,1679497,0.0-19.0-3.16,57083,List1A,white,man,,,,,"{""Q0"":""Kate and Jane are kissing each other. ""}","<img src=""stim_listA/kiss8.gif""</stim_listA>",are kissing each other,
null,"<div style=""font-size:60px;"">+</div>",,html-keyboard-response,413,1680016,0.0-19.0-0.17,57083,List1A,white,man,,,,null,,,,
null,"<img src=""stim_listA/fight3.gif""</stim_listA>",,html-keyboard-response,414,1682035,0.0-19.0-1.17,57083,List1A,white,man,,,,null,,,,
null,is fighting,,html-keyboard-response,415,1684056,0.0-19.0-2.17,57083,List1A,white,man,,,,null,,,,
14560,,,survey-text,416,1698618,0.0-19.0-3.17,57083,List1A,white,man,,,,,"{""Q0"":""Dave is fighting Jane.""}","<img src=""stim_listA/fight3.gif""</stim_listA>",is fighting,
null,"<div style=""font-size:60px;"">+</div>",,html-keyboard-response,417,1699136,0.0-19.0-0.18,57083,List1A,white,man,,,,null,,,,
null,"<img src=""stim_listA/touch1.gif""</stim_listA>",,html-keyboard-response,418,1701156,0.0-19.0-1.18,57083,List1A,white,man,,,,null,,,,
null,is touching,,html-keyboard-response,419,1703176,0.0-19.0-2.18,57083,List1A,white,man,,,,null,,,,
7680,,,survey-text,420,1710858,0.0-19.0-3.18,57083,List1A,white,man,,,,,"{""Q0"":""Kate is touching Mike. ""}","<img src=""stim_listA/touch1.gif""</stim_listA>",is touching,
null,"<div style=""font-size:60px;"">+</div>",,html-keyboard-response,421,1711375,0.0-19.0-0.19,57083,List1A,white,man,,,,null,,,,
null,"<img src=""stim_listA/dance8.gif""</stim_listA>",,html-keyboard-response,422,1713396,0.0-19.0-1.19,57083,List1A,white,man,,,,null,,,,
null,are dancing with each other,,html-keyboard-response,423,1715416,0.0-19.0-2.19,57083,List1A,white,man,,,,null,,,,
9880,,,survey-text,424,1725297,0.0-19.0-3.19,57083,List1A,white,man,,,,,"{""Q0"":""Kate and Ruth are dancing with each other. ""}","<img src=""stim_listA/dance8.gif""</stim_listA>",are dancing with each other,
2098,<p>Thank you for completing that task.</p><p>The final part of this session is a short questionnaire.</p><p>Press Continue.</p>,0,html-button-response,425,1727397,0.0-20.0,57083,List1A,white,man,,,,,,,,
21910,,,survey-text,426,1750330,0.0-21.0,57083,List1A,white,man,,,,,"{""Q0"":""51"",""Q1"":""English"",""Q2"":""English"",""Q3"":""UK"",""Q4"":""white"",""Q5"":""male""}",,,demographics
57114,,,survey-likert,427,1807452,0.0-22.0,57083,List1A,white,man,,,,,"{""Q0"":4,""Q1"":4,""Q2"":4,""Q3"":3,""Q4"":3,""Q5"":4,""Q6"":3,""Q7"":1,""Q8"":4,""Q9"":4,""Q10"":4,""Q11"":4,""Q12"":4,""Q13"":3}",,,likert_race
75483,,,survey-likert,428,1882942,0.0-23.0,57083,List1A,white,man,,,,,"{""Q0"":4,""Q1"":3,""Q2"":3,""Q3"":4,""Q4"":3,""Q5"":3,""Q6"":3,""Q7"":2,""Q8"":4,""Q9"":4,""Q10"":3,""Q11"":3,""Q12"":3,""Q13"":3}",,,likert_gender
4172,,,survey-text,429,1887117,0.0-24.0,57083,List1A,white,man,,,,,"{""Q0"":""ccc""}",,,worker_id
20396,,,external-html,430,1907697,0.0-25.0,57083,List1A,white,man,debrief.html,,,,,,,
