rt,stimulus,button_pressed,trial_type,trial_index,time_elapsed,internal_node_id,subject,list,ppt_race,ppt_gender,url,first_guess,correct,key_press,responses,image_type,phrase_type,test_part
1887,Welcome to the experiment. Press Continue to begin.,0,html-button-response,0,1919,0.0-0.0,57109,List1A,white,woman,,,,,,,,
6032,,,external-html,1,9116,0.0-1.0,57109,List1A,white,woman,consent.html,,,,,,,
11236,"<p>On the next page, you will see portraits of 8 people and their names.</p><p>Your first task is to take a few minutes to memorise the names of these people.</p><p>You will have to recall their names during the rest of the experiment, so it is</p><p>essential that you try to memorise these people and their names as best as you can.</p><br><p><strong>You will then be tested on your memory of these names and portraits.</strong></p><br><p>The experiment will start after you have completed this memory test.</p><br><p>Ready?</p>",0,html-button-response,2,20354,0.0-2.0,57109,List1A,white,woman,,,,,,,,
17459,"<img src='img/portrait_matrix_list1.JPG' style='width:900px;height:500px;''></img><p>If you have memorised all the portraits and names and are ready to start, press Continue.</p><p><strong>Please note: Your memory of these faces will be tested 4 times during this experiment.</strong></p>",0,html-button-response,3,38818,0.0-3.0-0.0,57109,List1A,white,woman,,,,,,,,
4070,"<img src=""portrait/BM2.jpg""style=""width:400px;height:400px;""></img>",5,html-button-response,4,43893,0.0-3.0-1.0,57109,List1A,white,woman,,TRUE,5,,,,,
null,CORRECT,,html-keyboard-response,5,45404,0.0-3.0-2.0-0.0,57109,List1A,white,woman,,,,null,,,,
4828,"<img src=""portrait/WM2.jpg""style=""width:400px;height:400px;""></img>",7,html-button-response,6,50234,0.0-3.0-4.0,57109,List1A,white,woman,,TRUE,7,,,,,
null,CORRECT,,html-keyboard-response,7,51742,0.0-3.0-5.0-0.0,57109,List1A,white,woman,,,,null,,,,
4795,"<img src=""portrait/BM1.jpg""style=""width:400px;height:400px;""></img>",4,html-button-response,8,56539,0.0-3.0-7.0,57109,List1A,white,woman,,TRUE,4,,,,,
null,CORRECT,,html-keyboard-response,9,58048,0.0-3.0-8.0-0.0,57109,List1A,white,woman,,,,null,,,,
3805,"<img src=""portrait/WM1.jpg""style=""width:400px;height:400px;""></img>",6,html-button-response,10,61855,0.0-3.0-10.0,57109,List1A,white,woman,,TRUE,6,,,,,
null,CORRECT,,html-keyboard-response,11,63364,0.0-3.0-11.0-0.0,57109,List1A,white,woman,,,,null,,,,
3284,"<img src=""portrait/BW2.jpg""style=""width:400px;height:400px;""></img>",2,html-button-response,12,66649,0.0-3.0-13.0,57109,List1A,white,woman,,TRUE,2,,,,,
null,CORRECT,,html-keyboard-response,13,68158,0.0-3.0-14.0-0.0,57109,List1A,white,woman,,,,null,,,,
4507,"<img src=""portrait/BW1.jpg""style=""width:400px;height:400px;""></img>",0,html-button-response,14,72667,0.0-3.0-16.0,57109,List1A,white,woman,,TRUE,0,,,,,
null,CORRECT,,html-keyboard-response,15,74177,0.0-3.0-17.0-0.0,57109,List1A,white,woman,,,,null,,,,
4144,"<img src=""portrait/WW2.jpg""style=""width:400px;height:400px;""></img>",3,html-button-response,16,78323,0.0-3.0-19.0,57109,List1A,white,woman,,TRUE,3,,,,,
null,CORRECT,,html-keyboard-response,17,79832,0.0-3.0-20.0-0.0,57109,List1A,white,woman,,,,null,,,,
4419,"<img src=""portrait/WW1.jpg""style=""width:400px;height:400px;""></img>",1,html-button-response,18,84252,0.0-3.0-22.0,57109,List1A,white,woman,,TRUE,1,,,,,
null,CORRECT,,html-keyboard-response,19,85757,0.0-3.0-23.0-0.0,57109,List1A,white,woman,,,,null,,,,
3323,<p>You got 8 out of 8 right first time. Press Continue.</p>,0,html-button-response,20,89081,0.0-3.0-25.0,57109,List1A,white,woman,,,,,,,,
79238,"<p>In this experiment, you will view photographs of the people from the memory game interacting.</p><p>By using the <strong>exact</strong> phrase given <i>after</i> the photograph appears and recalling the correct names of the people in the photographs, form a sentence describing the interaction. You do not need to capitalise names.</p><p>Type your answer in the space provided. Please complete every sentence before moving onto the next trial.</p><p>You will only have a few seconds to memorise each given photograph and phrase before you can respond, so try your best to focus.</p><p>An example is given below. Press 'Continue' when you are ready.</p><img src='img/speaking_example_v2.jpg' style='width:800px;height:460px;''></img>",0,html-button-response,21,169325,0.0-4.0,57109,List1A,white,woman,,,,,,,,
2278,"<p>Before the experiment starts, you will watch two example trials. Press 'Continue'.</p>",0,html-button-response,22,172605,0.0-5.0,57109,List1A,white,woman,,,,,,,,
null,<img src='img/speaking_WW.gif'></img>,,html-keyboard-response,23,175613,0.0-6.0,57109,List1A,white,woman,,,,null,,,,
null,<p>is speaking to</p>,,html-keyboard-response,24,177615,0.0-7.0,57109,List1A,white,woman,,,,null,,,,
5473,<p><b>Answer:</b> kate is speaking to beth</p>,0,html-button-response,25,183089,0.0-8.0,57109,List1A,white,woman,,,,,,,,
null,<img src='img/pointing_BM.gif'></img>,,html-keyboard-response,26,186096,0.0-9.0,57109,List1A,white,woman,,,,null,,,,
null,<p>are pointing at each other</p>,,html-keyboard-response,27,188099,0.0-10.0,57109,List1A,white,woman,,,,null,,,,
4884,<p><b>Answer:</b> luke and dave are pointing at each other</p>,0,html-button-response,28,192983,0.0-11.0,57109,List1A,white,woman,,,,,,,,
7651,"<p>Ready to start the experiment?</p><br><p><strong>Remember to describe the picture using a full sentence,</strong></p><p><strong> that combines the names of the people with the given phrase.</strong></p><p><strong> You do not need to capitalise names or use punctuation.</strong></p><br><p>Press 'Continue' to begin.</p>",0,html-button-response,29,201639,0.0-12.0,57109,List1A,white,woman,,,,,,,,
null,"<div style=""font-size:60px;"">+</div>",,html-keyboard-response,30,203148,0.0-13.0-0.0,57109,List1A,white,woman,,,,null,,,,
null,"<img src=""stim_listA/shout4.gif""</stim_listA>",,html-keyboard-response,31,205150,0.0-13.0-1.0,57109,List1A,white,woman,,,,null,,,,
null,are shouting at each other,,html-keyboard-response,32,207153,0.0-13.0-2.0,57109,List1A,white,woman,,,,null,,,,
3293,,,survey-text,33,210448,0.0-13.0-3.0,57109,List1A,white,woman,,,,,"{""Q0"":""Jane""}","<img src=""stim_listA/shout4.gif""</stim_listA>",are shouting at each other,
null,"<div style=""font-size:60px;"">+</div>",,html-keyboard-response,34,210949,0.0-13.0-0.1,57109,List1A,white,woman,,,,null,,,,
null,"<img src=""stim_listA/hug4.gif""</stim_listA>",,html-keyboard-response,35,212953,0.0-13.0-1.1,57109,List1A,white,woman,,,,null,,,,
null,are hugging each other,,html-keyboard-response,36,214957,0.0-13.0-2.1,57109,List1A,white,woman,,,,null,,,,
6956,,,survey-text,37,221914,0.0-13.0-3.1,57109,List1A,white,woman,,,,,"{""Q0"":""Jane is hugging Dave""}","<img src=""stim_listA/hug4.gif""</stim_listA>",are hugging each other,
null,"<div style=""font-size:60px;"">+</div>",,html-keyboard-response,38,222416,0.0-13.0-0.2,57109,List1A,white,woman,,,,null,,,,
null,"<img src=""stim_listA/talk6.gif""</stim_listA>",,html-keyboard-response,39,224420,0.0-13.0-1.2,57109,List1A,white,woman,,,,null,,,,
null,are talking to each other,,html-keyboard-response,40,226424,0.0-13.0-2.2,57109,List1A,white,woman,,,,null,,,,
6224,,,survey-text,41,232650,0.0-13.0-3.2,57109,List1A,white,woman,,,,,"{""Q0"":""Luke is talking to Mike""}","<img src=""stim_listA/talk6.gif""</stim_listA>",are talking to each other,
null,"<div style=""font-size:60px;"">+</div>",,html-keyboard-response,42,233156,0.0-13.0-0.3,57109,List1A,white,woman,,,,null,,,,
null,"<img src=""stim_listA/kiss6.gif""</stim_listA>",,html-keyboard-response,43,235158,0.0-13.0-1.3,57109,List1A,white,woman,,,,null,,,,
null,are kissing each other,,html-keyboard-response,44,237162,0.0-13.0-2.3,57109,List1A,white,woman,,,,null,,,,
11662,,,survey-text,45,248826,0.0-13.0-3.3,57109,List1A,white,woman,,,,,"{""Q0"":""dave is kissing mike""}","<img src=""stim_listA/kiss6.gif""</stim_listA>",are kissing each other,
null,"<div style=""font-size:60px;"">+</div>",,html-keyboard-response,46,249332,0.0-13.0-0.4,57109,List1A,white,woman,,,,null,,,,
null,"<img src=""stim_listA/talk5.gif""</stim_listA>",,html-keyboard-response,47,251335,0.0-13.0-1.4,57109,List1A,white,woman,,,,null,,,,
null,is talking to,,html-keyboard-response,48,253336,0.0-13.0-2.4,57109,List1A,white,woman,,,,null,,,,
9538,,,survey-text,49,262875,0.0-13.0-3.4,57109,List1A,white,woman,,,,,"{""Q0"":""fred is talking to dave""}","<img src=""stim_listA/talk5.gif""</stim_listA>",is talking to,
null,"<div style=""font-size:60px;"">+</div>",,html-keyboard-response,50,263378,0.0-13.0-0.5,57109,List1A,white,woman,,,,null,,,,
null,"<img src=""stim_listA/argue8.gif""</stim_listA>",,html-keyboard-response,51,265381,0.0-13.0-1.5,57109,List1A,white,woman,,,,null,,,,
null,are arguing with each other,,html-keyboard-response,52,267382,0.0-13.0-2.5,57109,List1A,white,woman,,,,null,,,,
8745,,,survey-text,53,276128,0.0-13.0-3.5,57109,List1A,white,woman,,,,,"{""Q0"":""jane and beth""}","<img src=""stim_listA/argue8.gif""</stim_listA>",are arguing with each other,
null,"<div style=""font-size:60px;"">+</div>",,html-keyboard-response,54,276631,0.0-13.0-0.6,57109,List1A,white,woman,,,,null,,,,
null,"<img src=""stim_listA/marry4.gif""</stim_listA>",,html-keyboard-response,55,278634,0.0-13.0-1.6,57109,List1A,white,woman,,,,null,,,,
null,are marrying each other,,html-keyboard-response,56,280638,0.0-13.0-2.6,57109,List1A,white,woman,,,,null,,,,
4105,,,survey-text,57,284744,0.0-13.0-3.6,57109,List1A,white,woman,,,,,"{""Q0"":""jane and luke""}","<img src=""stim_listA/marry4.gif""</stim_listA>",are marrying each other,
null,"<div style=""font-size:60px;"">+</div>",,html-keyboard-response,58,285247,0.0-13.0-0.7,57109,List1A,white,woman,,,,null,,,,
null,"<img src=""stim_listA/marry5.gif""</stim_listA>",,html-keyboard-response,59,287250,0.0-13.0-1.7,57109,List1A,white,woman,,,,null,,,,
null,is marrying,,html-keyboard-response,60,289253,0.0-13.0-2.7,57109,List1A,white,woman,,,,null,,,,
11603,,,survey-text,61,300857,0.0-13.0-3.7,57109,List1A,white,woman,,,,,"{""Q0"":""luke is marrying mike""}","<img src=""stim_listA/marry5.gif""</stim_listA>",is marrying,
null,"<div style=""font-size:60px;"">+</div>",,html-keyboard-response,62,301362,0.0-13.0-0.8,57109,List1A,white,woman,,,,null,,,,
null,"<img src=""stim_listA/marry1.gif""</stim_listA>",,html-keyboard-response,63,303364,0.0-13.0-1.8,57109,List1A,white,woman,,,,null,,,,
null,is marrying,,html-keyboard-response,64,305366,0.0-13.0-2.8,57109,List1A,white,woman,,,,null,,,,
5423,,,survey-text,65,310790,0.0-13.0-3.8,57109,List1A,white,woman,,,,,"{""Q0"":""beth is marrying mike""}","<img src=""stim_listA/marry1.gif""</stim_listA>",is marrying,
null,"<div style=""font-size:60px;"">+</div>",,html-keyboard-response,66,311293,0.0-13.0-0.9,57109,List1A,white,woman,,,,null,,,,
null,"<img src=""stim_listA/dance3.gif""</stim_listA>",,html-keyboard-response,67,313296,0.0-13.0-1.9,57109,List1A,white,woman,,,,null,,,,
null,is dancing with,,html-keyboard-response,68,315298,0.0-13.0-2.9,57109,List1A,white,woman,,,,null,,,,
16204,,,survey-text,69,331504,0.0-13.0-3.9,57109,List1A,white,woman,,,,,"{""Q0"":""jane is dancing with luke""}","<img src=""stim_listA/dance3.gif""</stim_listA>",is dancing with,
null,"<div style=""font-size:60px;"">+</div>",,html-keyboard-response,70,332009,0.0-13.0-0.10,57109,List1A,white,woman,,,,null,,,,
null,"<img src=""stim_listA/meet6.gif""</stim_listA>",,html-keyboard-response,71,334011,0.0-13.0-1.10,57109,List1A,white,woman,,,,null,,,,
null,are meeting each other,,html-keyboard-response,72,336015,0.0-13.0-2.10,57109,List1A,white,woman,,,,null,,,,
5615,,,survey-text,73,341631,0.0-13.0-3.10,57109,List1A,white,woman,,,,,"{""Q0"":""fred is meeting luke""}","<img src=""stim_listA/meet6.gif""</stim_listA>",are meeting each other,
null,"<div style=""font-size:60px;"">+</div>",,html-keyboard-response,74,342135,0.0-13.0-0.11,57109,List1A,white,woman,,,,null,,,,
null,"<img src=""stim_listA/fight8.gif""</stim_listA>",,html-keyboard-response,75,344136,0.0-13.0-1.11,57109,List1A,white,woman,,,,null,,,,
null,are fighting each other,,html-keyboard-response,76,346142,0.0-13.0-2.11,57109,List1A,white,woman,,,,null,,,,
5444,,,survey-text,77,351587,0.0-13.0-3.11,57109,List1A,white,woman,,,,,"{""Q0"":""ruth is fighting beth""}","<img src=""stim_listA/fight8.gif""</stim_listA>",are fighting each other,
null,"<div style=""font-size:60px;"">+</div>",,html-keyboard-response,78,352090,0.0-13.0-0.12,57109,List1A,white,woman,,,,null,,,,
null,"<img src=""stim_listA/kiss8.gif""</stim_listA>",,html-keyboard-response,79,354095,0.0-13.0-1.12,57109,List1A,white,woman,,,,null,,,,
null,are kissing each other,,html-keyboard-response,80,356097,0.0-13.0-2.12,57109,List1A,white,woman,,,,null,,,,
9177,,,survey-text,81,365275,0.0-13.0-3.12,57109,List1A,white,woman,,,,,"{""Q0"":""jane is kissing kate""}","<img src=""stim_listA/kiss8.gif""</stim_listA>",are kissing each other,
null,"<div style=""font-size:60px;"">+</div>",,html-keyboard-response,82,365779,0.0-13.0-0.13,57109,List1A,white,woman,,,,null,,,,
null,"<img src=""stim_listA/argue4.gif""</stim_listA>",,html-keyboard-response,83,367781,0.0-13.0-1.13,57109,List1A,white,woman,,,,null,,,,
null,are arguing with each other,,html-keyboard-response,84,369782,0.0-13.0-2.13,57109,List1A,white,woman,,,,null,,,,
5884,,,survey-text,85,375668,0.0-13.0-3.13,57109,List1A,white,woman,,,,,"{""Q0"":""jane is arguing with luke""}","<img src=""stim_listA/argue4.gif""</stim_listA>",are arguing with each other,
null,"<div style=""font-size:60px;"">+</div>",,html-keyboard-response,86,376172,0.0-13.0-0.14,57109,List1A,white,woman,,,,null,,,,
null,"<img src=""stim_listA/touch1.gif""</stim_listA>",,html-keyboard-response,87,378178,0.0-13.0-1.14,57109,List1A,white,woman,,,,null,,,,
null,is touching,,html-keyboard-response,88,380179,0.0-13.0-2.14,57109,List1A,white,woman,,,,null,,,,
5955,,,survey-text,89,386134,0.0-13.0-3.14,57109,List1A,white,woman,,,,,"{""Q0"":""kate is touching mike""}","<img src=""stim_listA/touch1.gif""</stim_listA>",is touching,
null,"<div style=""font-size:60px;"">+</div>",,html-keyboard-response,90,386641,0.0-13.0-0.15,57109,List1A,white,woman,,,,null,,,,
null,"<img src=""stim_listA/hug3.gif""</stim_listA>",,html-keyboard-response,91,388643,0.0-13.0-1.15,57109,List1A,white,woman,,,,null,,,,
null,is hugging,,html-keyboard-response,92,390647,0.0-13.0-2.15,57109,List1A,white,woman,,,,null,,,,
9009,,,survey-text,93,399658,0.0-13.0-3.15,57109,List1A,white,woman,,,,,"{""Q0"":""ruth is hugging luke""}","<img src=""stim_listA/hug3.gif""</stim_listA>",is hugging,
null,"<div style=""font-size:60px;"">+</div>",,html-keyboard-response,94,400164,0.0-13.0-0.16,57109,List1A,white,woman,,,,null,,,,
null,"<img src=""stim_listA/dance7.gif""</stim_listA>",,html-keyboard-response,95,402166,0.0-13.0-1.16,57109,List1A,white,woman,,,,null,,,,
null,is dancing with,,html-keyboard-response,96,404167,0.0-13.0-2.16,57109,List1A,white,woman,,,,null,,,,
6400,,,survey-text,97,410568,0.0-13.0-3.16,57109,List1A,white,woman,,,,,"{""Q0"":""beth is dancing with jane""}","<img src=""stim_listA/dance7.gif""</stim_listA>",is dancing with,
null,"<div style=""font-size:60px;"">+</div>",,html-keyboard-response,98,411073,0.0-13.0-0.17,57109,List1A,white,woman,,,,null,,,,
null,"<img src=""stim_listA/talk3.gif""</stim_listA>",,html-keyboard-response,99,413076,0.0-13.0-1.17,57109,List1A,white,woman,,,,null,,,,
null,is talking to,,html-keyboard-response,100,415080,0.0-13.0-2.17,57109,List1A,white,woman,,,,null,,,,
6069,,,survey-text,101,421151,0.0-13.0-3.17,57109,List1A,white,woman,,,,,"{""Q0"":""jane is talking to luke""}","<img src=""stim_listA/talk3.gif""</stim_listA>",is talking to,
null,"<div style=""font-size:60px;"">+</div>",,html-keyboard-response,102,421657,0.0-13.0-0.18,57109,List1A,white,woman,,,,null,,,,
null,"<img src=""stim_listA/touch8.gif""</stim_listA>",,html-keyboard-response,103,423660,0.0-13.0-1.18,57109,List1A,white,woman,,,,null,,,,
null,are touching each other,,html-keyboard-response,104,425665,0.0-13.0-2.18,57109,List1A,white,woman,,,,null,,,,
6216,,,survey-text,105,431883,0.0-13.0-3.18,57109,List1A,white,woman,,,,,"{""Q0"":""ruth is touching beth""}","<img src=""stim_listA/touch8.gif""</stim_listA>",are touching each other,
null,"<div style=""font-size:60px;"">+</div>",,html-keyboard-response,106,432387,0.0-13.0-0.19,57109,List1A,white,woman,,,,null,,,,
null,"<img src=""stim_listA/meet5.gif""</stim_listA>",,html-keyboard-response,107,434389,0.0-13.0-1.19,57109,List1A,white,woman,,,,null,,,,
null,is meeting,,html-keyboard-response,108,436394,0.0-13.0-2.19,57109,List1A,white,woman,,,,null,,,,
5553,,,survey-text,109,441948,0.0-13.0-3.19,57109,List1A,white,woman,,,,,"{""Q0"":""mike is meeting dave""}","<img src=""stim_listA/meet5.gif""</stim_listA>",is meeting,
12433,"<img src='img/portrait_matrix_list1.JPG' style='width:900px;height:500px;''></img><p>If you have memorised all the portraits and names and are ready to start, press Continue.</p><p><strong>Please note: Your memory of these faces will be tested 4 times during this experiment.</strong></p>",0,html-button-response,110,454383,0.0-14.0-0.0,57109,List1A,white,woman,,,,,,,,
3870,"<img src=""portrait/WW1.jpg""style=""width:400px;height:400px;""></img>",1,html-button-response,111,459257,0.0-14.0-1.0,57109,List1A,white,woman,,TRUE,1,,,,,
null,CORRECT,,html-keyboard-response,112,460762,0.0-14.0-2.0-0.0,57109,List1A,white,woman,,,,null,,,,
2515,"<img src=""portrait/WM1.jpg""style=""width:400px;height:400px;""></img>",6,html-button-response,113,463279,0.0-14.0-4.0,57109,List1A,white,woman,,TRUE,6,,,,,
null,CORRECT,,html-keyboard-response,114,464789,0.0-14.0-5.0-0.0,57109,List1A,white,woman,,,,null,,,,
2090,"<img src=""portrait/WM2.jpg""style=""width:400px;height:400px;""></img>",7,html-button-response,115,466880,0.0-14.0-7.0,57109,List1A,white,woman,,TRUE,7,,,,,
null,CORRECT,,html-keyboard-response,116,468388,0.0-14.0-8.0-0.0,57109,List1A,white,woman,,,,null,,,,
2491,"<img src=""portrait/WW2.jpg""style=""width:400px;height:400px;""></img>",3,html-button-response,117,470881,0.0-14.0-10.0,57109,List1A,white,woman,,TRUE,3,,,,,
null,CORRECT,,html-keyboard-response,118,472388,0.0-14.0-11.0-0.0,57109,List1A,white,woman,,,,null,,,,
2696,"<img src=""portrait/BM2.jpg""style=""width:400px;height:400px;""></img>",5,html-button-response,119,475085,0.0-14.0-13.0,57109,List1A,white,woman,,TRUE,5,,,,,
null,CORRECT,,html-keyboard-response,120,476590,0.0-14.0-14.0-0.0,57109,List1A,white,woman,,,,null,,,,
3797,"<img src=""portrait/BW1.jpg""style=""width:400px;height:400px;""></img>",0,html-button-response,121,480389,0.0-14.0-16.0,57109,List1A,white,woman,,TRUE,0,,,,,
null,CORRECT,,html-keyboard-response,122,481896,0.0-14.0-17.0-0.0,57109,List1A,white,woman,,,,null,,,,
1993,"<img src=""portrait/BW2.jpg""style=""width:400px;height:400px;""></img>",2,html-button-response,123,483890,0.0-14.0-19.0,57109,List1A,white,woman,,TRUE,2,,,,,
null,CORRECT,,html-keyboard-response,124,485397,0.0-14.0-20.0-0.0,57109,List1A,white,woman,,,,null,,,,
1372,"<img src=""portrait/BM1.jpg""style=""width:400px;height:400px;""></img>",4,html-button-response,125,486770,0.0-14.0-22.0,57109,List1A,white,woman,,TRUE,4,,,,,
null,CORRECT,,html-keyboard-response,126,488276,0.0-14.0-23.0-0.0,57109,List1A,white,woman,,,,null,,,,
2311,<p>You got 8 out of 8 right first time. Press Continue.</p>,0,html-button-response,127,490588,0.0-14.0-25.0,57109,List1A,white,woman,,,,,,,,
null,"<div style=""font-size:60px;"">+</div>",,html-keyboard-response,128,492097,0.0-15.0-0.0,57109,List1A,white,woman,,,,null,,,,
null,"<img src=""stim_listA/shout3.gif""</stim_listA>",,html-keyboard-response,129,494100,0.0-15.0-1.0,57109,List1A,white,woman,,,,null,,,,
null,is shouting at,,html-keyboard-response,130,496102,0.0-15.0-2.0,57109,List1A,white,woman,,,,null,,,,
7463,,,survey-text,131,503566,0.0-15.0-3.0,57109,List1A,white,woman,,,,,"{""Q0"":""ruth is shouting at luke""}","<img src=""stim_listA/shout3.gif""</stim_listA>",is shouting at,
null,"<div style=""font-size:60px;"">+</div>",,html-keyboard-response,132,504069,0.0-15.0-0.1,57109,List1A,white,woman,,,,null,,,,
null,"<img src=""stim_listA/shout1.gif""</stim_listA>",,html-keyboard-response,133,506072,0.0-15.0-1.1,57109,List1A,white,woman,,,,null,,,,
null,is shouting at,,html-keyboard-response,134,508073,0.0-15.0-2.1,57109,List1A,white,woman,,,,null,,,,
6349,,,survey-text,135,514423,0.0-15.0-3.1,57109,List1A,white,woman,,,,,"{""Q0"":""beth is shouting at fred""}","<img src=""stim_listA/shout1.gif""</stim_listA>",is shouting at,
null,"<div style=""font-size:60px;"">+</div>",,html-keyboard-response,136,514925,0.0-15.0-0.2,57109,List1A,white,woman,,,,null,,,,
null,"<img src=""stim_listA/dance4.gif""</stim_listA>",,html-keyboard-response,137,516928,0.0-15.0-1.2,57109,List1A,white,woman,,,,null,,,,
null,are dancing with each other,,html-keyboard-response,138,518931,0.0-15.0-2.2,57109,List1A,white,woman,,,,null,,,,
5965,,,survey-text,139,524897,0.0-15.0-3.2,57109,List1A,white,woman,,,,,"{""Q0"":""ruth is dancing with dave""}","<img src=""stim_listA/dance4.gif""</stim_listA>",are dancing with each other,
null,"<div style=""font-size:60px;"">+</div>",,html-keyboard-response,140,525399,0.0-15.0-0.3,57109,List1A,white,woman,,,,null,,,,
null,"<img src=""stim_listA/hug7.gif""</stim_listA>",,html-keyboard-response,141,527401,0.0-15.0-1.3,57109,List1A,white,woman,,,,null,,,,
null,is hugging,,html-keyboard-response,142,529403,0.0-15.0-2.3,57109,List1A,white,woman,,,,null,,,,
4342,,,survey-text,143,533746,0.0-15.0-3.3,57109,List1A,white,woman,,,,,"{""Q0"":""ruth is hugging beth""}","<img src=""stim_listA/hug7.gif""</stim_listA>",is hugging,
null,"<div style=""font-size:60px;"">+</div>",,html-keyboard-response,144,534251,0.0-15.0-0.4,57109,List1A,white,woman,,,,null,,,,
null,"<img src=""stim_listA/marry6.gif""</stim_listA>",,html-keyboard-response,145,536253,0.0-15.0-1.4,57109,List1A,white,woman,,,,null,,,,
null,are marrying each other,,html-keyboard-response,146,538258,0.0-15.0-2.4,57109,List1A,white,woman,,,,null,,,,
5469,,,survey-text,147,543728,0.0-15.0-3.4,57109,List1A,white,woman,,,,,"{""Q0"":""dave is marrying fred""}","<img src=""stim_listA/marry6.gif""</stim_listA>",are marrying each other,
null,"<div style=""font-size:60px;"">+</div>",,html-keyboard-response,148,544230,0.0-15.0-0.5,57109,List1A,white,woman,,,,null,,,,
null,"<img src=""stim_listA/meet3.gif""</stim_listA>",,html-keyboard-response,149,546235,0.0-15.0-1.5,57109,List1A,white,woman,,,,null,,,,
null,is meeting,,html-keyboard-response,150,548236,0.0-15.0-2.5,57109,List1A,white,woman,,,,null,,,,
4130,,,survey-text,151,552367,0.0-15.0-3.5,57109,List1A,white,woman,,,,,"{""Q0"":""dave is meeting jane""}","<img src=""stim_listA/meet3.gif""</stim_listA>",is meeting,
null,"<div style=""font-size:60px;"">+</div>",,html-keyboard-response,152,552869,0.0-15.0-0.6,57109,List1A,white,woman,,,,null,,,,
null,"<img src=""stim_listA/kiss4.gif""</stim_listA>",,html-keyboard-response,153,554871,0.0-15.0-1.6,57109,List1A,white,woman,,,,null,,,,
null,are kissing each other,,html-keyboard-response,154,556875,0.0-15.0-2.6,57109,List1A,white,woman,,,,null,,,,
4846,,,survey-text,155,561722,0.0-15.0-3.6,57109,List1A,white,woman,,,,,"{""Q0"":""dave is kissing jane""}","<img src=""stim_listA/kiss4.gif""</stim_listA>",are kissing each other,
null,"<div style=""font-size:60px;"">+</div>",,html-keyboard-response,156,562226,0.0-15.0-0.7,57109,List1A,white,woman,,,,null,,,,
null,"<img src=""stim_listA/meet7.gif""</stim_listA>",,html-keyboard-response,157,564232,0.0-15.0-1.7,57109,List1A,white,woman,,,,null,,,,
null,is meeting,,html-keyboard-response,158,566235,0.0-15.0-2.7,57109,List1A,white,woman,,,,null,,,,
4561,,,survey-text,159,570798,0.0-15.0-3.7,57109,List1A,white,woman,,,,,"{""Q0"":""jane is meeting kate""}","<img src=""stim_listA/meet7.gif""</stim_listA>",is meeting,
null,"<div style=""font-size:60px;"">+</div>",,html-keyboard-response,160,571303,0.0-15.0-0.8,57109,List1A,white,woman,,,,null,,,,
null,"<img src=""stim_listA/argue1.gif""</stim_listA>",,html-keyboard-response,161,573306,0.0-15.0-1.8,57109,List1A,white,woman,,,,null,,,,
null,is arguing with,,html-keyboard-response,162,575309,0.0-15.0-2.8,57109,List1A,white,woman,,,,null,,,,
7549,,,survey-text,163,582858,0.0-15.0-3.8,57109,List1A,white,woman,,,,,"{""Q0"":""beth is arguing with mike""}","<img src=""stim_listA/argue1.gif""</stim_listA>",is arguing with,
null,"<div style=""font-size:60px;"">+</div>",,html-keyboard-response,164,583360,0.0-15.0-0.9,57109,List1A,white,woman,,,,null,,,,
null,"<img src=""stim_listA/talk1.gif""</stim_listA>",,html-keyboard-response,165,585363,0.0-15.0-1.9,57109,List1A,white,woman,,,,null,,,,
null,is talking to,,html-keyboard-response,166,587366,0.0-15.0-2.9,57109,List1A,white,woman,,,,null,,,,
5175,,,survey-text,167,592541,0.0-15.0-3.9,57109,List1A,white,woman,,,,,"{""Q0"":""fred is talking to kate""}","<img src=""stim_listA/talk1.gif""</stim_listA>",is talking to,
null,"<div style=""font-size:60px;"">+</div>",,html-keyboard-response,168,593043,0.0-15.0-0.10,57109,List1A,white,woman,,,,null,,,,
null,"<img src=""stim_listA/kiss1.gif""</stim_listA>",,html-keyboard-response,169,595047,0.0-15.0-1.10,57109,List1A,white,woman,,,,null,,,,
null,is kissing,,html-keyboard-response,170,597050,0.0-15.0-2.10,57109,List1A,white,woman,,,,null,,,,
6079,,,survey-text,171,603131,0.0-15.0-3.10,57109,List1A,white,woman,,,,,"{""Q0"":""fred is kissing beth""}","<img src=""stim_listA/kiss1.gif""</stim_listA>",is kissing,
null,"<div style=""font-size:60px;"">+</div>",,html-keyboard-response,172,603633,0.0-15.0-0.11,57109,List1A,white,woman,,,,null,,,,
null,"<img src=""stim_listA/fight3.gif""</stim_listA>",,html-keyboard-response,173,605636,0.0-15.0-1.11,57109,List1A,white,woman,,,,null,,,,
null,is fighting,,html-keyboard-response,174,607638,0.0-15.0-2.11,57109,List1A,white,woman,,,,null,,,,
4831,,,survey-text,175,612470,0.0-15.0-3.11,57109,List1A,white,woman,,,,,"{""Q0"":""jane is fighting dave""}","<img src=""stim_listA/fight3.gif""</stim_listA>",is fighting,
null,"<div style=""font-size:60px;"">+</div>",,html-keyboard-response,176,612973,0.0-15.0-0.12,57109,List1A,white,woman,,,,null,,,,
null,"<img src=""stim_listA/fight7.gif""</stim_listA>",,html-keyboard-response,177,614976,0.0-15.0-1.12,57109,List1A,white,woman,,,,null,,,,
null,is fighting,,html-keyboard-response,178,616978,0.0-15.0-2.12,57109,List1A,white,woman,,,,null,,,,
4595,,,survey-text,179,621575,0.0-15.0-3.12,57109,List1A,white,woman,,,,,"{""Q0"":""jane is fighting kate""}","<img src=""stim_listA/fight7.gif""</stim_listA>",is fighting,
null,"<div style=""font-size:60px;"">+</div>",,html-keyboard-response,180,622079,0.0-15.0-0.13,57109,List1A,white,woman,,,,null,,,,
null,"<img src=""stim_listA/meet2.gif""</stim_listA>",,html-keyboard-response,181,624081,0.0-15.0-1.13,57109,List1A,white,woman,,,,null,,,,
null,are meeting each other,,html-keyboard-response,182,626084,0.0-15.0-2.13,57109,List1A,white,woman,,,,null,,,,
12058,,,survey-text,183,638144,0.0-15.0-3.13,57109,List1A,white,woman,,,,,"{""Q0"":""fred is meeting beth""}","<img src=""stim_listA/meet2.gif""</stim_listA>",are meeting each other,
null,"<div style=""font-size:60px;"">+</div>",,html-keyboard-response,184,638650,0.0-15.0-0.14,57109,List1A,white,woman,,,,null,,,,
null,"<img src=""stim_listA/touch6.gif""</stim_listA>",,html-keyboard-response,185,640653,0.0-15.0-1.14,57109,List1A,white,woman,,,,null,,,,
null,are touching each other,,html-keyboard-response,186,642655,0.0-15.0-2.14,57109,List1A,white,woman,,,,null,,,,
4346,,,survey-text,187,647002,0.0-15.0-3.14,57109,List1A,white,woman,,,,,"{""Q0"":""fred is touching luke""}","<img src=""stim_listA/touch6.gif""</stim_listA>",are touching each other,
null,"<div style=""font-size:60px;"">+</div>",,html-keyboard-response,188,647504,0.0-15.0-0.15,57109,List1A,white,woman,,,,null,,,,
null,"<img src=""stim_listA/talk7.gif""</stim_listA>",,html-keyboard-response,189,649511,0.0-15.0-1.15,57109,List1A,white,woman,,,,null,,,,
null,is talking to,,html-keyboard-response,190,651513,0.0-15.0-2.15,57109,List1A,white,woman,,,,null,,,,
4641,,,survey-text,191,656155,0.0-15.0-3.15,57109,List1A,white,woman,,,,,"{""Q0"":""jane is talking to beth""}","<img src=""stim_listA/talk7.gif""</stim_listA>",is talking to,
null,"<div style=""font-size:60px;"">+</div>",,html-keyboard-response,192,656660,0.0-15.0-0.16,57109,List1A,white,woman,,,,null,,,,
null,"<img src=""stim_listA/shout2.gif""</stim_listA>",,html-keyboard-response,193,658667,0.0-15.0-1.16,57109,List1A,white,woman,,,,null,,,,
null,are shouting at each other,,html-keyboard-response,194,660673,0.0-15.0-2.16,57109,List1A,white,woman,,,,null,,,,
4861,,,survey-text,195,665536,0.0-15.0-3.16,57109,List1A,white,woman,,,,,"{""Q0"":""kate is shouting at luke""}","<img src=""stim_listA/shout2.gif""</stim_listA>",are shouting at each other,
null,"<div style=""font-size:60px;"">+</div>",,html-keyboard-response,196,666042,0.0-15.0-0.17,57109,List1A,white,woman,,,,null,,,,
null,"<img src=""stim_listA/marry8.gif""</stim_listA>",,html-keyboard-response,197,668047,0.0-15.0-1.17,57109,List1A,white,woman,,,,null,,,,
null,are marrying each other,,html-keyboard-response,198,670048,0.0-15.0-2.17,57109,List1A,white,woman,,,,null,,,,
4982,,,survey-text,199,675031,0.0-15.0-3.17,57109,List1A,white,woman,,,,,"{""Q0"":""jane is marrying beth""}","<img src=""stim_listA/marry8.gif""</stim_listA>",are marrying each other,
null,"<div style=""font-size:60px;"">+</div>",,html-keyboard-response,200,675533,0.0-15.0-0.18,57109,List1A,white,woman,,,,null,,,,
null,"<img src=""stim_listA/dance8.gif""</stim_listA>",,html-keyboard-response,201,677539,0.0-15.0-1.18,57109,List1A,white,woman,,,,null,,,,
null,are dancing with each other,,html-keyboard-response,202,679541,0.0-15.0-2.18,57109,List1A,white,woman,,,,null,,,,
6157,,,survey-text,203,685699,0.0-15.0-3.18,57109,List1A,white,woman,,,,,"{""Q0"":""kate is dancing with ruth""}","<img src=""stim_listA/dance8.gif""</stim_listA>",are dancing with each other,
null,"<div style=""font-size:60px;"">+</div>",,html-keyboard-response,204,686205,0.0-15.0-0.19,57109,List1A,white,woman,,,,null,,,,
null,"<img src=""stim_listA/fight2.gif""</stim_listA>",,html-keyboard-response,205,688212,0.0-15.0-1.19,57109,List1A,white,woman,,,,null,,,,
null,are fighting each other,,html-keyboard-response,206,690215,0.0-15.0-2.19,57109,List1A,white,woman,,,,null,,,,
13181,,,survey-text,207,703397,0.0-15.0-3.19,57109,List1A,white,woman,,,,,"{""Q0"":""fred is fighting beth""}","<img src=""stim_listA/fight2.gif""</stim_listA>",are fighting each other,
3452,"<img src='img/portrait_matrix_list1.JPG' style='width:900px;height:500px;''></img><p>If you have memorised all the portraits and names and are ready to start, press Continue.</p><p><strong>Please note: Your memory of these faces will be tested 4 times during this experiment.</strong></p>",0,html-button-response,208,706851,0.0-16.0-0.0,57109,List1A,white,woman,,,,,,,,
4001,"<img src=""portrait/BM1.jpg""style=""width:400px;height:400px;""></img>",4,html-button-response,209,711859,0.0-16.0-1.0,57109,List1A,white,woman,,TRUE,4,,,,,
null,CORRECT,,html-keyboard-response,210,713362,0.0-16.0-2.0-0.0,57109,List1A,white,woman,,,,null,,,,
1965,"<img src=""portrait/WM1.jpg""style=""width:400px;height:400px;""></img>",6,html-button-response,211,715329,0.0-16.0-4.0,57109,List1A,white,woman,,TRUE,6,,,,,
null,CORRECT,,html-keyboard-response,212,716835,0.0-16.0-5.0-0.0,57109,List1A,white,woman,,,,null,,,,
1630,"<img src=""portrait/BW2.jpg""style=""width:400px;height:400px;""></img>",2,html-button-response,213,718467,0.0-16.0-7.0,57109,List1A,white,woman,,TRUE,2,,,,,
null,CORRECT,,html-keyboard-response,214,719978,0.0-16.0-8.0-0.0,57109,List1A,white,woman,,,,null,,,,
1879,"<img src=""portrait/WM2.jpg""style=""width:400px;height:400px;""></img>",7,html-button-response,215,721859,0.0-16.0-10.0,57109,List1A,white,woman,,TRUE,7,,,,,
null,CORRECT,,html-keyboard-response,216,723368,0.0-16.0-11.0-0.0,57109,List1A,white,woman,,,,null,,,,
1270,"<img src=""portrait/BM2.jpg""style=""width:400px;height:400px;""></img>",5,html-button-response,217,724640,0.0-16.0-13.0,57109,List1A,white,woman,,TRUE,5,,,,,
null,CORRECT,,html-keyboard-response,218,726147,0.0-16.0-14.0-0.0,57109,List1A,white,woman,,,,null,,,,
2028,"<img src=""portrait/BW1.jpg""style=""width:400px;height:400px;""></img>",0,html-button-response,219,728177,0.0-16.0-16.0,57109,List1A,white,woman,,TRUE,0,,,,,
null,CORRECT,,html-keyboard-response,220,729682,0.0-16.0-17.0-0.0,57109,List1A,white,woman,,,,null,,,,
1469,"<img src=""portrait/WW2.jpg""style=""width:400px;height:400px;""></img>",3,html-button-response,221,731153,0.0-16.0-19.0,57109,List1A,white,woman,,TRUE,3,,,,,
null,CORRECT,,html-keyboard-response,222,732661,0.0-16.0-20.0-0.0,57109,List1A,white,woman,,,,null,,,,
3600,"<img src=""portrait/WW1.jpg""style=""width:400px;height:400px;""></img>",1,html-button-response,223,736263,0.0-16.0-22.0,57109,List1A,white,woman,,TRUE,1,,,,,
null,CORRECT,,html-keyboard-response,224,737769,0.0-16.0-23.0-0.0,57109,List1A,white,woman,,,,null,,,,
6477,<p>You got 8 out of 8 right first time. Press Continue.</p>,0,html-button-response,225,744249,0.0-16.0-25.0,57109,List1A,white,woman,,,,,,,,
null,"<div style=""font-size:60px;"">+</div>",,html-keyboard-response,226,745758,0.0-17.0-0.0,57109,List1A,white,woman,,,,null,,,,
null,"<img src=""stim_listA/marry3.gif""</stim_listA>",,html-keyboard-response,227,747762,0.0-17.0-1.0,57109,List1A,white,woman,,,,null,,,,
null,is marrying,,html-keyboard-response,228,749766,0.0-17.0-2.0,57109,List1A,white,woman,,,,null,,,,
4838,,,survey-text,229,754605,0.0-17.0-3.0,57109,List1A,white,woman,,,,,"{""Q0"":""dave is marrying ruth""}","<img src=""stim_listA/marry3.gif""</stim_listA>",is marrying,
null,"<div style=""font-size:60px;"">+</div>",,html-keyboard-response,230,755112,0.0-17.0-0.1,57109,List1A,white,woman,,,,null,,,,
null,"<img src=""stim_listA/meet1.gif""</stim_listA>",,html-keyboard-response,231,757118,0.0-17.0-1.1,57109,List1A,white,woman,,,,null,,,,
null,is meeting,,html-keyboard-response,232,759125,0.0-17.0-2.1,57109,List1A,white,woman,,,,null,,,,
4814,,,survey-text,233,763941,0.0-17.0-3.1,57109,List1A,white,woman,,,,,"{""Q0"":""mike ismeeting kate""}","<img src=""stim_listA/meet1.gif""</stim_listA>",is meeting,
null,"<div style=""font-size:60px;"">+</div>",,html-keyboard-response,234,764442,0.0-17.0-0.2,57109,List1A,white,woman,,,,null,,,,
null,"<img src=""stim_listA/talk4.gif""</stim_listA>",,html-keyboard-response,235,766448,0.0-17.0-1.2,57109,List1A,white,woman,,,,null,,,,
null,are talking to each other,,html-keyboard-response,236,768450,0.0-17.0-2.2,57109,List1A,white,woman,,,,null,,,,
5867,,,survey-text,237,774318,0.0-17.0-3.2,57109,List1A,white,woman,,,,,"{""Q0"":""ruth is talking to dave""}","<img src=""stim_listA/talk4.gif""</stim_listA>",are talking to each other,
null,"<div style=""font-size:60px;"">+</div>",,html-keyboard-response,238,774825,0.0-17.0-0.3,57109,List1A,white,woman,,,,null,,,,
null,"<img src=""stim_listA/shout7.gif""</stim_listA>",,html-keyboard-response,239,776827,0.0-17.0-1.3,57109,List1A,white,woman,,,,null,,,,
null,is shouting at,,html-keyboard-response,240,778828,0.0-17.0-2.3,57109,List1A,white,woman,,,,null,,,,
4598,,,survey-text,241,783428,0.0-17.0-3.3,57109,List1A,white,woman,,,,,"{""Q0"":""ruth is shouting at beth""}","<img src=""stim_listA/shout7.gif""</stim_listA>",is shouting at,
null,"<div style=""font-size:60px;"">+</div>",,html-keyboard-response,242,783933,0.0-17.0-0.4,57109,List1A,white,woman,,,,null,,,,
null,"<img src=""stim_listA/talk8.gif""</stim_listA>",,html-keyboard-response,243,785939,0.0-17.0-1.4,57109,List1A,white,woman,,,,null,,,,
null,are talking to each other,,html-keyboard-response,244,787941,0.0-17.0-2.4,57109,List1A,white,woman,,,,null,,,,
4858,,,survey-text,245,792801,0.0-17.0-3.4,57109,List1A,white,woman,,,,,"{""Q0"":""ruth is talking to kate""}","<img src=""stim_listA/talk8.gif""</stim_listA>",are talking to each other,
null,"<div style=""font-size:60px;"">+</div>",,html-keyboard-response,246,793305,0.0-17.0-0.5,57109,List1A,white,woman,,,,null,,,,
null,"<img src=""stim_listA/touch2.gif""</stim_listA>",,html-keyboard-response,247,795311,0.0-17.0-1.5,57109,List1A,white,woman,,,,null,,,,
null,are touching each other,,html-keyboard-response,248,797313,0.0-17.0-2.5,57109,List1A,white,woman,,,,null,,,,
3966,,,survey-text,249,801281,0.0-17.0-3.5,57109,List1A,white,woman,,,,,"{""Q0"":""beth is touching fred""}","<img src=""stim_listA/touch2.gif""</stim_listA>",are touching each other,
null,"<div style=""font-size:60px;"">+</div>",,html-keyboard-response,250,801785,0.0-17.0-0.6,57109,List1A,white,woman,,,,null,,,,
null,"<img src=""stim_listA/shout6.gif""</stim_listA>",,html-keyboard-response,251,803792,0.0-17.0-1.6,57109,List1A,white,woman,,,,null,,,,
null,are shouting at each other,,html-keyboard-response,252,805798,0.0-17.0-2.6,57109,List1A,white,woman,,,,null,,,,
7238,,,survey-text,253,813037,0.0-17.0-3.6,57109,List1A,white,woman,,,,,"{""Q0"":""dave is shouting at mike""}","<img src=""stim_listA/shout6.gif""</stim_listA>",are shouting at each other,
null,"<div style=""font-size:60px;"">+</div>",,html-keyboard-response,254,813541,0.0-17.0-0.7,57109,List1A,white,woman,,,,null,,,,
null,"<img src=""stim_listA/argue5.gif""</stim_listA>",,html-keyboard-response,255,815547,0.0-17.0-1.7,57109,List1A,white,woman,,,,null,,,,
null,is arguing with,,html-keyboard-response,256,817548,0.0-17.0-2.7,57109,List1A,white,woman,,,,null,,,,
5738,,,survey-text,257,823287,0.0-17.0-3.7,57109,List1A,white,woman,,,,,"{""Q0"":""mike is arguing with luke""}","<img src=""stim_listA/argue5.gif""</stim_listA>",is arguing with,
null,"<div style=""font-size:60px;"">+</div>",,html-keyboard-response,258,823793,0.0-17.0-0.8,57109,List1A,white,woman,,,,null,,,,
null,"<img src=""stim_listA/dance5.gif""</stim_listA>",,html-keyboard-response,259,825795,0.0-17.0-1.8,57109,List1A,white,woman,,,,null,,,,
null,is dancing with,,html-keyboard-response,260,827797,0.0-17.0-2.8,57109,List1A,white,woman,,,,null,,,,
4149,,,survey-text,261,831947,0.0-17.0-3.8,57109,List1A,white,woman,,,,,"{""Q0"":""fred is dancing with dave""}","<img src=""stim_listA/dance5.gif""</stim_listA>",is dancing with,
null,"<div style=""font-size:60px;"">+</div>",,html-keyboard-response,262,832453,0.0-17.0-0.9,57109,List1A,white,woman,,,,null,,,,
null,"<img src=""stim_listA/kiss3.gif""</stim_listA>",,html-keyboard-response,263,834458,0.0-17.0-1.9,57109,List1A,white,woman,,,,null,,,,
null,is kissing,,html-keyboard-response,264,836458,0.0-17.0-2.9,57109,List1A,white,woman,,,,null,,,,
4101,,,survey-text,265,840560,0.0-17.0-3.9,57109,List1A,white,woman,,,,,"{""Q0"":""luke is kissing ruth""}","<img src=""stim_listA/kiss3.gif""</stim_listA>",is kissing,
null,"<div style=""font-size:60px;"">+</div>",,html-keyboard-response,266,841065,0.0-17.0-0.10,57109,List1A,white,woman,,,,null,,,,
null,"<img src=""stim_listA/meet8.gif""</stim_listA>",,html-keyboard-response,267,843071,0.0-17.0-1.10,57109,List1A,white,woman,,,,null,,,,
null,are meeting each other,,html-keyboard-response,268,845072,0.0-17.0-2.10,57109,List1A,white,woman,,,,null,,,,
4026,,,survey-text,269,849101,0.0-17.0-3.10,57109,List1A,white,woman,,,,,"{""Q0"":""ruth is meeting beth""}","<img src=""stim_listA/meet8.gif""</stim_listA>",are meeting each other,
null,"<div style=""font-size:60px;"">+</div>",,html-keyboard-response,270,849605,0.0-17.0-0.11,57109,List1A,white,woman,,,,null,,,,
null,"<img src=""stim_listA/touch7.gif""</stim_listA>",,html-keyboard-response,271,851608,0.0-17.0-1.11,57109,List1A,white,woman,,,,null,,,,
null,is touching,,html-keyboard-response,272,853610,0.0-17.0-2.11,57109,List1A,white,woman,,,,null,,,,
3828,,,survey-text,273,857439,0.0-17.0-3.11,57109,List1A,white,woman,,,,,"{""Q0"":""jane is touching kate""}","<img src=""stim_listA/touch7.gif""</stim_listA>",is touching,
null,"<div style=""font-size:60px;"">+</div>",,html-keyboard-response,274,857945,0.0-17.0-0.12,57109,List1A,white,woman,,,,null,,,,
null,"<img src=""stim_listA/dance1.gif""</stim_listA>",,html-keyboard-response,275,859948,0.0-17.0-1.12,57109,List1A,white,woman,,,,null,,,,
null,is dancing with,,html-keyboard-response,276,861949,0.0-17.0-2.12,57109,List1A,white,woman,,,,null,,,,
5542,,,survey-text,277,867493,0.0-17.0-3.12,57109,List1A,white,woman,,,,,"{""Q0"":""fred is dancing with kate""}","<img src=""stim_listA/dance1.gif""</stim_listA>",is dancing with,
null,"<div style=""font-size:60px;"">+</div>",,html-keyboard-response,278,867997,0.0-17.0-0.13,57109,List1A,white,woman,,,,null,,,,
null,"<img src=""stim_listA/dance2.gif""</stim_listA>",,html-keyboard-response,279,870003,0.0-17.0-1.13,57109,List1A,white,woman,,,,null,,,,
null,are dancing with each other,,html-keyboard-response,280,872004,0.0-17.0-2.13,57109,List1A,white,woman,,,,null,,,,
51822,,,survey-text,281,923827,0.0-17.0-3.13,57109,List1A,white,woman,,,,,"{""Q0"":""beth is dancing with mike""}","<img src=""stim_listA/dance2.gif""</stim_listA>",are dancing with each other,
null,"<div style=""font-size:60px;"">+</div>",,html-keyboard-response,282,924330,0.0-17.0-0.14,57109,List1A,white,woman,,,,null,,,,
null,"<img src=""stim_listA/argue3.gif""</stim_listA>",,html-keyboard-response,283,926336,0.0-17.0-1.14,57109,List1A,white,woman,,,,null,,,,
null,is arguing with,,html-keyboard-response,284,928337,0.0-17.0-2.14,57109,List1A,white,woman,,,,null,,,,
5222,,,survey-text,285,933561,0.0-17.0-3.14,57109,List1A,white,woman,,,,,"{""Q0"":""dave is arguing with ruth""}","<img src=""stim_listA/argue3.gif""</stim_listA>",is arguing with,
null,"<div style=""font-size:60px;"">+</div>",,html-keyboard-response,286,934067,0.0-17.0-0.15,57109,List1A,white,woman,,,,null,,,,
null,"<img src=""stim_listA/touch5.gif""</stim_listA>",,html-keyboard-response,287,936073,0.0-17.0-1.15,57109,List1A,white,woman,,,,null,,,,
null,is touching,,html-keyboard-response,288,938076,0.0-17.0-2.15,57109,List1A,white,woman,,,,null,,,,
5119,,,survey-text,289,943197,0.0-17.0-3.15,57109,List1A,white,woman,,,,,"{""Q0"":""dave is touching mike""}","<img src=""stim_listA/touch5.gif""</stim_listA>",is touching,
null,"<div style=""font-size:60px;"">+</div>",,html-keyboard-response,290,943698,0.0-17.0-0.16,57109,List1A,white,woman,,,,null,,,,
null,"<img src=""stim_listA/hug2.gif""</stim_listA>",,html-keyboard-response,291,945700,0.0-17.0-1.16,57109,List1A,white,woman,,,,null,,,,
null,are hugging each other,,html-keyboard-response,292,947705,0.0-17.0-2.16,57109,List1A,white,woman,,,,null,,,,
4195,,,survey-text,293,951901,0.0-17.0-3.16,57109,List1A,white,woman,,,,,"{""Q0"":""kate is hugging mike""}","<img src=""stim_listA/hug2.gif""</stim_listA>",are hugging each other,
null,"<div style=""font-size:60px;"">+</div>",,html-keyboard-response,294,952407,0.0-17.0-0.17,57109,List1A,white,woman,,,,null,,,,
null,"<img src=""stim_listA/argue2.gif""</stim_listA>",,html-keyboard-response,295,954408,0.0-17.0-1.17,57109,List1A,white,woman,,,,null,,,,
null,are arguing with each other,,html-keyboard-response,296,956411,0.0-17.0-2.17,57109,List1A,white,woman,,,,null,,,,
6306,,,survey-text,297,962719,0.0-17.0-3.17,57109,List1A,white,woman,,,,,"{""Q0"":""fred is arguing with kate""}","<img src=""stim_listA/argue2.gif""</stim_listA>",are arguing with each other,
null,"<div style=""font-size:60px;"">+</div>",,html-keyboard-response,298,963221,0.0-17.0-0.18,57109,List1A,white,woman,,,,null,,,,
null,"<img src=""stim_listA/kiss5.gif""</stim_listA>",,html-keyboard-response,299,965224,0.0-17.0-1.18,57109,List1A,white,woman,,,,null,,,,
null,is kissing,,html-keyboard-response,300,967225,0.0-17.0-2.18,57109,List1A,white,woman,,,,null,,,,
3966,,,survey-text,301,971193,0.0-17.0-3.18,57109,List1A,white,woman,,,,,"{""Q0"":""fred is kissing luke""}","<img src=""stim_listA/kiss5.gif""</stim_listA>",is kissing,
null,"<div style=""font-size:60px;"">+</div>",,html-keyboard-response,302,971699,0.0-17.0-0.19,57109,List1A,white,woman,,,,null,,,,
null,"<img src=""stim_listA/talk2.gif""</stim_listA>",,html-keyboard-response,303,973705,0.0-17.0-1.19,57109,List1A,white,woman,,,,null,,,,
null,are talking to each other,,html-keyboard-response,304,975708,0.0-17.0-2.19,57109,List1A,white,woman,,,,null,,,,
6143,,,survey-text,305,981853,0.0-17.0-3.19,57109,List1A,white,woman,,,,,"{""Q0"":""beth is tlaking to mike""}","<img src=""stim_listA/talk2.gif""</stim_listA>",are talking to each other,
2704,"<img src='img/portrait_matrix_list1.JPG' style='width:900px;height:500px;''></img><p>If you have memorised all the portraits and names and are ready to start, press Continue.</p><p><strong>Please note: Your memory of these faces will be tested 4 times during this experiment.</strong></p>",0,html-button-response,306,984559,0.0-18.0-0.0,57109,List1A,white,woman,,,,,,,,
1332,"<img src=""portrait/BW2.jpg""style=""width:400px;height:400px;""></img>",2,html-button-response,307,986897,0.0-18.0-1.0,57109,List1A,white,woman,,TRUE,2,,,,,
null,CORRECT,,html-keyboard-response,308,988410,0.0-18.0-2.0-0.0,57109,List1A,white,woman,,,,null,,,,
2205,"<img src=""portrait/WW2.jpg""style=""width:400px;height:400px;""></img>",3,html-button-response,309,990617,0.0-18.0-4.0,57109,List1A,white,woman,,TRUE,3,,,,,
null,CORRECT,,html-keyboard-response,310,992127,0.0-18.0-5.0-0.0,57109,List1A,white,woman,,,,null,,,,
2179,"<img src=""portrait/BW1.jpg""style=""width:400px;height:400px;""></img>",0,html-button-response,311,994307,0.0-18.0-7.0,57109,List1A,white,woman,,TRUE,0,,,,,
null,CORRECT,,html-keyboard-response,312,995817,0.0-18.0-8.0-0.0,57109,List1A,white,woman,,,,null,,,,
2178,"<img src=""portrait/WW1.jpg""style=""width:400px;height:400px;""></img>",1,html-button-response,313,997997,0.0-18.0-10.0,57109,List1A,white,woman,,TRUE,1,,,,,
null,CORRECT,,html-keyboard-response,314,999509,0.0-18.0-11.0-0.0,57109,List1A,white,woman,,,,null,,,,
1676,"<img src=""portrait/BM1.jpg""style=""width:400px;height:400px;""></img>",4,html-button-response,315,1001187,0.0-18.0-13.0,57109,List1A,white,woman,,TRUE,4,,,,,
null,CORRECT,,html-keyboard-response,316,1002695,0.0-18.0-14.0-0.0,57109,List1A,white,woman,,,,null,,,,
1292,"<img src=""portrait/BM2.jpg""style=""width:400px;height:400px;""></img>",5,html-button-response,317,1003989,0.0-18.0-16.0,57109,List1A,white,woman,,TRUE,5,,,,,
null,CORRECT,,html-keyboard-response,318,1005502,0.0-18.0-17.0-0.0,57109,List1A,white,woman,,,,null,,,,
1149,"<img src=""portrait/WM1.jpg""style=""width:400px;height:400px;""></img>",6,html-button-response,319,1006653,0.0-18.0-19.0,57109,List1A,white,woman,,TRUE,6,,,,,
null,CORRECT,,html-keyboard-response,320,1008165,0.0-18.0-20.0-0.0,57109,List1A,white,woman,,,,null,,,,
1326,"<img src=""portrait/WM2.jpg""style=""width:400px;height:400px;""></img>",7,html-button-response,321,1009493,0.0-18.0-22.0,57109,List1A,white,woman,,TRUE,7,,,,,
null,CORRECT,,html-keyboard-response,322,1011005,0.0-18.0-23.0-0.0,57109,List1A,white,woman,,,,null,,,,
1052,<p>You got 8 out of 8 right first time. Press Continue.</p>,0,html-button-response,323,1012059,0.0-18.0-25.0,57109,List1A,white,woman,,,,,,,,
null,"<div style=""font-size:60px;"">+</div>",,html-keyboard-response,324,1013569,0.0-19.0-0.0,57109,List1A,white,woman,,,,null,,,,
null,"<img src=""stim_listA/hug8.gif""</stim_listA>",,html-keyboard-response,325,1015572,0.0-19.0-1.0,57109,List1A,white,woman,,,,null,,,,
null,are hugging each other,,html-keyboard-response,326,1017573,0.0-19.0-2.0,57109,List1A,white,woman,,,,null,,,,
4474,,,survey-text,327,1022048,0.0-19.0-3.0,57109,List1A,white,woman,,,,,"{""Q0"":""jane is hugging kate""}","<img src=""stim_listA/hug8.gif""</stim_listA>",are hugging each other,
null,"<div style=""font-size:60px;"">+</div>",,html-keyboard-response,328,1022552,0.0-19.0-0.1,57109,List1A,white,woman,,,,null,,,,
null,"<img src=""stim_listA/fight6.gif""</stim_listA>",,html-keyboard-response,329,1024559,0.0-19.0-1.1,57109,List1A,white,woman,,,,null,,,,
null,are fighting each other,,html-keyboard-response,330,1026560,0.0-19.0-2.1,57109,List1A,white,woman,,,,null,,,,
4423,,,survey-text,331,1030984,0.0-19.0-3.1,57109,List1A,white,woman,,,,,"{""Q0"":""fred is fighting luke""}","<img src=""stim_listA/fight6.gif""</stim_listA>",are fighting each other,
null,"<div style=""font-size:60px;"">+</div>",,html-keyboard-response,332,1031485,0.0-19.0-0.2,57109,List1A,white,woman,,,,null,,,,
null,"<img src=""stim_listA/kiss7.gif""</stim_listA>",,html-keyboard-response,333,1033489,0.0-19.0-1.2,57109,List1A,white,woman,,,,null,,,,
null,is kissing,,html-keyboard-response,334,1035492,0.0-19.0-2.2,57109,List1A,white,woman,,,,null,,,,
4173,,,survey-text,335,1039666,0.0-19.0-3.2,57109,List1A,white,woman,,,,,"{""Q0"":""ruth is kissing beth""}","<img src=""stim_listA/kiss7.gif""</stim_listA>",is kissing,
null,"<div style=""font-size:60px;"">+</div>",,html-keyboard-response,336,1040173,0.0-19.0-0.3,57109,List1A,white,woman,,,,null,,,,
null,"<img src=""stim_listA/argue6.gif""</stim_listA>",,html-keyboard-response,337,1042179,0.0-19.0-1.3,57109,List1A,white,woman,,,,null,,,,
null,are arguing with each other,,html-keyboard-response,338,1044180,0.0-19.0-2.3,57109,List1A,white,woman,,,,null,,,,
5190,,,survey-text,339,1049371,0.0-19.0-3.3,57109,List1A,white,woman,,,,,"{""Q0"":""fred is arguing with dave""}","<img src=""stim_listA/argue6.gif""</stim_listA>",are arguing with each other,
null,"<div style=""font-size:60px;"">+</div>",,html-keyboard-response,340,1049874,0.0-19.0-0.4,57109,List1A,white,woman,,,,null,,,,
null,"<img src=""stim_listA/fight1.gif""</stim_listA>",,html-keyboard-response,341,1051879,0.0-19.0-1.4,57109,List1A,white,woman,,,,null,,,,
null,is fighting,,html-keyboard-response,342,1053882,0.0-19.0-2.4,57109,List1A,white,woman,,,,null,,,,
5209,,,survey-text,343,1059091,0.0-19.0-3.4,57109,List1A,white,woman,,,,,"{""Q0"":""kate is fighitng mike""}","<img src=""stim_listA/fight1.gif""</stim_listA>",is fighting,
null,"<div style=""font-size:60px;"">+</div>",,html-keyboard-response,344,1059594,0.0-19.0-0.5,57109,List1A,white,woman,,,,null,,,,
null,"<img src=""stim_listA/touch3.gif""</stim_listA>",,html-keyboard-response,345,1061599,0.0-19.0-1.5,57109,List1A,white,woman,,,,null,,,,
null,is touching,,html-keyboard-response,346,1063601,0.0-19.0-2.5,57109,List1A,white,woman,,,,null,,,,
6008,,,survey-text,347,1069611,0.0-19.0-3.5,57109,List1A,white,woman,,,,,"{""Q0"":""jane is touching dave""}","<img src=""stim_listA/touch3.gif""</stim_listA>",is touching,
null,"<div style=""font-size:60px;"">+</div>",,html-keyboard-response,348,1070117,0.0-19.0-0.6,57109,List1A,white,woman,,,,null,,,,
null,"<img src=""stim_listA/touch4.gif""</stim_listA>",,html-keyboard-response,349,1072119,0.0-19.0-1.6,57109,List1A,white,woman,,,,null,,,,
null,are touching each other,,html-keyboard-response,350,1074121,0.0-19.0-2.6,57109,List1A,white,woman,,,,null,,,,
4238,,,survey-text,351,1078361,0.0-19.0-3.6,57109,List1A,white,woman,,,,,"{""Q0"":""ruth is touching luke""}","<img src=""stim_listA/touch4.gif""</stim_listA>",are touching each other,
null,"<div style=""font-size:60px;"">+</div>",,html-keyboard-response,352,1078862,0.0-19.0-0.7,57109,List1A,white,woman,,,,null,,,,
null,"<img src=""stim_listA/argue7.gif""</stim_listA>",,html-keyboard-response,353,1080865,0.0-19.0-1.7,57109,List1A,white,woman,,,,null,,,,
null,is arguing with,,html-keyboard-response,354,1082872,0.0-19.0-2.7,57109,List1A,white,woman,,,,null,,,,
5681,,,survey-text,355,1088553,0.0-19.0-3.7,57109,List1A,white,woman,,,,,"{""Q0"":""ruth is arguing with kate""}","<img src=""stim_listA/argue7.gif""</stim_listA>",is arguing with,
null,"<div style=""font-size:60px;"">+</div>",,html-keyboard-response,356,1089058,0.0-19.0-0.8,57109,List1A,white,woman,,,,null,,,,
null,"<img src=""stim_listA/shout8.gif""</stim_listA>",,html-keyboard-response,357,1091064,0.0-19.0-1.8,57109,List1A,white,woman,,,,null,,,,
null,are shouting at each other,,html-keyboard-response,358,1093065,0.0-19.0-2.8,57109,List1A,white,woman,,,,null,,,,
5094,,,survey-text,359,1098161,0.0-19.0-3.8,57109,List1A,white,woman,,,,,"{""Q0"":""jane is shouting at kate""}","<img src=""stim_listA/shout8.gif""</stim_listA>",are shouting at each other,
null,"<div style=""font-size:60px;"">+</div>",,html-keyboard-response,360,1098667,0.0-19.0-0.9,57109,List1A,white,woman,,,,null,,,,
null,"<img src=""stim_listA/dance6.gif""</stim_listA>",,html-keyboard-response,361,1100673,0.0-19.0-1.9,57109,List1A,white,woman,,,,null,,,,
null,are dancing with each other,,html-keyboard-response,362,1102675,0.0-19.0-2.9,57109,List1A,white,woman,,,,null,,,,
4453,,,survey-text,363,1107129,0.0-19.0-3.9,57109,List1A,white,woman,,,,,"{""Q0"":""luke is dancing with mike""}","<img src=""stim_listA/dance6.gif""</stim_listA>",are dancing with each other,
null,"<div style=""font-size:60px;"">+</div>",,html-keyboard-response,364,1107631,0.0-19.0-0.10,57109,List1A,white,woman,,,,null,,,,
null,"<img src=""stim_listA/meet4.gif""</stim_listA>",,html-keyboard-response,365,1109634,0.0-19.0-1.10,57109,List1A,white,woman,,,,null,,,,
null,are meeting each other,,html-keyboard-response,366,1111638,0.0-19.0-2.10,57109,List1A,white,woman,,,,null,,,,
4253,,,survey-text,367,1115891,0.0-19.0-3.10,57109,List1A,white,woman,,,,,"{""Q0"":""ruth is meeting luke""}","<img src=""stim_listA/meet4.gif""</stim_listA>",are meeting each other,
null,"<div style=""font-size:60px;"">+</div>",,html-keyboard-response,368,1116394,0.0-19.0-0.11,57109,List1A,white,woman,,,,null,,,,
null,"<img src=""stim_listA/hug6.gif""</stim_listA>",,html-keyboard-response,369,1118399,0.0-19.0-1.11,57109,List1A,white,woman,,,,null,,,,
null,are hugging each other,,html-keyboard-response,370,1120401,0.0-19.0-2.11,57109,List1A,white,woman,,,,null,,,,
4347,,,survey-text,371,1124748,0.0-19.0-3.11,57109,List1A,white,woman,,,,,"{""Q0"":""mike is hugging dave""}","<img src=""stim_listA/hug6.gif""</stim_listA>",are hugging each other,
null,"<div style=""font-size:60px;"">+</div>",,html-keyboard-response,372,1125255,0.0-19.0-0.12,57109,List1A,white,woman,,,,null,,,,
null,"<img src=""stim_listA/marry7.gif""</stim_listA>",,html-keyboard-response,373,1127262,0.0-19.0-1.12,57109,List1A,white,woman,,,,null,,,,
null,is marrying,,html-keyboard-response,374,1129263,0.0-19.0-2.12,57109,List1A,white,woman,,,,null,,,,
6277,,,survey-text,375,1135542,0.0-19.0-3.12,57109,List1A,white,woman,,,,,"{""Q0"":""kate is marrying ruth""}","<img src=""stim_listA/marry7.gif""</stim_listA>",is marrying,
null,"<div style=""font-size:60px;"">+</div>",,html-keyboard-response,376,1136047,0.0-19.0-0.13,57109,List1A,white,woman,,,,null,,,,
null,"<img src=""stim_listA/kiss2.gif""</stim_listA>",,html-keyboard-response,377,1138052,0.0-19.0-1.13,57109,List1A,white,woman,,,,null,,,,
null,are kissing each other,,html-keyboard-response,378,1140053,0.0-19.0-2.13,57109,List1A,white,woman,,,,null,,,,
4839,,,survey-text,379,1144894,0.0-19.0-3.13,57109,List1A,white,woman,,,,,"{""Q0"":""kate is kissing mike""}","<img src=""stim_listA/kiss2.gif""</stim_listA>",are kissing each other,
null,"<div style=""font-size:60px;"">+</div>",,html-keyboard-response,380,1145400,0.0-19.0-0.14,57109,List1A,white,woman,,,,null,,,,
null,"<img src=""stim_listA/fight5.gif""</stim_listA>",,html-keyboard-response,381,1147401,0.0-19.0-1.14,57109,List1A,white,woman,,,,null,,,,
null,is fighting,,html-keyboard-response,382,1149403,0.0-19.0-2.14,57109,List1A,white,woman,,,,null,,,,
4013,,,survey-text,383,1153418,0.0-19.0-3.14,57109,List1A,white,woman,,,,,"{""Q0"":""dave is fighitng mike""}","<img src=""stim_listA/fight5.gif""</stim_listA>",is fighting,
null,"<div style=""font-size:60px;"">+</div>",,html-keyboard-response,384,1153922,0.0-19.0-0.15,57109,List1A,white,woman,,,,null,,,,
null,"<img src=""stim_listA/hug1.gif""</stim_listA>",,html-keyboard-response,385,1155926,0.0-19.0-1.15,57109,List1A,white,woman,,,,null,,,,
null,is hugging,,html-keyboard-response,386,1157927,0.0-19.0-2.15,57109,List1A,white,woman,,,,null,,,,
5621,,,survey-text,387,1163549,0.0-19.0-3.15,57109,List1A,white,woman,,,,,"{""Q0"":""fred is hugging beth""}","<img src=""stim_listA/hug1.gif""</stim_listA>",is hugging,
null,"<div style=""font-size:60px;"">+</div>",,html-keyboard-response,388,1164055,0.0-19.0-0.16,57109,List1A,white,woman,,,,null,,,,
null,"<img src=""stim_listA/fight4.gif""</stim_listA>",,html-keyboard-response,389,1166060,0.0-19.0-1.16,57109,List1A,white,woman,,,,null,,,,
null,are fighting each other,,html-keyboard-response,390,1168062,0.0-19.0-2.16,57109,List1A,white,woman,,,,null,,,,
7092,,,survey-text,391,1175155,0.0-19.0-3.16,57109,List1A,white,woman,,,,,"{""Q0"":""luke is fighting ruth""}","<img src=""stim_listA/fight4.gif""</stim_listA>",are fighting each other,
null,"<div style=""font-size:60px;"">+</div>",,html-keyboard-response,392,1175661,0.0-19.0-0.17,57109,List1A,white,woman,,,,null,,,,
null,"<img src=""stim_listA/shout5.gif""</stim_listA>",,html-keyboard-response,393,1177666,0.0-19.0-1.17,57109,List1A,white,woman,,,,null,,,,
null,is shouting at,,html-keyboard-response,394,1179667,0.0-19.0-2.17,57109,List1A,white,woman,,,,null,,,,
4843,,,survey-text,395,1184511,0.0-19.0-3.17,57109,List1A,white,woman,,,,,"{""Q0"":""fred is shouting at luke""}","<img src=""stim_listA/shout5.gif""</stim_listA>",is shouting at,
null,"<div style=""font-size:60px;"">+</div>",,html-keyboard-response,396,1185015,0.0-19.0-0.18,57109,List1A,white,woman,,,,null,,,,
null,"<img src=""stim_listA/hug5.gif""</stim_listA>",,html-keyboard-response,397,1187021,0.0-19.0-1.18,57109,List1A,white,woman,,,,null,,,,
null,is hugging,,html-keyboard-response,398,1189022,0.0-19.0-2.18,57109,List1A,white,woman,,,,null,,,,
3875,,,survey-text,399,1192899,0.0-19.0-3.18,57109,List1A,white,woman,,,,,"{""Q0"":""fred is hugging luke""}","<img src=""stim_listA/hug5.gif""</stim_listA>",is hugging,
null,"<div style=""font-size:60px;"">+</div>",,html-keyboard-response,400,1193405,0.0-19.0-0.19,57109,List1A,white,woman,,,,null,,,,
null,"<img src=""stim_listA/marry2.gif""</stim_listA>",,html-keyboard-response,401,1195407,0.0-19.0-1.19,57109,List1A,white,woman,,,,null,,,,
null,are marrying each other,,html-keyboard-response,402,1197408,0.0-19.0-2.19,57109,List1A,white,woman,,,,null,,,,
4435,,,survey-text,403,1201845,0.0-19.0-3.19,57109,List1A,white,woman,,,,,"{""Q0"":""kate is marrying dave""}","<img src=""stim_listA/marry2.gif""</stim_listA>",are marrying each other,
2726,<p>Thank you for completing that task.</p><p>The final part of this session is a short questionnaire.</p><p>Press Continue.</p>,0,html-button-response,404,1204573,0.0-20.0,57109,List1A,white,woman,,,,,,,,
15402,,,survey-text,405,1220983,0.0-21.0,57109,List1A,white,woman,,,,,"{""Q0"":""22"",""Q1"":""english"",""Q2"":""english"",""Q3"":""canada"",""Q4"":""caucasian"",""Q5"":""female""}",,,demographics
29187,,,survey-likert,406,1250178,0.0-22.0,57109,List1A,white,woman,,,,,"{""Q0"":2,""Q1"":5,""Q2"":1,""Q3"":1,""Q4"":1,""Q5"":0,""Q6"":1,""Q7"":1,""Q8"":1,""Q9"":1,""Q10"":1,""Q11"":0,""Q12"":1,""Q13"":1}",,,likert_race
26938,,,survey-likert,407,1277127,0.0-23.0,57109,List1A,white,woman,,,,,"{""Q0"":4,""Q1"":2,""Q2"":4,""Q3"":6,""Q4"":5,""Q5"":5,""Q6"":5,""Q7"":5,""Q8"":5,""Q9"":5,""Q10"":5,""Q11"":5,""Q12"":3,""Q13"":3}",,,likert_gender
12368,,,survey-text,408,1289501,0.0-24.0,57109,List1A,white,woman,,,,,"{""Q0"":""ccc""}",,,worker_id
18344,,,external-html,409,1308196,0.0-25.0,57109,List1A,white,woman,debrief.html,,,,,,,
