rt,stimulus,button_pressed,trial_type,trial_index,time_elapsed,internal_node_id,subject,list,ppt_race,ppt_gender,url,first_guess,correct,key_press,responses,image_type,phrase_type,test_part
2797,Welcome to the experiment. Press Continue to begin.,0,html-button-response,0,2805,0.0-0.0,5732,List2A,white,man,,,,,,,,
14822,,,external-html,1,18750,0.0-1.0,5732,List2A,white,man,consent.html,,,,,,,
12039,"<p>On the next page, you will see portraits of 8 people and their names.</p><p>Your first task is to take a few minutes to memorise the names of these people.</p><p>You will have to recall their names during the rest of the experiment, so it is</p><p>essential that you try to memorise these people and their names as best as you can.</p><br><p><strong>You will then be tested on your memory of these names and portraits.</strong></p><br><p>The experiment will start after you have completed this memory test.</p><br><p>Ready?</p>",0,html-button-response,2,30793,0.0-2.0,5732,List2A,white,man,,,,,,,,
32810,"<img src='img/portrait_matrix_list2.JPG' style='width:900px;height:500px;''></img><p>If you have memorised all the portraits and names and are ready to start, press Continue.</p><p><strong>Please note: Your memory of these faces will be tested 4 times during this experiment.</strong></p>",0,html-button-response,3,64612,0.0-3.0-0.0,5732,List2A,white,man,,,,,,,,
3462,"<img src=""portrait/WW1.jpg""style=""width:400px;height:400px;""></img>",3,html-button-response,4,69088,0.0-3.0-1.0,5732,List2A,white,man,,TRUE,1,,,,,
3214,"<img src=""portrait/WW1.jpg""style=""width:400px;height:400px;""></img>",1,html-button-response,5,73314,0.0-3.0-3.0-0.0,5732,List2A,white,man,,FALSE,1,,,,,
null,CORRECT,,html-keyboard-response,6,74841,0.0-3.0-3.0-1.0-0.0,5732,List2A,white,man,,,,null,,,,
5507,"<img src=""portrait/BW1.jpg""style=""width:400px;height:400px;""></img>",0,html-button-response,7,80355,0.0-3.0-4.0,5732,List2A,white,man,,TRUE,0,,,,,
null,CORRECT,,html-keyboard-response,8,81870,0.0-3.0-5.0-0.0,5732,List2A,white,man,,,,null,,,,
5436,"<img src=""portrait/WW2.jpg""style=""width:400px;height:400px;""></img>",3,html-button-response,9,87317,0.0-3.0-7.0,5732,List2A,white,man,,TRUE,3,,,,,
null,CORRECT,,html-keyboard-response,10,88843,0.0-3.0-8.0-0.0,5732,List2A,white,man,,,,null,,,,
2324,"<img src=""portrait/WM2.jpg""style=""width:400px;height:400px;""></img>",7,html-button-response,11,91171,0.0-3.0-10.0,5732,List2A,white,man,,TRUE,7,,,,,
null,CORRECT,,html-keyboard-response,12,92683,0.0-3.0-11.0-0.0,5732,List2A,white,man,,,,null,,,,
5399,"<img src=""portrait/BW2.jpg""style=""width:400px;height:400px;""></img>",2,html-button-response,13,98085,0.0-3.0-13.0,5732,List2A,white,man,,TRUE,2,,,,,
null,CORRECT,,html-keyboard-response,14,99595,0.0-3.0-14.0-0.0,5732,List2A,white,man,,,,null,,,,
4558,"<img src=""portrait/WM1.jpg""style=""width:400px;height:400px;""></img>",6,html-button-response,15,104157,0.0-3.0-16.0,5732,List2A,white,man,,TRUE,6,,,,,
null,CORRECT,,html-keyboard-response,16,105687,0.0-3.0-17.0-0.0,5732,List2A,white,man,,,,null,,,,
4538,"<img src=""portrait/BM1.jpg""style=""width:400px;height:400px;""></img>",4,html-button-response,17,110230,0.0-3.0-19.0,5732,List2A,white,man,,TRUE,4,,,,,
null,CORRECT,,html-keyboard-response,18,111747,0.0-3.0-20.0-0.0,5732,List2A,white,man,,,,null,,,,
4935,"<img src=""portrait/BM2.jpg""style=""width:400px;height:400px;""></img>",5,html-button-response,19,116687,0.0-3.0-22.0,5732,List2A,white,man,,TRUE,5,,,,,
null,CORRECT,,html-keyboard-response,20,118201,0.0-3.0-23.0-0.0,5732,List2A,white,man,,,,null,,,,
2372,<p>You got 7 out of 8 right first time. Press Continue.</p>,0,html-button-response,21,120577,0.0-3.0-25.0,5732,List2A,white,man,,,,,,,,
2315,"As you did not score 100%, the memory game will repeat. Press Continue.",0,html-button-response,22,123910,0.0-3.0-26.0-0.0,5732,List2A,white,man,,,,,,,,
12094,"<img src='img/portrait_matrix_list2.JPG' style='width:900px;height:500px;''></img><p>If you have memorised all the portraits and names and are ready to start, press Continue.</p><p><strong>Please note: Your memory of these faces will be tested 4 times during this experiment.</strong></p>",0,html-button-response,23,137027,0.0-3.1-0.1,5732,List2A,white,man,,,,,,,,
3998,"<img src=""portrait/WW1.jpg""style=""width:400px;height:400px;""></img>",1,html-button-response,24,142034,0.0-3.1-1.1,5732,List2A,white,man,,TRUE,1,,,,,
null,CORRECT,,html-keyboard-response,25,143563,0.0-3.1-2.1-0.1,5732,List2A,white,man,,,,null,,,,
3298,"<img src=""portrait/BW1.jpg""style=""width:400px;height:400px;""></img>",0,html-button-response,26,146865,0.0-3.1-4.1,5732,List2A,white,man,,TRUE,0,,,,,
null,CORRECT,,html-keyboard-response,27,148392,0.0-3.1-5.1-0.1,5732,List2A,white,man,,,,null,,,,
3465,"<img src=""portrait/WW2.jpg""style=""width:400px;height:400px;""></img>",3,html-button-response,28,151861,0.0-3.1-7.1,5732,List2A,white,man,,TRUE,3,,,,,
null,CORRECT,,html-keyboard-response,29,153392,0.0-3.1-8.1-0.1,5732,List2A,white,man,,,,null,,,,
1450,"<img src=""portrait/WM2.jpg""style=""width:400px;height:400px;""></img>",7,html-button-response,30,154846,0.0-3.1-10.1,5732,List2A,white,man,,TRUE,7,,,,,
null,CORRECT,,html-keyboard-response,31,156363,0.0-3.1-11.1-0.1,5732,List2A,white,man,,,,null,,,,
2296,"<img src=""portrait/BW2.jpg""style=""width:400px;height:400px;""></img>",2,html-button-response,32,158664,0.0-3.1-13.1,5732,List2A,white,man,,TRUE,2,,,,,
null,CORRECT,,html-keyboard-response,33,160181,0.0-3.1-14.1-0.1,5732,List2A,white,man,,,,null,,,,
2456,"<img src=""portrait/WM1.jpg""style=""width:400px;height:400px;""></img>",6,html-button-response,34,162641,0.0-3.1-16.1,5732,List2A,white,man,,TRUE,6,,,,,
null,CORRECT,,html-keyboard-response,35,164149,0.0-3.1-17.1-0.1,5732,List2A,white,man,,,,null,,,,
5749,"<img src=""portrait/BM1.jpg""style=""width:400px;height:400px;""></img>",4,html-button-response,36,169903,0.0-3.1-19.1,5732,List2A,white,man,,TRUE,4,,,,,
null,CORRECT,,html-keyboard-response,37,171422,0.0-3.1-20.1-0.1,5732,List2A,white,man,,,,null,,,,
2419,"<img src=""portrait/BM2.jpg""style=""width:400px;height:400px;""></img>",5,html-button-response,38,173844,0.0-3.1-22.1,5732,List2A,white,man,,TRUE,5,,,,,
null,CORRECT,,html-keyboard-response,39,175350,0.0-3.1-23.1-0.1,5732,List2A,white,man,,,,null,,,,
9557,<p>You got 8 out of 8 right first time. Press Continue.</p>,0,html-button-response,40,184910,0.0-3.1-25.1,5732,List2A,white,man,,,,,,,,
25742,"<p>In this experiment, you will view photographs of the people from the memory game interacting.</p><p>By using the <strong>exact</strong> phrase given <i>after</i> the photograph appears and recalling the correct names of the people in the photographs, form a sentence describing the interaction. You do not need to capitalise names.</p><p>Type your answer in the space provided. Please complete every sentence before moving onto the next trial.</p><p>You will only have a few seconds to memorise each given photograph and phrase before you can respond, so try your best to focus.</p><p>An example is given below. Press 'Continue' when you are ready.</p><img src='img/speaking_example_v2.jpg' style='width:800px;height:460px;''></img>",0,html-button-response,41,211670,0.0-4.0,5732,List2A,white,man,,,,,,,,
4462,"<p>Before the experiment starts, you will watch two example trials. Press 'Continue'.</p>",0,html-button-response,42,217136,0.0-5.0,5732,List2A,white,man,,,,,,,,
null,<img src='img/speaking_WW.gif'></img>,,html-keyboard-response,43,220143,0.0-6.0,5732,List2A,white,man,,,,null,,,,
null,<p>is speaking to</p>,,html-keyboard-response,44,222146,0.0-7.0,5732,List2A,white,man,,,,null,,,,
18174,<p><b>Answer:</b> jane is speaking to ruth</p>,0,html-button-response,45,240322,0.0-8.0,5732,List2A,white,man,,,,,,,,
null,<img src='img/pointing_BM.gif'></img>,,html-keyboard-response,46,243348,0.0-9.0,5732,List2A,white,man,,,,null,,,,
null,<p>are pointing at each other</p>,,html-keyboard-response,47,245364,0.0-10.0,5732,List2A,white,man,,,,null,,,,
1414,<p><b>Answer:</b> fred and mike are pointing at each other</p>,0,html-button-response,48,246780,0.0-11.0,5732,List2A,white,man,,,,,,,,
8772,"<p>Ready to start the experiment?</p><br><p><strong>Remember to describe the picture using a full sentence,</strong></p><p><strong>that combines the names of the people with the given phrase.</strong></p><p><strong>If you do not do this correctly you will not be paid.</strong></p><p><strong> You do not need to capitalise names or use punctuation.</strong></p><br><p>Press 'Continue' to begin.</p>",0,html-button-response,49,256560,0.0-12.0,5732,List2A,white,man,,,,,,,,
null,"<div style=""font-size:60px;"">+</div>",,html-keyboard-response,50,258082,0.0-13.0-0.0,5732,List2A,white,man,,,,null,,,,
null,"<img src=""stim_listA/shout3.gif""</stim_listA>",,html-keyboard-response,51,260095,0.0-13.0-1.0,5732,List2A,white,man,,,,null,,,,
null,is shouting at,,html-keyboard-response,52,262111,0.0-13.0-2.0,5732,List2A,white,man,,,,null,,,,
30150,,,survey-text,53,292265,0.0-13.0-3.0,5732,List2A,white,man,,,,,"{""Q0"":""Fred and Beth are shouting at each other""}","<img src=""stim_listA/shout3.gif""</stim_listA>",is shouting at,
null,"<div style=""font-size:60px;"">+</div>",,html-keyboard-response,54,292772,0.0-13.0-0.1,5732,List2A,white,man,,,,null,,,,
null,"<img src=""stim_listA/marry4.gif""</stim_listA>",,html-keyboard-response,55,294783,0.0-13.0-1.1,5732,List2A,white,man,,,,null,,,,
null,are marrying each other,,html-keyboard-response,56,296793,0.0-13.0-2.1,5732,List2A,white,man,,,,null,,,,
11318,,,survey-text,57,308114,0.0-13.0-3.1,5732,List2A,white,man,,,,,"{""Q0"":""Kate and Fred are marrying each other""}","<img src=""stim_listA/marry4.gif""</stim_listA>",are marrying each other,
null,"<div style=""font-size:60px;"">+</div>",,html-keyboard-response,58,308625,0.0-13.0-0.2,5732,List2A,white,man,,,,null,,,,
null,"<img src=""stim_listA/hug4.gif""</stim_listA>",,html-keyboard-response,59,310646,0.0-13.0-1.2,5732,List2A,white,man,,,,null,,,,
null,are hugging each other,,html-keyboard-response,60,312660,0.0-13.0-2.2,5732,List2A,white,man,,,,null,,,,
9244,,,survey-text,61,321908,0.0-13.0-3.2,5732,List2A,white,man,,,,,"{""Q0"":""Kate and Mike are hugging each other""}","<img src=""stim_listA/hug4.gif""</stim_listA>",are hugging each other,
null,"<div style=""font-size:60px;"">+</div>",,html-keyboard-response,62,322412,0.0-13.0-0.3,5732,List2A,white,man,,,,null,,,,
null,"<img src=""stim_listA/dance8.gif""</stim_listA>",,html-keyboard-response,63,324425,0.0-13.0-1.3,5732,List2A,white,man,,,,null,,,,
null,are dancing with each other,,html-keyboard-response,64,326431,0.0-13.0-2.3,5732,List2A,white,man,,,,null,,,,
12168,,,survey-text,65,338602,0.0-13.0-3.3,5732,List2A,white,man,,,,,"{""Q0"":""Ruth and Beth are dancing with each other""}","<img src=""stim_listA/dance8.gif""</stim_listA>",are dancing with each other,
null,"<div style=""font-size:60px;"">+</div>",,html-keyboard-response,66,339111,0.0-13.0-0.4,5732,List2A,white,man,,,,null,,,,
null,"<img src=""stim_listA/touch3.gif""</stim_listA>",,html-keyboard-response,67,341131,0.0-13.0-1.4,5732,List2A,white,man,,,,null,,,,
null,is touching,,html-keyboard-response,68,343135,0.0-13.0-2.4,5732,List2A,white,man,,,,null,,,,
9902,,,survey-text,69,353039,0.0-13.0-3.4,5732,List2A,white,man,,,,,"{""Q0"":""Kate and Mike are touching each other""}","<img src=""stim_listA/touch3.gif""</stim_listA>",is touching,
null,"<div style=""font-size:60px;"">+</div>",,html-keyboard-response,70,353550,0.0-13.0-0.5,5732,List2A,white,man,,,,null,,,,
null,"<img src=""stim_listA/talk2.gif""</stim_listA>",,html-keyboard-response,71,355566,0.0-13.0-1.5,5732,List2A,white,man,,,,null,,,,
null,are talking to each other,,html-keyboard-response,72,357570,0.0-13.0-2.5,5732,List2A,white,man,,,,null,,,,
10215,,,survey-text,73,367788,0.0-13.0-3.5,5732,List2A,white,man,,,,,"{""Q0"":""Dave and Ruth are talking to each other""}","<img src=""stim_listA/talk2.gif""</stim_listA>",are talking to each other,
null,"<div style=""font-size:60px;"">+</div>",,html-keyboard-response,74,368302,0.0-13.0-0.6,5732,List2A,white,man,,,,null,,,,
null,"<img src=""stim_listA/touch4.gif""</stim_listA>",,html-keyboard-response,75,370311,0.0-13.0-1.6,5732,List2A,white,man,,,,null,,,,
null,are touching each other,,html-keyboard-response,76,372314,0.0-13.0-2.6,5732,List2A,white,man,,,,null,,,,
9960,,,survey-text,77,382277,0.0-13.0-3.6,5732,List2A,white,man,,,,,"{""Q0"":""Fred and Kate are touching each other""}","<img src=""stim_listA/touch4.gif""</stim_listA>",are touching each other,
null,"<div style=""font-size:60px;"">+</div>",,html-keyboard-response,78,382785,0.0-13.0-0.7,5732,List2A,white,man,,,,null,,,,
null,"<img src=""stim_listA/talk6.gif""</stim_listA>",,html-keyboard-response,79,384800,0.0-13.0-1.7,5732,List2A,white,man,,,,null,,,,
null,are talking to each other,,html-keyboard-response,80,386818,0.0-13.0-2.7,5732,List2A,white,man,,,,null,,,,
9259,,,survey-text,81,396082,0.0-13.0-3.7,5732,List2A,white,man,,,,,"{""Q0"":""Fred and Dave are talking to each other""}","<img src=""stim_listA/talk6.gif""</stim_listA>",are talking to each other,
null,"<div style=""font-size:60px;"">+</div>",,html-keyboard-response,82,396598,0.0-13.0-0.8,5732,List2A,white,man,,,,null,,,,
null,"<img src=""stim_listA/marry5.gif""</stim_listA>",,html-keyboard-response,83,398616,0.0-13.0-1.8,5732,List2A,white,man,,,,null,,,,
null,is marrying,,html-keyboard-response,84,400628,0.0-13.0-2.8,5732,List2A,white,man,,,,null,,,,
9307,,,survey-text,85,409937,0.0-13.0-3.8,5732,List2A,white,man,,,,,"{""Q0"":""Fred is marrying Dave""}","<img src=""stim_listA/marry5.gif""</stim_listA>",is marrying,
null,"<div style=""font-size:60px;"">+</div>",,html-keyboard-response,86,410446,0.0-13.0-0.9,5732,List2A,white,man,,,,null,,,,
null,"<img src=""stim_listA/fight2.gif""</stim_listA>",,html-keyboard-response,87,412458,0.0-13.0-1.9,5732,List2A,white,man,,,,null,,,,
null,are fighting each other,,html-keyboard-response,88,414474,0.0-13.0-2.9,5732,List2A,white,man,,,,null,,,,
9676,,,survey-text,89,424154,0.0-13.0-3.9,5732,List2A,white,man,,,,,"{""Q0"":""Ruth and Luke are fighting each other""}","<img src=""stim_listA/fight2.gif""</stim_listA>",are fighting each other,
null,"<div style=""font-size:60px;"">+</div>",,html-keyboard-response,90,424662,0.0-13.0-0.10,5732,List2A,white,man,,,,null,,,,
null,"<img src=""stim_listA/touch1.gif""</stim_listA>",,html-keyboard-response,91,426678,0.0-13.0-1.10,5732,List2A,white,man,,,,null,,,,
null,is touching,,html-keyboard-response,92,428693,0.0-13.0-2.10,5732,List2A,white,man,,,,null,,,,
12709,,,survey-text,93,441404,0.0-13.0-3.10,5732,List2A,white,man,,,,,"{""Q0"":""Jane and Dave are touching each other""}","<img src=""stim_listA/touch1.gif""</stim_listA>",is touching,
null,"<div style=""font-size:60px;"">+</div>",,html-keyboard-response,94,441915,0.0-13.0-0.11,5732,List2A,white,man,,,,null,,,,
null,"<img src=""stim_listA/argue5.gif""</stim_listA>",,html-keyboard-response,95,443928,0.0-13.0-1.11,5732,List2A,white,man,,,,null,,,,
null,is arguing with,,html-keyboard-response,96,445944,0.0-13.0-2.11,5732,List2A,white,man,,,,null,,,,
10170,,,survey-text,97,456117,0.0-13.0-3.11,5732,List2A,white,man,,,,,"{""Q0"":""Dave and Fred are arguing with each other""}","<img src=""stim_listA/argue5.gif""</stim_listA>",is arguing with,
null,"<div style=""font-size:60px;"">+</div>",,html-keyboard-response,98,456627,0.0-13.0-0.12,5732,List2A,white,man,,,,null,,,,
null,"<img src=""stim_listA/kiss2.gif""</stim_listA>",,html-keyboard-response,99,458643,0.0-13.0-1.12,5732,List2A,white,man,,,,null,,,,
null,are kissing each other,,html-keyboard-response,100,460661,0.0-13.0-2.12,5732,List2A,white,man,,,,null,,,,
9036,,,survey-text,101,469699,0.0-13.0-3.12,5732,List2A,white,man,,,,,"{""Q0"":""Jane and Dave are kissing""}","<img src=""stim_listA/kiss2.gif""</stim_listA>",are kissing each other,
null,"<div style=""font-size:60px;"">+</div>",,html-keyboard-response,102,470209,0.0-13.0-0.13,5732,List2A,white,man,,,,null,,,,
null,"<img src=""stim_listA/argue8.gif""</stim_listA>",,html-keyboard-response,103,472221,0.0-13.0-1.13,5732,List2A,white,man,,,,null,,,,
null,are arguing with each other,,html-keyboard-response,104,474239,0.0-13.0-2.13,5732,List2A,white,man,,,,null,,,,
10243,,,survey-text,105,484485,0.0-13.0-3.13,5732,List2A,white,man,,,,,"{""Q0"":""Ruth and Kate are arguing with each other""}","<img src=""stim_listA/argue8.gif""</stim_listA>",are arguing with each other,
null,"<div style=""font-size:60px;"">+</div>",,html-keyboard-response,106,484989,0.0-13.0-0.14,5732,List2A,white,man,,,,null,,,,
null,"<img src=""stim_listA/dance5.gif""</stim_listA>",,html-keyboard-response,107,486994,0.0-13.0-1.14,5732,List2A,white,man,,,,null,,,,
null,is dancing with,,html-keyboard-response,108,489000,0.0-13.0-2.14,5732,List2A,white,man,,,,null,,,,
12545,,,survey-text,109,501551,0.0-13.0-3.14,5732,List2A,white,man,,,,,"{""Q0"":""Luke and Mike are dancing with each other""}","<img src=""stim_listA/dance5.gif""</stim_listA>",is dancing with,
null,"<div style=""font-size:60px;"">+</div>",,html-keyboard-response,110,502062,0.0-13.0-0.15,5732,List2A,white,man,,,,null,,,,
null,"<img src=""stim_listA/meet2.gif""</stim_listA>",,html-keyboard-response,111,504079,0.0-13.0-1.15,5732,List2A,white,man,,,,null,,,,
null,are meeting each other,,html-keyboard-response,112,506082,0.0-13.0-2.15,5732,List2A,white,man,,,,null,,,,
10823,,,survey-text,113,516908,0.0-13.0-3.15,5732,List2A,white,man,,,,,"{""Q0"":""Ruth and Luke are meeting each other""}","<img src=""stim_listA/meet2.gif""</stim_listA>",are meeting each other,
null,"<div style=""font-size:60px;"">+</div>",,html-keyboard-response,114,517411,0.0-13.0-0.16,5732,List2A,white,man,,,,null,,,,
null,"<img src=""stim_listA/hug2.gif""</stim_listA>",,html-keyboard-response,115,519425,0.0-13.0-1.16,5732,List2A,white,man,,,,null,,,,
null,are hugging each other,,html-keyboard-response,116,521431,0.0-13.0-2.16,5732,List2A,white,man,,,,null,,,,
9402,,,survey-text,117,530836,0.0-13.0-3.16,5732,List2A,white,man,,,,,"{""Q0"":""Dave and Jane are hugging each other""}","<img src=""stim_listA/hug2.gif""</stim_listA>",are hugging each other,
null,"<div style=""font-size:60px;"">+</div>",,html-keyboard-response,118,531348,0.0-13.0-0.17,5732,List2A,white,man,,,,null,,,,
null,"<img src=""stim_listA/shout4.gif""</stim_listA>",,html-keyboard-response,119,533364,0.0-13.0-1.17,5732,List2A,white,man,,,,null,,,,
null,are shouting at each other,,html-keyboard-response,120,535372,0.0-13.0-2.17,5732,List2A,white,man,,,,null,,,,
11544,,,survey-text,121,546919,0.0-13.0-3.17,5732,List2A,white,man,,,,,"{""Q0"":""Kate and Mike are shouting at each other""}","<img src=""stim_listA/shout4.gif""</stim_listA>",are shouting at each other,
null,"<div style=""font-size:60px;"">+</div>",,html-keyboard-response,122,547430,0.0-13.0-0.18,5732,List2A,white,man,,,,null,,,,
null,"<img src=""stim_listA/talk5.gif""</stim_listA>",,html-keyboard-response,123,549434,0.0-13.0-1.18,5732,List2A,white,man,,,,null,,,,
null,is talking to,,html-keyboard-response,124,551439,0.0-13.0-2.18,5732,List2A,white,man,,,,null,,,,
14487,,,survey-text,125,565929,0.0-13.0-3.18,5732,List2A,white,man,,,,,"{""Q0"":""Luke and Mike are talking to one another""}","<img src=""stim_listA/talk5.gif""</stim_listA>",is talking to,
null,"<div style=""font-size:60px;"">+</div>",,html-keyboard-response,126,566431,0.0-13.0-0.19,5732,List2A,white,man,,,,null,,,,
null,"<img src=""stim_listA/dance7.gif""</stim_listA>",,html-keyboard-response,127,568435,0.0-13.0-1.19,5732,List2A,white,man,,,,null,,,,
null,is dancing with,,html-keyboard-response,128,570439,0.0-13.0-2.19,5732,List2A,white,man,,,,null,,,,
11302,,,survey-text,129,581744,0.0-13.0-3.19,5732,List2A,white,man,,,,,"{""Q0"":""Kate and Ruth are dancing with each other""}","<img src=""stim_listA/dance7.gif""</stim_listA>",is dancing with,
10234,"<img src='img/portrait_matrix_list2.JPG' style='width:900px;height:500px;''></img><p>If you have memorised all the portraits and names and are ready to start, press Continue.</p><p><strong>Please note: Your memory of these faces will be tested 4 times during this experiment.</strong></p>",0,html-button-response,130,591981,0.0-14.0-0.0,5732,List2A,white,man,,,,,,,,
3156,"<img src=""portrait/WM2.jpg""style=""width:400px;height:400px;""></img>",7,html-button-response,131,596146,0.0-14.0-1.0,5732,List2A,white,man,,TRUE,7,,,,,
null,CORRECT,,html-keyboard-response,132,597658,0.0-14.0-2.0-0.0,5732,List2A,white,man,,,,null,,,,
2685,"<img src=""portrait/WW1.jpg""style=""width:400px;height:400px;""></img>",1,html-button-response,133,600347,0.0-14.0-4.0,5732,List2A,white,man,,TRUE,1,,,,,
null,CORRECT,,html-keyboard-response,134,601854,0.0-14.0-5.0-0.0,5732,List2A,white,man,,,,null,,,,
2344,"<img src=""portrait/BM1.jpg""style=""width:400px;height:400px;""></img>",4,html-button-response,135,604201,0.0-14.0-7.0,5732,List2A,white,man,,TRUE,4,,,,,
null,CORRECT,,html-keyboard-response,136,605710,0.0-14.0-8.0-0.0,5732,List2A,white,man,,,,null,,,,
2243,"<img src=""portrait/WM1.jpg""style=""width:400px;height:400px;""></img>",6,html-button-response,137,607957,0.0-14.0-10.0,5732,List2A,white,man,,TRUE,6,,,,,
null,CORRECT,,html-keyboard-response,138,609476,0.0-14.0-11.0-0.0,5732,List2A,white,man,,,,null,,,,
2174,"<img src=""portrait/WW2.jpg""style=""width:400px;height:400px;""></img>",3,html-button-response,139,611653,0.0-14.0-13.0,5732,List2A,white,man,,TRUE,3,,,,,
null,CORRECT,,html-keyboard-response,140,613162,0.0-14.0-14.0-0.0,5732,List2A,white,man,,,,null,,,,
1908,"<img src=""portrait/BM2.jpg""style=""width:400px;height:400px;""></img>",5,html-button-response,141,615075,0.0-14.0-16.0,5732,List2A,white,man,,TRUE,5,,,,,
null,CORRECT,,html-keyboard-response,142,616584,0.0-14.0-17.0-0.0,5732,List2A,white,man,,,,null,,,,
2031,"<img src=""portrait/BW1.jpg""style=""width:400px;height:400px;""></img>",0,html-button-response,143,618619,0.0-14.0-19.0,5732,List2A,white,man,,TRUE,0,,,,,
null,CORRECT,,html-keyboard-response,144,620132,0.0-14.0-20.0-0.0,5732,List2A,white,man,,,,null,,,,
1705,"<img src=""portrait/BW2.jpg""style=""width:400px;height:400px;""></img>",2,html-button-response,145,621841,0.0-14.0-22.0,5732,List2A,white,man,,TRUE,2,,,,,
null,CORRECT,,html-keyboard-response,146,623354,0.0-14.0-23.0-0.0,5732,List2A,white,man,,,,null,,,,
1669,<p>You got 8 out of 8 right first time. Press Continue.</p>,0,html-button-response,147,625026,0.0-14.0-25.0,5732,List2A,white,man,,,,,,,,
null,"<div style=""font-size:60px;"">+</div>",,html-keyboard-response,148,626533,0.0-15.0-0.0,5732,List2A,white,man,,,,null,,,,
null,"<img src=""stim_listA/hug3.gif""</stim_listA>",,html-keyboard-response,149,628537,0.0-15.0-1.0,5732,List2A,white,man,,,,null,,,,
null,is hugging,,html-keyboard-response,150,630543,0.0-15.0-2.0,5732,List2A,white,man,,,,null,,,,
9215,,,survey-text,151,639761,0.0-15.0-3.0,5732,List2A,white,man,,,,,"{""Q0"":""Beth is hugging Fred""}","<img src=""stim_listA/hug3.gif""</stim_listA>",is hugging,
null,"<div style=""font-size:60px;"">+</div>",,html-keyboard-response,152,640268,0.0-15.0-0.1,5732,List2A,white,man,,,,null,,,,
null,"<img src=""stim_listA/shout6.gif""</stim_listA>",,html-keyboard-response,153,642274,0.0-15.0-1.1,5732,List2A,white,man,,,,null,,,,
null,are shouting at each other,,html-keyboard-response,154,644280,0.0-15.0-2.1,5732,List2A,white,man,,,,null,,,,
10995,,,survey-text,155,655277,0.0-15.0-3.1,5732,List2A,white,man,,,,,"{""Q0"":""Dave and Mike are shouting at each other""}","<img src=""stim_listA/shout6.gif""</stim_listA>",are shouting at each other,
null,"<div style=""font-size:60px;"">+</div>",,html-keyboard-response,156,655795,0.0-15.0-0.2,5732,List2A,white,man,,,,null,,,,
null,"<img src=""stim_listA/dance1.gif""</stim_listA>",,html-keyboard-response,157,657800,0.0-15.0-1.2,5732,List2A,white,man,,,,null,,,,
null,is dancing with,,html-keyboard-response,158,659803,0.0-15.0-2.2,5732,List2A,white,man,,,,null,,,,
12127,,,survey-text,159,671936,0.0-15.0-3.2,5732,List2A,white,man,,,,,"{""Q0"":""Jane and Luke are dacing with each other""}","<img src=""stim_listA/dance1.gif""</stim_listA>",is dancing with,
null,"<div style=""font-size:60px;"">+</div>",,html-keyboard-response,160,672440,0.0-15.0-0.3,5732,List2A,white,man,,,,null,,,,
null,"<img src=""stim_listA/argue1.gif""</stim_listA>",,html-keyboard-response,161,674447,0.0-15.0-1.3,5732,List2A,white,man,,,,null,,,,
null,is arguing with,,html-keyboard-response,162,676452,0.0-15.0-2.3,5732,List2A,white,man,,,,null,,,,
8756,,,survey-text,163,685211,0.0-15.0-3.3,5732,List2A,white,man,,,,,"{""Q0"":""Dave is arguing with Ruth""}","<img src=""stim_listA/argue1.gif""</stim_listA>",is arguing with,
null,"<div style=""font-size:60px;"">+</div>",,html-keyboard-response,164,685716,0.0-15.0-0.4,5732,List2A,white,man,,,,null,,,,
null,"<img src=""stim_listA/fight1.gif""</stim_listA>",,html-keyboard-response,165,687720,0.0-15.0-1.4,5732,List2A,white,man,,,,null,,,,
null,is fighting,,html-keyboard-response,166,689724,0.0-15.0-2.4,5732,List2A,white,man,,,,null,,,,
10767,,,survey-text,167,700493,0.0-15.0-3.4,5732,List2A,white,man,,,,,"{""Q0"":""Dave and Jane are fighting each other""}","<img src=""stim_listA/fight1.gif""</stim_listA>",is fighting,
null,"<div style=""font-size:60px;"">+</div>",,html-keyboard-response,168,700998,0.0-15.0-0.5,5732,List2A,white,man,,,,null,,,,
null,"<img src=""stim_listA/hug1.gif""</stim_listA>",,html-keyboard-response,169,703003,0.0-15.0-1.5,5732,List2A,white,man,,,,null,,,,
null,is hugging,,html-keyboard-response,170,705008,0.0-15.0-2.5,5732,List2A,white,man,,,,null,,,,
7144,,,survey-text,171,712155,0.0-15.0-3.5,5732,List2A,white,man,,,,,"{""Q0"":""Ruth is hugging Luke""}","<img src=""stim_listA/hug1.gif""</stim_listA>",is hugging,
null,"<div style=""font-size:60px;"">+</div>",,html-keyboard-response,172,712658,0.0-15.0-0.6,5732,List2A,white,man,,,,null,,,,
null,"<img src=""stim_listA/shout5.gif""</stim_listA>",,html-keyboard-response,173,714665,0.0-15.0-1.6,5732,List2A,white,man,,,,null,,,,
null,is shouting at,,html-keyboard-response,174,716671,0.0-15.0-2.6,5732,List2A,white,man,,,,null,,,,
12263,,,survey-text,175,728937,0.0-15.0-3.6,5732,List2A,white,man,,,,,"{""Q0"":""Fred is shouting at Beth""}","<img src=""stim_listA/shout5.gif""</stim_listA>",is shouting at,
null,"<div style=""font-size:60px;"">+</div>",,html-keyboard-response,176,729444,0.0-15.0-0.7,5732,List2A,white,man,,,,null,,,,
null,"<img src=""stim_listA/argue4.gif""</stim_listA>",,html-keyboard-response,177,731447,0.0-15.0-1.7,5732,List2A,white,man,,,,null,,,,
null,are arguing with each other,,html-keyboard-response,178,733453,0.0-15.0-2.7,5732,List2A,white,man,,,,null,,,,
10462,,,survey-text,179,743918,0.0-15.0-3.7,5732,List2A,white,man,,,,,"{""Q0"":""Kate and Fred are arguing with each other""}","<img src=""stim_listA/argue4.gif""</stim_listA>",are arguing with each other,
null,"<div style=""font-size:60px;"">+</div>",,html-keyboard-response,180,744425,0.0-15.0-0.8,5732,List2A,white,man,,,,null,,,,
null,"<img src=""stim_listA/marry3.gif""</stim_listA>",,html-keyboard-response,181,746432,0.0-15.0-1.8,5732,List2A,white,man,,,,null,,,,
null,is marrying,,html-keyboard-response,182,748438,0.0-15.0-2.8,5732,List2A,white,man,,,,null,,,,
4449,,,survey-text,183,752890,0.0-15.0-3.8,5732,List2A,white,man,,,,,"{""Q0"":""dont know""}","<img src=""stim_listA/marry3.gif""</stim_listA>",is marrying,
null,"<div style=""font-size:60px;"">+</div>",,html-keyboard-response,184,753397,0.0-15.0-0.9,5732,List2A,white,man,,,,null,,,,
null,"<img src=""stim_listA/talk1.gif""</stim_listA>",,html-keyboard-response,185,755403,0.0-15.0-1.9,5732,List2A,white,man,,,,null,,,,
null,is talking to,,html-keyboard-response,186,757407,0.0-15.0-2.9,5732,List2A,white,man,,,,null,,,,
11627,,,survey-text,187,769037,0.0-15.0-3.9,5732,List2A,white,man,,,,,"{""Q0"":""Luke and Jane are talking to each other""}","<img src=""stim_listA/talk1.gif""</stim_listA>",is talking to,
null,"<div style=""font-size:60px;"">+</div>",,html-keyboard-response,188,769541,0.0-15.0-0.10,5732,List2A,white,man,,,,null,,,,
null,"<img src=""stim_listA/argue2.gif""</stim_listA>",,html-keyboard-response,189,771546,0.0-15.0-1.10,5732,List2A,white,man,,,,null,,,,
null,are arguing with each other,,html-keyboard-response,190,773552,0.0-15.0-2.10,5732,List2A,white,man,,,,null,,,,
14791,,,survey-text,191,788346,0.0-15.0-3.10,5732,List2A,white,man,,,,,"{""Q0"":""Jane and Luke are arguing with each other""}","<img src=""stim_listA/argue2.gif""</stim_listA>",are arguing with each other,
null,"<div style=""font-size:60px;"">+</div>",,html-keyboard-response,192,788851,0.0-15.0-0.11,5732,List2A,white,man,,,,null,,,,
null,"<img src=""stim_listA/fight6.gif""</stim_listA>",,html-keyboard-response,193,790857,0.0-15.0-1.11,5732,List2A,white,man,,,,null,,,,
null,are fighting each other,,html-keyboard-response,194,792863,0.0-15.0-2.11,5732,List2A,white,man,,,,null,,,,
11765,,,survey-text,195,804630,0.0-15.0-3.11,5732,List2A,white,man,,,,,"{""Q0"":""Luke and Fred are fighting each other""}","<img src=""stim_listA/fight6.gif""</stim_listA>",are fighting each other,
null,"<div style=""font-size:60px;"">+</div>",,html-keyboard-response,196,805136,0.0-15.0-0.12,5732,List2A,white,man,,,,null,,,,
null,"<img src=""stim_listA/kiss4.gif""</stim_listA>",,html-keyboard-response,197,807144,0.0-15.0-1.12,5732,List2A,white,man,,,,null,,,,
null,are kissing each other,,html-keyboard-response,198,809149,0.0-15.0-2.12,5732,List2A,white,man,,,,null,,,,
10435,,,survey-text,199,819587,0.0-15.0-3.12,5732,List2A,white,man,,,,,"{""Q0"":""Kate and Mike are kissing each other""}","<img src=""stim_listA/kiss4.gif""</stim_listA>",are kissing each other,
null,"<div style=""font-size:60px;"">+</div>",,html-keyboard-response,200,820092,0.0-15.0-0.13,5732,List2A,white,man,,,,null,,,,
null,"<img src=""stim_listA/shout7.gif""</stim_listA>",,html-keyboard-response,201,822099,0.0-15.0-1.13,5732,List2A,white,man,,,,null,,,,
null,is shouting at,,html-keyboard-response,202,824105,0.0-15.0-2.13,5732,List2A,white,man,,,,null,,,,
9696,,,survey-text,203,833803,0.0-15.0-3.13,5732,List2A,white,man,,,,,"{""Q0"":""Ruth is shouting at Beth""}","<img src=""stim_listA/shout7.gif""</stim_listA>",is shouting at,
null,"<div style=""font-size:60px;"">+</div>",,html-keyboard-response,204,834307,0.0-15.0-0.14,5732,List2A,white,man,,,,null,,,,
null,"<img src=""stim_listA/dance3.gif""</stim_listA>",,html-keyboard-response,205,836315,0.0-15.0-1.14,5732,List2A,white,man,,,,null,,,,
null,is dancing with,,html-keyboard-response,206,838318,0.0-15.0-2.14,5732,List2A,white,man,,,,null,,,,
10939,,,survey-text,207,849260,0.0-15.0-3.14,5732,List2A,white,man,,,,,"{""Q0"":""Fred is dancing with Kate""}","<img src=""stim_listA/dance3.gif""</stim_listA>",is dancing with,
null,"<div style=""font-size:60px;"">+</div>",,html-keyboard-response,208,849771,0.0-15.0-0.15,5732,List2A,white,man,,,,null,,,,
null,"<img src=""stim_listA/kiss7.gif""</stim_listA>",,html-keyboard-response,209,851777,0.0-15.0-1.15,5732,List2A,white,man,,,,null,,,,
null,is kissing,,html-keyboard-response,210,853783,0.0-15.0-2.15,5732,List2A,white,man,,,,null,,,,
6492,,,survey-text,211,860278,0.0-15.0-3.15,5732,List2A,white,man,,,,,"{""Q0"":""Beth is kissing Ruth""}","<img src=""stim_listA/kiss7.gif""</stim_listA>",is kissing,
null,"<div style=""font-size:60px;"">+</div>",,html-keyboard-response,212,860785,0.0-15.0-0.16,5732,List2A,white,man,,,,null,,,,
null,"<img src=""stim_listA/dance6.gif""</stim_listA>",,html-keyboard-response,213,862792,0.0-15.0-1.16,5732,List2A,white,man,,,,null,,,,
null,are dancing with each other,,html-keyboard-response,214,864797,0.0-15.0-2.16,5732,List2A,white,man,,,,null,,,,
12707,,,survey-text,215,877507,0.0-15.0-3.16,5732,List2A,white,man,,,,,"{""Q0"":""Dave and Fred are dancing with each other""}","<img src=""stim_listA/dance6.gif""</stim_listA>",are dancing with each other,
null,"<div style=""font-size:60px;"">+</div>",,html-keyboard-response,216,878013,0.0-15.0-0.17,5732,List2A,white,man,,,,null,,,,
null,"<img src=""stim_listA/touch5.gif""</stim_listA>",,html-keyboard-response,217,880024,0.0-15.0-1.17,5732,List2A,white,man,,,,null,,,,
null,is touching,,html-keyboard-response,218,882028,0.0-15.0-2.17,5732,List2A,white,man,,,,null,,,,
11199,,,survey-text,219,893233,0.0-15.0-3.17,5732,List2A,white,man,,,,,"{""Q0"":""Dave is touching Mike""}","<img src=""stim_listA/touch5.gif""</stim_listA>",is touching,
null,"<div style=""font-size:60px;"">+</div>",,html-keyboard-response,220,893740,0.0-15.0-0.18,5732,List2A,white,man,,,,null,,,,
null,"<img src=""stim_listA/meet5.gif""</stim_listA>",,html-keyboard-response,221,895746,0.0-15.0-1.18,5732,List2A,white,man,,,,null,,,,
null,is meeting,,html-keyboard-response,222,897750,0.0-15.0-2.18,5732,List2A,white,man,,,,null,,,,
6262,,,survey-text,223,904015,0.0-15.0-3.18,5732,List2A,white,man,,,,,"{""Q0"":""Mike is meeting Dave""}","<img src=""stim_listA/meet5.gif""</stim_listA>",is meeting,
null,"<div style=""font-size:60px;"">+</div>",,html-keyboard-response,224,904519,0.0-15.0-0.19,5732,List2A,white,man,,,,null,,,,
null,"<img src=""stim_listA/talk3.gif""</stim_listA>",,html-keyboard-response,225,906526,0.0-15.0-1.19,5732,List2A,white,man,,,,null,,,,
null,is talking to,,html-keyboard-response,226,908534,0.0-15.0-2.19,5732,List2A,white,man,,,,null,,,,
8714,,,survey-text,227,917251,0.0-15.0-3.19,5732,List2A,white,man,,,,,"{""Q0"":""Kate is talking to Fred""}","<img src=""stim_listA/talk3.gif""</stim_listA>",is talking to,
13629,"<img src='img/portrait_matrix_list2.JPG' style='width:900px;height:500px;''></img><p>If you have memorised all the portraits and names and are ready to start, press Continue.</p><p><strong>Please note: Your memory of these faces will be tested 4 times during this experiment.</strong></p>",0,html-button-response,228,930883,0.0-16.0-0.0,5732,List2A,white,man,,,,,,,,
3454,"<img src=""portrait/BW1.jpg""style=""width:400px;height:400px;""></img>",0,html-button-response,229,935346,0.0-16.0-1.0,5732,List2A,white,man,,TRUE,0,,,,,
null,CORRECT,,html-keyboard-response,230,936859,0.0-16.0-2.0-0.0,5732,List2A,white,man,,,,null,,,,
1990,"<img src=""portrait/WM2.jpg""style=""width:400px;height:400px;""></img>",7,html-button-response,231,938853,0.0-16.0-4.0,5732,List2A,white,man,,TRUE,7,,,,,
null,CORRECT,,html-keyboard-response,232,940364,0.0-16.0-5.0-0.0,5732,List2A,white,man,,,,null,,,,
1621,"<img src=""portrait/BW2.jpg""style=""width:400px;height:400px;""></img>",2,html-button-response,233,941989,0.0-16.0-7.0,5732,List2A,white,man,,TRUE,2,,,,,
null,CORRECT,,html-keyboard-response,234,943500,0.0-16.0-8.0-0.0,5732,List2A,white,man,,,,null,,,,
1991,"<img src=""portrait/BM2.jpg""style=""width:400px;height:400px;""></img>",5,html-button-response,235,945496,0.0-16.0-10.0,5732,List2A,white,man,,TRUE,5,,,,,
null,CORRECT,,html-keyboard-response,236,947005,0.0-16.0-11.0-0.0,5732,List2A,white,man,,,,null,,,,
1969,"<img src=""portrait/WW1.jpg""style=""width:400px;height:400px;""></img>",1,html-button-response,237,948978,0.0-16.0-13.0,5732,List2A,white,man,,TRUE,1,,,,,
null,CORRECT,,html-keyboard-response,238,950488,0.0-16.0-14.0-0.0,5732,List2A,white,man,,,,null,,,,
1771,"<img src=""portrait/BM1.jpg""style=""width:400px;height:400px;""></img>",4,html-button-response,239,952263,0.0-16.0-16.0,5732,List2A,white,man,,TRUE,4,,,,,
null,CORRECT,,html-keyboard-response,240,953776,0.0-16.0-17.0-0.0,5732,List2A,white,man,,,,null,,,,
1706,"<img src=""portrait/WW2.jpg""style=""width:400px;height:400px;""></img>",3,html-button-response,241,955486,0.0-16.0-19.0,5732,List2A,white,man,,TRUE,3,,,,,
null,CORRECT,,html-keyboard-response,242,956996,0.0-16.0-20.0-0.0,5732,List2A,white,man,,,,null,,,,
1721,"<img src=""portrait/WM1.jpg""style=""width:400px;height:400px;""></img>",6,html-button-response,243,958721,0.0-16.0-22.0,5732,List2A,white,man,,TRUE,6,,,,,
null,CORRECT,,html-keyboard-response,244,960231,0.0-16.0-23.0-0.0,5732,List2A,white,man,,,,null,,,,
1659,<p>You got 8 out of 8 right first time. Press Continue.</p>,0,html-button-response,245,961893,0.0-16.0-25.0,5732,List2A,white,man,,,,,,,,
null,"<div style=""font-size:60px;"">+</div>",,html-keyboard-response,246,963417,0.0-17.0-0.0,5732,List2A,white,man,,,,null,,,,
null,"<img src=""stim_listA/marry7.gif""</stim_listA>",,html-keyboard-response,247,965425,0.0-17.0-1.0,5732,List2A,white,man,,,,null,,,,
null,is marrying,,html-keyboard-response,248,967432,0.0-17.0-2.0,5732,List2A,white,man,,,,null,,,,
9402,,,survey-text,249,976836,0.0-17.0-3.0,5732,List2A,white,man,,,,,"{""Q0"":""Beth is marrying Jane""}","<img src=""stim_listA/marry7.gif""</stim_listA>",is marrying,
null,"<div style=""font-size:60px;"">+</div>",,html-keyboard-response,250,977341,0.0-17.0-0.1,5732,List2A,white,man,,,,null,,,,
null,"<img src=""stim_listA/talk4.gif""</stim_listA>",,html-keyboard-response,251,979347,0.0-17.0-1.1,5732,List2A,white,man,,,,null,,,,
null,are talking to each other,,html-keyboard-response,252,981351,0.0-17.0-2.1,5732,List2A,white,man,,,,null,,,,
14123,,,survey-text,253,995477,0.0-17.0-3.1,5732,List2A,white,man,,,,,"{""Q0"":""Beth and Mike are talking to each other""}","<img src=""stim_listA/talk4.gif""</stim_listA>",are talking to each other,
null,"<div style=""font-size:60px;"">+</div>",,html-keyboard-response,254,995982,0.0-17.0-0.2,5732,List2A,white,man,,,,null,,,,
null,"<img src=""stim_listA/fight8.gif""</stim_listA>",,html-keyboard-response,255,997989,0.0-17.0-1.2,5732,List2A,white,man,,,,null,,,,
null,are fighting each other,,html-keyboard-response,256,999999,0.0-17.0-2.2,5732,List2A,white,man,,,,null,,,,
11547,,,survey-text,257,1011549,0.0-17.0-3.2,5732,List2A,white,man,,,,,"{""Q0"":""Ruth and Beth are fighting each other""}","<img src=""stim_listA/fight8.gif""</stim_listA>",are fighting each other,
null,"<div style=""font-size:60px;"">+</div>",,html-keyboard-response,258,1012053,0.0-17.0-0.3,5732,List2A,white,man,,,,null,,,,
null,"<img src=""stim_listA/touch2.gif""</stim_listA>",,html-keyboard-response,259,1014058,0.0-17.0-1.3,5732,List2A,white,man,,,,null,,,,
null,are touching each other,,html-keyboard-response,260,1016064,0.0-17.0-2.3,5732,List2A,white,man,,,,null,,,,
10800,,,survey-text,261,1026867,0.0-17.0-3.3,5732,List2A,white,man,,,,,"{""Q0"":""Ruth and Luke are touching each other""}","<img src=""stim_listA/touch2.gif""</stim_listA>",are touching each other,
null,"<div style=""font-size:60px;"">+</div>",,html-keyboard-response,262,1027370,0.0-17.0-0.4,5732,List2A,white,man,,,,null,,,,
null,"<img src=""stim_listA/meet1.gif""</stim_listA>",,html-keyboard-response,263,1029377,0.0-17.0-1.4,5732,List2A,white,man,,,,null,,,,
null,is meeting,,html-keyboard-response,264,1031384,0.0-17.0-2.4,5732,List2A,white,man,,,,null,,,,
6623,,,survey-text,265,1038010,0.0-17.0-3.4,5732,List2A,white,man,,,,,"{""Q0"":""jane is meeting dave""}","<img src=""stim_listA/meet1.gif""</stim_listA>",is meeting,
null,"<div style=""font-size:60px;"">+</div>",,html-keyboard-response,266,1038514,0.0-17.0-0.5,5732,List2A,white,man,,,,null,,,,
null,"<img src=""stim_listA/dance4.gif""</stim_listA>",,html-keyboard-response,267,1040519,0.0-17.0-1.5,5732,List2A,white,man,,,,null,,,,
null,are dancing with each other,,html-keyboard-response,268,1042525,0.0-17.0-2.5,5732,List2A,white,man,,,,null,,,,
10590,,,survey-text,269,1053118,0.0-17.0-3.5,5732,List2A,white,man,,,,,"{""Q0"":""mike and beth are dancing with each other""}","<img src=""stim_listA/dance4.gif""</stim_listA>",are dancing with each other,
null,"<div style=""font-size:60px;"">+</div>",,html-keyboard-response,270,1053626,0.0-17.0-0.6,5732,List2A,white,man,,,,null,,,,
null,"<img src=""stim_listA/marry8.gif""</stim_listA>",,html-keyboard-response,271,1055633,0.0-17.0-1.6,5732,List2A,white,man,,,,null,,,,
null,are marrying each other,,html-keyboard-response,272,1057639,0.0-17.0-2.6,5732,List2A,white,man,,,,null,,,,
9665,,,survey-text,273,1067306,0.0-17.0-3.6,5732,List2A,white,man,,,,,"{""Q0"":""kate and ruth are marrying each other""}","<img src=""stim_listA/marry8.gif""</stim_listA>",are marrying each other,
null,"<div style=""font-size:60px;"">+</div>",,html-keyboard-response,274,1067817,0.0-17.0-0.7,5732,List2A,white,man,,,,null,,,,
null,"<img src=""stim_listA/touch8.gif""</stim_listA>",,html-keyboard-response,275,1069825,0.0-17.0-1.7,5732,List2A,white,man,,,,null,,,,
null,are touching each other,,html-keyboard-response,276,1071831,0.0-17.0-2.7,5732,List2A,white,man,,,,null,,,,
11237,,,survey-text,277,1083071,0.0-17.0-3.7,5732,List2A,white,man,,,,,"{""Q0"":""ruth and beth are touching each other""}","<img src=""stim_listA/touch8.gif""</stim_listA>",are touching each other,
null,"<div style=""font-size:60px;"">+</div>",,html-keyboard-response,278,1083581,0.0-17.0-0.8,5732,List2A,white,man,,,,null,,,,
null,"<img src=""stim_listA/kiss8.gif""</stim_listA>",,html-keyboard-response,279,1085586,0.0-17.0-1.8,5732,List2A,white,man,,,,null,,,,
null,are kissing each other,,html-keyboard-response,280,1087590,0.0-17.0-2.8,5732,List2A,white,man,,,,null,,,,
10733,,,survey-text,281,1098326,0.0-17.0-3.8,5732,List2A,white,man,,,,,"{""Q0"":""luke and mike are shouting at ach ither""}","<img src=""stim_listA/kiss8.gif""</stim_listA>",are kissing each other,
null,"<div style=""font-size:60px;"">+</div>",,html-keyboard-response,282,1098830,0.0-17.0-0.9,5732,List2A,white,man,,,,null,,,,
null,"<img src=""stim_listA/argue6.gif""</stim_listA>",,html-keyboard-response,283,1100833,0.0-17.0-1.9,5732,List2A,white,man,,,,null,,,,
null,are arguing with each other,,html-keyboard-response,284,1102839,0.0-17.0-2.9,5732,List2A,white,man,,,,null,,,,
11643,,,survey-text,285,1114485,0.0-17.0-3.9,5732,List2A,white,man,,,,,"{""Q0"":""luke and mike are arguing with each other""}","<img src=""stim_listA/argue6.gif""</stim_listA>",are arguing with each other,
null,"<div style=""font-size:60px;"">+</div>",,html-keyboard-response,286,1114990,0.0-17.0-0.10,5732,List2A,white,man,,,,null,,,,
null,"<img src=""stim_listA/argue7.gif""</stim_listA>",,html-keyboard-response,287,1116997,0.0-17.0-1.10,5732,List2A,white,man,,,,null,,,,
null,is arguing with,,html-keyboard-response,288,1119001,0.0-17.0-2.10,5732,List2A,white,man,,,,null,,,,
7984,,,survey-text,289,1126988,0.0-17.0-3.10,5732,List2A,white,man,,,,,"{""Q0"":""Jane is arguing with beth""}","<img src=""stim_listA/argue7.gif""</stim_listA>",is arguing with,
null,"<div style=""font-size:60px;"">+</div>",,html-keyboard-response,290,1127493,0.0-17.0-0.11,5732,List2A,white,man,,,,null,,,,
null,"<img src=""stim_listA/hug6.gif""</stim_listA>",,html-keyboard-response,291,1129503,0.0-17.0-1.11,5732,List2A,white,man,,,,null,,,,
null,are hugging each other,,html-keyboard-response,292,1131510,0.0-17.0-2.11,5732,List2A,white,man,,,,null,,,,
10606,,,survey-text,293,1142119,0.0-17.0-3.11,5732,List2A,white,man,,,,,"{""Q0"":""mike and dave are hugging each other""}","<img src=""stim_listA/hug6.gif""</stim_listA>",are hugging each other,
null,"<div style=""font-size:60px;"">+</div>",,html-keyboard-response,294,1142624,0.0-17.0-0.12,5732,List2A,white,man,,,,null,,,,
null,"<img src=""stim_listA/kiss3.gif""</stim_listA>",,html-keyboard-response,295,1144630,0.0-17.0-1.12,5732,List2A,white,man,,,,null,,,,
null,is kissing,,html-keyboard-response,296,1146636,0.0-17.0-2.12,5732,List2A,white,man,,,,null,,,,
10524,,,survey-text,297,1157163,0.0-17.0-3.12,5732,List2A,white,man,,,,,"{""Q0"":""fred is kissing beth""}","<img src=""stim_listA/kiss3.gif""</stim_listA>",is kissing,
null,"<div style=""font-size:60px;"">+</div>",,html-keyboard-response,298,1157668,0.0-17.0-0.13,5732,List2A,white,man,,,,null,,,,
null,"<img src=""stim_listA/meet6.gif""</stim_listA>",,html-keyboard-response,299,1159675,0.0-17.0-1.13,5732,List2A,white,man,,,,null,,,,
null,are meeting each other,,html-keyboard-response,300,1161677,0.0-17.0-2.13,5732,List2A,white,man,,,,null,,,,
16513,,,survey-text,301,1178193,0.0-17.0-3.13,5732,List2A,white,man,,,,,"{""Q0"":""luke and fred are meeting each other""}","<img src=""stim_listA/meet6.gif""</stim_listA>",are meeting each other,
null,"<div style=""font-size:60px;"">+</div>",,html-keyboard-response,302,1178697,0.0-17.0-0.14,5732,List2A,white,man,,,,null,,,,
null,"<img src=""stim_listA/marry6.gif""</stim_listA>",,html-keyboard-response,303,1180706,0.0-17.0-1.14,5732,List2A,white,man,,,,null,,,,
null,are marrying each other,,html-keyboard-response,304,1182711,0.0-17.0-2.14,5732,List2A,white,man,,,,null,,,,
12903,,,survey-text,305,1195616,0.0-17.0-3.14,5732,List2A,white,man,,,,,"{""Q0"":""mike and luke are marrying each other""}","<img src=""stim_listA/marry6.gif""</stim_listA>",are marrying each other,
null,"<div style=""font-size:60px;"">+</div>",,html-keyboard-response,306,1196122,0.0-17.0-0.15,5732,List2A,white,man,,,,null,,,,
null,"<img src=""stim_listA/meet8.gif""</stim_listA>",,html-keyboard-response,307,1198128,0.0-17.0-1.15,5732,List2A,white,man,,,,null,,,,
null,are meeting each other,,html-keyboard-response,308,1200133,0.0-17.0-2.15,5732,List2A,white,man,,,,null,,,,
8455,,,survey-text,309,1208590,0.0-17.0-3.15,5732,List2A,white,man,,,,,"{""Q0"":""beth and ruth are meeting each other""}","<img src=""stim_listA/meet8.gif""</stim_listA>",are meeting each other,
null,"<div style=""font-size:60px;"">+</div>",,html-keyboard-response,310,1209095,0.0-17.0-0.16,5732,List2A,white,man,,,,null,,,,
null,"<img src=""stim_listA/meet7.gif""</stim_listA>",,html-keyboard-response,311,1211099,0.0-17.0-1.16,5732,List2A,white,man,,,,null,,,,
null,is meeting,,html-keyboard-response,312,1213102,0.0-17.0-2.16,5732,List2A,white,man,,,,null,,,,
6751,,,survey-text,313,1219856,0.0-17.0-3.16,5732,List2A,white,man,,,,,"{""Q0"":""jane is meeting kate""}","<img src=""stim_listA/meet7.gif""</stim_listA>",is meeting,
null,"<div style=""font-size:60px;"">+</div>",,html-keyboard-response,314,1220361,0.0-17.0-0.17,5732,List2A,white,man,,,,null,,,,
null,"<img src=""stim_listA/kiss6.gif""</stim_listA>",,html-keyboard-response,315,1222366,0.0-17.0-1.17,5732,List2A,white,man,,,,null,,,,
null,are kissing each other,,html-keyboard-response,316,1224370,0.0-17.0-2.17,5732,List2A,white,man,,,,null,,,,
15038,,,survey-text,317,1239410,0.0-17.0-3.17,5732,List2A,white,man,,,,,"{""Q0"":""mike and dave are kissing each other""}","<img src=""stim_listA/kiss6.gif""</stim_listA>",are kissing each other,
null,"<div style=""font-size:60px;"">+</div>",,html-keyboard-response,318,1239914,0.0-17.0-0.18,5732,List2A,white,man,,,,null,,,,
null,"<img src=""stim_listA/touch7.gif""</stim_listA>",,html-keyboard-response,319,1241920,0.0-17.0-1.18,5732,List2A,white,man,,,,null,,,,
null,is touching,,html-keyboard-response,320,1243924,0.0-17.0-2.18,5732,List2A,white,man,,,,null,,,,
6597,,,survey-text,321,1250524,0.0-17.0-3.18,5732,List2A,white,man,,,,,"{""Q0"":""beth is touching like""}","<img src=""stim_listA/touch7.gif""</stim_listA>",is touching,
null,"<div style=""font-size:60px;"">+</div>",,html-keyboard-response,322,1251029,0.0-17.0-0.19,5732,List2A,white,man,,,,null,,,,
null,"<img src=""stim_listA/hug8.gif""</stim_listA>",,html-keyboard-response,323,1253038,0.0-17.0-1.19,5732,List2A,white,man,,,,null,,,,
null,are hugging each other,,html-keyboard-response,324,1255043,0.0-17.0-2.19,5732,List2A,white,man,,,,null,,,,
10944,,,survey-text,325,1265990,0.0-17.0-3.19,5732,List2A,white,man,,,,,"{""Q0"":""jane and kate are hugging each other""}","<img src=""stim_listA/hug8.gif""</stim_listA>",are hugging each other,
7509,"<img src='img/portrait_matrix_list2.JPG' style='width:900px;height:500px;''></img><p>If you have memorised all the portraits and names and are ready to start, press Continue.</p><p><strong>Please note: Your memory of these faces will be tested 4 times during this experiment.</strong></p>",0,html-button-response,326,1273501,0.0-18.0-0.0,5732,List2A,white,man,,,,,,,,
1633,"<img src=""portrait/BM1.jpg""style=""width:400px;height:400px;""></img>",4,html-button-response,327,1276142,0.0-18.0-1.0,5732,List2A,white,man,,TRUE,4,,,,,
null,CORRECT,,html-keyboard-response,328,1277653,0.0-18.0-2.0-0.0,5732,List2A,white,man,,,,null,,,,
1730,"<img src=""portrait/WM2.jpg""style=""width:400px;height:400px;""></img>",7,html-button-response,329,1279388,0.0-18.0-4.0,5732,List2A,white,man,,TRUE,7,,,,,
null,CORRECT,,html-keyboard-response,330,1280897,0.0-18.0-5.0-0.0,5732,List2A,white,man,,,,null,,,,
1584,"<img src=""portrait/WM1.jpg""style=""width:400px;height:400px;""></img>",6,html-button-response,331,1282486,0.0-18.0-7.0,5732,List2A,white,man,,TRUE,6,,,,,
null,CORRECT,,html-keyboard-response,332,1283995,0.0-18.0-8.0-0.0,5732,List2A,white,man,,,,null,,,,
1636,"<img src=""portrait/BW2.jpg""style=""width:400px;height:400px;""></img>",2,html-button-response,333,1285635,0.0-18.0-10.0,5732,List2A,white,man,,TRUE,2,,,,,
null,CORRECT,,html-keyboard-response,334,1287156,0.0-18.0-11.0-0.0,5732,List2A,white,man,,,,null,,,,
1807,"<img src=""portrait/WW2.jpg""style=""width:400px;height:400px;""></img>",3,html-button-response,335,1288968,0.0-18.0-13.0,5732,List2A,white,man,,TRUE,3,,,,,
null,CORRECT,,html-keyboard-response,336,1290478,0.0-18.0-14.0-0.0,5732,List2A,white,man,,,,null,,,,
1770,"<img src=""portrait/BM2.jpg""style=""width:400px;height:400px;""></img>",5,html-button-response,337,1292253,0.0-18.0-16.0,5732,List2A,white,man,,TRUE,5,,,,,
null,CORRECT,,html-keyboard-response,338,1293763,0.0-18.0-17.0-0.0,5732,List2A,white,man,,,,null,,,,
2351,"<img src=""portrait/WW1.jpg""style=""width:400px;height:400px;""></img>",1,html-button-response,339,1296118,0.0-18.0-19.0,5732,List2A,white,man,,TRUE,1,,,,,
null,CORRECT,,html-keyboard-response,340,1297627,0.0-18.0-20.0-0.0,5732,List2A,white,man,,,,null,,,,
1832,"<img src=""portrait/BW1.jpg""style=""width:400px;height:400px;""></img>",0,html-button-response,341,1299464,0.0-18.0-22.0,5732,List2A,white,man,,TRUE,0,,,,,
null,CORRECT,,html-keyboard-response,342,1300971,0.0-18.0-23.0-0.0,5732,List2A,white,man,,,,null,,,,
1660,<p>You got 8 out of 8 right first time. Press Continue.</p>,0,html-button-response,343,1302635,0.0-18.0-25.0,5732,List2A,white,man,,,,,,,,
null,"<div style=""font-size:60px;"">+</div>",,html-keyboard-response,344,1304146,0.0-19.0-0.0,5732,List2A,white,man,,,,null,,,,
null,"<img src=""stim_listA/kiss1.gif""</stim_listA>",,html-keyboard-response,345,1306156,0.0-19.0-1.0,5732,List2A,white,man,,,,null,,,,
null,is kissing,,html-keyboard-response,346,1308165,0.0-19.0-2.0,5732,List2A,white,man,,,,null,,,,
6287,,,survey-text,347,1314455,0.0-19.0-3.0,5732,List2A,white,man,,,,,"{""Q0"":""luke is kissing ruth""}","<img src=""stim_listA/kiss1.gif""</stim_listA>",is kissing,
null,"<div style=""font-size:60px;"">+</div>",,html-keyboard-response,348,1314960,0.0-19.0-0.1,5732,List2A,white,man,,,,null,,,,
null,"<img src=""stim_listA/talk7.gif""</stim_listA>",,html-keyboard-response,349,1316967,0.0-19.0-1.1,5732,List2A,white,man,,,,null,,,,
null,is talking to,,html-keyboard-response,350,1318970,0.0-19.0-2.1,5732,List2A,white,man,,,,null,,,,
10042,,,survey-text,351,1329015,0.0-19.0-3.1,5732,List2A,white,man,,,,,"{""Q0"":""kate is talking to ruth""}","<img src=""stim_listA/talk7.gif""</stim_listA>",is talking to,
null,"<div style=""font-size:60px;"">+</div>",,html-keyboard-response,352,1329519,0.0-19.0-0.2,5732,List2A,white,man,,,,null,,,,
null,"<img src=""stim_listA/hug5.gif""</stim_listA>",,html-keyboard-response,353,1331525,0.0-19.0-1.2,5732,List2A,white,man,,,,null,,,,
null,is hugging,,html-keyboard-response,354,1333528,0.0-19.0-2.2,5732,List2A,white,man,,,,null,,,,
7504,,,survey-text,355,1341035,0.0-19.0-3.2,5732,List2A,white,man,,,,,"{""Q0"":""fred is hugging luke""}","<img src=""stim_listA/hug5.gif""</stim_listA>",is hugging,
null,"<div style=""font-size:60px;"">+</div>",,html-keyboard-response,356,1341541,0.0-19.0-0.3,5732,List2A,white,man,,,,null,,,,
null,"<img src=""stim_listA/fight7.gif""</stim_listA>",,html-keyboard-response,357,1343547,0.0-19.0-1.3,5732,List2A,white,man,,,,null,,,,
null,is fighting,,html-keyboard-response,358,1345553,0.0-19.0-2.3,5732,List2A,white,man,,,,null,,,,
8069,,,survey-text,359,1353625,0.0-19.0-3.3,5732,List2A,white,man,,,,,"{""Q0"":""jane is fighting kate""}","<img src=""stim_listA/fight7.gif""</stim_listA>",is fighting,
null,"<div style=""font-size:60px;"">+</div>",,html-keyboard-response,360,1354130,0.0-19.0-0.4,5732,List2A,white,man,,,,null,,,,
null,"<img src=""stim_listA/shout2.gif""</stim_listA>",,html-keyboard-response,361,1356135,0.0-19.0-1.4,5732,List2A,white,man,,,,null,,,,
null,are shouting at each other,,html-keyboard-response,362,1358138,0.0-19.0-2.4,5732,List2A,white,man,,,,null,,,,
16710,,,survey-text,363,1374851,0.0-19.0-3.4,5732,List2A,white,man,,,,,"{""Q0"":""dave and jane are shouting at each other""}","<img src=""stim_listA/shout2.gif""</stim_listA>",are shouting at each other,
null,"<div style=""font-size:60px;"">+</div>",,html-keyboard-response,364,1375357,0.0-19.0-0.5,5732,List2A,white,man,,,,null,,,,
null,"<img src=""stim_listA/shout1.gif""</stim_listA>",,html-keyboard-response,365,1377365,0.0-19.0-1.5,5732,List2A,white,man,,,,null,,,,
null,is shouting at,,html-keyboard-response,366,1379373,0.0-19.0-2.5,5732,List2A,white,man,,,,null,,,,
9204,,,survey-text,367,1388581,0.0-19.0-3.5,5732,List2A,white,man,,,,,"{""Q0"":""luke is shouting at ruth""}","<img src=""stim_listA/shout1.gif""</stim_listA>",is shouting at,
null,"<div style=""font-size:60px;"">+</div>",,html-keyboard-response,368,1389086,0.0-19.0-0.6,5732,List2A,white,man,,,,null,,,,
null,"<img src=""stim_listA/hug7.gif""</stim_listA>",,html-keyboard-response,369,1391093,0.0-19.0-1.6,5732,List2A,white,man,,,,null,,,,
null,is hugging,,html-keyboard-response,370,1393101,0.0-19.0-2.6,5732,List2A,white,man,,,,null,,,,
6321,,,survey-text,371,1399425,0.0-19.0-3.6,5732,List2A,white,man,,,,,"{""Q0"":""beth is hugging ruth""}","<img src=""stim_listA/hug7.gif""</stim_listA>",is hugging,
null,"<div style=""font-size:60px;"">+</div>",,html-keyboard-response,372,1399943,0.0-19.0-0.7,5732,List2A,white,man,,,,null,,,,
null,"<img src=""stim_listA/fight3.gif""</stim_listA>",,html-keyboard-response,373,1401951,0.0-19.0-1.7,5732,List2A,white,man,,,,null,,,,
null,is fighting,,html-keyboard-response,374,1403958,0.0-19.0-2.7,5732,List2A,white,man,,,,null,,,,
6790,,,survey-text,375,1410751,0.0-19.0-3.7,5732,List2A,white,man,,,,,"{""Q0"":""mike is fighting kate""}","<img src=""stim_listA/fight3.gif""</stim_listA>",is fighting,
null,"<div style=""font-size:60px;"">+</div>",,html-keyboard-response,376,1411259,0.0-19.0-0.8,5732,List2A,white,man,,,,null,,,,
null,"<img src=""stim_listA/meet3.gif""</stim_listA>",,html-keyboard-response,377,1413265,0.0-19.0-1.8,5732,List2A,white,man,,,,null,,,,
null,is meeting,,html-keyboard-response,378,1415272,0.0-19.0-2.8,5732,List2A,white,man,,,,null,,,,
6198,,,survey-text,379,1421473,0.0-19.0-3.8,5732,List2A,white,man,,,,,"{""Q0"":""kate is meeting mike""}","<img src=""stim_listA/meet3.gif""</stim_listA>",is meeting,
null,"<div style=""font-size:60px;"">+</div>",,html-keyboard-response,380,1421978,0.0-19.0-0.9,5732,List2A,white,man,,,,null,,,,
null,"<img src=""stim_listA/marry1.gif""</stim_listA>",,html-keyboard-response,381,1423985,0.0-19.0-1.9,5732,List2A,white,man,,,,null,,,,
null,is marrying,,html-keyboard-response,382,1425989,0.0-19.0-2.9,5732,List2A,white,man,,,,null,,,,
6223,,,survey-text,383,1432216,0.0-19.0-3.9,5732,List2A,white,man,,,,,"{""Q0"":""dave is marrying ruth""}","<img src=""stim_listA/marry1.gif""</stim_listA>",is marrying,
null,"<div style=""font-size:60px;"">+</div>",,html-keyboard-response,384,1432724,0.0-19.0-0.10,5732,List2A,white,man,,,,null,,,,
null,"<img src=""stim_listA/marry2.gif""</stim_listA>",,html-keyboard-response,385,1434730,0.0-19.0-1.10,5732,List2A,white,man,,,,null,,,,
null,are marrying each other,,html-keyboard-response,386,1436733,0.0-19.0-2.10,5732,List2A,white,man,,,,null,,,,
9757,,,survey-text,387,1446493,0.0-19.0-3.10,5732,List2A,white,man,,,,,"{""Q0"":""jane and luke are marrying each other""}","<img src=""stim_listA/marry2.gif""</stim_listA>",are marrying each other,
null,"<div style=""font-size:60px;"">+</div>",,html-keyboard-response,388,1446999,0.0-19.0-0.11,5732,List2A,white,man,,,,null,,,,
null,"<img src=""stim_listA/argue3.gif""</stim_listA>",,html-keyboard-response,389,1449007,0.0-19.0-1.11,5732,List2A,white,man,,,,null,,,,
null,is arguing with,,html-keyboard-response,390,1451011,0.0-19.0-2.11,5732,List2A,white,man,,,,null,,,,
7573,,,survey-text,391,1458587,0.0-19.0-3.11,5732,List2A,white,man,,,,,"{""Q0"":""mike is arguing with beth""}","<img src=""stim_listA/argue3.gif""</stim_listA>",is arguing with,
null,"<div style=""font-size:60px;"">+</div>",,html-keyboard-response,392,1459094,0.0-19.0-0.12,5732,List2A,white,man,,,,null,,,,
null,"<img src=""stim_listA/talk8.gif""</stim_listA>",,html-keyboard-response,393,1461102,0.0-19.0-1.12,5732,List2A,white,man,,,,null,,,,
null,are talking to each other,,html-keyboard-response,394,1463106,0.0-19.0-2.12,5732,List2A,white,man,,,,null,,,,
12458,,,survey-text,395,1475567,0.0-19.0-3.12,5732,List2A,white,man,,,,,"{""Q0"":""beth and jane are talking to one another""}","<img src=""stim_listA/talk8.gif""</stim_listA>",are talking to each other,
null,"<div style=""font-size:60px;"">+</div>",,html-keyboard-response,396,1476072,0.0-19.0-0.13,5732,List2A,white,man,,,,null,,,,
null,"<img src=""stim_listA/touch6.gif""</stim_listA>",,html-keyboard-response,397,1478078,0.0-19.0-1.13,5732,List2A,white,man,,,,null,,,,
null,are touching each other,,html-keyboard-response,398,1480083,0.0-19.0-2.13,5732,List2A,white,man,,,,null,,,,
14519,,,survey-text,399,1494605,0.0-19.0-3.13,5732,List2A,white,man,,,,,"{""Q0"":""fred and luke are touching each other""}","<img src=""stim_listA/touch6.gif""</stim_listA>",are touching each other,
null,"<div style=""font-size:60px;"">+</div>",,html-keyboard-response,400,1495122,0.0-19.0-0.14,5732,List2A,white,man,,,,null,,,,
null,"<img src=""stim_listA/fight5.gif""</stim_listA>",,html-keyboard-response,401,1497128,0.0-19.0-1.14,5732,List2A,white,man,,,,null,,,,
null,is fighting,,html-keyboard-response,402,1499131,0.0-19.0-2.14,5732,List2A,white,man,,,,null,,,,
9995,,,survey-text,403,1509130,0.0-19.0-3.14,5732,List2A,white,man,,,,,"{""Q0"":""dave is fighting mike""}","<img src=""stim_listA/fight5.gif""</stim_listA>",is fighting,
null,"<div style=""font-size:60px;"">+</div>",,html-keyboard-response,404,1509634,0.0-19.0-0.15,5732,List2A,white,man,,,,null,,,,
null,"<img src=""stim_listA/dance2.gif""</stim_listA>",,html-keyboard-response,405,1511640,0.0-19.0-1.15,5732,List2A,white,man,,,,null,,,,
null,are dancing with each other,,html-keyboard-response,406,1513644,0.0-19.0-2.15,5732,List2A,white,man,,,,null,,,,
9901,,,survey-text,407,1523548,0.0-19.0-3.15,5732,List2A,white,man,,,,,"{""Q0"":""ruth and dave are dancing with each other""}","<img src=""stim_listA/dance2.gif""</stim_listA>",are dancing with each other,
null,"<div style=""font-size:60px;"">+</div>",,html-keyboard-response,408,1524051,0.0-19.0-0.16,5732,List2A,white,man,,,,null,,,,
null,"<img src=""stim_listA/meet4.gif""</stim_listA>",,html-keyboard-response,409,1526059,0.0-19.0-1.16,5732,List2A,white,man,,,,null,,,,
null,are meeting each other,,html-keyboard-response,410,1528062,0.0-19.0-2.16,5732,List2A,white,man,,,,null,,,,
12773,,,survey-text,411,1540838,0.0-19.0-3.16,5732,List2A,white,man,,,,,"{""Q0"":""beth and fred are meeting each other""}","<img src=""stim_listA/meet4.gif""</stim_listA>",are meeting each other,
null,"<div style=""font-size:60px;"">+</div>",,html-keyboard-response,412,1541344,0.0-19.0-0.17,5732,List2A,white,man,,,,null,,,,
null,"<img src=""stim_listA/shout8.gif""</stim_listA>",,html-keyboard-response,413,1543350,0.0-19.0-1.17,5732,List2A,white,man,,,,null,,,,
null,are shouting at each other,,html-keyboard-response,414,1545357,0.0-19.0-2.17,5732,List2A,white,man,,,,null,,,,
15881,,,survey-text,415,1561241,0.0-19.0-3.17,5732,List2A,white,man,,,,,"{""Q0"":""ruth and kate are shouting at each other""}","<img src=""stim_listA/shout8.gif""</stim_listA>",are shouting at each other,
null,"<div style=""font-size:60px;"">+</div>",,html-keyboard-response,416,1561748,0.0-19.0-0.18,5732,List2A,white,man,,,,null,,,,
null,"<img src=""stim_listA/fight4.gif""</stim_listA>",,html-keyboard-response,417,1563754,0.0-19.0-1.18,5732,List2A,white,man,,,,null,,,,
null,are fighting each other,,html-keyboard-response,418,1565758,0.0-19.0-2.18,5732,List2A,white,man,,,,null,,,,
12533,,,survey-text,419,1578294,0.0-19.0-3.18,5732,List2A,white,man,,,,,"{""Q0"":""beth and fred are fighting each other""}","<img src=""stim_listA/fight4.gif""</stim_listA>",are fighting each other,
null,"<div style=""font-size:60px;"">+</div>",,html-keyboard-response,420,1578797,0.0-19.0-0.19,5732,List2A,white,man,,,,null,,,,
null,"<img src=""stim_listA/kiss5.gif""</stim_listA>",,html-keyboard-response,421,1580804,0.0-19.0-1.19,5732,List2A,white,man,,,,null,,,,
null,is kissing,,html-keyboard-response,422,1582810,0.0-19.0-2.19,5732,List2A,white,man,,,,null,,,,
6720,,,survey-text,423,1589534,0.0-19.0-3.19,5732,List2A,white,man,,,,,"{""Q0"":""luke is kissing fred""}","<img src=""stim_listA/kiss5.gif""</stim_listA>",is kissing,
2787,<p>Thank you for completing that task.</p><p>The final part of this session is a short questionnaire.</p><p>Press Continue.</p>,0,html-button-response,424,1592323,0.0-20.0,5732,List2A,white,man,,,,,,,,
24767,,,survey-text,425,1618100,0.0-21.0,5732,List2A,white,man,,,,,"{""Q0"":""38"",""Q1"":""english"",""Q2"":""english"",""Q3"":""UK"",""Q4"":""refuse to say"",""Q5"":""M""}",,,demographics
28279,,,survey-likert,426,1646393,0.0-22.0,5732,List2A,white,man,,,,,"{""Q0"":3,""Q1"":3,""Q2"":3,""Q3"":3,""Q4"":3,""Q5"":3,""Q6"":3,""Q7"":3,""Q8"":3,""Q9"":3,""Q10"":3,""Q11"":3,""Q12"":3,""Q13"":3}",,,likert_race
26621,,,survey-likert,427,1673027,0.0-23.0,5732,List2A,white,man,,,,,"{""Q0"":3,""Q1"":3,""Q2"":3,""Q3"":3,""Q4"":3,""Q5"":3,""Q6"":3,""Q7"":3,""Q8"":3,""Q9"":3,""Q10"":3,""Q11"":3,""Q12"":3,""Q13"":3}",,,likert_gender
9603,,,survey-text,428,1682634,0.0-24.0,5732,List2A,white,man,,,,,"{""Q0"":""ccc""}",,,worker_id
9768,,,external-html,429,1695522,0.0-25.0,5732,List2A,white,man,debrief.html,,,,,,,
