rt,stimulus,button_pressed,trial_type,trial_index,time_elapsed,internal_node_id,subject,list,ppt_race,ppt_gender,url,first_guess,correct,key_press,responses,image_type,phrase_type,test_part
2310,Welcome to the experiment. Press Continue to begin.,0,html-button-response,0,2315,0.0-0.0,57633,List2B,white,woman,,,,,,,,
32485,,,external-html,1,35958,0.0-1.0,57633,List2B,white,woman,consent.html,,,,,,,
3772,"<p>On the next page, you will see portraits of 8 people and their names.</p><p>Your first task is to take a few minutes to memorise the names of these people.</p><p>You will have to recall their names during the rest of the experiment, so it is</p><p>essential that you try to memorise these people and their names as best as you can.</p><br><p><strong>You will then be tested on your memory of these names and portraits.</strong></p><br><p>The experiment will start after you have completed this memory test.</p><br><p>Ready?</p>",0,html-button-response,2,39731,0.0-2.0,57633,List2B,white,woman,,,,,,,,
26768,"<img src='img/portrait_matrix_list2.JPG' style='width:900px;height:500px;''></img><p>If you have memorised all the portraits and names and are ready to start, press Continue.</p><p><strong>Please note: Your memory of these faces will be tested 4 times during this experiment.</strong></p>",0,html-button-response,3,67516,0.0-3.0-0.0,57633,List2B,white,woman,,,,,,,,
4264,"<img src=""portrait/WW1.jpg""style=""width:400px;height:400px;""></img>",1,html-button-response,4,72798,0.0-3.0-1.0,57633,List2B,white,woman,,TRUE,1,,,,,
null,CORRECT,,html-keyboard-response,5,74315,0.0-3.0-2.0-0.0,57633,List2B,white,woman,,,,null,,,,
9366,"<img src=""portrait/WM2.jpg""style=""width:400px;height:400px;""></img>",7,html-button-response,6,83684,0.0-3.0-4.0,57633,List2B,white,woman,,TRUE,7,,,,,
null,CORRECT,,html-keyboard-response,7,85200,0.0-3.0-5.0-0.0,57633,List2B,white,woman,,,,null,,,,
3449,"<img src=""portrait/WM1.jpg""style=""width:400px;height:400px;""></img>",6,html-button-response,8,88652,0.0-3.0-7.0,57633,List2B,white,woman,,TRUE,6,,,,,
null,CORRECT,,html-keyboard-response,9,90183,0.0-3.0-8.0-0.0,57633,List2B,white,woman,,,,null,,,,
4714,"<img src=""portrait/BM1.jpg""style=""width:400px;height:400px;""></img>",4,html-button-response,10,94899,0.0-3.0-10.0,57633,List2B,white,woman,,TRUE,4,,,,,
null,CORRECT,,html-keyboard-response,11,96409,0.0-3.0-11.0-0.0,57633,List2B,white,woman,,,,null,,,,
2736,"<img src=""portrait/BM2.jpg""style=""width:400px;height:400px;""></img>",5,html-button-response,12,99148,0.0-3.0-13.0,57633,List2B,white,woman,,TRUE,5,,,,,
null,CORRECT,,html-keyboard-response,13,100679,0.0-3.0-14.0-0.0,57633,List2B,white,woman,,,,null,,,,
4366,"<img src=""portrait/BW2.jpg""style=""width:400px;height:400px;""></img>",2,html-button-response,14,105047,0.0-3.0-16.0,57633,List2B,white,woman,,TRUE,2,,,,,
null,CORRECT,,html-keyboard-response,15,106577,0.0-3.0-17.0-0.0,57633,List2B,white,woman,,,,null,,,,
4468,"<img src=""portrait/WW2.jpg""style=""width:400px;height:400px;""></img>",3,html-button-response,16,111047,0.0-3.0-19.0,57633,List2B,white,woman,,TRUE,3,,,,,
null,CORRECT,,html-keyboard-response,17,112551,0.0-3.0-20.0-0.0,57633,List2B,white,woman,,,,null,,,,
4974,"<img src=""portrait/BW1.jpg""style=""width:400px;height:400px;""></img>",0,html-button-response,18,117527,0.0-3.0-22.0,57633,List2B,white,woman,,TRUE,0,,,,,
null,CORRECT,,html-keyboard-response,19,119040,0.0-3.0-23.0-0.0,57633,List2B,white,woman,,,,null,,,,
1476,<p>You got 8 out of 8 right first time. Press Continue.</p>,0,html-button-response,20,120519,0.0-3.0-25.0,57633,List2B,white,woman,,,,,,,,
20836,"<p>In this experiment, you will view photographs of the people from the memory game interacting.</p><p>By using the <strong>exact</strong> phrase given <i>after</i> the photograph appears and recalling the correct names of the people in the photographs, form a sentence describing the interaction. You do not need to capitalise names.</p><p>Type your answer in the space provided. Please complete every sentence before moving onto the next trial.</p><p>You will only have a few seconds to memorise each given photograph and phrase before you can respond, so try your best to focus.</p><p>An example is given below. Press 'Continue' when you are ready.</p><img src='img/speaking_example_v2.jpg' style='width:800px;height:460px;''></img>",0,html-button-response,21,142360,0.0-4.0,57633,List2B,white,woman,,,,,,,,
2420,"<p>Before the experiment starts, you will watch two example trials. Press 'Continue'.</p>",0,html-button-response,22,145782,0.0-5.0,57633,List2B,white,woman,,,,,,,,
null,<img src='img/speaking_WW.gif'></img>,,html-keyboard-response,23,148801,0.0-6.0,57633,List2B,white,woman,,,,null,,,,
null,<p>is speaking to</p>,,html-keyboard-response,24,150818,0.0-7.0,57633,List2B,white,woman,,,,null,,,,
2884,<p><b>Answer:</b> jane is speaking to ruth</p>,0,html-button-response,25,153703,0.0-8.0,57633,List2B,white,woman,,,,,,,,
null,<img src='img/pointing_BM.gif'></img>,,html-keyboard-response,26,156717,0.0-9.0,57633,List2B,white,woman,,,,null,,,,
null,<p>are pointing at each other</p>,,html-keyboard-response,27,158732,0.0-10.0,57633,List2B,white,woman,,,,null,,,,
1880,<p><b>Answer:</b> fred and mike are pointing at each other</p>,0,html-button-response,28,160613,0.0-11.0,57633,List2B,white,woman,,,,,,,,
4063,"<p>Ready to start the experiment?</p><br><p><strong>Remember to describe the picture using a full sentence,</strong></p><p><strong>that combines the names of the people with the given phrase.</strong></p><p><strong>If you do not do this correctly you will not be paid.</strong></p><p><strong> You do not need to capitalise names or use punctuation.</strong></p><br><p>Press 'Continue' to begin.</p>",0,html-button-response,29,165693,0.0-12.0,57633,List2B,white,woman,,,,,,,,
null,"<div style=""font-size:60px;"">+</div>",,html-keyboard-response,30,167207,0.0-13.0-0.0,57633,List2B,white,woman,,,,null,,,,
null,"<img src=""stim_listB/fight4.gif""</stim_listB>",,html-keyboard-response,31,169214,0.0-13.0-1.0,57633,List2B,white,woman,,,,null,,,,
null,are fighting each other,,html-keyboard-response,32,171229,0.0-13.0-2.0,57633,List2B,white,woman,,,,null,,,,
7897,,,survey-text,33,179134,0.0-13.0-3.0,57633,List2B,white,woman,,,,,"{""Q0"":""Beth""}","<img src=""stim_listB/fight4.gif""</stim_listB>",are fighting each other,
null,"<div style=""font-size:60px;"">+</div>",,html-keyboard-response,34,179637,0.0-13.0-0.1,57633,List2B,white,woman,,,,null,,,,
null,"<img src=""stim_listB/argue2.gif""</stim_listB>",,html-keyboard-response,35,181643,0.0-13.0-1.1,57633,List2B,white,woman,,,,null,,,,
null,are arguing with each other,,html-keyboard-response,36,183649,0.0-13.0-2.1,57633,List2B,white,woman,,,,null,,,,
6961,,,survey-text,37,190613,0.0-13.0-3.1,57633,List2B,white,woman,,,,,"{""Q0"":""Jane + Luke""}","<img src=""stim_listB/argue2.gif""</stim_listB>",are arguing with each other,
null,"<div style=""font-size:60px;"">+</div>",,html-keyboard-response,38,191120,0.0-13.0-0.2,57633,List2B,white,woman,,,,null,,,,
null,"<img src=""stim_listB/kiss1.gif""</stim_listB>",,html-keyboard-response,39,193135,0.0-13.0-1.2,57633,List2B,white,woman,,,,null,,,,
null,is kissing,,html-keyboard-response,40,195151,0.0-13.0-2.2,57633,List2B,white,woman,,,,null,,,,
15164,,,survey-text,41,210317,0.0-13.0-3.2,57633,List2B,white,woman,,,,,"{""Q0"":""Ruth + Dave""}","<img src=""stim_listB/kiss1.gif""</stim_listB>",is kissing,
null,"<div style=""font-size:60px;"">+</div>",,html-keyboard-response,42,210820,0.0-13.0-0.3,57633,List2B,white,woman,,,,null,,,,
null,"<img src=""stim_listB/hug2.gif""</stim_listB>",,html-keyboard-response,43,212830,0.0-13.0-1.3,57633,List2B,white,woman,,,,null,,,,
null,are hugging each other,,html-keyboard-response,44,214832,0.0-13.0-2.3,57633,List2B,white,woman,,,,null,,,,
6507,,,survey-text,45,221341,0.0-13.0-3.3,57633,List2B,white,woman,,,,,"{""Q0"":""Jane + Dave""}","<img src=""stim_listB/hug2.gif""</stim_listB>",are hugging each other,
null,"<div style=""font-size:60px;"">+</div>",,html-keyboard-response,46,221851,0.0-13.0-0.4,57633,List2B,white,woman,,,,null,,,,
null,"<img src=""stim_listB/fight5.gif""</stim_listB>",,html-keyboard-response,47,223862,0.0-13.0-1.4,57633,List2B,white,woman,,,,null,,,,
null,is fighting,,html-keyboard-response,48,225863,0.0-13.0-2.4,57633,List2B,white,woman,,,,null,,,,
13196,,,survey-text,49,239061,0.0-13.0-3.4,57633,List2B,white,woman,,,,,"{""Q0"":""Dave is fighting Mike""}","<img src=""stim_listB/fight5.gif""</stim_listB>",is fighting,
null,"<div style=""font-size:60px;"">+</div>",,html-keyboard-response,50,239563,0.0-13.0-0.5,57633,List2B,white,woman,,,,null,,,,
null,"<img src=""stim_listB/meet8.gif""</stim_listB>",,html-keyboard-response,51,241572,0.0-13.0-1.5,57633,List2B,white,woman,,,,null,,,,
null,are meeting each other,,html-keyboard-response,52,243577,0.0-13.0-2.5,57633,List2B,white,woman,,,,null,,,,
8033,,,survey-text,53,251612,0.0-13.0-3.5,57633,List2B,white,woman,,,,,"{""Q0"":""Beth & Ruth""}","<img src=""stim_listB/meet8.gif""</stim_listB>",are meeting each other,
null,"<div style=""font-size:60px;"">+</div>",,html-keyboard-response,54,252122,0.0-13.0-0.6,57633,List2B,white,woman,,,,null,,,,
null,"<img src=""stim_listB/meet1.gif""</stim_listB>",,html-keyboard-response,55,254124,0.0-13.0-1.6,57633,List2B,white,woman,,,,null,,,,
null,is meeting,,html-keyboard-response,56,256138,0.0-13.0-2.6,57633,List2B,white,woman,,,,null,,,,
6529,,,survey-text,57,262669,0.0-13.0-3.6,57633,List2B,white,woman,,,,,"{""Q0"":""Dave is meeting Jane""}","<img src=""stim_listB/meet1.gif""</stim_listB>",is meeting,
null,"<div style=""font-size:60px;"">+</div>",,html-keyboard-response,58,263171,0.0-13.0-0.7,57633,List2B,white,woman,,,,null,,,,
null,"<img src=""stim_listB/hug8.gif""</stim_listB>",,html-keyboard-response,59,265181,0.0-13.0-1.7,57633,List2B,white,woman,,,,null,,,,
null,are hugging each other,,html-keyboard-response,60,267186,0.0-13.0-2.7,57633,List2B,white,woman,,,,null,,,,
15996,,,survey-text,61,283184,0.0-13.0-3.7,57633,List2B,white,woman,,,,,"{""Q0"":""Jane + Kate ""}","<img src=""stim_listB/hug8.gif""</stim_listB>",are hugging each other,
null,"<div style=""font-size:60px;"">+</div>",,html-keyboard-response,62,283688,0.0-13.0-0.8,57633,List2B,white,woman,,,,null,,,,
null,"<img src=""stim_listB/fight6.gif""</stim_listB>",,html-keyboard-response,63,285697,0.0-13.0-1.8,57633,List2B,white,woman,,,,null,,,,
null,are fighting each other,,html-keyboard-response,64,287702,0.0-13.0-2.8,57633,List2B,white,woman,,,,null,,,,
9696,,,survey-text,65,297400,0.0-13.0-3.8,57633,List2B,white,woman,,,,,"{""Q0"":""Luke & Fred""}","<img src=""stim_listB/fight6.gif""</stim_listB>",are fighting each other,
null,"<div style=""font-size:60px;"">+</div>",,html-keyboard-response,66,297925,0.0-13.0-0.9,57633,List2B,white,woman,,,,null,,,,
null,"<img src=""stim_listB/shout7.gif""</stim_listB>",,html-keyboard-response,67,299929,0.0-13.0-1.9,57633,List2B,white,woman,,,,null,,,,
null,is shouting at,,html-keyboard-response,68,301953,0.0-13.0-2.9,57633,List2B,white,woman,,,,null,,,,
4772,,,survey-text,69,306727,0.0-13.0-3.9,57633,List2B,white,woman,,,,,"{""Q0"":""Ruth & Beth""}","<img src=""stim_listB/shout7.gif""</stim_listB>",is shouting at,
null,"<div style=""font-size:60px;"">+</div>",,html-keyboard-response,70,307230,0.0-13.0-0.10,57633,List2B,white,woman,,,,null,,,,
null,"<img src=""stim_listB/meet5.gif""</stim_listB>",,html-keyboard-response,71,309238,0.0-13.0-1.10,57633,List2B,white,woman,,,,null,,,,
null,is meeting,,html-keyboard-response,72,311239,0.0-13.0-2.10,57633,List2B,white,woman,,,,null,,,,
7486,,,survey-text,73,318727,0.0-13.0-3.10,57633,List2B,white,woman,,,,,"{""Q0"":""Dave is meeting Mike""}","<img src=""stim_listB/meet5.gif""</stim_listB>",is meeting,
null,"<div style=""font-size:60px;"">+</div>",,html-keyboard-response,74,319229,0.0-13.0-0.11,57633,List2B,white,woman,,,,null,,,,
null,"<img src=""stim_listB/kiss4.gif""</stim_listB>",,html-keyboard-response,75,321232,0.0-13.0-1.11,57633,List2B,white,woman,,,,null,,,,
null,are kissing each other,,html-keyboard-response,76,323249,0.0-13.0-2.11,57633,List2B,white,woman,,,,null,,,,
8132,,,survey-text,77,331383,0.0-13.0-3.11,57633,List2B,white,woman,,,,,"{""Q0"":""Kate + Mike""}","<img src=""stim_listB/kiss4.gif""</stim_listB>",are kissing each other,
null,"<div style=""font-size:60px;"">+</div>",,html-keyboard-response,78,331896,0.0-13.0-0.12,57633,List2B,white,woman,,,,null,,,,
null,"<img src=""stim_listB/argue8.gif""</stim_listB>",,html-keyboard-response,79,333905,0.0-13.0-1.12,57633,List2B,white,woman,,,,null,,,,
null,are arguing with each other,,html-keyboard-response,80,335910,0.0-13.0-2.12,57633,List2B,white,woman,,,,null,,,,
9358,,,survey-text,81,345270,0.0-13.0-3.12,57633,List2B,white,woman,,,,,"{""Q0"":""Ruth & Kate are arguing with each other""}","<img src=""stim_listB/argue8.gif""</stim_listB>",are arguing with each other,
null,"<div style=""font-size:60px;"">+</div>",,html-keyboard-response,82,345776,0.0-13.0-0.13,57633,List2B,white,woman,,,,null,,,,
null,"<img src=""stim_listB/dance1.gif""</stim_listB>",,html-keyboard-response,83,347779,0.0-13.0-1.13,57633,List2B,white,woman,,,,null,,,,
null,is dancing with,,html-keyboard-response,84,349781,0.0-13.0-2.13,57633,List2B,white,woman,,,,null,,,,
7351,,,survey-text,85,357134,0.0-13.0-3.13,57633,List2B,white,woman,,,,,"{""Q0"":""Luke is dancing with Jane""}","<img src=""stim_listB/dance1.gif""</stim_listB>",is dancing with,
null,"<div style=""font-size:60px;"">+</div>",,html-keyboard-response,86,357646,0.0-13.0-0.14,57633,List2B,white,woman,,,,null,,,,
null,"<img src=""stim_listB/meet3.gif""</stim_listB>",,html-keyboard-response,87,359653,0.0-13.0-1.14,57633,List2B,white,woman,,,,null,,,,
null,is meeting,,html-keyboard-response,88,361665,0.0-13.0-2.14,57633,List2B,white,woman,,,,null,,,,
14227,,,survey-text,89,375894,0.0-13.0-3.14,57633,List2B,white,woman,,,,,"{""Q0"":""Kate & Mike""}","<img src=""stim_listB/meet3.gif""</stim_listB>",is meeting,
null,"<div style=""font-size:60px;"">+</div>",,html-keyboard-response,90,376406,0.0-13.0-0.15,57633,List2B,white,woman,,,,null,,,,
null,"<img src=""stim_listB/meet6.gif""</stim_listB>",,html-keyboard-response,91,378420,0.0-13.0-1.15,57633,List2B,white,woman,,,,null,,,,
null,are meeting each other,,html-keyboard-response,92,380422,0.0-13.0-2.15,57633,List2B,white,woman,,,,null,,,,
10781,,,survey-text,93,391205,0.0-13.0-3.15,57633,List2B,white,woman,,,,,"{""Q0"":""Dave and Fred are meeting each other""}","<img src=""stim_listB/meet6.gif""</stim_listB>",are meeting each other,
null,"<div style=""font-size:60px;"">+</div>",,html-keyboard-response,94,391707,0.0-13.0-0.16,57633,List2B,white,woman,,,,null,,,,
null,"<img src=""stim_listB/marry4.gif""</stim_listB>",,html-keyboard-response,95,393721,0.0-13.0-1.16,57633,List2B,white,woman,,,,null,,,,
null,are marrying each other,,html-keyboard-response,96,395725,0.0-13.0-2.16,57633,List2B,white,woman,,,,null,,,,
7943,,,survey-text,97,403670,0.0-13.0-3.16,57633,List2B,white,woman,,,,,"{""Q0"":""Kate + Fred are marrying each other""}","<img src=""stim_listB/marry4.gif""</stim_listB>",are marrying each other,
null,"<div style=""font-size:60px;"">+</div>",,html-keyboard-response,98,404172,0.0-13.0-0.17,57633,List2B,white,woman,,,,null,,,,
null,"<img src=""stim_listB/marry6.gif""</stim_listB>",,html-keyboard-response,99,406176,0.0-13.0-1.17,57633,List2B,white,woman,,,,null,,,,
null,are marrying each other,,html-keyboard-response,100,408178,0.0-13.0-2.17,57633,List2B,white,woman,,,,null,,,,
9801,,,survey-text,101,417981,0.0-13.0-3.17,57633,List2B,white,woman,,,,,"{""Q0"":""Luke + Mike are marrying each other""}","<img src=""stim_listB/marry6.gif""</stim_listB>",are marrying each other,
null,"<div style=""font-size:60px;"">+</div>",,html-keyboard-response,102,418491,0.0-13.0-0.18,57633,List2B,white,woman,,,,null,,,,
null,"<img src=""stim_listB/argue5.gif""</stim_listB>",,html-keyboard-response,103,420505,0.0-13.0-1.18,57633,List2B,white,woman,,,,null,,,,
null,is arguing with,,html-keyboard-response,104,422507,0.0-13.0-2.18,57633,List2B,white,woman,,,,null,,,,
7009,,,survey-text,105,429517,0.0-13.0-3.18,57633,List2B,white,woman,,,,,"{""Q0"":""Dave is arguing with Fred""}","<img src=""stim_listB/argue5.gif""</stim_listB>",is arguing with,
null,"<div style=""font-size:60px;"">+</div>",,html-keyboard-response,106,430028,0.0-13.0-0.19,57633,List2B,white,woman,,,,null,,,,
null,"<img src=""stim_listB/kiss3.gif""</stim_listB>",,html-keyboard-response,107,432034,0.0-13.0-1.19,57633,List2B,white,woman,,,,null,,,,
null,is kissing,,html-keyboard-response,108,434038,0.0-13.0-2.19,57633,List2B,white,woman,,,,null,,,,
6741,,,survey-text,109,440781,0.0-13.0-3.19,57633,List2B,white,woman,,,,,"{""Q0"":""Fred is kissing Beth""}","<img src=""stim_listB/kiss3.gif""</stim_listB>",is kissing,
14925,"<img src='img/portrait_matrix_list2.JPG' style='width:900px;height:500px;''></img><p>If you have memorised all the portraits and names and are ready to start, press Continue.</p><p><strong>Please note: Your memory of these faces will be tested 4 times during this experiment.</strong></p>",0,html-button-response,110,455709,0.0-14.0-0.0,57633,List2B,white,woman,,,,,,,,
4537,"<img src=""portrait/BM1.jpg""style=""width:400px;height:400px;""></img>",4,html-button-response,111,461251,0.0-14.0-1.0,57633,List2B,white,woman,,TRUE,4,,,,,
null,CORRECT,,html-keyboard-response,112,462784,0.0-14.0-2.0-0.0,57633,List2B,white,woman,,,,null,,,,
2573,"<img src=""portrait/WM2.jpg""style=""width:400px;height:400px;""></img>",7,html-button-response,113,465360,0.0-14.0-4.0,57633,List2B,white,woman,,TRUE,7,,,,,
null,CORRECT,,html-keyboard-response,114,466876,0.0-14.0-5.0-0.0,57633,List2B,white,woman,,,,null,,,,
3177,"<img src=""portrait/BW2.jpg""style=""width:400px;height:400px;""></img>",2,html-button-response,115,470056,0.0-14.0-7.0,57633,List2B,white,woman,,TRUE,2,,,,,
null,CORRECT,,html-keyboard-response,116,471574,0.0-14.0-8.0-0.0,57633,List2B,white,woman,,,,null,,,,
2454,"<img src=""portrait/WW1.jpg""style=""width:400px;height:400px;""></img>",1,html-button-response,117,474033,0.0-14.0-10.0,57633,List2B,white,woman,,TRUE,1,,,,,
null,CORRECT,,html-keyboard-response,118,475547,0.0-14.0-11.0-0.0,57633,List2B,white,woman,,,,null,,,,
2874,"<img src=""portrait/BM2.jpg""style=""width:400px;height:400px;""></img>",5,html-button-response,119,478424,0.0-14.0-13.0,57633,List2B,white,woman,,TRUE,5,,,,,
null,CORRECT,,html-keyboard-response,120,479937,0.0-14.0-14.0-0.0,57633,List2B,white,woman,,,,null,,,,
2579,"<img src=""portrait/BW1.jpg""style=""width:400px;height:400px;""></img>",0,html-button-response,121,482520,0.0-14.0-16.0,57633,List2B,white,woman,,TRUE,0,,,,,
null,CORRECT,,html-keyboard-response,122,484032,0.0-14.0-17.0-0.0,57633,List2B,white,woman,,,,null,,,,
3077,"<img src=""portrait/WM1.jpg""style=""width:400px;height:400px;""></img>",6,html-button-response,123,487112,0.0-14.0-19.0,57633,List2B,white,woman,,TRUE,6,,,,,
null,CORRECT,,html-keyboard-response,124,488617,0.0-14.0-20.0-0.0,57633,List2B,white,woman,,,,null,,,,
1603,"<img src=""portrait/WW2.jpg""style=""width:400px;height:400px;""></img>",3,html-button-response,125,490224,0.0-14.0-22.0,57633,List2B,white,woman,,TRUE,3,,,,,
null,CORRECT,,html-keyboard-response,126,491734,0.0-14.0-23.0-0.0,57633,List2B,white,woman,,,,null,,,,
1086,<p>You got 8 out of 8 right first time. Press Continue.</p>,0,html-button-response,127,492823,0.0-14.0-25.0,57633,List2B,white,woman,,,,,,,,
null,"<div style=""font-size:60px;"">+</div>",,html-keyboard-response,128,494338,0.0-15.0-0.0,57633,List2B,white,woman,,,,null,,,,
null,"<img src=""stim_listB/meet2.gif""</stim_listB>",,html-keyboard-response,129,496342,0.0-15.0-1.0,57633,List2B,white,woman,,,,null,,,,
null,are meeting each other,,html-keyboard-response,130,498350,0.0-15.0-2.0,57633,List2B,white,woman,,,,null,,,,
14183,,,survey-text,131,512535,0.0-15.0-3.0,57633,List2B,white,woman,,,,,"{""Q0"":""Luke + Ruth are meeting each other""}","<img src=""stim_listB/meet2.gif""</stim_listB>",are meeting each other,
null,"<div style=""font-size:60px;"">+</div>",,html-keyboard-response,132,513037,0.0-15.0-0.1,57633,List2B,white,woman,,,,null,,,,
null,"<img src=""stim_listB/meet7.gif""</stim_listB>",,html-keyboard-response,133,515040,0.0-15.0-1.1,57633,List2B,white,woman,,,,null,,,,
null,is meeting,,html-keyboard-response,134,517044,0.0-15.0-2.1,57633,List2B,white,woman,,,,null,,,,
9582,,,survey-text,135,526628,0.0-15.0-3.1,57633,List2B,white,woman,,,,,"{""Q0"":""Kate and Jane are greeting each other""}","<img src=""stim_listB/meet7.gif""</stim_listB>",is meeting,
null,"<div style=""font-size:60px;"">+</div>",,html-keyboard-response,136,527130,0.0-15.0-0.2,57633,List2B,white,woman,,,,null,,,,
null,"<img src=""stim_listB/fight7.gif""</stim_listB>",,html-keyboard-response,137,529144,0.0-15.0-1.2,57633,List2B,white,woman,,,,null,,,,
null,is fighting,,html-keyboard-response,138,531146,0.0-15.0-2.2,57633,List2B,white,woman,,,,null,,,,
8064,,,survey-text,139,539212,0.0-15.0-3.2,57633,List2B,white,woman,,,,,"{""Q0"":""Kate & Jane are fighting""}","<img src=""stim_listB/fight7.gif""</stim_listB>",is fighting,
null,"<div style=""font-size:60px;"">+</div>",,html-keyboard-response,140,539727,0.0-15.0-0.3,57633,List2B,white,woman,,,,null,,,,
null,"<img src=""stim_listB/touch8.gif""</stim_listB>",,html-keyboard-response,141,541742,0.0-15.0-1.3,57633,List2B,white,woman,,,,null,,,,
null,are touching each other,,html-keyboard-response,142,543755,0.0-15.0-2.3,57633,List2B,white,woman,,,,null,,,,
8638,,,survey-text,143,552395,0.0-15.0-3.3,57633,List2B,white,woman,,,,,"{""Q0"":""Ruth + Beth are touching each other""}","<img src=""stim_listB/touch8.gif""</stim_listB>",are touching each other,
null,"<div style=""font-size:60px;"">+</div>",,html-keyboard-response,144,552907,0.0-15.0-0.4,57633,List2B,white,woman,,,,null,,,,
null,"<img src=""stim_listB/fight8.gif""</stim_listB>",,html-keyboard-response,145,554917,0.0-15.0-1.4,57633,List2B,white,woman,,,,null,,,,
null,are fighting each other,,html-keyboard-response,146,556922,0.0-15.0-2.4,57633,List2B,white,woman,,,,null,,,,
9832,,,survey-text,147,566754,0.0-15.0-3.4,57633,List2B,white,woman,,,,,"{""Q0"":""Ruth + Beth are fighting each other""}","<img src=""stim_listB/fight8.gif""</stim_listB>",are fighting each other,
null,"<div style=""font-size:60px;"">+</div>",,html-keyboard-response,148,567255,0.0-15.0-0.5,57633,List2B,white,woman,,,,null,,,,
null,"<img src=""stim_listB/talk1.gif""</stim_listB>",,html-keyboard-response,149,569259,0.0-15.0-1.5,57633,List2B,white,woman,,,,null,,,,
null,is talking to,,html-keyboard-response,150,571274,0.0-15.0-2.5,57633,List2B,white,woman,,,,null,,,,
6680,,,survey-text,151,577955,0.0-15.0-3.5,57633,List2B,white,woman,,,,,"{""Q0"":""Luke is talking to Jane""}","<img src=""stim_listB/talk1.gif""</stim_listB>",is talking to,
null,"<div style=""font-size:60px;"">+</div>",,html-keyboard-response,152,578469,0.0-15.0-0.6,57633,List2B,white,woman,,,,null,,,,
null,"<img src=""stim_listB/hug3.gif""</stim_listB>",,html-keyboard-response,153,580477,0.0-15.0-1.6,57633,List2B,white,woman,,,,null,,,,
null,is hugging,,html-keyboard-response,154,582479,0.0-15.0-2.6,57633,List2B,white,woman,,,,null,,,,
6588,,,survey-text,155,589069,0.0-15.0-3.6,57633,List2B,white,woman,,,,,"{""Q0"":""Beth is hugging Fred""}","<img src=""stim_listB/hug3.gif""</stim_listB>",is hugging,
null,"<div style=""font-size:60px;"">+</div>",,html-keyboard-response,156,589585,0.0-15.0-0.7,57633,List2B,white,woman,,,,null,,,,
null,"<img src=""stim_listB/dance3.gif""</stim_listB>",,html-keyboard-response,157,591588,0.0-15.0-1.7,57633,List2B,white,woman,,,,null,,,,
null,is dancing with,,html-keyboard-response,158,593590,0.0-15.0-2.7,57633,List2B,white,woman,,,,null,,,,
7045,,,survey-text,159,600637,0.0-15.0-3.7,57633,List2B,white,woman,,,,,"{""Q0"":""Fred is dancing with Kate""}","<img src=""stim_listB/dance3.gif""</stim_listB>",is dancing with,
null,"<div style=""font-size:60px;"">+</div>",,html-keyboard-response,160,601141,0.0-15.0-0.8,57633,List2B,white,woman,,,,null,,,,
null,"<img src=""stim_listB/dance4.gif""</stim_listB>",,html-keyboard-response,161,603154,0.0-15.0-1.8,57633,List2B,white,woman,,,,null,,,,
null,are dancing with each other,,html-keyboard-response,162,605166,0.0-15.0-2.8,57633,List2B,white,woman,,,,null,,,,
9890,,,survey-text,163,615060,0.0-15.0-3.8,57633,List2B,white,woman,,,,,"{""Q0"":""Beth and Mike are dancing with each other""}","<img src=""stim_listB/dance4.gif""</stim_listB>",are dancing with each other,
null,"<div style=""font-size:60px;"">+</div>",,html-keyboard-response,164,615575,0.0-15.0-0.9,57633,List2B,white,woman,,,,null,,,,
null,"<img src=""stim_listB/touch2.gif""</stim_listB>",,html-keyboard-response,165,617578,0.0-15.0-1.9,57633,List2B,white,woman,,,,null,,,,
null,are touching each other,,html-keyboard-response,166,619590,0.0-15.0-2.9,57633,List2B,white,woman,,,,null,,,,
9708,,,survey-text,167,629300,0.0-15.0-3.9,57633,List2B,white,woman,,,,,"{""Q0"":""Luke and Ruth are touching each other""}","<img src=""stim_listB/touch2.gif""</stim_listB>",are touching each other,
null,"<div style=""font-size:60px;"">+</div>",,html-keyboard-response,168,629802,0.0-15.0-0.10,57633,List2B,white,woman,,,,null,,,,
null,"<img src=""stim_listB/shout4.gif""</stim_listB>",,html-keyboard-response,169,631810,0.0-15.0-1.10,57633,List2B,white,woman,,,,null,,,,
null,are shouting at each other,,html-keyboard-response,170,633811,0.0-15.0-2.10,57633,List2B,white,woman,,,,null,,,,
10998,,,survey-text,171,644810,0.0-15.0-3.10,57633,List2B,white,woman,,,,,"{""Q0"":""Kate and Mike are shouting at each other""}","<img src=""stim_listB/shout4.gif""</stim_listB>",are shouting at each other,
null,"<div style=""font-size:60px;"">+</div>",,html-keyboard-response,172,645318,0.0-15.0-0.11,57633,List2B,white,woman,,,,null,,,,
null,"<img src=""stim_listB/marry1.gif""</stim_listB>",,html-keyboard-response,173,647325,0.0-15.0-1.11,57633,List2B,white,woman,,,,null,,,,
null,is marrying,,html-keyboard-response,174,649332,0.0-15.0-2.11,57633,List2B,white,woman,,,,null,,,,
7692,,,survey-text,175,657026,0.0-15.0-3.11,57633,List2B,white,woman,,,,,"{""Q0"":""Ruth is marrying Dave""}","<img src=""stim_listB/marry1.gif""</stim_listB>",is marrying,
null,"<div style=""font-size:60px;"">+</div>",,html-keyboard-response,176,657536,0.0-15.0-0.12,57633,List2B,white,woman,,,,null,,,,
null,"<img src=""stim_listB/talk4.gif""</stim_listB>",,html-keyboard-response,177,659541,0.0-15.0-1.12,57633,List2B,white,woman,,,,null,,,,
null,are talking to each other,,html-keyboard-response,178,661542,0.0-15.0-2.12,57633,List2B,white,woman,,,,null,,,,
8874,,,survey-text,179,670418,0.0-15.0-3.12,57633,List2B,white,woman,,,,,"{""Q0"":""Beth and Mike are talking to each other""}","<img src=""stim_listB/talk4.gif""</stim_listB>",are talking to each other,
null,"<div style=""font-size:60px;"">+</div>",,html-keyboard-response,180,670923,0.0-15.0-0.13,57633,List2B,white,woman,,,,null,,,,
null,"<img src=""stim_listB/marry7.gif""</stim_listB>",,html-keyboard-response,181,672935,0.0-15.0-1.13,57633,List2B,white,woman,,,,null,,,,
null,is marrying,,html-keyboard-response,182,674940,0.0-15.0-2.13,57633,List2B,white,woman,,,,null,,,,
10956,,,survey-text,183,685898,0.0-15.0-3.13,57633,List2B,white,woman,,,,,"{""Q0"":""Jane is marrying Beth ""}","<img src=""stim_listB/marry7.gif""</stim_listB>",is marrying,
null,"<div style=""font-size:60px;"">+</div>",,html-keyboard-response,184,686411,0.0-15.0-0.14,57633,List2B,white,woman,,,,null,,,,
null,"<img src=""stim_listB/kiss7.gif""</stim_listB>",,html-keyboard-response,185,688414,0.0-15.0-1.14,57633,List2B,white,woman,,,,null,,,,
null,is kissing,,html-keyboard-response,186,690430,0.0-15.0-2.14,57633,List2B,white,woman,,,,null,,,,
7666,,,survey-text,187,698099,0.0-15.0-3.14,57633,List2B,white,woman,,,,,"{""Q0"":""Ruth is kissing Beth""}","<img src=""stim_listB/kiss7.gif""</stim_listB>",is kissing,
null,"<div style=""font-size:60px;"">+</div>",,html-keyboard-response,188,698605,0.0-15.0-0.15,57633,List2B,white,woman,,,,null,,,,
null,"<img src=""stim_listB/kiss8.gif""</stim_listB>",,html-keyboard-response,189,700609,0.0-15.0-1.15,57633,List2B,white,woman,,,,null,,,,
null,are kissing each other,,html-keyboard-response,190,702620,0.0-15.0-2.15,57633,List2B,white,woman,,,,null,,,,
10442,,,survey-text,191,713064,0.0-15.0-3.15,57633,List2B,white,woman,,,,,"{""Q0"":""Kate and Jane are kissing each other""}","<img src=""stim_listB/kiss8.gif""</stim_listB>",are kissing each other,
null,"<div style=""font-size:60px;"">+</div>",,html-keyboard-response,192,713573,0.0-15.0-0.16,57633,List2B,white,woman,,,,null,,,,
null,"<img src=""stim_listB/fight2.gif""</stim_listB>",,html-keyboard-response,193,715587,0.0-15.0-1.16,57633,List2B,white,woman,,,,null,,,,
null,are fighting each other,,html-keyboard-response,194,717594,0.0-15.0-2.16,57633,List2B,white,woman,,,,null,,,,
9204,,,survey-text,195,726800,0.0-15.0-3.16,57633,List2B,white,woman,,,,,"{""Q0"":""Ruth and Luke are fighting each other""}","<img src=""stim_listB/fight2.gif""</stim_listB>",are fighting each other,
null,"<div style=""font-size:60px;"">+</div>",,html-keyboard-response,196,727303,0.0-15.0-0.17,57633,List2B,white,woman,,,,null,,,,
null,"<img src=""stim_listB/talk3.gif""</stim_listB>",,html-keyboard-response,197,729314,0.0-15.0-1.17,57633,List2B,white,woman,,,,null,,,,
null,is talking to,,html-keyboard-response,198,731328,0.0-15.0-2.17,57633,List2B,white,woman,,,,null,,,,
9311,,,survey-text,199,740640,0.0-15.0-3.17,57633,List2B,white,woman,,,,,"{""Q0"":""Fred is talking to Kate""}","<img src=""stim_listB/talk3.gif""</stim_listB>",is talking to,
null,"<div style=""font-size:60px;"">+</div>",,html-keyboard-response,200,741155,0.0-15.0-0.18,57633,List2B,white,woman,,,,null,,,,
null,"<img src=""stim_listB/kiss6.gif""</stim_listB>",,html-keyboard-response,201,743157,0.0-15.0-1.18,57633,List2B,white,woman,,,,null,,,,
null,are kissing each other,,html-keyboard-response,202,745161,0.0-15.0-2.18,57633,List2B,white,woman,,,,null,,,,
8068,,,survey-text,203,753231,0.0-15.0-3.18,57633,List2B,white,woman,,,,,"{""Q0"":""Dave and Mike are kissing each other""}","<img src=""stim_listB/kiss6.gif""</stim_listB>",are kissing each other,
null,"<div style=""font-size:60px;"">+</div>",,html-keyboard-response,204,753737,0.0-15.0-0.19,57633,List2B,white,woman,,,,null,,,,
null,"<img src=""stim_listB/touch6.gif""</stim_listB>",,html-keyboard-response,205,755755,0.0-15.0-1.19,57633,List2B,white,woman,,,,null,,,,
null,are touching each other,,html-keyboard-response,206,757767,0.0-15.0-2.19,57633,List2B,white,woman,,,,null,,,,
7926,,,survey-text,207,765695,0.0-15.0-3.19,57633,List2B,white,woman,,,,,"{""Q0"":""Luke and Fred are touching each other""}","<img src=""stim_listB/touch6.gif""</stim_listB>",are touching each other,
10669,"<img src='img/portrait_matrix_list2.JPG' style='width:900px;height:500px;''></img><p>If you have memorised all the portraits and names and are ready to start, press Continue.</p><p><strong>Please note: Your memory of these faces will be tested 4 times during this experiment.</strong></p>",0,html-button-response,208,776368,0.0-16.0-0.0,57633,List2B,white,woman,,,,,,,,
4660,"<img src=""portrait/BM2.jpg""style=""width:400px;height:400px;""></img>",5,html-button-response,209,782032,0.0-16.0-1.0,57633,List2B,white,woman,,TRUE,5,,,,,
null,CORRECT,,html-keyboard-response,210,783546,0.0-16.0-2.0-0.0,57633,List2B,white,woman,,,,null,,,,
4810,"<img src=""portrait/BM1.jpg""style=""width:400px;height:400px;""></img>",4,html-button-response,211,788359,0.0-16.0-4.0,57633,List2B,white,woman,,TRUE,4,,,,,
null,CORRECT,,html-keyboard-response,212,789877,0.0-16.0-5.0-0.0,57633,List2B,white,woman,,,,null,,,,
2368,"<img src=""portrait/WW2.jpg""style=""width:400px;height:400px;""></img>",3,html-button-response,213,792247,0.0-16.0-7.0,57633,List2B,white,woman,,TRUE,3,,,,,
null,CORRECT,,html-keyboard-response,214,793775,0.0-16.0-8.0-0.0,57633,List2B,white,woman,,,,null,,,,
5422,"<img src=""portrait/WM1.jpg""style=""width:400px;height:400px;""></img>",6,html-button-response,215,799200,0.0-16.0-10.0,57633,List2B,white,woman,,TRUE,6,,,,,
null,CORRECT,,html-keyboard-response,216,800714,0.0-16.0-11.0-0.0,57633,List2B,white,woman,,,,null,,,,
3000,"<img src=""portrait/BW1.jpg""style=""width:400px;height:400px;""></img>",0,html-button-response,217,803719,0.0-16.0-13.0,57633,List2B,white,woman,,TRUE,0,,,,,
null,CORRECT,,html-keyboard-response,218,805237,0.0-16.0-14.0-0.0,57633,List2B,white,woman,,,,null,,,,
4846,"<img src=""portrait/BW2.jpg""style=""width:400px;height:400px;""></img>",2,html-button-response,219,810086,0.0-16.0-16.0,57633,List2B,white,woman,,TRUE,2,,,,,
null,CORRECT,,html-keyboard-response,220,811605,0.0-16.0-17.0-0.0,57633,List2B,white,woman,,,,null,,,,
4094,"<img src=""portrait/WW1.jpg""style=""width:400px;height:400px;""></img>",1,html-button-response,221,815703,0.0-16.0-19.0,57633,List2B,white,woman,,TRUE,1,,,,,
null,CORRECT,,html-keyboard-response,222,817218,0.0-16.0-20.0-0.0,57633,List2B,white,woman,,,,null,,,,
2186,"<img src=""portrait/WM2.jpg""style=""width:400px;height:400px;""></img>",7,html-button-response,223,819408,0.0-16.0-22.0,57633,List2B,white,woman,,TRUE,7,,,,,
null,CORRECT,,html-keyboard-response,224,820917,0.0-16.0-23.0-0.0,57633,List2B,white,woman,,,,null,,,,
1535,<p>You got 8 out of 8 right first time. Press Continue.</p>,0,html-button-response,225,822455,0.0-16.0-25.0,57633,List2B,white,woman,,,,,,,,
null,"<div style=""font-size:60px;"">+</div>",,html-keyboard-response,226,823972,0.0-17.0-0.0,57633,List2B,white,woman,,,,null,,,,
null,"<img src=""stim_listB/touch1.gif""</stim_listB>",,html-keyboard-response,227,825997,0.0-17.0-1.0,57633,List2B,white,woman,,,,null,,,,
null,is touching,,html-keyboard-response,228,827999,0.0-17.0-2.0,57633,List2B,white,woman,,,,null,,,,
5455,,,survey-text,229,833456,0.0-17.0-3.0,57633,List2B,white,woman,,,,,"{""Q0"":""Jane is touching Dave""}","<img src=""stim_listB/touch1.gif""</stim_listB>",is touching,
null,"<div style=""font-size:60px;"">+</div>",,html-keyboard-response,230,833958,0.0-17.0-0.1,57633,List2B,white,woman,,,,null,,,,
null,"<img src=""stim_listB/shout5.gif""</stim_listB>",,html-keyboard-response,231,835960,0.0-17.0-1.1,57633,List2B,white,woman,,,,null,,,,
null,is shouting at,,html-keyboard-response,232,837975,0.0-17.0-2.1,57633,List2B,white,woman,,,,null,,,,
7766,,,survey-text,233,845743,0.0-17.0-3.1,57633,List2B,white,woman,,,,,"{""Q0"":""Luke is shouting at Fred""}","<img src=""stim_listB/shout5.gif""</stim_listB>",is shouting at,
null,"<div style=""font-size:60px;"">+</div>",,html-keyboard-response,234,846256,0.0-17.0-0.2,57633,List2B,white,woman,,,,null,,,,
null,"<img src=""stim_listB/argue7.gif""</stim_listB>",,html-keyboard-response,235,848261,0.0-17.0-1.2,57633,List2B,white,woman,,,,null,,,,
null,is arguing with,,html-keyboard-response,236,850263,0.0-17.0-2.2,57633,List2B,white,woman,,,,null,,,,
8398,,,survey-text,237,858663,0.0-17.0-3.2,57633,List2B,white,woman,,,,,"{""Q0"":""Jane is arguing with Beth""}","<img src=""stim_listB/argue7.gif""</stim_listB>",is arguing with,
null,"<div style=""font-size:60px;"">+</div>",,html-keyboard-response,238,859167,0.0-17.0-0.3,57633,List2B,white,woman,,,,null,,,,
null,"<img src=""stim_listB/shout3.gif""</stim_listB>",,html-keyboard-response,239,861174,0.0-17.0-1.3,57633,List2B,white,woman,,,,null,,,,
null,is shouting at,,html-keyboard-response,240,863184,0.0-17.0-2.3,57633,List2B,white,woman,,,,null,,,,
6061,,,survey-text,241,869247,0.0-17.0-3.3,57633,List2B,white,woman,,,,,"{""Q0"":""Fred is shouting at Beth""}","<img src=""stim_listB/shout3.gif""</stim_listB>",is shouting at,
null,"<div style=""font-size:60px;"">+</div>",,html-keyboard-response,242,869762,0.0-17.0-0.4,57633,List2B,white,woman,,,,null,,,,
null,"<img src=""stim_listB/fight1.gif""</stim_listB>",,html-keyboard-response,243,871768,0.0-17.0-1.4,57633,List2B,white,woman,,,,null,,,,
null,is fighting,,html-keyboard-response,244,873773,0.0-17.0-2.4,57633,List2B,white,woman,,,,null,,,,
6592,,,survey-text,245,880370,0.0-17.0-3.4,57633,List2B,white,woman,,,,,"{""Q0"":""Jane is fighting Dave""}","<img src=""stim_listB/fight1.gif""</stim_listB>",is fighting,
null,"<div style=""font-size:60px;"">+</div>",,html-keyboard-response,246,880873,0.0-17.0-0.5,57633,List2B,white,woman,,,,null,,,,
null,"<img src=""stim_listB/argue1.gif""</stim_listB>",,html-keyboard-response,247,882879,0.0-17.0-1.5,57633,List2B,white,woman,,,,null,,,,
null,is arguing with,,html-keyboard-response,248,884880,0.0-17.0-2.5,57633,List2B,white,woman,,,,null,,,,
6886,,,survey-text,249,891768,0.0-17.0-3.5,57633,List2B,white,woman,,,,,"{""Q0"":""Dave is arguing with Ruth""}","<img src=""stim_listB/argue1.gif""</stim_listB>",is arguing with,
null,"<div style=""font-size:60px;"">+</div>",,html-keyboard-response,250,892270,0.0-17.0-0.6,57633,List2B,white,woman,,,,null,,,,
null,"<img src=""stim_listB/hug6.gif""</stim_listB>",,html-keyboard-response,251,894282,0.0-17.0-1.6,57633,List2B,white,woman,,,,null,,,,
null,are hugging each other,,html-keyboard-response,252,896284,0.0-17.0-2.6,57633,List2B,white,woman,,,,null,,,,
9882,,,survey-text,253,906168,0.0-17.0-3.6,57633,List2B,white,woman,,,,,"{""Q0"":""Dave and Mike are hugging each other""}","<img src=""stim_listB/hug6.gif""</stim_listB>",are hugging each other,
null,"<div style=""font-size:60px;"">+</div>",,html-keyboard-response,254,906682,0.0-17.0-0.7,57633,List2B,white,woman,,,,null,,,,
null,"<img src=""stim_listB/argue4.gif""</stim_listB>",,html-keyboard-response,255,908685,0.0-17.0-1.7,57633,List2B,white,woman,,,,null,,,,
null,are arguing with each other,,html-keyboard-response,256,910687,0.0-17.0-2.7,57633,List2B,white,woman,,,,null,,,,
8582,,,survey-text,257,919271,0.0-17.0-3.7,57633,List2B,white,woman,,,,,"{""Q0"":""Kate and Fred are arguing ""}","<img src=""stim_listB/argue4.gif""</stim_listB>",are arguing with each other,
null,"<div style=""font-size:60px;"">+</div>",,html-keyboard-response,258,919774,0.0-17.0-0.8,57633,List2B,white,woman,,,,null,,,,
null,"<img src=""stim_listB/marry3.gif""</stim_listB>",,html-keyboard-response,259,921783,0.0-17.0-1.8,57633,List2B,white,woman,,,,null,,,,
null,is marrying,,html-keyboard-response,260,923791,0.0-17.0-2.8,57633,List2B,white,woman,,,,null,,,,
5644,,,survey-text,261,929439,0.0-17.0-3.8,57633,List2B,white,woman,,,,,"{""Q0"":""Mike is marrying Beth""}","<img src=""stim_listB/marry3.gif""</stim_listB>",is marrying,
null,"<div style=""font-size:60px;"">+</div>",,html-keyboard-response,262,929954,0.0-17.0-0.9,57633,List2B,white,woman,,,,null,,,,
null,"<img src=""stim_listB/shout8.gif""</stim_listB>",,html-keyboard-response,263,931967,0.0-17.0-1.9,57633,List2B,white,woman,,,,null,,,,
null,are shouting at each other,,html-keyboard-response,264,933969,0.0-17.0-2.9,57633,List2B,white,woman,,,,null,,,,
10028,,,survey-text,265,943998,0.0-17.0-3.9,57633,List2B,white,woman,,,,,"{""Q0"":""Jane and Kate are shouting at each other""}","<img src=""stim_listB/shout8.gif""</stim_listB>",are shouting at each other,
null,"<div style=""font-size:60px;"">+</div>",,html-keyboard-response,266,944503,0.0-17.0-0.10,57633,List2B,white,woman,,,,null,,,,
null,"<img src=""stim_listB/dance8.gif""</stim_listB>",,html-keyboard-response,267,946508,0.0-17.0-1.10,57633,List2B,white,woman,,,,null,,,,
null,are dancing with each other,,html-keyboard-response,268,948516,0.0-17.0-2.10,57633,List2B,white,woman,,,,null,,,,
8673,,,survey-text,269,957191,0.0-17.0-3.10,57633,List2B,white,woman,,,,,"{""Q0"":""Jane & Beth are dancing together""}","<img src=""stim_listB/dance8.gif""</stim_listB>",are dancing with each other,
null,"<div style=""font-size:60px;"">+</div>",,html-keyboard-response,270,957692,0.0-17.0-0.11,57633,List2B,white,woman,,,,null,,,,
null,"<img src=""stim_listB/marry8.gif""</stim_listB>",,html-keyboard-response,271,959704,0.0-17.0-1.11,57633,List2B,white,woman,,,,null,,,,
null,are marrying each other,,html-keyboard-response,272,961705,0.0-17.0-2.11,57633,List2B,white,woman,,,,null,,,,
8995,,,survey-text,273,970702,0.0-17.0-3.11,57633,List2B,white,woman,,,,,"{""Q0"":""Ruth and Kate are marrying each other""}","<img src=""stim_listB/marry8.gif""</stim_listB>",are marrying each other,
null,"<div style=""font-size:60px;"">+</div>",,html-keyboard-response,274,971205,0.0-17.0-0.12,57633,List2B,white,woman,,,,null,,,,
null,"<img src=""stim_listB/kiss5.gif""</stim_listB>",,html-keyboard-response,275,973216,0.0-17.0-1.12,57633,List2B,white,woman,,,,null,,,,
null,is kissing,,html-keyboard-response,276,975232,0.0-17.0-2.12,57633,List2B,white,woman,,,,null,,,,
6964,,,survey-text,277,982198,0.0-17.0-3.12,57633,List2B,white,woman,,,,,"{""Q0"":""Luke is kissing Fred""}","<img src=""stim_listB/kiss5.gif""</stim_listB>",is kissing,
null,"<div style=""font-size:60px;"">+</div>",,html-keyboard-response,278,982707,0.0-17.0-0.13,57633,List2B,white,woman,,,,null,,,,
null,"<img src=""stim_listB/kiss2.gif""</stim_listB>",,html-keyboard-response,279,984711,0.0-17.0-1.13,57633,List2B,white,woman,,,,null,,,,
null,are kissing each other,,html-keyboard-response,280,986724,0.0-17.0-2.13,57633,List2B,white,woman,,,,null,,,,
8888,,,survey-text,281,995615,0.0-17.0-3.13,57633,List2B,white,woman,,,,,"{""Q0"":""Dave and Jane are kissing ""}","<img src=""stim_listB/kiss2.gif""</stim_listB>",are kissing each other,
null,"<div style=""font-size:60px;"">+</div>",,html-keyboard-response,282,996124,0.0-17.0-0.14,57633,List2B,white,woman,,,,null,,,,
null,"<img src=""stim_listB/talk2.gif""</stim_listB>",,html-keyboard-response,283,998128,0.0-17.0-1.14,57633,List2B,white,woman,,,,null,,,,
null,are talking to each other,,html-keyboard-response,284,1000129,0.0-17.0-2.14,57633,List2B,white,woman,,,,null,,,,
7720,,,survey-text,285,1007851,0.0-17.0-3.14,57633,List2B,white,woman,,,,,"{""Q0"":""Ruth and Dave are talking together""}","<img src=""stim_listB/talk2.gif""</stim_listB>",are talking to each other,
null,"<div style=""font-size:60px;"">+</div>",,html-keyboard-response,286,1008356,0.0-17.0-0.15,57633,List2B,white,woman,,,,null,,,,
null,"<img src=""stim_listB/marry5.gif""</stim_listB>",,html-keyboard-response,287,1010357,0.0-17.0-1.15,57633,List2B,white,woman,,,,null,,,,
null,is marrying,,html-keyboard-response,288,1012359,0.0-17.0-2.15,57633,List2B,white,woman,,,,null,,,,
6738,,,survey-text,289,1019099,0.0-17.0-3.15,57633,List2B,white,woman,,,,,"{""Q0"":""Dave is marrying Fred""}","<img src=""stim_listB/marry5.gif""</stim_listB>",is marrying,
null,"<div style=""font-size:60px;"">+</div>",,html-keyboard-response,290,1019605,0.0-17.0-0.16,57633,List2B,white,woman,,,,null,,,,
null,"<img src=""stim_listB/meet4.gif""</stim_listB>",,html-keyboard-response,291,1021608,0.0-17.0-1.16,57633,List2B,white,woman,,,,null,,,,
null,are meeting each other,,html-keyboard-response,292,1023610,0.0-17.0-2.16,57633,List2B,white,woman,,,,null,,,,
11239,,,survey-text,293,1034851,0.0-17.0-3.16,57633,List2B,white,woman,,,,,"{""Q0"":""Fred and Beth are greeting each other""}","<img src=""stim_listB/meet4.gif""</stim_listB>",are meeting each other,
null,"<div style=""font-size:60px;"">+</div>",,html-keyboard-response,294,1035356,0.0-17.0-0.17,57633,List2B,white,woman,,,,null,,,,
null,"<img src=""stim_listB/hug4.gif""</stim_listB>",,html-keyboard-response,295,1037365,0.0-17.0-1.17,57633,List2B,white,woman,,,,null,,,,
null,are hugging each other,,html-keyboard-response,296,1039366,0.0-17.0-2.17,57633,List2B,white,woman,,,,null,,,,
7322,,,survey-text,297,1046690,0.0-17.0-3.17,57633,List2B,white,woman,,,,,"{""Q0"":""Kate and Mike are hugging each other""}","<img src=""stim_listB/hug4.gif""</stim_listB>",are hugging each other,
null,"<div style=""font-size:60px;"">+</div>",,html-keyboard-response,298,1047195,0.0-17.0-0.18,57633,List2B,white,woman,,,,null,,,,
null,"<img src=""stim_listB/hug7.gif""</stim_listB>",,html-keyboard-response,299,1049198,0.0-17.0-1.18,57633,List2B,white,woman,,,,null,,,,
null,is hugging,,html-keyboard-response,300,1051200,0.0-17.0-2.18,57633,List2B,white,woman,,,,null,,,,
6672,,,survey-text,301,1057874,0.0-17.0-3.18,57633,List2B,white,woman,,,,,"{""Q0"":""Beth is hugging ruth""}","<img src=""stim_listB/hug7.gif""</stim_listB>",is hugging,
null,"<div style=""font-size:60px;"">+</div>",,html-keyboard-response,302,1058376,0.0-17.0-0.19,57633,List2B,white,woman,,,,null,,,,
null,"<img src=""stim_listB/touch5.gif""</stim_listB>",,html-keyboard-response,303,1060392,0.0-17.0-1.19,57633,List2B,white,woman,,,,null,,,,
null,is touching,,html-keyboard-response,304,1062407,0.0-17.0-2.19,57633,List2B,white,woman,,,,null,,,,
8666,,,survey-text,305,1071075,0.0-17.0-3.19,57633,List2B,white,woman,,,,,"{""Q0"":""Dave is touching Mike""}","<img src=""stim_listB/touch5.gif""</stim_listB>",is touching,
12043,"<img src='img/portrait_matrix_list2.JPG' style='width:900px;height:500px;''></img><p>If you have memorised all the portraits and names and are ready to start, press Continue.</p><p><strong>Please note: Your memory of these faces will be tested 4 times during this experiment.</strong></p>",0,html-button-response,306,1083123,0.0-18.0-0.0,57633,List2B,white,woman,,,,,,,,
3195,"<img src=""portrait/WM1.jpg""style=""width:400px;height:400px;""></img>",6,html-button-response,307,1087332,0.0-18.0-1.0,57633,List2B,white,woman,,TRUE,6,,,,,
null,CORRECT,,html-keyboard-response,308,1088846,0.0-18.0-2.0-0.0,57633,List2B,white,woman,,,,null,,,,
2443,"<img src=""portrait/BM2.jpg""style=""width:400px;height:400px;""></img>",5,html-button-response,309,1091292,0.0-18.0-4.0,57633,List2B,white,woman,,TRUE,5,,,,,
null,CORRECT,,html-keyboard-response,310,1092808,0.0-18.0-5.0-0.0,57633,List2B,white,woman,,,,null,,,,
1689,"<img src=""portrait/BM1.jpg""style=""width:400px;height:400px;""></img>",4,html-button-response,311,1094500,0.0-18.0-7.0,57633,List2B,white,woman,,TRUE,4,,,,,
null,CORRECT,,html-keyboard-response,312,1096024,0.0-18.0-8.0-0.0,57633,List2B,white,woman,,,,null,,,,
1617,"<img src=""portrait/WM2.jpg""style=""width:400px;height:400px;""></img>",7,html-button-response,313,1097643,0.0-18.0-10.0,57633,List2B,white,woman,,TRUE,7,,,,,
null,CORRECT,,html-keyboard-response,314,1099170,0.0-18.0-11.0-0.0,57633,List2B,white,woman,,,,null,,,,
4543,"<img src=""portrait/BW2.jpg""style=""width:400px;height:400px;""></img>",2,html-button-response,315,1103715,0.0-18.0-13.0,57633,List2B,white,woman,,TRUE,2,,,,,
null,CORRECT,,html-keyboard-response,316,1105221,0.0-18.0-14.0-0.0,57633,List2B,white,woman,,,,null,,,,
1635,"<img src=""portrait/BW1.jpg""style=""width:400px;height:400px;""></img>",0,html-button-response,317,1106859,0.0-18.0-16.0,57633,List2B,white,woman,,TRUE,0,,,,,
null,CORRECT,,html-keyboard-response,318,1108367,0.0-18.0-17.0-0.0,57633,List2B,white,woman,,,,null,,,,
1531,"<img src=""portrait/WW2.jpg""style=""width:400px;height:400px;""></img>",3,html-button-response,319,1109899,0.0-18.0-19.0,57633,List2B,white,woman,,TRUE,3,,,,,
null,CORRECT,,html-keyboard-response,320,1111407,0.0-18.0-20.0-0.0,57633,List2B,white,woman,,,,null,,,,
1041,"<img src=""portrait/WW1.jpg""style=""width:400px;height:400px;""></img>",1,html-button-response,321,1112451,0.0-18.0-22.0,57633,List2B,white,woman,,TRUE,1,,,,,
null,CORRECT,,html-keyboard-response,322,1113967,0.0-18.0-23.0-0.0,57633,List2B,white,woman,,,,null,,,,
776,<p>You got 8 out of 8 right first time. Press Continue.</p>,0,html-button-response,323,1114746,0.0-18.0-25.0,57633,List2B,white,woman,,,,,,,,
null,"<div style=""font-size:60px;"">+</div>",,html-keyboard-response,324,1116250,0.0-19.0-0.0,57633,List2B,white,woman,,,,null,,,,
null,"<img src=""stim_listB/argue6.gif""</stim_listB>",,html-keyboard-response,325,1118258,0.0-19.0-1.0,57633,List2B,white,woman,,,,null,,,,
null,are arguing with each other,,html-keyboard-response,326,1120260,0.0-19.0-2.0,57633,List2B,white,woman,,,,null,,,,
11276,,,survey-text,327,1131538,0.0-19.0-3.0,57633,List2B,white,woman,,,,,"{""Q0"":""Luke and Mike are arguing with each other""}","<img src=""stim_listB/argue6.gif""</stim_listB>",are arguing with each other,
null,"<div style=""font-size:60px;"">+</div>",,html-keyboard-response,328,1132051,0.0-19.0-0.1,57633,List2B,white,woman,,,,null,,,,
null,"<img src=""stim_listB/dance5.gif""</stim_listB>",,html-keyboard-response,329,1134066,0.0-19.0-1.1,57633,List2B,white,woman,,,,null,,,,
null,is dancing with,,html-keyboard-response,330,1136073,0.0-19.0-2.1,57633,List2B,white,woman,,,,null,,,,
5247,,,survey-text,331,1141322,0.0-19.0-3.1,57633,List2B,white,woman,,,,,"{""Q0"":""Luke is dancing with Mike""}","<img src=""stim_listB/dance5.gif""</stim_listB>",is dancing with,
null,"<div style=""font-size:60px;"">+</div>",,html-keyboard-response,332,1141824,0.0-19.0-0.2,57633,List2B,white,woman,,,,null,,,,
null,"<img src=""stim_listB/hug1.gif""</stim_listB>",,html-keyboard-response,333,1143830,0.0-19.0-1.2,57633,List2B,white,woman,,,,null,,,,
null,is hugging,,html-keyboard-response,334,1145835,0.0-19.0-2.2,57633,List2B,white,woman,,,,null,,,,
6125,,,survey-text,335,1151962,0.0-19.0-3.2,57633,List2B,white,woman,,,,,"{""Q0"":""Ruth is hugging Luke""}","<img src=""stim_listB/hug1.gif""</stim_listB>",is hugging,
null,"<div style=""font-size:60px;"">+</div>",,html-keyboard-response,336,1152470,0.0-19.0-0.3,57633,List2B,white,woman,,,,null,,,,
null,"<img src=""stim_listB/talk7.gif""</stim_listB>",,html-keyboard-response,337,1154477,0.0-19.0-1.3,57633,List2B,white,woman,,,,null,,,,
null,is talking to,,html-keyboard-response,338,1156478,0.0-19.0-2.3,57633,List2B,white,woman,,,,null,,,,
5602,,,survey-text,339,1162081,0.0-19.0-3.3,57633,List2B,white,woman,,,,,"{""Q0"":""Kate is talking to Ruth""}","<img src=""stim_listB/talk7.gif""</stim_listB>",is talking to,
null,"<div style=""font-size:60px;"">+</div>",,html-keyboard-response,340,1162585,0.0-19.0-0.4,57633,List2B,white,woman,,,,null,,,,
null,"<img src=""stim_listB/talk8.gif""</stim_listB>",,html-keyboard-response,341,1164591,0.0-19.0-1.4,57633,List2B,white,woman,,,,null,,,,
null,are talking to each other,,html-keyboard-response,342,1166593,0.0-19.0-2.4,57633,List2B,white,woman,,,,null,,,,
5638,,,survey-text,343,1172233,0.0-19.0-3.4,57633,List2B,white,woman,,,,,"{""Q0"":""Jane is talking to Beth""}","<img src=""stim_listB/talk8.gif""</stim_listB>",are talking to each other,
null,"<div style=""font-size:60px;"">+</div>",,html-keyboard-response,344,1172735,0.0-19.0-0.5,57633,List2B,white,woman,,,,null,,,,
null,"<img src=""stim_listB/shout2.gif""</stim_listB>",,html-keyboard-response,345,1174752,0.0-19.0-1.5,57633,List2B,white,woman,,,,null,,,,
null,are shouting at each other,,html-keyboard-response,346,1176768,0.0-19.0-2.5,57633,List2B,white,woman,,,,null,,,,
6798,,,survey-text,347,1183567,0.0-19.0-3.5,57633,List2B,white,woman,,,,,"{""Q0"":""Dave and Jane are shouting at each other""}","<img src=""stim_listB/shout2.gif""</stim_listB>",are shouting at each other,
null,"<div style=""font-size:60px;"">+</div>",,html-keyboard-response,348,1184069,0.0-19.0-0.6,57633,List2B,white,woman,,,,null,,,,
null,"<img src=""stim_listB/shout1.gif""</stim_listB>",,html-keyboard-response,349,1186072,0.0-19.0-1.6,57633,List2B,white,woman,,,,null,,,,
null,is shouting at,,html-keyboard-response,350,1188101,0.0-19.0-2.6,57633,List2B,white,woman,,,,null,,,,
5744,,,survey-text,351,1193848,0.0-19.0-3.6,57633,List2B,white,woman,,,,,"{""Q0"":""Luke is shouting at Ruth""}","<img src=""stim_listB/shout1.gif""</stim_listB>",is shouting at,
null,"<div style=""font-size:60px;"">+</div>",,html-keyboard-response,352,1194356,0.0-19.0-0.7,57633,List2B,white,woman,,,,null,,,,
null,"<img src=""stim_listB/marry2.gif""</stim_listB>",,html-keyboard-response,353,1196370,0.0-19.0-1.7,57633,List2B,white,woman,,,,null,,,,
null,are marrying each other,,html-keyboard-response,354,1198374,0.0-19.0-2.7,57633,List2B,white,woman,,,,null,,,,
6176,,,survey-text,355,1204552,0.0-19.0-3.7,57633,List2B,white,woman,,,,,"{""Q0"":""Luke and Jane are marrying each other""}","<img src=""stim_listB/marry2.gif""</stim_listB>",are marrying each other,
null,"<div style=""font-size:60px;"">+</div>",,html-keyboard-response,356,1205068,0.0-19.0-0.8,57633,List2B,white,woman,,,,null,,,,
null,"<img src=""stim_listB/talk5.gif""</stim_listB>",,html-keyboard-response,357,1207074,0.0-19.0-1.8,57633,List2B,white,woman,,,,null,,,,
null,is talking to,,html-keyboard-response,358,1209076,0.0-19.0-2.8,57633,List2B,white,woman,,,,null,,,,
7825,,,survey-text,359,1216903,0.0-19.0-3.8,57633,List2B,white,woman,,,,,"{""Q0"":""Mike is talking to Luke""}","<img src=""stim_listB/talk5.gif""</stim_listB>",is talking to,
null,"<div style=""font-size:60px;"">+</div>",,html-keyboard-response,360,1217416,0.0-19.0-0.9,57633,List2B,white,woman,,,,null,,,,
null,"<img src=""stim_listB/dance7.gif""</stim_listB>",,html-keyboard-response,361,1219419,0.0-19.0-1.9,57633,List2B,white,woman,,,,null,,,,
null,is dancing with,,html-keyboard-response,362,1221421,0.0-19.0-2.9,57633,List2B,white,woman,,,,null,,,,
6273,,,survey-text,363,1227695,0.0-19.0-3.9,57633,List2B,white,woman,,,,,"{""Q0"":""Kate is dancing with Ruth""}","<img src=""stim_listB/dance7.gif""</stim_listB>",is dancing with,
null,"<div style=""font-size:60px;"">+</div>",,html-keyboard-response,364,1228211,0.0-19.0-0.10,57633,List2B,white,woman,,,,null,,,,
null,"<img src=""stim_listB/hug5.gif""</stim_listB>",,html-keyboard-response,365,1230219,0.0-19.0-1.10,57633,List2B,white,woman,,,,null,,,,
null,is hugging,,html-keyboard-response,366,1232227,0.0-19.0-2.10,57633,List2B,white,woman,,,,null,,,,
6201,,,survey-text,367,1238429,0.0-19.0-3.10,57633,List2B,white,woman,,,,,"{""Q0"":""Fred is hugging Luke""}","<img src=""stim_listB/hug5.gif""</stim_listB>",is hugging,
null,"<div style=""font-size:60px;"">+</div>",,html-keyboard-response,368,1238938,0.0-19.0-0.11,57633,List2B,white,woman,,,,null,,,,
null,"<img src=""stim_listB/touch7.gif""</stim_listB>",,html-keyboard-response,369,1240945,0.0-19.0-1.11,57633,List2B,white,woman,,,,null,,,,
null,is touching,,html-keyboard-response,370,1242957,0.0-19.0-2.11,57633,List2B,white,woman,,,,null,,,,
5230,,,survey-text,371,1248189,0.0-19.0-3.11,57633,List2B,white,woman,,,,,"{""Q0"":""Kate is touching Jane""}","<img src=""stim_listB/touch7.gif""</stim_listB>",is touching,
null,"<div style=""font-size:60px;"">+</div>",,html-keyboard-response,372,1248695,0.0-19.0-0.12,57633,List2B,white,woman,,,,null,,,,
null,"<img src=""stim_listB/talk6.gif""</stim_listB>",,html-keyboard-response,373,1250706,0.0-19.0-1.12,57633,List2B,white,woman,,,,null,,,,
null,are talking to each other,,html-keyboard-response,374,1252722,0.0-19.0-2.12,57633,List2B,white,woman,,,,null,,,,
5712,,,survey-text,375,1258435,0.0-19.0-3.12,57633,List2B,white,woman,,,,,"{""Q0"":""Dave and Fred are talking""}","<img src=""stim_listB/talk6.gif""</stim_listB>",are talking to each other,
null,"<div style=""font-size:60px;"">+</div>",,html-keyboard-response,376,1258937,0.0-19.0-0.13,57633,List2B,white,woman,,,,null,,,,
null,"<img src=""stim_listB/touch4.gif""</stim_listB>",,html-keyboard-response,377,1260940,0.0-19.0-1.13,57633,List2B,white,woman,,,,null,,,,
null,are touching each other,,html-keyboard-response,378,1262942,0.0-19.0-2.13,57633,List2B,white,woman,,,,null,,,,
6908,,,survey-text,379,1269853,0.0-19.0-3.13,57633,List2B,white,woman,,,,,"{""Q0"":""Fred and Beth are touching each other""}","<img src=""stim_listB/touch4.gif""</stim_listB>",are touching each other,
null,"<div style=""font-size:60px;"">+</div>",,html-keyboard-response,380,1270361,0.0-19.0-0.14,57633,List2B,white,woman,,,,null,,,,
null,"<img src=""stim_listB/dance2.gif""</stim_listB>",,html-keyboard-response,381,1272365,0.0-19.0-1.14,57633,List2B,white,woman,,,,null,,,,
null,are dancing with each other,,html-keyboard-response,382,1274377,0.0-19.0-2.14,57633,List2B,white,woman,,,,null,,,,
8713,,,survey-text,383,1283092,0.0-19.0-3.14,57633,List2B,white,woman,,,,,"{""Q0"":""Dave and Ruth are dancing with each other""}","<img src=""stim_listB/dance2.gif""</stim_listB>",are dancing with each other,
null,"<div style=""font-size:60px;"">+</div>",,html-keyboard-response,384,1283605,0.0-19.0-0.15,57633,List2B,white,woman,,,,null,,,,
null,"<img src=""stim_listB/dance6.gif""</stim_listB>",,html-keyboard-response,385,1285609,0.0-19.0-1.15,57633,List2B,white,woman,,,,null,,,,
null,are dancing with each other,,html-keyboard-response,386,1287624,0.0-19.0-2.15,57633,List2B,white,woman,,,,null,,,,
7098,,,survey-text,387,1294724,0.0-19.0-3.15,57633,List2B,white,woman,,,,,"{""Q0"":""Dave and Fred are dancing with each other""}","<img src=""stim_listB/dance6.gif""</stim_listB>",are dancing with each other,
null,"<div style=""font-size:60px;"">+</div>",,html-keyboard-response,388,1295226,0.0-19.0-0.16,57633,List2B,white,woman,,,,null,,,,
null,"<img src=""stim_listB/argue3.gif""</stim_listB>",,html-keyboard-response,389,1297241,0.0-19.0-1.16,57633,List2B,white,woman,,,,null,,,,
null,is arguing with,,html-keyboard-response,390,1299256,0.0-19.0-2.16,57633,List2B,white,woman,,,,null,,,,
6297,,,survey-text,391,1305556,0.0-19.0-3.16,57633,List2B,white,woman,,,,,"{""Q0"":""Mike is arguing with Ruth""}","<img src=""stim_listB/argue3.gif""</stim_listB>",is arguing with,
null,"<div style=""font-size:60px;"">+</div>",,html-keyboard-response,392,1306064,0.0-19.0-0.17,57633,List2B,white,woman,,,,null,,,,
null,"<img src=""stim_listB/fight3.gif""</stim_listB>",,html-keyboard-response,393,1308070,0.0-19.0-1.17,57633,List2B,white,woman,,,,null,,,,
null,is fighting,,html-keyboard-response,394,1310087,0.0-19.0-2.17,57633,List2B,white,woman,,,,null,,,,
7264,,,survey-text,395,1317352,0.0-19.0-3.17,57633,List2B,white,woman,,,,,"{""Q0"":""Kate is fighting Mike""}","<img src=""stim_listB/fight3.gif""</stim_listB>",is fighting,
null,"<div style=""font-size:60px;"">+</div>",,html-keyboard-response,396,1317854,0.0-19.0-0.18,57633,List2B,white,woman,,,,null,,,,
null,"<img src=""stim_listB/touch3.gif""</stim_listB>",,html-keyboard-response,397,1319872,0.0-19.0-1.18,57633,List2B,white,woman,,,,null,,,,
null,is touching,,html-keyboard-response,398,1321888,0.0-19.0-2.18,57633,List2B,white,woman,,,,null,,,,
6102,,,survey-text,399,1327992,0.0-19.0-3.18,57633,List2B,white,woman,,,,,"{""Q0"":""Kate is touching Mike""}","<img src=""stim_listB/touch3.gif""</stim_listB>",is touching,
null,"<div style=""font-size:60px;"">+</div>",,html-keyboard-response,400,1328494,0.0-19.0-0.19,57633,List2B,white,woman,,,,null,,,,
null,"<img src=""stim_listB/shout6.gif""</stim_listB>",,html-keyboard-response,401,1330500,0.0-19.0-1.19,57633,List2B,white,woman,,,,null,,,,
null,are shouting at each other,,html-keyboard-response,402,1332515,0.0-19.0-2.19,57633,List2B,white,woman,,,,null,,,,
8290,,,survey-text,403,1340807,0.0-19.0-3.19,57633,List2B,white,woman,,,,,"{""Q0"":""Dave and Mike are shouting at each other""}","<img src=""stim_listB/shout6.gif""</stim_listB>",are shouting at each other,
1174,<p>Thank you for completing that task.</p><p>The final part of this session is a short questionnaire.</p><p>Press Continue.</p>,0,html-button-response,404,1341984,0.0-20.0,57633,List2B,white,woman,,,,,,,,
21533,,,survey-text,405,1364527,0.0-21.0,57633,List2B,white,woman,,,,,"{""Q0"":""26"",""Q1"":""English"",""Q2"":""English"",""Q3"":""UK"",""Q4"":""White"",""Q5"":""Female""}",,,demographics
82735,,,survey-likert,406,1447337,0.0-22.0,57633,List2B,white,woman,,,,,"{""Q0"":3,""Q1"":3,""Q2"":3,""Q3"":3,""Q4"":2,""Q5"":3,""Q6"":3,""Q7"":0,""Q8"":3,""Q9"":2,""Q10"":3,""Q11"":3,""Q12"":2,""Q13"":1}",,,likert_race
150357,,,survey-likert,407,1597705,0.0-23.0,57633,List2B,white,woman,,,,,"{""Q0"":4,""Q1"":4,""Q2"":4,""Q3"":2,""Q4"":4,""Q5"":4,""Q6"":4,""Q7"":4,""Q8"":5,""Q9"":4,""Q10"":3,""Q11"":3,""Q12"":3,""Q13"":0}",,,likert_gender
8787,,,survey-text,408,1606496,0.0-24.0,57633,List2B,white,woman,,,,,"{""Q0"":""ccc""}",,,worker_id
19312,,,external-html,409,1625922,0.0-25.0,57633,List2B,white,woman,debrief.html,,,,,,,
