rt,stimulus,button_pressed,trial_type,trial_index,time_elapsed,internal_node_id,subject,list,ppt_race,ppt_gender,url,first_guess,correct,key_press,responses,image_type,phrase_type,test_part
4522,Welcome to the experiment. Press Continue to begin.,0,html-button-response,0,4565,0.0-0.0,57834,List2B,black,woman,,,,,,,,
11922,,,external-html,1,17739,0.0-1.0,57834,List2B,black,woman,consent.html,,,,,,,
3625,"<p>On the next page, you will see portraits of 8 people and their names.</p><p>Your first task is to take a few minutes to memorise the names of these people.</p><p>You will have to recall their names during the rest of the experiment, so it is</p><p>essential that you try to memorise these people and their names as best as you can.</p><br><p><strong>You will then be tested on your memory of these names and portraits.</strong></p><br><p>The experiment will start after you have completed this memory test.</p><br><p>Ready?</p>",0,html-button-response,2,21371,0.0-2.0,57834,List2B,black,woman,,,,,,,,
3754,"<img src='img/portrait_matrix_list2.JPG' style='width:900px;height:500px;''></img><p>If you have memorised all the portraits and names and are ready to start, press Continue.</p><p><strong>Please note: Your memory of these faces will be tested 4 times during this experiment.</strong></p>",0,html-button-response,3,26131,0.0-3.0-0.0,57834,List2B,black,woman,,,,,,,,
4160,"<img src=""portrait/BM2.jpg""style=""width:400px;height:400px;""></img>",5,html-button-response,4,31301,0.0-3.0-1.0,57834,List2B,black,woman,,TRUE,5,,,,,
null,CORRECT,,html-keyboard-response,5,32811,0.0-3.0-2.0-0.0,57834,List2B,black,woman,,,,null,,,,
3639,"<img src=""portrait/BW2.jpg""style=""width:400px;height:400px;""></img>",0,html-button-response,6,36454,0.0-3.0-4.0,57834,List2B,black,woman,,TRUE,2,,,,,
2593,"<img src=""portrait/BW2.jpg""style=""width:400px;height:400px;""></img>",2,html-button-response,7,40055,0.0-3.0-6.0-0.0,57834,List2B,black,woman,,FALSE,2,,,,,
null,CORRECT,,html-keyboard-response,8,41560,0.0-3.0-6.0-1.0-0.0,57834,List2B,black,woman,,,,null,,,,
2876,"<img src=""portrait/BM1.jpg""style=""width:400px;height:400px;""></img>",4,html-button-response,9,44442,0.0-3.0-7.0,57834,List2B,black,woman,,TRUE,4,,,,,
null,CORRECT,,html-keyboard-response,10,45948,0.0-3.0-8.0-0.0,57834,List2B,black,woman,,,,null,,,,
22397,"<img src=""portrait/WW1.jpg""style=""width:400px;height:400px;""></img>",1,html-button-response,11,68353,0.0-3.0-10.0,57834,List2B,black,woman,,TRUE,1,,,,,
null,CORRECT,,html-keyboard-response,12,69857,0.0-3.0-11.0-0.0,57834,List2B,black,woman,,,,null,,,,
7134,"<img src=""portrait/WM1.jpg""style=""width:400px;height:400px;""></img>",6,html-button-response,13,76995,0.0-3.0-13.0,57834,List2B,black,woman,,TRUE,6,,,,,
null,CORRECT,,html-keyboard-response,14,78501,0.0-3.0-14.0-0.0,57834,List2B,black,woman,,,,null,,,,
6671,"<img src=""portrait/WM2.jpg""style=""width:400px;height:400px;""></img>",7,html-button-response,15,85178,0.0-3.0-16.0,57834,List2B,black,woman,,TRUE,7,,,,,
null,CORRECT,,html-keyboard-response,16,86681,0.0-3.0-17.0-0.0,57834,List2B,black,woman,,,,null,,,,
6622,"<img src=""portrait/BW1.jpg""style=""width:400px;height:400px;""></img>",0,html-button-response,17,93306,0.0-3.0-19.0,57834,List2B,black,woman,,TRUE,0,,,,,
null,CORRECT,,html-keyboard-response,18,94811,0.0-3.0-20.0-0.0,57834,List2B,black,woman,,,,null,,,,
7639,"<img src=""portrait/WW2.jpg""style=""width:400px;height:400px;""></img>",3,html-button-response,19,102457,0.0-3.0-22.0,57834,List2B,black,woman,,TRUE,3,,,,,
null,CORRECT,,html-keyboard-response,20,103963,0.0-3.0-23.0-0.0,57834,List2B,black,woman,,,,null,,,,
1679,<p>You got 7 out of 8 right first time. Press Continue.</p>,0,html-button-response,21,105647,0.0-3.0-25.0,57834,List2B,black,woman,,,,,,,,
2847,"As you did not score 100%, the memory game will repeat. Press Continue.",0,html-button-response,22,109499,0.0-3.0-26.0-0.0,57834,List2B,black,woman,,,,,,,,
1342,"<img src='img/portrait_matrix_list2.JPG' style='width:900px;height:500px;''></img><p>If you have memorised all the portraits and names and are ready to start, press Continue.</p><p><strong>Please note: Your memory of these faces will be tested 4 times during this experiment.</strong></p>",0,html-button-response,23,111853,0.0-3.1-0.1,57834,List2B,black,woman,,,,,,,,
2663,"<img src=""portrait/BM2.jpg""style=""width:400px;height:400px;""></img>",5,html-button-response,24,115523,0.0-3.1-1.1,57834,List2B,black,woman,,TRUE,5,,,,,
null,CORRECT,,html-keyboard-response,25,117028,0.0-3.1-2.1-0.1,57834,List2B,black,woman,,,,null,,,,
7296,"<img src=""portrait/BW2.jpg""style=""width:400px;height:400px;""></img>",2,html-button-response,26,124330,0.0-3.1-4.1,57834,List2B,black,woman,,TRUE,2,,,,,
null,CORRECT,,html-keyboard-response,27,125838,0.0-3.1-5.1-0.1,57834,List2B,black,woman,,,,null,,,,
1819,"<img src=""portrait/BM1.jpg""style=""width:400px;height:400px;""></img>",4,html-button-response,28,127661,0.0-3.1-7.1,57834,List2B,black,woman,,TRUE,4,,,,,
null,CORRECT,,html-keyboard-response,29,129170,0.0-3.1-8.1-0.1,57834,List2B,black,woman,,,,null,,,,
7492,"<img src=""portrait/WW1.jpg""style=""width:400px;height:400px;""></img>",1,html-button-response,30,136674,0.0-3.1-10.1,57834,List2B,black,woman,,TRUE,1,,,,,
null,CORRECT,,html-keyboard-response,31,138180,0.0-3.1-11.1-0.1,57834,List2B,black,woman,,,,null,,,,
5137,"<img src=""portrait/WM1.jpg""style=""width:400px;height:400px;""></img>",6,html-button-response,32,143321,0.0-3.1-13.1,57834,List2B,black,woman,,TRUE,6,,,,,
null,CORRECT,,html-keyboard-response,33,144825,0.0-3.1-14.1-0.1,57834,List2B,black,woman,,,,null,,,,
2613,"<img src=""portrait/WM2.jpg""style=""width:400px;height:400px;""></img>",7,html-button-response,34,147445,0.0-3.1-16.1,57834,List2B,black,woman,,TRUE,7,,,,,
null,CORRECT,,html-keyboard-response,35,148950,0.0-3.1-17.1-0.1,57834,List2B,black,woman,,,,null,,,,
8678,"<img src=""portrait/BW1.jpg""style=""width:400px;height:400px;""></img>",0,html-button-response,36,157633,0.0-3.1-19.1,57834,List2B,black,woman,,TRUE,0,,,,,
null,CORRECT,,html-keyboard-response,37,159138,0.0-3.1-20.1-0.1,57834,List2B,black,woman,,,,null,,,,
4608,"<img src=""portrait/WW2.jpg""style=""width:400px;height:400px;""></img>",3,html-button-response,38,163753,0.0-3.1-22.1,57834,List2B,black,woman,,TRUE,3,,,,,
null,CORRECT,,html-keyboard-response,39,165258,0.0-3.1-23.1-0.1,57834,List2B,black,woman,,,,null,,,,
1204,<p>You got 8 out of 8 right first time. Press Continue.</p>,0,html-button-response,40,166470,0.0-3.1-25.1,57834,List2B,black,woman,,,,,,,,
11461,"<p>In this experiment, you will view photographs of the people from the memory game interacting.</p><p>By using the <strong>exact</strong> phrase given <i>after</i> the photograph appears and recalling the correct names of the people in the photographs, form a sentence describing the interaction. You do not need to capitalise names.</p><p>Type your answer in the space provided. Please complete every sentence before moving onto the next trial.</p><p>You will only have a few seconds to memorise each given photograph and phrase before you can respond, so try your best to focus.</p><p>An example is given below. Press 'Continue' when you are ready.</p><img src='img/speaking_example_v2.jpg' style='width:800px;height:460px;''></img>",0,html-button-response,41,178944,0.0-4.0,57834,List2B,black,woman,,,,,,,,
3897,"<p>Before the experiment starts, you will watch two example trials. Press 'Continue'.</p>",0,html-button-response,42,183847,0.0-5.0,57834,List2B,black,woman,,,,,,,,
null,<img src='img/speaking_WW.gif'></img>,,html-keyboard-response,43,186853,0.0-6.0,57834,List2B,black,woman,,,,null,,,,
null,<p>is speaking to</p>,,html-keyboard-response,44,188857,0.0-7.0,57834,List2B,black,woman,,,,null,,,,
3945,<p><b>Answer:</b> jane is speaking to ruth</p>,0,html-button-response,45,192805,0.0-8.0,57834,List2B,black,woman,,,,,,,,
null,<img src='img/pointing_BM.gif'></img>,,html-keyboard-response,46,195810,0.0-9.0,57834,List2B,black,woman,,,,null,,,,
null,<p>are pointing at each other</p>,,html-keyboard-response,47,197814,0.0-10.0,57834,List2B,black,woman,,,,null,,,,
7590,<p><b>Answer:</b> fred and mike are pointing at each other</p>,0,html-button-response,48,205407,0.0-11.0,57834,List2B,black,woman,,,,,,,,
45530,"<p>Ready to start the experiment?</p><br><p><strong>Remember to describe the picture using a full sentence,</strong></p><p><strong>that combines the names of the people with the given phrase.</strong></p><p><strong>If you do not do this correctly you will not be paid.</strong></p><p><strong> You do not need to capitalise names or use punctuation.</strong></p><br><p>Press 'Continue' to begin.</p>",0,html-button-response,49,251950,0.0-12.0,57834,List2B,black,woman,,,,,,,,
null,"<div style=""font-size:60px;"">+</div>",,html-keyboard-response,50,253458,0.0-13.0-0.0,57834,List2B,black,woman,,,,null,,,,
null,"<img src=""stim_listB/argue2.gif""</stim_listB>",,html-keyboard-response,51,255482,0.0-13.0-1.0,57834,List2B,black,woman,,,,null,,,,
null,are arguing with each other,,html-keyboard-response,52,257486,0.0-13.0-2.0,57834,List2B,black,woman,,,,null,,,,
16534,,,survey-text,53,274054,0.0-13.0-3.0,57834,List2B,black,woman,,,,,"{""Q0"":""Luke and Jane ""}","<img src=""stim_listB/argue2.gif""</stim_listB>",are arguing with each other,
null,"<div style=""font-size:60px;"">+</div>",,html-keyboard-response,54,274563,0.0-13.0-0.1,57834,List2B,black,woman,,,,null,,,,
null,"<img src=""stim_listB/talk1.gif""</stim_listB>",,html-keyboard-response,55,276569,0.0-13.0-1.1,57834,List2B,black,woman,,,,null,,,,
null,is talking to,,html-keyboard-response,56,278575,0.0-13.0-2.1,57834,List2B,black,woman,,,,null,,,,
16921,,,survey-text,57,295498,0.0-13.0-3.1,57834,List2B,black,woman,,,,,"{""Q0"":""Jane is talking to Jane ""}","<img src=""stim_listB/talk1.gif""</stim_listB>",is talking to,
null,"<div style=""font-size:60px;"">+</div>",,html-keyboard-response,58,296000,0.0-13.0-0.2,57834,List2B,black,woman,,,,null,,,,
null,"<img src=""stim_listB/talk4.gif""</stim_listB>",,html-keyboard-response,59,298005,0.0-13.0-1.2,57834,List2B,black,woman,,,,null,,,,
null,are talking to each other,,html-keyboard-response,60,300009,0.0-13.0-2.2,57834,List2B,black,woman,,,,null,,,,
27964,,,survey-text,61,327977,0.0-13.0-3.2,57834,List2B,black,woman,,,,,"{""Q0"":""Mike is talking to kate""}","<img src=""stim_listB/talk4.gif""</stim_listB>",are talking to each other,
null,"<div style=""font-size:60px;"">+</div>",,html-keyboard-response,62,328481,0.0-13.0-0.3,57834,List2B,black,woman,,,,null,,,,
null,"<img src=""stim_listB/talk3.gif""</stim_listB>",,html-keyboard-response,63,330486,0.0-13.0-1.3,57834,List2B,black,woman,,,,null,,,,
null,is talking to,,html-keyboard-response,64,332490,0.0-13.0-2.3,57834,List2B,black,woman,,,,null,,,,
19508,,,survey-text,65,352002,0.0-13.0-3.3,57834,List2B,black,woman,,,,,"{""Q0"":""Fred is talking to kate""}","<img src=""stim_listB/talk3.gif""</stim_listB>",is talking to,
null,"<div style=""font-size:60px;"">+</div>",,html-keyboard-response,66,352506,0.0-13.0-0.4,57834,List2B,black,woman,,,,null,,,,
null,"<img src=""stim_listB/shout4.gif""</stim_listB>",,html-keyboard-response,67,354512,0.0-13.0-1.4,57834,List2B,black,woman,,,,null,,,,
null,are shouting at each other,,html-keyboard-response,68,356517,0.0-13.0-2.4,57834,List2B,black,woman,,,,null,,,,
14190,,,survey-text,69,370711,0.0-13.0-3.4,57834,List2B,black,woman,,,,,"{""Q0"":""Kate is yelling at mike""}","<img src=""stim_listB/shout4.gif""</stim_listB>",are shouting at each other,
null,"<div style=""font-size:60px;"">+</div>",,html-keyboard-response,70,371215,0.0-13.0-0.5,57834,List2B,black,woman,,,,null,,,,
null,"<img src=""stim_listB/meet4.gif""</stim_listB>",,html-keyboard-response,71,373220,0.0-13.0-1.5,57834,List2B,black,woman,,,,null,,,,
null,are meeting each other,,html-keyboard-response,72,375222,0.0-13.0-2.5,57834,List2B,black,woman,,,,null,,,,
31380,,,survey-text,73,406606,0.0-13.0-3.5,57834,List2B,black,woman,,,,,"{""Q0"":""Fred and Beth are meeting""}","<img src=""stim_listB/meet4.gif""</stim_listB>",are meeting each other,
null,"<div style=""font-size:60px;"">+</div>",,html-keyboard-response,74,407111,0.0-13.0-0.6,57834,List2B,black,woman,,,,null,,,,
null,"<img src=""stim_listB/marry5.gif""</stim_listB>",,html-keyboard-response,75,409117,0.0-13.0-1.6,57834,List2B,black,woman,,,,null,,,,
null,is marrying,,html-keyboard-response,76,411122,0.0-13.0-2.6,57834,List2B,black,woman,,,,null,,,,
23562,,,survey-text,77,434689,0.0-13.0-3.6,57834,List2B,black,woman,,,,,"{""Q0"":""Fred is marrying Dave ""}","<img src=""stim_listB/marry5.gif""</stim_listB>",is marrying,
null,"<div style=""font-size:60px;"">+</div>",,html-keyboard-response,78,435194,0.0-13.0-0.7,57834,List2B,black,woman,,,,null,,,,
null,"<img src=""stim_listB/touch2.gif""</stim_listB>",,html-keyboard-response,79,437201,0.0-13.0-1.7,57834,List2B,black,woman,,,,null,,,,
null,are touching each other,,html-keyboard-response,80,439207,0.0-13.0-2.7,57834,List2B,black,woman,,,,null,,,,
37583,,,survey-text,81,476795,0.0-13.0-3.7,57834,List2B,black,woman,,,,,"{""Q0"":""Luke and Beth ""}","<img src=""stim_listB/touch2.gif""</stim_listB>",are touching each other,
null,"<div style=""font-size:60px;"">+</div>",,html-keyboard-response,82,477303,0.0-13.0-0.8,57834,List2B,black,woman,,,,null,,,,
null,"<img src=""stim_listB/fight8.gif""</stim_listB>",,html-keyboard-response,83,479309,0.0-13.0-1.8,57834,List2B,black,woman,,,,null,,,,
null,are fighting each other,,html-keyboard-response,84,481315,0.0-13.0-2.8,57834,List2B,black,woman,,,,null,,,,
27672,,,survey-text,85,508992,0.0-13.0-3.8,57834,List2B,black,woman,,,,,"{""Q0"":""Ruth and Kate ""}","<img src=""stim_listB/fight8.gif""</stim_listB>",are fighting each other,
null,"<div style=""font-size:60px;"">+</div>",,html-keyboard-response,86,509497,0.0-13.0-0.9,57834,List2B,black,woman,,,,null,,,,
null,"<img src=""stim_listB/dance7.gif""</stim_listB>",,html-keyboard-response,87,511502,0.0-13.0-1.9,57834,List2B,black,woman,,,,null,,,,
null,is dancing with,,html-keyboard-response,88,513507,0.0-13.0-2.9,57834,List2B,black,woman,,,,null,,,,
13890,,,survey-text,89,527401,0.0-13.0-3.9,57834,List2B,black,woman,,,,,"{""Q0"":""Ruth and Kate ""}","<img src=""stim_listB/dance7.gif""</stim_listB>",is dancing with,
null,"<div style=""font-size:60px;"">+</div>",,html-keyboard-response,90,527905,0.0-13.0-0.10,57834,List2B,black,woman,,,,null,,,,
null,"<img src=""stim_listB/hug3.gif""</stim_listB>",,html-keyboard-response,91,529911,0.0-13.0-1.10,57834,List2B,black,woman,,,,null,,,,
null,is hugging,,html-keyboard-response,92,531915,0.0-13.0-2.10,57834,List2B,black,woman,,,,null,,,,
7838,,,survey-text,93,539757,0.0-13.0-3.10,57834,List2B,black,woman,,,,,"{""Q0"":""Beth and Fred ""}","<img src=""stim_listB/hug3.gif""</stim_listB>",is hugging,
null,"<div style=""font-size:60px;"">+</div>",,html-keyboard-response,94,540263,0.0-13.0-0.11,57834,List2B,black,woman,,,,null,,,,
null,"<img src=""stim_listB/hug2.gif""</stim_listB>",,html-keyboard-response,95,542268,0.0-13.0-1.11,57834,List2B,black,woman,,,,null,,,,
null,are hugging each other,,html-keyboard-response,96,544273,0.0-13.0-2.11,57834,List2B,black,woman,,,,null,,,,
10106,,,survey-text,97,554382,0.0-13.0-3.11,57834,List2B,black,woman,,,,,"{""Q0"":""Dave and ruth""}","<img src=""stim_listB/hug2.gif""</stim_listB>",are hugging each other,
null,"<div style=""font-size:60px;"">+</div>",,html-keyboard-response,98,554887,0.0-13.0-0.12,57834,List2B,black,woman,,,,null,,,,
null,"<img src=""stim_listB/fight4.gif""</stim_listB>",,html-keyboard-response,99,556892,0.0-13.0-1.12,57834,List2B,black,woman,,,,null,,,,
null,are fighting each other,,html-keyboard-response,100,558895,0.0-13.0-2.12,57834,List2B,black,woman,,,,null,,,,
13321,,,survey-text,101,572220,0.0-13.0-3.12,57834,List2B,black,woman,,,,,"{""Q0"":""Fred and Kate ""}","<img src=""stim_listB/fight4.gif""</stim_listB>",are fighting each other,
null,"<div style=""font-size:60px;"">+</div>",,html-keyboard-response,102,572724,0.0-13.0-0.13,57834,List2B,black,woman,,,,null,,,,
null,"<img src=""stim_listB/marry3.gif""</stim_listB>",,html-keyboard-response,103,574729,0.0-13.0-1.13,57834,List2B,black,woman,,,,null,,,,
null,is marrying,,html-keyboard-response,104,576734,0.0-13.0-2.13,57834,List2B,black,woman,,,,null,,,,
15881,,,survey-text,105,592619,0.0-13.0-3.13,57834,List2B,black,woman,,,,,"{""Q0"":""Mike and Kate ""}","<img src=""stim_listB/marry3.gif""</stim_listB>",is marrying,
null,"<div style=""font-size:60px;"">+</div>",,html-keyboard-response,106,593124,0.0-13.0-0.14,57834,List2B,black,woman,,,,null,,,,
null,"<img src=""stim_listB/fight7.gif""</stim_listB>",,html-keyboard-response,107,595130,0.0-13.0-1.14,57834,List2B,black,woman,,,,null,,,,
null,is fighting,,html-keyboard-response,108,597134,0.0-13.0-2.14,57834,List2B,black,woman,,,,null,,,,
12890,,,survey-text,109,610027,0.0-13.0-3.14,57834,List2B,black,woman,,,,,"{""Q0"":""Kate and jane""}","<img src=""stim_listB/fight7.gif""</stim_listB>",is fighting,
null,"<div style=""font-size:60px;"">+</div>",,html-keyboard-response,110,610531,0.0-13.0-0.15,57834,List2B,black,woman,,,,null,,,,
null,"<img src=""stim_listB/kiss1.gif""</stim_listB>",,html-keyboard-response,111,612536,0.0-13.0-1.15,57834,List2B,black,woman,,,,null,,,,
null,is kissing,,html-keyboard-response,112,614541,0.0-13.0-2.15,57834,List2B,black,woman,,,,null,,,,
26730,,,survey-text,113,641275,0.0-13.0-3.15,57834,List2B,black,woman,,,,,"{""Q0"":""Luke and Beth ""}","<img src=""stim_listB/kiss1.gif""</stim_listB>",is kissing,
null,"<div style=""font-size:60px;"">+</div>",,html-keyboard-response,114,641783,0.0-13.0-0.16,57834,List2B,black,woman,,,,null,,,,
null,"<img src=""stim_listB/shout8.gif""</stim_listB>",,html-keyboard-response,115,643787,0.0-13.0-1.16,57834,List2B,black,woman,,,,null,,,,
null,are shouting at each other,,html-keyboard-response,116,645791,0.0-13.0-2.16,57834,List2B,black,woman,,,,null,,,,
9335,,,survey-text,117,655130,0.0-13.0-3.16,57834,List2B,black,woman,,,,,"{""Q0"":""Kate and Jane ""}","<img src=""stim_listB/shout8.gif""</stim_listB>",are shouting at each other,
null,"<div style=""font-size:60px;"">+</div>",,html-keyboard-response,118,655634,0.0-13.0-0.17,57834,List2B,black,woman,,,,null,,,,
null,"<img src=""stim_listB/talk6.gif""</stim_listB>",,html-keyboard-response,119,657640,0.0-13.0-1.17,57834,List2B,black,woman,,,,null,,,,
null,are talking to each other,,html-keyboard-response,120,659644,0.0-13.0-2.17,57834,List2B,black,woman,,,,null,,,,
5879,,,survey-text,121,665527,0.0-13.0-3.17,57834,List2B,black,woman,,,,,"{""Q0"":""Fred and Dave ""}","<img src=""stim_listB/talk6.gif""</stim_listB>",are talking to each other,
null,"<div style=""font-size:60px;"">+</div>",,html-keyboard-response,122,666030,0.0-13.0-0.18,57834,List2B,black,woman,,,,null,,,,
null,"<img src=""stim_listB/dance5.gif""</stim_listB>",,html-keyboard-response,123,668035,0.0-13.0-1.18,57834,List2B,black,woman,,,,null,,,,
null,is dancing with,,html-keyboard-response,124,670038,0.0-13.0-2.18,57834,List2B,black,woman,,,,null,,,,
7433,,,survey-text,125,677474,0.0-13.0-3.18,57834,List2B,black,woman,,,,,"{""Q0"":""Mike and Luke ""}","<img src=""stim_listB/dance5.gif""</stim_listB>",is dancing with,
null,"<div style=""font-size:60px;"">+</div>",,html-keyboard-response,126,677978,0.0-13.0-0.19,57834,List2B,black,woman,,,,null,,,,
null,"<img src=""stim_listB/argue4.gif""</stim_listB>",,html-keyboard-response,127,679984,0.0-13.0-1.19,57834,List2B,black,woman,,,,null,,,,
null,are arguing with each other,,html-keyboard-response,128,681988,0.0-13.0-2.19,57834,List2B,black,woman,,,,null,,,,
10706,,,survey-text,129,692699,0.0-13.0-3.19,57834,List2B,black,woman,,,,,"{""Q0"":""Fred and Kate ""}","<img src=""stim_listB/argue4.gif""</stim_listB>",are arguing with each other,
6827,"<img src='img/portrait_matrix_list2.JPG' style='width:900px;height:500px;''></img><p>If you have memorised all the portraits and names and are ready to start, press Continue.</p><p><strong>Please note: Your memory of these faces will be tested 4 times during this experiment.</strong></p>",0,html-button-response,130,699551,0.0-14.0-0.0,57834,List2B,black,woman,,,,,,,,
4424,"<img src=""portrait/WM1.jpg""style=""width:400px;height:400px;""></img>",6,html-button-response,131,704984,0.0-14.0-1.0,57834,List2B,black,woman,,TRUE,6,,,,,
null,CORRECT,,html-keyboard-response,132,706489,0.0-14.0-2.0-0.0,57834,List2B,black,woman,,,,null,,,,
8525,"<img src=""portrait/BW1.jpg""style=""width:400px;height:400px;""></img>",0,html-button-response,133,715023,0.0-14.0-4.0,57834,List2B,black,woman,,TRUE,0,,,,,
null,CORRECT,,html-keyboard-response,134,716528,0.0-14.0-5.0-0.0,57834,List2B,black,woman,,,,null,,,,
6127,"<img src=""portrait/WW1.jpg""style=""width:400px;height:400px;""></img>",1,html-button-response,135,722660,0.0-14.0-7.0,57834,List2B,black,woman,,TRUE,1,,,,,
null,CORRECT,,html-keyboard-response,136,724171,0.0-14.0-8.0-0.0,57834,List2B,black,woman,,,,null,,,,
2729,"<img src=""portrait/BM2.jpg""style=""width:400px;height:400px;""></img>",5,html-button-response,137,726911,0.0-14.0-10.0,57834,List2B,black,woman,,TRUE,5,,,,,
null,CORRECT,,html-keyboard-response,138,728416,0.0-14.0-11.0-0.0,57834,List2B,black,woman,,,,null,,,,
6544,"<img src=""portrait/BW2.jpg""style=""width:400px;height:400px;""></img>",2,html-button-response,139,734968,0.0-14.0-13.0,57834,List2B,black,woman,,TRUE,2,,,,,
null,CORRECT,,html-keyboard-response,140,736473,0.0-14.0-14.0-0.0,57834,List2B,black,woman,,,,null,,,,
2504,"<img src=""portrait/WM2.jpg""style=""width:400px;height:400px;""></img>",7,html-button-response,141,738985,0.0-14.0-16.0,57834,List2B,black,woman,,TRUE,7,,,,,
null,CORRECT,,html-keyboard-response,142,740489,0.0-14.0-17.0-0.0,57834,List2B,black,woman,,,,null,,,,
3743,"<img src=""portrait/WW2.jpg""style=""width:400px;height:400px;""></img>",3,html-button-response,143,744237,0.0-14.0-19.0,57834,List2B,black,woman,,TRUE,3,,,,,
null,CORRECT,,html-keyboard-response,144,745741,0.0-14.0-20.0-0.0,57834,List2B,black,woman,,,,null,,,,
1939,"<img src=""portrait/BM1.jpg""style=""width:400px;height:400px;""></img>",4,html-button-response,145,747689,0.0-14.0-22.0,57834,List2B,black,woman,,TRUE,4,,,,,
null,CORRECT,,html-keyboard-response,146,749192,0.0-14.0-23.0-0.0,57834,List2B,black,woman,,,,null,,,,
1290,<p>You got 8 out of 8 right first time. Press Continue.</p>,0,html-button-response,147,750488,0.0-14.0-25.0,57834,List2B,black,woman,,,,,,,,
null,"<div style=""font-size:60px;"">+</div>",,html-keyboard-response,148,751997,0.0-15.0-0.0,57834,List2B,black,woman,,,,null,,,,
null,"<img src=""stim_listB/marry4.gif""</stim_listB>",,html-keyboard-response,149,754002,0.0-15.0-1.0,57834,List2B,black,woman,,,,null,,,,
null,are marrying each other,,html-keyboard-response,150,756006,0.0-15.0-2.0,57834,List2B,black,woman,,,,null,,,,
7086,,,survey-text,151,763096,0.0-15.0-3.0,57834,List2B,black,woman,,,,,"{""Q0"":""Fred and Kate ""}","<img src=""stim_listB/marry4.gif""</stim_listB>",are marrying each other,
null,"<div style=""font-size:60px;"">+</div>",,html-keyboard-response,152,763599,0.0-15.0-0.1,57834,List2B,black,woman,,,,null,,,,
null,"<img src=""stim_listB/dance2.gif""</stim_listB>",,html-keyboard-response,153,765603,0.0-15.0-1.1,57834,List2B,black,woman,,,,null,,,,
null,are dancing with each other,,html-keyboard-response,154,767606,0.0-15.0-2.1,57834,List2B,black,woman,,,,null,,,,
8861,,,survey-text,155,776471,0.0-15.0-3.1,57834,List2B,black,woman,,,,,"{""Q0"":""Dave and Ruth ""}","<img src=""stim_listB/dance2.gif""</stim_listB>",are dancing with each other,
null,"<div style=""font-size:60px;"">+</div>",,html-keyboard-response,156,776975,0.0-15.0-0.2,57834,List2B,black,woman,,,,null,,,,
null,"<img src=""stim_listB/meet6.gif""</stim_listB>",,html-keyboard-response,157,778981,0.0-15.0-1.2,57834,List2B,black,woman,,,,null,,,,
null,are meeting each other,,html-keyboard-response,158,780985,0.0-15.0-2.2,57834,List2B,black,woman,,,,null,,,,
9704,,,survey-text,159,790699,0.0-15.0-3.2,57834,List2B,black,woman,,,,,"{""Q0"":""Fred and Luke ""}","<img src=""stim_listB/meet6.gif""</stim_listB>",are meeting each other,
null,"<div style=""font-size:60px;"">+</div>",,html-keyboard-response,160,791204,0.0-15.0-0.3,57834,List2B,black,woman,,,,null,,,,
null,"<img src=""stim_listB/hug1.gif""</stim_listB>",,html-keyboard-response,161,793209,0.0-15.0-1.3,57834,List2B,black,woman,,,,null,,,,
null,is hugging,,html-keyboard-response,162,795213,0.0-15.0-2.3,57834,List2B,black,woman,,,,null,,,,
10674,,,survey-text,163,805890,0.0-15.0-3.3,57834,List2B,black,woman,,,,,"{""Q0"":""Luke and Ruth ""}","<img src=""stim_listB/hug1.gif""</stim_listB>",is hugging,
null,"<div style=""font-size:60px;"">+</div>",,html-keyboard-response,164,806394,0.0-15.0-0.4,57834,List2B,black,woman,,,,null,,,,
null,"<img src=""stim_listB/shout1.gif""</stim_listB>",,html-keyboard-response,165,808399,0.0-15.0-1.4,57834,List2B,black,woman,,,,null,,,,
null,is shouting at,,html-keyboard-response,166,810403,0.0-15.0-2.4,57834,List2B,black,woman,,,,null,,,,
10224,,,survey-text,167,820631,0.0-15.0-3.4,57834,List2B,black,woman,,,,,"{""Q0"":""Ruth and Luke ""}","<img src=""stim_listB/shout1.gif""</stim_listB>",is shouting at,
null,"<div style=""font-size:60px;"">+</div>",,html-keyboard-response,168,821137,0.0-15.0-0.5,57834,List2B,black,woman,,,,null,,,,
null,"<img src=""stim_listB/talk2.gif""</stim_listB>",,html-keyboard-response,169,823142,0.0-15.0-1.5,57834,List2B,black,woman,,,,null,,,,
null,are talking to each other,,html-keyboard-response,170,825146,0.0-15.0-2.5,57834,List2B,black,woman,,,,null,,,,
10832,,,survey-text,171,835981,0.0-15.0-3.5,57834,List2B,black,woman,,,,,"{""Q0"":""Dave and Ruth ""}","<img src=""stim_listB/talk2.gif""</stim_listB>",are talking to each other,
null,"<div style=""font-size:60px;"">+</div>",,html-keyboard-response,172,836484,0.0-15.0-0.6,57834,List2B,black,woman,,,,null,,,,
null,"<img src=""stim_listB/hug5.gif""</stim_listB>",,html-keyboard-response,173,838490,0.0-15.0-1.6,57834,List2B,black,woman,,,,null,,,,
null,is hugging,,html-keyboard-response,174,840493,0.0-15.0-2.6,57834,List2B,black,woman,,,,null,,,,
5528,,,survey-text,175,846024,0.0-15.0-3.6,57834,List2B,black,woman,,,,,"{""Q0"":""Luke and Fred ""}","<img src=""stim_listB/hug5.gif""</stim_listB>",is hugging,
null,"<div style=""font-size:60px;"">+</div>",,html-keyboard-response,176,846536,0.0-15.0-0.7,57834,List2B,black,woman,,,,null,,,,
null,"<img src=""stim_listB/shout5.gif""</stim_listB>",,html-keyboard-response,177,848542,0.0-15.0-1.7,57834,List2B,black,woman,,,,null,,,,
null,is shouting at,,html-keyboard-response,178,850546,0.0-15.0-2.7,57834,List2B,black,woman,,,,null,,,,
11900,,,survey-text,179,862451,0.0-15.0-3.7,57834,List2B,black,woman,,,,,"{""Q0"":""Luke is shouting at Fred ""}","<img src=""stim_listB/shout5.gif""</stim_listB>",is shouting at,
null,"<div style=""font-size:60px;"">+</div>",,html-keyboard-response,180,862956,0.0-15.0-0.8,57834,List2B,black,woman,,,,null,,,,
null,"<img src=""stim_listB/marry6.gif""</stim_listB>",,html-keyboard-response,181,864961,0.0-15.0-1.8,57834,List2B,black,woman,,,,null,,,,
null,are marrying each other,,html-keyboard-response,182,866965,0.0-15.0-2.8,57834,List2B,black,woman,,,,null,,,,
8817,,,survey-text,183,875785,0.0-15.0-3.8,57834,List2B,black,woman,,,,,"{""Q0"":""Mike and Luke ""}","<img src=""stim_listB/marry6.gif""</stim_listB>",are marrying each other,
null,"<div style=""font-size:60px;"">+</div>",,html-keyboard-response,184,876288,0.0-15.0-0.9,57834,List2B,black,woman,,,,null,,,,
null,"<img src=""stim_listB/touch4.gif""</stim_listB>",,html-keyboard-response,185,878293,0.0-15.0-1.9,57834,List2B,black,woman,,,,null,,,,
null,are touching each other,,html-keyboard-response,186,880296,0.0-15.0-2.9,57834,List2B,black,woman,,,,null,,,,
11934,,,survey-text,187,892233,0.0-15.0-3.9,57834,List2B,black,woman,,,,,"{""Q0"":""Fred and Beth ""}","<img src=""stim_listB/touch4.gif""</stim_listB>",are touching each other,
null,"<div style=""font-size:60px;"">+</div>",,html-keyboard-response,188,892738,0.0-15.0-0.10,57834,List2B,black,woman,,,,null,,,,
null,"<img src=""stim_listB/touch7.gif""</stim_listB>",,html-keyboard-response,189,894742,0.0-15.0-1.10,57834,List2B,black,woman,,,,null,,,,
null,is touching,,html-keyboard-response,190,896746,0.0-15.0-2.10,57834,List2B,black,woman,,,,null,,,,
14427,,,survey-text,191,911178,0.0-15.0-3.10,57834,List2B,black,woman,,,,,"{""Q0"":""Jane is touching Kate ""}","<img src=""stim_listB/touch7.gif""</stim_listB>",is touching,
null,"<div style=""font-size:60px;"">+</div>",,html-keyboard-response,192,911683,0.0-15.0-0.11,57834,List2B,black,woman,,,,null,,,,
null,"<img src=""stim_listB/hug8.gif""</stim_listB>",,html-keyboard-response,193,913688,0.0-15.0-1.11,57834,List2B,black,woman,,,,null,,,,
null,are hugging each other,,html-keyboard-response,194,915692,0.0-15.0-2.11,57834,List2B,black,woman,,,,null,,,,
7305,,,survey-text,195,923001,0.0-15.0-3.11,57834,List2B,black,woman,,,,,"{""Q0"":""Kate and Jane ""}","<img src=""stim_listB/hug8.gif""</stim_listB>",are hugging each other,
null,"<div style=""font-size:60px;"">+</div>",,html-keyboard-response,196,923505,0.0-15.0-0.12,57834,List2B,black,woman,,,,null,,,,
null,"<img src=""stim_listB/kiss7.gif""</stim_listB>",,html-keyboard-response,197,925510,0.0-15.0-1.12,57834,List2B,black,woman,,,,null,,,,
null,is kissing,,html-keyboard-response,198,927514,0.0-15.0-2.12,57834,List2B,black,woman,,,,null,,,,
16011,,,survey-text,199,943529,0.0-15.0-3.12,57834,List2B,black,woman,,,,,"{""Q0"":""Beth and Ruth ""}","<img src=""stim_listB/kiss7.gif""</stim_listB>",is kissing,
null,"<div style=""font-size:60px;"">+</div>",,html-keyboard-response,200,944033,0.0-15.0-0.13,57834,List2B,black,woman,,,,null,,,,
null,"<img src=""stim_listB/argue5.gif""</stim_listB>",,html-keyboard-response,201,946038,0.0-15.0-1.13,57834,List2B,black,woman,,,,null,,,,
null,is arguing with,,html-keyboard-response,202,948042,0.0-15.0-2.13,57834,List2B,black,woman,,,,null,,,,
4677,,,survey-text,203,952729,0.0-15.0-3.13,57834,List2B,black,woman,,,,,"{""Q0"":""Na""}","<img src=""stim_listB/argue5.gif""</stim_listB>",is arguing with,
null,"<div style=""font-size:60px;"">+</div>",,html-keyboard-response,204,953241,0.0-15.0-0.14,57834,List2B,black,woman,,,,null,,,,
null,"<img src=""stim_listB/argue8.gif""</stim_listB>",,html-keyboard-response,205,955248,0.0-15.0-1.14,57834,List2B,black,woman,,,,null,,,,
null,are arguing with each other,,html-keyboard-response,206,957253,0.0-15.0-2.14,57834,List2B,black,woman,,,,null,,,,
10511,,,survey-text,207,967767,0.0-15.0-3.14,57834,List2B,black,woman,,,,,"{""Q0"":""Kate and Ruth ""}","<img src=""stim_listB/argue8.gif""</stim_listB>",are arguing with each other,
null,"<div style=""font-size:60px;"">+</div>",,html-keyboard-response,208,968271,0.0-15.0-0.15,57834,List2B,black,woman,,,,null,,,,
null,"<img src=""stim_listB/shout3.gif""</stim_listB>",,html-keyboard-response,209,970284,0.0-15.0-1.15,57834,List2B,black,woman,,,,null,,,,
null,is shouting at,,html-keyboard-response,210,972289,0.0-15.0-2.15,57834,List2B,black,woman,,,,null,,,,
3712,,,survey-text,211,976006,0.0-15.0-3.15,57834,List2B,black,woman,,,,,"{""Q0"":""Na""}","<img src=""stim_listB/shout3.gif""</stim_listB>",is shouting at,
null,"<div style=""font-size:60px;"">+</div>",,html-keyboard-response,212,976509,0.0-15.0-0.16,57834,List2B,black,woman,,,,null,,,,
null,"<img src=""stim_listB/kiss8.gif""</stim_listB>",,html-keyboard-response,213,978515,0.0-15.0-1.16,57834,List2B,black,woman,,,,null,,,,
null,are kissing each other,,html-keyboard-response,214,980520,0.0-15.0-2.16,57834,List2B,black,woman,,,,null,,,,
9206,,,survey-text,215,989728,0.0-15.0-3.16,57834,List2B,black,woman,,,,,"{""Q0"":""Kate and Jane ""}","<img src=""stim_listB/kiss8.gif""</stim_listB>",are kissing each other,
null,"<div style=""font-size:60px;"">+</div>",,html-keyboard-response,216,990234,0.0-15.0-0.17,57834,List2B,black,woman,,,,null,,,,
null,"<img src=""stim_listB/marry2.gif""</stim_listB>",,html-keyboard-response,217,992240,0.0-15.0-1.17,57834,List2B,black,woman,,,,null,,,,
null,are marrying each other,,html-keyboard-response,218,994244,0.0-15.0-2.17,57834,List2B,black,woman,,,,null,,,,
14613,,,survey-text,219,1008860,0.0-15.0-3.17,57834,List2B,black,woman,,,,,"{""Q0"":""Jane and luke""}","<img src=""stim_listB/marry2.gif""</stim_listB>",are marrying each other,
null,"<div style=""font-size:60px;"">+</div>",,html-keyboard-response,220,1009364,0.0-15.0-0.18,57834,List2B,black,woman,,,,null,,,,
null,"<img src=""stim_listB/meet2.gif""</stim_listB>",,html-keyboard-response,221,1011368,0.0-15.0-1.18,57834,List2B,black,woman,,,,null,,,,
null,are meeting each other,,html-keyboard-response,222,1013371,0.0-15.0-2.18,57834,List2B,black,woman,,,,null,,,,
22362,,,survey-text,223,1035737,0.0-15.0-3.18,57834,List2B,black,woman,,,,,"{""Q0"":""Luke and Ruth ""}","<img src=""stim_listB/meet2.gif""</stim_listB>",are meeting each other,
null,"<div style=""font-size:60px;"">+</div>",,html-keyboard-response,224,1036241,0.0-15.0-0.19,57834,List2B,black,woman,,,,null,,,,
null,"<img src=""stim_listB/dance6.gif""</stim_listB>",,html-keyboard-response,225,1038246,0.0-15.0-1.19,57834,List2B,black,woman,,,,null,,,,
null,are dancing with each other,,html-keyboard-response,226,1040250,0.0-15.0-2.19,57834,List2B,black,woman,,,,null,,,,
6555,,,survey-text,227,1046807,0.0-15.0-3.19,57834,List2B,black,woman,,,,,"{""Q0"":""Fred and Dave ""}","<img src=""stim_listB/dance6.gif""</stim_listB>",are dancing with each other,
65192,"<img src='img/portrait_matrix_list2.JPG' style='width:900px;height:500px;''></img><p>If you have memorised all the portraits and names and are ready to start, press Continue.</p><p><strong>Please note: Your memory of these faces will be tested 4 times during this experiment.</strong></p>",0,html-button-response,228,1112009,0.0-16.0-0.0,57834,List2B,black,woman,,,,,,,,
15898,"<img src=""portrait/BW1.jpg""style=""width:400px;height:400px;""></img>",0,html-button-response,229,1128928,0.0-16.0-1.0,57834,List2B,black,woman,,TRUE,0,,,,,
null,CORRECT,,html-keyboard-response,230,1130436,0.0-16.0-2.0-0.0,57834,List2B,black,woman,,,,null,,,,
5489,"<img src=""portrait/WW2.jpg""style=""width:400px;height:400px;""></img>",3,html-button-response,231,1135931,0.0-16.0-4.0,57834,List2B,black,woman,,TRUE,3,,,,,
null,CORRECT,,html-keyboard-response,232,1137436,0.0-16.0-5.0-0.0,57834,List2B,black,woman,,,,null,,,,
1727,"<img src=""portrait/BM2.jpg""style=""width:400px;height:400px;""></img>",5,html-button-response,233,1139168,0.0-16.0-7.0,57834,List2B,black,woman,,TRUE,5,,,,,
null,CORRECT,,html-keyboard-response,234,1140673,0.0-16.0-8.0-0.0,57834,List2B,black,woman,,,,null,,,,
2152,"<img src=""portrait/WM2.jpg""style=""width:400px;height:400px;""></img>",7,html-button-response,235,1142834,0.0-16.0-10.0,57834,List2B,black,woman,,TRUE,7,,,,,
null,CORRECT,,html-keyboard-response,236,1144337,0.0-16.0-11.0-0.0,57834,List2B,black,woman,,,,null,,,,
1791,"<img src=""portrait/BM1.jpg""style=""width:400px;height:400px;""></img>",4,html-button-response,237,1146137,0.0-16.0-13.0,57834,List2B,black,woman,,TRUE,4,,,,,
null,CORRECT,,html-keyboard-response,238,1147641,0.0-16.0-14.0-0.0,57834,List2B,black,woman,,,,null,,,,
10526,"<img src=""portrait/WW1.jpg""style=""width:400px;height:400px;""></img>",1,html-button-response,239,1158175,0.0-16.0-16.0,57834,List2B,black,woman,,TRUE,1,,,,,
null,CORRECT,,html-keyboard-response,240,1159680,0.0-16.0-17.0-0.0,57834,List2B,black,woman,,,,null,,,,
2089,"<img src=""portrait/BW2.jpg""style=""width:400px;height:400px;""></img>",2,html-button-response,241,1161776,0.0-16.0-19.0,57834,List2B,black,woman,,TRUE,2,,,,,
null,CORRECT,,html-keyboard-response,242,1163280,0.0-16.0-20.0-0.0,57834,List2B,black,woman,,,,null,,,,
2689,"<img src=""portrait/WM1.jpg""style=""width:400px;height:400px;""></img>",6,html-button-response,243,1165978,0.0-16.0-22.0,57834,List2B,black,woman,,TRUE,6,,,,,
null,CORRECT,,html-keyboard-response,244,1167483,0.0-16.0-23.0-0.0,57834,List2B,black,woman,,,,null,,,,
1137,<p>You got 8 out of 8 right first time. Press Continue.</p>,0,html-button-response,245,1168632,0.0-16.0-25.0,57834,List2B,black,woman,,,,,,,,
null,"<div style=""font-size:60px;"">+</div>",,html-keyboard-response,246,1170141,0.0-17.0-0.0,57834,List2B,black,woman,,,,null,,,,
null,"<img src=""stim_listB/shout2.gif""</stim_listB>",,html-keyboard-response,247,1172147,0.0-17.0-1.0,57834,List2B,black,woman,,,,null,,,,
null,are shouting at each other,,html-keyboard-response,248,1174151,0.0-17.0-2.0,57834,List2B,black,woman,,,,null,,,,
21214,,,survey-text,249,1195370,0.0-17.0-3.0,57834,List2B,black,woman,,,,,"{""Q0"":""Dave and jane""}","<img src=""stim_listB/shout2.gif""</stim_listB>",are shouting at each other,
null,"<div style=""font-size:60px;"">+</div>",,html-keyboard-response,250,1195874,0.0-17.0-0.1,57834,List2B,black,woman,,,,null,,,,
null,"<img src=""stim_listB/shout6.gif""</stim_listB>",,html-keyboard-response,251,1197880,0.0-17.0-1.1,57834,List2B,black,woman,,,,null,,,,
null,are shouting at each other,,html-keyboard-response,252,1199885,0.0-17.0-2.1,57834,List2B,black,woman,,,,null,,,,
18338,,,survey-text,253,1218227,0.0-17.0-3.1,57834,List2B,black,woman,,,,,"{""Q0"":""Dave and mike""}","<img src=""stim_listB/shout6.gif""</stim_listB>",are shouting at each other,
null,"<div style=""font-size:60px;"">+</div>",,html-keyboard-response,254,1218732,0.0-17.0-0.2,57834,List2B,black,woman,,,,null,,,,
null,"<img src=""stim_listB/dance8.gif""</stim_listB>",,html-keyboard-response,255,1220736,0.0-17.0-1.2,57834,List2B,black,woman,,,,null,,,,
null,are dancing with each other,,html-keyboard-response,256,1222738,0.0-17.0-2.2,57834,List2B,black,woman,,,,null,,,,
9857,,,survey-text,257,1232600,0.0-17.0-3.2,57834,List2B,black,woman,,,,,"{""Q0"":""Jane and Beth ""}","<img src=""stim_listB/dance8.gif""</stim_listB>",are dancing with each other,
null,"<div style=""font-size:60px;"">+</div>",,html-keyboard-response,258,1233105,0.0-17.0-0.3,57834,List2B,black,woman,,,,null,,,,
null,"<img src=""stim_listB/kiss2.gif""</stim_listB>",,html-keyboard-response,259,1235110,0.0-17.0-1.3,57834,List2B,black,woman,,,,null,,,,
null,are kissing each other,,html-keyboard-response,260,1237114,0.0-17.0-2.3,57834,List2B,black,woman,,,,null,,,,
7404,,,survey-text,261,1244523,0.0-17.0-3.3,57834,List2B,black,woman,,,,,"{""Q0"":""Dave and Jane ""}","<img src=""stim_listB/kiss2.gif""</stim_listB>",are kissing each other,
null,"<div style=""font-size:60px;"">+</div>",,html-keyboard-response,262,1245027,0.0-17.0-0.4,57834,List2B,black,woman,,,,null,,,,
null,"<img src=""stim_listB/shout7.gif""</stim_listB>",,html-keyboard-response,263,1247032,0.0-17.0-1.4,57834,List2B,black,woman,,,,null,,,,
null,is shouting at,,html-keyboard-response,264,1249044,0.0-17.0-2.4,57834,List2B,black,woman,,,,null,,,,
3744,,,survey-text,265,1252793,0.0-17.0-3.4,57834,List2B,black,woman,,,,,"{""Q0"":""Na""}","<img src=""stim_listB/shout7.gif""</stim_listB>",is shouting at,
null,"<div style=""font-size:60px;"">+</div>",,html-keyboard-response,266,1253297,0.0-17.0-0.5,57834,List2B,black,woman,,,,null,,,,
null,"<img src=""stim_listB/touch1.gif""</stim_listB>",,html-keyboard-response,267,1255303,0.0-17.0-1.5,57834,List2B,black,woman,,,,null,,,,
null,is touching,,html-keyboard-response,268,1257307,0.0-17.0-2.5,57834,List2B,black,woman,,,,null,,,,
10616,,,survey-text,269,1267927,0.0-17.0-3.5,57834,List2B,black,woman,,,,,"{""Q0"":""Dave is touching Jane ""}","<img src=""stim_listB/touch1.gif""</stim_listB>",is touching,
null,"<div style=""font-size:60px;"">+</div>",,html-keyboard-response,270,1268436,0.0-17.0-0.6,57834,List2B,black,woman,,,,null,,,,
null,"<img src=""stim_listB/fight6.gif""</stim_listB>",,html-keyboard-response,271,1270441,0.0-17.0-1.6,57834,List2B,black,woman,,,,null,,,,
null,are fighting each other,,html-keyboard-response,272,1272446,0.0-17.0-2.6,57834,List2B,black,woman,,,,null,,,,
13995,,,survey-text,273,1286445,0.0-17.0-3.6,57834,List2B,black,woman,,,,,"{""Q0"":""Fred and luke ""}","<img src=""stim_listB/fight6.gif""</stim_listB>",are fighting each other,
null,"<div style=""font-size:60px;"">+</div>",,html-keyboard-response,274,1286948,0.0-17.0-0.7,57834,List2B,black,woman,,,,null,,,,
null,"<img src=""stim_listB/meet7.gif""</stim_listB>",,html-keyboard-response,275,1288956,0.0-17.0-1.7,57834,List2B,black,woman,,,,null,,,,
null,is meeting,,html-keyboard-response,276,1290968,0.0-17.0-2.7,57834,List2B,black,woman,,,,null,,,,
9744,,,survey-text,277,1300717,0.0-17.0-3.7,57834,List2B,black,woman,,,,,"{""Q0"":""Kate and Jane ""}","<img src=""stim_listB/meet7.gif""</stim_listB>",is meeting,
null,"<div style=""font-size:60px;"">+</div>",,html-keyboard-response,278,1301222,0.0-17.0-0.8,57834,List2B,black,woman,,,,null,,,,
null,"<img src=""stim_listB/argue1.gif""</stim_listB>",,html-keyboard-response,279,1303226,0.0-17.0-1.8,57834,List2B,black,woman,,,,null,,,,
null,is arguing with,,html-keyboard-response,280,1305230,0.0-17.0-2.8,57834,List2B,black,woman,,,,null,,,,
14540,,,survey-text,281,1319774,0.0-17.0-3.8,57834,List2B,black,woman,,,,,"{""Q0"":""Dave is arguing with Ruth ""}","<img src=""stim_listB/argue1.gif""</stim_listB>",is arguing with,
null,"<div style=""font-size:60px;"">+</div>",,html-keyboard-response,282,1320277,0.0-17.0-0.9,57834,List2B,black,woman,,,,null,,,,
null,"<img src=""stim_listB/meet1.gif""</stim_listB>",,html-keyboard-response,283,1322283,0.0-17.0-1.9,57834,List2B,black,woman,,,,null,,,,
null,is meeting,,html-keyboard-response,284,1324287,0.0-17.0-2.9,57834,List2B,black,woman,,,,null,,,,
11808,,,survey-text,285,1336100,0.0-17.0-3.9,57834,List2B,black,woman,,,,,"{""Q0"":""Jane is meeting Dave ""}","<img src=""stim_listB/meet1.gif""</stim_listB>",is meeting,
null,"<div style=""font-size:60px;"">+</div>",,html-keyboard-response,286,1336606,0.0-17.0-0.10,57834,List2B,black,woman,,,,null,,,,
null,"<img src=""stim_listB/marry1.gif""</stim_listB>",,html-keyboard-response,287,1338611,0.0-17.0-1.10,57834,List2B,black,woman,,,,null,,,,
null,is marrying,,html-keyboard-response,288,1340618,0.0-17.0-2.10,57834,List2B,black,woman,,,,null,,,,
17417,,,survey-text,289,1358038,0.0-17.0-3.10,57834,List2B,black,woman,,,,,"{""Q0"":""Ruth is marrying Dave ""}","<img src=""stim_listB/marry1.gif""</stim_listB>",is marrying,
null,"<div style=""font-size:60px;"">+</div>",,html-keyboard-response,290,1358541,0.0-17.0-0.11,57834,List2B,black,woman,,,,null,,,,
null,"<img src=""stim_listB/dance3.gif""</stim_listB>",,html-keyboard-response,291,1360546,0.0-17.0-1.11,57834,List2B,black,woman,,,,null,,,,
null,is dancing with,,html-keyboard-response,292,1362551,0.0-17.0-2.11,57834,List2B,black,woman,,,,null,,,,
11580,,,survey-text,293,1374136,0.0-17.0-3.11,57834,List2B,black,woman,,,,,"{""Q0"":""Fred is dancing with Kate ""}","<img src=""stim_listB/dance3.gif""</stim_listB>",is dancing with,
null,"<div style=""font-size:60px;"">+</div>",,html-keyboard-response,294,1374641,0.0-17.0-0.12,57834,List2B,black,woman,,,,null,,,,
null,"<img src=""stim_listB/meet8.gif""</stim_listB>",,html-keyboard-response,295,1376647,0.0-17.0-1.12,57834,List2B,black,woman,,,,null,,,,
null,are meeting each other,,html-keyboard-response,296,1378651,0.0-17.0-2.12,57834,List2B,black,woman,,,,null,,,,
10925,,,survey-text,297,1389579,0.0-17.0-3.12,57834,List2B,black,woman,,,,,"{""Q0"":""Beth and Kate ""}","<img src=""stim_listB/meet8.gif""</stim_listB>",are meeting each other,
null,"<div style=""font-size:60px;"">+</div>",,html-keyboard-response,298,1390085,0.0-17.0-0.13,57834,List2B,black,woman,,,,null,,,,
null,"<img src=""stim_listB/dance4.gif""</stim_listB>",,html-keyboard-response,299,1392089,0.0-17.0-1.13,57834,List2B,black,woman,,,,null,,,,
null,are dancing with each other,,html-keyboard-response,300,1394092,0.0-17.0-2.13,57834,List2B,black,woman,,,,null,,,,
21559,,,survey-text,301,1415655,0.0-17.0-3.13,57834,List2B,black,woman,,,,,"{""Q0"":""Mike and Beth are dancing with each other ""}","<img src=""stim_listB/dance4.gif""</stim_listB>",are dancing with each other,
null,"<div style=""font-size:60px;"">+</div>",,html-keyboard-response,302,1416163,0.0-17.0-0.14,57834,List2B,black,woman,,,,null,,,,
null,"<img src=""stim_listB/touch5.gif""</stim_listB>",,html-keyboard-response,303,1418168,0.0-17.0-1.14,57834,List2B,black,woman,,,,null,,,,
null,is touching,,html-keyboard-response,304,1420171,0.0-17.0-2.14,57834,List2B,black,woman,,,,null,,,,
8577,,,survey-text,305,1428752,0.0-17.0-3.14,57834,List2B,black,woman,,,,,"{""Q0"":""Mike is touching Dave ""}","<img src=""stim_listB/touch5.gif""</stim_listB>",is touching,
null,"<div style=""font-size:60px;"">+</div>",,html-keyboard-response,306,1429257,0.0-17.0-0.15,57834,List2B,black,woman,,,,null,,,,
null,"<img src=""stim_listB/argue6.gif""</stim_listB>",,html-keyboard-response,307,1431264,0.0-17.0-1.15,57834,List2B,black,woman,,,,null,,,,
null,are arguing with each other,,html-keyboard-response,308,1433270,0.0-17.0-2.15,57834,List2B,black,woman,,,,null,,,,
20466,,,survey-text,309,1453741,0.0-17.0-3.15,57834,List2B,black,woman,,,,,"{""Q0"":""Mike and Luke are touching each other ""}","<img src=""stim_listB/argue6.gif""</stim_listB>",are arguing with each other,
null,"<div style=""font-size:60px;"">+</div>",,html-keyboard-response,310,1454247,0.0-17.0-0.16,57834,List2B,black,woman,,,,null,,,,
null,"<img src=""stim_listB/talk7.gif""</stim_listB>",,html-keyboard-response,311,1456253,0.0-17.0-1.16,57834,List2B,black,woman,,,,null,,,,
null,is talking to,,html-keyboard-response,312,1458256,0.0-17.0-2.16,57834,List2B,black,woman,,,,null,,,,
9287,,,survey-text,313,1467547,0.0-17.0-3.16,57834,List2B,black,woman,,,,,"{""Q0"":""Na""}","<img src=""stim_listB/talk7.gif""</stim_listB>",is talking to,
null,"<div style=""font-size:60px;"">+</div>",,html-keyboard-response,314,1468051,0.0-17.0-0.17,57834,List2B,black,woman,,,,null,,,,
null,"<img src=""stim_listB/kiss5.gif""</stim_listB>",,html-keyboard-response,315,1470058,0.0-17.0-1.17,57834,List2B,black,woman,,,,null,,,,
null,is kissing,,html-keyboard-response,316,1472062,0.0-17.0-2.17,57834,List2B,black,woman,,,,null,,,,
10656,,,survey-text,317,1482723,0.0-17.0-3.17,57834,List2B,black,woman,,,,,"{""Q0"":""Fred is kisssing Luke ""}","<img src=""stim_listB/kiss5.gif""</stim_listB>",is kissing,
null,"<div style=""font-size:60px;"">+</div>",,html-keyboard-response,318,1483229,0.0-17.0-0.18,57834,List2B,black,woman,,,,null,,,,
null,"<img src=""stim_listB/kiss4.gif""</stim_listB>",,html-keyboard-response,319,1485233,0.0-17.0-1.18,57834,List2B,black,woman,,,,null,,,,
null,are kissing each other,,html-keyboard-response,320,1487237,0.0-17.0-2.18,57834,List2B,black,woman,,,,null,,,,
15858,,,survey-text,321,1503101,0.0-17.0-3.18,57834,List2B,black,woman,,,,,"{""Q0"":""Kate and mike are kissing each other ""}","<img src=""stim_listB/kiss4.gif""</stim_listB>",are kissing each other,
null,"<div style=""font-size:60px;"">+</div>",,html-keyboard-response,322,1503606,0.0-17.0-0.19,57834,List2B,black,woman,,,,null,,,,
null,"<img src=""stim_listB/touch3.gif""</stim_listB>",,html-keyboard-response,323,1505611,0.0-17.0-1.19,57834,List2B,black,woman,,,,null,,,,
null,is touching,,html-keyboard-response,324,1507616,0.0-17.0-2.19,57834,List2B,black,woman,,,,null,,,,
10263,,,survey-text,325,1517882,0.0-17.0-3.19,57834,List2B,black,woman,,,,,"{""Q0"":""Kate is touching mike""}","<img src=""stim_listB/touch3.gif""</stim_listB>",is touching,
3238,"<img src='img/portrait_matrix_list2.JPG' style='width:900px;height:500px;''></img><p>If you have memorised all the portraits and names and are ready to start, press Continue.</p><p><strong>Please note: Your memory of these faces will be tested 4 times during this experiment.</strong></p>",0,html-button-response,326,1521124,0.0-18.0-0.0,57834,List2B,black,woman,,,,,,,,
3060,"<img src=""portrait/BM2.jpg""style=""width:400px;height:400px;""></img>",5,html-button-response,327,1525191,0.0-18.0-1.0,57834,List2B,black,woman,,TRUE,5,,,,,
null,CORRECT,,html-keyboard-response,328,1526696,0.0-18.0-2.0-0.0,57834,List2B,black,woman,,,,null,,,,
4472,"<img src=""portrait/WW1.jpg""style=""width:400px;height:400px;""></img>",1,html-button-response,329,1531177,0.0-18.0-4.0,57834,List2B,black,woman,,TRUE,1,,,,,
null,CORRECT,,html-keyboard-response,330,1532681,0.0-18.0-5.0-0.0,57834,List2B,black,woman,,,,null,,,,
1450,"<img src=""portrait/BW2.jpg""style=""width:400px;height:400px;""></img>",2,html-button-response,331,1534146,0.0-18.0-7.0,57834,List2B,black,woman,,TRUE,2,,,,,
null,CORRECT,,html-keyboard-response,332,1535652,0.0-18.0-8.0-0.0,57834,List2B,black,woman,,,,null,,,,
2206,"<img src=""portrait/WM2.jpg""style=""width:400px;height:400px;""></img>",7,html-button-response,333,1537863,0.0-18.0-10.0,57834,List2B,black,woman,,TRUE,7,,,,,
null,CORRECT,,html-keyboard-response,334,1539368,0.0-18.0-11.0-0.0,57834,List2B,black,woman,,,,null,,,,
1772,"<img src=""portrait/BM1.jpg""style=""width:400px;height:400px;""></img>",4,html-button-response,335,1541149,0.0-18.0-13.0,57834,List2B,black,woman,,TRUE,4,,,,,
null,CORRECT,,html-keyboard-response,336,1542653,0.0-18.0-14.0-0.0,57834,List2B,black,woman,,,,null,,,,
2856,"<img src=""portrait/WM1.jpg""style=""width:400px;height:400px;""></img>",6,html-button-response,337,1545517,0.0-18.0-16.0,57834,List2B,black,woman,,TRUE,6,,,,,
null,CORRECT,,html-keyboard-response,338,1547022,0.0-18.0-17.0-0.0,57834,List2B,black,woman,,,,null,,,,
2473,"<img src=""portrait/WW2.jpg""style=""width:400px;height:400px;""></img>",3,html-button-response,339,1549503,0.0-18.0-19.0,57834,List2B,black,woman,,TRUE,3,,,,,
null,CORRECT,,html-keyboard-response,340,1551007,0.0-18.0-20.0-0.0,57834,List2B,black,woman,,,,null,,,,
3142,"<img src=""portrait/BW1.jpg""style=""width:400px;height:400px;""></img>",0,html-button-response,341,1554155,0.0-18.0-22.0,57834,List2B,black,woman,,TRUE,0,,,,,
null,CORRECT,,html-keyboard-response,342,1555660,0.0-18.0-23.0-0.0,57834,List2B,black,woman,,,,null,,,,
1305,<p>You got 8 out of 8 right first time. Press Continue.</p>,0,html-button-response,343,1556973,0.0-18.0-25.0,57834,List2B,black,woman,,,,,,,,
null,"<div style=""font-size:60px;"">+</div>",,html-keyboard-response,344,1558482,0.0-19.0-0.0,57834,List2B,black,woman,,,,null,,,,
null,"<img src=""stim_listB/meet5.gif""</stim_listB>",,html-keyboard-response,345,1560487,0.0-19.0-1.0,57834,List2B,black,woman,,,,null,,,,
null,is meeting,,html-keyboard-response,346,1562492,0.0-19.0-2.0,57834,List2B,black,woman,,,,null,,,,
11216,,,survey-text,347,1573713,0.0-19.0-3.0,57834,List2B,black,woman,,,,,"{""Q0"":""Mike is meeting Dave ""}","<img src=""stim_listB/meet5.gif""</stim_listB>",is meeting,
null,"<div style=""font-size:60px;"">+</div>",,html-keyboard-response,348,1574223,0.0-19.0-0.1,57834,List2B,black,woman,,,,null,,,,
null,"<img src=""stim_listB/argue7.gif""</stim_listB>",,html-keyboard-response,349,1576228,0.0-19.0-1.1,57834,List2B,black,woman,,,,null,,,,
null,is arguing with,,html-keyboard-response,350,1578232,0.0-19.0-2.1,57834,List2B,black,woman,,,,null,,,,
14689,,,survey-text,351,1592925,0.0-19.0-3.1,57834,List2B,black,woman,,,,,"{""Q0"":""Jane is arguing with Beth ""}","<img src=""stim_listB/argue7.gif""</stim_listB>",is arguing with,
null,"<div style=""font-size:60px;"">+</div>",,html-keyboard-response,352,1593428,0.0-19.0-0.2,57834,List2B,black,woman,,,,null,,,,
null,"<img src=""stim_listB/kiss6.gif""</stim_listB>",,html-keyboard-response,353,1595434,0.0-19.0-1.2,57834,List2B,black,woman,,,,null,,,,
null,are kissing each other,,html-keyboard-response,354,1597438,0.0-19.0-2.2,57834,List2B,black,woman,,,,null,,,,
15295,,,survey-text,355,1612736,0.0-19.0-3.2,57834,List2B,black,woman,,,,,"{""Q0"":""Mike and Dave are kissing each other ""}","<img src=""stim_listB/kiss6.gif""</stim_listB>",are kissing each other,
null,"<div style=""font-size:60px;"">+</div>",,html-keyboard-response,356,1613240,0.0-19.0-0.3,57834,List2B,black,woman,,,,null,,,,
null,"<img src=""stim_listB/touch8.gif""</stim_listB>",,html-keyboard-response,357,1615248,0.0-19.0-1.3,57834,List2B,black,woman,,,,null,,,,
null,are touching each other,,html-keyboard-response,358,1617252,0.0-19.0-2.3,57834,List2B,black,woman,,,,null,,,,
21732,,,survey-text,359,1638987,0.0-19.0-3.3,57834,List2B,black,woman,,,,,"{""Q0"":""Ruth and Beth are touching each other ""}","<img src=""stim_listB/touch8.gif""</stim_listB>",are touching each other,
null,"<div style=""font-size:60px;"">+</div>",,html-keyboard-response,360,1639494,0.0-19.0-0.4,57834,List2B,black,woman,,,,null,,,,
null,"<img src=""stim_listB/touch6.gif""</stim_listB>",,html-keyboard-response,361,1641498,0.0-19.0-1.4,57834,List2B,black,woman,,,,null,,,,
null,are touching each other,,html-keyboard-response,362,1643502,0.0-19.0-2.4,57834,List2B,black,woman,,,,null,,,,
68985,,,survey-text,363,1712489,0.0-19.0-3.4,57834,List2B,black,woman,,,,,"{""Q0"":""Fred and mike ""}","<img src=""stim_listB/touch6.gif""</stim_listB>",are touching each other,
null,"<div style=""font-size:60px;"">+</div>",,html-keyboard-response,364,1712996,0.0-19.0-0.5,57834,List2B,black,woman,,,,null,,,,
null,"<img src=""stim_listB/hug7.gif""</stim_listB>",,html-keyboard-response,365,1715001,0.0-19.0-1.5,57834,List2B,black,woman,,,,null,,,,
null,is hugging,,html-keyboard-response,366,1717005,0.0-19.0-2.5,57834,List2B,black,woman,,,,null,,,,
27327,,,survey-text,367,1744335,0.0-19.0-3.5,57834,List2B,black,woman,,,,,"{""Q0"":""Beth is hugging Ruth ""}","<img src=""stim_listB/hug7.gif""</stim_listB>",is hugging,
null,"<div style=""font-size:60px;"">+</div>",,html-keyboard-response,368,1744839,0.0-19.0-0.6,57834,List2B,black,woman,,,,null,,,,
null,"<img src=""stim_listB/talk8.gif""</stim_listB>",,html-keyboard-response,369,1746845,0.0-19.0-1.6,57834,List2B,black,woman,,,,null,,,,
null,are talking to each other,,html-keyboard-response,370,1748850,0.0-19.0-2.6,57834,List2B,black,woman,,,,null,,,,
22586,,,survey-text,371,1771439,0.0-19.0-3.6,57834,List2B,black,woman,,,,,"{""Q0"":""Jane and Beth are talking to each other ""}","<img src=""stim_listB/talk8.gif""</stim_listB>",are talking to each other,
null,"<div style=""font-size:60px;"">+</div>",,html-keyboard-response,372,1771942,0.0-19.0-0.7,57834,List2B,black,woman,,,,null,,,,
null,"<img src=""stim_listB/talk5.gif""</stim_listB>",,html-keyboard-response,373,1773947,0.0-19.0-1.7,57834,List2B,black,woman,,,,null,,,,
null,is talking to,,html-keyboard-response,374,1775951,0.0-19.0-2.7,57834,List2B,black,woman,,,,null,,,,
8433,,,survey-text,375,1784390,0.0-19.0-3.7,57834,List2B,black,woman,,,,,"{""Q0"":""Mike is talking to Luke ""}","<img src=""stim_listB/talk5.gif""</stim_listB>",is talking to,
null,"<div style=""font-size:60px;"">+</div>",,html-keyboard-response,376,1784895,0.0-19.0-0.8,57834,List2B,black,woman,,,,null,,,,
null,"<img src=""stim_listB/fight3.gif""</stim_listB>",,html-keyboard-response,377,1786901,0.0-19.0-1.8,57834,List2B,black,woman,,,,null,,,,
null,is fighting,,html-keyboard-response,378,1788905,0.0-19.0-2.8,57834,List2B,black,woman,,,,null,,,,
3482,,,survey-text,379,1792391,0.0-19.0-3.8,57834,List2B,black,woman,,,,,"{""Q0"":""Na""}","<img src=""stim_listB/fight3.gif""</stim_listB>",is fighting,
null,"<div style=""font-size:60px;"">+</div>",,html-keyboard-response,380,1792895,0.0-19.0-0.9,57834,List2B,black,woman,,,,null,,,,
null,"<img src=""stim_listB/argue3.gif""</stim_listB>",,html-keyboard-response,381,1794901,0.0-19.0-1.9,57834,List2B,black,woman,,,,null,,,,
null,is arguing with,,html-keyboard-response,382,1796907,0.0-19.0-2.9,57834,List2B,black,woman,,,,null,,,,
3968,,,survey-text,383,1800880,0.0-19.0-3.9,57834,List2B,black,woman,,,,,"{""Q0"":""No""}","<img src=""stim_listB/argue3.gif""</stim_listB>",is arguing with,
null,"<div style=""font-size:60px;"">+</div>",,html-keyboard-response,384,1801387,0.0-19.0-0.10,57834,List2B,black,woman,,,,null,,,,
null,"<img src=""stim_listB/marry7.gif""</stim_listB>",,html-keyboard-response,385,1803392,0.0-19.0-1.10,57834,List2B,black,woman,,,,null,,,,
null,is marrying,,html-keyboard-response,386,1805397,0.0-19.0-2.10,57834,List2B,black,woman,,,,null,,,,
10202,,,survey-text,387,1815603,0.0-19.0-3.10,57834,List2B,black,woman,,,,,"{""Q0"":""Jane is marrying Beth ""}","<img src=""stim_listB/marry7.gif""</stim_listB>",is marrying,
null,"<div style=""font-size:60px;"">+</div>",,html-keyboard-response,388,1816108,0.0-19.0-0.11,57834,List2B,black,woman,,,,null,,,,
null,"<img src=""stim_listB/fight1.gif""</stim_listB>",,html-keyboard-response,389,1818113,0.0-19.0-1.11,57834,List2B,black,woman,,,,null,,,,
null,is fighting,,html-keyboard-response,390,1820117,0.0-19.0-2.11,57834,List2B,black,woman,,,,null,,,,
14707,,,survey-text,391,1834828,0.0-19.0-3.11,57834,List2B,black,woman,,,,,"{""Q0"":""Jane is fighting Dave ""}","<img src=""stim_listB/fight1.gif""</stim_listB>",is fighting,
null,"<div style=""font-size:60px;"">+</div>",,html-keyboard-response,392,1835331,0.0-19.0-0.12,57834,List2B,black,woman,,,,null,,,,
null,"<img src=""stim_listB/fight2.gif""</stim_listB>",,html-keyboard-response,393,1837336,0.0-19.0-1.12,57834,List2B,black,woman,,,,null,,,,
null,are fighting each other,,html-keyboard-response,394,1839339,0.0-19.0-2.12,57834,List2B,black,woman,,,,null,,,,
52835,,,survey-text,395,1892179,0.0-19.0-3.12,57834,List2B,black,woman,,,,,"{""Q0"":""Luke ""}","<img src=""stim_listB/fight2.gif""</stim_listB>",are fighting each other,
null,"<div style=""font-size:60px;"">+</div>",,html-keyboard-response,396,1892683,0.0-19.0-0.13,57834,List2B,black,woman,,,,null,,,,
null,"<img src=""stim_listB/fight5.gif""</stim_listB>",,html-keyboard-response,397,1894706,0.0-19.0-1.13,57834,List2B,black,woman,,,,null,,,,
null,is fighting,,html-keyboard-response,398,1896711,0.0-19.0-2.13,57834,List2B,black,woman,,,,null,,,,
47369,,,survey-text,399,1944082,0.0-19.0-3.13,57834,List2B,black,woman,,,,,"{""Q0"":""Is fighting ""}","<img src=""stim_listB/fight5.gif""</stim_listB>",is fighting,
null,"<div style=""font-size:60px;"">+</div>",,html-keyboard-response,400,1944588,0.0-19.0-0.14,57834,List2B,black,woman,,,,null,,,,
null,"<img src=""stim_listB/hug4.gif""</stim_listB>",,html-keyboard-response,401,1946594,0.0-19.0-1.14,57834,List2B,black,woman,,,,null,,,,
null,are hugging each other,,html-keyboard-response,402,1948598,0.0-19.0-2.14,57834,List2B,black,woman,,,,null,,,,
13889,,,survey-text,403,1962490,0.0-19.0-3.14,57834,List2B,black,woman,,,,,"{""Q0"":""Na""}","<img src=""stim_listB/hug4.gif""</stim_listB>",are hugging each other,
null,"<div style=""font-size:60px;"">+</div>",,html-keyboard-response,404,1962994,0.0-19.0-0.15,57834,List2B,black,woman,,,,null,,,,
null,"<img src=""stim_listB/meet3.gif""</stim_listB>",,html-keyboard-response,405,1965000,0.0-19.0-1.15,57834,List2B,black,woman,,,,null,,,,
null,is meeting,,html-keyboard-response,406,1967004,0.0-19.0-2.15,57834,List2B,black,woman,,,,null,,,,
10191,,,survey-text,407,1977199,0.0-19.0-3.15,57834,List2B,black,woman,,,,,"{""Q0"":""Kate is meeting mike""}","<img src=""stim_listB/meet3.gif""</stim_listB>",is meeting,
null,"<div style=""font-size:60px;"">+</div>",,html-keyboard-response,408,1977704,0.0-19.0-0.16,57834,List2B,black,woman,,,,null,,,,
null,"<img src=""stim_listB/marry8.gif""</stim_listB>",,html-keyboard-response,409,1979710,0.0-19.0-1.16,57834,List2B,black,woman,,,,null,,,,
null,are marrying each other,,html-keyboard-response,410,1981714,0.0-19.0-2.16,57834,List2B,black,woman,,,,null,,,,
4262,,,survey-text,411,1985979,0.0-19.0-3.16,57834,List2B,black,woman,,,,,"{""Q0"":""Na""}","<img src=""stim_listB/marry8.gif""</stim_listB>",are marrying each other,
null,"<div style=""font-size:60px;"">+</div>",,html-keyboard-response,412,1986482,0.0-19.0-0.17,57834,List2B,black,woman,,,,null,,,,
null,"<img src=""stim_listB/hug6.gif""</stim_listB>",,html-keyboard-response,413,1988486,0.0-19.0-1.17,57834,List2B,black,woman,,,,null,,,,
null,are hugging each other,,html-keyboard-response,414,1990490,0.0-19.0-2.17,57834,List2B,black,woman,,,,null,,,,
6399,,,survey-text,415,1996895,0.0-19.0-3.17,57834,List2B,black,woman,,,,,"{""Q0"":""Mike and Dave ""}","<img src=""stim_listB/hug6.gif""</stim_listB>",are hugging each other,
null,"<div style=""font-size:60px;"">+</div>",,html-keyboard-response,416,1997400,0.0-19.0-0.18,57834,List2B,black,woman,,,,null,,,,
null,"<img src=""stim_listB/dance1.gif""</stim_listB>",,html-keyboard-response,417,1999405,0.0-19.0-1.18,57834,List2B,black,woman,,,,null,,,,
null,is dancing with,,html-keyboard-response,418,2001409,0.0-19.0-2.18,57834,List2B,black,woman,,,,null,,,,
17603,,,survey-text,419,2019016,0.0-19.0-3.18,57834,List2B,black,woman,,,,,"{""Q0"":""Is dancing with""}","<img src=""stim_listB/dance1.gif""</stim_listB>",is dancing with,
null,"<div style=""font-size:60px;"">+</div>",,html-keyboard-response,420,2019519,0.0-19.0-0.19,57834,List2B,black,woman,,,,null,,,,
null,"<img src=""stim_listB/kiss3.gif""</stim_listB>",,html-keyboard-response,421,2021524,0.0-19.0-1.19,57834,List2B,black,woman,,,,null,,,,
null,is kissing,,html-keyboard-response,422,2023528,0.0-19.0-2.19,57834,List2B,black,woman,,,,null,,,,
11729,,,survey-text,423,2035261,0.0-19.0-3.19,57834,List2B,black,woman,,,,,"{""Q0"":""Fred is kissing Beth ""}","<img src=""stim_listB/kiss3.gif""</stim_listB>",is kissing,
3525,<p>Thank you for completing that task.</p><p>The final part of this session is a short questionnaire.</p><p>Press Continue.</p>,0,html-button-response,424,2038792,0.0-20.0,57834,List2B,black,woman,,,,,,,,
35002,,,survey-text,425,2074801,0.0-21.0,57834,List2B,black,woman,,,,,"{""Q0"":""19"",""Q1"":""English"",""Q2"":""English "",""Q3"":""England "",""Q4"":""Black African British "",""Q5"":""Female""}",,,demographics
50395,,,survey-likert,426,2125255,0.0-22.0,57834,List2B,black,woman,,,,,"{""Q0"":5,""Q1"":5,""Q2"":5,""Q3"":6,""Q4"":6,""Q5"":6,""Q6"":6,""Q7"":3,""Q8"":1,""Q9"":3,""Q10"":2,""Q11"":1,""Q12"":2,""Q13"":1}",,,likert_race
53774,,,survey-likert,427,2179045,0.0-23.0,57834,List2B,black,woman,,,,,"{""Q0"":3,""Q1"":3,""Q2"":4,""Q3"":4,""Q4"":4,""Q5"":5,""Q6"":3,""Q7"":3,""Q8"":0,""Q9"":0,""Q10"":4,""Q11"":3,""Q12"":2,""Q13"":3}",,,likert_gender
70590,,,survey-text,428,2249648,0.0-24.0,57834,List2B,black,woman,,,,,"{""Q0"":""ccc""}",,,worker_id
9472,,,external-html,429,2259390,0.0-25.0,57834,List2B,black,woman,debrief.html,,,,,,,
