rt,stimulus,button_pressed,trial_type,trial_index,time_elapsed,internal_node_id,subject,list,ppt_race,ppt_gender,url,first_guess,correct,key_press,responses,image_type,phrase_type,test_part
1902,Welcome to the experiment. Press Continue to begin.,0,html-button-response,0,1909,0.0-0.0,57837,List1A,black,man,,,,,,,,
11352,,,external-html,1,14404,0.0-1.0,57837,List1A,black,man,consent.html,,,,,,,
2052,"<p>On the next page, you will see portraits of 8 people and their names.</p><p>Your first task is to take a few minutes to memorise the names of these people.</p><p>You will have to recall their names during the rest of the experiment, so it is</p><p>essential that you try to memorise these people and their names as best as you can.</p><br><p><strong>You will then be tested on your memory of these names and portraits.</strong></p><br><p>The experiment will start after you have completed this memory test.</p><br><p>Ready?</p>",0,html-button-response,2,16468,0.0-2.0,57837,List1A,black,man,,,,,,,,
31843,"<img src='img/portrait_matrix_list1.JPG' style='width:900px;height:500px;''></img><p>If you have memorised all the portraits and names and are ready to start, press Continue.</p><p><strong>Please note: Your memory of these faces will be tested 4 times during this experiment.</strong></p>",0,html-button-response,3,49318,0.0-3.0-0.0,57837,List1A,black,man,,,,,,,,
5541,"<img src=""portrait/BW1.jpg""style=""width:400px;height:400px;""></img>",0,html-button-response,4,55869,0.0-3.0-1.0,57837,List1A,black,man,,TRUE,0,,,,,
null,CORRECT,,html-keyboard-response,5,57388,0.0-3.0-2.0-0.0,57837,List1A,black,man,,,,null,,,,
3940,"<img src=""portrait/BM2.jpg""style=""width:400px;height:400px;""></img>",5,html-button-response,6,61336,0.0-3.0-4.0,57837,List1A,black,man,,TRUE,5,,,,,
null,CORRECT,,html-keyboard-response,7,62841,0.0-3.0-5.0-0.0,57837,List1A,black,man,,,,null,,,,
4821,"<img src=""portrait/WW1.jpg""style=""width:400px;height:400px;""></img>",1,html-button-response,8,67669,0.0-3.0-7.0,57837,List1A,black,man,,TRUE,1,,,,,
null,CORRECT,,html-keyboard-response,9,69173,0.0-3.0-8.0-0.0,57837,List1A,black,man,,,,null,,,,
4338,"<img src=""portrait/WM1.jpg""style=""width:400px;height:400px;""></img>",6,html-button-response,10,73522,0.0-3.0-10.0,57837,List1A,black,man,,TRUE,6,,,,,
null,CORRECT,,html-keyboard-response,11,75026,0.0-3.0-11.0-0.0,57837,List1A,black,man,,,,null,,,,
3634,"<img src=""portrait/WW2.jpg""style=""width:400px;height:400px;""></img>",3,html-button-response,12,78668,0.0-3.0-13.0,57837,List1A,black,man,,TRUE,3,,,,,
null,CORRECT,,html-keyboard-response,13,80173,0.0-3.0-14.0-0.0,57837,List1A,black,man,,,,null,,,,
7005,"<img src=""portrait/BM1.jpg""style=""width:400px;height:400px;""></img>",4,html-button-response,14,87187,0.0-3.0-16.0,57837,List1A,black,man,,TRUE,4,,,,,
null,CORRECT,,html-keyboard-response,15,88691,0.0-3.0-17.0-0.0,57837,List1A,black,man,,,,null,,,,
3687,"<img src=""portrait/BW2.jpg""style=""width:400px;height:400px;""></img>",2,html-button-response,16,92387,0.0-3.0-19.0,57837,List1A,black,man,,TRUE,2,,,,,
null,CORRECT,,html-keyboard-response,17,93891,0.0-3.0-20.0-0.0,57837,List1A,black,man,,,,null,,,,
2916,"<img src=""portrait/WM2.jpg""style=""width:400px;height:400px;""></img>",7,html-button-response,18,96812,0.0-3.0-22.0,57837,List1A,black,man,,TRUE,7,,,,,
null,CORRECT,,html-keyboard-response,19,98316,0.0-3.0-23.0-0.0,57837,List1A,black,man,,,,null,,,,
1330,<p>You got 8 out of 8 right first time. Press Continue.</p>,0,html-button-response,20,99651,0.0-3.0-25.0,57837,List1A,black,man,,,,,,,,
6290,"<p>In this experiment, you will view photographs of the people from the memory game interacting.</p><p>By using the <strong>exact</strong> phrase given <i>after</i> the photograph appears and recalling the correct names of the people in the photographs, form a sentence describing the interaction. You do not need to capitalise names.</p><p>Type your answer in the space provided. Please complete every sentence before moving onto the next trial.</p><p>You will only have a few seconds to memorise each given photograph and phrase before you can respond, so try your best to focus.</p><p>An example is given below. Press 'Continue' when you are ready.</p><img src='img/speaking_example_v2.jpg' style='width:800px;height:460px;''></img>",0,html-button-response,21,106952,0.0-4.0,57837,List1A,black,man,,,,,,,,
1725,"<p>Before the experiment starts, you will watch two example trials. Press 'Continue'.</p>",0,html-button-response,22,109682,0.0-5.0,57837,List1A,black,man,,,,,,,,
null,<img src='img/speaking_WW.gif'></img>,,html-keyboard-response,23,112687,0.0-6.0,57837,List1A,black,man,,,,null,,,,
null,<p>is speaking to</p>,,html-keyboard-response,24,114692,0.0-7.0,57837,List1A,black,man,,,,null,,,,
1624,<p><b>Answer:</b> kate is speaking to beth</p>,0,html-button-response,25,116319,0.0-8.0,57837,List1A,black,man,,,,,,,,
null,<img src='img/pointing_BM.gif'></img>,,html-keyboard-response,26,119324,0.0-9.0,57837,List1A,black,man,,,,null,,,,
null,<p>are pointing at each other</p>,,html-keyboard-response,27,121329,0.0-10.0,57837,List1A,black,man,,,,null,,,,
1153,<p><b>Answer:</b> luke and dave are pointing at each other</p>,0,html-button-response,28,122487,0.0-11.0,57837,List1A,black,man,,,,,,,,
1112,"<p>Ready to start the experiment?</p><br><p><strong>Remember to describe the picture using a full sentence,</strong></p><p><strong>that combines the names of the people with the given phrase.</strong></p><p><strong>If you do not do this correctly you will not be paid.</strong></p><p><strong> You do not need to capitalise names or use punctuation.</strong></p><br><p>Press 'Continue' to begin.</p>",0,html-button-response,29,124603,0.0-12.0,57837,List1A,black,man,,,,,,,,
null,"<div style=""font-size:60px;"">+</div>",,html-keyboard-response,30,126109,0.0-13.0-0.0,57837,List1A,black,man,,,,null,,,,
null,"<img src=""stim_listA/marry8.gif""</stim_listA>",,html-keyboard-response,31,128115,0.0-13.0-1.0,57837,List1A,black,man,,,,null,,,,
null,are marrying each other,,html-keyboard-response,32,130119,0.0-13.0-2.0,57837,List1A,black,man,,,,null,,,,
14496,,,survey-text,33,144621,0.0-13.0-3.0,57837,List1A,black,man,,,,,"{""Q0"":""Jane and beth""}","<img src=""stim_listA/marry8.gif""</stim_listA>",are marrying each other,
null,"<div style=""font-size:60px;"">+</div>",,html-keyboard-response,34,145126,0.0-13.0-0.1,57837,List1A,black,man,,,,null,,,,
null,"<img src=""stim_listA/talk6.gif""</stim_listA>",,html-keyboard-response,35,147131,0.0-13.0-1.1,57837,List1A,black,man,,,,null,,,,
null,are talking to each other,,html-keyboard-response,36,149135,0.0-13.0-2.1,57837,List1A,black,man,,,,null,,,,
13950,,,survey-text,37,163089,0.0-13.0-3.1,57837,List1A,black,man,,,,,"{""Q0"":""Mike and Luke ""}","<img src=""stim_listA/talk6.gif""</stim_listA>",are talking to each other,
null,"<div style=""font-size:60px;"">+</div>",,html-keyboard-response,38,163592,0.0-13.0-0.2,57837,List1A,black,man,,,,null,,,,
null,"<img src=""stim_listA/kiss5.gif""</stim_listA>",,html-keyboard-response,39,165596,0.0-13.0-1.2,57837,List1A,black,man,,,,null,,,,
null,is kissing,,html-keyboard-response,40,167601,0.0-13.0-2.2,57837,List1A,black,man,,,,null,,,,
6868,,,survey-text,41,174474,0.0-13.0-3.2,57837,List1A,black,man,,,,,"{""Q0"":""Fred and luke""}","<img src=""stim_listA/kiss5.gif""</stim_listA>",is kissing,
null,"<div style=""font-size:60px;"">+</div>",,html-keyboard-response,42,174979,0.0-13.0-0.3,57837,List1A,black,man,,,,null,,,,
null,"<img src=""stim_listA/kiss3.gif""</stim_listA>",,html-keyboard-response,43,176982,0.0-13.0-1.3,57837,List1A,black,man,,,,null,,,,
null,is kissing,,html-keyboard-response,44,178986,0.0-13.0-2.3,57837,List1A,black,man,,,,null,,,,
15587,,,survey-text,45,194577,0.0-13.0-3.3,57837,List1A,black,man,,,,,"{""Q0"":""Ruth and Luke ""}","<img src=""stim_listA/kiss3.gif""</stim_listA>",is kissing,
null,"<div style=""font-size:60px;"">+</div>",,html-keyboard-response,46,195081,0.0-13.0-0.4,57837,List1A,black,man,,,,null,,,,
null,"<img src=""stim_listA/argue3.gif""</stim_listA>",,html-keyboard-response,47,197086,0.0-13.0-1.4,57837,List1A,black,man,,,,null,,,,
null,is arguing with,,html-keyboard-response,48,199091,0.0-13.0-2.4,57837,List1A,black,man,,,,null,,,,
7241,,,survey-text,49,206336,0.0-13.0-3.4,57837,List1A,black,man,,,,,"{""Q0"":""Dave and ruth""}","<img src=""stim_listA/argue3.gif""</stim_listA>",is arguing with,
null,"<div style=""font-size:60px;"">+</div>",,html-keyboard-response,50,206839,0.0-13.0-0.5,57837,List1A,black,man,,,,null,,,,
null,"<img src=""stim_listA/kiss6.gif""</stim_listA>",,html-keyboard-response,51,208842,0.0-13.0-1.5,57837,List1A,black,man,,,,null,,,,
null,are kissing each other,,html-keyboard-response,52,210847,0.0-13.0-2.5,57837,List1A,black,man,,,,null,,,,
5679,,,survey-text,53,216535,0.0-13.0-3.5,57837,List1A,black,man,,,,,"{""Q0"":""Mike and Dave ""}","<img src=""stim_listA/kiss6.gif""</stim_listA>",are kissing each other,
null,"<div style=""font-size:60px;"">+</div>",,html-keyboard-response,54,217037,0.0-13.0-0.6,57837,List1A,black,man,,,,null,,,,
null,"<img src=""stim_listA/argue6.gif""</stim_listA>",,html-keyboard-response,55,219041,0.0-13.0-1.6,57837,List1A,black,man,,,,null,,,,
null,are arguing with each other,,html-keyboard-response,56,221046,0.0-13.0-2.6,57837,List1A,black,man,,,,null,,,,
5557,,,survey-text,57,226607,0.0-13.0-3.6,57837,List1A,black,man,,,,,"{""Q0"":""Dave and Fred ""}","<img src=""stim_listA/argue6.gif""</stim_listA>",are arguing with each other,
null,"<div style=""font-size:60px;"">+</div>",,html-keyboard-response,58,227110,0.0-13.0-0.7,57837,List1A,black,man,,,,null,,,,
null,"<img src=""stim_listA/shout5.gif""</stim_listA>",,html-keyboard-response,59,229116,0.0-13.0-1.7,57837,List1A,black,man,,,,null,,,,
null,is shouting at,,html-keyboard-response,60,231120,0.0-13.0-2.7,57837,List1A,black,man,,,,null,,,,
9438,,,survey-text,61,240562,0.0-13.0-3.7,57837,List1A,black,man,,,,,"{""Q0"":""Fred and Luke ""}","<img src=""stim_listA/shout5.gif""</stim_listA>",is shouting at,
null,"<div style=""font-size:60px;"">+</div>",,html-keyboard-response,62,241067,0.0-13.0-0.8,57837,List1A,black,man,,,,null,,,,
null,"<img src=""stim_listA/touch5.gif""</stim_listA>",,html-keyboard-response,63,243072,0.0-13.0-1.8,57837,List1A,black,man,,,,null,,,,
null,is touching,,html-keyboard-response,64,245077,0.0-13.0-2.8,57837,List1A,black,man,,,,null,,,,
5917,,,survey-text,65,250997,0.0-13.0-3.8,57837,List1A,black,man,,,,,"{""Q0"":""Dave and mike ""}","<img src=""stim_listA/touch5.gif""</stim_listA>",is touching,
null,"<div style=""font-size:60px;"">+</div>",,html-keyboard-response,66,251501,0.0-13.0-0.9,57837,List1A,black,man,,,,null,,,,
null,"<img src=""stim_listA/marry5.gif""</stim_listA>",,html-keyboard-response,67,253506,0.0-13.0-1.9,57837,List1A,black,man,,,,null,,,,
null,is marrying,,html-keyboard-response,68,255517,0.0-13.0-2.9,57837,List1A,black,man,,,,null,,,,
11109,,,survey-text,69,266631,0.0-13.0-3.9,57837,List1A,black,man,,,,,"{""Q0"":""Mike and Luke ""}","<img src=""stim_listA/marry5.gif""</stim_listA>",is marrying,
null,"<div style=""font-size:60px;"">+</div>",,html-keyboard-response,70,267134,0.0-13.0-0.10,57837,List1A,black,man,,,,null,,,,
null,"<img src=""stim_listA/fight3.gif""</stim_listA>",,html-keyboard-response,71,269138,0.0-13.0-1.10,57837,List1A,black,man,,,,null,,,,
null,is fighting,,html-keyboard-response,72,271143,0.0-13.0-2.10,57837,List1A,black,man,,,,null,,,,
5609,,,survey-text,73,276755,0.0-13.0-3.10,57837,List1A,black,man,,,,,"{""Q0"":""Jane and Dave ""}","<img src=""stim_listA/fight3.gif""</stim_listA>",is fighting,
null,"<div style=""font-size:60px;"">+</div>",,html-keyboard-response,74,277258,0.0-13.0-0.11,57837,List1A,black,man,,,,null,,,,
null,"<img src=""stim_listA/shout1.gif""</stim_listA>",,html-keyboard-response,75,279264,0.0-13.0-1.11,57837,List1A,black,man,,,,null,,,,
null,is shouting at,,html-keyboard-response,76,281269,0.0-13.0-2.11,57837,List1A,black,man,,,,null,,,,
5355,,,survey-text,77,286628,0.0-13.0-3.11,57837,List1A,black,man,,,,,"{""Q0"":""Fred and Beth ""}","<img src=""stim_listA/shout1.gif""</stim_listA>",is shouting at,
null,"<div style=""font-size:60px;"">+</div>",,html-keyboard-response,78,287132,0.0-13.0-0.12,57837,List1A,black,man,,,,null,,,,
null,"<img src=""stim_listA/dance3.gif""</stim_listA>",,html-keyboard-response,79,289137,0.0-13.0-1.12,57837,List1A,black,man,,,,null,,,,
null,is dancing with,,html-keyboard-response,80,291141,0.0-13.0-2.12,57837,List1A,black,man,,,,null,,,,
6916,,,survey-text,81,298062,0.0-13.0-3.12,57837,List1A,black,man,,,,,"{""Q0"":""Luke andbjane ""}","<img src=""stim_listA/dance3.gif""</stim_listA>",is dancing with,
null,"<div style=""font-size:60px;"">+</div>",,html-keyboard-response,82,298568,0.0-13.0-0.13,57837,List1A,black,man,,,,null,,,,
null,"<img src=""stim_listA/touch2.gif""</stim_listA>",,html-keyboard-response,83,300573,0.0-13.0-1.13,57837,List1A,black,man,,,,null,,,,
null,are touching each other,,html-keyboard-response,84,302577,0.0-13.0-2.13,57837,List1A,black,man,,,,null,,,,
10830,,,survey-text,85,313411,0.0-13.0-3.13,57837,List1A,black,man,,,,,"{""Q0"":""Beth and fred""}","<img src=""stim_listA/touch2.gif""</stim_listA>",are touching each other,
null,"<div style=""font-size:60px;"">+</div>",,html-keyboard-response,86,313916,0.0-13.0-0.14,57837,List1A,black,man,,,,null,,,,
null,"<img src=""stim_listA/shout6.gif""</stim_listA>",,html-keyboard-response,87,315920,0.0-13.0-1.14,57837,List1A,black,man,,,,null,,,,
null,are shouting at each other,,html-keyboard-response,88,317925,0.0-13.0-2.14,57837,List1A,black,man,,,,null,,,,
5907,,,survey-text,89,323836,0.0-13.0-3.14,57837,List1A,black,man,,,,,"{""Q0"":""Dave and mike ""}","<img src=""stim_listA/shout6.gif""</stim_listA>",are shouting at each other,
null,"<div style=""font-size:60px;"">+</div>",,html-keyboard-response,90,324340,0.0-13.0-0.15,57837,List1A,black,man,,,,null,,,,
null,"<img src=""stim_listA/meet5.gif""</stim_listA>",,html-keyboard-response,91,326345,0.0-13.0-1.15,57837,List1A,black,man,,,,null,,,,
null,is meeting,,html-keyboard-response,92,328350,0.0-13.0-2.15,57837,List1A,black,man,,,,null,,,,
8182,,,survey-text,93,336543,0.0-13.0-3.15,57837,List1A,black,man,,,,,"{""Q0"":""Mike and Dave ""}","<img src=""stim_listA/meet5.gif""</stim_listA>",is meeting,
null,"<div style=""font-size:60px;"">+</div>",,html-keyboard-response,94,337045,0.0-13.0-0.16,57837,List1A,black,man,,,,null,,,,
null,"<img src=""stim_listA/fight8.gif""</stim_listA>",,html-keyboard-response,95,339049,0.0-13.0-1.16,57837,List1A,black,man,,,,null,,,,
null,are fighting each other,,html-keyboard-response,96,341052,0.0-13.0-2.16,57837,List1A,black,man,,,,null,,,,
8411,,,survey-text,97,349466,0.0-13.0-3.16,57837,List1A,black,man,,,,,"{""Q0"":""Beth and fred""}","<img src=""stim_listA/fight8.gif""</stim_listA>",are fighting each other,
null,"<div style=""font-size:60px;"">+</div>",,html-keyboard-response,98,349970,0.0-13.0-0.17,57837,List1A,black,man,,,,null,,,,
null,"<img src=""stim_listA/dance5.gif""</stim_listA>",,html-keyboard-response,99,351975,0.0-13.0-1.17,57837,List1A,black,man,,,,null,,,,
null,is dancing with,,html-keyboard-response,100,353979,0.0-13.0-2.17,57837,List1A,black,man,,,,null,,,,
10302,,,survey-text,101,364284,0.0-13.0-3.17,57837,List1A,black,man,,,,,"{""Q0"":""Luke  and Dave ""}","<img src=""stim_listA/dance5.gif""</stim_listA>",is dancing with,
null,"<div style=""font-size:60px;"">+</div>",,html-keyboard-response,102,364788,0.0-13.0-0.18,57837,List1A,black,man,,,,null,,,,
null,"<img src=""stim_listA/meet8.gif""</stim_listA>",,html-keyboard-response,103,366793,0.0-13.0-1.18,57837,List1A,black,man,,,,null,,,,
null,are meeting each other,,html-keyboard-response,104,368795,0.0-13.0-2.18,57837,List1A,black,man,,,,null,,,,
8130,,,survey-text,105,376928,0.0-13.0-3.18,57837,List1A,black,man,,,,,"{""Q0"":""Ruth and beth""}","<img src=""stim_listA/meet8.gif""</stim_listA>",are meeting each other,
null,"<div style=""font-size:60px;"">+</div>",,html-keyboard-response,106,377431,0.0-13.0-0.19,57837,List1A,black,man,,,,null,,,,
null,"<img src=""stim_listA/kiss7.gif""</stim_listA>",,html-keyboard-response,107,379437,0.0-13.0-1.19,57837,List1A,black,man,,,,null,,,,
null,is kissing,,html-keyboard-response,108,381442,0.0-13.0-2.19,57837,List1A,black,man,,,,null,,,,
6471,,,survey-text,109,387916,0.0-13.0-3.19,57837,List1A,black,man,,,,,"{""Q0"":""Ruth and Beth ""}","<img src=""stim_listA/kiss7.gif""</stim_listA>",is kissing,
3528,"<img src='img/portrait_matrix_list1.JPG' style='width:900px;height:500px;''></img><p>If you have memorised all the portraits and names and are ready to start, press Continue.</p><p><strong>Please note: Your memory of these faces will be tested 4 times during this experiment.</strong></p>",0,html-button-response,110,391448,0.0-14.0-0.0,57837,List1A,black,man,,,,,,,,
3948,"<img src=""portrait/WW1.jpg""style=""width:400px;height:400px;""></img>",1,html-button-response,111,396406,0.0-14.0-1.0,57837,List1A,black,man,,TRUE,1,,,,,
null,CORRECT,,html-keyboard-response,112,397915,0.0-14.0-2.0-0.0,57837,List1A,black,man,,,,null,,,,
2458,"<img src=""portrait/WW2.jpg""style=""width:400px;height:400px;""></img>",3,html-button-response,113,400383,0.0-14.0-4.0,57837,List1A,black,man,,TRUE,3,,,,,
null,CORRECT,,html-keyboard-response,114,401888,0.0-14.0-5.0-0.0,57837,List1A,black,man,,,,null,,,,
3104,"<img src=""portrait/BM2.jpg""style=""width:400px;height:400px;""></img>",5,html-button-response,115,405001,0.0-14.0-7.0,57837,List1A,black,man,,TRUE,5,,,,,
null,CORRECT,,html-keyboard-response,116,406505,0.0-14.0-8.0-0.0,57837,List1A,black,man,,,,null,,,,
2503,"<img src=""portrait/WM1.jpg""style=""width:400px;height:400px;""></img>",6,html-button-response,117,409018,0.0-14.0-10.0,57837,List1A,black,man,,TRUE,6,,,,,
null,CORRECT,,html-keyboard-response,118,410522,0.0-14.0-11.0-0.0,57837,List1A,black,man,,,,null,,,,
2603,"<img src=""portrait/WM2.jpg""style=""width:400px;height:400px;""></img>",7,html-button-response,119,413135,0.0-14.0-13.0,57837,List1A,black,man,,TRUE,7,,,,,
null,CORRECT,,html-keyboard-response,120,414642,0.0-14.0-14.0-0.0,57837,List1A,black,man,,,,null,,,,
3081,"<img src=""portrait/BW2.jpg""style=""width:400px;height:400px;""></img>",2,html-button-response,121,417733,0.0-14.0-16.0,57837,List1A,black,man,,TRUE,2,,,,,
null,CORRECT,,html-keyboard-response,122,419237,0.0-14.0-17.0-0.0,57837,List1A,black,man,,,,null,,,,
3588,"<img src=""portrait/BM1.jpg""style=""width:400px;height:400px;""></img>",4,html-button-response,123,422834,0.0-14.0-19.0,57837,List1A,black,man,,TRUE,4,,,,,
null,CORRECT,,html-keyboard-response,124,424338,0.0-14.0-20.0-0.0,57837,List1A,black,man,,,,null,,,,
4211,"<img src=""portrait/BW1.jpg""style=""width:400px;height:400px;""></img>",0,html-button-response,125,428557,0.0-14.0-22.0,57837,List1A,black,man,,TRUE,0,,,,,
null,CORRECT,,html-keyboard-response,126,430067,0.0-14.0-23.0-0.0,57837,List1A,black,man,,,,null,,,,
1443,<p>You got 8 out of 8 right first time. Press Continue.</p>,0,html-button-response,127,431517,0.0-14.0-25.0,57837,List1A,black,man,,,,,,,,
null,"<div style=""font-size:60px;"">+</div>",,html-keyboard-response,128,433024,0.0-15.0-0.0,57837,List1A,black,man,,,,null,,,,
null,"<img src=""stim_listA/dance4.gif""</stim_listA>",,html-keyboard-response,129,435029,0.0-15.0-1.0,57837,List1A,black,man,,,,null,,,,
null,are dancing with each other,,html-keyboard-response,130,437033,0.0-15.0-2.0,57837,List1A,black,man,,,,null,,,,
5745,,,survey-text,131,442782,0.0-15.0-3.0,57837,List1A,black,man,,,,,"{""Q0"":""Ruth and Dave ""}","<img src=""stim_listA/dance4.gif""</stim_listA>",are dancing with each other,
null,"<div style=""font-size:60px;"">+</div>",,html-keyboard-response,132,443284,0.0-15.0-0.1,57837,List1A,black,man,,,,null,,,,
null,"<img src=""stim_listA/marry7.gif""</stim_listA>",,html-keyboard-response,133,445288,0.0-15.0-1.1,57837,List1A,black,man,,,,null,,,,
null,is marrying,,html-keyboard-response,134,447291,0.0-15.0-2.1,57837,List1A,black,man,,,,null,,,,
9195,,,survey-text,135,456489,0.0-15.0-3.1,57837,List1A,black,man,,,,,"{""Q0"":""Kate and Jane ""}","<img src=""stim_listA/marry7.gif""</stim_listA>",is marrying,
null,"<div style=""font-size:60px;"">+</div>",,html-keyboard-response,136,456992,0.0-15.0-0.2,57837,List1A,black,man,,,,null,,,,
null,"<img src=""stim_listA/meet3.gif""</stim_listA>",,html-keyboard-response,137,458995,0.0-15.0-1.2,57837,List1A,black,man,,,,null,,,,
null,is meeting,,html-keyboard-response,138,460999,0.0-15.0-2.2,57837,List1A,black,man,,,,null,,,,
4666,,,survey-text,139,465668,0.0-15.0-3.2,57837,List1A,black,man,,,,,"{""Q0"":""Dave and Jane ""}","<img src=""stim_listA/meet3.gif""</stim_listA>",is meeting,
null,"<div style=""font-size:60px;"">+</div>",,html-keyboard-response,140,466171,0.0-15.0-0.3,57837,List1A,black,man,,,,null,,,,
null,"<img src=""stim_listA/hug1.gif""</stim_listA>",,html-keyboard-response,141,468175,0.0-15.0-1.3,57837,List1A,black,man,,,,null,,,,
null,is hugging,,html-keyboard-response,142,470178,0.0-15.0-2.3,57837,List1A,black,man,,,,null,,,,
7090,,,survey-text,143,477273,0.0-15.0-3.3,57837,List1A,black,man,,,,,"{""Q0"":""Beth and Fred ""}","<img src=""stim_listA/hug1.gif""</stim_listA>",is hugging,
null,"<div style=""font-size:60px;"">+</div>",,html-keyboard-response,144,477778,0.0-15.0-0.4,57837,List1A,black,man,,,,null,,,,
null,"<img src=""stim_listA/fight5.gif""</stim_listA>",,html-keyboard-response,145,479782,0.0-15.0-1.4,57837,List1A,black,man,,,,null,,,,
null,is fighting,,html-keyboard-response,146,481787,0.0-15.0-2.4,57837,List1A,black,man,,,,null,,,,
5124,,,survey-text,147,486914,0.0-15.0-3.4,57837,List1A,black,man,,,,,"{""Q0"":""Mike and Dave ""}","<img src=""stim_listA/fight5.gif""</stim_listA>",is fighting,
null,"<div style=""font-size:60px;"">+</div>",,html-keyboard-response,148,487417,0.0-15.0-0.5,57837,List1A,black,man,,,,null,,,,
null,"<img src=""stim_listA/hug3.gif""</stim_listA>",,html-keyboard-response,149,489422,0.0-15.0-1.5,57837,List1A,black,man,,,,null,,,,
null,is hugging,,html-keyboard-response,150,491427,0.0-15.0-2.5,57837,List1A,black,man,,,,null,,,,
8744,,,survey-text,151,500175,0.0-15.0-3.5,57837,List1A,black,man,,,,,"{""Q0"":""Ruth and Luke ""}","<img src=""stim_listA/hug3.gif""</stim_listA>",is hugging,
null,"<div style=""font-size:60px;"">+</div>",,html-keyboard-response,152,500679,0.0-15.0-0.6,57837,List1A,black,man,,,,null,,,,
null,"<img src=""stim_listA/touch1.gif""</stim_listA>",,html-keyboard-response,153,502684,0.0-15.0-1.6,57837,List1A,black,man,,,,null,,,,
null,is touching,,html-keyboard-response,154,504688,0.0-15.0-2.6,57837,List1A,black,man,,,,null,,,,
9223,,,survey-text,155,513915,0.0-15.0-3.6,57837,List1A,black,man,,,,,"{""Q0"":""Mike and Kate ""}","<img src=""stim_listA/touch1.gif""</stim_listA>",is touching,
null,"<div style=""font-size:60px;"">+</div>",,html-keyboard-response,156,514417,0.0-15.0-0.7,57837,List1A,black,man,,,,null,,,,
null,"<img src=""stim_listA/talk8.gif""</stim_listA>",,html-keyboard-response,157,516422,0.0-15.0-1.7,57837,List1A,black,man,,,,null,,,,
null,are talking to each other,,html-keyboard-response,158,518426,0.0-15.0-2.7,57837,List1A,black,man,,,,null,,,,
10677,,,survey-text,159,529107,0.0-15.0-3.7,57837,List1A,black,man,,,,,"{""Q0"":""Kate and Ruth ""}","<img src=""stim_listA/talk8.gif""</stim_listA>",are talking to each other,
null,"<div style=""font-size:60px;"">+</div>",,html-keyboard-response,160,529611,0.0-15.0-0.8,57837,List1A,black,man,,,,null,,,,
null,"<img src=""stim_listA/fight2.gif""</stim_listA>",,html-keyboard-response,161,531617,0.0-15.0-1.8,57837,List1A,black,man,,,,null,,,,
null,are fighting each other,,html-keyboard-response,162,533622,0.0-15.0-2.8,57837,List1A,black,man,,,,null,,,,
5566,,,survey-text,163,539193,0.0-15.0-3.8,57837,List1A,black,man,,,,,"{""Q0"":""Fred and Beth ""}","<img src=""stim_listA/fight2.gif""</stim_listA>",are fighting each other,
null,"<div style=""font-size:60px;"">+</div>",,html-keyboard-response,164,539696,0.0-15.0-0.9,57837,List1A,black,man,,,,null,,,,
null,"<img src=""stim_listA/shout3.gif""</stim_listA>",,html-keyboard-response,165,541700,0.0-15.0-1.9,57837,List1A,black,man,,,,null,,,,
null,is shouting at,,html-keyboard-response,166,543704,0.0-15.0-2.9,57837,List1A,black,man,,,,null,,,,
5484,,,survey-text,167,549191,0.0-15.0-3.9,57837,List1A,black,man,,,,,"{""Q0"":""Luke and Ruth ""}","<img src=""stim_listA/shout3.gif""</stim_listA>",is shouting at,
null,"<div style=""font-size:60px;"">+</div>",,html-keyboard-response,168,549698,0.0-15.0-0.10,57837,List1A,black,man,,,,null,,,,
null,"<img src=""stim_listA/hug8.gif""</stim_listA>",,html-keyboard-response,169,551702,0.0-15.0-1.10,57837,List1A,black,man,,,,null,,,,
null,are hugging each other,,html-keyboard-response,170,553706,0.0-15.0-2.10,57837,List1A,black,man,,,,null,,,,
8821,,,survey-text,171,562532,0.0-15.0-3.10,57837,List1A,black,man,,,,,"{""Q0"":""Ruth and Kate ""}","<img src=""stim_listA/hug8.gif""</stim_listA>",are hugging each other,
null,"<div style=""font-size:60px;"">+</div>",,html-keyboard-response,172,563036,0.0-15.0-0.11,57837,List1A,black,man,,,,null,,,,
null,"<img src=""stim_listA/dance2.gif""</stim_listA>",,html-keyboard-response,173,565041,0.0-15.0-1.11,57837,List1A,black,man,,,,null,,,,
null,are dancing with each other,,html-keyboard-response,174,567044,0.0-15.0-2.11,57837,List1A,black,man,,,,null,,,,
10930,,,survey-text,175,577979,0.0-15.0-3.11,57837,List1A,black,man,,,,,"{""Q0"":""Kate and mike ""}","<img src=""stim_listA/dance2.gif""</stim_listA>",are dancing with each other,
null,"<div style=""font-size:60px;"">+</div>",,html-keyboard-response,176,578482,0.0-15.0-0.12,57837,List1A,black,man,,,,null,,,,
null,"<img src=""stim_listA/marry3.gif""</stim_listA>",,html-keyboard-response,177,580487,0.0-15.0-1.12,57837,List1A,black,man,,,,null,,,,
null,is marrying,,html-keyboard-response,178,582492,0.0-15.0-2.12,57837,List1A,black,man,,,,null,,,,
6012,,,survey-text,179,588508,0.0-15.0-3.12,57837,List1A,black,man,,,,,"{""Q0"":""Dave and Ruth ""}","<img src=""stim_listA/marry3.gif""</stim_listA>",is marrying,
null,"<div style=""font-size:60px;"">+</div>",,html-keyboard-response,180,589012,0.0-15.0-0.13,57837,List1A,black,man,,,,null,,,,
null,"<img src=""stim_listA/argue7.gif""</stim_listA>",,html-keyboard-response,181,591017,0.0-15.0-1.13,57837,List1A,black,man,,,,null,,,,
null,is arguing with,,html-keyboard-response,182,593021,0.0-15.0-2.13,57837,List1A,black,man,,,,null,,,,
6408,,,survey-text,183,599433,0.0-15.0-3.13,57837,List1A,black,man,,,,,"{""Q0"":""Ruth and Kate ""}","<img src=""stim_listA/argue7.gif""</stim_listA>",is arguing with,
null,"<div style=""font-size:60px;"">+</div>",,html-keyboard-response,184,599936,0.0-15.0-0.14,57837,List1A,black,man,,,,null,,,,
null,"<img src=""stim_listA/fight7.gif""</stim_listA>",,html-keyboard-response,185,601940,0.0-15.0-1.14,57837,List1A,black,man,,,,null,,,,
null,is fighting,,html-keyboard-response,186,603944,0.0-15.0-2.14,57837,List1A,black,man,,,,null,,,,
11929,,,survey-text,187,615877,0.0-15.0-3.14,57837,List1A,black,man,,,,,"{""Q0"":""Jane and kate ""}","<img src=""stim_listA/fight7.gif""</stim_listA>",is fighting,
null,"<div style=""font-size:60px;"">+</div>",,html-keyboard-response,188,616381,0.0-15.0-0.15,57837,List1A,black,man,,,,null,,,,
null,"<img src=""stim_listA/touch6.gif""</stim_listA>",,html-keyboard-response,189,618386,0.0-15.0-1.15,57837,List1A,black,man,,,,null,,,,
null,are touching each other,,html-keyboard-response,190,620390,0.0-15.0-2.15,57837,List1A,black,man,,,,null,,,,
13991,,,survey-text,191,634385,0.0-15.0-3.15,57837,List1A,black,man,,,,,"{""Q0"":""Lukrb and Fred ""}","<img src=""stim_listA/touch6.gif""</stim_listA>",are touching each other,
null,"<div style=""font-size:60px;"">+</div>",,html-keyboard-response,192,634887,0.0-15.0-0.16,57837,List1A,black,man,,,,null,,,,
null,"<img src=""stim_listA/meet7.gif""</stim_listA>",,html-keyboard-response,193,636891,0.0-15.0-1.16,57837,List1A,black,man,,,,null,,,,
null,is meeting,,html-keyboard-response,194,638894,0.0-15.0-2.16,57837,List1A,black,man,,,,null,,,,
14830,,,survey-text,195,653728,0.0-15.0-3.16,57837,List1A,black,man,,,,,"{""Q0"":""Kate and luke""}","<img src=""stim_listA/meet7.gif""</stim_listA>",is meeting,
null,"<div style=""font-size:60px;"">+</div>",,html-keyboard-response,196,654230,0.0-15.0-0.17,57837,List1A,black,man,,,,null,,,,
null,"<img src=""stim_listA/talk2.gif""</stim_listA>",,html-keyboard-response,197,656235,0.0-15.0-1.17,57837,List1A,black,man,,,,null,,,,
null,are talking to each other,,html-keyboard-response,198,658239,0.0-15.0-2.17,57837,List1A,black,man,,,,null,,,,
7681,,,survey-text,199,665922,0.0-15.0-3.17,57837,List1A,black,man,,,,,"{""Q0"":""Kate and Ruth ""}","<img src=""stim_listA/talk2.gif""</stim_listA>",are talking to each other,
null,"<div style=""font-size:60px;"">+</div>",,html-keyboard-response,200,666425,0.0-15.0-0.18,57837,List1A,black,man,,,,null,,,,
null,"<img src=""stim_listA/hug5.gif""</stim_listA>",,html-keyboard-response,201,668428,0.0-15.0-1.18,57837,List1A,black,man,,,,null,,,,
null,is hugging,,html-keyboard-response,202,670432,0.0-15.0-2.18,57837,List1A,black,man,,,,null,,,,
5174,,,survey-text,203,675613,0.0-15.0-3.18,57837,List1A,black,man,,,,,"{""Q0"":""Fred and Luke ""}","<img src=""stim_listA/hug5.gif""</stim_listA>",is hugging,
null,"<div style=""font-size:60px;"">+</div>",,html-keyboard-response,204,676116,0.0-15.0-0.19,57837,List1A,black,man,,,,null,,,,
null,"<img src=""stim_listA/talk4.gif""</stim_listA>",,html-keyboard-response,205,678120,0.0-15.0-1.19,57837,List1A,black,man,,,,null,,,,
null,are talking to each other,,html-keyboard-response,206,680124,0.0-15.0-2.19,57837,List1A,black,man,,,,null,,,,
4946,,,survey-text,207,685074,0.0-15.0-3.19,57837,List1A,black,man,,,,,"{""Q0"":""Dave and Ruth ""}","<img src=""stim_listA/talk4.gif""</stim_listA>",are talking to each other,
2378,"<img src='img/portrait_matrix_list1.JPG' style='width:900px;height:500px;''></img><p>If you have memorised all the portraits and names and are ready to start, press Continue.</p><p><strong>Please note: Your memory of these faces will be tested 4 times during this experiment.</strong></p>",0,html-button-response,208,687456,0.0-16.0-0.0,57837,List1A,black,man,,,,,,,,
2284,"<img src=""portrait/WM1.jpg""style=""width:400px;height:400px;""></img>",6,html-button-response,209,690750,0.0-16.0-1.0,57837,List1A,black,man,,TRUE,6,,,,,
null,CORRECT,,html-keyboard-response,210,692255,0.0-16.0-2.0-0.0,57837,List1A,black,man,,,,null,,,,
2535,"<img src=""portrait/WM2.jpg""style=""width:400px;height:400px;""></img>",7,html-button-response,211,694800,0.0-16.0-4.0,57837,List1A,black,man,,TRUE,7,,,,,
null,CORRECT,,html-keyboard-response,212,696305,0.0-16.0-5.0-0.0,57837,List1A,black,man,,,,null,,,,
2122,"<img src=""portrait/BW2.jpg""style=""width:400px;height:400px;""></img>",2,html-button-response,213,698436,0.0-16.0-7.0,57837,List1A,black,man,,TRUE,2,,,,,
null,CORRECT,,html-keyboard-response,214,699941,0.0-16.0-8.0-0.0,57837,List1A,black,man,,,,null,,,,
2635,"<img src=""portrait/BM2.jpg""style=""width:400px;height:400px;""></img>",5,html-button-response,215,702586,0.0-16.0-10.0,57837,List1A,black,man,,TRUE,5,,,,,
null,CORRECT,,html-keyboard-response,216,704090,0.0-16.0-11.0-0.0,57837,List1A,black,man,,,,null,,,,
1668,"<img src=""portrait/BM1.jpg""style=""width:400px;height:400px;""></img>",4,html-button-response,217,705768,0.0-16.0-13.0,57837,List1A,black,man,,TRUE,4,,,,,
null,CORRECT,,html-keyboard-response,218,707272,0.0-16.0-14.0-0.0,57837,List1A,black,man,,,,null,,,,
1670,"<img src=""portrait/WW2.jpg""style=""width:400px;height:400px;""></img>",3,html-button-response,219,708951,0.0-16.0-16.0,57837,List1A,black,man,,TRUE,3,,,,,
null,CORRECT,,html-keyboard-response,220,710456,0.0-16.0-17.0-0.0,57837,List1A,black,man,,,,null,,,,
5535,"<img src=""portrait/BW1.jpg""style=""width:400px;height:400px;""></img>",0,html-button-response,221,716000,0.0-16.0-19.0,57837,List1A,black,man,,TRUE,0,,,,,
null,CORRECT,,html-keyboard-response,222,717504,0.0-16.0-20.0-0.0,57837,List1A,black,man,,,,null,,,,
1704,"<img src=""portrait/WW1.jpg""style=""width:400px;height:400px;""></img>",3,html-button-response,223,719219,0.0-16.0-22.0,57837,List1A,black,man,,TRUE,1,,,,,
4912,"<img src=""portrait/WW1.jpg""style=""width:400px;height:400px;""></img>",1,html-button-response,224,725140,0.0-16.0-24.0-0.0,57837,List1A,black,man,,FALSE,1,,,,,
null,CORRECT,,html-keyboard-response,225,726645,0.0-16.0-24.0-1.0-0.0,57837,List1A,black,man,,,,null,,,,
1485,<p>You got 7 out of 8 right first time. Press Continue.</p>,0,html-button-response,226,728136,0.0-16.0-25.0,57837,List1A,black,man,,,,,,,,
5493,"As you did not score 100%, the memory game will repeat. Press Continue.",0,html-button-response,227,734635,0.0-16.0-26.0-0.0,57837,List1A,black,man,,,,,,,,
1724,"<img src='img/portrait_matrix_list1.JPG' style='width:900px;height:500px;''></img><p>If you have memorised all the portraits and names and are ready to start, press Continue.</p><p><strong>Please note: Your memory of these faces will be tested 4 times during this experiment.</strong></p>",0,html-button-response,228,737368,0.0-16.1-0.1,57837,List1A,black,man,,,,,,,,
3178,"<img src=""portrait/WM1.jpg""style=""width:400px;height:400px;""></img>",6,html-button-response,229,741552,0.0-16.1-1.1,57837,List1A,black,man,,TRUE,6,,,,,
null,CORRECT,,html-keyboard-response,230,743057,0.0-16.1-2.1-0.1,57837,List1A,black,man,,,,null,,,,
1487,"<img src=""portrait/WM2.jpg""style=""width:400px;height:400px;""></img>",7,html-button-response,231,744549,0.0-16.1-4.1,57837,List1A,black,man,,TRUE,7,,,,,
null,CORRECT,,html-keyboard-response,232,746053,0.0-16.1-5.1-0.1,57837,List1A,black,man,,,,null,,,,
1878,"<img src=""portrait/BW2.jpg""style=""width:400px;height:400px;""></img>",2,html-button-response,233,747938,0.0-16.1-7.1,57837,List1A,black,man,,TRUE,2,,,,,
null,CORRECT,,html-keyboard-response,234,749442,0.0-16.1-8.1-0.1,57837,List1A,black,man,,,,null,,,,
1755,"<img src=""portrait/BM2.jpg""style=""width:400px;height:400px;""></img>",5,html-button-response,235,751204,0.0-16.1-10.1,57837,List1A,black,man,,TRUE,5,,,,,
null,CORRECT,,html-keyboard-response,236,752709,0.0-16.1-11.1-0.1,57837,List1A,black,man,,,,null,,,,
2087,"<img src=""portrait/BM1.jpg""style=""width:400px;height:400px;""></img>",4,html-button-response,237,754803,0.0-16.1-13.1,57837,List1A,black,man,,TRUE,4,,,,,
null,CORRECT,,html-keyboard-response,238,756307,0.0-16.1-14.1-0.1,57837,List1A,black,man,,,,null,,,,
2234,"<img src=""portrait/WW2.jpg""style=""width:400px;height:400px;""></img>",3,html-button-response,239,758551,0.0-16.1-16.1,57837,List1A,black,man,,TRUE,3,,,,,
null,CORRECT,,html-keyboard-response,240,760056,0.0-16.1-17.1-0.1,57837,List1A,black,man,,,,null,,,,
3529,"<img src=""portrait/BW1.jpg""style=""width:400px;height:400px;""></img>",0,html-button-response,241,763592,0.0-16.1-19.1,57837,List1A,black,man,,TRUE,0,,,,,
null,CORRECT,,html-keyboard-response,242,765096,0.0-16.1-20.1-0.1,57837,List1A,black,man,,,,null,,,,
3955,"<img src=""portrait/WW1.jpg""style=""width:400px;height:400px;""></img>",1,html-button-response,243,769056,0.0-16.1-22.1,57837,List1A,black,man,,TRUE,1,,,,,
null,CORRECT,,html-keyboard-response,244,770560,0.0-16.1-23.1-0.1,57837,List1A,black,man,,,,null,,,,
1139,<p>You got 8 out of 8 right first time. Press Continue.</p>,0,html-button-response,245,771703,0.0-16.1-25.1,57837,List1A,black,man,,,,,,,,
null,"<div style=""font-size:60px;"">+</div>",,html-keyboard-response,246,773210,0.0-17.0-0.0,57837,List1A,black,man,,,,null,,,,
null,"<img src=""stim_listA/marry1.gif""</stim_listA>",,html-keyboard-response,247,775216,0.0-17.0-1.0,57837,List1A,black,man,,,,null,,,,
null,is marrying,,html-keyboard-response,248,777220,0.0-17.0-2.0,57837,List1A,black,man,,,,null,,,,
8779,,,survey-text,249,786002,0.0-17.0-3.0,57837,List1A,black,man,,,,,"{""Q0"":""Mike and Beth ""}","<img src=""stim_listA/marry1.gif""</stim_listA>",is marrying,
null,"<div style=""font-size:60px;"">+</div>",,html-keyboard-response,250,786507,0.0-17.0-0.1,57837,List1A,black,man,,,,null,,,,
null,"<img src=""stim_listA/touch8.gif""</stim_listA>",,html-keyboard-response,251,788510,0.0-17.0-1.1,57837,List1A,black,man,,,,null,,,,
null,are touching each other,,html-keyboard-response,252,790514,0.0-17.0-2.1,57837,List1A,black,man,,,,null,,,,
10580,,,survey-text,253,801099,0.0-17.0-3.1,57837,List1A,black,man,,,,,"{""Q0"":""Ruth and kate ""}","<img src=""stim_listA/touch8.gif""</stim_listA>",are touching each other,
null,"<div style=""font-size:60px;"">+</div>",,html-keyboard-response,254,801602,0.0-17.0-0.2,57837,List1A,black,man,,,,null,,,,
null,"<img src=""stim_listA/shout4.gif""</stim_listA>",,html-keyboard-response,255,803608,0.0-17.0-1.2,57837,List1A,black,man,,,,null,,,,
null,are shouting at each other,,html-keyboard-response,256,805613,0.0-17.0-2.2,57837,List1A,black,man,,,,null,,,,
9313,,,survey-text,257,814930,0.0-17.0-3.2,57837,List1A,black,man,,,,,"{""Q0"":""Jane and Luke ""}","<img src=""stim_listA/shout4.gif""</stim_listA>",are shouting at each other,
null,"<div style=""font-size:60px;"">+</div>",,html-keyboard-response,258,815433,0.0-17.0-0.3,57837,List1A,black,man,,,,null,,,,
null,"<img src=""stim_listA/hug6.gif""</stim_listA>",,html-keyboard-response,259,817438,0.0-17.0-1.3,57837,List1A,black,man,,,,null,,,,
null,are hugging each other,,html-keyboard-response,260,819441,0.0-17.0-2.3,57837,List1A,black,man,,,,null,,,,
5490,,,survey-text,261,824935,0.0-17.0-3.3,57837,List1A,black,man,,,,,"{""Q0"":""Mike and Dave ""}","<img src=""stim_listA/hug6.gif""</stim_listA>",are hugging each other,
null,"<div style=""font-size:60px;"">+</div>",,html-keyboard-response,262,825437,0.0-17.0-0.4,57837,List1A,black,man,,,,null,,,,
null,"<img src=""stim_listA/talk3.gif""</stim_listA>",,html-keyboard-response,263,827441,0.0-17.0-1.4,57837,List1A,black,man,,,,null,,,,
null,is talking to,,html-keyboard-response,264,829446,0.0-17.0-2.4,57837,List1A,black,man,,,,null,,,,
7432,,,survey-text,265,836882,0.0-17.0-3.4,57837,List1A,black,man,,,,,"{""Q0"":""Ruth and beth ""}","<img src=""stim_listA/talk3.gif""</stim_listA>",is talking to,
null,"<div style=""font-size:60px;"">+</div>",,html-keyboard-response,266,837384,0.0-17.0-0.5,57837,List1A,black,man,,,,null,,,,
null,"<img src=""stim_listA/touch7.gif""</stim_listA>",,html-keyboard-response,267,839388,0.0-17.0-1.5,57837,List1A,black,man,,,,null,,,,
null,is touching,,html-keyboard-response,268,841392,0.0-17.0-2.5,57837,List1A,black,man,,,,null,,,,
5828,,,survey-text,269,847224,0.0-17.0-3.5,57837,List1A,black,man,,,,,"{""Q0"":""Jane and kate""}","<img src=""stim_listA/touch7.gif""</stim_listA>",is touching,
null,"<div style=""font-size:60px;"">+</div>",,html-keyboard-response,270,847727,0.0-17.0-0.6,57837,List1A,black,man,,,,null,,,,
null,"<img src=""stim_listA/meet2.gif""</stim_listA>",,html-keyboard-response,271,849731,0.0-17.0-1.6,57837,List1A,black,man,,,,null,,,,
null,are meeting each other,,html-keyboard-response,272,851734,0.0-17.0-2.6,57837,List1A,black,man,,,,null,,,,
11943,,,survey-text,273,863680,0.0-17.0-3.6,57837,List1A,black,man,,,,,"{""Q0"":""Fred and beth ""}","<img src=""stim_listA/meet2.gif""</stim_listA>",are meeting each other,
null,"<div style=""font-size:60px;"">+</div>",,html-keyboard-response,274,864183,0.0-17.0-0.7,57837,List1A,black,man,,,,null,,,,
null,"<img src=""stim_listA/shout7.gif""</stim_listA>",,html-keyboard-response,275,866187,0.0-17.0-1.7,57837,List1A,black,man,,,,null,,,,
null,is shouting at,,html-keyboard-response,276,868191,0.0-17.0-2.7,57837,List1A,black,man,,,,null,,,,
8342,,,survey-text,277,876536,0.0-17.0-3.7,57837,List1A,black,man,,,,,"{""Q0"":""Jane and beth ""}","<img src=""stim_listA/shout7.gif""</stim_listA>",is shouting at,
null,"<div style=""font-size:60px;"">+</div>",,html-keyboard-response,278,877038,0.0-17.0-0.8,57837,List1A,black,man,,,,null,,,,
null,"<img src=""stim_listA/meet1.gif""</stim_listA>",,html-keyboard-response,279,879042,0.0-17.0-1.8,57837,List1A,black,man,,,,null,,,,
null,is meeting,,html-keyboard-response,280,881046,0.0-17.0-2.8,57837,List1A,black,man,,,,null,,,,
4011,,,survey-text,281,885061,0.0-17.0-3.8,57837,List1A,black,man,,,,,"{""Q0"":""Kate and mike""}","<img src=""stim_listA/meet1.gif""</stim_listA>",is meeting,
null,"<div style=""font-size:60px;"">+</div>",,html-keyboard-response,282,885564,0.0-17.0-0.9,57837,List1A,black,man,,,,null,,,,
null,"<img src=""stim_listA/fight4.gif""</stim_listA>",,html-keyboard-response,283,887568,0.0-17.0-1.9,57837,List1A,black,man,,,,null,,,,
null,are fighting each other,,html-keyboard-response,284,889572,0.0-17.0-2.9,57837,List1A,black,man,,,,null,,,,
7874,,,survey-text,285,897449,0.0-17.0-3.9,57837,List1A,black,man,,,,,"{""Q0"":""Luke and Ruth ""}","<img src=""stim_listA/fight4.gif""</stim_listA>",are fighting each other,
null,"<div style=""font-size:60px;"">+</div>",,html-keyboard-response,286,897951,0.0-17.0-0.10,57837,List1A,black,man,,,,null,,,,
null,"<img src=""stim_listA/dance7.gif""</stim_listA>",,html-keyboard-response,287,899955,0.0-17.0-1.10,57837,List1A,black,man,,,,null,,,,
null,is dancing with,,html-keyboard-response,288,901959,0.0-17.0-2.10,57837,List1A,black,man,,,,null,,,,
4203,,,survey-text,289,906166,0.0-17.0-3.10,57837,List1A,black,man,,,,,"{""Q0"":""Jane and beth ""}","<img src=""stim_listA/dance7.gif""</stim_listA>",is dancing with,
null,"<div style=""font-size:60px;"">+</div>",,html-keyboard-response,290,906668,0.0-17.0-0.11,57837,List1A,black,man,,,,null,,,,
null,"<img src=""stim_listA/talk1.gif""</stim_listA>",,html-keyboard-response,291,908671,0.0-17.0-1.11,57837,List1A,black,man,,,,null,,,,
null,is talking to,,html-keyboard-response,292,910676,0.0-17.0-2.11,57837,List1A,black,man,,,,null,,,,
4948,,,survey-text,293,915628,0.0-17.0-3.11,57837,List1A,black,man,,,,,"{""Q0"":""Kate and Fred ""}","<img src=""stim_listA/talk1.gif""</stim_listA>",is talking to,
null,"<div style=""font-size:60px;"">+</div>",,html-keyboard-response,294,916132,0.0-17.0-0.12,57837,List1A,black,man,,,,null,,,,
null,"<img src=""stim_listA/argue1.gif""</stim_listA>",,html-keyboard-response,295,918136,0.0-17.0-1.12,57837,List1A,black,man,,,,null,,,,
null,is arguing with,,html-keyboard-response,296,920140,0.0-17.0-2.12,57837,List1A,black,man,,,,null,,,,
4402,,,survey-text,297,924546,0.0-17.0-3.12,57837,List1A,black,man,,,,,"{""Q0"":""Mike and beth""}","<img src=""stim_listA/argue1.gif""</stim_listA>",is arguing with,
null,"<div style=""font-size:60px;"">+</div>",,html-keyboard-response,298,925049,0.0-17.0-0.13,57837,List1A,black,man,,,,null,,,,
null,"<img src=""stim_listA/touch4.gif""</stim_listA>",,html-keyboard-response,299,927053,0.0-17.0-1.13,57837,List1A,black,man,,,,null,,,,
null,are touching each other,,html-keyboard-response,300,929057,0.0-17.0-2.13,57837,List1A,black,man,,,,null,,,,
5901,,,survey-text,301,934961,0.0-17.0-3.13,57837,List1A,black,man,,,,,"{""Q0"":""Luke and Ruth ""}","<img src=""stim_listA/touch4.gif""</stim_listA>",are touching each other,
null,"<div style=""font-size:60px;"">+</div>",,html-keyboard-response,302,935465,0.0-17.0-0.14,57837,List1A,black,man,,,,null,,,,
null,"<img src=""stim_listA/argue2.gif""</stim_listA>",,html-keyboard-response,303,937471,0.0-17.0-1.14,57837,List1A,black,man,,,,null,,,,
null,are arguing with each other,,html-keyboard-response,304,939475,0.0-17.0-2.14,57837,List1A,black,man,,,,null,,,,
7681,,,survey-text,305,947160,0.0-17.0-3.14,57837,List1A,black,man,,,,,"{""Q0"":""Fred and Kate ""}","<img src=""stim_listA/argue2.gif""</stim_listA>",are arguing with each other,
null,"<div style=""font-size:60px;"">+</div>",,html-keyboard-response,306,947663,0.0-17.0-0.15,57837,List1A,black,man,,,,null,,,,
null,"<img src=""stim_listA/kiss4.gif""</stim_listA>",,html-keyboard-response,307,949667,0.0-17.0-1.15,57837,List1A,black,man,,,,null,,,,
null,are kissing each other,,html-keyboard-response,308,951672,0.0-17.0-2.15,57837,List1A,black,man,,,,null,,,,
4543,,,survey-text,309,956219,0.0-17.0-3.15,57837,List1A,black,man,,,,,"{""Q0"":""Dave and Ruth ""}","<img src=""stim_listA/kiss4.gif""</stim_listA>",are kissing each other,
null,"<div style=""font-size:60px;"">+</div>",,html-keyboard-response,310,956722,0.0-17.0-0.16,57837,List1A,black,man,,,,null,,,,
null,"<img src=""stim_listA/fight1.gif""</stim_listA>",,html-keyboard-response,311,958726,0.0-17.0-1.16,57837,List1A,black,man,,,,null,,,,
null,is fighting,,html-keyboard-response,312,960730,0.0-17.0-2.16,57837,List1A,black,man,,,,null,,,,
4515,,,survey-text,313,965249,0.0-17.0-3.16,57837,List1A,black,man,,,,,"{""Q0"":""Mike and kateb""}","<img src=""stim_listA/fight1.gif""</stim_listA>",is fighting,
null,"<div style=""font-size:60px;"">+</div>",,html-keyboard-response,314,965752,0.0-17.0-0.17,57837,List1A,black,man,,,,null,,,,
null,"<img src=""stim_listA/marry4.gif""</stim_listA>",,html-keyboard-response,315,967757,0.0-17.0-1.17,57837,List1A,black,man,,,,null,,,,
null,are marrying each other,,html-keyboard-response,316,969761,0.0-17.0-2.17,57837,List1A,black,man,,,,null,,,,
11915,,,survey-text,317,981680,0.0-17.0-3.17,57837,List1A,black,man,,,,,"{""Q0"":""Luke and Jane ""}","<img src=""stim_listA/marry4.gif""</stim_listA>",are marrying each other,
null,"<div style=""font-size:60px;"">+</div>",,html-keyboard-response,318,982184,0.0-17.0-0.18,57837,List1A,black,man,,,,null,,,,
null,"<img src=""stim_listA/dance8.gif""</stim_listA>",,html-keyboard-response,319,984188,0.0-17.0-1.18,57837,List1A,black,man,,,,null,,,,
null,are dancing with each other,,html-keyboard-response,320,986193,0.0-17.0-2.18,57837,List1A,black,man,,,,null,,,,
8294,,,survey-text,321,994490,0.0-17.0-3.18,57837,List1A,black,man,,,,,"{""Q0"":""Kate and Ruth ""}","<img src=""stim_listA/dance8.gif""</stim_listA>",are dancing with each other,
null,"<div style=""font-size:60px;"">+</div>",,html-keyboard-response,322,994992,0.0-17.0-0.19,57837,List1A,black,man,,,,null,,,,
null,"<img src=""stim_listA/marry2.gif""</stim_listA>",,html-keyboard-response,323,996995,0.0-17.0-1.19,57837,List1A,black,man,,,,null,,,,
null,are marrying each other,,html-keyboard-response,324,998997,0.0-17.0-2.19,57837,List1A,black,man,,,,null,,,,
5257,,,survey-text,325,1004258,0.0-17.0-3.19,57837,List1A,black,man,,,,,"{""Q0"":""Kate and Fred ""}","<img src=""stim_listA/marry2.gif""</stim_listA>",are marrying each other,
2102,"<img src='img/portrait_matrix_list1.JPG' style='width:900px;height:500px;''></img><p>If you have memorised all the portraits and names and are ready to start, press Continue.</p><p><strong>Please note: Your memory of these faces will be tested 4 times during this experiment.</strong></p>",0,html-button-response,326,1006364,0.0-18.0-0.0,57837,List1A,black,man,,,,,,,,
4840,"<img src=""portrait/WW1.jpg""style=""width:400px;height:400px;""></img>",1,html-button-response,327,1012209,0.0-18.0-1.0,57837,List1A,black,man,,TRUE,1,,,,,
null,CORRECT,,html-keyboard-response,328,1013714,0.0-18.0-2.0-0.0,57837,List1A,black,man,,,,null,,,,
1294,"<img src=""portrait/WM2.jpg""style=""width:400px;height:400px;""></img>",7,html-button-response,329,1015013,0.0-18.0-4.0,57837,List1A,black,man,,TRUE,7,,,,,
null,CORRECT,,html-keyboard-response,330,1016516,0.0-18.0-5.0-0.0,57837,List1A,black,man,,,,null,,,,
3174,"<img src=""portrait/WM1.jpg""style=""width:400px;height:400px;""></img>",6,html-button-response,331,1019698,0.0-18.0-7.0,57837,List1A,black,man,,TRUE,6,,,,,
null,CORRECT,,html-keyboard-response,332,1021202,0.0-18.0-8.0-0.0,57837,List1A,black,man,,,,null,,,,
3191,"<img src=""portrait/BW1.jpg""style=""width:400px;height:400px;""></img>",0,html-button-response,333,1024400,0.0-18.0-10.0,57837,List1A,black,man,,TRUE,0,,,,,
null,CORRECT,,html-keyboard-response,334,1025904,0.0-18.0-11.0-0.0,57837,List1A,black,man,,,,null,,,,
2536,"<img src=""portrait/BM1.jpg""style=""width:400px;height:400px;""></img>",4,html-button-response,335,1028447,0.0-18.0-13.0,57837,List1A,black,man,,TRUE,4,,,,,
null,CORRECT,,html-keyboard-response,336,1029951,0.0-18.0-14.0-0.0,57837,List1A,black,man,,,,null,,,,
3107,"<img src=""portrait/WW2.jpg""style=""width:400px;height:400px;""></img>",3,html-button-response,337,1033065,0.0-18.0-16.0,57837,List1A,black,man,,TRUE,3,,,,,
null,CORRECT,,html-keyboard-response,338,1034570,0.0-18.0-17.0-0.0,57837,List1A,black,man,,,,null,,,,
2855,"<img src=""portrait/BM2.jpg""style=""width:400px;height:400px;""></img>",5,html-button-response,339,1037431,0.0-18.0-19.0,57837,List1A,black,man,,TRUE,5,,,,,
null,CORRECT,,html-keyboard-response,340,1038935,0.0-18.0-20.0-0.0,57837,List1A,black,man,,,,null,,,,
4037,"<img src=""portrait/BW2.jpg""style=""width:400px;height:400px;""></img>",2,html-button-response,341,1042977,0.0-18.0-22.0,57837,List1A,black,man,,TRUE,2,,,,,
null,CORRECT,,html-keyboard-response,342,1044491,0.0-18.0-23.0-0.0,57837,List1A,black,man,,,,null,,,,
1250,<p>You got 8 out of 8 right first time. Press Continue.</p>,0,html-button-response,343,1045749,0.0-18.0-25.0,57837,List1A,black,man,,,,,,,,
null,"<div style=""font-size:60px;"">+</div>",,html-keyboard-response,344,1047258,0.0-19.0-0.0,57837,List1A,black,man,,,,null,,,,
null,"<img src=""stim_listA/kiss2.gif""</stim_listA>",,html-keyboard-response,345,1049262,0.0-19.0-1.0,57837,List1A,black,man,,,,null,,,,
null,are kissing each other,,html-keyboard-response,346,1051267,0.0-19.0-2.0,57837,List1A,black,man,,,,null,,,,
8211,,,survey-text,347,1059482,0.0-19.0-3.0,57837,List1A,black,man,,,,,"{""Q0"":""Mike and kate ""}","<img src=""stim_listA/kiss2.gif""</stim_listA>",are kissing each other,
null,"<div style=""font-size:60px;"">+</div>",,html-keyboard-response,348,1059987,0.0-19.0-0.1,57837,List1A,black,man,,,,null,,,,
null,"<img src=""stim_listA/argue8.gif""</stim_listA>",,html-keyboard-response,349,1061992,0.0-19.0-1.1,57837,List1A,black,man,,,,null,,,,
null,are arguing with each other,,html-keyboard-response,350,1063997,0.0-19.0-2.1,57837,List1A,black,man,,,,null,,,,
6427,,,survey-text,351,1070427,0.0-19.0-3.1,57837,List1A,black,man,,,,,"{""Q0"":""Jane and beth ""}","<img src=""stim_listA/argue8.gif""</stim_listA>",are arguing with each other,
null,"<div style=""font-size:60px;"">+</div>",,html-keyboard-response,352,1070930,0.0-19.0-0.2,57837,List1A,black,man,,,,null,,,,
null,"<img src=""stim_listA/meet4.gif""</stim_listA>",,html-keyboard-response,353,1072935,0.0-19.0-1.2,57837,List1A,black,man,,,,null,,,,
null,are meeting each other,,html-keyboard-response,354,1074939,0.0-19.0-2.2,57837,List1A,black,man,,,,null,,,,
5319,,,survey-text,355,1080261,0.0-19.0-3.2,57837,List1A,black,man,,,,,"{""Q0"":""Like and Ruth ""}","<img src=""stim_listA/meet4.gif""</stim_listA>",are meeting each other,
null,"<div style=""font-size:60px;"">+</div>",,html-keyboard-response,356,1080765,0.0-19.0-0.3,57837,List1A,black,man,,,,null,,,,
null,"<img src=""stim_listA/argue5.gif""</stim_listA>",,html-keyboard-response,357,1082769,0.0-19.0-1.3,57837,List1A,black,man,,,,null,,,,
null,is arguing with,,html-keyboard-response,358,1084773,0.0-19.0-2.3,57837,List1A,black,man,,,,null,,,,
11309,,,survey-text,359,1096086,0.0-19.0-3.3,57837,List1A,black,man,,,,,"{""Q0"":""Luke and Dave ""}","<img src=""stim_listA/argue5.gif""</stim_listA>",is arguing with,
null,"<div style=""font-size:60px;"">+</div>",,html-keyboard-response,360,1096589,0.0-19.0-0.4,57837,List1A,black,man,,,,null,,,,
null,"<img src=""stim_listA/shout8.gif""</stim_listA>",,html-keyboard-response,361,1098593,0.0-19.0-1.4,57837,List1A,black,man,,,,null,,,,
null,are shouting at each other,,html-keyboard-response,362,1100597,0.0-19.0-2.4,57837,List1A,black,man,,,,null,,,,
9861,,,survey-text,363,1110462,0.0-19.0-3.4,57837,List1A,black,man,,,,,"{""Q0"":""Kate and fred""}","<img src=""stim_listA/shout8.gif""</stim_listA>",are shouting at each other,
null,"<div style=""font-size:60px;"">+</div>",,html-keyboard-response,364,1110964,0.0-19.0-0.5,57837,List1A,black,man,,,,null,,,,
null,"<img src=""stim_listA/talk5.gif""</stim_listA>",,html-keyboard-response,365,1112967,0.0-19.0-1.5,57837,List1A,black,man,,,,null,,,,
null,is talking to,,html-keyboard-response,366,1114970,0.0-19.0-2.5,57837,List1A,black,man,,,,null,,,,
4797,,,survey-text,367,1119770,0.0-19.0-3.5,57837,List1A,black,man,,,,,"{""Q0"":""Dave and fred ""}","<img src=""stim_listA/talk5.gif""</stim_listA>",is talking to,
null,"<div style=""font-size:60px;"">+</div>",,html-keyboard-response,368,1120274,0.0-19.0-0.6,57837,List1A,black,man,,,,null,,,,
null,"<img src=""stim_listA/kiss1.gif""</stim_listA>",,html-keyboard-response,369,1122279,0.0-19.0-1.6,57837,List1A,black,man,,,,null,,,,
null,is kissing,,html-keyboard-response,370,1124284,0.0-19.0-2.6,57837,List1A,black,man,,,,null,,,,
7339,,,survey-text,371,1131627,0.0-19.0-3.6,57837,List1A,black,man,,,,,"{""Q0"":""Fred and Beth ""}","<img src=""stim_listA/kiss1.gif""</stim_listA>",is kissing,
null,"<div style=""font-size:60px;"">+</div>",,html-keyboard-response,372,1132130,0.0-19.0-0.7,57837,List1A,black,man,,,,null,,,,
null,"<img src=""stim_listA/touch3.gif""</stim_listA>",,html-keyboard-response,373,1134135,0.0-19.0-1.7,57837,List1A,black,man,,,,null,,,,
null,is touching,,html-keyboard-response,374,1136139,0.0-19.0-2.7,57837,List1A,black,man,,,,null,,,,
6280,,,survey-text,375,1142423,0.0-19.0-3.7,57837,List1A,black,man,,,,,"{""Q0"":""Jane and Dave ""}","<img src=""stim_listA/touch3.gif""</stim_listA>",is touching,
null,"<div style=""font-size:60px;"">+</div>",,html-keyboard-response,376,1142926,0.0-19.0-0.8,57837,List1A,black,man,,,,null,,,,
null,"<img src=""stim_listA/dance1.gif""</stim_listA>",,html-keyboard-response,377,1144930,0.0-19.0-1.8,57837,List1A,black,man,,,,null,,,,
null,is dancing with,,html-keyboard-response,378,1146934,0.0-19.0-2.8,57837,List1A,black,man,,,,null,,,,
5109,,,survey-text,379,1152045,0.0-19.0-3.8,57837,List1A,black,man,,,,,"{""Q0"":""Fred and Kate ""}","<img src=""stim_listA/dance1.gif""</stim_listA>",is dancing with,
null,"<div style=""font-size:60px;"">+</div>",,html-keyboard-response,380,1152548,0.0-19.0-0.9,57837,List1A,black,man,,,,null,,,,
null,"<img src=""stim_listA/hug4.gif""</stim_listA>",,html-keyboard-response,381,1154552,0.0-19.0-1.9,57837,List1A,black,man,,,,null,,,,
null,are hugging each other,,html-keyboard-response,382,1156555,0.0-19.0-2.9,57837,List1A,black,man,,,,null,,,,
4988,,,survey-text,383,1161547,0.0-19.0-3.9,57837,List1A,black,man,,,,,"{""Q0"":""Jane and Dave ""}","<img src=""stim_listA/hug4.gif""</stim_listA>",are hugging each other,
null,"<div style=""font-size:60px;"">+</div>",,html-keyboard-response,384,1162050,0.0-19.0-0.10,57837,List1A,black,man,,,,null,,,,
null,"<img src=""stim_listA/fight6.gif""</stim_listA>",,html-keyboard-response,385,1164054,0.0-19.0-1.10,57837,List1A,black,man,,,,null,,,,
null,are fighting each other,,html-keyboard-response,386,1166058,0.0-19.0-2.10,57837,List1A,black,man,,,,null,,,,
7594,,,survey-text,387,1173657,0.0-19.0-3.10,57837,List1A,black,man,,,,,"{""Q0"":""Luke and Fred ""}","<img src=""stim_listA/fight6.gif""</stim_listA>",are fighting each other,
null,"<div style=""font-size:60px;"">+</div>",,html-keyboard-response,388,1174160,0.0-19.0-0.11,57837,List1A,black,man,,,,null,,,,
null,"<img src=""stim_listA/hug2.gif""</stim_listA>",,html-keyboard-response,389,1176169,0.0-19.0-1.11,57837,List1A,black,man,,,,null,,,,
null,are hugging each other,,html-keyboard-response,390,1178174,0.0-19.0-2.11,57837,List1A,black,man,,,,null,,,,
4734,,,survey-text,391,1182911,0.0-19.0-3.11,57837,List1A,black,man,,,,,"{""Q0"":""Mike and Kate ""}","<img src=""stim_listA/hug2.gif""</stim_listA>",are hugging each other,
null,"<div style=""font-size:60px;"">+</div>",,html-keyboard-response,392,1183415,0.0-19.0-0.12,57837,List1A,black,man,,,,null,,,,
null,"<img src=""stim_listA/talk7.gif""</stim_listA>",,html-keyboard-response,393,1185419,0.0-19.0-1.12,57837,List1A,black,man,,,,null,,,,
null,is talking to,,html-keyboard-response,394,1187424,0.0-19.0-2.12,57837,List1A,black,man,,,,null,,,,
4365,,,survey-text,395,1191792,0.0-19.0-3.12,57837,List1A,black,man,,,,,"{""Q0"":""Jane and beth ""}","<img src=""stim_listA/talk7.gif""</stim_listA>",is talking to,
null,"<div style=""font-size:60px;"">+</div>",,html-keyboard-response,396,1192295,0.0-19.0-0.13,57837,List1A,black,man,,,,null,,,,
null,"<img src=""stim_listA/hug7.gif""</stim_listA>",,html-keyboard-response,397,1194299,0.0-19.0-1.13,57837,List1A,black,man,,,,null,,,,
null,is hugging,,html-keyboard-response,398,1196304,0.0-19.0-2.13,57837,List1A,black,man,,,,null,,,,
7168,,,survey-text,399,1203476,0.0-19.0-3.13,57837,List1A,black,man,,,,,"{""Q0"":""Ruth and beth""}","<img src=""stim_listA/hug7.gif""</stim_listA>",is hugging,
null,"<div style=""font-size:60px;"">+</div>",,html-keyboard-response,400,1203979,0.0-19.0-0.14,57837,List1A,black,man,,,,null,,,,
null,"<img src=""stim_listA/dance6.gif""</stim_listA>",,html-keyboard-response,401,1205984,0.0-19.0-1.14,57837,List1A,black,man,,,,null,,,,
null,are dancing with each other,,html-keyboard-response,402,1207988,0.0-19.0-2.14,57837,List1A,black,man,,,,null,,,,
4403,,,survey-text,403,1212395,0.0-19.0-3.14,57837,List1A,black,man,,,,,"{""Q0"":""Mike and Luke ""}","<img src=""stim_listA/dance6.gif""</stim_listA>",are dancing with each other,
null,"<div style=""font-size:60px;"">+</div>",,html-keyboard-response,404,1212898,0.0-19.0-0.15,57837,List1A,black,man,,,,null,,,,
null,"<img src=""stim_listA/kiss8.gif""</stim_listA>",,html-keyboard-response,405,1214902,0.0-19.0-1.15,57837,List1A,black,man,,,,null,,,,
null,are kissing each other,,html-keyboard-response,406,1216906,0.0-19.0-2.15,57837,List1A,black,man,,,,null,,,,
10637,,,survey-text,407,1227546,0.0-19.0-3.15,57837,List1A,black,man,,,,,"{""Q0"":""Jane and kate ""}","<img src=""stim_listA/kiss8.gif""</stim_listA>",are kissing each other,
null,"<div style=""font-size:60px;"">+</div>",,html-keyboard-response,408,1228049,0.0-19.0-0.16,57837,List1A,black,man,,,,null,,,,
null,"<img src=""stim_listA/meet6.gif""</stim_listA>",,html-keyboard-response,409,1230054,0.0-19.0-1.16,57837,List1A,black,man,,,,null,,,,
null,are meeting each other,,html-keyboard-response,410,1232059,0.0-19.0-2.16,57837,List1A,black,man,,,,null,,,,
7153,,,survey-text,411,1239216,0.0-19.0-3.16,57837,List1A,black,man,,,,,"{""Q0"":""Fred and Luke""}","<img src=""stim_listA/meet6.gif""</stim_listA>",are meeting each other,
null,"<div style=""font-size:60px;"">+</div>",,html-keyboard-response,412,1239719,0.0-19.0-0.17,57837,List1A,black,man,,,,null,,,,
null,"<img src=""stim_listA/marry6.gif""</stim_listA>",,html-keyboard-response,413,1241734,0.0-19.0-1.17,57837,List1A,black,man,,,,null,,,,
null,are marrying each other,,html-keyboard-response,414,1243739,0.0-19.0-2.17,57837,List1A,black,man,,,,null,,,,
12369,,,survey-text,415,1256111,0.0-19.0-3.17,57837,List1A,black,man,,,,,"{""Q0"":""Luke and Fred ""}","<img src=""stim_listA/marry6.gif""</stim_listA>",are marrying each other,
null,"<div style=""font-size:60px;"">+</div>",,html-keyboard-response,416,1256615,0.0-19.0-0.18,57837,List1A,black,man,,,,null,,,,
null,"<img src=""stim_listA/argue4.gif""</stim_listA>",,html-keyboard-response,417,1258625,0.0-19.0-1.18,57837,List1A,black,man,,,,null,,,,
null,are arguing with each other,,html-keyboard-response,418,1260635,0.0-19.0-2.18,57837,List1A,black,man,,,,null,,,,
9029,,,survey-text,419,1269667,0.0-19.0-3.18,57837,List1A,black,man,,,,,"{""Q0"":""Jane and Luke ""}","<img src=""stim_listA/argue4.gif""</stim_listA>",are arguing with each other,
null,"<div style=""font-size:60px;"">+</div>",,html-keyboard-response,420,1270170,0.0-19.0-0.19,57837,List1A,black,man,,,,null,,,,
null,"<img src=""stim_listA/shout2.gif""</stim_listA>",,html-keyboard-response,421,1272173,0.0-19.0-1.19,57837,List1A,black,man,,,,null,,,,
null,are shouting at each other,,html-keyboard-response,422,1274177,0.0-19.0-2.19,57837,List1A,black,man,,,,null,,,,
12285,,,survey-text,423,1286465,0.0-19.0-3.19,57837,List1A,black,man,,,,,"{""Q0"":""Mike and beth ""}","<img src=""stim_listA/shout2.gif""</stim_listA>",are shouting at each other,
2707,<p>Thank you for completing that task.</p><p>The final part of this session is a short questionnaire.</p><p>Press Continue.</p>,0,html-button-response,424,1289177,0.0-20.0,57837,List1A,black,man,,,,,,,,
24251,,,survey-text,425,1314434,0.0-21.0,57837,List1A,black,man,,,,,"{""Q0"":""23"",""Q1"":""English"",""Q2"":""English"",""Q3"":""United Kingdom "",""Q4"":""Black "",""Q5"":""Male ""}",,,demographics
18422,,,survey-likert,426,1332871,0.0-22.0,57837,List1A,black,man,,,,,"{""Q0"":4,""Q1"":5,""Q2"":6,""Q3"":4,""Q4"":4,""Q5"":5,""Q6"":5,""Q7"":5,""Q8"":5,""Q9"":5,""Q10"":4,""Q11"":5,""Q12"":6,""Q13"":""""}",,,likert_race
26070,,,survey-likert,427,1358947,0.0-23.0,57837,List1A,black,man,,,,,"{""Q0"":4,""Q1"":5,""Q2"":5,""Q3"":6,""Q4"":5,""Q5"":5,""Q6"":6,""Q7"":6,""Q8"":6,""Q9"":6,""Q10"":5,""Q11"":4,""Q12"":5,""Q13"":6}",,,likert_gender
11946,,,survey-text,428,1370901,0.0-24.0,57837,List1A,black,man,,,,,"{""Q0"":""ccc""}",,,worker_id
3932,,,external-html,429,1374996,0.0-25.0,57837,List1A,black,man,debrief.html,,,,,,,
