rt,stimulus,button_pressed,trial_type,trial_index,time_elapsed,internal_node_id,subject,list,ppt_race,ppt_gender,url,first_guess,correct,key_press,responses,image_type,phrase_type,test_part
1455,Welcome to the experiment. Press Continue to begin.,0,html-button-response,0,1457,0.0-0.0,57851,List2A,black,man,,,,,,,,
6155,,,external-html,1,8760,0.0-1.0,57851,List2A,black,man,consent.html,,,,,,,
37681,"<p>On the next page, you will see portraits of 8 people and their names.</p><p>Your first task is to take a few minutes to memorise the names of these people.</p><p>You will have to recall their names during the rest of the experiment, so it is</p><p>essential that you try to memorise these people and their names as best as you can.</p><br><p><strong>You will then be tested on your memory of these names and portraits.</strong></p><br><p>The experiment will start after you have completed this memory test.</p><br><p>Ready?</p>",0,html-button-response,2,46442,0.0-2.0,57851,List2A,black,man,,,,,,,,
7838,"<img src='img/portrait_matrix_list2.JPG' style='width:900px;height:500px;''></img><p>If you have memorised all the portraits and names and are ready to start, press Continue.</p><p><strong>Please note: Your memory of these faces will be tested 4 times during this experiment.</strong></p>",0,html-button-response,3,55281,0.0-3.0-0.0,57851,List2A,black,man,,,,,,,,
9718,"<img src=""portrait/BW1.jpg""style=""width:400px;height:400px;""></img>",0,html-button-response,4,66001,0.0-3.0-1.0,57851,List2A,black,man,,TRUE,0,,,,,
null,CORRECT,,html-keyboard-response,5,67506,0.0-3.0-2.0-0.0,57851,List2A,black,man,,,,null,,,,
2202,"<img src=""portrait/WM1.jpg""style=""width:400px;height:400px;""></img>",6,html-button-response,6,69709,0.0-3.0-4.0,57851,List2A,black,man,,TRUE,6,,,,,
null,CORRECT,,html-keyboard-response,7,71213,0.0-3.0-5.0-0.0,57851,List2A,black,man,,,,null,,,,
6816,"<img src=""portrait/BW2.jpg""style=""width:400px;height:400px;""></img>",2,html-button-response,8,78030,0.0-3.0-7.0,57851,List2A,black,man,,TRUE,2,,,,,
null,CORRECT,,html-keyboard-response,9,79533,0.0-3.0-8.0-0.0,57851,List2A,black,man,,,,null,,,,
2466,"<img src=""portrait/BM2.jpg""style=""width:400px;height:400px;""></img>",5,html-button-response,10,82001,0.0-3.0-10.0,57851,List2A,black,man,,TRUE,5,,,,,
null,CORRECT,,html-keyboard-response,11,83505,0.0-3.0-11.0-0.0,57851,List2A,black,man,,,,null,,,,
3282,"<img src=""portrait/WM2.jpg""style=""width:400px;height:400px;""></img>",7,html-button-response,12,86788,0.0-3.0-13.0,57851,List2A,black,man,,TRUE,7,,,,,
null,CORRECT,,html-keyboard-response,13,88292,0.0-3.0-14.0-0.0,57851,List2A,black,man,,,,null,,,,
3033,"<img src=""portrait/WW1.jpg""style=""width:400px;height:400px;""></img>",1,html-button-response,14,91327,0.0-3.0-16.0,57851,List2A,black,man,,TRUE,1,,,,,
null,CORRECT,,html-keyboard-response,15,92831,0.0-3.0-17.0-0.0,57851,List2A,black,man,,,,null,,,,
4208,"<img src=""portrait/BM1.jpg""style=""width:400px;height:400px;""></img>",4,html-button-response,16,97040,0.0-3.0-19.0,57851,List2A,black,man,,TRUE,4,,,,,
null,CORRECT,,html-keyboard-response,17,98543,0.0-3.0-20.0-0.0,57851,List2A,black,man,,,,null,,,,
2310,"<img src=""portrait/WW2.jpg""style=""width:400px;height:400px;""></img>",3,html-button-response,18,100854,0.0-3.0-22.0,57851,List2A,black,man,,TRUE,3,,,,,
null,CORRECT,,html-keyboard-response,19,102356,0.0-3.0-23.0-0.0,57851,List2A,black,man,,,,null,,,,
1030,<p>You got 8 out of 8 right first time. Press Continue.</p>,0,html-button-response,20,103388,0.0-3.0-25.0,57851,List2A,black,man,,,,,,,,
5781,"<p>In this experiment, you will view photographs of the people from the memory game interacting.</p><p>By using the <strong>exact</strong> phrase given <i>after</i> the photograph appears and recalling the correct names of the people in the photographs, form a sentence describing the interaction. You do not need to capitalise names.</p><p>Type your answer in the space provided. Please complete every sentence before moving onto the next trial.</p><p>You will only have a few seconds to memorise each given photograph and phrase before you can respond, so try your best to focus.</p><p>An example is given below. Press 'Continue' when you are ready.</p><img src='img/speaking_example_v2.jpg' style='width:800px;height:460px;''></img>",0,html-button-response,21,110171,0.0-4.0,57851,List2A,black,man,,,,,,,,
1917,"<p>Before the experiment starts, you will watch two example trials. Press 'Continue'.</p>",0,html-button-response,22,113089,0.0-5.0,57851,List2A,black,man,,,,,,,,
null,<img src='img/speaking_WW.gif'></img>,,html-keyboard-response,23,116092,0.0-6.0,57851,List2A,black,man,,,,null,,,,
null,<p>is speaking to</p>,,html-keyboard-response,24,118094,0.0-7.0,57851,List2A,black,man,,,,null,,,,
1811,<p><b>Answer:</b> jane is speaking to ruth</p>,0,html-button-response,25,119906,0.0-8.0,57851,List2A,black,man,,,,,,,,
null,<img src='img/pointing_BM.gif'></img>,,html-keyboard-response,26,122908,0.0-9.0,57851,List2A,black,man,,,,null,,,,
null,<p>are pointing at each other</p>,,html-keyboard-response,27,124910,0.0-10.0,57851,List2A,black,man,,,,null,,,,
1545,<p><b>Answer:</b> fred and mike are pointing at each other</p>,0,html-button-response,28,126455,0.0-11.0,57851,List2A,black,man,,,,,,,,
9974,"<p>Ready to start the experiment?</p><br><p><strong>Remember to describe the picture using a full sentence,</strong></p><p><strong>that combines the names of the people with the given phrase.</strong></p><p><strong>If you do not do this correctly you will not be paid.</strong></p><p><strong> You do not need to capitalise names or use punctuation.</strong></p><br><p>Press 'Continue' to begin.</p>",0,html-button-response,29,137431,0.0-12.0,57851,List2A,black,man,,,,,,,,
null,"<div style=""font-size:60px;"">+</div>",,html-keyboard-response,30,138933,0.0-13.0-0.0,57851,List2A,black,man,,,,null,,,,
null,"<img src=""stim_listA/fight6.gif""</stim_listA>",,html-keyboard-response,31,140934,0.0-13.0-1.0,57851,List2A,black,man,,,,null,,,,
null,are fighting each other,,html-keyboard-response,32,142936,0.0-13.0-2.0,57851,List2A,black,man,,,,null,,,,
19370,,,survey-text,33,162306,0.0-13.0-3.0,57851,List2A,black,man,,,,,"{""Q0"":""mike and luke are ready to punch""}","<img src=""stim_listA/fight6.gif""</stim_listA>",are fighting each other,
null,"<div style=""font-size:60px;"">+</div>",,html-keyboard-response,34,162808,0.0-13.0-0.1,57851,List2A,black,man,,,,null,,,,
null,"<img src=""stim_listA/touch7.gif""</stim_listA>",,html-keyboard-response,35,164810,0.0-13.0-1.1,57851,List2A,black,man,,,,null,,,,
null,is touching,,html-keyboard-response,36,166812,0.0-13.0-2.1,57851,List2A,black,man,,,,null,,,,
14554,,,survey-text,37,181367,0.0-13.0-3.1,57851,List2A,black,man,,,,,"{""Q0"":""kate and jane are touching""}","<img src=""stim_listA/touch7.gif""</stim_listA>",is touching,
null,"<div style=""font-size:60px;"">+</div>",,html-keyboard-response,38,181868,0.0-13.0-0.2,57851,List2A,black,man,,,,null,,,,
null,"<img src=""stim_listA/kiss1.gif""</stim_listA>",,html-keyboard-response,39,183871,0.0-13.0-1.2,57851,List2A,black,man,,,,null,,,,
null,is kissing,,html-keyboard-response,40,185872,0.0-13.0-2.2,57851,List2A,black,man,,,,null,,,,
14856,,,survey-text,41,200730,0.0-13.0-3.2,57851,List2A,black,man,,,,,"{""Q0"":""luke and ruth are kissing""}","<img src=""stim_listA/kiss1.gif""</stim_listA>",is kissing,
null,"<div style=""font-size:60px;"">+</div>",,html-keyboard-response,42,201231,0.0-13.0-0.3,57851,List2A,black,man,,,,null,,,,
null,"<img src=""stim_listA/talk1.gif""</stim_listA>",,html-keyboard-response,43,203233,0.0-13.0-1.3,57851,List2A,black,man,,,,null,,,,
null,is talking to,,html-keyboard-response,44,205234,0.0-13.0-2.3,57851,List2A,black,man,,,,null,,,,
10178,,,survey-text,45,215414,0.0-13.0-3.3,57851,List2A,black,man,,,,,"{""Q0"":""mike and jane are talking""}","<img src=""stim_listA/talk1.gif""</stim_listA>",is talking to,
null,"<div style=""font-size:60px;"">+</div>",,html-keyboard-response,46,215915,0.0-13.0-0.4,57851,List2A,black,man,,,,null,,,,
null,"<img src=""stim_listA/hug6.gif""</stim_listA>",,html-keyboard-response,47,217917,0.0-13.0-1.4,57851,List2A,black,man,,,,null,,,,
null,are hugging each other,,html-keyboard-response,48,219918,0.0-13.0-2.4,57851,List2A,black,man,,,,null,,,,
12774,,,survey-text,49,232693,0.0-13.0-3.4,57851,List2A,black,man,,,,,"{""Q0"":""dave and mike are hugging""}","<img src=""stim_listA/hug6.gif""</stim_listA>",are hugging each other,
null,"<div style=""font-size:60px;"">+</div>",,html-keyboard-response,50,233193,0.0-13.0-0.5,57851,List2A,black,man,,,,null,,,,
null,"<img src=""stim_listA/kiss5.gif""</stim_listA>",,html-keyboard-response,51,235195,0.0-13.0-1.5,57851,List2A,black,man,,,,null,,,,
null,is kissing,,html-keyboard-response,52,237198,0.0-13.0-2.5,57851,List2A,black,man,,,,null,,,,
10663,,,survey-text,53,247861,0.0-13.0-3.5,57851,List2A,black,man,,,,,"{""Q0"":""luke and fred are kissing""}","<img src=""stim_listA/kiss5.gif""</stim_listA>",is kissing,
null,"<div style=""font-size:60px;"">+</div>",,html-keyboard-response,54,248363,0.0-13.0-0.6,57851,List2A,black,man,,,,null,,,,
null,"<img src=""stim_listA/hug5.gif""</stim_listA>",,html-keyboard-response,55,250367,0.0-13.0-1.6,57851,List2A,black,man,,,,null,,,,
null,is hugging,,html-keyboard-response,56,252367,0.0-13.0-2.6,57851,List2A,black,man,,,,null,,,,
11049,,,survey-text,57,263416,0.0-13.0-3.6,57851,List2A,black,man,,,,,"{""Q0"":""fred and luke are hugging""}","<img src=""stim_listA/hug5.gif""</stim_listA>",is hugging,
null,"<div style=""font-size:60px;"">+</div>",,html-keyboard-response,58,263918,0.0-13.0-0.7,57851,List2A,black,man,,,,null,,,,
null,"<img src=""stim_listA/touch6.gif""</stim_listA>",,html-keyboard-response,59,265920,0.0-13.0-1.7,57851,List2A,black,man,,,,null,,,,
null,are touching each other,,html-keyboard-response,60,267922,0.0-13.0-2.7,57851,List2A,black,man,,,,null,,,,
10462,,,survey-text,61,278384,0.0-13.0-3.7,57851,List2A,black,man,,,,,"{""Q0"":""mike and fred are touching""}","<img src=""stim_listA/touch6.gif""</stim_listA>",are touching each other,
null,"<div style=""font-size:60px;"">+</div>",,html-keyboard-response,62,278886,0.0-13.0-0.8,57851,List2A,black,man,,,,null,,,,
null,"<img src=""stim_listA/marry1.gif""</stim_listA>",,html-keyboard-response,63,280887,0.0-13.0-1.8,57851,List2A,black,man,,,,null,,,,
null,is marrying,,html-keyboard-response,64,282888,0.0-13.0-2.8,57851,List2A,black,man,,,,null,,,,
11575,,,survey-text,65,294464,0.0-13.0-3.8,57851,List2A,black,man,,,,,"{""Q0"":""ruth and dave holding hands""}","<img src=""stim_listA/marry1.gif""</stim_listA>",is marrying,
null,"<div style=""font-size:60px;"">+</div>",,html-keyboard-response,66,294966,0.0-13.0-0.9,57851,List2A,black,man,,,,null,,,,
null,"<img src=""stim_listA/argue2.gif""</stim_listA>",,html-keyboard-response,67,296968,0.0-13.0-1.9,57851,List2A,black,man,,,,null,,,,
null,are arguing with each other,,html-keyboard-response,68,298969,0.0-13.0-2.9,57851,List2A,black,man,,,,null,,,,
12655,,,survey-text,69,311625,0.0-13.0-3.9,57851,List2A,black,man,,,,,"{""Q0"":""luke and jane are arguing ""}","<img src=""stim_listA/argue2.gif""</stim_listA>",are arguing with each other,
null,"<div style=""font-size:60px;"">+</div>",,html-keyboard-response,70,312126,0.0-13.0-0.10,57851,List2A,black,man,,,,null,,,,
null,"<img src=""stim_listA/hug1.gif""</stim_listA>",,html-keyboard-response,71,314126,0.0-13.0-1.10,57851,List2A,black,man,,,,null,,,,
null,is hugging,,html-keyboard-response,72,316127,0.0-13.0-2.10,57851,List2A,black,man,,,,null,,,,
12858,,,survey-text,73,328985,0.0-13.0-3.10,57851,List2A,black,man,,,,,"{""Q0"":""luke and ruth are hugging""}","<img src=""stim_listA/hug1.gif""</stim_listA>",is hugging,
null,"<div style=""font-size:60px;"">+</div>",,html-keyboard-response,74,329487,0.0-13.0-0.11,57851,List2A,black,man,,,,null,,,,
null,"<img src=""stim_listA/touch2.gif""</stim_listA>",,html-keyboard-response,75,331489,0.0-13.0-1.11,57851,List2A,black,man,,,,null,,,,
null,are touching each other,,html-keyboard-response,76,333491,0.0-13.0-2.11,57851,List2A,black,man,,,,null,,,,
11849,,,survey-text,77,345340,0.0-13.0-3.11,57851,List2A,black,man,,,,,"{""Q0"":""luke and ruth are touching""}","<img src=""stim_listA/touch2.gif""</stim_listA>",are touching each other,
null,"<div style=""font-size:60px;"">+</div>",,html-keyboard-response,78,345841,0.0-13.0-0.12,57851,List2A,black,man,,,,null,,,,
null,"<img src=""stim_listA/dance2.gif""</stim_listA>",,html-keyboard-response,79,347841,0.0-13.0-1.12,57851,List2A,black,man,,,,null,,,,
null,are dancing with each other,,html-keyboard-response,80,349843,0.0-13.0-2.12,57851,List2A,black,man,,,,null,,,,
10553,,,survey-text,81,360397,0.0-13.0-3.12,57851,List2A,black,man,,,,,"{""Q0"":""ruth and dave are dancing ""}","<img src=""stim_listA/dance2.gif""</stim_listA>",are dancing with each other,
null,"<div style=""font-size:60px;"">+</div>",,html-keyboard-response,82,360898,0.0-13.0-0.13,57851,List2A,black,man,,,,null,,,,
null,"<img src=""stim_listA/marry4.gif""</stim_listA>",,html-keyboard-response,83,362900,0.0-13.0-1.13,57851,List2A,black,man,,,,null,,,,
null,are marrying each other,,html-keyboard-response,84,364901,0.0-13.0-2.13,57851,List2A,black,man,,,,null,,,,
12812,,,survey-text,85,377713,0.0-13.0-3.13,57851,List2A,black,man,,,,,"{""Q0"":""kate and fred are dancing ""}","<img src=""stim_listA/marry4.gif""</stim_listA>",are marrying each other,
null,"<div style=""font-size:60px;"">+</div>",,html-keyboard-response,86,378214,0.0-13.0-0.14,57851,List2A,black,man,,,,null,,,,
null,"<img src=""stim_listA/talk8.gif""</stim_listA>",,html-keyboard-response,87,380215,0.0-13.0-1.14,57851,List2A,black,man,,,,null,,,,
null,are talking to each other,,html-keyboard-response,88,382216,0.0-13.0-2.14,57851,List2A,black,man,,,,null,,,,
16363,,,survey-text,89,398580,0.0-13.0-3.14,57851,List2A,black,man,,,,,"{""Q0"":""beth and jane are talking""}","<img src=""stim_listA/talk8.gif""</stim_listA>",are talking to each other,
null,"<div style=""font-size:60px;"">+</div>",,html-keyboard-response,90,399081,0.0-13.0-0.15,57851,List2A,black,man,,,,null,,,,
null,"<img src=""stim_listA/talk2.gif""</stim_listA>",,html-keyboard-response,91,401083,0.0-13.0-1.15,57851,List2A,black,man,,,,null,,,,
null,are talking to each other,,html-keyboard-response,92,403085,0.0-13.0-2.15,57851,List2A,black,man,,,,null,,,,
10817,,,survey-text,93,413902,0.0-13.0-3.15,57851,List2A,black,man,,,,,"{""Q0"":""dave and ruth are talking""}","<img src=""stim_listA/talk2.gif""</stim_listA>",are talking to each other,
null,"<div style=""font-size:60px;"">+</div>",,html-keyboard-response,94,414403,0.0-13.0-0.16,57851,List2A,black,man,,,,null,,,,
null,"<img src=""stim_listA/fight4.gif""</stim_listA>",,html-keyboard-response,95,416405,0.0-13.0-1.16,57851,List2A,black,man,,,,null,,,,
null,are fighting each other,,html-keyboard-response,96,418406,0.0-13.0-2.16,57851,List2A,black,man,,,,null,,,,
12876,,,survey-text,97,431282,0.0-13.0-3.16,57851,List2A,black,man,,,,,"{""Q0"":""fred and beth are fighting""}","<img src=""stim_listA/fight4.gif""</stim_listA>",are fighting each other,
null,"<div style=""font-size:60px;"">+</div>",,html-keyboard-response,98,431785,0.0-13.0-0.17,57851,List2A,black,man,,,,null,,,,
null,"<img src=""stim_listA/dance3.gif""</stim_listA>",,html-keyboard-response,99,433788,0.0-13.0-1.17,57851,List2A,black,man,,,,null,,,,
null,is dancing with,,html-keyboard-response,100,435789,0.0-13.0-2.17,57851,List2A,black,man,,,,null,,,,
10128,,,survey-text,101,445918,0.0-13.0-3.17,57851,List2A,black,man,,,,,"{""Q0"":""fred and kate are dancing ""}","<img src=""stim_listA/dance3.gif""</stim_listA>",is dancing with,
null,"<div style=""font-size:60px;"">+</div>",,html-keyboard-response,102,446419,0.0-13.0-0.18,57851,List2A,black,man,,,,null,,,,
null,"<img src=""stim_listA/hug2.gif""</stim_listA>",,html-keyboard-response,103,448421,0.0-13.0-1.18,57851,List2A,black,man,,,,null,,,,
null,are hugging each other,,html-keyboard-response,104,450422,0.0-13.0-2.18,57851,List2A,black,man,,,,null,,,,
11688,,,survey-text,105,462110,0.0-13.0-3.18,57851,List2A,black,man,,,,,"{""Q0"":""jane and dave are dancing ""}","<img src=""stim_listA/hug2.gif""</stim_listA>",are hugging each other,
null,"<div style=""font-size:60px;"">+</div>",,html-keyboard-response,106,462612,0.0-13.0-0.19,57851,List2A,black,man,,,,null,,,,
null,"<img src=""stim_listA/dance7.gif""</stim_listA>",,html-keyboard-response,107,464614,0.0-13.0-1.19,57851,List2A,black,man,,,,null,,,,
null,is dancing with,,html-keyboard-response,108,466616,0.0-13.0-2.19,57851,List2A,black,man,,,,null,,,,
10917,,,survey-text,109,477533,0.0-13.0-3.19,57851,List2A,black,man,,,,,"{""Q0"":""ruth is dancing with kate""}","<img src=""stim_listA/dance7.gif""</stim_listA>",is dancing with,
8015,"<img src='img/portrait_matrix_list2.JPG' style='width:900px;height:500px;''></img><p>If you have memorised all the portraits and names and are ready to start, press Continue.</p><p><strong>Please note: Your memory of these faces will be tested 4 times during this experiment.</strong></p>",0,html-button-response,110,485550,0.0-14.0-0.0,57851,List2A,black,man,,,,,,,,
3216,"<img src=""portrait/BM1.jpg""style=""width:400px;height:400px;""></img>",4,html-button-response,111,489767,0.0-14.0-1.0,57851,List2A,black,man,,TRUE,4,,,,,
null,CORRECT,,html-keyboard-response,112,491270,0.0-14.0-2.0-0.0,57851,List2A,black,man,,,,null,,,,
7056,"<img src=""portrait/BW1.jpg""style=""width:400px;height:400px;""></img>",1,html-button-response,113,498328,0.0-14.0-4.0,57851,List2A,black,man,,TRUE,0,,,,,
3390,"<img src=""portrait/BW1.jpg""style=""width:400px;height:400px;""></img>",0,html-button-response,114,502721,0.0-14.0-6.0-0.0,57851,List2A,black,man,,FALSE,0,,,,,
null,CORRECT,,html-keyboard-response,115,504225,0.0-14.0-6.0-1.0-0.0,57851,List2A,black,man,,,,null,,,,
3090,"<img src=""portrait/WW1.jpg""style=""width:400px;height:400px;""></img>",1,html-button-response,116,507317,0.0-14.0-7.0,57851,List2A,black,man,,TRUE,1,,,,,
null,CORRECT,,html-keyboard-response,117,508818,0.0-14.0-8.0-0.0,57851,List2A,black,man,,,,null,,,,
6506,"<img src=""portrait/WM1.jpg""style=""width:400px;height:400px;""></img>",6,html-button-response,118,515326,0.0-14.0-10.0,57851,List2A,black,man,,TRUE,6,,,,,
null,CORRECT,,html-keyboard-response,119,516828,0.0-14.0-11.0-0.0,57851,List2A,black,man,,,,null,,,,
2359,"<img src=""portrait/BM2.jpg""style=""width:400px;height:400px;""></img>",5,html-button-response,120,519188,0.0-14.0-13.0,57851,List2A,black,man,,TRUE,5,,,,,
null,CORRECT,,html-keyboard-response,121,520690,0.0-14.0-14.0-0.0,57851,List2A,black,man,,,,null,,,,
2321,"<img src=""portrait/WW2.jpg""style=""width:400px;height:400px;""></img>",3,html-button-response,122,523013,0.0-14.0-16.0,57851,List2A,black,man,,TRUE,3,,,,,
null,CORRECT,,html-keyboard-response,123,524516,0.0-14.0-17.0-0.0,57851,List2A,black,man,,,,null,,,,
1471,"<img src=""portrait/BW2.jpg""style=""width:400px;height:400px;""></img>",2,html-button-response,124,525989,0.0-14.0-19.0,57851,List2A,black,man,,TRUE,2,,,,,
null,CORRECT,,html-keyboard-response,125,527490,0.0-14.0-20.0-0.0,57851,List2A,black,man,,,,null,,,,
2019,"<img src=""portrait/WM2.jpg""style=""width:400px;height:400px;""></img>",7,html-button-response,126,529512,0.0-14.0-22.0,57851,List2A,black,man,,TRUE,7,,,,,
null,CORRECT,,html-keyboard-response,127,531014,0.0-14.0-23.0-0.0,57851,List2A,black,man,,,,null,,,,
970,<p>You got 7 out of 8 right first time. Press Continue.</p>,0,html-button-response,128,531985,0.0-14.0-25.0,57851,List2A,black,man,,,,,,,,
3331,"As you did not score 100%, the memory game will repeat. Press Continue.",0,html-button-response,129,536318,0.0-14.0-26.0-0.0,57851,List2A,black,man,,,,,,,,
1697,"<img src='img/portrait_matrix_list2.JPG' style='width:900px;height:500px;''></img><p>If you have memorised all the portraits and names and are ready to start, press Continue.</p><p><strong>Please note: Your memory of these faces will be tested 4 times during this experiment.</strong></p>",0,html-button-response,130,539018,0.0-14.1-0.1,57851,List2A,black,man,,,,,,,,
3803,"<img src=""portrait/BM1.jpg""style=""width:400px;height:400px;""></img>",4,html-button-response,131,543822,0.0-14.1-1.1,57851,List2A,black,man,,TRUE,4,,,,,
null,CORRECT,,html-keyboard-response,132,545324,0.0-14.1-2.1-0.1,57851,List2A,black,man,,,,null,,,,
2696,"<img src=""portrait/BW1.jpg""style=""width:400px;height:400px;""></img>",0,html-button-response,133,548022,0.0-14.1-4.1,57851,List2A,black,man,,TRUE,0,,,,,
null,CORRECT,,html-keyboard-response,134,549524,0.0-14.1-5.1-0.1,57851,List2A,black,man,,,,null,,,,
2527,"<img src=""portrait/WW1.jpg""style=""width:400px;height:400px;""></img>",1,html-button-response,135,552053,0.0-14.1-7.1,57851,List2A,black,man,,TRUE,1,,,,,
null,CORRECT,,html-keyboard-response,136,553554,0.0-14.1-8.1-0.1,57851,List2A,black,man,,,,null,,,,
1548,"<img src=""portrait/WM1.jpg""style=""width:400px;height:400px;""></img>",6,html-button-response,137,555104,0.0-14.1-10.1,57851,List2A,black,man,,TRUE,6,,,,,
null,CORRECT,,html-keyboard-response,138,556606,0.0-14.1-11.1-0.1,57851,List2A,black,man,,,,null,,,,
3115,"<img src=""portrait/BM2.jpg""style=""width:400px;height:400px;""></img>",5,html-button-response,139,559722,0.0-14.1-13.1,57851,List2A,black,man,,TRUE,5,,,,,
null,CORRECT,,html-keyboard-response,140,561223,0.0-14.1-14.1-0.1,57851,List2A,black,man,,,,null,,,,
1912,"<img src=""portrait/WW2.jpg""style=""width:400px;height:400px;""></img>",3,html-button-response,141,563137,0.0-14.1-16.1,57851,List2A,black,man,,TRUE,3,,,,,
null,CORRECT,,html-keyboard-response,142,564639,0.0-14.1-17.1-0.1,57851,List2A,black,man,,,,null,,,,
2616,"<img src=""portrait/BW2.jpg""style=""width:400px;height:400px;""></img>",2,html-button-response,143,567255,0.0-14.1-19.1,57851,List2A,black,man,,TRUE,2,,,,,
null,CORRECT,,html-keyboard-response,144,568758,0.0-14.1-20.1-0.1,57851,List2A,black,man,,,,null,,,,
2936,"<img src=""portrait/WM2.jpg""style=""width:400px;height:400px;""></img>",7,html-button-response,145,571696,0.0-14.1-22.1,57851,List2A,black,man,,TRUE,7,,,,,
null,CORRECT,,html-keyboard-response,146,573198,0.0-14.1-23.1-0.1,57851,List2A,black,man,,,,null,,,,
708,<p>You got 8 out of 8 right first time. Press Continue.</p>,0,html-button-response,147,573907,0.0-14.1-25.1,57851,List2A,black,man,,,,,,,,
null,"<div style=""font-size:60px;"">+</div>",,html-keyboard-response,148,575410,0.0-15.0-0.0,57851,List2A,black,man,,,,null,,,,
null,"<img src=""stim_listA/marry6.gif""</stim_listA>",,html-keyboard-response,149,577413,0.0-15.0-1.0,57851,List2A,black,man,,,,null,,,,
null,are marrying each other,,html-keyboard-response,150,579415,0.0-15.0-2.0,57851,List2A,black,man,,,,null,,,,
15293,,,survey-text,151,594709,0.0-15.0-3.0,57851,List2A,black,man,,,,,"{""Q0"":""mike and luke are marrying""}","<img src=""stim_listA/marry6.gif""</stim_listA>",are marrying each other,
null,"<div style=""font-size:60px;"">+</div>",,html-keyboard-response,152,595212,0.0-15.0-0.1,57851,List2A,black,man,,,,null,,,,
null,"<img src=""stim_listA/hug4.gif""</stim_listA>",,html-keyboard-response,153,597212,0.0-15.0-1.1,57851,List2A,black,man,,,,null,,,,
null,are hugging each other,,html-keyboard-response,154,599214,0.0-15.0-2.1,57851,List2A,black,man,,,,null,,,,
11234,,,survey-text,155,610449,0.0-15.0-3.1,57851,List2A,black,man,,,,,"{""Q0"":""mike and kate are huuging""}","<img src=""stim_listA/hug4.gif""</stim_listA>",are hugging each other,
null,"<div style=""font-size:60px;"">+</div>",,html-keyboard-response,156,610951,0.0-15.0-0.2,57851,List2A,black,man,,,,null,,,,
null,"<img src=""stim_listA/marry8.gif""</stim_listA>",,html-keyboard-response,157,612953,0.0-15.0-1.2,57851,List2A,black,man,,,,null,,,,
null,are marrying each other,,html-keyboard-response,158,614955,0.0-15.0-2.2,57851,List2A,black,man,,,,null,,,,
10825,,,survey-text,159,625780,0.0-15.0-3.2,57851,List2A,black,man,,,,,"{""Q0"":""kate and ruth are marrying""}","<img src=""stim_listA/marry8.gif""</stim_listA>",are marrying each other,
null,"<div style=""font-size:60px;"">+</div>",,html-keyboard-response,160,626282,0.0-15.0-0.3,57851,List2A,black,man,,,,null,,,,
null,"<img src=""stim_listA/dance1.gif""</stim_listA>",,html-keyboard-response,161,628283,0.0-15.0-1.3,57851,List2A,black,man,,,,null,,,,
null,is dancing with,,html-keyboard-response,162,630284,0.0-15.0-2.3,57851,List2A,black,man,,,,null,,,,
10585,,,survey-text,163,640870,0.0-15.0-3.3,57851,List2A,black,man,,,,,"{""Q0"":""luke is dancing with jane""}","<img src=""stim_listA/dance1.gif""</stim_listA>",is dancing with,
null,"<div style=""font-size:60px;"">+</div>",,html-keyboard-response,164,641372,0.0-15.0-0.4,57851,List2A,black,man,,,,null,,,,
null,"<img src=""stim_listA/argue5.gif""</stim_listA>",,html-keyboard-response,165,643374,0.0-15.0-1.4,57851,List2A,black,man,,,,null,,,,
null,is arguing with,,html-keyboard-response,166,645377,0.0-15.0-2.4,57851,List2A,black,man,,,,null,,,,
10785,,,survey-text,167,656162,0.0-15.0-3.4,57851,List2A,black,man,,,,,"{""Q0"":""fred is arguing with dave""}","<img src=""stim_listA/argue5.gif""</stim_listA>",is arguing with,
null,"<div style=""font-size:60px;"">+</div>",,html-keyboard-response,168,656665,0.0-15.0-0.5,57851,List2A,black,man,,,,null,,,,
null,"<img src=""stim_listA/fight8.gif""</stim_listA>",,html-keyboard-response,169,658666,0.0-15.0-1.5,57851,List2A,black,man,,,,null,,,,
null,are fighting each other,,html-keyboard-response,170,660668,0.0-15.0-2.5,57851,List2A,black,man,,,,null,,,,
13915,,,survey-text,171,674583,0.0-15.0-3.5,57851,List2A,black,man,,,,,"{""Q0"":""ruth and beth are fighting""}","<img src=""stim_listA/fight8.gif""</stim_listA>",are fighting each other,
null,"<div style=""font-size:60px;"">+</div>",,html-keyboard-response,172,675084,0.0-15.0-0.6,57851,List2A,black,man,,,,null,,,,
null,"<img src=""stim_listA/kiss3.gif""</stim_listA>",,html-keyboard-response,173,677085,0.0-15.0-1.6,57851,List2A,black,man,,,,null,,,,
null,is kissing,,html-keyboard-response,174,679086,0.0-15.0-2.6,57851,List2A,black,man,,,,null,,,,
11530,,,survey-text,175,690617,0.0-15.0-3.6,57851,List2A,black,man,,,,,"{""Q0"":""fred and beth are kissing""}","<img src=""stim_listA/kiss3.gif""</stim_listA>",is kissing,
null,"<div style=""font-size:60px;"">+</div>",,html-keyboard-response,176,691119,0.0-15.0-0.7,57851,List2A,black,man,,,,null,,,,
null,"<img src=""stim_listA/marry5.gif""</stim_listA>",,html-keyboard-response,177,693122,0.0-15.0-1.7,57851,List2A,black,man,,,,null,,,,
null,is marrying,,html-keyboard-response,178,695123,0.0-15.0-2.7,57851,List2A,black,man,,,,null,,,,
10307,,,survey-text,179,705430,0.0-15.0-3.7,57851,List2A,black,man,,,,,"{""Q0"":""fred and dave are marrying""}","<img src=""stim_listA/marry5.gif""</stim_listA>",is marrying,
null,"<div style=""font-size:60px;"">+</div>",,html-keyboard-response,180,705931,0.0-15.0-0.8,57851,List2A,black,man,,,,null,,,,
null,"<img src=""stim_listA/hug7.gif""</stim_listA>",,html-keyboard-response,181,707934,0.0-15.0-1.8,57851,List2A,black,man,,,,null,,,,
null,is hugging,,html-keyboard-response,182,709935,0.0-15.0-2.8,57851,List2A,black,man,,,,null,,,,
13545,,,survey-text,183,723481,0.0-15.0-3.8,57851,List2A,black,man,,,,,"{""Q0"":""beth and ruth are hugging""}","<img src=""stim_listA/hug7.gif""</stim_listA>",is hugging,
null,"<div style=""font-size:60px;"">+</div>",,html-keyboard-response,184,723982,0.0-15.0-0.9,57851,List2A,black,man,,,,null,,,,
null,"<img src=""stim_listA/talk4.gif""</stim_listA>",,html-keyboard-response,185,725983,0.0-15.0-1.9,57851,List2A,black,man,,,,null,,,,
null,are talking to each other,,html-keyboard-response,186,727985,0.0-15.0-2.9,57851,List2A,black,man,,,,null,,,,
8417,,,survey-text,187,736403,0.0-15.0-3.9,57851,List2A,black,man,,,,,"{""Q0"":""mike and beth are talking""}","<img src=""stim_listA/talk4.gif""</stim_listA>",are talking to each other,
null,"<div style=""font-size:60px;"">+</div>",,html-keyboard-response,188,736904,0.0-15.0-0.10,57851,List2A,black,man,,,,null,,,,
null,"<img src=""stim_listA/fight7.gif""</stim_listA>",,html-keyboard-response,189,738905,0.0-15.0-1.10,57851,List2A,black,man,,,,null,,,,
null,is fighting,,html-keyboard-response,190,740905,0.0-15.0-2.10,57851,List2A,black,man,,,,null,,,,
10372,,,survey-text,191,751279,0.0-15.0-3.10,57851,List2A,black,man,,,,,"{""Q0"":""jane and kate are fighting""}","<img src=""stim_listA/fight7.gif""</stim_listA>",is fighting,
null,"<div style=""font-size:60px;"">+</div>",,html-keyboard-response,192,751781,0.0-15.0-0.11,57851,List2A,black,man,,,,null,,,,
null,"<img src=""stim_listA/argue4.gif""</stim_listA>",,html-keyboard-response,193,753784,0.0-15.0-1.11,57851,List2A,black,man,,,,null,,,,
null,are arguing with each other,,html-keyboard-response,194,755785,0.0-15.0-2.11,57851,List2A,black,man,,,,null,,,,
9876,,,survey-text,195,765662,0.0-15.0-3.11,57851,List2A,black,man,,,,,"{""Q0"":""fred and kate are arguing""}","<img src=""stim_listA/argue4.gif""</stim_listA>",are arguing with each other,
null,"<div style=""font-size:60px;"">+</div>",,html-keyboard-response,196,766162,0.0-15.0-0.12,57851,List2A,black,man,,,,null,,,,
null,"<img src=""stim_listA/dance5.gif""</stim_listA>",,html-keyboard-response,197,768164,0.0-15.0-1.12,57851,List2A,black,man,,,,null,,,,
null,is dancing with,,html-keyboard-response,198,770167,0.0-15.0-2.12,57851,List2A,black,man,,,,null,,,,
9745,,,survey-text,199,779913,0.0-15.0-3.12,57851,List2A,black,man,,,,,"{""Q0"":""mike is dancing with luke""}","<img src=""stim_listA/dance5.gif""</stim_listA>",is dancing with,
null,"<div style=""font-size:60px;"">+</div>",,html-keyboard-response,200,780414,0.0-15.0-0.13,57851,List2A,black,man,,,,null,,,,
null,"<img src=""stim_listA/dance4.gif""</stim_listA>",,html-keyboard-response,201,782416,0.0-15.0-1.13,57851,List2A,black,man,,,,null,,,,
null,are dancing with each other,,html-keyboard-response,202,784417,0.0-15.0-2.13,57851,List2A,black,man,,,,null,,,,
8216,,,survey-text,203,792635,0.0-15.0-3.13,57851,List2A,black,man,,,,,"{""Q0"":""mike and beth are dancing""}","<img src=""stim_listA/dance4.gif""</stim_listA>",are dancing with each other,
null,"<div style=""font-size:60px;"">+</div>",,html-keyboard-response,204,793136,0.0-15.0-0.14,57851,List2A,black,man,,,,null,,,,
null,"<img src=""stim_listA/meet6.gif""</stim_listA>",,html-keyboard-response,205,795136,0.0-15.0-1.14,57851,List2A,black,man,,,,null,,,,
null,are meeting each other,,html-keyboard-response,206,797139,0.0-15.0-2.14,57851,List2A,black,man,,,,null,,,,
23404,,,survey-text,207,820544,0.0-15.0-3.14,57851,List2A,black,man,,,,,"{""Q0"":""luke and fred are meeting""}","<img src=""stim_listA/meet6.gif""</stim_listA>",are meeting each other,
null,"<div style=""font-size:60px;"">+</div>",,html-keyboard-response,208,821044,0.0-15.0-0.15,57851,List2A,black,man,,,,null,,,,
null,"<img src=""stim_listA/talk3.gif""</stim_listA>",,html-keyboard-response,209,823045,0.0-15.0-1.15,57851,List2A,black,man,,,,null,,,,
null,is talking to,,html-keyboard-response,210,825046,0.0-15.0-2.15,57851,List2A,black,man,,,,null,,,,
23136,,,survey-text,211,848183,0.0-15.0-3.15,57851,List2A,black,man,,,,,"{""Q0"":""mike and kate arguing""}","<img src=""stim_listA/talk3.gif""</stim_listA>",is talking to,
null,"<div style=""font-size:60px;"">+</div>",,html-keyboard-response,212,848685,0.0-15.0-0.16,57851,List2A,black,man,,,,null,,,,
null,"<img src=""stim_listA/marry2.gif""</stim_listA>",,html-keyboard-response,213,850686,0.0-15.0-1.16,57851,List2A,black,man,,,,null,,,,
null,are marrying each other,,html-keyboard-response,214,852688,0.0-15.0-2.16,57851,List2A,black,man,,,,null,,,,
15294,,,survey-text,215,867983,0.0-15.0-3.16,57851,List2A,black,man,,,,,"{""Q0"":""jane and luke are dancing""}","<img src=""stim_listA/marry2.gif""</stim_listA>",are marrying each other,
null,"<div style=""font-size:60px;"">+</div>",,html-keyboard-response,216,868485,0.0-15.0-0.17,57851,List2A,black,man,,,,null,,,,
null,"<img src=""stim_listA/shout7.gif""</stim_listA>",,html-keyboard-response,217,870488,0.0-15.0-1.17,57851,List2A,black,man,,,,null,,,,
null,is shouting at,,html-keyboard-response,218,872489,0.0-15.0-2.17,57851,List2A,black,man,,,,null,,,,
13101,,,survey-text,219,885592,0.0-15.0-3.17,57851,List2A,black,man,,,,,"{""Q0"":""beth and ruth are shouting ""}","<img src=""stim_listA/shout7.gif""</stim_listA>",is shouting at,
null,"<div style=""font-size:60px;"">+</div>",,html-keyboard-response,220,886093,0.0-15.0-0.18,57851,List2A,black,man,,,,null,,,,
null,"<img src=""stim_listA/talk7.gif""</stim_listA>",,html-keyboard-response,221,888094,0.0-15.0-1.18,57851,List2A,black,man,,,,null,,,,
null,is talking to,,html-keyboard-response,222,890096,0.0-15.0-2.18,57851,List2A,black,man,,,,null,,,,
9903,,,survey-text,223,900000,0.0-15.0-3.18,57851,List2A,black,man,,,,,"{""Q0"":""ruth is talking to kate""}","<img src=""stim_listA/talk7.gif""</stim_listA>",is talking to,
null,"<div style=""font-size:60px;"">+</div>",,html-keyboard-response,224,900503,0.0-15.0-0.19,57851,List2A,black,man,,,,null,,,,
null,"<img src=""stim_listA/shout1.gif""</stim_listA>",,html-keyboard-response,225,902505,0.0-15.0-1.19,57851,List2A,black,man,,,,null,,,,
null,is shouting at,,html-keyboard-response,226,904507,0.0-15.0-2.19,57851,List2A,black,man,,,,null,,,,
9680,,,survey-text,227,914187,0.0-15.0-3.19,57851,List2A,black,man,,,,,"{""Q0"":""luke is shouting at ruth""}","<img src=""stim_listA/shout1.gif""</stim_listA>",is shouting at,
4484,"<img src='img/portrait_matrix_list2.JPG' style='width:900px;height:500px;''></img><p>If you have memorised all the portraits and names and are ready to start, press Continue.</p><p><strong>Please note: Your memory of these faces will be tested 4 times during this experiment.</strong></p>",0,html-button-response,228,918672,0.0-16.0-0.0,57851,List2A,black,man,,,,,,,,
3010,"<img src=""portrait/BM1.jpg""style=""width:400px;height:400px;""></img>",4,html-button-response,229,922684,0.0-16.0-1.0,57851,List2A,black,man,,TRUE,4,,,,,
null,CORRECT,,html-keyboard-response,230,924188,0.0-16.0-2.0-0.0,57851,List2A,black,man,,,,null,,,,
2593,"<img src=""portrait/WW1.jpg""style=""width:400px;height:400px;""></img>",1,html-button-response,231,926781,0.0-16.0-4.0,57851,List2A,black,man,,TRUE,1,,,,,
null,CORRECT,,html-keyboard-response,232,928284,0.0-16.0-5.0-0.0,57851,List2A,black,man,,,,null,,,,
2992,"<img src=""portrait/WW2.jpg""style=""width:400px;height:400px;""></img>",3,html-button-response,233,931277,0.0-16.0-7.0,57851,List2A,black,man,,TRUE,3,,,,,
null,CORRECT,,html-keyboard-response,234,932780,0.0-16.0-8.0-0.0,57851,List2A,black,man,,,,null,,,,
4154,"<img src=""portrait/WM1.jpg""style=""width:400px;height:400px;""></img>",6,html-button-response,235,936934,0.0-16.0-10.0,57851,List2A,black,man,,TRUE,6,,,,,
null,CORRECT,,html-keyboard-response,236,938437,0.0-16.0-11.0-0.0,57851,List2A,black,man,,,,null,,,,
1254,"<img src=""portrait/WM2.jpg""style=""width:400px;height:400px;""></img>",7,html-button-response,237,939692,0.0-16.0-13.0,57851,List2A,black,man,,TRUE,7,,,,,
null,CORRECT,,html-keyboard-response,238,941193,0.0-16.0-14.0-0.0,57851,List2A,black,man,,,,null,,,,
1965,"<img src=""portrait/BW2.jpg""style=""width:400px;height:400px;""></img>",2,html-button-response,239,943159,0.0-16.0-16.0,57851,List2A,black,man,,TRUE,2,,,,,
null,CORRECT,,html-keyboard-response,240,944662,0.0-16.0-17.0-0.0,57851,List2A,black,man,,,,null,,,,
2703,"<img src=""portrait/BW1.jpg""style=""width:400px;height:400px;""></img>",0,html-button-response,241,947366,0.0-16.0-19.0,57851,List2A,black,man,,TRUE,0,,,,,
null,CORRECT,,html-keyboard-response,242,948868,0.0-16.0-20.0-0.0,57851,List2A,black,man,,,,null,,,,
5172,"<img src=""portrait/BM2.jpg""style=""width:400px;height:400px;""></img>",5,html-button-response,243,954040,0.0-16.0-22.0,57851,List2A,black,man,,TRUE,5,,,,,
null,CORRECT,,html-keyboard-response,244,955543,0.0-16.0-23.0-0.0,57851,List2A,black,man,,,,null,,,,
967,<p>You got 8 out of 8 right first time. Press Continue.</p>,0,html-button-response,245,956512,0.0-16.0-25.0,57851,List2A,black,man,,,,,,,,
null,"<div style=""font-size:60px;"">+</div>",,html-keyboard-response,246,958015,0.0-17.0-0.0,57851,List2A,black,man,,,,null,,,,
null,"<img src=""stim_listA/kiss8.gif""</stim_listA>",,html-keyboard-response,247,960016,0.0-17.0-1.0,57851,List2A,black,man,,,,null,,,,
null,are kissing each other,,html-keyboard-response,248,962017,0.0-17.0-2.0,57851,List2A,black,man,,,,null,,,,
9558,,,survey-text,249,971576,0.0-17.0-3.0,57851,List2A,black,man,,,,,"{""Q0"":""jane and kate are kissing""}","<img src=""stim_listA/kiss8.gif""</stim_listA>",are kissing each other,
null,"<div style=""font-size:60px;"">+</div>",,html-keyboard-response,250,972077,0.0-17.0-0.1,57851,List2A,black,man,,,,null,,,,
null,"<img src=""stim_listA/kiss7.gif""</stim_listA>",,html-keyboard-response,251,974079,0.0-17.0-1.1,57851,List2A,black,man,,,,null,,,,
null,is kissing,,html-keyboard-response,252,976080,0.0-17.0-2.1,57851,List2A,black,man,,,,null,,,,
6999,,,survey-text,253,983079,0.0-17.0-3.1,57851,List2A,black,man,,,,,"{""Q0"":""beth and ruth are kissing""}","<img src=""stim_listA/kiss7.gif""</stim_listA>",is kissing,
null,"<div style=""font-size:60px;"">+</div>",,html-keyboard-response,254,983581,0.0-17.0-0.2,57851,List2A,black,man,,,,null,,,,
null,"<img src=""stim_listA/touch5.gif""</stim_listA>",,html-keyboard-response,255,985582,0.0-17.0-1.2,57851,List2A,black,man,,,,null,,,,
null,is touching,,html-keyboard-response,256,987583,0.0-17.0-2.2,57851,List2A,black,man,,,,null,,,,
10164,,,survey-text,257,997749,0.0-17.0-3.2,57851,List2A,black,man,,,,,"{""Q0"":""dave and mike are touching""}","<img src=""stim_listA/touch5.gif""</stim_listA>",is touching,
null,"<div style=""font-size:60px;"">+</div>",,html-keyboard-response,258,998251,0.0-17.0-0.3,57851,List2A,black,man,,,,null,,,,
null,"<img src=""stim_listA/hug3.gif""</stim_listA>",,html-keyboard-response,259,1000253,0.0-17.0-1.3,57851,List2A,black,man,,,,null,,,,
null,is hugging,,html-keyboard-response,260,1002255,0.0-17.0-2.3,57851,List2A,black,man,,,,null,,,,
9789,,,survey-text,261,1012044,0.0-17.0-3.3,57851,List2A,black,man,,,,,"{""Q0"":""fred and beth are hugging""}","<img src=""stim_listA/hug3.gif""</stim_listA>",is hugging,
null,"<div style=""font-size:60px;"">+</div>",,html-keyboard-response,262,1012546,0.0-17.0-0.4,57851,List2A,black,man,,,,null,,,,
null,"<img src=""stim_listA/touch8.gif""</stim_listA>",,html-keyboard-response,263,1014547,0.0-17.0-1.4,57851,List2A,black,man,,,,null,,,,
null,are touching each other,,html-keyboard-response,264,1016549,0.0-17.0-2.4,57851,List2A,black,man,,,,null,,,,
14197,,,survey-text,265,1030747,0.0-17.0-3.4,57851,List2A,black,man,,,,,"{""Q0"":""beth and kate are touching""}","<img src=""stim_listA/touch8.gif""</stim_listA>",are touching each other,
null,"<div style=""font-size:60px;"">+</div>",,html-keyboard-response,266,1031248,0.0-17.0-0.5,57851,List2A,black,man,,,,null,,,,
null,"<img src=""stim_listA/kiss6.gif""</stim_listA>",,html-keyboard-response,267,1033250,0.0-17.0-1.5,57851,List2A,black,man,,,,null,,,,
null,are kissing each other,,html-keyboard-response,268,1035252,0.0-17.0-2.5,57851,List2A,black,man,,,,null,,,,
7479,,,survey-text,269,1042731,0.0-17.0-3.5,57851,List2A,black,man,,,,,"{""Q0"":""dave and mike are kissing""}","<img src=""stim_listA/kiss6.gif""</stim_listA>",are kissing each other,
null,"<div style=""font-size:60px;"">+</div>",,html-keyboard-response,270,1043233,0.0-17.0-0.6,57851,List2A,black,man,,,,null,,,,
null,"<img src=""stim_listA/meet5.gif""</stim_listA>",,html-keyboard-response,271,1045234,0.0-17.0-1.6,57851,List2A,black,man,,,,null,,,,
null,is meeting,,html-keyboard-response,272,1047236,0.0-17.0-2.6,57851,List2A,black,man,,,,null,,,,
7771,,,survey-text,273,1055008,0.0-17.0-3.6,57851,List2A,black,man,,,,,"{""Q0"":""dave and mike are meeting""}","<img src=""stim_listA/meet5.gif""</stim_listA>",is meeting,
null,"<div style=""font-size:60px;"">+</div>",,html-keyboard-response,274,1055509,0.0-17.0-0.7,57851,List2A,black,man,,,,null,,,,
null,"<img src=""stim_listA/dance6.gif""</stim_listA>",,html-keyboard-response,275,1057511,0.0-17.0-1.7,57851,List2A,black,man,,,,null,,,,
null,are dancing with each other,,html-keyboard-response,276,1059512,0.0-17.0-2.7,57851,List2A,black,man,,,,null,,,,
8616,,,survey-text,277,1068128,0.0-17.0-3.7,57851,List2A,black,man,,,,,"{""Q0"":""fred and dave are dancing ""}","<img src=""stim_listA/dance6.gif""</stim_listA>",are dancing with each other,
null,"<div style=""font-size:60px;"">+</div>",,html-keyboard-response,278,1068630,0.0-17.0-0.8,57851,List2A,black,man,,,,null,,,,
null,"<img src=""stim_listA/kiss2.gif""</stim_listA>",,html-keyboard-response,279,1070631,0.0-17.0-1.8,57851,List2A,black,man,,,,null,,,,
null,are kissing each other,,html-keyboard-response,280,1072632,0.0-17.0-2.8,57851,List2A,black,man,,,,null,,,,
7800,,,survey-text,281,1080432,0.0-17.0-3.8,57851,List2A,black,man,,,,,"{""Q0"":""dave and jane are kissing""}","<img src=""stim_listA/kiss2.gif""</stim_listA>",are kissing each other,
null,"<div style=""font-size:60px;"">+</div>",,html-keyboard-response,282,1080934,0.0-17.0-0.9,57851,List2A,black,man,,,,null,,,,
null,"<img src=""stim_listA/shout8.gif""</stim_listA>",,html-keyboard-response,283,1082936,0.0-17.0-1.9,57851,List2A,black,man,,,,null,,,,
null,are shouting at each other,,html-keyboard-response,284,1084938,0.0-17.0-2.9,57851,List2A,black,man,,,,null,,,,
20567,,,survey-text,285,1105506,0.0-17.0-3.9,57851,List2A,black,man,,,,,"{""Q0"":""jane and kate are arguing""}","<img src=""stim_listA/shout8.gif""</stim_listA>",are shouting at each other,
null,"<div style=""font-size:60px;"">+</div>",,html-keyboard-response,286,1106008,0.0-17.0-0.10,57851,List2A,black,man,,,,null,,,,
null,"<img src=""stim_listA/shout2.gif""</stim_listA>",,html-keyboard-response,287,1108010,0.0-17.0-1.10,57851,List2A,black,man,,,,null,,,,
null,are shouting at each other,,html-keyboard-response,288,1110011,0.0-17.0-2.10,57851,List2A,black,man,,,,null,,,,
9689,,,survey-text,289,1119700,0.0-17.0-3.10,57851,List2A,black,man,,,,,"{""Q0"":""jane and dave are arguing""}","<img src=""stim_listA/shout2.gif""</stim_listA>",are shouting at each other,
null,"<div style=""font-size:60px;"">+</div>",,html-keyboard-response,290,1120202,0.0-17.0-0.11,57851,List2A,black,man,,,,null,,,,
null,"<img src=""stim_listA/argue7.gif""</stim_listA>",,html-keyboard-response,291,1122203,0.0-17.0-1.11,57851,List2A,black,man,,,,null,,,,
null,is arguing with,,html-keyboard-response,292,1124204,0.0-17.0-2.11,57851,List2A,black,man,,,,null,,,,
9090,,,survey-text,293,1133294,0.0-17.0-3.11,57851,List2A,black,man,,,,,"{""Q0"":""jane and beth are arguing""}","<img src=""stim_listA/argue7.gif""</stim_listA>",is arguing with,
null,"<div style=""font-size:60px;"">+</div>",,html-keyboard-response,294,1133796,0.0-17.0-0.12,57851,List2A,black,man,,,,null,,,,
null,"<img src=""stim_listA/shout4.gif""</stim_listA>",,html-keyboard-response,295,1135799,0.0-17.0-1.12,57851,List2A,black,man,,,,null,,,,
null,are shouting at each other,,html-keyboard-response,296,1137800,0.0-17.0-2.12,57851,List2A,black,man,,,,null,,,,
9594,,,survey-text,297,1147394,0.0-17.0-3.12,57851,List2A,black,man,,,,,"{""Q0"":""mike and kate are fighting""}","<img src=""stim_listA/shout4.gif""</stim_listA>",are shouting at each other,
null,"<div style=""font-size:60px;"">+</div>",,html-keyboard-response,298,1147895,0.0-17.0-0.13,57851,List2A,black,man,,,,null,,,,
null,"<img src=""stim_listA/fight2.gif""</stim_listA>",,html-keyboard-response,299,1149898,0.0-17.0-1.13,57851,List2A,black,man,,,,null,,,,
null,are fighting each other,,html-keyboard-response,300,1151899,0.0-17.0-2.13,57851,List2A,black,man,,,,null,,,,
9484,,,survey-text,301,1161384,0.0-17.0-3.13,57851,List2A,black,man,,,,,"{""Q0"":""ruth and luke is fighting""}","<img src=""stim_listA/fight2.gif""</stim_listA>",are fighting each other,
null,"<div style=""font-size:60px;"">+</div>",,html-keyboard-response,302,1161886,0.0-17.0-0.14,57851,List2A,black,man,,,,null,,,,
null,"<img src=""stim_listA/meet3.gif""</stim_listA>",,html-keyboard-response,303,1163890,0.0-17.0-1.14,57851,List2A,black,man,,,,null,,,,
null,is meeting,,html-keyboard-response,304,1165891,0.0-17.0-2.14,57851,List2A,black,man,,,,null,,,,
10964,,,survey-text,305,1176856,0.0-17.0-3.14,57851,List2A,black,man,,,,,"{""Q0"":""mike and kate are meeting""}","<img src=""stim_listA/meet3.gif""</stim_listA>",is meeting,
null,"<div style=""font-size:60px;"">+</div>",,html-keyboard-response,306,1177357,0.0-17.0-0.15,57851,List2A,black,man,,,,null,,,,
null,"<img src=""stim_listA/fight1.gif""</stim_listA>",,html-keyboard-response,307,1179360,0.0-17.0-1.15,57851,List2A,black,man,,,,null,,,,
null,is fighting,,html-keyboard-response,308,1181362,0.0-17.0-2.15,57851,List2A,black,man,,,,null,,,,
10674,,,survey-text,309,1192037,0.0-17.0-3.15,57851,List2A,black,man,,,,,"{""Q0"":""dave and ruth are fighting""}","<img src=""stim_listA/fight1.gif""</stim_listA>",is fighting,
null,"<div style=""font-size:60px;"">+</div>",,html-keyboard-response,310,1192539,0.0-17.0-0.16,57851,List2A,black,man,,,,null,,,,
null,"<img src=""stim_listA/shout6.gif""</stim_listA>",,html-keyboard-response,311,1194540,0.0-17.0-1.16,57851,List2A,black,man,,,,null,,,,
null,are shouting at each other,,html-keyboard-response,312,1196542,0.0-17.0-2.16,57851,List2A,black,man,,,,null,,,,
10507,,,survey-text,313,1207050,0.0-17.0-3.16,57851,List2A,black,man,,,,,"{""Q0"":""mike and dave are shouting ""}","<img src=""stim_listA/shout6.gif""</stim_listA>",are shouting at each other,
null,"<div style=""font-size:60px;"">+</div>",,html-keyboard-response,314,1207552,0.0-17.0-0.17,57851,List2A,black,man,,,,null,,,,
null,"<img src=""stim_listA/talk5.gif""</stim_listA>",,html-keyboard-response,315,1209554,0.0-17.0-1.17,57851,List2A,black,man,,,,null,,,,
null,is talking to,,html-keyboard-response,316,1211554,0.0-17.0-2.17,57851,List2A,black,man,,,,null,,,,
8472,,,survey-text,317,1220027,0.0-17.0-3.17,57851,List2A,black,man,,,,,"{""Q0"":""mike and luke are talking""}","<img src=""stim_listA/talk5.gif""</stim_listA>",is talking to,
null,"<div style=""font-size:60px;"">+</div>",,html-keyboard-response,318,1220529,0.0-17.0-0.18,57851,List2A,black,man,,,,null,,,,
null,"<img src=""stim_listA/kiss4.gif""</stim_listA>",,html-keyboard-response,319,1222532,0.0-17.0-1.18,57851,List2A,black,man,,,,null,,,,
null,are kissing each other,,html-keyboard-response,320,1224534,0.0-17.0-2.18,57851,List2A,black,man,,,,null,,,,
13005,,,survey-text,321,1237540,0.0-17.0-3.18,57851,List2A,black,man,,,,,"{""Q0"":""mike and kate are kissing""}","<img src=""stim_listA/kiss4.gif""</stim_listA>",are kissing each other,
null,"<div style=""font-size:60px;"">+</div>",,html-keyboard-response,322,1238043,0.0-17.0-0.19,57851,List2A,black,man,,,,null,,,,
null,"<img src=""stim_listA/touch3.gif""</stim_listA>",,html-keyboard-response,323,1240044,0.0-17.0-1.19,57851,List2A,black,man,,,,null,,,,
null,is touching,,html-keyboard-response,324,1242045,0.0-17.0-2.19,57851,List2A,black,man,,,,null,,,,
10919,,,survey-text,325,1252966,0.0-17.0-3.19,57851,List2A,black,man,,,,,"{""Q0"":""mike and kate are touching ""}","<img src=""stim_listA/touch3.gif""</stim_listA>",is touching,
3940,"<img src='img/portrait_matrix_list2.JPG' style='width:900px;height:500px;''></img><p>If you have memorised all the portraits and names and are ready to start, press Continue.</p><p><strong>Please note: Your memory of these faces will be tested 4 times during this experiment.</strong></p>",0,html-button-response,326,1256906,0.0-18.0-0.0,57851,List2A,black,man,,,,,,,,
8794,"<img src=""portrait/WM1.jpg""style=""width:400px;height:400px;""></img>",6,html-button-response,327,1266702,0.0-18.0-1.0,57851,List2A,black,man,,TRUE,6,,,,,
null,CORRECT,,html-keyboard-response,328,1268203,0.0-18.0-2.0-0.0,57851,List2A,black,man,,,,null,,,,
1692,"<img src=""portrait/BM2.jpg""style=""width:400px;height:400px;""></img>",5,html-button-response,329,1269896,0.0-18.0-4.0,57851,List2A,black,man,,TRUE,5,,,,,
null,CORRECT,,html-keyboard-response,330,1271397,0.0-18.0-5.0-0.0,57851,List2A,black,man,,,,null,,,,
1559,"<img src=""portrait/BM1.jpg""style=""width:400px;height:400px;""></img>",4,html-button-response,331,1272958,0.0-18.0-7.0,57851,List2A,black,man,,TRUE,4,,,,,
null,CORRECT,,html-keyboard-response,332,1274461,0.0-18.0-8.0-0.0,57851,List2A,black,man,,,,null,,,,
6237,"<img src=""portrait/WW1.jpg""style=""width:400px;height:400px;""></img>",1,html-button-response,333,1280700,0.0-18.0-10.0,57851,List2A,black,man,,TRUE,1,,,,,
null,CORRECT,,html-keyboard-response,334,1282202,0.0-18.0-11.0-0.0,57851,List2A,black,man,,,,null,,,,
1528,"<img src=""portrait/BW2.jpg""style=""width:400px;height:400px;""></img>",2,html-button-response,335,1283730,0.0-18.0-13.0,57851,List2A,black,man,,TRUE,2,,,,,
null,CORRECT,,html-keyboard-response,336,1285232,0.0-18.0-14.0-0.0,57851,List2A,black,man,,,,null,,,,
2689,"<img src=""portrait/BW1.jpg""style=""width:400px;height:400px;""></img>",0,html-button-response,337,1287923,0.0-18.0-16.0,57851,List2A,black,man,,TRUE,0,,,,,
null,CORRECT,,html-keyboard-response,338,1289425,0.0-18.0-17.0-0.0,57851,List2A,black,man,,,,null,,,,
3190,"<img src=""portrait/WW2.jpg""style=""width:400px;height:400px;""></img>",3,html-button-response,339,1292617,0.0-18.0-19.0,57851,List2A,black,man,,TRUE,3,,,,,
null,CORRECT,,html-keyboard-response,340,1294120,0.0-18.0-20.0-0.0,57851,List2A,black,man,,,,null,,,,
2482,"<img src=""portrait/WM2.jpg""style=""width:400px;height:400px;""></img>",7,html-button-response,341,1296604,0.0-18.0-22.0,57851,List2A,black,man,,TRUE,7,,,,,
null,CORRECT,,html-keyboard-response,342,1298106,0.0-18.0-23.0-0.0,57851,List2A,black,man,,,,null,,,,
1069,<p>You got 8 out of 8 right first time. Press Continue.</p>,0,html-button-response,343,1299176,0.0-18.0-25.0,57851,List2A,black,man,,,,,,,,
null,"<div style=""font-size:60px;"">+</div>",,html-keyboard-response,344,1300678,0.0-19.0-0.0,57851,List2A,black,man,,,,null,,,,
null,"<img src=""stim_listA/touch1.gif""</stim_listA>",,html-keyboard-response,345,1302680,0.0-19.0-1.0,57851,List2A,black,man,,,,null,,,,
null,is touching,,html-keyboard-response,346,1304681,0.0-19.0-2.0,57851,List2A,black,man,,,,null,,,,
8957,,,survey-text,347,1313639,0.0-19.0-3.0,57851,List2A,black,man,,,,,"{""Q0"":""dave and jane are touching""}","<img src=""stim_listA/touch1.gif""</stim_listA>",is touching,
null,"<div style=""font-size:60px;"">+</div>",,html-keyboard-response,348,1314141,0.0-19.0-0.1,57851,List2A,black,man,,,,null,,,,
null,"<img src=""stim_listA/meet1.gif""</stim_listA>",,html-keyboard-response,349,1316144,0.0-19.0-1.1,57851,List2A,black,man,,,,null,,,,
null,is meeting,,html-keyboard-response,350,1318146,0.0-19.0-2.1,57851,List2A,black,man,,,,null,,,,
7876,,,survey-text,351,1326022,0.0-19.0-3.1,57851,List2A,black,man,,,,,"{""Q0"":""jane and dave are meeting""}","<img src=""stim_listA/meet1.gif""</stim_listA>",is meeting,
null,"<div style=""font-size:60px;"">+</div>",,html-keyboard-response,352,1326525,0.0-19.0-0.2,57851,List2A,black,man,,,,null,,,,
null,"<img src=""stim_listA/meet2.gif""</stim_listA>",,html-keyboard-response,353,1328525,0.0-19.0-1.2,57851,List2A,black,man,,,,null,,,,
null,are meeting each other,,html-keyboard-response,354,1330528,0.0-19.0-2.2,57851,List2A,black,man,,,,null,,,,
8967,,,survey-text,355,1339495,0.0-19.0-3.2,57851,List2A,black,man,,,,,"{""Q0"":""ruth and look are meeting""}","<img src=""stim_listA/meet2.gif""</stim_listA>",are meeting each other,
null,"<div style=""font-size:60px;"">+</div>",,html-keyboard-response,356,1339996,0.0-19.0-0.3,57851,List2A,black,man,,,,null,,,,
null,"<img src=""stim_listA/argue6.gif""</stim_listA>",,html-keyboard-response,357,1341997,0.0-19.0-1.3,57851,List2A,black,man,,,,null,,,,
null,are arguing with each other,,html-keyboard-response,358,1343998,0.0-19.0-2.3,57851,List2A,black,man,,,,null,,,,
7430,,,survey-text,359,1351428,0.0-19.0-3.3,57851,List2A,black,man,,,,,"{""Q0"":""luke and mike are meeting""}","<img src=""stim_listA/argue6.gif""</stim_listA>",are arguing with each other,
null,"<div style=""font-size:60px;"">+</div>",,html-keyboard-response,360,1351929,0.0-19.0-0.4,57851,List2A,black,man,,,,null,,,,
null,"<img src=""stim_listA/marry7.gif""</stim_listA>",,html-keyboard-response,361,1353932,0.0-19.0-1.4,57851,List2A,black,man,,,,null,,,,
null,is marrying,,html-keyboard-response,362,1355932,0.0-19.0-2.4,57851,List2A,black,man,,,,null,,,,
9845,,,survey-text,363,1365777,0.0-19.0-3.4,57851,List2A,black,man,,,,,"{""Q0"":""jane and beth are marrying""}","<img src=""stim_listA/marry7.gif""</stim_listA>",is marrying,
null,"<div style=""font-size:60px;"">+</div>",,html-keyboard-response,364,1366280,0.0-19.0-0.5,57851,List2A,black,man,,,,null,,,,
null,"<img src=""stim_listA/meet7.gif""</stim_listA>",,html-keyboard-response,365,1368281,0.0-19.0-1.5,57851,List2A,black,man,,,,null,,,,
null,is meeting,,html-keyboard-response,366,1370282,0.0-19.0-2.5,57851,List2A,black,man,,,,null,,,,
8400,,,survey-text,367,1378683,0.0-19.0-3.5,57851,List2A,black,man,,,,,"{""Q0"":""jane and kate is meeting""}","<img src=""stim_listA/meet7.gif""</stim_listA>",is meeting,
null,"<div style=""font-size:60px;"">+</div>",,html-keyboard-response,368,1379184,0.0-19.0-0.6,57851,List2A,black,man,,,,null,,,,
null,"<img src=""stim_listA/meet8.gif""</stim_listA>",,html-keyboard-response,369,1381187,0.0-19.0-1.6,57851,List2A,black,man,,,,null,,,,
null,are meeting each other,,html-keyboard-response,370,1383189,0.0-19.0-2.6,57851,List2A,black,man,,,,null,,,,
9514,,,survey-text,371,1392703,0.0-19.0-3.6,57851,List2A,black,man,,,,,"{""Q0"":""beth and ruth is meeting""}","<img src=""stim_listA/meet8.gif""</stim_listA>",are meeting each other,
null,"<div style=""font-size:60px;"">+</div>",,html-keyboard-response,372,1393205,0.0-19.0-0.7,57851,List2A,black,man,,,,null,,,,
null,"<img src=""stim_listA/fight5.gif""</stim_listA>",,html-keyboard-response,373,1395207,0.0-19.0-1.7,57851,List2A,black,man,,,,null,,,,
null,is fighting,,html-keyboard-response,374,1397208,0.0-19.0-2.7,57851,List2A,black,man,,,,null,,,,
7309,,,survey-text,375,1404519,0.0-19.0-3.7,57851,List2A,black,man,,,,,"{""Q0"":""dave and mike are fighting""}","<img src=""stim_listA/fight5.gif""</stim_listA>",is fighting,
null,"<div style=""font-size:60px;"">+</div>",,html-keyboard-response,376,1405019,0.0-19.0-0.8,57851,List2A,black,man,,,,null,,,,
null,"<img src=""stim_listA/shout5.gif""</stim_listA>",,html-keyboard-response,377,1407020,0.0-19.0-1.8,57851,List2A,black,man,,,,null,,,,
null,is shouting at,,html-keyboard-response,378,1409022,0.0-19.0-2.8,57851,List2A,black,man,,,,null,,,,
13508,,,survey-text,379,1422532,0.0-19.0-3.8,57851,List2A,black,man,,,,,"{""Q0"":""fred is shouting with dave""}","<img src=""stim_listA/shout5.gif""</stim_listA>",is shouting at,
null,"<div style=""font-size:60px;"">+</div>",,html-keyboard-response,380,1423033,0.0-19.0-0.9,57851,List2A,black,man,,,,null,,,,
null,"<img src=""stim_listA/argue1.gif""</stim_listA>",,html-keyboard-response,381,1425036,0.0-19.0-1.9,57851,List2A,black,man,,,,null,,,,
null,is arguing with,,html-keyboard-response,382,1427037,0.0-19.0-2.9,57851,List2A,black,man,,,,null,,,,
13848,,,survey-text,383,1440886,0.0-19.0-3.9,57851,List2A,black,man,,,,,"{""Q0"":""dave is arguing with ruth ""}","<img src=""stim_listA/argue1.gif""</stim_listA>",is arguing with,
null,"<div style=""font-size:60px;"">+</div>",,html-keyboard-response,384,1441387,0.0-19.0-0.10,57851,List2A,black,man,,,,null,,,,
null,"<img src=""stim_listA/dance8.gif""</stim_listA>",,html-keyboard-response,385,1443388,0.0-19.0-1.10,57851,List2A,black,man,,,,null,,,,
null,are dancing with each other,,html-keyboard-response,386,1445389,0.0-19.0-2.10,57851,List2A,black,man,,,,null,,,,
8428,,,survey-text,387,1453817,0.0-19.0-3.10,57851,List2A,black,man,,,,,"{""Q0"":""jane is dancing with beth""}","<img src=""stim_listA/dance8.gif""</stim_listA>",are dancing with each other,
null,"<div style=""font-size:60px;"">+</div>",,html-keyboard-response,388,1454319,0.0-19.0-0.11,57851,List2A,black,man,,,,null,,,,
null,"<img src=""stim_listA/touch4.gif""</stim_listA>",,html-keyboard-response,389,1456320,0.0-19.0-1.11,57851,List2A,black,man,,,,null,,,,
null,are touching each other,,html-keyboard-response,390,1458322,0.0-19.0-2.11,57851,List2A,black,man,,,,null,,,,
21413,,,survey-text,391,1479737,0.0-19.0-3.11,57851,List2A,black,man,,,,,"{""Q0"":""jane and luke are touching ""}","<img src=""stim_listA/touch4.gif""</stim_listA>",are touching each other,
null,"<div style=""font-size:60px;"">+</div>",,html-keyboard-response,392,1480237,0.0-19.0-0.12,57851,List2A,black,man,,,,null,,,,
null,"<img src=""stim_listA/shout3.gif""</stim_listA>",,html-keyboard-response,393,1482239,0.0-19.0-1.12,57851,List2A,black,man,,,,null,,,,
null,is shouting at,,html-keyboard-response,394,1484240,0.0-19.0-2.12,57851,List2A,black,man,,,,null,,,,
10688,,,survey-text,395,1494930,0.0-19.0-3.12,57851,List2A,black,man,,,,,"{""Q0"":""fred is shouting with beth""}","<img src=""stim_listA/shout3.gif""</stim_listA>",is shouting at,
null,"<div style=""font-size:60px;"">+</div>",,html-keyboard-response,396,1495431,0.0-19.0-0.13,57851,List2A,black,man,,,,null,,,,
null,"<img src=""stim_listA/fight3.gif""</stim_listA>",,html-keyboard-response,397,1497434,0.0-19.0-1.13,57851,List2A,black,man,,,,null,,,,
null,is fighting,,html-keyboard-response,398,1499435,0.0-19.0-2.13,57851,List2A,black,man,,,,null,,,,
11124,,,survey-text,399,1510560,0.0-19.0-3.13,57851,List2A,black,man,,,,,"{""Q0"":""mike and kate are fighting""}","<img src=""stim_listA/fight3.gif""</stim_listA>",is fighting,
null,"<div style=""font-size:60px;"">+</div>",,html-keyboard-response,400,1511061,0.0-19.0-0.14,57851,List2A,black,man,,,,null,,,,
null,"<img src=""stim_listA/talk6.gif""</stim_listA>",,html-keyboard-response,401,1513062,0.0-19.0-1.14,57851,List2A,black,man,,,,null,,,,
null,are talking to each other,,html-keyboard-response,402,1515063,0.0-19.0-2.14,57851,List2A,black,man,,,,null,,,,
9081,,,survey-text,403,1524145,0.0-19.0-3.14,57851,List2A,black,man,,,,,"{""Q0"":""dave and fred are talking""}","<img src=""stim_listA/talk6.gif""</stim_listA>",are talking to each other,
null,"<div style=""font-size:60px;"">+</div>",,html-keyboard-response,404,1524646,0.0-19.0-0.15,57851,List2A,black,man,,,,null,,,,
null,"<img src=""stim_listA/meet4.gif""</stim_listA>",,html-keyboard-response,405,1526649,0.0-19.0-1.15,57851,List2A,black,man,,,,null,,,,
null,are meeting each other,,html-keyboard-response,406,1528651,0.0-19.0-2.15,57851,List2A,black,man,,,,null,,,,
8790,,,survey-text,407,1537441,0.0-19.0-3.15,57851,List2A,black,man,,,,,"{""Q0"":""kate and fred are talking""}","<img src=""stim_listA/meet4.gif""</stim_listA>",are meeting each other,
null,"<div style=""font-size:60px;"">+</div>",,html-keyboard-response,408,1537944,0.0-19.0-0.16,57851,List2A,black,man,,,,null,,,,
null,"<img src=""stim_listA/marry3.gif""</stim_listA>",,html-keyboard-response,409,1539945,0.0-19.0-1.16,57851,List2A,black,man,,,,null,,,,
null,is marrying,,html-keyboard-response,410,1541947,0.0-19.0-2.16,57851,List2A,black,man,,,,null,,,,
7713,,,survey-text,411,1549661,0.0-19.0-3.16,57851,List2A,black,man,,,,,"{""Q0"":""mike and beth are marrying""}","<img src=""stim_listA/marry3.gif""</stim_listA>",is marrying,
null,"<div style=""font-size:60px;"">+</div>",,html-keyboard-response,412,1550162,0.0-19.0-0.17,57851,List2A,black,man,,,,null,,,,
null,"<img src=""stim_listA/argue8.gif""</stim_listA>",,html-keyboard-response,413,1552163,0.0-19.0-1.17,57851,List2A,black,man,,,,null,,,,
null,are arguing with each other,,html-keyboard-response,414,1554165,0.0-19.0-2.17,57851,List2A,black,man,,,,null,,,,
9850,,,survey-text,415,1564017,0.0-19.0-3.17,57851,List2A,black,man,,,,,"{""Q0"":""kate and ruth are arguing ""}","<img src=""stim_listA/argue8.gif""</stim_listA>",are arguing with each other,
null,"<div style=""font-size:60px;"">+</div>",,html-keyboard-response,416,1564517,0.0-19.0-0.18,57851,List2A,black,man,,,,null,,,,
null,"<img src=""stim_listA/hug8.gif""</stim_listA>",,html-keyboard-response,417,1566519,0.0-19.0-1.18,57851,List2A,black,man,,,,null,,,,
null,are hugging each other,,html-keyboard-response,418,1568521,0.0-19.0-2.18,57851,List2A,black,man,,,,null,,,,
8238,,,survey-text,419,1576761,0.0-19.0-3.18,57851,List2A,black,man,,,,,"{""Q0"":""kate and jane are hugging""}","<img src=""stim_listA/hug8.gif""</stim_listA>",are hugging each other,
null,"<div style=""font-size:60px;"">+</div>",,html-keyboard-response,420,1577262,0.0-19.0-0.19,57851,List2A,black,man,,,,null,,,,
null,"<img src=""stim_listA/argue3.gif""</stim_listA>",,html-keyboard-response,421,1579265,0.0-19.0-1.19,57851,List2A,black,man,,,,null,,,,
null,is arguing with,,html-keyboard-response,422,1581267,0.0-19.0-2.19,57851,List2A,black,man,,,,null,,,,
12848,,,survey-text,423,1594116,0.0-19.0-3.19,57851,List2A,black,man,,,,,"{""Q0"":""mike is arguing with beth""}","<img src=""stim_listA/argue3.gif""</stim_listA>",is arguing with,
1714,<p>Thank you for completing that task.</p><p>The final part of this session is a short questionnaire.</p><p>Press Continue.</p>,0,html-button-response,424,1595831,0.0-20.0,57851,List2A,black,man,,,,,,,,
19301,,,survey-text,425,1616134,0.0-21.0,57851,List2A,black,man,,,,,"{""Q0"":""22"",""Q1"":""english"",""Q2"":""english"",""Q3"":""usa"",""Q4"":""black"",""Q5"":""male""}",,,demographics
22756,,,survey-likert,426,1638893,0.0-22.0,57851,List2A,black,man,,,,,"{""Q0"":0,""Q1"":0,""Q2"":0,""Q3"":3,""Q4"":3,""Q5"":3,""Q6"":2,""Q7"":2,""Q8"":2,""Q9"":2,""Q10"":2,""Q11"":1,""Q12"":1,""Q13"":1}",,,likert_race
19961,,,survey-likert,427,1658857,0.0-23.0,57851,List2A,black,man,,,,,"{""Q0"":5,""Q1"":5,""Q2"":5,""Q3"":5,""Q4"":6,""Q5"":6,""Q6"":6,""Q7"":6,""Q8"":6,""Q9"":5,""Q10"":5,""Q11"":5,""Q12"":5,""Q13"":5}",,,likert_gender
8142,,,survey-text,428,1667000,0.0-24.0,57851,List2A,black,man,,,,,"{""Q0"":""ccc""}",,,worker_id
11233,,,external-html,429,1678534,0.0-25.0,57851,List2A,black,man,debrief.html,,,,,,,
