rt,stimulus,button_pressed,trial_type,trial_index,time_elapsed,internal_node_id,subject,list,ppt_race,ppt_gender,url,first_guess,correct,key_press,responses,image_type,phrase_type,test_part
4938,Welcome to the experiment. Press Continue to begin.,0,html-button-response,0,4979,0.0-0.0,57880,List2B,black,woman,,,,,,,,
310724,,,external-html,1,316952,0.0-1.0,57880,List2B,black,woman,consent.html,,,,,,,
24510,"<p>On the next page, you will see portraits of 8 people and their names.</p><p>Your first task is to take a few minutes to memorise the names of these people.</p><p>You will have to recall their names during the rest of the experiment, so it is</p><p>essential that you try to memorise these people and their names as best as you can.</p><br><p><strong>You will then be tested on your memory of these names and portraits.</strong></p><br><p>The experiment will start after you have completed this memory test.</p><br><p>Ready?</p>",0,html-button-response,2,341484,0.0-2.0,57880,List2B,black,woman,,,,,,,,
87575,"<img src='img/portrait_matrix_list2.JPG' style='width:900px;height:500px;''></img><p>If you have memorised all the portraits and names and are ready to start, press Continue.</p><p><strong>Please note: Your memory of these faces will be tested 4 times during this experiment.</strong></p>",0,html-button-response,3,430071,0.0-3.0-0.0,57880,List2B,black,woman,,,,,,,,
8477,"<img src=""portrait/BM1.jpg""style=""width:400px;height:400px;""></img>",4,html-button-response,4,439563,0.0-3.0-1.0,57880,List2B,black,woman,,TRUE,4,,,,,
null,CORRECT,,html-keyboard-response,5,441085,0.0-3.0-2.0-0.0,57880,List2B,black,woman,,,,null,,,,
4830,"<img src=""portrait/WW1.jpg""style=""width:400px;height:400px;""></img>",1,html-button-response,6,445923,0.0-3.0-4.0,57880,List2B,black,woman,,TRUE,1,,,,,
null,CORRECT,,html-keyboard-response,7,447430,0.0-3.0-5.0-0.0,57880,List2B,black,woman,,,,null,,,,
3604,"<img src=""portrait/BM2.jpg""style=""width:400px;height:400px;""></img>",5,html-button-response,8,451043,0.0-3.0-7.0,57880,List2B,black,woman,,TRUE,5,,,,,
null,CORRECT,,html-keyboard-response,9,452548,0.0-3.0-8.0-0.0,57880,List2B,black,woman,,,,null,,,,
3562,"<img src=""portrait/WW2.jpg""style=""width:400px;height:400px;""></img>",3,html-button-response,10,456115,0.0-3.0-10.0,57880,List2B,black,woman,,TRUE,3,,,,,
null,CORRECT,,html-keyboard-response,11,457635,0.0-3.0-11.0-0.0,57880,List2B,black,woman,,,,null,,,,
6173,"<img src=""portrait/BW2.jpg""style=""width:400px;height:400px;""></img>",2,html-button-response,12,463815,0.0-3.0-13.0,57880,List2B,black,woman,,TRUE,2,,,,,
null,CORRECT,,html-keyboard-response,13,465321,0.0-3.0-14.0-0.0,57880,List2B,black,woman,,,,null,,,,
4476,"<img src=""portrait/WM1.jpg""style=""width:400px;height:400px;""></img>",6,html-button-response,14,469803,0.0-3.0-16.0,57880,List2B,black,woman,,TRUE,6,,,,,
null,CORRECT,,html-keyboard-response,15,471308,0.0-3.0-17.0-0.0,57880,List2B,black,woman,,,,null,,,,
8079,"<img src=""portrait/BW1.jpg""style=""width:400px;height:400px;""></img>",0,html-button-response,16,479392,0.0-3.0-19.0,57880,List2B,black,woman,,TRUE,0,,,,,
null,CORRECT,,html-keyboard-response,17,480901,0.0-3.0-20.0-0.0,57880,List2B,black,woman,,,,null,,,,
4775,"<img src=""portrait/WM2.jpg""style=""width:400px;height:400px;""></img>",7,html-button-response,18,485682,0.0-3.0-22.0,57880,List2B,black,woman,,TRUE,7,,,,,
null,CORRECT,,html-keyboard-response,19,487188,0.0-3.0-23.0-0.0,57880,List2B,black,woman,,,,null,,,,
3177,<p>You got 8 out of 8 right first time. Press Continue.</p>,0,html-button-response,20,490372,0.0-3.0-25.0,57880,List2B,black,woman,,,,,,,,
105782,"<p>In this experiment, you will view photographs of the people from the memory game interacting.</p><p>By using the <strong>exact</strong> phrase given <i>after</i> the photograph appears and recalling the correct names of the people in the photographs, form a sentence describing the interaction. You do not need to capitalise names.</p><p>Type your answer in the space provided. Please complete every sentence before moving onto the next trial.</p><p>You will only have a few seconds to memorise each given photograph and phrase before you can respond, so try your best to focus.</p><p>An example is given below. Press 'Continue' when you are ready.</p><img src='img/speaking_example_v2.jpg' style='width:800px;height:460px;''></img>",0,html-button-response,21,597180,0.0-4.0,57880,List2B,black,woman,,,,,,,,
11130,"<p>Before the experiment starts, you will watch two example trials. Press 'Continue'.</p>",0,html-button-response,22,609341,0.0-5.0,57880,List2B,black,woman,,,,,,,,
null,<img src='img/speaking_WW.gif'></img>,,html-keyboard-response,23,612350,0.0-6.0,57880,List2B,black,woman,,,,null,,,,
null,<p>is speaking to</p>,,html-keyboard-response,24,614353,0.0-7.0,57880,List2B,black,woman,,,,null,,,,
8442,<p><b>Answer:</b> jane is speaking to ruth</p>,0,html-button-response,25,622797,0.0-8.0,57880,List2B,black,woman,,,,,,,,
null,<img src='img/pointing_BM.gif'></img>,,html-keyboard-response,26,625808,0.0-9.0,57880,List2B,black,woman,,,,null,,,,
null,<p>are pointing at each other</p>,,html-keyboard-response,27,627812,0.0-10.0,57880,List2B,black,woman,,,,null,,,,
4463,<p><b>Answer:</b> fred and mike are pointing at each other</p>,0,html-button-response,28,632280,0.0-11.0,57880,List2B,black,woman,,,,,,,,
9049,"<p>Ready to start the experiment?</p><br><p><strong>Remember to describe the picture using a full sentence,</strong></p><p><strong>that combines the names of the people with the given phrase.</strong></p><p><strong>If you do not do this correctly you will not be paid.</strong></p><p><strong> You do not need to capitalise names or use punctuation.</strong></p><br><p>Press 'Continue' to begin.</p>",0,html-button-response,29,642336,0.0-12.0,57880,List2B,black,woman,,,,,,,,
null,"<div style=""font-size:60px;"">+</div>",,html-keyboard-response,30,643847,0.0-13.0-0.0,57880,List2B,black,woman,,,,null,,,,
null,"<img src=""stim_listB/argue3.gif""</stim_listB>",,html-keyboard-response,31,645852,0.0-13.0-1.0,57880,List2B,black,woman,,,,null,,,,
null,is arguing with,,html-keyboard-response,32,647854,0.0-13.0-2.0,57880,List2B,black,woman,,,,null,,,,
28554,,,survey-text,33,676416,0.0-13.0-3.0,57880,List2B,black,woman,,,,,"{""Q0"":""Beth is talking to Mike""}","<img src=""stim_listB/argue3.gif""</stim_listB>",is arguing with,
null,"<div style=""font-size:60px;"">+</div>",,html-keyboard-response,34,676931,0.0-13.0-0.1,57880,List2B,black,woman,,,,null,,,,
null,"<img src=""stim_listB/marry4.gif""</stim_listB>",,html-keyboard-response,35,678934,0.0-13.0-1.1,57880,List2B,black,woman,,,,null,,,,
null,are marrying each other,,html-keyboard-response,36,680938,0.0-13.0-2.1,57880,List2B,black,woman,,,,null,,,,
23060,,,survey-text,37,704002,0.0-13.0-3.1,57880,List2B,black,woman,,,,,"{""Q0"":""kate and fred are marrying each other""}","<img src=""stim_listB/marry4.gif""</stim_listB>",are marrying each other,
null,"<div style=""font-size:60px;"">+</div>",,html-keyboard-response,38,704509,0.0-13.0-0.2,57880,List2B,black,woman,,,,null,,,,
null,"<img src=""stim_listB/dance8.gif""</stim_listB>",,html-keyboard-response,39,706512,0.0-13.0-1.2,57880,List2B,black,woman,,,,null,,,,
null,are dancing with each other,,html-keyboard-response,40,708515,0.0-13.0-2.2,57880,List2B,black,woman,,,,null,,,,
24480,,,survey-text,41,732998,0.0-13.0-3.2,57880,List2B,black,woman,,,,,"{""Q0"":""beth and ruth are dancing with each other""}","<img src=""stim_listB/dance8.gif""</stim_listB>",are dancing with each other,
null,"<div style=""font-size:60px;"">+</div>",,html-keyboard-response,42,733503,0.0-13.0-0.3,57880,List2B,black,woman,,,,null,,,,
null,"<img src=""stim_listB/meet3.gif""</stim_listB>",,html-keyboard-response,43,735508,0.0-13.0-1.3,57880,List2B,black,woman,,,,null,,,,
null,is meeting,,html-keyboard-response,44,737511,0.0-13.0-2.3,57880,List2B,black,woman,,,,null,,,,
20991,,,survey-text,45,758505,0.0-13.0-3.3,57880,List2B,black,woman,,,,,"{""Q0"":""kate and mike are meeting""}","<img src=""stim_listB/meet3.gif""</stim_listB>",is meeting,
null,"<div style=""font-size:60px;"">+</div>",,html-keyboard-response,46,759009,0.0-13.0-0.4,57880,List2B,black,woman,,,,null,,,,
null,"<img src=""stim_listB/dance2.gif""</stim_listB>",,html-keyboard-response,47,761045,0.0-13.0-1.4,57880,List2B,black,woman,,,,null,,,,
null,are dancing with each other,,html-keyboard-response,48,763048,0.0-13.0-2.4,57880,List2B,black,woman,,,,null,,,,
25586,,,survey-text,49,788637,0.0-13.0-3.4,57880,List2B,black,woman,,,,,"{""Q0"":""beth and dave are dancing with each other""}","<img src=""stim_listB/dance2.gif""</stim_listB>",are dancing with each other,
null,"<div style=""font-size:60px;"">+</div>",,html-keyboard-response,50,789212,0.0-13.0-0.5,57880,List2B,black,woman,,,,null,,,,
null,"<img src=""stim_listB/hug3.gif""</stim_listB>",,html-keyboard-response,51,791319,0.0-13.0-1.5,57880,List2B,black,woman,,,,null,,,,
null,is hugging,,html-keyboard-response,52,793320,0.0-13.0-2.5,57880,List2B,black,woman,,,,null,,,,
17992,,,survey-text,53,811315,0.0-13.0-3.5,57880,List2B,black,woman,,,,,"{""Q0"":""beth and fred are hugging""}","<img src=""stim_listB/hug3.gif""</stim_listB>",is hugging,
null,"<div style=""font-size:60px;"">+</div>",,html-keyboard-response,54,811827,0.0-13.0-0.6,57880,List2B,black,woman,,,,null,,,,
null,"<img src=""stim_listB/shout2.gif""</stim_listB>",,html-keyboard-response,55,813870,0.0-13.0-1.6,57880,List2B,black,woman,,,,null,,,,
null,are shouting at each other,,html-keyboard-response,56,815872,0.0-13.0-2.6,57880,List2B,black,woman,,,,null,,,,
25709,,,survey-text,57,841585,0.0-13.0-3.6,57880,List2B,black,woman,,,,,"{""Q0"":""dave and ruth are shouting at each other""}","<img src=""stim_listB/shout2.gif""</stim_listB>",are shouting at each other,
null,"<div style=""font-size:60px;"">+</div>",,html-keyboard-response,58,842094,0.0-13.0-0.7,57880,List2B,black,woman,,,,null,,,,
null,"<img src=""stim_listB/talk7.gif""</stim_listB>",,html-keyboard-response,59,844103,0.0-13.0-1.7,57880,List2B,black,woman,,,,null,,,,
null,is talking to,,html-keyboard-response,60,846105,0.0-13.0-2.7,57880,List2B,black,woman,,,,null,,,,
14125,,,survey-text,61,860233,0.0-13.0-3.7,57880,List2B,black,woman,,,,,"{""Q0"":""kate is talking to ruth""}","<img src=""stim_listB/talk7.gif""</stim_listB>",is talking to,
null,"<div style=""font-size:60px;"">+</div>",,html-keyboard-response,62,860739,0.0-13.0-0.8,57880,List2B,black,woman,,,,null,,,,
null,"<img src=""stim_listB/argue4.gif""</stim_listB>",,html-keyboard-response,63,862751,0.0-13.0-1.8,57880,List2B,black,woman,,,,null,,,,
null,are arguing with each other,,html-keyboard-response,64,864753,0.0-13.0-2.8,57880,List2B,black,woman,,,,null,,,,
89370,,,survey-text,65,954126,0.0-13.0-3.8,57880,List2B,black,woman,,,,,"{""Q0"":""kate and beth  are arguing with each other""}","<img src=""stim_listB/argue4.gif""</stim_listB>",are arguing with each other,
null,"<div style=""font-size:60px;"">+</div>",,html-keyboard-response,66,954632,0.0-13.0-0.9,57880,List2B,black,woman,,,,null,,,,
null,"<img src=""stim_listB/dance3.gif""</stim_listB>",,html-keyboard-response,67,956635,0.0-13.0-1.9,57880,List2B,black,woman,,,,null,,,,
null,is dancing with,,html-keyboard-response,68,958638,0.0-13.0-2.9,57880,List2B,black,woman,,,,null,,,,
22535,,,survey-text,69,981175,0.0-13.0-3.9,57880,List2B,black,woman,,,,,"{""Q0"":""kate and fred are dancing""}","<img src=""stim_listB/dance3.gif""</stim_listB>",is dancing with,
null,"<div style=""font-size:60px;"">+</div>",,html-keyboard-response,70,981682,0.0-13.0-0.10,57880,List2B,black,woman,,,,null,,,,
null,"<img src=""stim_listB/fight4.gif""</stim_listB>",,html-keyboard-response,71,983685,0.0-13.0-1.10,57880,List2B,black,woman,,,,null,,,,
null,are fighting each other,,html-keyboard-response,72,985687,0.0-13.0-2.10,57880,List2B,black,woman,,,,null,,,,
15873,,,survey-text,73,1001563,0.0-13.0-3.10,57880,List2B,black,woman,,,,,"{""Q0"":""beth and mike are fighting each other""}","<img src=""stim_listB/fight4.gif""</stim_listB>",are fighting each other,
null,"<div style=""font-size:60px;"">+</div>",,html-keyboard-response,74,1002074,0.0-13.0-0.11,57880,List2B,black,woman,,,,null,,,,
null,"<img src=""stim_listB/kiss3.gif""</stim_listB>",,html-keyboard-response,75,1004098,0.0-13.0-1.11,57880,List2B,black,woman,,,,null,,,,
null,is kissing,,html-keyboard-response,76,1006099,0.0-13.0-2.11,57880,List2B,black,woman,,,,null,,,,
23121,,,survey-text,77,1029222,0.0-13.0-3.11,57880,List2B,black,woman,,,,,"{""Q0"":""beth is kissing mike""}","<img src=""stim_listB/kiss3.gif""</stim_listB>",is kissing,
null,"<div style=""font-size:60px;"">+</div>",,html-keyboard-response,78,1029730,0.0-13.0-0.12,57880,List2B,black,woman,,,,null,,,,
null,"<img src=""stim_listB/hug7.gif""</stim_listB>",,html-keyboard-response,79,1031734,0.0-13.0-1.12,57880,List2B,black,woman,,,,null,,,,
null,is hugging,,html-keyboard-response,80,1033736,0.0-13.0-2.12,57880,List2B,black,woman,,,,null,,,,
14382,,,survey-text,81,1048119,0.0-13.0-3.12,57880,List2B,black,woman,,,,,"{""Q0"":""beth is hugging ruth""}","<img src=""stim_listB/hug7.gif""</stim_listB>",is hugging,
null,"<div style=""font-size:60px;"">+</div>",,html-keyboard-response,82,1048625,0.0-13.0-0.13,57880,List2B,black,woman,,,,null,,,,
null,"<img src=""stim_listB/fight3.gif""</stim_listB>",,html-keyboard-response,83,1050628,0.0-13.0-1.13,57880,List2B,black,woman,,,,null,,,,
null,is fighting,,html-keyboard-response,84,1052631,0.0-13.0-2.13,57880,List2B,black,woman,,,,null,,,,
24766,,,survey-text,85,1077400,0.0-13.0-3.13,57880,List2B,black,woman,,,,,"{""Q0"":""mike is fighting beth""}","<img src=""stim_listB/fight3.gif""</stim_listB>",is fighting,
null,"<div style=""font-size:60px;"">+</div>",,html-keyboard-response,86,1077912,0.0-13.0-0.14,57880,List2B,black,woman,,,,null,,,,
null,"<img src=""stim_listB/meet8.gif""</stim_listB>",,html-keyboard-response,87,1079916,0.0-13.0-1.14,57880,List2B,black,woman,,,,null,,,,
null,are meeting each other,,html-keyboard-response,88,1081920,0.0-13.0-2.14,57880,List2B,black,woman,,,,null,,,,
13046,,,survey-text,89,1094968,0.0-13.0-3.14,57880,List2B,black,woman,,,,,"{""Q0"":""beth and ruth are meeting""}","<img src=""stim_listB/meet8.gif""</stim_listB>",are meeting each other,
null,"<div style=""font-size:60px;"">+</div>",,html-keyboard-response,90,1095479,0.0-13.0-0.15,57880,List2B,black,woman,,,,null,,,,
null,"<img src=""stim_listB/shout8.gif""</stim_listB>",,html-keyboard-response,91,1097486,0.0-13.0-1.15,57880,List2B,black,woman,,,,null,,,,
null,are shouting at each other,,html-keyboard-response,92,1099504,0.0-13.0-2.15,57880,List2B,black,woman,,,,null,,,,
22547,,,survey-text,93,1122054,0.0-13.0-3.15,57880,List2B,black,woman,,,,,"{""Q0"":""kate and jane are shouting at each other""}","<img src=""stim_listB/shout8.gif""</stim_listB>",are shouting at each other,
null,"<div style=""font-size:60px;"">+</div>",,html-keyboard-response,94,1122563,0.0-13.0-0.16,57880,List2B,black,woman,,,,null,,,,
null,"<img src=""stim_listB/touch5.gif""</stim_listB>",,html-keyboard-response,95,1124570,0.0-13.0-1.16,57880,List2B,black,woman,,,,null,,,,
null,is touching,,html-keyboard-response,96,1126573,0.0-13.0-2.16,57880,List2B,black,woman,,,,null,,,,
23607,,,survey-text,97,1150181,0.0-13.0-3.16,57880,List2B,black,woman,,,,,"{""Q0"":""mike is touching Dave""}","<img src=""stim_listB/touch5.gif""</stim_listB>",is touching,
null,"<div style=""font-size:60px;"">+</div>",,html-keyboard-response,98,1150685,0.0-13.0-0.17,57880,List2B,black,woman,,,,null,,,,
null,"<img src=""stim_listB/touch7.gif""</stim_listB>",,html-keyboard-response,99,1152690,0.0-13.0-1.17,57880,List2B,black,woman,,,,null,,,,
null,is touching,,html-keyboard-response,100,1154693,0.0-13.0-2.17,57880,List2B,black,woman,,,,null,,,,
19837,,,survey-text,101,1174533,0.0-13.0-3.17,57880,List2B,black,woman,,,,,"{""Q0"":""kate is touching ruth""}","<img src=""stim_listB/touch7.gif""</stim_listB>",is touching,
null,"<div style=""font-size:60px;"">+</div>",,html-keyboard-response,102,1175039,0.0-13.0-0.18,57880,List2B,black,woman,,,,null,,,,
null,"<img src=""stim_listB/marry5.gif""</stim_listB>",,html-keyboard-response,103,1177042,0.0-13.0-1.18,57880,List2B,black,woman,,,,null,,,,
null,is marrying,,html-keyboard-response,104,1179045,0.0-13.0-2.18,57880,List2B,black,woman,,,,null,,,,
12729,,,survey-text,105,1191776,0.0-13.0-3.18,57880,List2B,black,woman,,,,,"{""Q0"":""dave is marrying fred""}","<img src=""stim_listB/marry5.gif""</stim_listB>",is marrying,
null,"<div style=""font-size:60px;"">+</div>",,html-keyboard-response,106,1192280,0.0-13.0-0.19,57880,List2B,black,woman,,,,null,,,,
null,"<img src=""stim_listB/touch2.gif""</stim_listB>",,html-keyboard-response,107,1194285,0.0-13.0-1.19,57880,List2B,black,woman,,,,null,,,,
null,are touching each other,,html-keyboard-response,108,1196287,0.0-13.0-2.19,57880,List2B,black,woman,,,,null,,,,
18238,,,survey-text,109,1214528,0.0-13.0-3.19,57880,List2B,black,woman,,,,,"{""Q0"":""luke and ruth are touching each other""}","<img src=""stim_listB/touch2.gif""</stim_listB>",are touching each other,
66982,"<img src='img/portrait_matrix_list2.JPG' style='width:900px;height:500px;''></img><p>If you have memorised all the portraits and names and are ready to start, press Continue.</p><p><strong>Please note: Your memory of these faces will be tested 4 times during this experiment.</strong></p>",0,html-button-response,110,1281518,0.0-14.0-0.0,57880,List2B,black,woman,,,,,,,,
6091,"<img src=""portrait/WM1.jpg""style=""width:400px;height:400px;""></img>",6,html-button-response,111,1288621,0.0-14.0-1.0,57880,List2B,black,woman,,TRUE,6,,,,,
null,CORRECT,,html-keyboard-response,112,1290128,0.0-14.0-2.0-0.0,57880,List2B,black,woman,,,,null,,,,
7637,"<img src=""portrait/BM1.jpg""style=""width:400px;height:400px;""></img>",4,html-button-response,113,1297769,0.0-14.0-4.0,57880,List2B,black,woman,,TRUE,4,,,,,
null,CORRECT,,html-keyboard-response,114,1299274,0.0-14.0-5.0-0.0,57880,List2B,black,woman,,,,null,,,,
3888,"<img src=""portrait/BW2.jpg""style=""width:400px;height:400px;""></img>",2,html-button-response,115,1303166,0.0-14.0-7.0,57880,List2B,black,woman,,TRUE,2,,,,,
null,CORRECT,,html-keyboard-response,116,1304682,0.0-14.0-8.0-0.0,57880,List2B,black,woman,,,,null,,,,
5094,"<img src=""portrait/BW1.jpg""style=""width:400px;height:400px;""></img>",0,html-button-response,117,1309781,0.0-14.0-10.0,57880,List2B,black,woman,,TRUE,0,,,,,
null,CORRECT,,html-keyboard-response,118,1311288,0.0-14.0-11.0-0.0,57880,List2B,black,woman,,,,null,,,,
23941,"<img src=""portrait/WW2.jpg""style=""width:400px;height:400px;""></img>",3,html-button-response,119,1335238,0.0-14.0-13.0,57880,List2B,black,woman,,TRUE,3,,,,,
null,CORRECT,,html-keyboard-response,120,1336742,0.0-14.0-14.0-0.0,57880,List2B,black,woman,,,,null,,,,
6073,"<img src=""portrait/WM2.jpg""style=""width:400px;height:400px;""></img>",7,html-button-response,121,1342818,0.0-14.0-16.0,57880,List2B,black,woman,,TRUE,7,,,,,
null,CORRECT,,html-keyboard-response,122,1344324,0.0-14.0-17.0-0.0,57880,List2B,black,woman,,,,null,,,,
3907,"<img src=""portrait/BM2.jpg""style=""width:400px;height:400px;""></img>",5,html-button-response,123,1348234,0.0-14.0-19.0,57880,List2B,black,woman,,TRUE,5,,,,,
null,CORRECT,,html-keyboard-response,124,1349738,0.0-14.0-20.0-0.0,57880,List2B,black,woman,,,,null,,,,
5559,"<img src=""portrait/WW1.jpg""style=""width:400px;height:400px;""></img>",1,html-button-response,125,1355299,0.0-14.0-22.0,57880,List2B,black,woman,,TRUE,1,,,,,
null,CORRECT,,html-keyboard-response,126,1356804,0.0-14.0-23.0-0.0,57880,List2B,black,woman,,,,null,,,,
3007,<p>You got 8 out of 8 right first time. Press Continue.</p>,0,html-button-response,127,1359813,0.0-14.0-25.0,57880,List2B,black,woman,,,,,,,,
null,"<div style=""font-size:60px;"">+</div>",,html-keyboard-response,128,1361326,0.0-15.0-0.0,57880,List2B,black,woman,,,,null,,,,
null,"<img src=""stim_listB/marry3.gif""</stim_listB>",,html-keyboard-response,129,1363330,0.0-15.0-1.0,57880,List2B,black,woman,,,,null,,,,
null,is marrying,,html-keyboard-response,130,1365332,0.0-15.0-2.0,57880,List2B,black,woman,,,,null,,,,
16285,,,survey-text,131,1381620,0.0-15.0-3.0,57880,List2B,black,woman,,,,,"{""Q0"":""mike is marrying beth""}","<img src=""stim_listB/marry3.gif""</stim_listB>",is marrying,
null,"<div style=""font-size:60px;"">+</div>",,html-keyboard-response,132,1382125,0.0-15.0-0.1,57880,List2B,black,woman,,,,null,,,,
null,"<img src=""stim_listB/talk4.gif""</stim_listB>",,html-keyboard-response,133,1384131,0.0-15.0-1.1,57880,List2B,black,woman,,,,null,,,,
null,are talking to each other,,html-keyboard-response,134,1386134,0.0-15.0-2.1,57880,List2B,black,woman,,,,null,,,,
15464,,,survey-text,135,1401601,0.0-15.0-3.1,57880,List2B,black,woman,,,,,"{""Q0"":""mike and beth are talking to each other""}","<img src=""stim_listB/talk4.gif""</stim_listB>",are talking to each other,
null,"<div style=""font-size:60px;"">+</div>",,html-keyboard-response,136,1402109,0.0-15.0-0.2,57880,List2B,black,woman,,,,null,,,,
null,"<img src=""stim_listB/marry7.gif""</stim_listB>",,html-keyboard-response,137,1404115,0.0-15.0-1.2,57880,List2B,black,woman,,,,null,,,,
null,is marrying,,html-keyboard-response,138,1406117,0.0-15.0-2.2,57880,List2B,black,woman,,,,null,,,,
13263,,,survey-text,139,1419383,0.0-15.0-3.2,57880,List2B,black,woman,,,,,"{""Q0"":""beth is marrying jane""}","<img src=""stim_listB/marry7.gif""</stim_listB>",is marrying,
null,"<div style=""font-size:60px;"">+</div>",,html-keyboard-response,140,1419898,0.0-15.0-0.3,57880,List2B,black,woman,,,,null,,,,
null,"<img src=""stim_listB/dance7.gif""</stim_listB>",,html-keyboard-response,141,1421903,0.0-15.0-1.3,57880,List2B,black,woman,,,,null,,,,
null,is dancing with,,html-keyboard-response,142,1423905,0.0-15.0-2.3,57880,List2B,black,woman,,,,null,,,,
17559,,,survey-text,143,1441468,0.0-15.0-3.3,57880,List2B,black,woman,,,,,"{""Q0"":""kate and ruth are dancing""}","<img src=""stim_listB/dance7.gif""</stim_listB>",is dancing with,
null,"<div style=""font-size:60px;"">+</div>",,html-keyboard-response,144,1441972,0.0-15.0-0.4,57880,List2B,black,woman,,,,null,,,,
null,"<img src=""stim_listB/argue6.gif""</stim_listB>",,html-keyboard-response,145,1443980,0.0-15.0-1.4,57880,List2B,black,woman,,,,null,,,,
null,are arguing with each other,,html-keyboard-response,146,1445982,0.0-15.0-2.4,57880,List2B,black,woman,,,,null,,,,
494503,,,survey-text,147,1940493,0.0-15.0-3.4,57880,List2B,black,woman,,,,,"{""Q0"":""fred and dave are dancing""}","<img src=""stim_listB/argue6.gif""</stim_listB>",are arguing with each other,
null,"<div style=""font-size:60px;"">+</div>",,html-keyboard-response,148,1941008,0.0-15.0-0.5,57880,List2B,black,woman,,,,null,,,,
null,"<img src=""stim_listB/argue7.gif""</stim_listB>",,html-keyboard-response,149,1943019,0.0-15.0-1.5,57880,List2B,black,woman,,,,null,,,,
null,is arguing with,,html-keyboard-response,150,1945034,0.0-15.0-2.5,57880,List2B,black,woman,,,,null,,,,
206159,,,survey-text,151,2151199,0.0-15.0-3.5,57880,List2B,black,woman,,,,,"{""Q0"":""beth is talking with jane""}","<img src=""stim_listB/argue7.gif""</stim_listB>",is arguing with,
null,"<div style=""font-size:60px;"">+</div>",,html-keyboard-response,152,2151714,0.0-15.0-0.6,57880,List2B,black,woman,,,,null,,,,
null,"<img src=""stim_listB/kiss6.gif""</stim_listB>",,html-keyboard-response,153,2153722,0.0-15.0-1.6,57880,List2B,black,woman,,,,null,,,,
null,are kissing each other,,html-keyboard-response,154,2155723,0.0-15.0-2.6,57880,List2B,black,woman,,,,null,,,,
157372,,,survey-text,155,2313099,0.0-15.0-3.6,57880,List2B,black,woman,,,,,"{""Q0"":""dave and mike are kissing each other""}","<img src=""stim_listB/kiss6.gif""</stim_listB>",are kissing each other,
null,"<div style=""font-size:60px;"">+</div>",,html-keyboard-response,156,2313607,0.0-15.0-0.7,57880,List2B,black,woman,,,,null,,,,
null,"<img src=""stim_listB/touch3.gif""</stim_listB>",,html-keyboard-response,157,2315614,0.0-15.0-1.7,57880,List2B,black,woman,,,,null,,,,
null,is touching,,html-keyboard-response,158,2317621,0.0-15.0-2.7,57880,List2B,black,woman,,,,null,,,,
138885,,,survey-text,159,2456511,0.0-15.0-3.7,57880,List2B,black,woman,,,,,"{""Q0"":""kate is touching beth""}","<img src=""stim_listB/touch3.gif""</stim_listB>",is touching,
null,"<div style=""font-size:60px;"">+</div>",,html-keyboard-response,160,2457017,0.0-15.0-0.8,57880,List2B,black,woman,,,,null,,,,
null,"<img src=""stim_listB/talk1.gif""</stim_listB>",,html-keyboard-response,161,2459025,0.0-15.0-1.8,57880,List2B,black,woman,,,,null,,,,
null,is talking to,,html-keyboard-response,162,2461027,0.0-15.0-2.8,57880,List2B,black,woman,,,,null,,,,
18658,,,survey-text,163,2479688,0.0-15.0-3.8,57880,List2B,black,woman,,,,,"{""Q0"":""luke is talking to jane""}","<img src=""stim_listB/talk1.gif""</stim_listB>",is talking to,
null,"<div style=""font-size:60px;"">+</div>",,html-keyboard-response,164,2480192,0.0-15.0-0.9,57880,List2B,black,woman,,,,null,,,,
null,"<img src=""stim_listB/marry2.gif""</stim_listB>",,html-keyboard-response,165,2482197,0.0-15.0-1.9,57880,List2B,black,woman,,,,null,,,,
null,are marrying each other,,html-keyboard-response,166,2484198,0.0-15.0-2.9,57880,List2B,black,woman,,,,null,,,,
64357,,,survey-text,167,2548558,0.0-15.0-3.9,57880,List2B,black,woman,,,,,"{""Q0"":""luke and jane are marrying each other""}","<img src=""stim_listB/marry2.gif""</stim_listB>",are marrying each other,
null,"<div style=""font-size:60px;"">+</div>",,html-keyboard-response,168,2549063,0.0-15.0-0.10,57880,List2B,black,woman,,,,null,,,,
null,"<img src=""stim_listB/meet4.gif""</stim_listB>",,html-keyboard-response,169,2551066,0.0-15.0-1.10,57880,List2B,black,woman,,,,null,,,,
null,are meeting each other,,html-keyboard-response,170,2553072,0.0-15.0-2.10,57880,List2B,black,woman,,,,null,,,,
23908,,,survey-text,171,2576981,0.0-15.0-3.10,57880,List2B,black,woman,,,,,"{""Q0"":""fred and beth are marrying each other""}","<img src=""stim_listB/meet4.gif""</stim_listB>",are meeting each other,
null,"<div style=""font-size:60px;"">+</div>",,html-keyboard-response,172,2577486,0.0-15.0-0.11,57880,List2B,black,woman,,,,null,,,,
null,"<img src=""stim_listB/talk2.gif""</stim_listB>",,html-keyboard-response,173,2579495,0.0-15.0-1.11,57880,List2B,black,woman,,,,null,,,,
null,are talking to each other,,html-keyboard-response,174,2581508,0.0-15.0-2.11,57880,List2B,black,woman,,,,null,,,,
129022,,,survey-text,175,2710533,0.0-15.0-3.11,57880,List2B,black,woman,,,,,"{""Q0"":""ruth and dave are talking to each other""}","<img src=""stim_listB/talk2.gif""</stim_listB>",are talking to each other,
null,"<div style=""font-size:60px;"">+</div>",,html-keyboard-response,176,2711037,0.0-15.0-0.12,57880,List2B,black,woman,,,,null,,,,
null,"<img src=""stim_listB/meet5.gif""</stim_listB>",,html-keyboard-response,177,2713042,0.0-15.0-1.12,57880,List2B,black,woman,,,,null,,,,
null,is meeting,,html-keyboard-response,178,2715044,0.0-15.0-2.12,57880,List2B,black,woman,,,,null,,,,
108763,,,survey-text,179,2823810,0.0-15.0-3.12,57880,List2B,black,woman,,,,,"{""Q0"":""mike and dave are meeting""}","<img src=""stim_listB/meet5.gif""</stim_listB>",is meeting,
null,"<div style=""font-size:60px;"">+</div>",,html-keyboard-response,180,2824317,0.0-15.0-0.13,57880,List2B,black,woman,,,,null,,,,
null,"<img src=""stim_listB/hug2.gif""</stim_listB>",,html-keyboard-response,181,2826320,0.0-15.0-1.13,57880,List2B,black,woman,,,,null,,,,
null,are hugging each other,,html-keyboard-response,182,2828322,0.0-15.0-2.13,57880,List2B,black,woman,,,,null,,,,
274645,,,survey-text,183,3102971,0.0-15.0-3.13,57880,List2B,black,woman,,,,,"{""Q0"":""dave and ruth are hugging""}","<img src=""stim_listB/hug2.gif""</stim_listB>",are hugging each other,
null,"<div style=""font-size:60px;"">+</div>",,html-keyboard-response,184,3103477,0.0-15.0-0.14,57880,List2B,black,woman,,,,null,,,,
null,"<img src=""stim_listB/meet1.gif""</stim_listB>",,html-keyboard-response,185,3105483,0.0-15.0-1.14,57880,List2B,black,woman,,,,null,,,,
null,is meeting,,html-keyboard-response,186,3107484,0.0-15.0-2.14,57880,List2B,black,woman,,,,null,,,,
262113,,,survey-text,187,3369600,0.0-15.0-3.14,57880,List2B,black,woman,,,,,"{""Q0"":""mike and beth are hugging""}","<img src=""stim_listB/meet1.gif""</stim_listB>",is meeting,
null,"<div style=""font-size:60px;"">+</div>",,html-keyboard-response,188,3370105,0.0-15.0-0.15,57880,List2B,black,woman,,,,null,,,,
null,"<img src=""stim_listB/kiss8.gif""</stim_listB>",,html-keyboard-response,189,3372113,0.0-15.0-1.15,57880,List2B,black,woman,,,,null,,,,
null,are kissing each other,,html-keyboard-response,190,3374114,0.0-15.0-2.15,57880,List2B,black,woman,,,,null,,,,
17180,,,survey-text,191,3391298,0.0-15.0-3.15,57880,List2B,black,woman,,,,,"{""Q0"":""kate and jane are kissing""}","<img src=""stim_listB/kiss8.gif""</stim_listB>",are kissing each other,
null,"<div style=""font-size:60px;"">+</div>",,html-keyboard-response,192,3391802,0.0-15.0-0.16,57880,List2B,black,woman,,,,null,,,,
null,"<img src=""stim_listB/talk3.gif""</stim_listB>",,html-keyboard-response,193,3393812,0.0-15.0-1.16,57880,List2B,black,woman,,,,null,,,,
null,is talking to,,html-keyboard-response,194,3395814,0.0-15.0-2.16,57880,List2B,black,woman,,,,null,,,,
58301,,,survey-text,195,3454120,0.0-15.0-3.16,57880,List2B,black,woman,,,,,"{""Q0"":""kate is talking to Fred""}","<img src=""stim_listB/talk3.gif""</stim_listB>",is talking to,
null,"<div style=""font-size:60px;"">+</div>",,html-keyboard-response,196,3454625,0.0-15.0-0.17,57880,List2B,black,woman,,,,null,,,,
null,"<img src=""stim_listB/fight7.gif""</stim_listB>",,html-keyboard-response,197,3456630,0.0-15.0-1.17,57880,List2B,black,woman,,,,null,,,,
null,is fighting,,html-keyboard-response,198,3458632,0.0-15.0-2.17,57880,List2B,black,woman,,,,null,,,,
87778,,,survey-text,199,3546414,0.0-15.0-3.17,57880,List2B,black,woman,,,,,"{""Q0"":""kate is fighting jane""}","<img src=""stim_listB/fight7.gif""</stim_listB>",is fighting,
null,"<div style=""font-size:60px;"">+</div>",,html-keyboard-response,200,3546921,0.0-15.0-0.18,57880,List2B,black,woman,,,,null,,,,
null,"<img src=""stim_listB/touch1.gif""</stim_listB>",,html-keyboard-response,201,3548925,0.0-15.0-1.18,57880,List2B,black,woman,,,,null,,,,
null,is touching,,html-keyboard-response,202,3550926,0.0-15.0-2.18,57880,List2B,black,woman,,,,null,,,,
24062,,,survey-text,203,3574992,0.0-15.0-3.18,57880,List2B,black,woman,,,,,"{""Q0"":""dave is touching ruth""}","<img src=""stim_listB/touch1.gif""</stim_listB>",is touching,
null,"<div style=""font-size:60px;"">+</div>",,html-keyboard-response,204,3575497,0.0-15.0-0.19,57880,List2B,black,woman,,,,null,,,,
null,"<img src=""stim_listB/fight8.gif""</stim_listB>",,html-keyboard-response,205,3577501,0.0-15.0-1.19,57880,List2B,black,woman,,,,null,,,,
null,are fighting each other,,html-keyboard-response,206,3579503,0.0-15.0-2.19,57880,List2B,black,woman,,,,null,,,,
139010,,,survey-text,207,3718519,0.0-15.0-3.19,57880,List2B,black,woman,,,,,"{""Q0"":""beth and ruth are fighting eachother""}","<img src=""stim_listB/fight8.gif""</stim_listB>",are fighting each other,
14648,"<img src='img/portrait_matrix_list2.JPG' style='width:900px;height:500px;''></img><p>If you have memorised all the portraits and names and are ready to start, press Continue.</p><p><strong>Please note: Your memory of these faces will be tested 4 times during this experiment.</strong></p>",0,html-button-response,208,3733200,0.0-16.0-0.0,57880,List2B,black,woman,,,,,,,,
5120,"<img src=""portrait/WW2.jpg""style=""width:400px;height:400px;""></img>",3,html-button-response,209,3739342,0.0-16.0-1.0,57880,List2B,black,woman,,TRUE,3,,,,,
null,CORRECT,,html-keyboard-response,210,3740852,0.0-16.0-2.0-0.0,57880,List2B,black,woman,,,,null,,,,
3905,"<img src=""portrait/BM1.jpg""style=""width:400px;height:400px;""></img>",4,html-button-response,211,3744766,0.0-16.0-4.0,57880,List2B,black,woman,,TRUE,4,,,,,
null,CORRECT,,html-keyboard-response,212,3746276,0.0-16.0-5.0-0.0,57880,List2B,black,woman,,,,null,,,,
3557,"<img src=""portrait/BM2.jpg""style=""width:400px;height:400px;""></img>",5,html-button-response,213,3749841,0.0-16.0-7.0,57880,List2B,black,woman,,TRUE,5,,,,,
null,CORRECT,,html-keyboard-response,214,3751349,0.0-16.0-8.0-0.0,57880,List2B,black,woman,,,,null,,,,
3519,"<img src=""portrait/WW1.jpg""style=""width:400px;height:400px;""></img>",1,html-button-response,215,3754873,0.0-16.0-10.0,57880,List2B,black,woman,,TRUE,1,,,,,
null,CORRECT,,html-keyboard-response,216,3756377,0.0-16.0-11.0-0.0,57880,List2B,black,woman,,,,null,,,,
4670,"<img src=""portrait/BW2.jpg""style=""width:400px;height:400px;""></img>",2,html-button-response,217,3761056,0.0-16.0-13.0,57880,List2B,black,woman,,TRUE,2,,,,,
null,CORRECT,,html-keyboard-response,218,3762567,0.0-16.0-14.0-0.0,57880,List2B,black,woman,,,,null,,,,
3915,"<img src=""portrait/BW1.jpg""style=""width:400px;height:400px;""></img>",0,html-button-response,219,3766489,0.0-16.0-16.0,57880,List2B,black,woman,,TRUE,0,,,,,
null,CORRECT,,html-keyboard-response,220,3767994,0.0-16.0-17.0-0.0,57880,List2B,black,woman,,,,null,,,,
3943,"<img src=""portrait/WM1.jpg""style=""width:400px;height:400px;""></img>",6,html-button-response,221,3771944,0.0-16.0-19.0,57880,List2B,black,woman,,TRUE,6,,,,,
null,CORRECT,,html-keyboard-response,222,3773454,0.0-16.0-20.0-0.0,57880,List2B,black,woman,,,,null,,,,
3220,"<img src=""portrait/WM2.jpg""style=""width:400px;height:400px;""></img>",7,html-button-response,223,3776695,0.0-16.0-22.0,57880,List2B,black,woman,,TRUE,7,,,,,
null,CORRECT,,html-keyboard-response,224,3778211,0.0-16.0-23.0-0.0,57880,List2B,black,woman,,,,null,,,,
8345,<p>You got 8 out of 8 right first time. Press Continue.</p>,0,html-button-response,225,3786583,0.0-16.0-25.0,57880,List2B,black,woman,,,,,,,,
null,"<div style=""font-size:60px;"">+</div>",,html-keyboard-response,226,3788104,0.0-17.0-0.0,57880,List2B,black,woman,,,,null,,,,
null,"<img src=""stim_listB/dance1.gif""</stim_listB>",,html-keyboard-response,227,3790111,0.0-17.0-1.0,57880,List2B,black,woman,,,,null,,,,
null,is dancing with,,html-keyboard-response,228,3792114,0.0-17.0-2.0,57880,List2B,black,woman,,,,null,,,,
16811,,,survey-text,229,3808929,0.0-17.0-3.0,57880,List2B,black,woman,,,,,"{""Q0"":""luke is dancing with ruth""}","<img src=""stim_listB/dance1.gif""</stim_listB>",is dancing with,
null,"<div style=""font-size:60px;"">+</div>",,html-keyboard-response,230,3809434,0.0-17.0-0.1,57880,List2B,black,woman,,,,null,,,,
null,"<img src=""stim_listB/hug1.gif""</stim_listB>",,html-keyboard-response,231,3811440,0.0-17.0-1.1,57880,List2B,black,woman,,,,null,,,,
null,is hugging,,html-keyboard-response,232,3813442,0.0-17.0-2.1,57880,List2B,black,woman,,,,null,,,,
10788,,,survey-text,233,3824235,0.0-17.0-3.1,57880,List2B,black,woman,,,,,"{""Q0"":""luke is hugging ruth""}","<img src=""stim_listB/hug1.gif""</stim_listB>",is hugging,
null,"<div style=""font-size:60px;"">+</div>",,html-keyboard-response,234,3824766,0.0-17.0-0.2,57880,List2B,black,woman,,,,null,,,,
null,"<img src=""stim_listB/kiss7.gif""</stim_listB>",,html-keyboard-response,235,3826775,0.0-17.0-1.2,57880,List2B,black,woman,,,,null,,,,
null,is kissing,,html-keyboard-response,236,3828777,0.0-17.0-2.2,57880,List2B,black,woman,,,,null,,,,
9000,,,survey-text,237,3837784,0.0-17.0-3.2,57880,List2B,black,woman,,,,,"{""Q0"":""beth is kissing ruth""}","<img src=""stim_listB/kiss7.gif""</stim_listB>",is kissing,
null,"<div style=""font-size:60px;"">+</div>",,html-keyboard-response,238,3838301,0.0-17.0-0.3,57880,List2B,black,woman,,,,null,,,,
null,"<img src=""stim_listB/hug4.gif""</stim_listB>",,html-keyboard-response,239,3840317,0.0-17.0-1.3,57880,List2B,black,woman,,,,null,,,,
null,are hugging each other,,html-keyboard-response,240,3842325,0.0-17.0-2.3,57880,List2B,black,woman,,,,null,,,,
11293,,,survey-text,241,3853625,0.0-17.0-3.3,57880,List2B,black,woman,,,,,"{""Q0"":""mike is hugging kate""}","<img src=""stim_listB/hug4.gif""</stim_listB>",are hugging each other,
null,"<div style=""font-size:60px;"">+</div>",,html-keyboard-response,242,3854140,0.0-17.0-0.4,57880,List2B,black,woman,,,,null,,,,
null,"<img src=""stim_listB/dance5.gif""</stim_listB>",,html-keyboard-response,243,3856148,0.0-17.0-1.4,57880,List2B,black,woman,,,,null,,,,
null,is dancing with,,html-keyboard-response,244,3858163,0.0-17.0-2.4,57880,List2B,black,woman,,,,null,,,,
10491,,,survey-text,245,3868663,0.0-17.0-3.4,57880,List2B,black,woman,,,,,"{""Q0"":""luke is dancing with mike""}","<img src=""stim_listB/dance5.gif""</stim_listB>",is dancing with,
null,"<div style=""font-size:60px;"">+</div>",,html-keyboard-response,246,3869170,0.0-17.0-0.5,57880,List2B,black,woman,,,,null,,,,
null,"<img src=""stim_listB/hug8.gif""</stim_listB>",,html-keyboard-response,247,3871178,0.0-17.0-1.5,57880,List2B,black,woman,,,,null,,,,
null,are hugging each other,,html-keyboard-response,248,3873185,0.0-17.0-2.5,57880,List2B,black,woman,,,,null,,,,
13615,,,survey-text,249,3886809,0.0-17.0-3.5,57880,List2B,black,woman,,,,,"{""Q0"":""jane and kate are hugging each other""}","<img src=""stim_listB/hug8.gif""</stim_listB>",are hugging each other,
null,"<div style=""font-size:60px;"">+</div>",,html-keyboard-response,250,3887323,0.0-17.0-0.6,57880,List2B,black,woman,,,,null,,,,
null,"<img src=""stim_listB/fight5.gif""</stim_listB>",,html-keyboard-response,251,3889328,0.0-17.0-1.6,57880,List2B,black,woman,,,,null,,,,
null,is fighting,,html-keyboard-response,252,3891335,0.0-17.0-2.6,57880,List2B,black,woman,,,,null,,,,
8951,,,survey-text,253,3900292,0.0-17.0-3.6,57880,List2B,black,woman,,,,,"{""Q0"":""dave is fighting mike""}","<img src=""stim_listB/fight5.gif""</stim_listB>",is fighting,
null,"<div style=""font-size:60px;"">+</div>",,html-keyboard-response,254,3900801,0.0-17.0-0.7,57880,List2B,black,woman,,,,null,,,,
null,"<img src=""stim_listB/kiss1.gif""</stim_listB>",,html-keyboard-response,255,3902805,0.0-17.0-1.7,57880,List2B,black,woman,,,,null,,,,
null,is kissing,,html-keyboard-response,256,3904811,0.0-17.0-2.7,57880,List2B,black,woman,,,,null,,,,
20771,,,survey-text,257,3925590,0.0-17.0-3.7,57880,List2B,black,woman,,,,,"{""Q0"":""luke is kissing ruth""}","<img src=""stim_listB/kiss1.gif""</stim_listB>",is kissing,
null,"<div style=""font-size:60px;"">+</div>",,html-keyboard-response,258,3926299,0.0-17.0-0.8,57880,List2B,black,woman,,,,null,,,,
null,"<img src=""stim_listB/hug5.gif""</stim_listB>",,html-keyboard-response,259,3928308,0.0-17.0-1.8,57880,List2B,black,woman,,,,null,,,,
null,is hugging,,html-keyboard-response,260,3930314,0.0-17.0-2.8,57880,List2B,black,woman,,,,null,,,,
24860,,,survey-text,261,3955179,0.0-17.0-3.8,57880,List2B,black,woman,,,,,"{""Q0"":""fred is hugging luke""}","<img src=""stim_listB/hug5.gif""</stim_listB>",is hugging,
null,"<div style=""font-size:60px;"">+</div>",,html-keyboard-response,262,3955692,0.0-17.0-0.9,57880,List2B,black,woman,,,,null,,,,
null,"<img src=""stim_listB/meet6.gif""</stim_listB>",,html-keyboard-response,263,3957701,0.0-17.0-1.9,57880,List2B,black,woman,,,,null,,,,
null,are meeting each other,,html-keyboard-response,264,3959709,0.0-17.0-2.9,57880,List2B,black,woman,,,,null,,,,
24951,,,survey-text,265,3984665,0.0-17.0-3.9,57880,List2B,black,woman,,,,,"{""Q0"":""fred and luke are meeting each other""}","<img src=""stim_listB/meet6.gif""</stim_listB>",are meeting each other,
null,"<div style=""font-size:60px;"">+</div>",,html-keyboard-response,266,3985172,0.0-17.0-0.10,57880,List2B,black,woman,,,,null,,,,
null,"<img src=""stim_listB/fight1.gif""</stim_listB>",,html-keyboard-response,267,3987180,0.0-17.0-1.10,57880,List2B,black,woman,,,,null,,,,
null,is fighting,,html-keyboard-response,268,3989182,0.0-17.0-2.10,57880,List2B,black,woman,,,,null,,,,
43094,,,survey-text,269,4032283,0.0-17.0-3.10,57880,List2B,black,woman,,,,,"{""Q0"":""dave is fighting jane""}","<img src=""stim_listB/fight1.gif""</stim_listB>",is fighting,
null,"<div style=""font-size:60px;"">+</div>",,html-keyboard-response,270,4032797,0.0-17.0-0.11,57880,List2B,black,woman,,,,null,,,,
null,"<img src=""stim_listB/argue5.gif""</stim_listB>",,html-keyboard-response,271,4034820,0.0-17.0-1.11,57880,List2B,black,woman,,,,null,,,,
null,is arguing with,,html-keyboard-response,272,4036825,0.0-17.0-2.11,57880,List2B,black,woman,,,,null,,,,
12180,,,survey-text,273,4049012,0.0-17.0-3.11,57880,List2B,black,woman,,,,,"{""Q0"":""dave is arguing with fred""}","<img src=""stim_listB/argue5.gif""</stim_listB>",is arguing with,
null,"<div style=""font-size:60px;"">+</div>",,html-keyboard-response,274,4049519,0.0-17.0-0.12,57880,List2B,black,woman,,,,null,,,,
null,"<img src=""stim_listB/meet2.gif""</stim_listB>",,html-keyboard-response,275,4051525,0.0-17.0-1.12,57880,List2B,black,woman,,,,null,,,,
null,are meeting each other,,html-keyboard-response,276,4053527,0.0-17.0-2.12,57880,List2B,black,woman,,,,null,,,,
15191,,,survey-text,277,4068725,0.0-17.0-3.12,57880,List2B,black,woman,,,,,"{""Q0"":""luke and ruth are meeting each other""}","<img src=""stim_listB/meet2.gif""</stim_listB>",are meeting each other,
null,"<div style=""font-size:60px;"">+</div>",,html-keyboard-response,278,4069237,0.0-17.0-0.13,57880,List2B,black,woman,,,,null,,,,
null,"<img src=""stim_listB/argue8.gif""</stim_listB>",,html-keyboard-response,279,4071250,0.0-17.0-1.13,57880,List2B,black,woman,,,,null,,,,
null,are arguing with each other,,html-keyboard-response,280,4073255,0.0-17.0-2.13,57880,List2B,black,woman,,,,null,,,,
32538,,,survey-text,281,4105800,0.0-17.0-3.13,57880,List2B,black,woman,,,,,"{""Q0"":""kate and ruth are meeting each other""}","<img src=""stim_listB/argue8.gif""</stim_listB>",are arguing with each other,
null,"<div style=""font-size:60px;"">+</div>",,html-keyboard-response,282,4106307,0.0-17.0-0.14,57880,List2B,black,woman,,,,null,,,,
null,"<img src=""stim_listB/hug6.gif""</stim_listB>",,html-keyboard-response,283,4108312,0.0-17.0-1.14,57880,List2B,black,woman,,,,null,,,,
null,are hugging each other,,html-keyboard-response,284,4110317,0.0-17.0-2.14,57880,List2B,black,woman,,,,null,,,,
68709,,,survey-text,285,4179034,0.0-17.0-3.14,57880,List2B,black,woman,,,,,"{""Q0"":""dave and mike are hugging""}","<img src=""stim_listB/hug6.gif""</stim_listB>",are hugging each other,
null,"<div style=""font-size:60px;"">+</div>",,html-keyboard-response,286,4179543,0.0-17.0-0.15,57880,List2B,black,woman,,,,null,,,,
null,"<img src=""stim_listB/talk8.gif""</stim_listB>",,html-keyboard-response,287,4181554,0.0-17.0-1.15,57880,List2B,black,woman,,,,null,,,,
null,are talking to each other,,html-keyboard-response,288,4183570,0.0-17.0-2.15,57880,List2B,black,woman,,,,null,,,,
33262,,,survey-text,289,4216841,0.0-17.0-3.15,57880,List2B,black,woman,,,,,"{""Q0"":""jane and beth are talking to each other""}","<img src=""stim_listB/talk8.gif""</stim_listB>",are talking to each other,
null,"<div style=""font-size:60px;"">+</div>",,html-keyboard-response,290,4217350,0.0-17.0-0.16,57880,List2B,black,woman,,,,null,,,,
null,"<img src=""stim_listB/touch4.gif""</stim_listB>",,html-keyboard-response,291,4219360,0.0-17.0-1.16,57880,List2B,black,woman,,,,null,,,,
null,are touching each other,,html-keyboard-response,292,4221364,0.0-17.0-2.16,57880,List2B,black,woman,,,,null,,,,
70725,,,survey-text,293,4292099,0.0-17.0-3.16,57880,List2B,black,woman,,,,,"{""Q0"":""beth and fred are touching each other""}","<img src=""stim_listB/touch4.gif""</stim_listB>",are touching each other,
null,"<div style=""font-size:60px;"">+</div>",,html-keyboard-response,294,4292608,0.0-17.0-0.17,57880,List2B,black,woman,,,,null,,,,
null,"<img src=""stim_listB/dance6.gif""</stim_listB>",,html-keyboard-response,295,4294618,0.0-17.0-1.17,57880,List2B,black,woman,,,,null,,,,
null,are dancing with each other,,html-keyboard-response,296,4296623,0.0-17.0-2.17,57880,List2B,black,woman,,,,null,,,,
63243,,,survey-text,297,4359874,0.0-17.0-3.17,57880,List2B,black,woman,,,,,"{""Q0"":""dave and fred are dancing with each other""}","<img src=""stim_listB/dance6.gif""</stim_listB>",are dancing with each other,
null,"<div style=""font-size:60px;"">+</div>",,html-keyboard-response,298,4360387,0.0-17.0-0.18,57880,List2B,black,woman,,,,null,,,,
null,"<img src=""stim_listB/touch6.gif""</stim_listB>",,html-keyboard-response,299,4362397,0.0-17.0-1.18,57880,List2B,black,woman,,,,null,,,,
null,are touching each other,,html-keyboard-response,300,4364404,0.0-17.0-2.18,57880,List2B,black,woman,,,,null,,,,
12648,,,survey-text,301,4377057,0.0-17.0-3.18,57880,List2B,black,woman,,,,,"{""Q0"":""luke and fred are touching each other""}","<img src=""stim_listB/touch6.gif""</stim_listB>",are touching each other,
null,"<div style=""font-size:60px;"">+</div>",,html-keyboard-response,302,4377565,0.0-17.0-0.19,57880,List2B,black,woman,,,,null,,,,
null,"<img src=""stim_listB/meet7.gif""</stim_listB>",,html-keyboard-response,303,4379570,0.0-17.0-1.19,57880,List2B,black,woman,,,,null,,,,
null,is meeting,,html-keyboard-response,304,4381580,0.0-17.0-2.19,57880,List2B,black,woman,,,,null,,,,
10518,,,survey-text,305,4392106,0.0-17.0-3.19,57880,List2B,black,woman,,,,,"{""Q0"":""kate is meeting jane""}","<img src=""stim_listB/meet7.gif""</stim_listB>",is meeting,
168596,"<img src='img/portrait_matrix_list2.JPG' style='width:900px;height:500px;''></img><p>If you have memorised all the portraits and names and are ready to start, press Continue.</p><p><strong>Please note: Your memory of these faces will be tested 4 times during this experiment.</strong></p>",0,html-button-response,306,4560716,0.0-18.0-0.0,57880,List2B,black,woman,,,,,,,,
10033,"<img src=""portrait/WM2.jpg""style=""width:400px;height:400px;""></img>",7,html-button-response,307,4571768,0.0-18.0-1.0,57880,List2B,black,woman,,TRUE,7,,,,,
null,CORRECT,,html-keyboard-response,308,4573277,0.0-18.0-2.0-0.0,57880,List2B,black,woman,,,,null,,,,
4970,"<img src=""portrait/WW1.jpg""style=""width:400px;height:400px;""></img>",1,html-button-response,309,4578262,0.0-18.0-4.0,57880,List2B,black,woman,,TRUE,1,,,,,
null,CORRECT,,html-keyboard-response,310,4579768,0.0-18.0-5.0-0.0,57880,List2B,black,woman,,,,null,,,,
3240,"<img src=""portrait/WW2.jpg""style=""width:400px;height:400px;""></img>",3,html-button-response,311,4583019,0.0-18.0-7.0,57880,List2B,black,woman,,TRUE,3,,,,,
null,CORRECT,,html-keyboard-response,312,4584529,0.0-18.0-8.0-0.0,57880,List2B,black,woman,,,,null,,,,
3826,"<img src=""portrait/BW1.jpg""style=""width:400px;height:400px;""></img>",0,html-button-response,313,4588374,0.0-18.0-10.0,57880,List2B,black,woman,,TRUE,0,,,,,
null,CORRECT,,html-keyboard-response,314,4589885,0.0-18.0-11.0-0.0,57880,List2B,black,woman,,,,null,,,,
3166,"<img src=""portrait/BM1.jpg""style=""width:400px;height:400px;""></img>",4,html-button-response,315,4593069,0.0-18.0-13.0,57880,List2B,black,woman,,TRUE,4,,,,,
null,CORRECT,,html-keyboard-response,316,4594577,0.0-18.0-14.0-0.0,57880,List2B,black,woman,,,,null,,,,
6602,"<img src=""portrait/WM1.jpg""style=""width:400px;height:400px;""></img>",6,html-button-response,317,4601188,0.0-18.0-16.0,57880,List2B,black,woman,,TRUE,6,,,,,
null,CORRECT,,html-keyboard-response,318,4602696,0.0-18.0-17.0-0.0,57880,List2B,black,woman,,,,null,,,,
5051,"<img src=""portrait/BW2.jpg""style=""width:400px;height:400px;""></img>",2,html-button-response,319,4607753,0.0-18.0-19.0,57880,List2B,black,woman,,TRUE,2,,,,,
null,CORRECT,,html-keyboard-response,320,4609281,0.0-18.0-20.0-0.0,57880,List2B,black,woman,,,,null,,,,
9348,"<img src=""portrait/BM2.jpg""style=""width:400px;height:400px;""></img>",5,html-button-response,321,4618634,0.0-18.0-22.0,57880,List2B,black,woman,,TRUE,5,,,,,
null,CORRECT,,html-keyboard-response,322,4620139,0.0-18.0-23.0-0.0,57880,List2B,black,woman,,,,null,,,,
6496,<p>You got 8 out of 8 right first time. Press Continue.</p>,0,html-button-response,323,4626645,0.0-18.0-25.0,57880,List2B,black,woman,,,,,,,,
null,"<div style=""font-size:60px;"">+</div>",,html-keyboard-response,324,4628161,0.0-19.0-0.0,57880,List2B,black,woman,,,,null,,,,
null,"<img src=""stim_listB/touch8.gif""</stim_listB>",,html-keyboard-response,325,4630167,0.0-19.0-1.0,57880,List2B,black,woman,,,,null,,,,
null,are touching each other,,html-keyboard-response,326,4632170,0.0-19.0-2.0,57880,List2B,black,woman,,,,null,,,,
25040,,,survey-text,327,4657216,0.0-19.0-3.0,57880,List2B,black,woman,,,,,"{""Q0"":""jane and beth are touching each other""}","<img src=""stim_listB/touch8.gif""</stim_listB>",are touching each other,
null,"<div style=""font-size:60px;"">+</div>",,html-keyboard-response,328,4657729,0.0-19.0-0.1,57880,List2B,black,woman,,,,null,,,,
null,"<img src=""stim_listB/talk6.gif""</stim_listB>",,html-keyboard-response,329,4659738,0.0-19.0-1.1,57880,List2B,black,woman,,,,null,,,,
null,are talking to each other,,html-keyboard-response,330,4661744,0.0-19.0-2.1,57880,List2B,black,woman,,,,null,,,,
54416,,,survey-text,331,4716165,0.0-19.0-3.1,57880,List2B,black,woman,,,,,"{""Q0"":""fred and dave are talking to each other""}","<img src=""stim_listB/talk6.gif""</stim_listB>",are talking to each other,
null,"<div style=""font-size:60px;"">+</div>",,html-keyboard-response,332,4716702,0.0-19.0-0.2,57880,List2B,black,woman,,,,null,,,,
null,"<img src=""stim_listB/kiss5.gif""</stim_listB>",,html-keyboard-response,333,4718722,0.0-19.0-1.2,57880,List2B,black,woman,,,,null,,,,
null,is kissing,,html-keyboard-response,334,4720725,0.0-19.0-2.2,57880,List2B,black,woman,,,,null,,,,
25079,,,survey-text,335,4745815,0.0-19.0-3.2,57880,List2B,black,woman,,,,,"{""Q0"":""fred and luke are kissing""}","<img src=""stim_listB/kiss5.gif""</stim_listB>",is kissing,
null,"<div style=""font-size:60px;"">+</div>",,html-keyboard-response,336,4746330,0.0-19.0-0.3,57880,List2B,black,woman,,,,null,,,,
null,"<img src=""stim_listB/shout6.gif""</stim_listB>",,html-keyboard-response,337,4748338,0.0-19.0-1.3,57880,List2B,black,woman,,,,null,,,,
null,are shouting at each other,,html-keyboard-response,338,4750344,0.0-19.0-2.3,57880,List2B,black,woman,,,,null,,,,
78610,,,survey-text,339,4828963,0.0-19.0-3.3,57880,List2B,black,woman,,,,,"{""Q0"":""mike and dave are shouting at each other""}","<img src=""stim_listB/shout6.gif""</stim_listB>",are shouting at each other,
null,"<div style=""font-size:60px;"">+</div>",,html-keyboard-response,340,4829474,0.0-19.0-0.4,57880,List2B,black,woman,,,,null,,,,
null,"<img src=""stim_listB/talk5.gif""</stim_listB>",,html-keyboard-response,341,4831488,0.0-19.0-1.4,57880,List2B,black,woman,,,,null,,,,
null,is talking to,,html-keyboard-response,342,4833496,0.0-19.0-2.4,57880,List2B,black,woman,,,,null,,,,
27099,,,survey-text,343,4860607,0.0-19.0-3.4,57880,List2B,black,woman,,,,,"{""Q0"":""mike is talking to fred""}","<img src=""stim_listB/talk5.gif""</stim_listB>",is talking to,
null,"<div style=""font-size:60px;"">+</div>",,html-keyboard-response,344,4861116,0.0-19.0-0.5,57880,List2B,black,woman,,,,null,,,,
null,"<img src=""stim_listB/shout7.gif""</stim_listB>",,html-keyboard-response,345,4863138,0.0-19.0-1.5,57880,List2B,black,woman,,,,null,,,,
null,is shouting at,,html-keyboard-response,346,4865141,0.0-19.0-2.5,57880,List2B,black,woman,,,,null,,,,
103887,,,survey-text,347,4969035,0.0-19.0-3.5,57880,List2B,black,woman,,,,,"{""Q0"":""beth and ruth are shouting at each other""}","<img src=""stim_listB/shout7.gif""</stim_listB>",is shouting at,
null,"<div style=""font-size:60px;"">+</div>",,html-keyboard-response,348,4969544,0.0-19.0-0.6,57880,List2B,black,woman,,,,null,,,,
null,"<img src=""stim_listB/shout4.gif""</stim_listB>",,html-keyboard-response,349,4971556,0.0-19.0-1.6,57880,List2B,black,woman,,,,null,,,,
null,are shouting at each other,,html-keyboard-response,350,4973565,0.0-19.0-2.6,57880,List2B,black,woman,,,,null,,,,
90729,,,survey-text,351,5064301,0.0-19.0-3.6,57880,List2B,black,woman,,,,,"{""Q0"":""mike and kate are shouting at each other""}","<img src=""stim_listB/shout4.gif""</stim_listB>",are shouting at each other,
null,"<div style=""font-size:60px;"">+</div>",,html-keyboard-response,352,5064813,0.0-19.0-0.7,57880,List2B,black,woman,,,,null,,,,
null,"<img src=""stim_listB/shout1.gif""</stim_listB>",,html-keyboard-response,353,5066824,0.0-19.0-1.7,57880,List2B,black,woman,,,,null,,,,
null,is shouting at,,html-keyboard-response,354,5068828,0.0-19.0-2.7,57880,List2B,black,woman,,,,null,,,,
22425,,,survey-text,355,5091259,0.0-19.0-3.7,57880,List2B,black,woman,,,,,"{""Q0"":""luke is shouting at ruth""}","<img src=""stim_listB/shout1.gif""</stim_listB>",is shouting at,
null,"<div style=""font-size:60px;"">+</div>",,html-keyboard-response,356,5091768,0.0-19.0-0.8,57880,List2B,black,woman,,,,null,,,,
null,"<img src=""stim_listB/fight6.gif""</stim_listB>",,html-keyboard-response,357,5093778,0.0-19.0-1.8,57880,List2B,black,woman,,,,null,,,,
null,are fighting each other,,html-keyboard-response,358,5095782,0.0-19.0-2.8,57880,List2B,black,woman,,,,null,,,,
17440,,,survey-text,359,5113226,0.0-19.0-3.8,57880,List2B,black,woman,,,,,"{""Q0"":""luke and fred are fighting each other""}","<img src=""stim_listB/fight6.gif""</stim_listB>",are fighting each other,
null,"<div style=""font-size:60px;"">+</div>",,html-keyboard-response,360,5113731,0.0-19.0-0.9,57880,List2B,black,woman,,,,null,,,,
null,"<img src=""stim_listB/kiss4.gif""</stim_listB>",,html-keyboard-response,361,5115764,0.0-19.0-1.9,57880,List2B,black,woman,,,,null,,,,
null,are kissing each other,,html-keyboard-response,362,5117768,0.0-19.0-2.9,57880,List2B,black,woman,,,,null,,,,
30225,,,survey-text,363,5147999,0.0-19.0-3.9,57880,List2B,black,woman,,,,,"{""Q0"":""mike and kate are kissing each other""}","<img src=""stim_listB/kiss4.gif""</stim_listB>",are kissing each other,
null,"<div style=""font-size:60px;"">+</div>",,html-keyboard-response,364,5148503,0.0-19.0-0.10,57880,List2B,black,woman,,,,null,,,,
null,"<img src=""stim_listB/dance4.gif""</stim_listB>",,html-keyboard-response,365,5150514,0.0-19.0-1.10,57880,List2B,black,woman,,,,null,,,,
null,are dancing with each other,,html-keyboard-response,366,5152517,0.0-19.0-2.10,57880,List2B,black,woman,,,,null,,,,
27193,,,survey-text,367,5179713,0.0-19.0-3.10,57880,List2B,black,woman,,,,,"{""Q0"":""beth and mike are kissing each other""}","<img src=""stim_listB/dance4.gif""</stim_listB>",are dancing with each other,
null,"<div style=""font-size:60px;"">+</div>",,html-keyboard-response,368,5180225,0.0-19.0-0.11,57880,List2B,black,woman,,,,null,,,,
null,"<img src=""stim_listB/marry8.gif""</stim_listB>",,html-keyboard-response,369,5182230,0.0-19.0-1.11,57880,List2B,black,woman,,,,null,,,,
null,are marrying each other,,html-keyboard-response,370,5184232,0.0-19.0-2.11,57880,List2B,black,woman,,,,null,,,,
33111,,,survey-text,371,5217345,0.0-19.0-3.11,57880,List2B,black,woman,,,,,"{""Q0"":""kate and ruth are dancing with each other""}","<img src=""stim_listB/marry8.gif""</stim_listB>",are marrying each other,
null,"<div style=""font-size:60px;"">+</div>",,html-keyboard-response,372,5217850,0.0-19.0-0.12,57880,List2B,black,woman,,,,null,,,,
null,"<img src=""stim_listB/argue1.gif""</stim_listB>",,html-keyboard-response,373,5219931,0.0-19.0-1.12,57880,List2B,black,woman,,,,null,,,,
null,is arguing with,,html-keyboard-response,374,5221935,0.0-19.0-2.12,57880,List2B,black,woman,,,,null,,,,
25349,,,survey-text,375,5247295,0.0-19.0-3.12,57880,List2B,black,woman,,,,,"{""Q0"":""ruth is arguing with dave""}","<img src=""stim_listB/argue1.gif""</stim_listB>",is arguing with,
null,"<div style=""font-size:60px;"">+</div>",,html-keyboard-response,376,5247808,0.0-19.0-0.13,57880,List2B,black,woman,,,,null,,,,
null,"<img src=""stim_listB/kiss2.gif""</stim_listB>",,html-keyboard-response,377,5249819,0.0-19.0-1.13,57880,List2B,black,woman,,,,null,,,,
null,are kissing each other,,html-keyboard-response,378,5251824,0.0-19.0-2.13,57880,List2B,black,woman,,,,null,,,,
33666,,,survey-text,379,5285497,0.0-19.0-3.13,57880,List2B,black,woman,,,,,"{""Q0"":""dave and jane are kissing each other""}","<img src=""stim_listB/kiss2.gif""</stim_listB>",are kissing each other,
null,"<div style=""font-size:60px;"">+</div>",,html-keyboard-response,380,5286003,0.0-19.0-0.14,57880,List2B,black,woman,,,,null,,,,
null,"<img src=""stim_listB/argue2.gif""</stim_listB>",,html-keyboard-response,381,5288008,0.0-19.0-1.14,57880,List2B,black,woman,,,,null,,,,
null,are arguing with each other,,html-keyboard-response,382,5290012,0.0-19.0-2.14,57880,List2B,black,woman,,,,null,,,,
30460,,,survey-text,383,5320477,0.0-19.0-3.14,57880,List2B,black,woman,,,,,"{""Q0"":""jane and ruth are arguing with each other""}","<img src=""stim_listB/argue2.gif""</stim_listB>",are arguing with each other,
null,"<div style=""font-size:60px;"">+</div>",,html-keyboard-response,384,5320982,0.0-19.0-0.15,57880,List2B,black,woman,,,,null,,,,
null,"<img src=""stim_listB/fight2.gif""</stim_listB>",,html-keyboard-response,385,5322992,0.0-19.0-1.15,57880,List2B,black,woman,,,,null,,,,
null,are fighting each other,,html-keyboard-response,386,5324996,0.0-19.0-2.15,57880,List2B,black,woman,,,,null,,,,
14903,,,survey-text,387,5339905,0.0-19.0-3.15,57880,List2B,black,woman,,,,,"{""Q0"":""luke and ruth are fighting each other""}","<img src=""stim_listB/fight2.gif""</stim_listB>",are fighting each other,
null,"<div style=""font-size:60px;"">+</div>",,html-keyboard-response,388,5340428,0.0-19.0-0.16,57880,List2B,black,woman,,,,null,,,,
null,"<img src=""stim_listB/shout3.gif""</stim_listB>",,html-keyboard-response,389,5342439,0.0-19.0-1.16,57880,List2B,black,woman,,,,null,,,,
null,is shouting at,,html-keyboard-response,390,5344447,0.0-19.0-2.16,57880,List2B,black,woman,,,,null,,,,
43432,,,survey-text,391,5387884,0.0-19.0-3.16,57880,List2B,black,woman,,,,,"{""Q0"":""mike and beth are fighting each other""}","<img src=""stim_listB/shout3.gif""</stim_listB>",is shouting at,
null,"<div style=""font-size:60px;"">+</div>",,html-keyboard-response,392,5388394,0.0-19.0-0.17,57880,List2B,black,woman,,,,null,,,,
null,"<img src=""stim_listB/marry6.gif""</stim_listB>",,html-keyboard-response,393,5390404,0.0-19.0-1.17,57880,List2B,black,woman,,,,null,,,,
null,are marrying each other,,html-keyboard-response,394,5392409,0.0-19.0-2.17,57880,List2B,black,woman,,,,null,,,,
21064,,,survey-text,395,5413479,0.0-19.0-3.17,57880,List2B,black,woman,,,,,"{""Q0"":""luke and mike are marrying each other""}","<img src=""stim_listB/marry6.gif""</stim_listB>",are marrying each other,
null,"<div style=""font-size:60px;"">+</div>",,html-keyboard-response,396,5413995,0.0-19.0-0.18,57880,List2B,black,woman,,,,null,,,,
null,"<img src=""stim_listB/marry1.gif""</stim_listB>",,html-keyboard-response,397,5416022,0.0-19.0-1.18,57880,List2B,black,woman,,,,null,,,,
null,is marrying,,html-keyboard-response,398,5418024,0.0-19.0-2.18,57880,List2B,black,woman,,,,null,,,,
13391,,,survey-text,399,5431422,0.0-19.0-3.18,57880,List2B,black,woman,,,,,"{""Q0"":""dave is marrying ruth""}","<img src=""stim_listB/marry1.gif""</stim_listB>",is marrying,
null,"<div style=""font-size:60px;"">+</div>",,html-keyboard-response,400,5431934,0.0-19.0-0.19,57880,List2B,black,woman,,,,null,,,,
null,"<img src=""stim_listB/shout5.gif""</stim_listB>",,html-keyboard-response,401,5433954,0.0-19.0-1.19,57880,List2B,black,woman,,,,null,,,,
null,is shouting at,,html-keyboard-response,402,5435963,0.0-19.0-2.19,57880,List2B,black,woman,,,,null,,,,
16541,,,survey-text,403,5452508,0.0-19.0-3.19,57880,List2B,black,woman,,,,,"{""Q0"":""luke is shouting at fred""}","<img src=""stim_listB/shout5.gif""</stim_listB>",is shouting at,
3855,<p>Thank you for completing that task.</p><p>The final part of this session is a short questionnaire.</p><p>Press Continue.</p>,0,html-button-response,404,5456370,0.0-20.0,57880,List2B,black,woman,,,,,,,,
123240,,,survey-text,405,5580624,0.0-21.0,57880,List2B,black,woman,,,,,"{""Q0"":""33"",""Q1"":""English"",""Q2"":""English"",""Q3"":""United States of America"",""Q4"":""African"",""Q5"":""Female""}",,,demographics
98135,,,survey-likert,406,5678805,0.0-22.0,57880,List2B,black,woman,,,,,"{""Q0"":6,""Q1"":5,""Q2"":6,""Q3"":6,""Q4"":6,""Q5"":5,""Q6"":6,""Q7"":5,""Q8"":6,""Q9"":5,""Q10"":5,""Q11"":4,""Q12"":6,""Q13"":5}",,,likert_race
173454,,,survey-likert,407,5852297,0.0-23.0,57880,List2B,black,woman,,,,,"{""Q0"":6,""Q1"":6,""Q2"":6,""Q3"":6,""Q4"":6,""Q5"":4,""Q6"":6,""Q7"":6,""Q8"":6,""Q9"":6,""Q10"":5,""Q11"":5,""Q12"":6,""Q13"":6}",,,likert_gender
13845,,,survey-text,408,5866160,0.0-24.0,57880,List2B,black,woman,,,,,"{""Q0"":""ccc""}",,,worker_id
100459,,,external-html,409,5966873,0.0-25.0,57880,List2B,black,woman,debrief.html,,,,,,,
