rt,stimulus,button_pressed,trial_type,trial_index,time_elapsed,internal_node_id,subject,list,ppt_race,ppt_gender,url,first_guess,correct,key_press,responses,image_type,phrase_type,test_part
3063,Welcome to the experiment. Press Continue to begin.,0,html-button-response,0,3072,0.0-0.0,5936,List2A,black,man,,,,,,,,
57331,,,external-html,1,61566,0.0-1.0,5936,List2A,black,man,consent.html,,,,,,,
222026,"<p>On the next page, you will see portraits of 8 people and their names.</p><p>Your first task is to take a few minutes to memorise the names of these people.</p><p>You will have to recall their names during the rest of the experiment, so it is</p><p>essential that you try to memorise these people and their names as best as you can.</p><br><p><strong>You will then be tested on your memory of these names and portraits.</strong></p><br><p>The experiment will start after you have completed this memory test.</p><br><p>Ready?</p>",0,html-button-response,2,283598,0.0-2.0,5936,List2A,black,man,,,,,,,,
126306,"<img src='img/portrait_matrix_list2.JPG' style='width:900px;height:500px;''></img><p>If you have memorised all the portraits and names and are ready to start, press Continue.</p><p><strong>Please note: Your memory of these faces will be tested 4 times during this experiment.</strong></p>",0,html-button-response,3,410917,0.0-3.0-0.0,5936,List2A,black,man,,,,,,,,
10161,"<img src=""portrait/BW1.jpg""style=""width:400px;height:400px;""></img>",0,html-button-response,4,422085,0.0-3.0-1.0,5936,List2A,black,man,,TRUE,0,,,,,
null,CORRECT,,html-keyboard-response,5,423595,0.0-3.0-2.0-0.0,5936,List2A,black,man,,,,null,,,,
7714,"<img src=""portrait/BM2.jpg""style=""width:400px;height:400px;""></img>",5,html-button-response,6,431315,0.0-3.0-4.0,5936,List2A,black,man,,TRUE,5,,,,,
null,CORRECT,,html-keyboard-response,7,432820,0.0-3.0-5.0-0.0,5936,List2A,black,man,,,,null,,,,
4146,"<img src=""portrait/WM1.jpg""style=""width:400px;height:400px;""></img>",6,html-button-response,8,436971,0.0-3.0-7.0,5936,List2A,black,man,,TRUE,6,,,,,
null,CORRECT,,html-keyboard-response,9,438475,0.0-3.0-8.0-0.0,5936,List2A,black,man,,,,null,,,,
3105,"<img src=""portrait/WM2.jpg""style=""width:400px;height:400px;""></img>",7,html-button-response,10,441585,0.0-3.0-10.0,5936,List2A,black,man,,TRUE,7,,,,,
null,CORRECT,,html-keyboard-response,11,443095,0.0-3.0-11.0-0.0,5936,List2A,black,man,,,,null,,,,
9121,"<img src=""portrait/BM1.jpg""style=""width:400px;height:400px;""></img>",4,html-button-response,12,452221,0.0-3.0-13.0,5936,List2A,black,man,,TRUE,4,,,,,
null,CORRECT,,html-keyboard-response,13,453726,0.0-3.0-14.0-0.0,5936,List2A,black,man,,,,null,,,,
23642,"<img src=""portrait/BW2.jpg""style=""width:400px;height:400px;""></img>",2,html-button-response,14,477372,0.0-3.0-16.0,5936,List2A,black,man,,TRUE,2,,,,,
null,CORRECT,,html-keyboard-response,15,478878,0.0-3.0-17.0-0.0,5936,List2A,black,man,,,,null,,,,
8523,"<img src=""portrait/WW2.jpg""style=""width:400px;height:400px;""></img>",3,html-button-response,16,487406,0.0-3.0-19.0,5936,List2A,black,man,,TRUE,3,,,,,
null,CORRECT,,html-keyboard-response,17,488910,0.0-3.0-20.0-0.0,5936,List2A,black,man,,,,null,,,,
8336,"<img src=""portrait/WW1.jpg""style=""width:400px;height:400px;""></img>",1,html-button-response,18,497250,0.0-3.0-22.0,5936,List2A,black,man,,TRUE,1,,,,,
null,CORRECT,,html-keyboard-response,19,498754,0.0-3.0-23.0-0.0,5936,List2A,black,man,,,,null,,,,
2624,<p>You got 8 out of 8 right first time. Press Continue.</p>,0,html-button-response,20,501384,0.0-3.0-25.0,5936,List2A,black,man,,,,,,,,
42196,"<p>In this experiment, you will view photographs of the people from the memory game interacting.</p><p>By using the <strong>exact</strong> phrase given <i>after</i> the photograph appears and recalling the correct names of the people in the photographs, form a sentence describing the interaction. You do not need to capitalise names.</p><p>Type your answer in the space provided. Please complete every sentence before moving onto the next trial.</p><p>You will only have a few seconds to memorise each given photograph and phrase before you can respond, so try your best to focus.</p><p>An example is given below. Press 'Continue' when you are ready.</p><img src='img/speaking_example_v2.jpg' style='width:800px;height:460px;''></img>",0,html-button-response,21,544587,0.0-4.0,5936,List2A,black,man,,,,,,,,
3214,"<p>Before the experiment starts, you will watch two example trials. Press 'Continue'.</p>",0,html-button-response,22,548803,0.0-5.0,5936,List2A,black,man,,,,,,,,
null,<img src='img/speaking_WW.gif'></img>,,html-keyboard-response,23,551808,0.0-6.0,5936,List2A,black,man,,,,null,,,,
null,<p>is speaking to</p>,,html-keyboard-response,24,553811,0.0-7.0,5936,List2A,black,man,,,,null,,,,
11760,<p><b>Answer:</b> jane is speaking to ruth</p>,0,html-button-response,25,565576,0.0-8.0,5936,List2A,black,man,,,,,,,,
null,<img src='img/pointing_BM.gif'></img>,,html-keyboard-response,26,568580,0.0-9.0,5936,List2A,black,man,,,,null,,,,
null,<p>are pointing at each other</p>,,html-keyboard-response,27,570584,0.0-10.0,5936,List2A,black,man,,,,null,,,,
9408,<p><b>Answer:</b> fred and mike are pointing at each other</p>,0,html-button-response,28,579995,0.0-11.0,5936,List2A,black,man,,,,,,,,
9248,"<p>Ready to start the experiment?</p><br><p><strong>Remember to describe the picture using a full sentence,</strong></p><p><strong>that combines the names of the people with the given phrase.</strong></p><p><strong>If you do not do this correctly you will not be paid.</strong></p><p><strong> You do not need to capitalise names or use punctuation.</strong></p><br><p>Press 'Continue' to begin.</p>",0,html-button-response,29,590247,0.0-12.0,5936,List2A,black,man,,,,,,,,
null,"<div style=""font-size:60px;"">+</div>",,html-keyboard-response,30,591752,0.0-13.0-0.0,5936,List2A,black,man,,,,null,,,,
null,"<img src=""stim_listA/talk4.gif""</stim_listA>",,html-keyboard-response,31,593757,0.0-13.0-1.0,5936,List2A,black,man,,,,null,,,,
null,are talking to each other,,html-keyboard-response,32,595761,0.0-13.0-2.0,5936,List2A,black,man,,,,null,,,,
31581,,,survey-text,33,627347,0.0-13.0-3.0,5936,List2A,black,man,,,,,"{""Q0"":""Beth and mike are talking to each other ""}","<img src=""stim_listA/talk4.gif""</stim_listA>",are talking to each other,
null,"<div style=""font-size:60px;"">+</div>",,html-keyboard-response,34,627853,0.0-13.0-0.1,5936,List2A,black,man,,,,null,,,,
null,"<img src=""stim_listA/kiss1.gif""</stim_listA>",,html-keyboard-response,35,629858,0.0-13.0-1.1,5936,List2A,black,man,,,,null,,,,
null,is kissing,,html-keyboard-response,36,631862,0.0-13.0-2.1,5936,List2A,black,man,,,,null,,,,
30659,,,survey-text,37,662525,0.0-13.0-3.1,5936,List2A,black,man,,,,,"{""Q0"":""Luke and Ruth are kissing ""}","<img src=""stim_listA/kiss1.gif""</stim_listA>",is kissing,
null,"<div style=""font-size:60px;"">+</div>",,html-keyboard-response,38,663034,0.0-13.0-0.2,5936,List2A,black,man,,,,null,,,,
null,"<img src=""stim_listA/shout6.gif""</stim_listA>",,html-keyboard-response,39,665038,0.0-13.0-1.2,5936,List2A,black,man,,,,null,,,,
null,are shouting at each other,,html-keyboard-response,40,667042,0.0-13.0-2.2,5936,List2A,black,man,,,,null,,,,
35180,,,survey-text,41,702226,0.0-13.0-3.2,5936,List2A,black,man,,,,,"{""Q0"":""Mike and Dave are shouting at each other ""}","<img src=""stim_listA/shout6.gif""</stim_listA>",are shouting at each other,
null,"<div style=""font-size:60px;"">+</div>",,html-keyboard-response,42,702731,0.0-13.0-0.3,5936,List2A,black,man,,,,null,,,,
null,"<img src=""stim_listA/kiss8.gif""</stim_listA>",,html-keyboard-response,43,704735,0.0-13.0-1.3,5936,List2A,black,man,,,,null,,,,
null,are kissing each other,,html-keyboard-response,44,706739,0.0-13.0-2.3,5936,List2A,black,man,,,,null,,,,
38157,,,survey-text,45,744903,0.0-13.0-3.3,5936,List2A,black,man,,,,,"{""Q0"":""Kate and Jane are kissing ""}","<img src=""stim_listA/kiss8.gif""</stim_listA>",are kissing each other,
null,"<div style=""font-size:60px;"">+</div>",,html-keyboard-response,46,745407,0.0-13.0-0.4,5936,List2A,black,man,,,,null,,,,
null,"<img src=""stim_listA/touch6.gif""</stim_listA>",,html-keyboard-response,47,747412,0.0-13.0-1.4,5936,List2A,black,man,,,,null,,,,
null,are touching each other,,html-keyboard-response,48,749416,0.0-13.0-2.4,5936,List2A,black,man,,,,null,,,,
41165,,,survey-text,49,790585,0.0-13.0-3.4,5936,List2A,black,man,,,,,"{""Q0"":""Luke and Fred are touching each other""}","<img src=""stim_listA/touch6.gif""</stim_listA>",are touching each other,
null,"<div style=""font-size:60px;"">+</div>",,html-keyboard-response,50,791088,0.0-13.0-0.5,5936,List2A,black,man,,,,null,,,,
null,"<img src=""stim_listA/argue6.gif""</stim_listA>",,html-keyboard-response,51,793093,0.0-13.0-1.5,5936,List2A,black,man,,,,null,,,,
null,are arguing with each other,,html-keyboard-response,52,795104,0.0-13.0-2.5,5936,List2A,black,man,,,,null,,,,
29806,,,survey-text,53,824914,0.0-13.0-3.5,5936,List2A,black,man,,,,,"{""Q0"":""Luke and mike are arguing with each other ""}","<img src=""stim_listA/argue6.gif""</stim_listA>",are arguing with each other,
null,"<div style=""font-size:60px;"">+</div>",,html-keyboard-response,54,825418,0.0-13.0-0.6,5936,List2A,black,man,,,,null,,,,
null,"<img src=""stim_listA/touch1.gif""</stim_listA>",,html-keyboard-response,55,827422,0.0-13.0-1.6,5936,List2A,black,man,,,,null,,,,
null,is touching,,html-keyboard-response,56,829426,0.0-13.0-2.6,5936,List2A,black,man,,,,null,,,,
37472,,,survey-text,57,866902,0.0-13.0-3.6,5936,List2A,black,man,,,,,"{""Q0"":""Dave is touching Jane ""}","<img src=""stim_listA/touch1.gif""</stim_listA>",is touching,
null,"<div style=""font-size:60px;"">+</div>",,html-keyboard-response,58,867407,0.0-13.0-0.7,5936,List2A,black,man,,,,null,,,,
null,"<img src=""stim_listA/meet1.gif""</stim_listA>",,html-keyboard-response,59,869411,0.0-13.0-1.7,5936,List2A,black,man,,,,null,,,,
null,is meeting,,html-keyboard-response,60,871415,0.0-13.0-2.7,5936,List2A,black,man,,,,null,,,,
20737,,,survey-text,61,892161,0.0-13.0-3.7,5936,List2A,black,man,,,,,"{""Q0"":""Jane is meeting Dave""}","<img src=""stim_listA/meet1.gif""</stim_listA>",is meeting,
null,"<div style=""font-size:60px;"">+</div>",,html-keyboard-response,62,892665,0.0-13.0-0.8,5936,List2A,black,man,,,,null,,,,
null,"<img src=""stim_listA/talk7.gif""</stim_listA>",,html-keyboard-response,63,894670,0.0-13.0-1.8,5936,List2A,black,man,,,,null,,,,
null,is talking to,,html-keyboard-response,64,896674,0.0-13.0-2.8,5936,List2A,black,man,,,,null,,,,
26594,,,survey-text,65,923272,0.0-13.0-3.8,5936,List2A,black,man,,,,,"{""Q0"":""Kate is talking to Ruth ""}","<img src=""stim_listA/talk7.gif""</stim_listA>",is talking to,
null,"<div style=""font-size:60px;"">+</div>",,html-keyboard-response,66,923776,0.0-13.0-0.9,5936,List2A,black,man,,,,null,,,,
null,"<img src=""stim_listA/talk2.gif""</stim_listA>",,html-keyboard-response,67,925780,0.0-13.0-1.9,5936,List2A,black,man,,,,null,,,,
null,are talking to each other,,html-keyboard-response,68,927784,0.0-13.0-2.9,5936,List2A,black,man,,,,null,,,,
29260,,,survey-text,69,957048,0.0-13.0-3.9,5936,List2A,black,man,,,,,"{""Q0"":""Dave and Ruth are talking to each other ""}","<img src=""stim_listA/talk2.gif""</stim_listA>",are talking to each other,
null,"<div style=""font-size:60px;"">+</div>",,html-keyboard-response,70,957552,0.0-13.0-0.10,5936,List2A,black,man,,,,null,,,,
null,"<img src=""stim_listA/shout4.gif""</stim_listA>",,html-keyboard-response,71,959557,0.0-13.0-1.10,5936,List2A,black,man,,,,null,,,,
null,are shouting at each other,,html-keyboard-response,72,961561,0.0-13.0-2.10,5936,List2A,black,man,,,,null,,,,
27522,,,survey-text,73,989087,0.0-13.0-3.10,5936,List2A,black,man,,,,,"{""Q0"":""Kate and mike are shouting at each other ""}","<img src=""stim_listA/shout4.gif""</stim_listA>",are shouting at each other,
null,"<div style=""font-size:60px;"">+</div>",,html-keyboard-response,74,989591,0.0-13.0-0.11,5936,List2A,black,man,,,,null,,,,
null,"<img src=""stim_listA/argue3.gif""</stim_listA>",,html-keyboard-response,75,991597,0.0-13.0-1.11,5936,List2A,black,man,,,,null,,,,
null,is arguing with,,html-keyboard-response,76,993601,0.0-13.0-2.11,5936,List2A,black,man,,,,null,,,,
35062,,,survey-text,77,1028666,0.0-13.0-3.11,5936,List2A,black,man,,,,,"{""Q0"":""Beth is arguing with Mike ""}","<img src=""stim_listA/argue3.gif""</stim_listA>",is arguing with,
null,"<div style=""font-size:60px;"">+</div>",,html-keyboard-response,78,1029170,0.0-13.0-0.12,5936,List2A,black,man,,,,null,,,,
null,"<img src=""stim_listA/dance1.gif""</stim_listA>",,html-keyboard-response,79,1031175,0.0-13.0-1.12,5936,List2A,black,man,,,,null,,,,
null,is dancing with,,html-keyboard-response,80,1033180,0.0-13.0-2.12,5936,List2A,black,man,,,,null,,,,
30622,,,survey-text,81,1063806,0.0-13.0-3.12,5936,List2A,black,man,,,,,"{""Q0"":""Luke and Jane are dancing""}","<img src=""stim_listA/dance1.gif""</stim_listA>",is dancing with,
null,"<div style=""font-size:60px;"">+</div>",,html-keyboard-response,82,1064310,0.0-13.0-0.13,5936,List2A,black,man,,,,null,,,,
null,"<img src=""stim_listA/argue1.gif""</stim_listA>",,html-keyboard-response,83,1066314,0.0-13.0-1.13,5936,List2A,black,man,,,,null,,,,
null,is arguing with,,html-keyboard-response,84,1068318,0.0-13.0-2.13,5936,List2A,black,man,,,,null,,,,
19732,,,survey-text,85,1088059,0.0-13.0-3.13,5936,List2A,black,man,,,,,"{""Q0"":""Dave is arguing with Ruth ""}","<img src=""stim_listA/argue1.gif""</stim_listA>",is arguing with,
null,"<div style=""font-size:60px;"">+</div>",,html-keyboard-response,86,1088563,0.0-13.0-0.14,5936,List2A,black,man,,,,null,,,,
null,"<img src=""stim_listA/marry4.gif""</stim_listA>",,html-keyboard-response,87,1090568,0.0-13.0-1.14,5936,List2A,black,man,,,,null,,,,
null,are marrying each other,,html-keyboard-response,88,1092572,0.0-13.0-2.14,5936,List2A,black,man,,,,null,,,,
24597,,,survey-text,89,1117173,0.0-13.0-3.14,5936,List2A,black,man,,,,,"{""Q0"":""Kate and Fred are marrying each other ""}","<img src=""stim_listA/marry4.gif""</stim_listA>",are marrying each other,
null,"<div style=""font-size:60px;"">+</div>",,html-keyboard-response,90,1117678,0.0-13.0-0.15,5936,List2A,black,man,,,,null,,,,
null,"<img src=""stim_listA/hug4.gif""</stim_listA>",,html-keyboard-response,91,1119682,0.0-13.0-1.15,5936,List2A,black,man,,,,null,,,,
null,are hugging each other,,html-keyboard-response,92,1121686,0.0-13.0-2.15,5936,List2A,black,man,,,,null,,,,
18844,,,survey-text,93,1140533,0.0-13.0-3.15,5936,List2A,black,man,,,,,"{""Q0"":""Kate and mike are hugging each other ""}","<img src=""stim_listA/hug4.gif""</stim_listA>",are hugging each other,
null,"<div style=""font-size:60px;"">+</div>",,html-keyboard-response,94,1141037,0.0-13.0-0.16,5936,List2A,black,man,,,,null,,,,
null,"<img src=""stim_listA/marry5.gif""</stim_listA>",,html-keyboard-response,95,1143042,0.0-13.0-1.16,5936,List2A,black,man,,,,null,,,,
null,is marrying,,html-keyboard-response,96,1145046,0.0-13.0-2.16,5936,List2A,black,man,,,,null,,,,
13527,,,survey-text,97,1158577,0.0-13.0-3.16,5936,List2A,black,man,,,,,"{""Q0"":""Dave is marring fred""}","<img src=""stim_listA/marry5.gif""</stim_listA>",is marrying,
null,"<div style=""font-size:60px;"">+</div>",,html-keyboard-response,98,1159080,0.0-13.0-0.17,5936,List2A,black,man,,,,null,,,,
null,"<img src=""stim_listA/marry6.gif""</stim_listA>",,html-keyboard-response,99,1161085,0.0-13.0-1.17,5936,List2A,black,man,,,,null,,,,
null,are marrying each other,,html-keyboard-response,100,1163089,0.0-13.0-2.17,5936,List2A,black,man,,,,null,,,,
13448,,,survey-text,101,1176546,0.0-13.0-3.17,5936,List2A,black,man,,,,,"{""Q0"":""Luke and mike are marrying each other ""}","<img src=""stim_listA/marry6.gif""</stim_listA>",are marrying each other,
null,"<div style=""font-size:60px;"">+</div>",,html-keyboard-response,102,1177051,0.0-13.0-0.18,5936,List2A,black,man,,,,null,,,,
null,"<img src=""stim_listA/talk8.gif""</stim_listA>",,html-keyboard-response,103,1179055,0.0-13.0-1.18,5936,List2A,black,man,,,,null,,,,
null,are talking to each other,,html-keyboard-response,104,1181059,0.0-13.0-2.18,5936,List2A,black,man,,,,null,,,,
19266,,,survey-text,105,1200330,0.0-13.0-3.18,5936,List2A,black,man,,,,,"{""Q0"":""Beth and Jane are talking to each other ""}","<img src=""stim_listA/talk8.gif""</stim_listA>",are talking to each other,
null,"<div style=""font-size:60px;"">+</div>",,html-keyboard-response,106,1200834,0.0-13.0-0.19,5936,List2A,black,man,,,,null,,,,
null,"<img src=""stim_listA/talk5.gif""</stim_listA>",,html-keyboard-response,107,1202838,0.0-13.0-1.19,5936,List2A,black,man,,,,null,,,,
null,is talking to,,html-keyboard-response,108,1204841,0.0-13.0-2.19,5936,List2A,black,man,,,,null,,,,
11088,,,survey-text,109,1215933,0.0-13.0-3.19,5936,List2A,black,man,,,,,"{""Q0"":""Luke is talking to mike""}","<img src=""stim_listA/talk5.gif""</stim_listA>",is talking to,
33044,"<img src='img/portrait_matrix_list2.JPG' style='width:900px;height:500px;''></img><p>If you have memorised all the portraits and names and are ready to start, press Continue.</p><p><strong>Please note: Your memory of these faces will be tested 4 times during this experiment.</strong></p>",0,html-button-response,110,1248988,0.0-14.0-0.0,5936,List2A,black,man,,,,,,,,
6634,"<img src=""portrait/WW2.jpg""style=""width:400px;height:400px;""></img>",3,html-button-response,111,1256630,0.0-14.0-1.0,5936,List2A,black,man,,TRUE,3,,,,,
null,CORRECT,,html-keyboard-response,112,1258135,0.0-14.0-2.0-0.0,5936,List2A,black,man,,,,null,,,,
2589,"<img src=""portrait/BM1.jpg""style=""width:400px;height:400px;""></img>",4,html-button-response,113,1260732,0.0-14.0-4.0,5936,List2A,black,man,,TRUE,4,,,,,
null,CORRECT,,html-keyboard-response,114,1262236,0.0-14.0-5.0-0.0,5936,List2A,black,man,,,,null,,,,
1948,"<img src=""portrait/BM2.jpg""style=""width:400px;height:400px;""></img>",5,html-button-response,115,1264192,0.0-14.0-7.0,5936,List2A,black,man,,TRUE,5,,,,,
null,CORRECT,,html-keyboard-response,116,1265697,0.0-14.0-8.0-0.0,5936,List2A,black,man,,,,null,,,,
4145,"<img src=""portrait/WW1.jpg""style=""width:400px;height:400px;""></img>",1,html-button-response,117,1269849,0.0-14.0-10.0,5936,List2A,black,man,,TRUE,1,,,,,
null,CORRECT,,html-keyboard-response,118,1271353,0.0-14.0-11.0-0.0,5936,List2A,black,man,,,,null,,,,
2257,"<img src=""portrait/WM2.jpg""style=""width:400px;height:400px;""></img>",7,html-button-response,119,1273617,0.0-14.0-13.0,5936,List2A,black,man,,TRUE,7,,,,,
null,CORRECT,,html-keyboard-response,120,1275122,0.0-14.0-14.0-0.0,5936,List2A,black,man,,,,null,,,,
2046,"<img src=""portrait/WM1.jpg""style=""width:400px;height:400px;""></img>",6,html-button-response,121,1277173,0.0-14.0-16.0,5936,List2A,black,man,,TRUE,6,,,,,
null,CORRECT,,html-keyboard-response,122,1278678,0.0-14.0-17.0-0.0,5936,List2A,black,man,,,,null,,,,
7106,"<img src=""portrait/BW2.jpg""style=""width:400px;height:400px;""></img>",2,html-button-response,123,1285791,0.0-14.0-19.0,5936,List2A,black,man,,TRUE,2,,,,,
null,CORRECT,,html-keyboard-response,124,1287295,0.0-14.0-20.0-0.0,5936,List2A,black,man,,,,null,,,,
2397,"<img src=""portrait/BW1.jpg""style=""width:400px;height:400px;""></img>",0,html-button-response,125,1289704,0.0-14.0-22.0,5936,List2A,black,man,,TRUE,0,,,,,
null,CORRECT,,html-keyboard-response,126,1291209,0.0-14.0-23.0-0.0,5936,List2A,black,man,,,,null,,,,
1729,<p>You got 8 out of 8 right first time. Press Continue.</p>,0,html-button-response,127,1292943,0.0-14.0-25.0,5936,List2A,black,man,,,,,,,,
null,"<div style=""font-size:60px;"">+</div>",,html-keyboard-response,128,1294449,0.0-15.0-0.0,5936,List2A,black,man,,,,null,,,,
null,"<img src=""stim_listA/marry7.gif""</stim_listA>",,html-keyboard-response,129,1296454,0.0-15.0-1.0,5936,List2A,black,man,,,,null,,,,
null,is marrying,,html-keyboard-response,130,1298458,0.0-15.0-2.0,5936,List2A,black,man,,,,null,,,,
12520,,,survey-text,131,1310982,0.0-15.0-3.0,5936,List2A,black,man,,,,,"{""Q0"":""Beth is marrying jane""}","<img src=""stim_listA/marry7.gif""</stim_listA>",is marrying,
null,"<div style=""font-size:60px;"">+</div>",,html-keyboard-response,132,1311485,0.0-15.0-0.1,5936,List2A,black,man,,,,null,,,,
null,"<img src=""stim_listA/kiss7.gif""</stim_listA>",,html-keyboard-response,133,1313489,0.0-15.0-1.1,5936,List2A,black,man,,,,null,,,,
null,is kissing,,html-keyboard-response,134,1315492,0.0-15.0-2.1,5936,List2A,black,man,,,,null,,,,
10960,,,survey-text,135,1326456,0.0-15.0-3.1,5936,List2A,black,man,,,,,"{""Q0"":""Beth and Ruth are kissing""}","<img src=""stim_listA/kiss7.gif""</stim_listA>",is kissing,
null,"<div style=""font-size:60px;"">+</div>",,html-keyboard-response,136,1326959,0.0-15.0-0.2,5936,List2A,black,man,,,,null,,,,
null,"<img src=""stim_listA/talk6.gif""</stim_listA>",,html-keyboard-response,137,1328964,0.0-15.0-1.2,5936,List2A,black,man,,,,null,,,,
null,are talking to each other,,html-keyboard-response,138,1330969,0.0-15.0-2.2,5936,List2A,black,man,,,,null,,,,
13539,,,survey-text,139,1344511,0.0-15.0-3.2,5936,List2A,black,man,,,,,"{""Q0"":""Fred and dave are talking to each other ""}","<img src=""stim_listA/talk6.gif""</stim_listA>",are talking to each other,
null,"<div style=""font-size:60px;"">+</div>",,html-keyboard-response,140,1345015,0.0-15.0-0.3,5936,List2A,black,man,,,,null,,,,
null,"<img src=""stim_listA/fight1.gif""</stim_listA>",,html-keyboard-response,141,1347019,0.0-15.0-1.3,5936,List2A,black,man,,,,null,,,,
null,is fighting,,html-keyboard-response,142,1349023,0.0-15.0-2.3,5936,List2A,black,man,,,,null,,,,
11292,,,survey-text,143,1360318,0.0-15.0-3.3,5936,List2A,black,man,,,,,"{""Q0"":""Dave is fighting jane""}","<img src=""stim_listA/fight1.gif""</stim_listA>",is fighting,
null,"<div style=""font-size:60px;"">+</div>",,html-keyboard-response,144,1360823,0.0-15.0-0.4,5936,List2A,black,man,,,,null,,,,
null,"<img src=""stim_listA/hug6.gif""</stim_listA>",,html-keyboard-response,145,1362828,0.0-15.0-1.4,5936,List2A,black,man,,,,null,,,,
null,are hugging each other,,html-keyboard-response,146,1364832,0.0-15.0-2.4,5936,List2A,black,man,,,,null,,,,
10993,,,survey-text,147,1375829,0.0-15.0-3.4,5936,List2A,black,man,,,,,"{""Q0"":""Mike and Dave are hugging each other ""}","<img src=""stim_listA/hug6.gif""</stim_listA>",are hugging each other,
null,"<div style=""font-size:60px;"">+</div>",,html-keyboard-response,148,1376333,0.0-15.0-0.5,5936,List2A,black,man,,,,null,,,,
null,"<img src=""stim_listA/meet6.gif""</stim_listA>",,html-keyboard-response,149,1378338,0.0-15.0-1.5,5936,List2A,black,man,,,,null,,,,
null,are meeting each other,,html-keyboard-response,150,1380343,0.0-15.0-2.5,5936,List2A,black,man,,,,null,,,,
10019,,,survey-text,151,1390365,0.0-15.0-3.5,5936,List2A,black,man,,,,,"{""Q0"":""Luke and Fred are meeting each other""}","<img src=""stim_listA/meet6.gif""</stim_listA>",are meeting each other,
null,"<div style=""font-size:60px;"">+</div>",,html-keyboard-response,152,1390868,0.0-15.0-0.6,5936,List2A,black,man,,,,null,,,,
null,"<img src=""stim_listA/talk3.gif""</stim_listA>",,html-keyboard-response,153,1392872,0.0-15.0-1.6,5936,List2A,black,man,,,,null,,,,
null,is talking to,,html-keyboard-response,154,1394876,0.0-15.0-2.6,5936,List2A,black,man,,,,null,,,,
8994,,,survey-text,155,1403872,0.0-15.0-3.6,5936,List2A,black,man,,,,,"{""Q0"":""Kate is talking to fred""}","<img src=""stim_listA/talk3.gif""</stim_listA>",is talking to,
null,"<div style=""font-size:60px;"">+</div>",,html-keyboard-response,156,1404376,0.0-15.0-0.7,5936,List2A,black,man,,,,null,,,,
null,"<img src=""stim_listA/marry3.gif""</stim_listA>",,html-keyboard-response,157,1406380,0.0-15.0-1.7,5936,List2A,black,man,,,,null,,,,
null,is marrying,,html-keyboard-response,158,1408384,0.0-15.0-2.7,5936,List2A,black,man,,,,null,,,,
12778,,,survey-text,159,1421173,0.0-15.0-3.7,5936,List2A,black,man,,,,,"{""Q0"":""Beth is marrying mike""}","<img src=""stim_listA/marry3.gif""</stim_listA>",is marrying,
null,"<div style=""font-size:60px;"">+</div>",,html-keyboard-response,160,1421677,0.0-15.0-0.8,5936,List2A,black,man,,,,null,,,,
null,"<img src=""stim_listA/hug8.gif""</stim_listA>",,html-keyboard-response,161,1423682,0.0-15.0-1.8,5936,List2A,black,man,,,,null,,,,
null,are hugging each other,,html-keyboard-response,162,1425686,0.0-15.0-2.8,5936,List2A,black,man,,,,null,,,,
15836,,,survey-text,163,1441525,0.0-15.0-3.8,5936,List2A,black,man,,,,,"{""Q0"":""Kate and Jane are hugging each other""}","<img src=""stim_listA/hug8.gif""</stim_listA>",are hugging each other,
null,"<div style=""font-size:60px;"">+</div>",,html-keyboard-response,164,1442028,0.0-15.0-0.9,5936,List2A,black,man,,,,null,,,,
null,"<img src=""stim_listA/fight6.gif""</stim_listA>",,html-keyboard-response,165,1444033,0.0-15.0-1.9,5936,List2A,black,man,,,,null,,,,
null,are fighting each other,,html-keyboard-response,166,1446037,0.0-15.0-2.9,5936,List2A,black,man,,,,null,,,,
16429,,,survey-text,167,1462478,0.0-15.0-3.9,5936,List2A,black,man,,,,,"{""Q0"":""Fred and Luke are fighting each other ""}","<img src=""stim_listA/fight6.gif""</stim_listA>",are fighting each other,
null,"<div style=""font-size:60px;"">+</div>",,html-keyboard-response,168,1462982,0.0-15.0-0.10,5936,List2A,black,man,,,,null,,,,
null,"<img src=""stim_listA/kiss2.gif""</stim_listA>",,html-keyboard-response,169,1464987,0.0-15.0-1.10,5936,List2A,black,man,,,,null,,,,
null,are kissing each other,,html-keyboard-response,170,1466991,0.0-15.0-2.10,5936,List2A,black,man,,,,null,,,,
11300,,,survey-text,171,1478295,0.0-15.0-3.10,5936,List2A,black,man,,,,,"{""Q0"":""Dave and Jane are kissing each other ""}","<img src=""stim_listA/kiss2.gif""</stim_listA>",are kissing each other,
null,"<div style=""font-size:60px;"">+</div>",,html-keyboard-response,172,1478800,0.0-15.0-0.11,5936,List2A,black,man,,,,null,,,,
null,"<img src=""stim_listA/kiss5.gif""</stim_listA>",,html-keyboard-response,173,1480805,0.0-15.0-1.11,5936,List2A,black,man,,,,null,,,,
null,is kissing,,html-keyboard-response,174,1482809,0.0-15.0-2.11,5936,List2A,black,man,,,,null,,,,
8733,,,survey-text,175,1491546,0.0-15.0-3.11,5936,List2A,black,man,,,,,"{""Q0"":""Luke is kissing fred""}","<img src=""stim_listA/kiss5.gif""</stim_listA>",is kissing,
null,"<div style=""font-size:60px;"">+</div>",,html-keyboard-response,176,1492049,0.0-15.0-0.12,5936,List2A,black,man,,,,null,,,,
null,"<img src=""stim_listA/fight7.gif""</stim_listA>",,html-keyboard-response,177,1494054,0.0-15.0-1.12,5936,List2A,black,man,,,,null,,,,
null,is fighting,,html-keyboard-response,178,1496057,0.0-15.0-2.12,5936,List2A,black,man,,,,null,,,,
8962,,,survey-text,179,1505024,0.0-15.0-3.12,5936,List2A,black,man,,,,,"{""Q0"":""Kate is fighting Jane ""}","<img src=""stim_listA/fight7.gif""</stim_listA>",is fighting,
null,"<div style=""font-size:60px;"">+</div>",,html-keyboard-response,180,1505528,0.0-15.0-0.13,5936,List2A,black,man,,,,null,,,,
null,"<img src=""stim_listA/dance7.gif""</stim_listA>",,html-keyboard-response,181,1507533,0.0-15.0-1.13,5936,List2A,black,man,,,,null,,,,
null,is dancing with,,html-keyboard-response,182,1509537,0.0-15.0-2.13,5936,List2A,black,man,,,,null,,,,
9291,,,survey-text,183,1518832,0.0-15.0-3.13,5936,List2A,black,man,,,,,"{""Q0"":""Kate is dancing with Ruth ""}","<img src=""stim_listA/dance7.gif""</stim_listA>",is dancing with,
null,"<div style=""font-size:60px;"">+</div>",,html-keyboard-response,184,1519336,0.0-15.0-0.14,5936,List2A,black,man,,,,null,,,,
null,"<img src=""stim_listA/hug1.gif""</stim_listA>",,html-keyboard-response,185,1521340,0.0-15.0-1.14,5936,List2A,black,man,,,,null,,,,
null,is hugging,,html-keyboard-response,186,1523344,0.0-15.0-2.14,5936,List2A,black,man,,,,null,,,,
6449,,,survey-text,187,1529796,0.0-15.0-3.14,5936,List2A,black,man,,,,,"{""Q0"":""Luke is hugging ruth""}","<img src=""stim_listA/hug1.gif""</stim_listA>",is hugging,
null,"<div style=""font-size:60px;"">+</div>",,html-keyboard-response,188,1530301,0.0-15.0-0.15,5936,List2A,black,man,,,,null,,,,
null,"<img src=""stim_listA/kiss6.gif""</stim_listA>",,html-keyboard-response,189,1532306,0.0-15.0-1.15,5936,List2A,black,man,,,,null,,,,
null,are kissing each other,,html-keyboard-response,190,1534310,0.0-15.0-2.15,5936,List2A,black,man,,,,null,,,,
11033,,,survey-text,191,1545347,0.0-15.0-3.15,5936,List2A,black,man,,,,,"{""Q0"":""Mike and Dave are kissing each other""}","<img src=""stim_listA/kiss6.gif""</stim_listA>",are kissing each other,
null,"<div style=""font-size:60px;"">+</div>",,html-keyboard-response,192,1545850,0.0-15.0-0.16,5936,List2A,black,man,,,,null,,,,
null,"<img src=""stim_listA/fight8.gif""</stim_listA>",,html-keyboard-response,193,1547855,0.0-15.0-1.16,5936,List2A,black,man,,,,null,,,,
null,are fighting each other,,html-keyboard-response,194,1549859,0.0-15.0-2.16,5936,List2A,black,man,,,,null,,,,
13165,,,survey-text,195,1563027,0.0-15.0-3.16,5936,List2A,black,man,,,,,"{""Q0"":""Beth and Ruth are fighting each other ""}","<img src=""stim_listA/fight8.gif""</stim_listA>",are fighting each other,
null,"<div style=""font-size:60px;"">+</div>",,html-keyboard-response,196,1563531,0.0-15.0-0.17,5936,List2A,black,man,,,,null,,,,
null,"<img src=""stim_listA/shout2.gif""</stim_listA>",,html-keyboard-response,197,1565537,0.0-15.0-1.17,5936,List2A,black,man,,,,null,,,,
null,are shouting at each other,,html-keyboard-response,198,1567541,0.0-15.0-2.17,5936,List2A,black,man,,,,null,,,,
13687,,,survey-text,199,1581231,0.0-15.0-3.17,5936,List2A,black,man,,,,,"{""Q0"":""Dave and Jane are shouting at each other ""}","<img src=""stim_listA/shout2.gif""</stim_listA>",are shouting at each other,
null,"<div style=""font-size:60px;"">+</div>",,html-keyboard-response,200,1581735,0.0-15.0-0.18,5936,List2A,black,man,,,,null,,,,
null,"<img src=""stim_listA/shout7.gif""</stim_listA>",,html-keyboard-response,201,1583740,0.0-15.0-1.18,5936,List2A,black,man,,,,null,,,,
null,is shouting at,,html-keyboard-response,202,1585744,0.0-15.0-2.18,5936,List2A,black,man,,,,null,,,,
14690,,,survey-text,203,1600443,0.0-15.0-3.18,5936,List2A,black,man,,,,,"{""Q0"":""Ruth is shouting at beth""}","<img src=""stim_listA/shout7.gif""</stim_listA>",is shouting at,
null,"<div style=""font-size:60px;"">+</div>",,html-keyboard-response,204,1600947,0.0-15.0-0.19,5936,List2A,black,man,,,,null,,,,
null,"<img src=""stim_listA/shout1.gif""</stim_listA>",,html-keyboard-response,205,1602952,0.0-15.0-1.19,5936,List2A,black,man,,,,null,,,,
null,is shouting at,,html-keyboard-response,206,1604957,0.0-15.0-2.19,5936,List2A,black,man,,,,null,,,,
9508,,,survey-text,207,1614468,0.0-15.0-3.19,5936,List2A,black,man,,,,,"{""Q0"":""Ruth is shouting at Luke ""}","<img src=""stim_listA/shout1.gif""</stim_listA>",is shouting at,
8066,"<img src='img/portrait_matrix_list2.JPG' style='width:900px;height:500px;''></img><p>If you have memorised all the portraits and names and are ready to start, press Continue.</p><p><strong>Please note: Your memory of these faces will be tested 4 times during this experiment.</strong></p>",0,html-button-response,208,1622540,0.0-16.0-0.0,5936,List2A,black,man,,,,,,,,
4170,"<img src=""portrait/BW1.jpg""style=""width:400px;height:400px;""></img>",0,html-button-response,209,1627716,0.0-16.0-1.0,5936,List2A,black,man,,TRUE,0,,,,,
null,CORRECT,,html-keyboard-response,210,1629229,0.0-16.0-2.0-0.0,5936,List2A,black,man,,,,null,,,,
2137,"<img src=""portrait/BM2.jpg""style=""width:400px;height:400px;""></img>",5,html-button-response,211,1631374,0.0-16.0-4.0,5936,List2A,black,man,,TRUE,5,,,,,
null,CORRECT,,html-keyboard-response,212,1632878,0.0-16.0-5.0-0.0,5936,List2A,black,man,,,,null,,,,
1884,"<img src=""portrait/WM1.jpg""style=""width:400px;height:400px;""></img>",6,html-button-response,213,1634768,0.0-16.0-7.0,5936,List2A,black,man,,TRUE,6,,,,,
null,CORRECT,,html-keyboard-response,214,1636273,0.0-16.0-8.0-0.0,5936,List2A,black,man,,,,null,,,,
1928,"<img src=""portrait/BM1.jpg""style=""width:400px;height:400px;""></img>",4,html-button-response,215,1638207,0.0-16.0-10.0,5936,List2A,black,man,,TRUE,4,,,,,
null,CORRECT,,html-keyboard-response,216,1639711,0.0-16.0-11.0-0.0,5936,List2A,black,man,,,,null,,,,
2969,"<img src=""portrait/BW2.jpg""style=""width:400px;height:400px;""></img>",2,html-button-response,217,1642686,0.0-16.0-13.0,5936,List2A,black,man,,TRUE,2,,,,,
null,CORRECT,,html-keyboard-response,218,1644191,0.0-16.0-14.0-0.0,5936,List2A,black,man,,,,null,,,,
2486,"<img src=""portrait/WW2.jpg""style=""width:400px;height:400px;""></img>",3,html-button-response,219,1646684,0.0-16.0-16.0,5936,List2A,black,man,,TRUE,3,,,,,
null,CORRECT,,html-keyboard-response,220,1648189,0.0-16.0-17.0-0.0,5936,List2A,black,man,,,,null,,,,
2180,"<img src=""portrait/WM2.jpg""style=""width:400px;height:400px;""></img>",7,html-button-response,221,1650376,0.0-16.0-19.0,5936,List2A,black,man,,TRUE,7,,,,,
null,CORRECT,,html-keyboard-response,222,1651881,0.0-16.0-20.0-0.0,5936,List2A,black,man,,,,null,,,,
1883,"<img src=""portrait/WW1.jpg""style=""width:400px;height:400px;""></img>",1,html-button-response,223,1653770,0.0-16.0-22.0,5936,List2A,black,man,,TRUE,1,,,,,
null,CORRECT,,html-keyboard-response,224,1655274,0.0-16.0-23.0-0.0,5936,List2A,black,man,,,,null,,,,
1640,<p>You got 8 out of 8 right first time. Press Continue.</p>,0,html-button-response,225,1656919,0.0-16.0-25.0,5936,List2A,black,man,,,,,,,,
null,"<div style=""font-size:60px;"">+</div>",,html-keyboard-response,226,1658431,0.0-17.0-0.0,5936,List2A,black,man,,,,null,,,,
null,"<img src=""stim_listA/hug5.gif""</stim_listA>",,html-keyboard-response,227,1660436,0.0-17.0-1.0,5936,List2A,black,man,,,,null,,,,
null,is hugging,,html-keyboard-response,228,1662440,0.0-17.0-2.0,5936,List2A,black,man,,,,null,,,,
19010,,,survey-text,229,1681454,0.0-17.0-3.0,5936,List2A,black,man,,,,,"{""Q0"":""Fred is hugging Luke ""}","<img src=""stim_listA/hug5.gif""</stim_listA>",is hugging,
null,"<div style=""font-size:60px;"">+</div>",,html-keyboard-response,230,1681957,0.0-17.0-0.1,5936,List2A,black,man,,,,null,,,,
null,"<img src=""stim_listA/argue7.gif""</stim_listA>",,html-keyboard-response,231,1683962,0.0-17.0-1.1,5936,List2A,black,man,,,,null,,,,
null,is arguing with,,html-keyboard-response,232,1685965,0.0-17.0-2.1,5936,List2A,black,man,,,,null,,,,
14159,,,survey-text,233,1700129,0.0-17.0-3.1,5936,List2A,black,man,,,,,"{""Q0"":""Jane is arguing with Beth ""}","<img src=""stim_listA/argue7.gif""</stim_listA>",is arguing with,
null,"<div style=""font-size:60px;"">+</div>",,html-keyboard-response,234,1700634,0.0-17.0-0.2,5936,List2A,black,man,,,,null,,,,
null,"<img src=""stim_listA/argue4.gif""</stim_listA>",,html-keyboard-response,235,1702638,0.0-17.0-1.2,5936,List2A,black,man,,,,null,,,,
null,are arguing with each other,,html-keyboard-response,236,1704642,0.0-17.0-2.2,5936,List2A,black,man,,,,null,,,,
21043,,,survey-text,237,1725689,0.0-17.0-3.2,5936,List2A,black,man,,,,,"{""Q0"":""Fred and Kate are arguing with each other ""}","<img src=""stim_listA/argue4.gif""</stim_listA>",are arguing with each other,
null,"<div style=""font-size:60px;"">+</div>",,html-keyboard-response,238,1726193,0.0-17.0-0.3,5936,List2A,black,man,,,,null,,,,
null,"<img src=""stim_listA/touch5.gif""</stim_listA>",,html-keyboard-response,239,1728198,0.0-17.0-1.3,5936,List2A,black,man,,,,null,,,,
null,is touching,,html-keyboard-response,240,1730203,0.0-17.0-2.3,5936,List2A,black,man,,,,null,,,,
9945,,,survey-text,241,1740152,0.0-17.0-3.3,5936,List2A,black,man,,,,,"{""Q0"":""Dave is touching mike""}","<img src=""stim_listA/touch5.gif""</stim_listA>",is touching,
null,"<div style=""font-size:60px;"">+</div>",,html-keyboard-response,242,1740655,0.0-17.0-0.4,5936,List2A,black,man,,,,null,,,,
null,"<img src=""stim_listA/touch2.gif""</stim_listA>",,html-keyboard-response,243,1742660,0.0-17.0-1.4,5936,List2A,black,man,,,,null,,,,
null,are touching each other,,html-keyboard-response,244,1744664,0.0-17.0-2.4,5936,List2A,black,man,,,,null,,,,
12851,,,survey-text,245,1757519,0.0-17.0-3.4,5936,List2A,black,man,,,,,"{""Q0"":""Ruth and Luke are touching each other ""}","<img src=""stim_listA/touch2.gif""</stim_listA>",are touching each other,
null,"<div style=""font-size:60px;"">+</div>",,html-keyboard-response,246,1758022,0.0-17.0-0.5,5936,List2A,black,man,,,,null,,,,
null,"<img src=""stim_listA/dance2.gif""</stim_listA>",,html-keyboard-response,247,1760027,0.0-17.0-1.5,5936,List2A,black,man,,,,null,,,,
null,are dancing with each other,,html-keyboard-response,248,1762031,0.0-17.0-2.5,5936,List2A,black,man,,,,null,,,,
13257,,,survey-text,249,1775291,0.0-17.0-3.5,5936,List2A,black,man,,,,,"{""Q0"":""Dave and Ruth are dancing with each other ""}","<img src=""stim_listA/dance2.gif""</stim_listA>",are dancing with each other,
null,"<div style=""font-size:60px;"">+</div>",,html-keyboard-response,250,1775796,0.0-17.0-0.6,5936,List2A,black,man,,,,null,,,,
null,"<img src=""stim_listA/hug3.gif""</stim_listA>",,html-keyboard-response,251,1777801,0.0-17.0-1.6,5936,List2A,black,man,,,,null,,,,
null,is hugging,,html-keyboard-response,252,1779805,0.0-17.0-2.6,5936,List2A,black,man,,,,null,,,,
54684,,,survey-text,253,1834492,0.0-17.0-3.6,5936,List2A,black,man,,,,,"{""Q0"":""Fred is hugging Beth ""}","<img src=""stim_listA/hug3.gif""</stim_listA>",is hugging,
null,"<div style=""font-size:60px;"">+</div>",,html-keyboard-response,254,1834996,0.0-17.0-0.7,5936,List2A,black,man,,,,null,,,,
null,"<img src=""stim_listA/kiss4.gif""</stim_listA>",,html-keyboard-response,255,1837001,0.0-17.0-1.7,5936,List2A,black,man,,,,null,,,,
null,are kissing each other,,html-keyboard-response,256,1839004,0.0-17.0-2.7,5936,List2A,black,man,,,,null,,,,
11900,,,survey-text,257,1850908,0.0-17.0-3.7,5936,List2A,black,man,,,,,"{""Q0"":""Mike and Kate are kissing each other ""}","<img src=""stim_listA/kiss4.gif""</stim_listA>",are kissing each other,
null,"<div style=""font-size:60px;"">+</div>",,html-keyboard-response,258,1851413,0.0-17.0-0.8,5936,List2A,black,man,,,,null,,,,
null,"<img src=""stim_listA/touch7.gif""</stim_listA>",,html-keyboard-response,259,1853417,0.0-17.0-1.8,5936,List2A,black,man,,,,null,,,,
null,is touching,,html-keyboard-response,260,1855421,0.0-17.0-2.8,5936,List2A,black,man,,,,null,,,,
16066,,,survey-text,261,1871490,0.0-17.0-3.8,5936,List2A,black,man,,,,,"{""Q0"":""Kate is touching jane""}","<img src=""stim_listA/touch7.gif""</stim_listA>",is touching,
null,"<div style=""font-size:60px;"">+</div>",,html-keyboard-response,262,1871993,0.0-17.0-0.9,5936,List2A,black,man,,,,null,,,,
null,"<img src=""stim_listA/dance6.gif""</stim_listA>",,html-keyboard-response,263,1873998,0.0-17.0-1.9,5936,List2A,black,man,,,,null,,,,
null,are dancing with each other,,html-keyboard-response,264,1876003,0.0-17.0-2.9,5936,List2A,black,man,,,,null,,,,
13670,,,survey-text,265,1889677,0.0-17.0-3.9,5936,List2A,black,man,,,,,"{""Q0"":""Dave and Fred are dancing with each other ""}","<img src=""stim_listA/dance6.gif""</stim_listA>",are dancing with each other,
null,"<div style=""font-size:60px;"">+</div>",,html-keyboard-response,266,1890181,0.0-17.0-0.10,5936,List2A,black,man,,,,null,,,,
null,"<img src=""stim_listA/shout8.gif""</stim_listA>",,html-keyboard-response,267,1892185,0.0-17.0-1.10,5936,List2A,black,man,,,,null,,,,
null,are shouting at each other,,html-keyboard-response,268,1894189,0.0-17.0-2.10,5936,List2A,black,man,,,,null,,,,
24955,,,survey-text,269,1919148,0.0-17.0-3.10,5936,List2A,black,man,,,,,"{""Q0"":""Kate and Jane are shouting at each other ""}","<img src=""stim_listA/shout8.gif""</stim_listA>",are shouting at each other,
null,"<div style=""font-size:60px;"">+</div>",,html-keyboard-response,270,1919652,0.0-17.0-0.11,5936,List2A,black,man,,,,null,,,,
null,"<img src=""stim_listA/shout5.gif""</stim_listA>",,html-keyboard-response,271,1921657,0.0-17.0-1.11,5936,List2A,black,man,,,,null,,,,
null,is shouting at,,html-keyboard-response,272,1923660,0.0-17.0-2.11,5936,List2A,black,man,,,,null,,,,
13470,,,survey-text,273,1937134,0.0-17.0-3.11,5936,List2A,black,man,,,,,"{""Q0"":""Fred is shouting are Luke ""}","<img src=""stim_listA/shout5.gif""</stim_listA>",is shouting at,
null,"<div style=""font-size:60px;"">+</div>",,html-keyboard-response,274,1937639,0.0-17.0-0.12,5936,List2A,black,man,,,,null,,,,
null,"<img src=""stim_listA/hug7.gif""</stim_listA>",,html-keyboard-response,275,1939643,0.0-17.0-1.12,5936,List2A,black,man,,,,null,,,,
null,is hugging,,html-keyboard-response,276,1941647,0.0-17.0-2.12,5936,List2A,black,man,,,,null,,,,
7720,,,survey-text,277,1949371,0.0-17.0-3.12,5936,List2A,black,man,,,,,"{""Q0"":""Beth is hugging Ruth ""}","<img src=""stim_listA/hug7.gif""</stim_listA>",is hugging,
null,"<div style=""font-size:60px;"">+</div>",,html-keyboard-response,278,1949874,0.0-17.0-0.13,5936,List2A,black,man,,,,null,,,,
null,"<img src=""stim_listA/dance3.gif""</stim_listA>",,html-keyboard-response,279,1951879,0.0-17.0-1.13,5936,List2A,black,man,,,,null,,,,
null,is dancing with,,html-keyboard-response,280,1953883,0.0-17.0-2.13,5936,List2A,black,man,,,,null,,,,
12850,,,survey-text,281,1966738,0.0-17.0-3.13,5936,List2A,black,man,,,,,"{""Q0"":""Kate is dancing with Fred ""}","<img src=""stim_listA/dance3.gif""</stim_listA>",is dancing with,
null,"<div style=""font-size:60px;"">+</div>",,html-keyboard-response,282,1967242,0.0-17.0-0.14,5936,List2A,black,man,,,,null,,,,
null,"<img src=""stim_listA/meet3.gif""</stim_listA>",,html-keyboard-response,283,1969247,0.0-17.0-1.14,5936,List2A,black,man,,,,null,,,,
null,is meeting,,html-keyboard-response,284,1971250,0.0-17.0-2.14,5936,List2A,black,man,,,,null,,,,
7234,,,survey-text,285,1978488,0.0-17.0-3.14,5936,List2A,black,man,,,,,"{""Q0"":""Kate is meeting mike""}","<img src=""stim_listA/meet3.gif""</stim_listA>",is meeting,
null,"<div style=""font-size:60px;"">+</div>",,html-keyboard-response,286,1978993,0.0-17.0-0.15,5936,List2A,black,man,,,,null,,,,
null,"<img src=""stim_listA/talk1.gif""</stim_listA>",,html-keyboard-response,287,1980998,0.0-17.0-1.15,5936,List2A,black,man,,,,null,,,,
null,is talking to,,html-keyboard-response,288,1983002,0.0-17.0-2.15,5936,List2A,black,man,,,,null,,,,
6792,,,survey-text,289,1989798,0.0-17.0-3.15,5936,List2A,black,man,,,,,"{""Q0"":""Luke is talking to jane""}","<img src=""stim_listA/talk1.gif""</stim_listA>",is talking to,
null,"<div style=""font-size:60px;"">+</div>",,html-keyboard-response,290,1990302,0.0-17.0-0.16,5936,List2A,black,man,,,,null,,,,
null,"<img src=""stim_listA/dance5.gif""</stim_listA>",,html-keyboard-response,291,1992308,0.0-17.0-1.16,5936,List2A,black,man,,,,null,,,,
null,is dancing with,,html-keyboard-response,292,1994313,0.0-17.0-2.16,5936,List2A,black,man,,,,null,,,,
7483,,,survey-text,293,2001799,0.0-17.0-3.16,5936,List2A,black,man,,,,,"{""Q0"":""Mike is dancing with luke""}","<img src=""stim_listA/dance5.gif""</stim_listA>",is dancing with,
null,"<div style=""font-size:60px;"">+</div>",,html-keyboard-response,294,2002302,0.0-17.0-0.17,5936,List2A,black,man,,,,null,,,,
null,"<img src=""stim_listA/meet4.gif""</stim_listA>",,html-keyboard-response,295,2004304,0.0-17.0-1.17,5936,List2A,black,man,,,,null,,,,
null,are meeting each other,,html-keyboard-response,296,2006310,0.0-17.0-2.17,5936,List2A,black,man,,,,null,,,,
12519,,,survey-text,297,2018842,0.0-17.0-3.17,5936,List2A,black,man,,,,,"{""Q0"":""Fred and Beth are meeting each other ""}","<img src=""stim_listA/meet4.gif""</stim_listA>",are meeting each other,
null,"<div style=""font-size:60px;"">+</div>",,html-keyboard-response,298,2019347,0.0-17.0-0.18,5936,List2A,black,man,,,,null,,,,
null,"<img src=""stim_listA/argue5.gif""</stim_listA>",,html-keyboard-response,299,2021352,0.0-17.0-1.18,5936,List2A,black,man,,,,null,,,,
null,is arguing with,,html-keyboard-response,300,2023356,0.0-17.0-2.18,5936,List2A,black,man,,,,null,,,,
10750,,,survey-text,301,2034110,0.0-17.0-3.18,5936,List2A,black,man,,,,,"{""Q0"":""Dave is arguing with fred""}","<img src=""stim_listA/argue5.gif""</stim_listA>",is arguing with,
null,"<div style=""font-size:60px;"">+</div>",,html-keyboard-response,302,2034613,0.0-17.0-0.19,5936,List2A,black,man,,,,null,,,,
null,"<img src=""stim_listA/hug2.gif""</stim_listA>",,html-keyboard-response,303,2036618,0.0-17.0-1.19,5936,List2A,black,man,,,,null,,,,
null,are hugging each other,,html-keyboard-response,304,2038622,0.0-17.0-2.19,5936,List2A,black,man,,,,null,,,,
9652,,,survey-text,305,2048278,0.0-17.0-3.19,5936,List2A,black,man,,,,,"{""Q0"":""Are hugging each other ""}","<img src=""stim_listA/hug2.gif""</stim_listA>",are hugging each other,
8971,"<img src='img/portrait_matrix_list2.JPG' style='width:900px;height:500px;''></img><p>If you have memorised all the portraits and names and are ready to start, press Continue.</p><p><strong>Please note: Your memory of these faces will be tested 4 times during this experiment.</strong></p>",0,html-button-response,306,2057255,0.0-18.0-0.0,5936,List2A,black,man,,,,,,,,
3358,"<img src=""portrait/BM1.jpg""style=""width:400px;height:400px;""></img>",4,html-button-response,307,2061621,0.0-18.0-1.0,5936,List2A,black,man,,TRUE,4,,,,,
null,CORRECT,,html-keyboard-response,308,2063126,0.0-18.0-2.0-0.0,5936,List2A,black,man,,,,null,,,,
2164,"<img src=""portrait/WM1.jpg""style=""width:400px;height:400px;""></img>",6,html-button-response,309,2065304,0.0-18.0-4.0,5936,List2A,black,man,,TRUE,6,,,,,
null,CORRECT,,html-keyboard-response,310,2066810,0.0-18.0-5.0-0.0,5936,List2A,black,man,,,,null,,,,
5095,"<img src=""portrait/WW2.jpg""style=""width:400px;height:400px;""></img>",3,html-button-response,311,2071913,0.0-18.0-7.0,5936,List2A,black,man,,TRUE,3,,,,,
null,CORRECT,,html-keyboard-response,312,2073418,0.0-18.0-8.0-0.0,5936,List2A,black,man,,,,null,,,,
1746,"<img src=""portrait/BM2.jpg""style=""width:400px;height:400px;""></img>",5,html-button-response,313,2075171,0.0-18.0-10.0,5936,List2A,black,man,,TRUE,5,,,,,
null,CORRECT,,html-keyboard-response,314,2076676,0.0-18.0-11.0-0.0,5936,List2A,black,man,,,,null,,,,
3897,"<img src=""portrait/BW1.jpg""style=""width:400px;height:400px;""></img>",0,html-button-response,315,2080581,0.0-18.0-13.0,5936,List2A,black,man,,TRUE,0,,,,,
null,CORRECT,,html-keyboard-response,316,2082085,0.0-18.0-14.0-0.0,5936,List2A,black,man,,,,null,,,,
3701,"<img src=""portrait/WW1.jpg""style=""width:400px;height:400px;""></img>",1,html-button-response,317,2085793,0.0-18.0-16.0,5936,List2A,black,man,,TRUE,1,,,,,
null,CORRECT,,html-keyboard-response,318,2087298,0.0-18.0-17.0-0.0,5936,List2A,black,man,,,,null,,,,
1593,"<img src=""portrait/WM2.jpg""style=""width:400px;height:400px;""></img>",7,html-button-response,319,2088898,0.0-18.0-19.0,5936,List2A,black,man,,TRUE,7,,,,,
null,CORRECT,,html-keyboard-response,320,2090402,0.0-18.0-20.0-0.0,5936,List2A,black,man,,,,null,,,,
2865,"<img src=""portrait/BW2.jpg""style=""width:400px;height:400px;""></img>",2,html-button-response,321,2093274,0.0-18.0-22.0,5936,List2A,black,man,,TRUE,2,,,,,
null,CORRECT,,html-keyboard-response,322,2094779,0.0-18.0-23.0-0.0,5936,List2A,black,man,,,,null,,,,
1797,<p>You got 8 out of 8 right first time. Press Continue.</p>,0,html-button-response,323,2096581,0.0-18.0-25.0,5936,List2A,black,man,,,,,,,,
null,"<div style=""font-size:60px;"">+</div>",,html-keyboard-response,324,2098090,0.0-19.0-0.0,5936,List2A,black,man,,,,null,,,,
null,"<img src=""stim_listA/meet5.gif""</stim_listA>",,html-keyboard-response,325,2100100,0.0-19.0-1.0,5936,List2A,black,man,,,,null,,,,
null,is meeting,,html-keyboard-response,326,2102104,0.0-19.0-2.0,5936,List2A,black,man,,,,null,,,,
8510,,,survey-text,327,2110618,0.0-19.0-3.0,5936,List2A,black,man,,,,,"{""Q0"":""Mike is meeting Dave ""}","<img src=""stim_listA/meet5.gif""</stim_listA>",is meeting,
null,"<div style=""font-size:60px;"">+</div>",,html-keyboard-response,328,2111122,0.0-19.0-0.1,5936,List2A,black,man,,,,null,,,,
null,"<img src=""stim_listA/touch4.gif""</stim_listA>",,html-keyboard-response,329,2113126,0.0-19.0-1.1,5936,List2A,black,man,,,,null,,,,
null,are touching each other,,html-keyboard-response,330,2115130,0.0-19.0-2.1,5936,List2A,black,man,,,,null,,,,
12597,,,survey-text,331,2127730,0.0-19.0-3.1,5936,List2A,black,man,,,,,"{""Q0"":""Beth and Fred are touching each other ""}","<img src=""stim_listA/touch4.gif""</stim_listA>",are touching each other,
null,"<div style=""font-size:60px;"">+</div>",,html-keyboard-response,332,2128233,0.0-19.0-0.2,5936,List2A,black,man,,,,null,,,,
null,"<img src=""stim_listA/dance8.gif""</stim_listA>",,html-keyboard-response,333,2130239,0.0-19.0-1.2,5936,List2A,black,man,,,,null,,,,
null,are dancing with each other,,html-keyboard-response,334,2132243,0.0-19.0-2.2,5936,List2A,black,man,,,,null,,,,
18417,,,survey-text,335,2150664,0.0-19.0-3.2,5936,List2A,black,man,,,,,"{""Q0"":""Beth and Jane are dancing with each other ""}","<img src=""stim_listA/dance8.gif""</stim_listA>",are dancing with each other,
null,"<div style=""font-size:60px;"">+</div>",,html-keyboard-response,336,2151169,0.0-19.0-0.3,5936,List2A,black,man,,,,null,,,,
null,"<img src=""stim_listA/fight2.gif""</stim_listA>",,html-keyboard-response,337,2153174,0.0-19.0-1.3,5936,List2A,black,man,,,,null,,,,
null,are fighting each other,,html-keyboard-response,338,2155178,0.0-19.0-2.3,5936,List2A,black,man,,,,null,,,,
11359,,,survey-text,339,2166547,0.0-19.0-3.3,5936,List2A,black,man,,,,,"{""Q0"":""Ruth and Luke are fighting each other""}","<img src=""stim_listA/fight2.gif""</stim_listA>",are fighting each other,
null,"<div style=""font-size:60px;"">+</div>",,html-keyboard-response,340,2167051,0.0-19.0-0.4,5936,List2A,black,man,,,,null,,,,
null,"<img src=""stim_listA/argue2.gif""</stim_listA>",,html-keyboard-response,341,2169055,0.0-19.0-1.4,5936,List2A,black,man,,,,null,,,,
null,are arguing with each other,,html-keyboard-response,342,2171060,0.0-19.0-2.4,5936,List2A,black,man,,,,null,,,,
12276,,,survey-text,343,2183341,0.0-19.0-3.4,5936,List2A,black,man,,,,,"{""Q0"":""Luke and Jane are arguing with each other ""}","<img src=""stim_listA/argue2.gif""</stim_listA>",are arguing with each other,
null,"<div style=""font-size:60px;"">+</div>",,html-keyboard-response,344,2183844,0.0-19.0-0.5,5936,List2A,black,man,,,,null,,,,
null,"<img src=""stim_listA/argue8.gif""</stim_listA>",,html-keyboard-response,345,2185849,0.0-19.0-1.5,5936,List2A,black,man,,,,null,,,,
null,are arguing with each other,,html-keyboard-response,346,2187853,0.0-19.0-2.5,5936,List2A,black,man,,,,null,,,,
12877,,,survey-text,347,2200734,0.0-19.0-3.5,5936,List2A,black,man,,,,,"{""Q0"":""Ruth and Kate are arguing with each other ""}","<img src=""stim_listA/argue8.gif""</stim_listA>",are arguing with each other,
null,"<div style=""font-size:60px;"">+</div>",,html-keyboard-response,348,2201238,0.0-19.0-0.6,5936,List2A,black,man,,,,null,,,,
null,"<img src=""stim_listA/fight5.gif""</stim_listA>",,html-keyboard-response,349,2203243,0.0-19.0-1.6,5936,List2A,black,man,,,,null,,,,
null,is fighting,,html-keyboard-response,350,2205248,0.0-19.0-2.6,5936,List2A,black,man,,,,null,,,,
7852,,,survey-text,351,2213103,0.0-19.0-3.6,5936,List2A,black,man,,,,,"{""Q0"":""Dave is fighting mike""}","<img src=""stim_listA/fight5.gif""</stim_listA>",is fighting,
null,"<div style=""font-size:60px;"">+</div>",,html-keyboard-response,352,2213607,0.0-19.0-0.7,5936,List2A,black,man,,,,null,,,,
null,"<img src=""stim_listA/marry8.gif""</stim_listA>",,html-keyboard-response,353,2215613,0.0-19.0-1.7,5936,List2A,black,man,,,,null,,,,
null,are marrying each other,,html-keyboard-response,354,2217617,0.0-19.0-2.7,5936,List2A,black,man,,,,null,,,,
10942,,,survey-text,355,2228563,0.0-19.0-3.7,5936,List2A,black,man,,,,,"{""Q0"":""Ruth and Kate are marrying each other ""}","<img src=""stim_listA/marry8.gif""</stim_listA>",are marrying each other,
null,"<div style=""font-size:60px;"">+</div>",,html-keyboard-response,356,2229067,0.0-19.0-0.8,5936,List2A,black,man,,,,null,,,,
null,"<img src=""stim_listA/fight3.gif""</stim_listA>",,html-keyboard-response,357,2231071,0.0-19.0-1.8,5936,List2A,black,man,,,,null,,,,
null,is fighting,,html-keyboard-response,358,2233075,0.0-19.0-2.8,5936,List2A,black,man,,,,null,,,,
10444,,,survey-text,359,2243530,0.0-19.0-3.8,5936,List2A,black,man,,,,,"{""Q0"":""Mike is fighting Kate ""}","<img src=""stim_listA/fight3.gif""</stim_listA>",is fighting,
null,"<div style=""font-size:60px;"">+</div>",,html-keyboard-response,360,2244034,0.0-19.0-0.9,5936,List2A,black,man,,,,null,,,,
null,"<img src=""stim_listA/meet8.gif""</stim_listA>",,html-keyboard-response,361,2246039,0.0-19.0-1.9,5936,List2A,black,man,,,,null,,,,
null,are meeting each other,,html-keyboard-response,362,2248042,0.0-19.0-2.9,5936,List2A,black,man,,,,null,,,,
10260,,,survey-text,363,2258315,0.0-19.0-3.9,5936,List2A,black,man,,,,,"{""Q0"":""Ruth and Beth are meeting each other ""}","<img src=""stim_listA/meet8.gif""</stim_listA>",are meeting each other,
null,"<div style=""font-size:60px;"">+</div>",,html-keyboard-response,364,2258820,0.0-19.0-0.10,5936,List2A,black,man,,,,null,,,,
null,"<img src=""stim_listA/meet7.gif""</stim_listA>",,html-keyboard-response,365,2260824,0.0-19.0-1.10,5936,List2A,black,man,,,,null,,,,
null,is meeting,,html-keyboard-response,366,2262829,0.0-19.0-2.10,5936,List2A,black,man,,,,null,,,,
7850,,,survey-text,367,2270683,0.0-19.0-3.10,5936,List2A,black,man,,,,,"{""Q0"":""Jane is meeting Kate ""}","<img src=""stim_listA/meet7.gif""</stim_listA>",is meeting,
null,"<div style=""font-size:60px;"">+</div>",,html-keyboard-response,368,2271187,0.0-19.0-0.11,5936,List2A,black,man,,,,null,,,,
null,"<img src=""stim_listA/meet2.gif""</stim_listA>",,html-keyboard-response,369,2273192,0.0-19.0-1.11,5936,List2A,black,man,,,,null,,,,
null,are meeting each other,,html-keyboard-response,370,2275196,0.0-19.0-2.11,5936,List2A,black,man,,,,null,,,,
10966,,,survey-text,371,2286166,0.0-19.0-3.11,5936,List2A,black,man,,,,,"{""Q0"":""Ruth and Luke are meeting each other ""}","<img src=""stim_listA/meet2.gif""</stim_listA>",are meeting each other,
null,"<div style=""font-size:60px;"">+</div>",,html-keyboard-response,372,2286671,0.0-19.0-0.12,5936,List2A,black,man,,,,null,,,,
null,"<img src=""stim_listA/touch3.gif""</stim_listA>",,html-keyboard-response,373,2288676,0.0-19.0-1.12,5936,List2A,black,man,,,,null,,,,
null,is touching,,html-keyboard-response,374,2290681,0.0-19.0-2.12,5936,List2A,black,man,,,,null,,,,
8771,,,survey-text,375,2299455,0.0-19.0-3.12,5936,List2A,black,man,,,,,"{""Q0"":""Kate is touching mike""}","<img src=""stim_listA/touch3.gif""</stim_listA>",is touching,
null,"<div style=""font-size:60px;"">+</div>",,html-keyboard-response,376,2299958,0.0-19.0-0.13,5936,List2A,black,man,,,,null,,,,
null,"<img src=""stim_listA/fight4.gif""</stim_listA>",,html-keyboard-response,377,2301963,0.0-19.0-1.13,5936,List2A,black,man,,,,null,,,,
null,are fighting each other,,html-keyboard-response,378,2303969,0.0-19.0-2.13,5936,List2A,black,man,,,,null,,,,
17765,,,survey-text,379,2321738,0.0-19.0-3.13,5936,List2A,black,man,,,,,"{""Q0"":""Beth and Fred are fighting each other ""}","<img src=""stim_listA/fight4.gif""</stim_listA>",are fighting each other,
null,"<div style=""font-size:60px;"">+</div>",,html-keyboard-response,380,2322242,0.0-19.0-0.14,5936,List2A,black,man,,,,null,,,,
null,"<img src=""stim_listA/marry1.gif""</stim_listA>",,html-keyboard-response,381,2324245,0.0-19.0-1.14,5936,List2A,black,man,,,,null,,,,
null,is marrying,,html-keyboard-response,382,2326249,0.0-19.0-2.14,5936,List2A,black,man,,,,null,,,,
7561,,,survey-text,383,2333815,0.0-19.0-3.14,5936,List2A,black,man,,,,,"{""Q0"":""Dave is marrying ruth""}","<img src=""stim_listA/marry1.gif""</stim_listA>",is marrying,
null,"<div style=""font-size:60px;"">+</div>",,html-keyboard-response,384,2334319,0.0-19.0-0.15,5936,List2A,black,man,,,,null,,,,
null,"<img src=""stim_listA/marry2.gif""</stim_listA>",,html-keyboard-response,385,2336325,0.0-19.0-1.15,5936,List2A,black,man,,,,null,,,,
null,are marrying each other,,html-keyboard-response,386,2338329,0.0-19.0-2.15,5936,List2A,black,man,,,,null,,,,
18805,,,survey-text,387,2357138,0.0-19.0-3.15,5936,List2A,black,man,,,,,"{""Q0"":""Luke and Jane are marring each other""}","<img src=""stim_listA/marry2.gif""</stim_listA>",are marrying each other,
null,"<div style=""font-size:60px;"">+</div>",,html-keyboard-response,388,2357643,0.0-19.0-0.16,5936,List2A,black,man,,,,null,,,,
null,"<img src=""stim_listA/touch8.gif""</stim_listA>",,html-keyboard-response,389,2359648,0.0-19.0-1.16,5936,List2A,black,man,,,,null,,,,
null,are touching each other,,html-keyboard-response,390,2361653,0.0-19.0-2.16,5936,List2A,black,man,,,,null,,,,
10998,,,survey-text,391,2372655,0.0-19.0-3.16,5936,List2A,black,man,,,,,"{""Q0"":""Ruth and Beth are touching each other""}","<img src=""stim_listA/touch8.gif""</stim_listA>",are touching each other,
null,"<div style=""font-size:60px;"">+</div>",,html-keyboard-response,392,2373159,0.0-19.0-0.17,5936,List2A,black,man,,,,null,,,,
null,"<img src=""stim_listA/kiss3.gif""</stim_listA>",,html-keyboard-response,393,2375164,0.0-19.0-1.17,5936,List2A,black,man,,,,null,,,,
null,is kissing,,html-keyboard-response,394,2377168,0.0-19.0-2.17,5936,List2A,black,man,,,,null,,,,
7153,,,survey-text,395,2384325,0.0-19.0-3.17,5936,List2A,black,man,,,,,"{""Q0"":""Beth is kissing fred""}","<img src=""stim_listA/kiss3.gif""</stim_listA>",is kissing,
null,"<div style=""font-size:60px;"">+</div>",,html-keyboard-response,396,2384829,0.0-19.0-0.18,5936,List2A,black,man,,,,null,,,,
null,"<img src=""stim_listA/dance4.gif""</stim_listA>",,html-keyboard-response,397,2386834,0.0-19.0-1.18,5936,List2A,black,man,,,,null,,,,
null,are dancing with each other,,html-keyboard-response,398,2388838,0.0-19.0-2.18,5936,List2A,black,man,,,,null,,,,
8831,,,survey-text,399,2397671,0.0-19.0-3.18,5936,List2A,black,man,,,,,"{""Q0"":""Mike and Beth are dancing with each other ""}","<img src=""stim_listA/dance4.gif""</stim_listA>",are dancing with each other,
null,"<div style=""font-size:60px;"">+</div>",,html-keyboard-response,400,2398174,0.0-19.0-0.19,5936,List2A,black,man,,,,null,,,,
null,"<img src=""stim_listA/shout3.gif""</stim_listA>",,html-keyboard-response,401,2400180,0.0-19.0-1.19,5936,List2A,black,man,,,,null,,,,
null,is shouting at,,html-keyboard-response,402,2402184,0.0-19.0-2.19,5936,List2A,black,man,,,,null,,,,
11983,,,survey-text,403,2414170,0.0-19.0-3.19,5936,List2A,black,man,,,,,"{""Q0"":""Fred is shouting at Beth ""}","<img src=""stim_listA/shout3.gif""</stim_listA>",is shouting at,
2792,<p>Thank you for completing that task.</p><p>The final part of this session is a short questionnaire.</p><p>Press Continue.</p>,0,html-button-response,404,2416967,0.0-20.0,5936,List2A,black,man,,,,,,,,
31110,,,survey-text,405,2449082,0.0-21.0,5936,List2A,black,man,,,,,"{""Q0"":""25"",""Q1"":""English "",""Q2"":""English "",""Q3"":""UK"",""Q4"":""Black"",""Q5"":""Male""}",,,demographics
54912,,,survey-likert,406,2504009,0.0-22.0,5936,List2A,black,man,,,,,"{""Q0"":6,""Q1"":6,""Q2"":6,""Q3"":6,""Q4"":6,""Q5"":6,""Q6"":6,""Q7"":1,""Q8"":6,""Q9"":5,""Q10"":5,""Q11"":4,""Q12"":6,""Q13"":4}",,,likert_race
52373,,,survey-likert,407,2556390,0.0-23.0,5936,List2A,black,man,,,,,"{""Q0"":4,""Q1"":3,""Q2"":3,""Q3"":4,""Q4"":3,""Q5"":3,""Q6"":3,""Q7"":1,""Q8"":1,""Q9"":0,""Q10"":4,""Q11"":5,""Q12"":4,""Q13"":5}",,,likert_gender
75200,,,survey-text,408,2631595,0.0-24.0,5936,List2A,black,man,,,,,"{""Q0"":""ccc""}",,,worker_id
21696,,,external-html,409,2653470,0.0-25.0,5936,List2A,black,man,debrief.html,,,,,,,
