rt,stimulus,button_pressed,trial_type,trial_index,time_elapsed,internal_node_id,subject,list,ppt_race,ppt_gender,url,first_guess,correct,key_press,responses,image_type,phrase_type,test_part
3292,Welcome to the experiment. Press Continue to begin.,0,html-button-response,0,3298,0.0-0.0,59703,List1A,white,man,,,,,,,,
9269,,,external-html,1,13689,0.0-1.0,59703,List1A,white,man,consent.html,,,,,,,
12617,"<p>On the next page, you will see portraits of 8 people and their names.</p><p>Your first task is to take a few minutes to memorise the names of these people.</p><p>You will have to recall their names during the rest of the experiment, so it is</p><p>essential that you try to memorise these people and their names as best as you can.</p><br><p><strong>You will then be tested on your memory of these names and portraits.</strong></p><br><p>The experiment will start after you have completed this memory test.</p><br><p>Ready?</p>",0,html-button-response,2,26309,0.0-2.0,59703,List1A,white,man,,,,,,,,
72171,"<img src='img/portrait_matrix_list1.JPG' style='width:900px;height:500px;''></img><p>If you have memorised all the portraits and names and are ready to start, press Continue.</p><p><strong>Please note: Your memory of these faces will be tested 4 times during this experiment.</strong></p>",0,html-button-response,3,99493,0.0-3.0-0.0,59703,List1A,white,man,,,,,,,,
4994,"<img src=""portrait/BM2.jpg""style=""width:400px;height:400px;""></img>",5,html-button-response,4,105492,0.0-3.0-1.0,59703,List1A,white,man,,TRUE,5,,,,,
null,CORRECT,,html-keyboard-response,5,106999,0.0-3.0-2.0-0.0,59703,List1A,white,man,,,,null,,,,
5493,"<img src=""portrait/WM1.jpg""style=""width:400px;height:400px;""></img>",4,html-button-response,6,112495,0.0-3.0-4.0,59703,List1A,white,man,,TRUE,6,,,,,
2897,"<img src=""portrait/WM1.jpg""style=""width:400px;height:400px;""></img>",6,html-button-response,7,116400,0.0-3.0-6.0-0.0,59703,List1A,white,man,,FALSE,6,,,,,
null,CORRECT,,html-keyboard-response,8,117913,0.0-3.0-6.0-1.0-0.0,59703,List1A,white,man,,,,null,,,,
4986,"<img src=""portrait/WM2.jpg""style=""width:400px;height:400px;""></img>",5,html-button-response,9,122902,0.0-3.0-7.0,59703,List1A,white,man,,TRUE,7,,,,,
1312,"<img src=""portrait/WM2.jpg""style=""width:400px;height:400px;""></img>",7,html-button-response,10,125220,0.0-3.0-9.0-0.0,59703,List1A,white,man,,FALSE,7,,,,,
null,CORRECT,,html-keyboard-response,11,126756,0.0-3.0-9.0-1.0-0.0,59703,List1A,white,man,,,,null,,,,
3421,"<img src=""portrait/BM1.jpg""style=""width:400px;height:400px;""></img>",5,html-button-response,12,130179,0.0-3.0-10.0,59703,List1A,white,man,,TRUE,4,,,,,
2161,"<img src=""portrait/BM1.jpg""style=""width:400px;height:400px;""></img>",4,html-button-response,13,133347,0.0-3.0-12.0-0.0,59703,List1A,white,man,,FALSE,4,,,,,
null,CORRECT,,html-keyboard-response,14,134851,0.0-3.0-12.0-1.0-0.0,59703,List1A,white,man,,,,null,,,,
7690,"<img src=""portrait/BW2.jpg""style=""width:400px;height:400px;""></img>",2,html-button-response,15,142543,0.0-3.0-13.0,59703,List1A,white,man,,TRUE,2,,,,,
null,CORRECT,,html-keyboard-response,16,144052,0.0-3.0-14.0-0.0,59703,List1A,white,man,,,,null,,,,
11005,"<img src=""portrait/WW1.jpg""style=""width:400px;height:400px;""></img>",1,html-button-response,17,155059,0.0-3.0-16.0,59703,List1A,white,man,,TRUE,1,,,,,
null,CORRECT,,html-keyboard-response,18,156590,0.0-3.0-17.0-0.0,59703,List1A,white,man,,,,null,,,,
2368,"<img src=""portrait/BW1.jpg""style=""width:400px;height:400px;""></img>",0,html-button-response,19,158960,0.0-3.0-19.0,59703,List1A,white,man,,TRUE,0,,,,,
null,CORRECT,,html-keyboard-response,20,160491,0.0-3.0-20.0-0.0,59703,List1A,white,man,,,,null,,,,
1976,"<img src=""portrait/WW2.jpg""style=""width:400px;height:400px;""></img>",3,html-button-response,21,162469,0.0-3.0-22.0,59703,List1A,white,man,,TRUE,3,,,,,
null,CORRECT,,html-keyboard-response,22,163974,0.0-3.0-23.0-0.0,59703,List1A,white,man,,,,null,,,,
7504,<p>You got 5 out of 8 right first time. Press Continue.</p>,0,html-button-response,23,171481,0.0-3.0-25.0,59703,List1A,white,man,,,,,,,,
3080,"As you did not score 100%, the memory game will repeat. Press Continue.",0,html-button-response,24,175565,0.0-3.0-26.0-0.0,59703,List1A,white,man,,,,,,,,
21079,"<img src='img/portrait_matrix_list1.JPG' style='width:900px;height:500px;''></img><p>If you have memorised all the portraits and names and are ready to start, press Continue.</p><p><strong>Please note: Your memory of these faces will be tested 4 times during this experiment.</strong></p>",0,html-button-response,25,197653,0.0-3.1-0.1,59703,List1A,white,man,,,,,,,,
5761,"<img src=""portrait/BM2.jpg""style=""width:400px;height:400px;""></img>",4,html-button-response,26,204420,0.0-3.1-1.1,59703,List1A,white,man,,TRUE,5,,,,,
1215,"<img src=""portrait/BM2.jpg""style=""width:400px;height:400px;""></img>",5,html-button-response,27,206639,0.0-3.1-3.1-0.1,59703,List1A,white,man,,FALSE,5,,,,,
null,CORRECT,,html-keyboard-response,28,208187,0.0-3.1-3.1-1.1-0.1,59703,List1A,white,man,,,,null,,,,
1535,"<img src=""portrait/WM1.jpg""style=""width:400px;height:400px;""></img>",6,html-button-response,29,209725,0.0-3.1-4.1,59703,List1A,white,man,,TRUE,6,,,,,
null,CORRECT,,html-keyboard-response,30,211232,0.0-3.1-5.1-0.1,59703,List1A,white,man,,,,null,,,,
2437,"<img src=""portrait/WM2.jpg""style=""width:400px;height:400px;""></img>",7,html-button-response,31,213671,0.0-3.1-7.1,59703,List1A,white,man,,TRUE,7,,,,,
null,CORRECT,,html-keyboard-response,32,215177,0.0-3.1-8.1-0.1,59703,List1A,white,man,,,,null,,,,
854,"<img src=""portrait/BM1.jpg""style=""width:400px;height:400px;""></img>",4,html-button-response,33,216033,0.0-3.1-10.1,59703,List1A,white,man,,TRUE,4,,,,,
null,CORRECT,,html-keyboard-response,34,217539,0.0-3.1-11.1-0.1,59703,List1A,white,man,,,,null,,,,
2137,"<img src=""portrait/BW2.jpg""style=""width:400px;height:400px;""></img>",2,html-button-response,35,219679,0.0-3.1-13.1,59703,List1A,white,man,,TRUE,2,,,,,
null,CORRECT,,html-keyboard-response,36,221188,0.0-3.1-14.1-0.1,59703,List1A,white,man,,,,null,,,,
4141,"<img src=""portrait/WW1.jpg""style=""width:400px;height:400px;""></img>",1,html-button-response,37,225332,0.0-3.1-16.1,59703,List1A,white,man,,TRUE,1,,,,,
null,CORRECT,,html-keyboard-response,38,226838,0.0-3.1-17.1-0.1,59703,List1A,white,man,,,,null,,,,
2311,"<img src=""portrait/BW1.jpg""style=""width:400px;height:400px;""></img>",0,html-button-response,39,229153,0.0-3.1-19.1,59703,List1A,white,man,,TRUE,0,,,,,
null,CORRECT,,html-keyboard-response,40,230659,0.0-3.1-20.1-0.1,59703,List1A,white,man,,,,null,,,,
644,"<img src=""portrait/WW2.jpg""style=""width:400px;height:400px;""></img>",3,html-button-response,41,231306,0.0-3.1-22.1,59703,List1A,white,man,,TRUE,3,,,,,
null,CORRECT,,html-keyboard-response,42,232816,0.0-3.1-23.1-0.1,59703,List1A,white,man,,,,null,,,,
1242,<p>You got 7 out of 8 right first time. Press Continue.</p>,0,html-button-response,43,234060,0.0-3.1-25.1,59703,List1A,white,man,,,,,,,,
1304,"As you did not score 100%, the memory game will repeat. Press Continue.",0,html-button-response,44,236394,0.0-3.1-26.1-0.1,59703,List1A,white,man,,,,,,,,
5923,"<img src='img/portrait_matrix_list1.JPG' style='width:900px;height:500px;''></img><p>If you have memorised all the portraits and names and are ready to start, press Continue.</p><p><strong>Please note: Your memory of these faces will be tested 4 times during this experiment.</strong></p>",0,html-button-response,45,243321,0.0-3.2-0.2,59703,List1A,white,man,,,,,,,,
1459,"<img src=""portrait/BM2.jpg""style=""width:400px;height:400px;""></img>",5,html-button-response,46,245804,0.0-3.2-1.2,59703,List1A,white,man,,TRUE,5,,,,,
null,CORRECT,,html-keyboard-response,47,247308,0.0-3.2-2.2-0.2,59703,List1A,white,man,,,,null,,,,
2287,"<img src=""portrait/WM1.jpg""style=""width:400px;height:400px;""></img>",6,html-button-response,48,249597,0.0-3.2-4.2,59703,List1A,white,man,,TRUE,6,,,,,
null,CORRECT,,html-keyboard-response,49,251134,0.0-3.2-5.2-0.2,59703,List1A,white,man,,,,null,,,,
804,"<img src=""portrait/WM2.jpg""style=""width:400px;height:400px;""></img>",7,html-button-response,50,251940,0.0-3.2-7.2,59703,List1A,white,man,,TRUE,7,,,,,
null,CORRECT,,html-keyboard-response,51,253448,0.0-3.2-8.2-0.2,59703,List1A,white,man,,,,null,,,,
887,"<img src=""portrait/BM1.jpg""style=""width:400px;height:400px;""></img>",4,html-button-response,52,254337,0.0-3.2-10.2,59703,List1A,white,man,,TRUE,4,,,,,
null,CORRECT,,html-keyboard-response,53,255846,0.0-3.2-11.2-0.2,59703,List1A,white,man,,,,null,,,,
1625,"<img src=""portrait/BW2.jpg""style=""width:400px;height:400px;""></img>",2,html-button-response,54,257476,0.0-3.2-13.2,59703,List1A,white,man,,TRUE,2,,,,,
null,CORRECT,,html-keyboard-response,55,258982,0.0-3.2-14.2-0.2,59703,List1A,white,man,,,,null,,,,
3209,"<img src=""portrait/WW1.jpg""style=""width:400px;height:400px;""></img>",1,html-button-response,56,262193,0.0-3.2-16.2,59703,List1A,white,man,,TRUE,1,,,,,
null,CORRECT,,html-keyboard-response,57,263700,0.0-3.2-17.2-0.2,59703,List1A,white,man,,,,null,,,,
487,"<img src=""portrait/BW1.jpg""style=""width:400px;height:400px;""></img>",0,html-button-response,58,264189,0.0-3.2-19.2,59703,List1A,white,man,,TRUE,0,,,,,
null,CORRECT,,html-keyboard-response,59,265707,0.0-3.2-20.2-0.2,59703,List1A,white,man,,,,null,,,,
1217,"<img src=""portrait/WW2.jpg""style=""width:400px;height:400px;""></img>",3,html-button-response,60,266926,0.0-3.2-22.2,59703,List1A,white,man,,TRUE,3,,,,,
null,CORRECT,,html-keyboard-response,61,268434,0.0-3.2-23.2-0.2,59703,List1A,white,man,,,,null,,,,
3201,<p>You got 8 out of 8 right first time. Press Continue.</p>,0,html-button-response,62,271637,0.0-3.2-25.2,59703,List1A,white,man,,,,,,,,
27294,"<p>In this experiment, you will view photographs of the people from the memory game interacting.</p><p>By using the <strong>exact</strong> phrase given <i>after</i> the photograph appears and recalling the correct names of the people in the photographs, form a sentence describing the interaction. You do not need to capitalise names.</p><p>Type your answer in the space provided. Please complete every sentence before moving onto the next trial.</p><p>You will only have a few seconds to memorise each given photograph and phrase before you can respond, so try your best to focus.</p><p>An example is given below. Press 'Continue' when you are ready.</p><img src='img/speaking_example_v2.jpg' style='width:800px;height:460px;''></img>",0,html-button-response,63,299934,0.0-4.0,59703,List1A,white,man,,,,,,,,
1959,"<p>Before the experiment starts, you will watch two example trials. Press 'Continue'.</p>",0,html-button-response,64,302896,0.0-5.0,59703,List1A,white,man,,,,,,,,
null,<img src='img/speaking_WW.gif'></img>,,html-keyboard-response,65,305901,0.0-6.0,59703,List1A,white,man,,,,null,,,,
null,<p>is speaking to</p>,,html-keyboard-response,66,307903,0.0-7.0,59703,List1A,white,man,,,,null,,,,
2005,<p><b>Answer:</b> kate is speaking to beth</p>,0,html-button-response,67,309910,0.0-8.0,59703,List1A,white,man,,,,,,,,
null,<img src='img/pointing_BM.gif'></img>,,html-keyboard-response,68,312928,0.0-9.0,59703,List1A,white,man,,,,null,,,,
null,<p>are pointing at each other</p>,,html-keyboard-response,69,314931,0.0-10.0,59703,List1A,white,man,,,,null,,,,
5253,<p><b>Answer:</b> luke and dave are pointing at each other</p>,0,html-button-response,70,320185,0.0-11.0,59703,List1A,white,man,,,,,,,,
6886,"<p>Ready to start the experiment?</p><br><p><strong>Remember to describe the picture using a full sentence,</strong></p><p><strong>that combines the names of the people with the given phrase.</strong></p><p><strong>If you do not do this correctly you will not be paid.</strong></p><p><strong> You do not need to capitalise names or use punctuation.</strong></p><br><p>Press 'Continue' to begin.</p>",0,html-button-response,71,328076,0.0-12.0,59703,List1A,white,man,,,,,,,,
null,"<div style=""font-size:60px;"">+</div>",,html-keyboard-response,72,329593,0.0-13.0-0.0,59703,List1A,white,man,,,,null,,,,
null,"<img src=""stim_listA/fight6.gif""</stim_listA>",,html-keyboard-response,73,331605,0.0-13.0-1.0,59703,List1A,white,man,,,,null,,,,
null,are fighting each other,,html-keyboard-response,74,333607,0.0-13.0-2.0,59703,List1A,white,man,,,,null,,,,
8089,,,survey-text,75,341699,0.0-13.0-3.0,59703,List1A,white,man,,,,,"{""Q0"":""Dave and Fred""}","<img src=""stim_listA/fight6.gif""</stim_listA>",are fighting each other,
null,"<div style=""font-size:60px;"">+</div>",,html-keyboard-response,76,342202,0.0-13.0-0.1,59703,List1A,white,man,,,,null,,,,
null,"<img src=""stim_listA/hug8.gif""</stim_listA>",,html-keyboard-response,77,344206,0.0-13.0-1.1,59703,List1A,white,man,,,,null,,,,
null,are hugging each other,,html-keyboard-response,78,346211,0.0-13.0-2.1,59703,List1A,white,man,,,,null,,,,
18643,,,survey-text,79,364855,0.0-13.0-3.1,59703,List1A,white,man,,,,,"{""Q0"":""Kate and Jane""}","<img src=""stim_listA/hug8.gif""</stim_listA>",are hugging each other,
null,"<div style=""font-size:60px;"">+</div>",,html-keyboard-response,80,365360,0.0-13.0-0.2,59703,List1A,white,man,,,,null,,,,
null,"<img src=""stim_listA/hug7.gif""</stim_listA>",,html-keyboard-response,81,367377,0.0-13.0-1.2,59703,List1A,white,man,,,,null,,,,
null,is hugging,,html-keyboard-response,82,369379,0.0-13.0-2.2,59703,List1A,white,man,,,,null,,,,
10778,,,survey-text,83,380159,0.0-13.0-3.2,59703,List1A,white,man,,,,,"{""Q0"":""Ruth and Beth""}","<img src=""stim_listA/hug7.gif""</stim_listA>",is hugging,
null,"<div style=""font-size:60px;"">+</div>",,html-keyboard-response,84,380664,0.0-13.0-0.3,59703,List1A,white,man,,,,null,,,,
null,"<img src=""stim_listA/dance7.gif""</stim_listA>",,html-keyboard-response,85,382668,0.0-13.0-1.3,59703,List1A,white,man,,,,null,,,,
null,is dancing with,,html-keyboard-response,86,384722,0.0-13.0-2.3,59703,List1A,white,man,,,,null,,,,
14489,,,survey-text,87,399212,0.0-13.0-3.3,59703,List1A,white,man,,,,,"{""Q0"":""Jane and Ruth""}","<img src=""stim_listA/dance7.gif""</stim_listA>",is dancing with,
null,"<div style=""font-size:60px;"">+</div>",,html-keyboard-response,88,399715,0.0-13.0-0.4,59703,List1A,white,man,,,,null,,,,
null,"<img src=""stim_listA/shout7.gif""</stim_listA>",,html-keyboard-response,89,401720,0.0-13.0-1.4,59703,List1A,white,man,,,,null,,,,
null,is shouting at,,html-keyboard-response,90,403723,0.0-13.0-2.4,59703,List1A,white,man,,,,null,,,,
19238,,,survey-text,91,422963,0.0-13.0-3.4,59703,List1A,white,man,,,,,"{""Q0"":""Ruth and Jane""}","<img src=""stim_listA/shout7.gif""</stim_listA>",is shouting at,
null,"<div style=""font-size:60px;"">+</div>",,html-keyboard-response,92,423466,0.0-13.0-0.5,59703,List1A,white,man,,,,null,,,,
null,"<img src=""stim_listA/kiss4.gif""</stim_listA>",,html-keyboard-response,93,425470,0.0-13.0-1.5,59703,List1A,white,man,,,,null,,,,
null,are kissing each other,,html-keyboard-response,94,427473,0.0-13.0-2.5,59703,List1A,white,man,,,,null,,,,
18964,,,survey-text,95,446439,0.0-13.0-3.5,59703,List1A,white,man,,,,,"{""Q0"":""Jane and Luke""}","<img src=""stim_listA/kiss4.gif""</stim_listA>",are kissing each other,
null,"<div style=""font-size:60px;"">+</div>",,html-keyboard-response,96,446943,0.0-13.0-0.6,59703,List1A,white,man,,,,null,,,,
null,"<img src=""stim_listA/talk5.gif""</stim_listA>",,html-keyboard-response,97,448948,0.0-13.0-1.6,59703,List1A,white,man,,,,null,,,,
null,is talking to,,html-keyboard-response,98,450951,0.0-13.0-2.6,59703,List1A,white,man,,,,null,,,,
5427,,,survey-text,99,456380,0.0-13.0-3.6,59703,List1A,white,man,,,,,"{""Q0"":""Fred and Luke""}","<img src=""stim_listA/talk5.gif""</stim_listA>",is talking to,
null,"<div style=""font-size:60px;"">+</div>",,html-keyboard-response,100,456907,0.0-13.0-0.7,59703,List1A,white,man,,,,null,,,,
null,"<img src=""stim_listA/marry5.gif""</stim_listA>",,html-keyboard-response,101,458912,0.0-13.0-1.7,59703,List1A,white,man,,,,null,,,,
null,is marrying,,html-keyboard-response,102,460915,0.0-13.0-2.7,59703,List1A,white,man,,,,null,,,,
9943,,,survey-text,103,470860,0.0-13.0-3.7,59703,List1A,white,man,,,,,"{""Q0"":""Dave and Mike""}","<img src=""stim_listA/marry5.gif""</stim_listA>",is marrying,
null,"<div style=""font-size:60px;"">+</div>",,html-keyboard-response,104,471405,0.0-13.0-0.8,59703,List1A,white,man,,,,null,,,,
null,"<img src=""stim_listA/kiss6.gif""</stim_listA>",,html-keyboard-response,105,473421,0.0-13.0-1.8,59703,List1A,white,man,,,,null,,,,
null,are kissing each other,,html-keyboard-response,106,475424,0.0-13.0-2.8,59703,List1A,white,man,,,,null,,,,
5668,,,survey-text,107,481093,0.0-13.0-3.8,59703,List1A,white,man,,,,,"{""Q0"":""Mike and Luke""}","<img src=""stim_listA/kiss6.gif""</stim_listA>",are kissing each other,
null,"<div style=""font-size:60px;"">+</div>",,html-keyboard-response,108,481596,0.0-13.0-0.9,59703,List1A,white,man,,,,null,,,,
null,"<img src=""stim_listA/kiss7.gif""</stim_listA>",,html-keyboard-response,109,483602,0.0-13.0-1.9,59703,List1A,white,man,,,,null,,,,
null,is kissing,,html-keyboard-response,110,485605,0.0-13.0-2.9,59703,List1A,white,man,,,,null,,,,
8929,,,survey-text,111,494535,0.0-13.0-3.9,59703,List1A,white,man,,,,,"{""Q0"":""Ruth and Beth""}","<img src=""stim_listA/kiss7.gif""</stim_listA>",is kissing,
null,"<div style=""font-size:60px;"">+</div>",,html-keyboard-response,112,495051,0.0-13.0-0.10,59703,List1A,white,man,,,,null,,,,
null,"<img src=""stim_listA/dance5.gif""</stim_listA>",,html-keyboard-response,113,497055,0.0-13.0-1.10,59703,List1A,white,man,,,,null,,,,
null,is dancing with,,html-keyboard-response,114,499059,0.0-13.0-2.10,59703,List1A,white,man,,,,null,,,,
6386,,,survey-text,115,505447,0.0-13.0-3.10,59703,List1A,white,man,,,,,"{""Q0"":""Fred and Luke""}","<img src=""stim_listA/dance5.gif""</stim_listA>",is dancing with,
null,"<div style=""font-size:60px;"">+</div>",,html-keyboard-response,116,505955,0.0-13.0-0.11,59703,List1A,white,man,,,,null,,,,
null,"<img src=""stim_listA/dance6.gif""</stim_listA>",,html-keyboard-response,117,507966,0.0-13.0-1.11,59703,List1A,white,man,,,,null,,,,
null,are dancing with each other,,html-keyboard-response,118,509971,0.0-13.0-2.11,59703,List1A,white,man,,,,null,,,,
5238,,,survey-text,119,515210,0.0-13.0-3.11,59703,List1A,white,man,,,,,"{""Q0"":""Dave and Mike""}","<img src=""stim_listA/dance6.gif""</stim_listA>",are dancing with each other,
null,"<div style=""font-size:60px;"">+</div>",,html-keyboard-response,120,515728,0.0-13.0-0.12,59703,List1A,white,man,,,,null,,,,
null,"<img src=""stim_listA/argue1.gif""</stim_listA>",,html-keyboard-response,121,517734,0.0-13.0-1.12,59703,List1A,white,man,,,,null,,,,
null,is arguing with,,html-keyboard-response,122,519738,0.0-13.0-2.12,59703,List1A,white,man,,,,null,,,,
13166,,,survey-text,123,532905,0.0-13.0-3.12,59703,List1A,white,man,,,,,"{""Q0"":""Mike and Beth""}","<img src=""stim_listA/argue1.gif""</stim_listA>",is arguing with,
null,"<div style=""font-size:60px;"">+</div>",,html-keyboard-response,124,533419,0.0-13.0-0.13,59703,List1A,white,man,,,,null,,,,
null,"<img src=""stim_listA/hug1.gif""</stim_listA>",,html-keyboard-response,125,535423,0.0-13.0-1.13,59703,List1A,white,man,,,,null,,,,
null,is hugging,,html-keyboard-response,126,537426,0.0-13.0-2.13,59703,List1A,white,man,,,,null,,,,
12517,,,survey-text,127,549946,0.0-13.0-3.13,59703,List1A,white,man,,,,,"{""Q0"":""Fred and Beth""}","<img src=""stim_listA/hug1.gif""</stim_listA>",is hugging,
null,"<div style=""font-size:60px;"">+</div>",,html-keyboard-response,128,550455,0.0-13.0-0.14,59703,List1A,white,man,,,,null,,,,
null,"<img src=""stim_listA/talk4.gif""</stim_listA>",,html-keyboard-response,129,552462,0.0-13.0-1.14,59703,List1A,white,man,,,,null,,,,
null,are talking to each other,,html-keyboard-response,130,554463,0.0-13.0-2.14,59703,List1A,white,man,,,,null,,,,
5985,,,survey-text,131,560450,0.0-13.0-3.14,59703,List1A,white,man,,,,,"{""Q0"":""Luke and Ruth""}","<img src=""stim_listA/talk4.gif""</stim_listA>",are talking to each other,
null,"<div style=""font-size:60px;"">+</div>",,html-keyboard-response,132,560954,0.0-13.0-0.15,59703,List1A,white,man,,,,null,,,,
null,"<img src=""stim_listA/hug2.gif""</stim_listA>",,html-keyboard-response,133,562959,0.0-13.0-1.15,59703,List1A,white,man,,,,null,,,,
null,are hugging each other,,html-keyboard-response,134,564963,0.0-13.0-2.15,59703,List1A,white,man,,,,null,,,,
7923,,,survey-text,135,572888,0.0-13.0-3.15,59703,List1A,white,man,,,,,"{""Q0"":""Mike and Kate""}","<img src=""stim_listA/hug2.gif""</stim_listA>",are hugging each other,
null,"<div style=""font-size:60px;"">+</div>",,html-keyboard-response,136,573413,0.0-13.0-0.16,59703,List1A,white,man,,,,null,,,,
null,"<img src=""stim_listA/talk8.gif""</stim_listA>",,html-keyboard-response,137,575414,0.0-13.0-1.16,59703,List1A,white,man,,,,null,,,,
null,are talking to each other,,html-keyboard-response,138,577417,0.0-13.0-2.16,59703,List1A,white,man,,,,null,,,,
6207,,,survey-text,139,583626,0.0-13.0-3.16,59703,List1A,white,man,,,,,"{""Q0"":""Kate and Ruth""}","<img src=""stim_listA/talk8.gif""</stim_listA>",are talking to each other,
null,"<div style=""font-size:60px;"">+</div>",,html-keyboard-response,140,584130,0.0-13.0-0.17,59703,List1A,white,man,,,,null,,,,
null,"<img src=""stim_listA/marry6.gif""</stim_listA>",,html-keyboard-response,141,586173,0.0-13.0-1.17,59703,List1A,white,man,,,,null,,,,
null,are marrying each other,,html-keyboard-response,142,588176,0.0-13.0-2.17,59703,List1A,white,man,,,,null,,,,
6527,,,survey-text,143,594705,0.0-13.0-3.17,59703,List1A,white,man,,,,,"{""Q0"":""Fred and Luke""}","<img src=""stim_listA/marry6.gif""</stim_listA>",are marrying each other,
null,"<div style=""font-size:60px;"">+</div>",,html-keyboard-response,144,595208,0.0-13.0-0.18,59703,List1A,white,man,,,,null,,,,
null,"<img src=""stim_listA/meet5.gif""</stim_listA>",,html-keyboard-response,145,597212,0.0-13.0-1.18,59703,List1A,white,man,,,,null,,,,
null,is meeting,,html-keyboard-response,146,599216,0.0-13.0-2.18,59703,List1A,white,man,,,,null,,,,
5179,,,survey-text,147,604397,0.0-13.0-3.18,59703,List1A,white,man,,,,,"{""Q0"":""Mike and Luke""}","<img src=""stim_listA/meet5.gif""</stim_listA>",is meeting,
null,"<div style=""font-size:60px;"">+</div>",,html-keyboard-response,148,604901,0.0-13.0-0.19,59703,List1A,white,man,,,,null,,,,
null,"<img src=""stim_listA/shout5.gif""</stim_listA>",,html-keyboard-response,149,606905,0.0-13.0-1.19,59703,List1A,white,man,,,,null,,,,
null,is shouting at,,html-keyboard-response,150,608909,0.0-13.0-2.19,59703,List1A,white,man,,,,null,,,,
7062,,,survey-text,151,615973,0.0-13.0-3.19,59703,List1A,white,man,,,,,"{""Q0"":""Fred and Dave""}","<img src=""stim_listA/shout5.gif""</stim_listA>",is shouting at,
10276,"<img src='img/portrait_matrix_list1.JPG' style='width:900px;height:500px;''></img><p>If you have memorised all the portraits and names and are ready to start, press Continue.</p><p><strong>Please note: Your memory of these faces will be tested 4 times during this experiment.</strong></p>",0,html-button-response,152,626251,0.0-14.0-0.0,59703,List1A,white,man,,,,,,,,
2037,"<img src=""portrait/WM2.jpg""style=""width:400px;height:400px;""></img>",7,html-button-response,153,629299,0.0-14.0-1.0,59703,List1A,white,man,,TRUE,7,,,,,
null,CORRECT,,html-keyboard-response,154,630822,0.0-14.0-2.0-0.0,59703,List1A,white,man,,,,null,,,,
2851,"<img src=""portrait/BW1.jpg""style=""width:400px;height:400px;""></img>",0,html-button-response,155,633675,0.0-14.0-4.0,59703,List1A,white,man,,TRUE,0,,,,,
null,CORRECT,,html-keyboard-response,156,635193,0.0-14.0-5.0-0.0,59703,List1A,white,man,,,,null,,,,
2945,"<img src=""portrait/BM2.jpg""style=""width:400px;height:400px;""></img>",4,html-button-response,157,638141,0.0-14.0-7.0,59703,List1A,white,man,,TRUE,5,,,,,
2129,"<img src=""portrait/BM2.jpg""style=""width:400px;height:400px;""></img>",5,html-button-response,158,641275,0.0-14.0-9.0-0.0,59703,List1A,white,man,,FALSE,5,,,,,
null,CORRECT,,html-keyboard-response,159,642780,0.0-14.0-9.0-1.0-0.0,59703,List1A,white,man,,,,null,,,,
2166,"<img src=""portrait/WM1.jpg""style=""width:400px;height:400px;""></img>",6,html-button-response,160,644949,0.0-14.0-10.0,59703,List1A,white,man,,TRUE,6,,,,,
null,CORRECT,,html-keyboard-response,161,646452,0.0-14.0-11.0-0.0,59703,List1A,white,man,,,,null,,,,
1532,"<img src=""portrait/WW2.jpg""style=""width:400px;height:400px;""></img>",3,html-button-response,162,647987,0.0-14.0-13.0,59703,List1A,white,man,,TRUE,3,,,,,
null,CORRECT,,html-keyboard-response,163,649493,0.0-14.0-14.0-0.0,59703,List1A,white,man,,,,null,,,,
2225,"<img src=""portrait/BM1.jpg""style=""width:400px;height:400px;""></img>",4,html-button-response,164,651720,0.0-14.0-16.0,59703,List1A,white,man,,TRUE,4,,,,,
null,CORRECT,,html-keyboard-response,165,653225,0.0-14.0-17.0-0.0,59703,List1A,white,man,,,,null,,,,
5242,"<img src=""portrait/WW1.jpg""style=""width:400px;height:400px;""></img>",1,html-button-response,166,658469,0.0-14.0-19.0,59703,List1A,white,man,,TRUE,1,,,,,
null,CORRECT,,html-keyboard-response,167,659972,0.0-14.0-20.0-0.0,59703,List1A,white,man,,,,null,,,,
1549,"<img src=""portrait/BW2.jpg""style=""width:400px;height:400px;""></img>",2,html-button-response,168,661524,0.0-14.0-22.0,59703,List1A,white,man,,TRUE,2,,,,,
null,CORRECT,,html-keyboard-response,169,663030,0.0-14.0-23.0-0.0,59703,List1A,white,man,,,,null,,,,
1404,<p>You got 7 out of 8 right first time. Press Continue.</p>,0,html-button-response,170,664436,0.0-14.0-25.0,59703,List1A,white,man,,,,,,,,
1428,"As you did not score 100%, the memory game will repeat. Press Continue.",0,html-button-response,171,666879,0.0-14.0-26.0-0.0,59703,List1A,white,man,,,,,,,,
1722,"<img src='img/portrait_matrix_list1.JPG' style='width:900px;height:500px;''></img><p>If you have memorised all the portraits and names and are ready to start, press Continue.</p><p><strong>Please note: Your memory of these faces will be tested 4 times during this experiment.</strong></p>",0,html-button-response,172,669603,0.0-14.1-0.1,59703,List1A,white,man,,,,,,,,
1662,"<img src=""portrait/WM2.jpg""style=""width:400px;height:400px;""></img>",7,html-button-response,173,672270,0.0-14.1-1.1,59703,List1A,white,man,,TRUE,7,,,,,
null,CORRECT,,html-keyboard-response,174,673774,0.0-14.1-2.1-0.1,59703,List1A,white,man,,,,null,,,,
1795,"<img src=""portrait/BW1.jpg""style=""width:400px;height:400px;""></img>",0,html-button-response,175,675571,0.0-14.1-4.1,59703,List1A,white,man,,TRUE,0,,,,,
null,CORRECT,,html-keyboard-response,176,677080,0.0-14.1-5.1-0.1,59703,List1A,white,man,,,,null,,,,
1011,"<img src=""portrait/BM2.jpg""style=""width:400px;height:400px;""></img>",5,html-button-response,177,678094,0.0-14.1-7.1,59703,List1A,white,man,,TRUE,5,,,,,
null,CORRECT,,html-keyboard-response,178,679602,0.0-14.1-8.1-0.1,59703,List1A,white,man,,,,null,,,,
1247,"<img src=""portrait/WM1.jpg""style=""width:400px;height:400px;""></img>",6,html-button-response,179,680851,0.0-14.1-10.1,59703,List1A,white,man,,TRUE,6,,,,,
null,CORRECT,,html-keyboard-response,180,682360,0.0-14.1-11.1-0.1,59703,List1A,white,man,,,,null,,,,
1151,"<img src=""portrait/WW2.jpg""style=""width:400px;height:400px;""></img>",3,html-button-response,181,683513,0.0-14.1-13.1,59703,List1A,white,man,,TRUE,3,,,,,
null,CORRECT,,html-keyboard-response,182,685019,0.0-14.1-14.1-0.1,59703,List1A,white,man,,,,null,,,,
1050,"<img src=""portrait/BM1.jpg""style=""width:400px;height:400px;""></img>",4,html-button-response,183,686071,0.0-14.1-16.1,59703,List1A,white,man,,TRUE,4,,,,,
null,CORRECT,,html-keyboard-response,184,687580,0.0-14.1-17.1-0.1,59703,List1A,white,man,,,,null,,,,
3204,"<img src=""portrait/WW1.jpg""style=""width:400px;height:400px;""></img>",1,html-button-response,185,690786,0.0-14.1-19.1,59703,List1A,white,man,,TRUE,1,,,,,
null,CORRECT,,html-keyboard-response,186,692292,0.0-14.1-20.1-0.1,59703,List1A,white,man,,,,null,,,,
1171,"<img src=""portrait/BW2.jpg""style=""width:400px;height:400px;""></img>",2,html-button-response,187,693465,0.0-14.1-22.1,59703,List1A,white,man,,TRUE,2,,,,,
null,CORRECT,,html-keyboard-response,188,694971,0.0-14.1-23.1-0.1,59703,List1A,white,man,,,,null,,,,
1822,<p>You got 8 out of 8 right first time. Press Continue.</p>,0,html-button-response,189,696796,0.0-14.1-25.1,59703,List1A,white,man,,,,,,,,
null,"<div style=""font-size:60px;"">+</div>",,html-keyboard-response,190,698302,0.0-15.0-0.0,59703,List1A,white,man,,,,null,,,,
null,"<img src=""stim_listA/shout6.gif""</stim_listA>",,html-keyboard-response,191,700305,0.0-15.0-1.0,59703,List1A,white,man,,,,null,,,,
null,are shouting at each other,,html-keyboard-response,192,702307,0.0-15.0-2.0,59703,List1A,white,man,,,,null,,,,
5406,,,survey-text,193,707715,0.0-15.0-3.0,59703,List1A,white,man,,,,,"{""Q0"":""Dave and Mike""}","<img src=""stim_listA/shout6.gif""</stim_listA>",are shouting at each other,
null,"<div style=""font-size:60px;"">+</div>",,html-keyboard-response,194,708242,0.0-15.0-0.1,59703,List1A,white,man,,,,null,,,,
null,"<img src=""stim_listA/kiss3.gif""</stim_listA>",,html-keyboard-response,195,710244,0.0-15.0-1.1,59703,List1A,white,man,,,,null,,,,
null,is kissing,,html-keyboard-response,196,712246,0.0-15.0-2.1,59703,List1A,white,man,,,,null,,,,
5444,,,survey-text,197,717692,0.0-15.0-3.1,59703,List1A,white,man,,,,,"{""Q0"":""Luke and Ruth""}","<img src=""stim_listA/kiss3.gif""</stim_listA>",is kissing,
null,"<div style=""font-size:60px;"">+</div>",,html-keyboard-response,198,718229,0.0-15.0-0.2,59703,List1A,white,man,,,,null,,,,
null,"<img src=""stim_listA/kiss2.gif""</stim_listA>",,html-keyboard-response,199,720235,0.0-15.0-1.2,59703,List1A,white,man,,,,null,,,,
null,are kissing each other,,html-keyboard-response,200,722237,0.0-15.0-2.2,59703,List1A,white,man,,,,null,,,,
4599,,,survey-text,201,726838,0.0-15.0-3.2,59703,List1A,white,man,,,,,"{""Q0"":""Kate and Mike""}","<img src=""stim_listA/kiss2.gif""</stim_listA>",are kissing each other,
null,"<div style=""font-size:60px;"">+</div>",,html-keyboard-response,202,727345,0.0-15.0-0.3,59703,List1A,white,man,,,,null,,,,
null,"<img src=""stim_listA/talk1.gif""</stim_listA>",,html-keyboard-response,203,729364,0.0-15.0-1.3,59703,List1A,white,man,,,,null,,,,
null,is talking to,,html-keyboard-response,204,731368,0.0-15.0-2.3,59703,List1A,white,man,,,,null,,,,
4239,,,survey-text,205,735610,0.0-15.0-3.3,59703,List1A,white,man,,,,,"{""Q0"":""Fred and Kate""}","<img src=""stim_listA/talk1.gif""</stim_listA>",is talking to,
null,"<div style=""font-size:60px;"">+</div>",,html-keyboard-response,206,736117,0.0-15.0-0.4,59703,List1A,white,man,,,,null,,,,
null,"<img src=""stim_listA/dance4.gif""</stim_listA>",,html-keyboard-response,207,738130,0.0-15.0-1.4,59703,List1A,white,man,,,,null,,,,
null,are dancing with each other,,html-keyboard-response,208,740135,0.0-15.0-2.4,59703,List1A,white,man,,,,null,,,,
5082,,,survey-text,209,745219,0.0-15.0-3.4,59703,List1A,white,man,,,,,"{""Q0"":""Ruth and Dave""}","<img src=""stim_listA/dance4.gif""</stim_listA>",are dancing with each other,
null,"<div style=""font-size:60px;"">+</div>",,html-keyboard-response,210,745730,0.0-15.0-0.5,59703,List1A,white,man,,,,null,,,,
null,"<img src=""stim_listA/hug5.gif""</stim_listA>",,html-keyboard-response,211,747734,0.0-15.0-1.5,59703,List1A,white,man,,,,null,,,,
null,is hugging,,html-keyboard-response,212,749735,0.0-15.0-2.5,59703,List1A,white,man,,,,null,,,,
4488,,,survey-text,213,754224,0.0-15.0-3.5,59703,List1A,white,man,,,,,"{""Q0"":""Fred and Luke""}","<img src=""stim_listA/hug5.gif""</stim_listA>",is hugging,
null,"<div style=""font-size:60px;"">+</div>",,html-keyboard-response,214,754757,0.0-15.0-0.6,59703,List1A,white,man,,,,null,,,,
null,"<img src=""stim_listA/touch8.gif""</stim_listA>",,html-keyboard-response,215,756760,0.0-15.0-1.6,59703,List1A,white,man,,,,null,,,,
null,are touching each other,,html-keyboard-response,216,758762,0.0-15.0-2.6,59703,List1A,white,man,,,,null,,,,
4632,,,survey-text,217,763395,0.0-15.0-3.6,59703,List1A,white,man,,,,,"{""Q0"":""Ruth and BEth""}","<img src=""stim_listA/touch8.gif""</stim_listA>",are touching each other,
null,"<div style=""font-size:60px;"">+</div>",,html-keyboard-response,218,763899,0.0-15.0-0.7,59703,List1A,white,man,,,,null,,,,
null,"<img src=""stim_listA/talk2.gif""</stim_listA>",,html-keyboard-response,219,765904,0.0-15.0-1.7,59703,List1A,white,man,,,,null,,,,
null,are talking to each other,,html-keyboard-response,220,767945,0.0-15.0-2.7,59703,List1A,white,man,,,,null,,,,
8323,,,survey-text,221,776268,0.0-15.0-3.7,59703,List1A,white,man,,,,,"{""Q0"":""Beth and Mike""}","<img src=""stim_listA/talk2.gif""</stim_listA>",are talking to each other,
null,"<div style=""font-size:60px;"">+</div>",,html-keyboard-response,222,776773,0.0-15.0-0.8,59703,List1A,white,man,,,,null,,,,
null,"<img src=""stim_listA/touch2.gif""</stim_listA>",,html-keyboard-response,223,778776,0.0-15.0-1.8,59703,List1A,white,man,,,,null,,,,
null,are touching each other,,html-keyboard-response,224,780780,0.0-15.0-2.8,59703,List1A,white,man,,,,null,,,,
8064,,,survey-text,225,788844,0.0-15.0-3.8,59703,List1A,white,man,,,,,"{""Q0"":""Fred and Beth""}","<img src=""stim_listA/touch2.gif""</stim_listA>",are touching each other,
null,"<div style=""font-size:60px;"">+</div>",,html-keyboard-response,226,789349,0.0-15.0-0.9,59703,List1A,white,man,,,,null,,,,
null,"<img src=""stim_listA/touch6.gif""</stim_listA>",,html-keyboard-response,227,791388,0.0-15.0-1.9,59703,List1A,white,man,,,,null,,,,
null,are touching each other,,html-keyboard-response,228,793395,0.0-15.0-2.9,59703,List1A,white,man,,,,null,,,,
8823,,,survey-text,229,802220,0.0-15.0-3.9,59703,List1A,white,man,,,,,"{""Q0"":""Fred and Luke""}","<img src=""stim_listA/touch6.gif""</stim_listA>",are touching each other,
null,"<div style=""font-size:60px;"">+</div>",,html-keyboard-response,230,802724,0.0-15.0-0.10,59703,List1A,white,man,,,,null,,,,
null,"<img src=""stim_listA/hug4.gif""</stim_listA>",,html-keyboard-response,231,804744,0.0-15.0-1.10,59703,List1A,white,man,,,,null,,,,
null,are hugging each other,,html-keyboard-response,232,806765,0.0-15.0-2.10,59703,List1A,white,man,,,,null,,,,
2421,,,survey-text,233,809188,0.0-15.0-3.10,59703,List1A,white,man,,,,,"{""Q0"":""""}","<img src=""stim_listA/hug4.gif""</stim_listA>",are hugging each other,
null,"<div style=""font-size:60px;"">+</div>",,html-keyboard-response,234,809699,0.0-15.0-0.11,59703,List1A,white,man,,,,null,,,,
null,"<img src=""stim_listA/meet7.gif""</stim_listA>",,html-keyboard-response,235,811746,0.0-15.0-1.11,59703,List1A,white,man,,,,null,,,,
null,is meeting,,html-keyboard-response,236,813761,0.0-15.0-2.11,59703,List1A,white,man,,,,null,,,,
8951,,,survey-text,237,822714,0.0-15.0-3.11,59703,List1A,white,man,,,,,"{""Q0"":""Kate and Jane""}","<img src=""stim_listA/meet7.gif""</stim_listA>",is meeting,
null,"<div style=""font-size:60px;"">+</div>",,html-keyboard-response,238,823219,0.0-15.0-0.12,59703,List1A,white,man,,,,null,,,,
null,"<img src=""stim_listA/touch4.gif""</stim_listA>",,html-keyboard-response,239,825224,0.0-15.0-1.12,59703,List1A,white,man,,,,null,,,,
null,are touching each other,,html-keyboard-response,240,827245,0.0-15.0-2.12,59703,List1A,white,man,,,,null,,,,
11531,,,survey-text,241,838777,0.0-15.0-3.12,59703,List1A,white,man,,,,,"{""Q0"":""Ruth and Luke""}","<img src=""stim_listA/touch4.gif""</stim_listA>",are touching each other,
null,"<div style=""font-size:60px;"">+</div>",,html-keyboard-response,242,839282,0.0-15.0-0.13,59703,List1A,white,man,,,,null,,,,
null,"<img src=""stim_listA/fight1.gif""</stim_listA>",,html-keyboard-response,243,841285,0.0-15.0-1.13,59703,List1A,white,man,,,,null,,,,
null,is fighting,,html-keyboard-response,244,843289,0.0-15.0-2.13,59703,List1A,white,man,,,,null,,,,
7061,,,survey-text,245,850352,0.0-15.0-3.13,59703,List1A,white,man,,,,,"{""Q0"":""Mike and Kate""}","<img src=""stim_listA/fight1.gif""</stim_listA>",is fighting,
null,"<div style=""font-size:60px;"">+</div>",,html-keyboard-response,246,850857,0.0-15.0-0.14,59703,List1A,white,man,,,,null,,,,
null,"<img src=""stim_listA/fight5.gif""</stim_listA>",,html-keyboard-response,247,852864,0.0-15.0-1.14,59703,List1A,white,man,,,,null,,,,
null,is fighting,,html-keyboard-response,248,854868,0.0-15.0-2.14,59703,List1A,white,man,,,,null,,,,
7115,,,survey-text,249,861985,0.0-15.0-3.14,59703,List1A,white,man,,,,,"{""Q0"":""Mike and Dave""}","<img src=""stim_listA/fight5.gif""</stim_listA>",is fighting,
null,"<div style=""font-size:60px;"">+</div>",,html-keyboard-response,250,862490,0.0-15.0-0.15,59703,List1A,white,man,,,,null,,,,
null,"<img src=""stim_listA/marry2.gif""</stim_listA>",,html-keyboard-response,251,864495,0.0-15.0-1.15,59703,List1A,white,man,,,,null,,,,
null,are marrying each other,,html-keyboard-response,252,866497,0.0-15.0-2.15,59703,List1A,white,man,,,,null,,,,
8157,,,survey-text,253,874657,0.0-15.0-3.15,59703,List1A,white,man,,,,,"{""Q0"":""Kate and Fred""}","<img src=""stim_listA/marry2.gif""</stim_listA>",are marrying each other,
null,"<div style=""font-size:60px;"">+</div>",,html-keyboard-response,254,875160,0.0-15.0-0.16,59703,List1A,white,man,,,,null,,,,
null,"<img src=""stim_listA/shout4.gif""</stim_listA>",,html-keyboard-response,255,877165,0.0-15.0-1.16,59703,List1A,white,man,,,,null,,,,
null,are shouting at each other,,html-keyboard-response,256,879167,0.0-15.0-2.16,59703,List1A,white,man,,,,null,,,,
7591,,,survey-text,257,886759,0.0-15.0-3.16,59703,List1A,white,man,,,,,"{""Q0"":""Jane and Dave""}","<img src=""stim_listA/shout4.gif""</stim_listA>",are shouting at each other,
null,"<div style=""font-size:60px;"">+</div>",,html-keyboard-response,258,887309,0.0-15.0-0.17,59703,List1A,white,man,,,,null,,,,
null,"<img src=""stim_listA/touch1.gif""</stim_listA>",,html-keyboard-response,259,889318,0.0-15.0-1.17,59703,List1A,white,man,,,,null,,,,
null,is touching,,html-keyboard-response,260,891320,0.0-15.0-2.17,59703,List1A,white,man,,,,null,,,,
6897,,,survey-text,261,898218,0.0-15.0-3.17,59703,List1A,white,man,,,,,"{""Q0"":""Kate and Mike""}","<img src=""stim_listA/touch1.gif""</stim_listA>",is touching,
null,"<div style=""font-size:60px;"">+</div>",,html-keyboard-response,262,898720,0.0-15.0-0.18,59703,List1A,white,man,,,,null,,,,
null,"<img src=""stim_listA/dance1.gif""</stim_listA>",,html-keyboard-response,263,900725,0.0-15.0-1.18,59703,List1A,white,man,,,,null,,,,
null,is dancing with,,html-keyboard-response,264,902727,0.0-15.0-2.18,59703,List1A,white,man,,,,null,,,,
8079,,,survey-text,265,910808,0.0-15.0-3.18,59703,List1A,white,man,,,,,"{""Q0"":""Fred and Kate""}","<img src=""stim_listA/dance1.gif""</stim_listA>",is dancing with,
null,"<div style=""font-size:60px;"">+</div>",,html-keyboard-response,266,911311,0.0-15.0-0.19,59703,List1A,white,man,,,,null,,,,
null,"<img src=""stim_listA/meet8.gif""</stim_listA>",,html-keyboard-response,267,913316,0.0-15.0-1.19,59703,List1A,white,man,,,,null,,,,
null,are meeting each other,,html-keyboard-response,268,915362,0.0-15.0-2.19,59703,List1A,white,man,,,,null,,,,
8724,,,survey-text,269,924087,0.0-15.0-3.19,59703,List1A,white,man,,,,,"{""Q0"":""Ruth and Beth""}","<img src=""stim_listA/meet8.gif""</stim_listA>",are meeting each other,
2957,"<img src='img/portrait_matrix_list1.JPG' style='width:900px;height:500px;''></img><p>If you have memorised all the portraits and names and are ready to start, press Continue.</p><p><strong>Please note: Your memory of these faces will be tested 4 times during this experiment.</strong></p>",0,html-button-response,270,927047,0.0-16.0-0.0,59703,List1A,white,man,,,,,,,,
1519,"<img src=""portrait/BM2.jpg""style=""width:400px;height:400px;""></img>",5,html-button-response,271,929595,0.0-16.0-1.0,59703,List1A,white,man,,TRUE,5,,,,,
null,CORRECT,,html-keyboard-response,272,931098,0.0-16.0-2.0-0.0,59703,List1A,white,man,,,,null,,,,
2726,"<img src=""portrait/BW2.jpg""style=""width:400px;height:400px;""></img>",2,html-button-response,273,933827,0.0-16.0-4.0,59703,List1A,white,man,,TRUE,2,,,,,
null,CORRECT,,html-keyboard-response,274,935335,0.0-16.0-5.0-0.0,59703,List1A,white,man,,,,null,,,,
1576,"<img src=""portrait/WM1.jpg""style=""width:400px;height:400px;""></img>",6,html-button-response,275,936913,0.0-16.0-7.0,59703,List1A,white,man,,TRUE,6,,,,,
null,CORRECT,,html-keyboard-response,276,938424,0.0-16.0-8.0-0.0,59703,List1A,white,man,,,,null,,,,
1515,"<img src=""portrait/WW2.jpg""style=""width:400px;height:400px;""></img>",3,html-button-response,277,939941,0.0-16.0-10.0,59703,List1A,white,man,,TRUE,3,,,,,
null,CORRECT,,html-keyboard-response,278,941457,0.0-16.0-11.0-0.0,59703,List1A,white,man,,,,null,,,,
1238,"<img src=""portrait/WM2.jpg""style=""width:400px;height:400px;""></img>",7,html-button-response,279,942697,0.0-16.0-13.0,59703,List1A,white,man,,TRUE,7,,,,,
null,CORRECT,,html-keyboard-response,280,944208,0.0-16.0-14.0-0.0,59703,List1A,white,man,,,,null,,,,
1660,"<img src=""portrait/BM1.jpg""style=""width:400px;height:400px;""></img>",4,html-button-response,281,945870,0.0-16.0-16.0,59703,List1A,white,man,,TRUE,4,,,,,
null,CORRECT,,html-keyboard-response,282,947376,0.0-16.0-17.0-0.0,59703,List1A,white,man,,,,null,,,,
1666,"<img src=""portrait/WW1.jpg""style=""width:400px;height:400px;""></img>",1,html-button-response,283,949044,0.0-16.0-19.0,59703,List1A,white,man,,TRUE,1,,,,,
null,CORRECT,,html-keyboard-response,284,950551,0.0-16.0-20.0-0.0,59703,List1A,white,man,,,,null,,,,
955,"<img src=""portrait/BW1.jpg""style=""width:400px;height:400px;""></img>",0,html-button-response,285,951509,0.0-16.0-22.0,59703,List1A,white,man,,TRUE,0,,,,,
null,CORRECT,,html-keyboard-response,286,953076,0.0-16.0-23.0-0.0,59703,List1A,white,man,,,,null,,,,
2100,<p>You got 8 out of 8 right first time. Press Continue.</p>,0,html-button-response,287,955177,0.0-16.0-25.0,59703,List1A,white,man,,,,,,,,
null,"<div style=""font-size:60px;"">+</div>",,html-keyboard-response,288,956683,0.0-17.0-0.0,59703,List1A,white,man,,,,null,,,,
null,"<img src=""stim_listA/marry7.gif""</stim_listA>",,html-keyboard-response,289,958686,0.0-17.0-1.0,59703,List1A,white,man,,,,null,,,,
null,is marrying,,html-keyboard-response,290,960689,0.0-17.0-2.0,59703,List1A,white,man,,,,null,,,,
9739,,,survey-text,291,970430,0.0-17.0-3.0,59703,List1A,white,man,,,,,"{""Q0"":""Kate and Ruth""}","<img src=""stim_listA/marry7.gif""</stim_listA>",is marrying,
null,"<div style=""font-size:60px;"">+</div>",,html-keyboard-response,292,970934,0.0-17.0-0.1,59703,List1A,white,man,,,,null,,,,
null,"<img src=""stim_listA/kiss5.gif""</stim_listA>",,html-keyboard-response,293,972939,0.0-17.0-1.1,59703,List1A,white,man,,,,null,,,,
null,is kissing,,html-keyboard-response,294,974943,0.0-17.0-2.1,59703,List1A,white,man,,,,null,,,,
8220,,,survey-text,295,983163,0.0-17.0-3.1,59703,List1A,white,man,,,,,"{""Q0"":""Fred and Luke""}","<img src=""stim_listA/kiss5.gif""</stim_listA>",is kissing,
null,"<div style=""font-size:60px;"">+</div>",,html-keyboard-response,296,983667,0.0-17.0-0.2,59703,List1A,white,man,,,,null,,,,
null,"<img src=""stim_listA/shout1.gif""</stim_listA>",,html-keyboard-response,297,985684,0.0-17.0-1.2,59703,List1A,white,man,,,,null,,,,
null,is shouting at,,html-keyboard-response,298,987686,0.0-17.0-2.2,59703,List1A,white,man,,,,null,,,,
6406,,,survey-text,299,994094,0.0-17.0-3.2,59703,List1A,white,man,,,,,"{""Q0"":""Fred and beth""}","<img src=""stim_listA/shout1.gif""</stim_listA>",is shouting at,
null,"<div style=""font-size:60px;"">+</div>",,html-keyboard-response,300,994597,0.0-17.0-0.3,59703,List1A,white,man,,,,null,,,,
null,"<img src=""stim_listA/fight4.gif""</stim_listA>",,html-keyboard-response,301,996601,0.0-17.0-1.3,59703,List1A,white,man,,,,null,,,,
null,are fighting each other,,html-keyboard-response,302,998605,0.0-17.0-2.3,59703,List1A,white,man,,,,null,,,,
6260,,,survey-text,303,1004867,0.0-17.0-3.3,59703,List1A,white,man,,,,,"{""Q0"":""Luke and ruth""}","<img src=""stim_listA/fight4.gif""</stim_listA>",are fighting each other,
null,"<div style=""font-size:60px;"">+</div>",,html-keyboard-response,304,1005370,0.0-17.0-0.4,59703,List1A,white,man,,,,null,,,,
null,"<img src=""stim_listA/talk6.gif""</stim_listA>",,html-keyboard-response,305,1007373,0.0-17.0-1.4,59703,List1A,white,man,,,,null,,,,
null,are talking to each other,,html-keyboard-response,306,1009376,0.0-17.0-2.4,59703,List1A,white,man,,,,null,,,,
8965,,,survey-text,307,1018342,0.0-17.0-3.4,59703,List1A,white,man,,,,,"{""Q0"":""luke and mike""}","<img src=""stim_listA/talk6.gif""</stim_listA>",are talking to each other,
null,"<div style=""font-size:60px;"">+</div>",,html-keyboard-response,308,1018847,0.0-17.0-0.5,59703,List1A,white,man,,,,null,,,,
null,"<img src=""stim_listA/kiss1.gif""</stim_listA>",,html-keyboard-response,309,1020851,0.0-17.0-1.5,59703,List1A,white,man,,,,null,,,,
null,is kissing,,html-keyboard-response,310,1022854,0.0-17.0-2.5,59703,List1A,white,man,,,,null,,,,
6894,,,survey-text,311,1029750,0.0-17.0-3.5,59703,List1A,white,man,,,,,"{""Q0"":""fred and beth""}","<img src=""stim_listA/kiss1.gif""</stim_listA>",is kissing,
null,"<div style=""font-size:60px;"">+</div>",,html-keyboard-response,312,1030253,0.0-17.0-0.6,59703,List1A,white,man,,,,null,,,,
null,"<img src=""stim_listA/meet6.gif""</stim_listA>",,html-keyboard-response,313,1032257,0.0-17.0-1.6,59703,List1A,white,man,,,,null,,,,
null,are meeting each other,,html-keyboard-response,314,1034258,0.0-17.0-2.6,59703,List1A,white,man,,,,null,,,,
8341,,,survey-text,315,1042601,0.0-17.0-3.6,59703,List1A,white,man,,,,,"{""Q0"":""fred and luke""}","<img src=""stim_listA/meet6.gif""</stim_listA>",are meeting each other,
null,"<div style=""font-size:60px;"">+</div>",,html-keyboard-response,316,1043108,0.0-17.0-0.7,59703,List1A,white,man,,,,null,,,,
null,"<img src=""stim_listA/fight7.gif""</stim_listA>",,html-keyboard-response,317,1045113,0.0-17.0-1.7,59703,List1A,white,man,,,,null,,,,
null,is fighting,,html-keyboard-response,318,1047148,0.0-17.0-2.7,59703,List1A,white,man,,,,null,,,,
8623,,,survey-text,319,1055773,0.0-17.0-3.7,59703,List1A,white,man,,,,,"{""Q0"":""kate and jane""}","<img src=""stim_listA/fight7.gif""</stim_listA>",is fighting,
null,"<div style=""font-size:60px;"">+</div>",,html-keyboard-response,320,1056299,0.0-17.0-0.8,59703,List1A,white,man,,,,null,,,,
null,"<img src=""stim_listA/dance8.gif""</stim_listA>",,html-keyboard-response,321,1058301,0.0-17.0-1.8,59703,List1A,white,man,,,,null,,,,
null,are dancing with each other,,html-keyboard-response,322,1060304,0.0-17.0-2.8,59703,List1A,white,man,,,,null,,,,
7014,,,survey-text,323,1067320,0.0-17.0-3.8,59703,List1A,white,man,,,,,"{""Q0"":""kate and ruth""}","<img src=""stim_listA/dance8.gif""</stim_listA>",are dancing with each other,
null,"<div style=""font-size:60px;"">+</div>",,html-keyboard-response,324,1067824,0.0-17.0-0.9,59703,List1A,white,man,,,,null,,,,
null,"<img src=""stim_listA/fight2.gif""</stim_listA>",,html-keyboard-response,325,1069865,0.0-17.0-1.9,59703,List1A,white,man,,,,null,,,,
null,are fighting each other,,html-keyboard-response,326,1071869,0.0-17.0-2.9,59703,List1A,white,man,,,,null,,,,
6934,,,survey-text,327,1078807,0.0-17.0-3.9,59703,List1A,white,man,,,,,"{""Q0"":""fred and beth""}","<img src=""stim_listA/fight2.gif""</stim_listA>",are fighting each other,
null,"<div style=""font-size:60px;"">+</div>",,html-keyboard-response,328,1079314,0.0-17.0-0.10,59703,List1A,white,man,,,,null,,,,
null,"<img src=""stim_listA/hug6.gif""</stim_listA>",,html-keyboard-response,329,1081349,0.0-17.0-1.10,59703,List1A,white,man,,,,null,,,,
null,are hugging each other,,html-keyboard-response,330,1083374,0.0-17.0-2.10,59703,List1A,white,man,,,,null,,,,
9900,,,survey-text,331,1093274,0.0-17.0-3.10,59703,List1A,white,man,,,,,"{""Q0"":""dave and mike""}","<img src=""stim_listA/hug6.gif""</stim_listA>",are hugging each other,
null,"<div style=""font-size:60px;"">+</div>",,html-keyboard-response,332,1093778,0.0-17.0-0.11,59703,List1A,white,man,,,,null,,,,
null,"<img src=""stim_listA/shout2.gif""</stim_listA>",,html-keyboard-response,333,1095783,0.0-17.0-1.11,59703,List1A,white,man,,,,null,,,,
null,are shouting at each other,,html-keyboard-response,334,1097784,0.0-17.0-2.11,59703,List1A,white,man,,,,null,,,,
7270,,,survey-text,335,1105055,0.0-17.0-3.11,59703,List1A,white,man,,,,,"{""Q0"":""kate and mike""}","<img src=""stim_listA/shout2.gif""</stim_listA>",are shouting at each other,
null,"<div style=""font-size:60px;"">+</div>",,html-keyboard-response,336,1105578,0.0-17.0-0.12,59703,List1A,white,man,,,,null,,,,
null,"<img src=""stim_listA/touch7.gif""</stim_listA>",,html-keyboard-response,337,1107623,0.0-17.0-1.12,59703,List1A,white,man,,,,null,,,,
null,is touching,,html-keyboard-response,338,1109628,0.0-17.0-2.12,59703,List1A,white,man,,,,null,,,,
8931,,,survey-text,339,1118561,0.0-17.0-3.12,59703,List1A,white,man,,,,,"{""Q0"":""kate and jane""}","<img src=""stim_listA/touch7.gif""</stim_listA>",is touching,
null,"<div style=""font-size:60px;"">+</div>",,html-keyboard-response,340,1119066,0.0-17.0-0.13,59703,List1A,white,man,,,,null,,,,
null,"<img src=""stim_listA/argue5.gif""</stim_listA>",,html-keyboard-response,341,1121071,0.0-17.0-1.13,59703,List1A,white,man,,,,null,,,,
null,is arguing with,,html-keyboard-response,342,1123076,0.0-17.0-2.13,59703,List1A,white,man,,,,null,,,,
7636,,,survey-text,343,1130713,0.0-17.0-3.13,59703,List1A,white,man,,,,,"{""Q0"":""mike and luke""}","<img src=""stim_listA/argue5.gif""</stim_listA>",is arguing with,
null,"<div style=""font-size:60px;"">+</div>",,html-keyboard-response,344,1131229,0.0-17.0-0.14,59703,List1A,white,man,,,,null,,,,
null,"<img src=""stim_listA/shout8.gif""</stim_listA>",,html-keyboard-response,345,1133246,0.0-17.0-1.14,59703,List1A,white,man,,,,null,,,,
null,are shouting at each other,,html-keyboard-response,346,1135250,0.0-17.0-2.14,59703,List1A,white,man,,,,null,,,,
8877,,,survey-text,347,1144129,0.0-17.0-3.14,59703,List1A,white,man,,,,,"{""Q0"":""kate and jane""}","<img src=""stim_listA/shout8.gif""</stim_listA>",are shouting at each other,
null,"<div style=""font-size:60px;"">+</div>",,html-keyboard-response,348,1144632,0.0-17.0-0.15,59703,List1A,white,man,,,,null,,,,
null,"<img src=""stim_listA/marry1.gif""</stim_listA>",,html-keyboard-response,349,1146637,0.0-17.0-1.15,59703,List1A,white,man,,,,null,,,,
null,is marrying,,html-keyboard-response,350,1148640,0.0-17.0-2.15,59703,List1A,white,man,,,,null,,,,
7279,,,survey-text,351,1155920,0.0-17.0-3.15,59703,List1A,white,man,,,,,"{""Q0"":""mike and beth""}","<img src=""stim_listA/marry1.gif""</stim_listA>",is marrying,
null,"<div style=""font-size:60px;"">+</div>",,html-keyboard-response,352,1156426,0.0-17.0-0.16,59703,List1A,white,man,,,,null,,,,
null,"<img src=""stim_listA/talk3.gif""</stim_listA>",,html-keyboard-response,353,1158444,0.0-17.0-1.16,59703,List1A,white,man,,,,null,,,,
null,is talking to,,html-keyboard-response,354,1160448,0.0-17.0-2.16,59703,List1A,white,man,,,,null,,,,
8308,,,survey-text,355,1168756,0.0-17.0-3.16,59703,List1A,white,man,,,,,"{""Q0"":""jane and luke""}","<img src=""stim_listA/talk3.gif""</stim_listA>",is talking to,
null,"<div style=""font-size:60px;"">+</div>",,html-keyboard-response,356,1169296,0.0-17.0-0.17,59703,List1A,white,man,,,,null,,,,
null,"<img src=""stim_listA/meet1.gif""</stim_listA>",,html-keyboard-response,357,1171338,0.0-17.0-1.17,59703,List1A,white,man,,,,null,,,,
null,is meeting,,html-keyboard-response,358,1173342,0.0-17.0-2.17,59703,List1A,white,man,,,,null,,,,
7116,,,survey-text,359,1180460,0.0-17.0-3.17,59703,List1A,white,man,,,,,"{""Q0"":""kate and mike""}","<img src=""stim_listA/meet1.gif""</stim_listA>",is meeting,
null,"<div style=""font-size:60px;"">+</div>",,html-keyboard-response,360,1180965,0.0-17.0-0.18,59703,List1A,white,man,,,,null,,,,
null,"<img src=""stim_listA/meet3.gif""</stim_listA>",,html-keyboard-response,361,1182970,0.0-17.0-1.18,59703,List1A,white,man,,,,null,,,,
null,is meeting,,html-keyboard-response,362,1184973,0.0-17.0-2.18,59703,List1A,white,man,,,,null,,,,
7690,,,survey-text,363,1192665,0.0-17.0-3.18,59703,List1A,white,man,,,,,"{""Q0"":""jane and dave""}","<img src=""stim_listA/meet3.gif""</stim_listA>",is meeting,
null,"<div style=""font-size:60px;"">+</div>",,html-keyboard-response,364,1193171,0.0-17.0-0.19,59703,List1A,white,man,,,,null,,,,
null,"<img src=""stim_listA/marry8.gif""</stim_listA>",,html-keyboard-response,365,1195177,0.0-17.0-1.19,59703,List1A,white,man,,,,null,,,,
null,are marrying each other,,html-keyboard-response,366,1197180,0.0-17.0-2.19,59703,List1A,white,man,,,,null,,,,
7304,,,survey-text,367,1204485,0.0-17.0-3.19,59703,List1A,white,man,,,,,"{""Q0"":""jane and beth""}","<img src=""stim_listA/marry8.gif""</stim_listA>",are marrying each other,
38532,"<img src='img/portrait_matrix_list1.JPG' style='width:900px;height:500px;''></img><p>If you have memorised all the portraits and names and are ready to start, press Continue.</p><p><strong>Please note: Your memory of these faces will be tested 4 times during this experiment.</strong></p>",0,html-button-response,368,1243020,0.0-18.0-0.0,59703,List1A,white,man,,,,,,,,
5730,"<img src=""portrait/BW2.jpg""style=""width:400px;height:400px;""></img>",2,html-button-response,369,1249773,0.0-18.0-1.0,59703,List1A,white,man,,TRUE,2,,,,,
null,CORRECT,,html-keyboard-response,370,1251280,0.0-18.0-2.0-0.0,59703,List1A,white,man,,,,null,,,,
2498,"<img src=""portrait/WW1.jpg""style=""width:400px;height:400px;""></img>",1,html-button-response,371,1253780,0.0-18.0-4.0,59703,List1A,white,man,,TRUE,1,,,,,
null,CORRECT,,html-keyboard-response,372,1255286,0.0-18.0-5.0-0.0,59703,List1A,white,man,,,,null,,,,
3885,"<img src=""portrait/WW2.jpg""style=""width:400px;height:400px;""></img>",3,html-button-response,373,1259173,0.0-18.0-7.0,59703,List1A,white,man,,TRUE,3,,,,,
null,CORRECT,,html-keyboard-response,374,1260680,0.0-18.0-8.0-0.0,59703,List1A,white,man,,,,null,,,,
2164,"<img src=""portrait/BM2.jpg""style=""width:400px;height:400px;""></img>",5,html-button-response,375,1262847,0.0-18.0-10.0,59703,List1A,white,man,,TRUE,5,,,,,
null,CORRECT,,html-keyboard-response,376,1264352,0.0-18.0-11.0-0.0,59703,List1A,white,man,,,,null,,,,
2216,"<img src=""portrait/WM1.jpg""style=""width:400px;height:400px;""></img>",6,html-button-response,377,1266570,0.0-18.0-13.0,59703,List1A,white,man,,TRUE,6,,,,,
null,CORRECT,,html-keyboard-response,378,1268077,0.0-18.0-14.0-0.0,59703,List1A,white,man,,,,null,,,,
2459,"<img src=""portrait/BM1.jpg""style=""width:400px;height:400px;""></img>",4,html-button-response,379,1270538,0.0-18.0-16.0,59703,List1A,white,man,,TRUE,4,,,,,
null,CORRECT,,html-keyboard-response,380,1272052,0.0-18.0-17.0-0.0,59703,List1A,white,man,,,,null,,,,
1840,"<img src=""portrait/WM2.jpg""style=""width:400px;height:400px;""></img>",7,html-button-response,381,1273896,0.0-18.0-19.0,59703,List1A,white,man,,TRUE,7,,,,,
null,CORRECT,,html-keyboard-response,382,1275403,0.0-18.0-20.0-0.0,59703,List1A,white,man,,,,null,,,,
810,"<img src=""portrait/BW1.jpg""style=""width:400px;height:400px;""></img>",0,html-button-response,383,1276214,0.0-18.0-22.0,59703,List1A,white,man,,TRUE,0,,,,,
null,CORRECT,,html-keyboard-response,384,1277745,0.0-18.0-23.0-0.0,59703,List1A,white,man,,,,null,,,,
8194,<p>You got 8 out of 8 right first time. Press Continue.</p>,0,html-button-response,385,1285942,0.0-18.0-25.0,59703,List1A,white,man,,,,,,,,
null,"<div style=""font-size:60px;"">+</div>",,html-keyboard-response,386,1287457,0.0-19.0-0.0,59703,List1A,white,man,,,,null,,,,
null,"<img src=""stim_listA/shout3.gif""</stim_listA>",,html-keyboard-response,387,1289462,0.0-19.0-1.0,59703,List1A,white,man,,,,null,,,,
null,is shouting at,,html-keyboard-response,388,1291465,0.0-19.0-2.0,59703,List1A,white,man,,,,null,,,,
14407,,,survey-text,389,1305874,0.0-19.0-3.0,59703,List1A,white,man,,,,,"{""Q0"":""ruth and luke""}","<img src=""stim_listA/shout3.gif""</stim_listA>",is shouting at,
null,"<div style=""font-size:60px;"">+</div>",,html-keyboard-response,390,1306379,0.0-19.0-0.1,59703,List1A,white,man,,,,null,,,,
null,"<img src=""stim_listA/kiss8.gif""</stim_listA>",,html-keyboard-response,391,1308385,0.0-19.0-1.1,59703,List1A,white,man,,,,null,,,,
null,are kissing each other,,html-keyboard-response,392,1310401,0.0-19.0-2.1,59703,List1A,white,man,,,,null,,,,
8990,,,survey-text,393,1319392,0.0-19.0-3.1,59703,List1A,white,man,,,,,"{""Q0"":""jane and kate""}","<img src=""stim_listA/kiss8.gif""</stim_listA>",are kissing each other,
null,"<div style=""font-size:60px;"">+</div>",,html-keyboard-response,394,1319896,0.0-19.0-0.2,59703,List1A,white,man,,,,null,,,,
null,"<img src=""stim_listA/argue2.gif""</stim_listA>",,html-keyboard-response,395,1321899,0.0-19.0-1.2,59703,List1A,white,man,,,,null,,,,
null,are arguing with each other,,html-keyboard-response,396,1323904,0.0-19.0-2.2,59703,List1A,white,man,,,,null,,,,
10242,,,survey-text,397,1334148,0.0-19.0-3.2,59703,List1A,white,man,,,,,"{""Q0"":""kate and fred""}","<img src=""stim_listA/argue2.gif""</stim_listA>",are arguing with each other,
null,"<div style=""font-size:60px;"">+</div>",,html-keyboard-response,398,1334650,0.0-19.0-0.3,59703,List1A,white,man,,,,null,,,,
null,"<img src=""stim_listA/meet4.gif""</stim_listA>",,html-keyboard-response,399,1336654,0.0-19.0-1.3,59703,List1A,white,man,,,,null,,,,
null,are meeting each other,,html-keyboard-response,400,1338659,0.0-19.0-2.3,59703,List1A,white,man,,,,null,,,,
8564,,,survey-text,401,1347224,0.0-19.0-3.3,59703,List1A,white,man,,,,,"{""Q0"":""ruth and luke""}","<img src=""stim_listA/meet4.gif""</stim_listA>",are meeting each other,
null,"<div style=""font-size:60px;"">+</div>",,html-keyboard-response,402,1347742,0.0-19.0-0.4,59703,List1A,white,man,,,,null,,,,
null,"<img src=""stim_listA/fight8.gif""</stim_listA>",,html-keyboard-response,403,1349754,0.0-19.0-1.4,59703,List1A,white,man,,,,null,,,,
null,are fighting each other,,html-keyboard-response,404,1351758,0.0-19.0-2.4,59703,List1A,white,man,,,,null,,,,
7271,,,survey-text,405,1359030,0.0-19.0-3.4,59703,List1A,white,man,,,,,"{""Q0"":""ruth and beth""}","<img src=""stim_listA/fight8.gif""</stim_listA>",are fighting each other,
null,"<div style=""font-size:60px;"">+</div>",,html-keyboard-response,406,1359536,0.0-19.0-0.5,59703,List1A,white,man,,,,null,,,,
null,"<img src=""stim_listA/hug3.gif""</stim_listA>",,html-keyboard-response,407,1361541,0.0-19.0-1.5,59703,List1A,white,man,,,,null,,,,
null,is hugging,,html-keyboard-response,408,1363546,0.0-19.0-2.5,59703,List1A,white,man,,,,null,,,,
8817,,,survey-text,409,1372364,0.0-19.0-3.5,59703,List1A,white,man,,,,,"{""Q0"":""ruth and luke""}","<img src=""stim_listA/hug3.gif""</stim_listA>",is hugging,
null,"<div style=""font-size:60px;"">+</div>",,html-keyboard-response,410,1372867,0.0-19.0-0.6,59703,List1A,white,man,,,,null,,,,
null,"<img src=""stim_listA/fight3.gif""</stim_listA>",,html-keyboard-response,411,1374874,0.0-19.0-1.6,59703,List1A,white,man,,,,null,,,,
null,is fighting,,html-keyboard-response,412,1376890,0.0-19.0-2.6,59703,List1A,white,man,,,,null,,,,
8739,,,survey-text,413,1385631,0.0-19.0-3.6,59703,List1A,white,man,,,,,"{""Q0"":""dave and jane""}","<img src=""stim_listA/fight3.gif""</stim_listA>",is fighting,
null,"<div style=""font-size:60px;"">+</div>",,html-keyboard-response,414,1386137,0.0-19.0-0.7,59703,List1A,white,man,,,,null,,,,
null,"<img src=""stim_listA/argue6.gif""</stim_listA>",,html-keyboard-response,415,1388143,0.0-19.0-1.7,59703,List1A,white,man,,,,null,,,,
null,are arguing with each other,,html-keyboard-response,416,1390147,0.0-19.0-2.7,59703,List1A,white,man,,,,null,,,,
8096,,,survey-text,417,1398245,0.0-19.0-3.7,59703,List1A,white,man,,,,,"{""Q0"":""dave and fred""}","<img src=""stim_listA/argue6.gif""</stim_listA>",are arguing with each other,
null,"<div style=""font-size:60px;"">+</div>",,html-keyboard-response,418,1398747,0.0-19.0-0.8,59703,List1A,white,man,,,,null,,,,
null,"<img src=""stim_listA/argue7.gif""</stim_listA>",,html-keyboard-response,419,1400751,0.0-19.0-1.8,59703,List1A,white,man,,,,null,,,,
null,is arguing with,,html-keyboard-response,420,1402755,0.0-19.0-2.8,59703,List1A,white,man,,,,null,,,,
9234,,,survey-text,421,1411991,0.0-19.0-3.8,59703,List1A,white,man,,,,,"{""Q0"":""kate and ruth""}","<img src=""stim_listA/argue7.gif""</stim_listA>",is arguing with,
null,"<div style=""font-size:60px;"">+</div>",,html-keyboard-response,422,1412501,0.0-19.0-0.9,59703,List1A,white,man,,,,null,,,,
null,"<img src=""stim_listA/meet2.gif""</stim_listA>",,html-keyboard-response,423,1414504,0.0-19.0-1.9,59703,List1A,white,man,,,,null,,,,
null,are meeting each other,,html-keyboard-response,424,1416506,0.0-19.0-2.9,59703,List1A,white,man,,,,null,,,,
8691,,,survey-text,425,1425199,0.0-19.0-3.9,59703,List1A,white,man,,,,,"{""Q0"":""beth and fred""}","<img src=""stim_listA/meet2.gif""</stim_listA>",are meeting each other,
null,"<div style=""font-size:60px;"">+</div>",,html-keyboard-response,426,1425704,0.0-19.0-0.10,59703,List1A,white,man,,,,null,,,,
null,"<img src=""stim_listA/marry4.gif""</stim_listA>",,html-keyboard-response,427,1427710,0.0-19.0-1.10,59703,List1A,white,man,,,,null,,,,
null,are marrying each other,,html-keyboard-response,428,1429714,0.0-19.0-2.10,59703,List1A,white,man,,,,null,,,,
8536,,,survey-text,429,1438251,0.0-19.0-3.10,59703,List1A,white,man,,,,,"{""Q0"":""jane and luke""}","<img src=""stim_listA/marry4.gif""</stim_listA>",are marrying each other,
null,"<div style=""font-size:60px;"">+</div>",,html-keyboard-response,430,1438757,0.0-19.0-0.11,59703,List1A,white,man,,,,null,,,,
null,"<img src=""stim_listA/touch5.gif""</stim_listA>",,html-keyboard-response,431,1440761,0.0-19.0-1.11,59703,List1A,white,man,,,,null,,,,
null,is touching,,html-keyboard-response,432,1442764,0.0-19.0-2.11,59703,List1A,white,man,,,,null,,,,
8899,,,survey-text,433,1451664,0.0-19.0-3.11,59703,List1A,white,man,,,,,"{""Q0"":""dave and mike""}","<img src=""stim_listA/touch5.gif""</stim_listA>",is touching,
null,"<div style=""font-size:60px;"">+</div>",,html-keyboard-response,434,1452198,0.0-19.0-0.12,59703,List1A,white,man,,,,null,,,,
null,"<img src=""stim_listA/dance2.gif""</stim_listA>",,html-keyboard-response,435,1454215,0.0-19.0-1.12,59703,List1A,white,man,,,,null,,,,
null,are dancing with each other,,html-keyboard-response,436,1456217,0.0-19.0-2.12,59703,List1A,white,man,,,,null,,,,
7222,,,survey-text,437,1463441,0.0-19.0-3.12,59703,List1A,white,man,,,,,"{""Q0"":""mike and beth""}","<img src=""stim_listA/dance2.gif""</stim_listA>",are dancing with each other,
null,"<div style=""font-size:60px;"">+</div>",,html-keyboard-response,438,1463945,0.0-19.0-0.13,59703,List1A,white,man,,,,null,,,,
null,"<img src=""stim_listA/argue3.gif""</stim_listA>",,html-keyboard-response,439,1465949,0.0-19.0-1.13,59703,List1A,white,man,,,,null,,,,
null,is arguing with,,html-keyboard-response,440,1467951,0.0-19.0-2.13,59703,List1A,white,man,,,,null,,,,
7974,,,survey-text,441,1475927,0.0-19.0-3.13,59703,List1A,white,man,,,,,"{""Q0"":""ruth and dave""}","<img src=""stim_listA/argue3.gif""</stim_listA>",is arguing with,
null,"<div style=""font-size:60px;"">+</div>",,html-keyboard-response,442,1476430,0.0-19.0-0.14,59703,List1A,white,man,,,,null,,,,
null,"<img src=""stim_listA/argue4.gif""</stim_listA>",,html-keyboard-response,443,1478434,0.0-19.0-1.14,59703,List1A,white,man,,,,null,,,,
null,are arguing with each other,,html-keyboard-response,444,1480437,0.0-19.0-2.14,59703,List1A,white,man,,,,null,,,,
9225,,,survey-text,445,1489663,0.0-19.0-3.14,59703,List1A,white,man,,,,,"{""Q0"":""jane and luke""}","<img src=""stim_listA/argue4.gif""</stim_listA>",are arguing with each other,
null,"<div style=""font-size:60px;"">+</div>",,html-keyboard-response,446,1490168,0.0-19.0-0.15,59703,List1A,white,man,,,,null,,,,
null,"<img src=""stim_listA/marry3.gif""</stim_listA>",,html-keyboard-response,447,1492172,0.0-19.0-1.15,59703,List1A,white,man,,,,null,,,,
null,is marrying,,html-keyboard-response,448,1494175,0.0-19.0-2.15,59703,List1A,white,man,,,,null,,,,
12542,,,survey-text,449,1506720,0.0-19.0-3.15,59703,List1A,white,man,,,,,"{""Q0"":""ruth and dave""}","<img src=""stim_listA/marry3.gif""</stim_listA>",is marrying,
null,"<div style=""font-size:60px;"">+</div>",,html-keyboard-response,450,1507225,0.0-19.0-0.16,59703,List1A,white,man,,,,null,,,,
null,"<img src=""stim_listA/touch3.gif""</stim_listA>",,html-keyboard-response,451,1509231,0.0-19.0-1.16,59703,List1A,white,man,,,,null,,,,
null,is touching,,html-keyboard-response,452,1511235,0.0-19.0-2.16,59703,List1A,white,man,,,,null,,,,
10697,,,survey-text,453,1521934,0.0-19.0-3.16,59703,List1A,white,man,,,,,"{""Q0"":""jane and dave""}","<img src=""stim_listA/touch3.gif""</stim_listA>",is touching,
null,"<div style=""font-size:60px;"">+</div>",,html-keyboard-response,454,1522437,0.0-19.0-0.17,59703,List1A,white,man,,,,null,,,,
null,"<img src=""stim_listA/talk7.gif""</stim_listA>",,html-keyboard-response,455,1524440,0.0-19.0-1.17,59703,List1A,white,man,,,,null,,,,
null,is talking to,,html-keyboard-response,456,1526445,0.0-19.0-2.17,59703,List1A,white,man,,,,null,,,,
9428,,,survey-text,457,1535875,0.0-19.0-3.17,59703,List1A,white,man,,,,,"{""Q0"":""jane and beth""}","<img src=""stim_listA/talk7.gif""</stim_listA>",is talking to,
null,"<div style=""font-size:60px;"">+</div>",,html-keyboard-response,458,1536422,0.0-19.0-0.18,59703,List1A,white,man,,,,null,,,,
null,"<img src=""stim_listA/dance3.gif""</stim_listA>",,html-keyboard-response,459,1538426,0.0-19.0-1.18,59703,List1A,white,man,,,,null,,,,
null,is dancing with,,html-keyboard-response,460,1540430,0.0-19.0-2.18,59703,List1A,white,man,,,,null,,,,
8789,,,survey-text,461,1549221,0.0-19.0-3.18,59703,List1A,white,man,,,,,"{""Q0"":""luke and jane""}","<img src=""stim_listA/dance3.gif""</stim_listA>",is dancing with,
null,"<div style=""font-size:60px;"">+</div>",,html-keyboard-response,462,1549723,0.0-19.0-0.19,59703,List1A,white,man,,,,null,,,,
null,"<img src=""stim_listA/argue8.gif""</stim_listA>",,html-keyboard-response,463,1551730,0.0-19.0-1.19,59703,List1A,white,man,,,,null,,,,
null,are arguing with each other,,html-keyboard-response,464,1553740,0.0-19.0-2.19,59703,List1A,white,man,,,,null,,,,
7712,,,survey-text,465,1561453,0.0-19.0-3.19,59703,List1A,white,man,,,,,"{""Q0"":""jane and beth""}","<img src=""stim_listA/argue8.gif""</stim_listA>",are arguing with each other,
2420,<p>Thank you for completing that task.</p><p>The final part of this session is a short questionnaire.</p><p>Press Continue.</p>,0,html-button-response,466,1563877,0.0-20.0,59703,List1A,white,man,,,,,,,,
37981,,,survey-text,467,1602864,0.0-21.0,59703,List1A,white,man,,,,,"{""Q0"":""28"",""Q1"":""English"",""Q2"":""English"",""Q3"":""United Kingdom"",""Q4"":""white"",""Q5"":""Male""}",,,demographics
127432,,,survey-likert,468,1730305,0.0-22.0,59703,List1A,white,man,,,,,"{""Q0"":4,""Q1"":3,""Q2"":5,""Q3"":5,""Q4"":4,""Q5"":4,""Q6"":4,""Q7"":2,""Q8"":3,""Q9"":3,""Q10"":2,""Q11"":2,""Q12"":4,""Q13"":4}",,,likert_race
88746,,,survey-likert,469,1819123,0.0-23.0,59703,List1A,white,man,,,,,"{""Q0"":5,""Q1"":4,""Q2"":5,""Q3"":5,""Q4"":4,""Q5"":5,""Q6"":5,""Q7"":2,""Q8"":3,""Q9"":4,""Q10"":4,""Q11"":4,""Q12"":5,""Q13"":5}",,,likert_gender
19939,,,survey-text,470,1839095,0.0-24.0,59703,List1A,white,man,,,,,"{""Q0"":""ccc""}",,,worker_id
31229,,,external-html,471,1870580,0.0-25.0,59703,List1A,white,man,debrief.html,,,,,,,
