rt,stimulus,button_pressed,trial_type,trial_index,time_elapsed,internal_node_id,subject,list,ppt_race,ppt_gender,url,first_guess,correct,key_press,responses,image_type,phrase_type,test_part
2240,Welcome to the experiment. Press Continue to begin.,0,html-button-response,0,2243,0.0-0.0,60505,List1A,white,man,,,,,,,,
3788,,,external-html,1,7155,0.0-1.0,60505,List1A,white,man,consent.html,,,,,,,
1759,"<p>On the next page, you will see portraits of 8 people and their names.</p><p>Your first task is to take a few minutes to memorise the names of these people.</p><p>You will have to recall their names during the rest of the experiment, so it is</p><p>essential that you try to memorise these people and their names as best as you can.</p><br><p><strong>You will then be tested on your memory of these names and portraits.</strong></p><br><p>The experiment will start after you have completed this memory test.</p><br><p>Ready?</p>",0,html-button-response,2,8914,0.0-2.0,60505,List1A,white,man,,,,,,,,
92553,"<img src='img/portrait_matrix_list1.JPG' style='width:900px;height:500px;''></img><p>If you have memorised all the portraits and names and are ready to start, press Continue.</p><p><strong>Please note: Your memory of these faces will be tested 4 times during this experiment.</strong></p>",0,html-button-response,3,102468,0.0-3.0-0.0,60505,List1A,white,man,,,,,,,,
6206,"<img src=""portrait/WM1.jpg""style=""width:400px;height:400px;""></img>",6,html-button-response,4,109676,0.0-3.0-1.0,60505,List1A,white,man,,TRUE,6,,,,,
null,CORRECT,,html-keyboard-response,5,111183,0.0-3.0-2.0-0.0,60505,List1A,white,man,,,,null,,,,
5987,"<img src=""portrait/WW2.jpg""style=""width:400px;height:400px;""></img>",3,html-button-response,6,117172,0.0-3.0-4.0,60505,List1A,white,man,,TRUE,3,,,,,
null,CORRECT,,html-keyboard-response,7,118681,0.0-3.0-5.0-0.0,60505,List1A,white,man,,,,null,,,,
4778,"<img src=""portrait/WW1.jpg""style=""width:400px;height:400px;""></img>",1,html-button-response,8,123459,0.0-3.0-7.0,60505,List1A,white,man,,TRUE,1,,,,,
null,CORRECT,,html-keyboard-response,9,124962,0.0-3.0-8.0-0.0,60505,List1A,white,man,,,,null,,,,
12672,"<img src=""portrait/BW1.jpg""style=""width:400px;height:400px;""></img>",0,html-button-response,10,137635,0.0-3.0-10.0,60505,List1A,white,man,,TRUE,0,,,,,
null,CORRECT,,html-keyboard-response,11,139140,0.0-3.0-11.0-0.0,60505,List1A,white,man,,,,null,,,,
6727,"<img src=""portrait/BM1.jpg""style=""width:400px;height:400px;""></img>",4,html-button-response,12,145868,0.0-3.0-13.0,60505,List1A,white,man,,TRUE,4,,,,,
null,CORRECT,,html-keyboard-response,13,147386,0.0-3.0-14.0-0.0,60505,List1A,white,man,,,,null,,,,
3114,"<img src=""portrait/BW2.jpg""style=""width:400px;height:400px;""></img>",2,html-button-response,14,150500,0.0-3.0-16.0,60505,List1A,white,man,,TRUE,2,,,,,
null,CORRECT,,html-keyboard-response,15,152016,0.0-3.0-17.0-0.0,60505,List1A,white,man,,,,null,,,,
3836,"<img src=""portrait/BM2.jpg""style=""width:400px;height:400px;""></img>",5,html-button-response,16,155852,0.0-3.0-19.0,60505,List1A,white,man,,TRUE,5,,,,,
null,CORRECT,,html-keyboard-response,17,157372,0.0-3.0-20.0-0.0,60505,List1A,white,man,,,,null,,,,
5128,"<img src=""portrait/WM2.jpg""style=""width:400px;height:400px;""></img>",7,html-button-response,18,162501,0.0-3.0-22.0,60505,List1A,white,man,,TRUE,7,,,,,
null,CORRECT,,html-keyboard-response,19,164025,0.0-3.0-23.0-0.0,60505,List1A,white,man,,,,null,,,,
1363,<p>You got 8 out of 8 right first time. Press Continue.</p>,0,html-button-response,20,165389,0.0-3.0-25.0,60505,List1A,white,man,,,,,,,,
29104,"<p>In this experiment, you will view photographs of the people from the memory game interacting.</p><p>By using the <strong>exact</strong> phrase given <i>after</i> the photograph appears and recalling the correct names of the people in the photographs, form a sentence describing the interaction. You do not need to capitalise names.</p><p>Type your answer in the space provided. Please complete every sentence before moving onto the next trial.</p><p>You will only have a few seconds to memorise each given photograph and phrase before you can respond, so try your best to focus.</p><p>An example is given below. Press 'Continue' when you are ready.</p><img src='img/speaking_example_v2.jpg' style='width:800px;height:460px;''></img>",0,html-button-response,21,195501,0.0-4.0,60505,List1A,white,man,,,,,,,,
4585,"<p>Before the experiment starts, you will watch two example trials. Press 'Continue'.</p>",0,html-button-response,22,201093,0.0-5.0,60505,List1A,white,man,,,,,,,,
null,<img src='img/speaking_WW.gif'></img>,,html-keyboard-response,23,204104,0.0-6.0,60505,List1A,white,man,,,,null,,,,
null,<p>is speaking to</p>,,html-keyboard-response,24,206104,0.0-7.0,60505,List1A,white,man,,,,null,,,,
4308,<p><b>Answer:</b> kate is speaking to beth</p>,0,html-button-response,25,210412,0.0-8.0,60505,List1A,white,man,,,,,,,,
null,<img src='img/pointing_BM.gif'></img>,,html-keyboard-response,26,213414,0.0-9.0,60505,List1A,white,man,,,,null,,,,
null,<p>are pointing at each other</p>,,html-keyboard-response,27,215428,0.0-10.0,60505,List1A,white,man,,,,null,,,,
4248,<p><b>Answer:</b> luke and dave are pointing at each other</p>,0,html-button-response,28,219677,0.0-11.0,60505,List1A,white,man,,,,,,,,
8227,"<p>Ready to start the experiment?</p><br><p><strong>Remember to describe the picture using a full sentence,</strong></p><p><strong>that combines the names of the people with the given phrase.</strong></p><p><strong>If you do not do this correctly you will not be paid.</strong></p><p><strong> You do not need to capitalise names or use punctuation.</strong></p><br><p>Press 'Continue' to begin.</p>",0,html-button-response,29,228905,0.0-12.0,60505,List1A,white,man,,,,,,,,
null,"<div style=""font-size:60px;"">+</div>",,html-keyboard-response,30,230408,0.0-13.0-0.0,60505,List1A,white,man,,,,null,,,,
null,"<img src=""stim_listA/touch1.gif""</stim_listA>",,html-keyboard-response,31,232416,0.0-13.0-1.0,60505,List1A,white,man,,,,null,,,,
null,is touching,,html-keyboard-response,32,234417,0.0-13.0-2.0,60505,List1A,white,man,,,,null,,,,
15190,,,survey-text,33,249609,0.0-13.0-3.0,60505,List1A,white,man,,,,,"{""Q0"":""Mike is touching Beth""}","<img src=""stim_listA/touch1.gif""</stim_listA>",is touching,
null,"<div style=""font-size:60px;"">+</div>",,html-keyboard-response,34,250120,0.0-13.0-0.1,60505,List1A,white,man,,,,null,,,,
null,"<img src=""stim_listA/marry3.gif""</stim_listA>",,html-keyboard-response,35,252121,0.0-13.0-1.1,60505,List1A,white,man,,,,null,,,,
null,is marrying,,html-keyboard-response,36,254135,0.0-13.0-2.1,60505,List1A,white,man,,,,null,,,,
14945,,,survey-text,37,269081,0.0-13.0-3.1,60505,List1A,white,man,,,,,"{""Q0"":""Dave is marrying Ruth""}","<img src=""stim_listA/marry3.gif""</stim_listA>",is marrying,
null,"<div style=""font-size:60px;"">+</div>",,html-keyboard-response,38,269582,0.0-13.0-0.2,60505,List1A,white,man,,,,null,,,,
null,"<img src=""stim_listA/kiss3.gif""</stim_listA>",,html-keyboard-response,39,271583,0.0-13.0-1.2,60505,List1A,white,man,,,,null,,,,
null,is kissing,,html-keyboard-response,40,273584,0.0-13.0-2.2,60505,List1A,white,man,,,,null,,,,
23017,,,survey-text,41,296602,0.0-13.0-3.2,60505,List1A,white,man,,,,,"{""Q0"":""Luke is kissing Ruth""}","<img src=""stim_listA/kiss3.gif""</stim_listA>",is kissing,
null,"<div style=""font-size:60px;"">+</div>",,html-keyboard-response,42,297104,0.0-13.0-0.3,60505,List1A,white,man,,,,null,,,,
null,"<img src=""stim_listA/meet1.gif""</stim_listA>",,html-keyboard-response,43,299120,0.0-13.0-1.3,60505,List1A,white,man,,,,null,,,,
null,is meeting,,html-keyboard-response,44,301122,0.0-13.0-2.3,60505,List1A,white,man,,,,null,,,,
20376,,,survey-text,45,321498,0.0-13.0-3.3,60505,List1A,white,man,,,,,"{""Q0"":""Mike is shaking Beth""}","<img src=""stim_listA/meet1.gif""</stim_listA>",is meeting,
null,"<div style=""font-size:60px;"">+</div>",,html-keyboard-response,46,321999,0.0-13.0-0.4,60505,List1A,white,man,,,,null,,,,
null,"<img src=""stim_listA/marry1.gif""</stim_listA>",,html-keyboard-response,47,324001,0.0-13.0-1.4,60505,List1A,white,man,,,,null,,,,
null,is marrying,,html-keyboard-response,48,326002,0.0-13.0-2.4,60505,List1A,white,man,,,,null,,,,
10968,,,survey-text,49,336970,0.0-13.0-3.4,60505,List1A,white,man,,,,,"{""Q0"":""Mike is marrying Beth""}","<img src=""stim_listA/marry1.gif""</stim_listA>",is marrying,
null,"<div style=""font-size:60px;"">+</div>",,html-keyboard-response,50,337479,0.0-13.0-0.5,60505,List1A,white,man,,,,null,,,,
null,"<img src=""stim_listA/touch2.gif""</stim_listA>",,html-keyboard-response,51,339489,0.0-13.0-1.5,60505,List1A,white,man,,,,null,,,,
null,are touching each other,,html-keyboard-response,52,341505,0.0-13.0-2.5,60505,List1A,white,man,,,,null,,,,
13646,,,survey-text,53,355151,0.0-13.0-3.5,60505,List1A,white,man,,,,,"{""Q0"":""Fred and Beth are touching each other""}","<img src=""stim_listA/touch2.gif""</stim_listA>",are touching each other,
null,"<div style=""font-size:60px;"">+</div>",,html-keyboard-response,54,355652,0.0-13.0-0.6,60505,List1A,white,man,,,,null,,,,
null,"<img src=""stim_listA/shout8.gif""</stim_listA>",,html-keyboard-response,55,357655,0.0-13.0-1.6,60505,List1A,white,man,,,,null,,,,
null,are shouting at each other,,html-keyboard-response,56,359663,0.0-13.0-2.6,60505,List1A,white,man,,,,null,,,,
9951,,,survey-text,57,369615,0.0-13.0-3.6,60505,List1A,white,man,,,,,"{""Q0"":""Jane and Kate are shouting at each other""}","<img src=""stim_listA/shout8.gif""</stim_listA>",are shouting at each other,
null,"<div style=""font-size:60px;"">+</div>",,html-keyboard-response,58,370127,0.0-13.0-0.7,60505,List1A,white,man,,,,null,,,,
null,"<img src=""stim_listA/argue4.gif""</stim_listA>",,html-keyboard-response,59,372129,0.0-13.0-1.7,60505,List1A,white,man,,,,null,,,,
null,are arguing with each other,,html-keyboard-response,60,374130,0.0-13.0-2.7,60505,List1A,white,man,,,,null,,,,
16716,,,survey-text,61,390847,0.0-13.0-3.7,60505,List1A,white,man,,,,,"{""Q0"":""Luke and Jane are shouting at each other ""}","<img src=""stim_listA/argue4.gif""</stim_listA>",are arguing with each other,
null,"<div style=""font-size:60px;"">+</div>",,html-keyboard-response,62,391348,0.0-13.0-0.8,60505,List1A,white,man,,,,null,,,,
null,"<img src=""stim_listA/argue7.gif""</stim_listA>",,html-keyboard-response,63,393351,0.0-13.0-1.8,60505,List1A,white,man,,,,null,,,,
null,is arguing with,,html-keyboard-response,64,395352,0.0-13.0-2.8,60505,List1A,white,man,,,,null,,,,
13478,,,survey-text,65,408831,0.0-13.0-3.8,60505,List1A,white,man,,,,,"{""Q0"":""Ruth is arguing with Kate""}","<img src=""stim_listA/argue7.gif""</stim_listA>",is arguing with,
null,"<div style=""font-size:60px;"">+</div>",,html-keyboard-response,66,409334,0.0-13.0-0.9,60505,List1A,white,man,,,,null,,,,
null,"<img src=""stim_listA/touch4.gif""</stim_listA>",,html-keyboard-response,67,411336,0.0-13.0-1.9,60505,List1A,white,man,,,,null,,,,
null,are touching each other,,html-keyboard-response,68,413337,0.0-13.0-2.9,60505,List1A,white,man,,,,null,,,,
10557,,,survey-text,69,423895,0.0-13.0-3.9,60505,List1A,white,man,,,,,"{""Q0"":""Ruth and Luke are touching each other""}","<img src=""stim_listA/touch4.gif""</stim_listA>",are touching each other,
null,"<div style=""font-size:60px;"">+</div>",,html-keyboard-response,70,424396,0.0-13.0-0.10,60505,List1A,white,man,,,,null,,,,
null,"<img src=""stim_listA/meet4.gif""</stim_listA>",,html-keyboard-response,71,426404,0.0-13.0-1.10,60505,List1A,white,man,,,,null,,,,
null,are meeting each other,,html-keyboard-response,72,428405,0.0-13.0-2.10,60505,List1A,white,man,,,,null,,,,
7008,,,survey-text,73,435414,0.0-13.0-3.10,60505,List1A,white,man,,,,,"{""Q0"":""Luke and Ruth are meeting each other""}","<img src=""stim_listA/meet4.gif""</stim_listA>",are meeting each other,
null,"<div style=""font-size:60px;"">+</div>",,html-keyboard-response,74,435915,0.0-13.0-0.11,60505,List1A,white,man,,,,null,,,,
null,"<img src=""stim_listA/kiss7.gif""</stim_listA>",,html-keyboard-response,75,437921,0.0-13.0-1.11,60505,List1A,white,man,,,,null,,,,
null,is kissing,,html-keyboard-response,76,439921,0.0-13.0-2.11,60505,List1A,white,man,,,,null,,,,
7028,,,survey-text,77,446950,0.0-13.0-3.11,60505,List1A,white,man,,,,,"{""Q0"":""Ruth is kissing Beth""}","<img src=""stim_listA/kiss7.gif""</stim_listA>",is kissing,
null,"<div style=""font-size:60px;"">+</div>",,html-keyboard-response,78,447451,0.0-13.0-0.12,60505,List1A,white,man,,,,null,,,,
null,"<img src=""stim_listA/talk3.gif""</stim_listA>",,html-keyboard-response,79,449460,0.0-13.0-1.12,60505,List1A,white,man,,,,null,,,,
null,is talking to,,html-keyboard-response,80,451462,0.0-13.0-2.12,60505,List1A,white,man,,,,null,,,,
6584,,,survey-text,81,458047,0.0-13.0-3.12,60505,List1A,white,man,,,,,"{""Q0"":""Jane and Luke are arguing""}","<img src=""stim_listA/talk3.gif""</stim_listA>",is talking to,
null,"<div style=""font-size:60px;"">+</div>",,html-keyboard-response,82,458548,0.0-13.0-0.13,60505,List1A,white,man,,,,null,,,,
null,"<img src=""stim_listA/dance1.gif""</stim_listA>",,html-keyboard-response,83,460563,0.0-13.0-1.13,60505,List1A,white,man,,,,null,,,,
null,is dancing with,,html-keyboard-response,84,462564,0.0-13.0-2.13,60505,List1A,white,man,,,,null,,,,
8460,,,survey-text,85,471026,0.0-13.0-3.13,60505,List1A,white,man,,,,,"{""Q0"":""Fred is dancing with Kate""}","<img src=""stim_listA/dance1.gif""</stim_listA>",is dancing with,
null,"<div style=""font-size:60px;"">+</div>",,html-keyboard-response,86,471537,0.0-13.0-0.14,60505,List1A,white,man,,,,null,,,,
null,"<img src=""stim_listA/marry5.gif""</stim_listA>",,html-keyboard-response,87,473542,0.0-13.0-1.14,60505,List1A,white,man,,,,null,,,,
null,is marrying,,html-keyboard-response,88,475543,0.0-13.0-2.14,60505,List1A,white,man,,,,null,,,,
9602,,,survey-text,89,485146,0.0-13.0-3.14,60505,List1A,white,man,,,,,"{""Q0"":""Mike is marrying Luke""}","<img src=""stim_listA/marry5.gif""</stim_listA>",is marrying,
null,"<div style=""font-size:60px;"">+</div>",,html-keyboard-response,90,485648,0.0-13.0-0.15,60505,List1A,white,man,,,,null,,,,
null,"<img src=""stim_listA/kiss6.gif""</stim_listA>",,html-keyboard-response,91,487663,0.0-13.0-1.15,60505,List1A,white,man,,,,null,,,,
null,are kissing each other,,html-keyboard-response,92,489664,0.0-13.0-2.15,60505,List1A,white,man,,,,null,,,,
12264,,,survey-text,93,501929,0.0-13.0-3.15,60505,List1A,white,man,,,,,"{""Q0"":""Mike and Dave are kissing each other""}","<img src=""stim_listA/kiss6.gif""</stim_listA>",are kissing each other,
null,"<div style=""font-size:60px;"">+</div>",,html-keyboard-response,94,502435,0.0-13.0-0.16,60505,List1A,white,man,,,,null,,,,
null,"<img src=""stim_listA/shout3.gif""</stim_listA>",,html-keyboard-response,95,504436,0.0-13.0-1.16,60505,List1A,white,man,,,,null,,,,
null,is shouting at,,html-keyboard-response,96,506437,0.0-13.0-2.16,60505,List1A,white,man,,,,null,,,,
13148,,,survey-text,97,519585,0.0-13.0-3.16,60505,List1A,white,man,,,,,"{""Q0"":""Ruth is shouting at Luke""}","<img src=""stim_listA/shout3.gif""</stim_listA>",is shouting at,
null,"<div style=""font-size:60px;"">+</div>",,html-keyboard-response,98,520087,0.0-13.0-0.17,60505,List1A,white,man,,,,null,,,,
null,"<img src=""stim_listA/hug5.gif""</stim_listA>",,html-keyboard-response,99,522100,0.0-13.0-1.17,60505,List1A,white,man,,,,null,,,,
null,is hugging,,html-keyboard-response,100,524110,0.0-13.0-2.17,60505,List1A,white,man,,,,null,,,,
7592,,,survey-text,101,531704,0.0-13.0-3.17,60505,List1A,white,man,,,,,"{""Q0"":""Luke is hugging Fred""}","<img src=""stim_listA/hug5.gif""</stim_listA>",is hugging,
null,"<div style=""font-size:60px;"">+</div>",,html-keyboard-response,102,532206,0.0-13.0-0.18,60505,List1A,white,man,,,,null,,,,
null,"<img src=""stim_listA/argue8.gif""</stim_listA>",,html-keyboard-response,103,534215,0.0-13.0-1.18,60505,List1A,white,man,,,,null,,,,
null,are arguing with each other,,html-keyboard-response,104,536218,0.0-13.0-2.18,60505,List1A,white,man,,,,null,,,,
10829,,,survey-text,105,547047,0.0-13.0-3.18,60505,List1A,white,man,,,,,"{""Q0"":""Jane and Beth are arguing with each other""}","<img src=""stim_listA/argue8.gif""</stim_listA>",are arguing with each other,
null,"<div style=""font-size:60px;"">+</div>",,html-keyboard-response,106,547548,0.0-13.0-0.19,60505,List1A,white,man,,,,null,,,,
null,"<img src=""stim_listA/hug7.gif""</stim_listA>",,html-keyboard-response,107,549549,0.0-13.0-1.19,60505,List1A,white,man,,,,null,,,,
null,is hugging,,html-keyboard-response,108,551550,0.0-13.0-2.19,60505,List1A,white,man,,,,null,,,,
7745,,,survey-text,109,559295,0.0-13.0-3.19,60505,List1A,white,man,,,,,"{""Q0"":""Ruth is hugging Beth""}","<img src=""stim_listA/hug7.gif""</stim_listA>",is hugging,
7791,"<img src='img/portrait_matrix_list1.JPG' style='width:900px;height:500px;''></img><p>If you have memorised all the portraits and names and are ready to start, press Continue.</p><p><strong>Please note: Your memory of these faces will be tested 4 times during this experiment.</strong></p>",0,html-button-response,110,567087,0.0-14.0-0.0,60505,List1A,white,man,,,,,,,,
5765,"<img src=""portrait/BM1.jpg""style=""width:400px;height:400px;""></img>",4,html-button-response,111,573855,0.0-14.0-1.0,60505,List1A,white,man,,TRUE,4,,,,,
null,CORRECT,,html-keyboard-response,112,575367,0.0-14.0-2.0-0.0,60505,List1A,white,man,,,,null,,,,
1271,"<img src=""portrait/BW2.jpg""style=""width:400px;height:400px;""></img>",2,html-button-response,113,576639,0.0-14.0-4.0,60505,List1A,white,man,,TRUE,2,,,,,
null,CORRECT,,html-keyboard-response,114,578151,0.0-14.0-5.0-0.0,60505,List1A,white,man,,,,null,,,,
5960,"<img src=""portrait/WW1.jpg""style=""width:400px;height:400px;""></img>",1,html-button-response,115,584111,0.0-14.0-7.0,60505,List1A,white,man,,TRUE,1,,,,,
null,CORRECT,,html-keyboard-response,116,585622,0.0-14.0-8.0-0.0,60505,List1A,white,man,,,,null,,,,
3593,"<img src=""portrait/BM2.jpg""style=""width:400px;height:400px;""></img>",5,html-button-response,117,589215,0.0-14.0-10.0,60505,List1A,white,man,,TRUE,5,,,,,
null,CORRECT,,html-keyboard-response,118,590728,0.0-14.0-11.0-0.0,60505,List1A,white,man,,,,null,,,,
2597,"<img src=""portrait/BW1.jpg""style=""width:400px;height:400px;""></img>",0,html-button-response,119,593326,0.0-14.0-13.0,60505,List1A,white,man,,TRUE,0,,,,,
null,CORRECT,,html-keyboard-response,120,594842,0.0-14.0-14.0-0.0,60505,List1A,white,man,,,,null,,,,
3067,"<img src=""portrait/WW2.jpg""style=""width:400px;height:400px;""></img>",3,html-button-response,121,597910,0.0-14.0-16.0,60505,List1A,white,man,,TRUE,3,,,,,
null,CORRECT,,html-keyboard-response,122,599412,0.0-14.0-17.0-0.0,60505,List1A,white,man,,,,null,,,,
2088,"<img src=""portrait/WM1.jpg""style=""width:400px;height:400px;""></img>",6,html-button-response,123,601502,0.0-14.0-19.0,60505,List1A,white,man,,TRUE,6,,,,,
null,CORRECT,,html-keyboard-response,124,603004,0.0-14.0-20.0-0.0,60505,List1A,white,man,,,,null,,,,
1481,"<img src=""portrait/WM2.jpg""style=""width:400px;height:400px;""></img>",7,html-button-response,125,604486,0.0-14.0-22.0,60505,List1A,white,man,,TRUE,7,,,,,
null,CORRECT,,html-keyboard-response,126,605988,0.0-14.0-23.0-0.0,60505,List1A,white,man,,,,null,,,,
1321,<p>You got 8 out of 8 right first time. Press Continue.</p>,0,html-button-response,127,607310,0.0-14.0-25.0,60505,List1A,white,man,,,,,,,,
null,"<div style=""font-size:60px;"">+</div>",,html-keyboard-response,128,608817,0.0-15.0-0.0,60505,List1A,white,man,,,,null,,,,
null,"<img src=""stim_listA/fight1.gif""</stim_listA>",,html-keyboard-response,129,610826,0.0-15.0-1.0,60505,List1A,white,man,,,,null,,,,
null,is fighting,,html-keyboard-response,130,612826,0.0-15.0-2.0,60505,List1A,white,man,,,,null,,,,
8106,,,survey-text,131,620933,0.0-15.0-3.0,60505,List1A,white,man,,,,,"{""Q0"":""Mike is fighting Kate""}","<img src=""stim_listA/fight1.gif""</stim_listA>",is fighting,
null,"<div style=""font-size:60px;"">+</div>",,html-keyboard-response,132,621434,0.0-15.0-0.1,60505,List1A,white,man,,,,null,,,,
null,"<img src=""stim_listA/argue1.gif""</stim_listA>",,html-keyboard-response,133,623436,0.0-15.0-1.1,60505,List1A,white,man,,,,null,,,,
null,is arguing with,,html-keyboard-response,134,625437,0.0-15.0-2.1,60505,List1A,white,man,,,,null,,,,
6344,,,survey-text,135,631781,0.0-15.0-3.1,60505,List1A,white,man,,,,,"{""Q0"":""Mike is arguing with Beth""}","<img src=""stim_listA/argue1.gif""</stim_listA>",is arguing with,
null,"<div style=""font-size:60px;"">+</div>",,html-keyboard-response,136,632287,0.0-15.0-0.2,60505,List1A,white,man,,,,null,,,,
null,"<img src=""stim_listA/hug8.gif""</stim_listA>",,html-keyboard-response,137,634289,0.0-15.0-1.2,60505,List1A,white,man,,,,null,,,,
null,are hugging each other,,html-keyboard-response,138,636291,0.0-15.0-2.2,60505,List1A,white,man,,,,null,,,,
8434,,,survey-text,139,644725,0.0-15.0-3.2,60505,List1A,white,man,,,,,"{""Q0"":""Jane and Kate are hugging each other""}","<img src=""stim_listA/hug8.gif""</stim_listA>",are hugging each other,
null,"<div style=""font-size:60px;"">+</div>",,html-keyboard-response,140,645227,0.0-15.0-0.3,60505,List1A,white,man,,,,null,,,,
null,"<img src=""stim_listA/meet7.gif""</stim_listA>",,html-keyboard-response,141,647230,0.0-15.0-1.3,60505,List1A,white,man,,,,null,,,,
null,is meeting,,html-keyboard-response,142,649243,0.0-15.0-2.3,60505,List1A,white,man,,,,null,,,,
3754,,,survey-text,143,652998,0.0-15.0-3.3,60505,List1A,white,man,,,,,"{""Q0"":""is meeting""}","<img src=""stim_listA/meet7.gif""</stim_listA>",is meeting,
null,"<div style=""font-size:60px;"">+</div>",,html-keyboard-response,144,653500,0.0-15.0-0.4,60505,List1A,white,man,,,,null,,,,
null,"<img src=""stim_listA/dance2.gif""</stim_listA>",,html-keyboard-response,145,655505,0.0-15.0-1.4,60505,List1A,white,man,,,,null,,,,
null,are dancing with each other,,html-keyboard-response,146,657506,0.0-15.0-2.4,60505,List1A,white,man,,,,null,,,,
9213,,,survey-text,147,666719,0.0-15.0-3.4,60505,List1A,white,man,,,,,"{""Q0"":""Mike and Beth are dancing with each other""}","<img src=""stim_listA/dance2.gif""</stim_listA>",are dancing with each other,
null,"<div style=""font-size:60px;"">+</div>",,html-keyboard-response,148,667224,0.0-15.0-0.5,60505,List1A,white,man,,,,null,,,,
null,"<img src=""stim_listA/dance8.gif""</stim_listA>",,html-keyboard-response,149,669225,0.0-15.0-1.5,60505,List1A,white,man,,,,null,,,,
null,are dancing with each other,,html-keyboard-response,150,671227,0.0-15.0-2.5,60505,List1A,white,man,,,,null,,,,
8716,,,survey-text,151,679943,0.0-15.0-3.5,60505,List1A,white,man,,,,,"{""Q0"":""Ruth and Kate are dancing with each other""}","<img src=""stim_listA/dance8.gif""</stim_listA>",are dancing with each other,
null,"<div style=""font-size:60px;"">+</div>",,html-keyboard-response,152,680444,0.0-15.0-0.6,60505,List1A,white,man,,,,null,,,,
null,"<img src=""stim_listA/hug4.gif""</stim_listA>",,html-keyboard-response,153,682445,0.0-15.0-1.6,60505,List1A,white,man,,,,null,,,,
null,are hugging each other,,html-keyboard-response,154,684457,0.0-15.0-2.6,60505,List1A,white,man,,,,null,,,,
9221,,,survey-text,155,693679,0.0-15.0-3.6,60505,List1A,white,man,,,,,"{""Q0"":""Jane and Dave are hugging each other""}","<img src=""stim_listA/hug4.gif""</stim_listA>",are hugging each other,
null,"<div style=""font-size:60px;"">+</div>",,html-keyboard-response,156,694182,0.0-15.0-0.7,60505,List1A,white,man,,,,null,,,,
null,"<img src=""stim_listA/fight3.gif""</stim_listA>",,html-keyboard-response,157,696183,0.0-15.0-1.7,60505,List1A,white,man,,,,null,,,,
null,is fighting,,html-keyboard-response,158,698186,0.0-15.0-2.7,60505,List1A,white,man,,,,null,,,,
5556,,,survey-text,159,703743,0.0-15.0-3.7,60505,List1A,white,man,,,,,"{""Q0"":""Jane is fighting Dave""}","<img src=""stim_listA/fight3.gif""</stim_listA>",is fighting,
null,"<div style=""font-size:60px;"">+</div>",,html-keyboard-response,160,704245,0.0-15.0-0.8,60505,List1A,white,man,,,,null,,,,
null,"<img src=""stim_listA/dance7.gif""</stim_listA>",,html-keyboard-response,161,706246,0.0-15.0-1.8,60505,List1A,white,man,,,,null,,,,
null,is dancing with,,html-keyboard-response,162,708247,0.0-15.0-2.8,60505,List1A,white,man,,,,null,,,,
7666,,,survey-text,163,715913,0.0-15.0-3.8,60505,List1A,white,man,,,,,"{""Q0"":""Jane is dancing with beth""}","<img src=""stim_listA/dance7.gif""</stim_listA>",is dancing with,
null,"<div style=""font-size:60px;"">+</div>",,html-keyboard-response,164,716417,0.0-15.0-0.9,60505,List1A,white,man,,,,null,,,,
null,"<img src=""stim_listA/marry6.gif""</stim_listA>",,html-keyboard-response,165,718418,0.0-15.0-1.9,60505,List1A,white,man,,,,null,,,,
null,are marrying each other,,html-keyboard-response,166,720419,0.0-15.0-2.9,60505,List1A,white,man,,,,null,,,,
7877,,,survey-text,167,728297,0.0-15.0-3.9,60505,List1A,white,man,,,,,"{""Q0"":""Dave and Fred are marrying each other""}","<img src=""stim_listA/marry6.gif""</stim_listA>",are marrying each other,
null,"<div style=""font-size:60px;"">+</div>",,html-keyboard-response,168,728812,0.0-15.0-0.10,60505,List1A,white,man,,,,null,,,,
null,"<img src=""stim_listA/argue6.gif""</stim_listA>",,html-keyboard-response,169,730815,0.0-15.0-1.10,60505,List1A,white,man,,,,null,,,,
null,are arguing with each other,,html-keyboard-response,170,732816,0.0-15.0-2.10,60505,List1A,white,man,,,,null,,,,
8737,,,survey-text,171,741553,0.0-15.0-3.10,60505,List1A,white,man,,,,,"{""Q0"":""Dave and Fred are arguing with each other""}","<img src=""stim_listA/argue6.gif""</stim_listA>",are arguing with each other,
null,"<div style=""font-size:60px;"">+</div>",,html-keyboard-response,172,742055,0.0-15.0-0.11,60505,List1A,white,man,,,,null,,,,
null,"<img src=""stim_listA/kiss1.gif""</stim_listA>",,html-keyboard-response,173,744059,0.0-15.0-1.11,60505,List1A,white,man,,,,null,,,,
null,is kissing,,html-keyboard-response,174,746062,0.0-15.0-2.11,60505,List1A,white,man,,,,null,,,,
6627,,,survey-text,175,752689,0.0-15.0-3.11,60505,List1A,white,man,,,,,"{""Q0"":""Fred is kissing Beth""}","<img src=""stim_listA/kiss1.gif""</stim_listA>",is kissing,
null,"<div style=""font-size:60px;"">+</div>",,html-keyboard-response,176,753192,0.0-15.0-0.12,60505,List1A,white,man,,,,null,,,,
null,"<img src=""stim_listA/fight8.gif""</stim_listA>",,html-keyboard-response,177,755193,0.0-15.0-1.12,60505,List1A,white,man,,,,null,,,,
null,are fighting each other,,html-keyboard-response,178,757195,0.0-15.0-2.12,60505,List1A,white,man,,,,null,,,,
7805,,,survey-text,179,765001,0.0-15.0-3.12,60505,List1A,white,man,,,,,"{""Q0"":""Ruth and Beth are fighting each other""}","<img src=""stim_listA/fight8.gif""</stim_listA>",are fighting each other,
null,"<div style=""font-size:60px;"">+</div>",,html-keyboard-response,180,765504,0.0-15.0-0.13,60505,List1A,white,man,,,,null,,,,
null,"<img src=""stim_listA/shout6.gif""</stim_listA>",,html-keyboard-response,181,767506,0.0-15.0-1.13,60505,List1A,white,man,,,,null,,,,
null,are shouting at each other,,html-keyboard-response,182,769507,0.0-15.0-2.13,60505,List1A,white,man,,,,null,,,,
9269,,,survey-text,183,778778,0.0-15.0-3.13,60505,List1A,white,man,,,,,"{""Q0"":""Dave and Mike are shouting at each other""}","<img src=""stim_listA/shout6.gif""</stim_listA>",are shouting at each other,
null,"<div style=""font-size:60px;"">+</div>",,html-keyboard-response,184,779278,0.0-15.0-0.14,60505,List1A,white,man,,,,null,,,,
null,"<img src=""stim_listA/fight2.gif""</stim_listA>",,html-keyboard-response,185,781280,0.0-15.0-1.14,60505,List1A,white,man,,,,null,,,,
null,are fighting each other,,html-keyboard-response,186,783281,0.0-15.0-2.14,60505,List1A,white,man,,,,null,,,,
7024,,,survey-text,187,790305,0.0-15.0-3.14,60505,List1A,white,man,,,,,"{""Q0"":""Fred and Beth are fighting each other""}","<img src=""stim_listA/fight2.gif""</stim_listA>",are fighting each other,
null,"<div style=""font-size:60px;"">+</div>",,html-keyboard-response,188,790807,0.0-15.0-0.15,60505,List1A,white,man,,,,null,,,,
null,"<img src=""stim_listA/shout2.gif""</stim_listA>",,html-keyboard-response,189,792810,0.0-15.0-1.15,60505,List1A,white,man,,,,null,,,,
null,are shouting at each other,,html-keyboard-response,190,794810,0.0-15.0-2.15,60505,List1A,white,man,,,,null,,,,
9471,,,survey-text,191,804282,0.0-15.0-3.15,60505,List1A,white,man,,,,,"{""Q0"":""Kate and Mike are shouting at each other""}","<img src=""stim_listA/shout2.gif""</stim_listA>",are shouting at each other,
null,"<div style=""font-size:60px;"">+</div>",,html-keyboard-response,192,804785,0.0-15.0-0.16,60505,List1A,white,man,,,,null,,,,
null,"<img src=""stim_listA/shout1.gif""</stim_listA>",,html-keyboard-response,193,806786,0.0-15.0-1.16,60505,List1A,white,man,,,,null,,,,
null,is shouting at,,html-keyboard-response,194,808787,0.0-15.0-2.16,60505,List1A,white,man,,,,null,,,,
6453,,,survey-text,195,815241,0.0-15.0-3.16,60505,List1A,white,man,,,,,"{""Q0"":""Fred is shouting at Beth""}","<img src=""stim_listA/shout1.gif""</stim_listA>",is shouting at,
null,"<div style=""font-size:60px;"">+</div>",,html-keyboard-response,196,815748,0.0-15.0-0.17,60505,List1A,white,man,,,,null,,,,
null,"<img src=""stim_listA/marry2.gif""</stim_listA>",,html-keyboard-response,197,817755,0.0-15.0-1.17,60505,List1A,white,man,,,,null,,,,
null,are marrying each other,,html-keyboard-response,198,819757,0.0-15.0-2.17,60505,List1A,white,man,,,,null,,,,
7876,,,survey-text,199,827634,0.0-15.0-3.17,60505,List1A,white,man,,,,,"{""Q0"":""Fred and Kate are marrying each other""}","<img src=""stim_listA/marry2.gif""</stim_listA>",are marrying each other,
null,"<div style=""font-size:60px;"">+</div>",,html-keyboard-response,200,828146,0.0-15.0-0.18,60505,List1A,white,man,,,,null,,,,
null,"<img src=""stim_listA/hug1.gif""</stim_listA>",,html-keyboard-response,201,830148,0.0-15.0-1.18,60505,List1A,white,man,,,,null,,,,
null,is hugging,,html-keyboard-response,202,832157,0.0-15.0-2.18,60505,List1A,white,man,,,,null,,,,
7427,,,survey-text,203,839586,0.0-15.0-3.18,60505,List1A,white,man,,,,,"{""Q0"":""Fred is hugging Beth""}","<img src=""stim_listA/hug1.gif""</stim_listA>",is hugging,
null,"<div style=""font-size:60px;"">+</div>",,html-keyboard-response,204,840087,0.0-15.0-0.19,60505,List1A,white,man,,,,null,,,,
null,"<img src=""stim_listA/fight6.gif""</stim_listA>",,html-keyboard-response,205,842089,0.0-15.0-1.19,60505,List1A,white,man,,,,null,,,,
null,are fighting each other,,html-keyboard-response,206,844099,0.0-15.0-2.19,60505,List1A,white,man,,,,null,,,,
8398,,,survey-text,207,852497,0.0-15.0-3.19,60505,List1A,white,man,,,,,"{""Q0"":""Fred and Luke are fighting each other""}","<img src=""stim_listA/fight6.gif""</stim_listA>",are fighting each other,
3439,"<img src='img/portrait_matrix_list1.JPG' style='width:900px;height:500px;''></img><p>If you have memorised all the portraits and names and are ready to start, press Continue.</p><p><strong>Please note: Your memory of these faces will be tested 4 times during this experiment.</strong></p>",0,html-button-response,208,855937,0.0-16.0-0.0,60505,List1A,white,man,,,,,,,,
3356,"<img src=""portrait/WW1.jpg""style=""width:400px;height:400px;""></img>",1,html-button-response,209,860297,0.0-16.0-1.0,60505,List1A,white,man,,TRUE,1,,,,,
null,CORRECT,,html-keyboard-response,210,861808,0.0-16.0-2.0-0.0,60505,List1A,white,man,,,,null,,,,
2072,"<img src=""portrait/WM1.jpg""style=""width:400px;height:400px;""></img>",6,html-button-response,211,863882,0.0-16.0-4.0,60505,List1A,white,man,,TRUE,6,,,,,
null,CORRECT,,html-keyboard-response,212,865396,0.0-16.0-5.0-0.0,60505,List1A,white,man,,,,null,,,,
1212,"<img src=""portrait/WM2.jpg""style=""width:400px;height:400px;""></img>",7,html-button-response,213,866610,0.0-16.0-7.0,60505,List1A,white,man,,TRUE,7,,,,,
null,CORRECT,,html-keyboard-response,214,868112,0.0-16.0-8.0-0.0,60505,List1A,white,man,,,,null,,,,
2112,"<img src=""portrait/BW1.jpg""style=""width:400px;height:400px;""></img>",0,html-button-response,215,870226,0.0-16.0-10.0,60505,List1A,white,man,,TRUE,0,,,,,
null,CORRECT,,html-keyboard-response,216,871736,0.0-16.0-11.0-0.0,60505,List1A,white,man,,,,null,,,,
992,"<img src=""portrait/BW2.jpg""style=""width:400px;height:400px;""></img>",2,html-button-response,217,872730,0.0-16.0-13.0,60505,List1A,white,man,,TRUE,2,,,,,
null,CORRECT,,html-keyboard-response,218,874237,0.0-16.0-14.0-0.0,60505,List1A,white,man,,,,null,,,,
1683,"<img src=""portrait/BM2.jpg""style=""width:400px;height:400px;""></img>",5,html-button-response,219,875922,0.0-16.0-16.0,60505,List1A,white,man,,TRUE,5,,,,,
null,CORRECT,,html-keyboard-response,220,877435,0.0-16.0-17.0-0.0,60505,List1A,white,man,,,,null,,,,
2846,"<img src=""portrait/BM1.jpg""style=""width:400px;height:400px;""></img>",4,html-button-response,221,880282,0.0-16.0-19.0,60505,List1A,white,man,,TRUE,4,,,,,
null,CORRECT,,html-keyboard-response,222,881792,0.0-16.0-20.0-0.0,60505,List1A,white,man,,,,null,,,,
1633,"<img src=""portrait/WW2.jpg""style=""width:400px;height:400px;""></img>",3,html-button-response,223,883426,0.0-16.0-22.0,60505,List1A,white,man,,TRUE,3,,,,,
null,CORRECT,,html-keyboard-response,224,884929,0.0-16.0-23.0-0.0,60505,List1A,white,man,,,,null,,,,
870,<p>You got 8 out of 8 right first time. Press Continue.</p>,0,html-button-response,225,885801,0.0-16.0-25.0,60505,List1A,white,man,,,,,,,,
null,"<div style=""font-size:60px;"">+</div>",,html-keyboard-response,226,887317,0.0-17.0-0.0,60505,List1A,white,man,,,,null,,,,
null,"<img src=""stim_listA/meet8.gif""</stim_listA>",,html-keyboard-response,227,889324,0.0-17.0-1.0,60505,List1A,white,man,,,,null,,,,
null,are meeting each other,,html-keyboard-response,228,891327,0.0-17.0-2.0,60505,List1A,white,man,,,,null,,,,
7360,,,survey-text,229,898688,0.0-17.0-3.0,60505,List1A,white,man,,,,,"{""Q0"":""Ruth and Beth are meeting each other""}","<img src=""stim_listA/meet8.gif""</stim_listA>",are meeting each other,
null,"<div style=""font-size:60px;"">+</div>",,html-keyboard-response,230,899189,0.0-17.0-0.1,60505,List1A,white,man,,,,null,,,,
null,"<img src=""stim_listA/talk8.gif""</stim_listA>",,html-keyboard-response,231,901203,0.0-17.0-1.1,60505,List1A,white,man,,,,null,,,,
null,are talking to each other,,html-keyboard-response,232,903214,0.0-17.0-2.1,60505,List1A,white,man,,,,null,,,,
6970,,,survey-text,233,910184,0.0-17.0-3.1,60505,List1A,white,man,,,,,"{""Q0"":""Ruth and Kate are talking to each other""}","<img src=""stim_listA/talk8.gif""</stim_listA>",are talking to each other,
null,"<div style=""font-size:60px;"">+</div>",,html-keyboard-response,234,910695,0.0-17.0-0.2,60505,List1A,white,man,,,,null,,,,
null,"<img src=""stim_listA/kiss5.gif""</stim_listA>",,html-keyboard-response,235,912705,0.0-17.0-1.2,60505,List1A,white,man,,,,null,,,,
null,is kissing,,html-keyboard-response,236,914706,0.0-17.0-2.2,60505,List1A,white,man,,,,null,,,,
9078,,,survey-text,237,923784,0.0-17.0-3.2,60505,List1A,white,man,,,,,"{""Q0"":""Fred is kissing Luke""}","<img src=""stim_listA/kiss5.gif""</stim_listA>",is kissing,
null,"<div style=""font-size:60px;"">+</div>",,html-keyboard-response,238,924292,0.0-17.0-0.3,60505,List1A,white,man,,,,null,,,,
null,"<img src=""stim_listA/touch8.gif""</stim_listA>",,html-keyboard-response,239,926293,0.0-17.0-1.3,60505,List1A,white,man,,,,null,,,,
null,are touching each other,,html-keyboard-response,240,928294,0.0-17.0-2.3,60505,List1A,white,man,,,,null,,,,
6506,,,survey-text,241,934800,0.0-17.0-3.3,60505,List1A,white,man,,,,,"{""Q0"":""Beth and Ruth are touching each other""}","<img src=""stim_listA/touch8.gif""</stim_listA>",are touching each other,
null,"<div style=""font-size:60px;"">+</div>",,html-keyboard-response,242,935303,0.0-17.0-0.4,60505,List1A,white,man,,,,null,,,,
null,"<img src=""stim_listA/meet6.gif""</stim_listA>",,html-keyboard-response,243,937303,0.0-17.0-1.4,60505,List1A,white,man,,,,null,,,,
null,are meeting each other,,html-keyboard-response,244,939304,0.0-17.0-2.4,60505,List1A,white,man,,,,null,,,,
7879,,,survey-text,245,947184,0.0-17.0-3.4,60505,List1A,white,man,,,,,"{""Q0"":""Fred and Luke are meeting each other""}","<img src=""stim_listA/meet6.gif""</stim_listA>",are meeting each other,
null,"<div style=""font-size:60px;"">+</div>",,html-keyboard-response,246,947695,0.0-17.0-0.5,60505,List1A,white,man,,,,null,,,,
null,"<img src=""stim_listA/fight4.gif""</stim_listA>",,html-keyboard-response,247,949702,0.0-17.0-1.5,60505,List1A,white,man,,,,null,,,,
null,are fighting each other,,html-keyboard-response,248,951703,0.0-17.0-2.5,60505,List1A,white,man,,,,null,,,,
7423,,,survey-text,249,959128,0.0-17.0-3.5,60505,List1A,white,man,,,,,"{""Q0"":""Luke and Ruth are fighting each other""}","<img src=""stim_listA/fight4.gif""</stim_listA>",are fighting each other,
null,"<div style=""font-size:60px;"">+</div>",,html-keyboard-response,250,959629,0.0-17.0-0.6,60505,List1A,white,man,,,,null,,,,
null,"<img src=""stim_listA/marry7.gif""</stim_listA>",,html-keyboard-response,251,961640,0.0-17.0-1.6,60505,List1A,white,man,,,,null,,,,
null,is marrying,,html-keyboard-response,252,963654,0.0-17.0-2.6,60505,List1A,white,man,,,,null,,,,
5480,,,survey-text,253,969135,0.0-17.0-3.6,60505,List1A,white,man,,,,,"{""Q0"":""Ruth is marrying Kate""}","<img src=""stim_listA/marry7.gif""</stim_listA>",is marrying,
null,"<div style=""font-size:60px;"">+</div>",,html-keyboard-response,254,969642,0.0-17.0-0.7,60505,List1A,white,man,,,,null,,,,
null,"<img src=""stim_listA/meet2.gif""</stim_listA>",,html-keyboard-response,255,971645,0.0-17.0-1.7,60505,List1A,white,man,,,,null,,,,
null,are meeting each other,,html-keyboard-response,256,973656,0.0-17.0-2.7,60505,List1A,white,man,,,,null,,,,
6823,,,survey-text,257,980479,0.0-17.0-3.7,60505,List1A,white,man,,,,,"{""Q0"":""Beth and Fred are meeting each other""}","<img src=""stim_listA/meet2.gif""</stim_listA>",are meeting each other,
null,"<div style=""font-size:60px;"">+</div>",,html-keyboard-response,258,980980,0.0-17.0-0.8,60505,List1A,white,man,,,,null,,,,
null,"<img src=""stim_listA/talk2.gif""</stim_listA>",,html-keyboard-response,259,982982,0.0-17.0-1.8,60505,List1A,white,man,,,,null,,,,
null,are talking to each other,,html-keyboard-response,260,984983,0.0-17.0-2.8,60505,List1A,white,man,,,,null,,,,
7527,,,survey-text,261,992512,0.0-17.0-3.8,60505,List1A,white,man,,,,,"{""Q0"":""Kate and Mike are talking to each other""}","<img src=""stim_listA/talk2.gif""</stim_listA>",are talking to each other,
null,"<div style=""font-size:60px;"">+</div>",,html-keyboard-response,262,993018,0.0-17.0-0.9,60505,List1A,white,man,,,,null,,,,
null,"<img src=""stim_listA/kiss2.gif""</stim_listA>",,html-keyboard-response,263,995023,0.0-17.0-1.9,60505,List1A,white,man,,,,null,,,,
null,are kissing each other,,html-keyboard-response,264,997024,0.0-17.0-2.9,60505,List1A,white,man,,,,null,,,,
7870,,,survey-text,265,1004895,0.0-17.0-3.9,60505,List1A,white,man,,,,,"{""Q0"":""Mike and Kate are kissing each other""}","<img src=""stim_listA/kiss2.gif""</stim_listA>",are kissing each other,
null,"<div style=""font-size:60px;"">+</div>",,html-keyboard-response,266,1005402,0.0-17.0-0.10,60505,List1A,white,man,,,,null,,,,
null,"<img src=""stim_listA/marry4.gif""</stim_listA>",,html-keyboard-response,267,1007403,0.0-17.0-1.10,60505,List1A,white,man,,,,null,,,,
null,are marrying each other,,html-keyboard-response,268,1009404,0.0-17.0-2.10,60505,List1A,white,man,,,,null,,,,
7044,,,survey-text,269,1016449,0.0-17.0-3.10,60505,List1A,white,man,,,,,"{""Q0"":""Jane and Luke are marrying each other""}","<img src=""stim_listA/marry4.gif""</stim_listA>",are marrying each other,
null,"<div style=""font-size:60px;"">+</div>",,html-keyboard-response,270,1016950,0.0-17.0-0.11,60505,List1A,white,man,,,,null,,,,
null,"<img src=""stim_listA/talk5.gif""</stim_listA>",,html-keyboard-response,271,1018964,0.0-17.0-1.11,60505,List1A,white,man,,,,null,,,,
null,is talking to,,html-keyboard-response,272,1020965,0.0-17.0-2.11,60505,List1A,white,man,,,,null,,,,
5964,,,survey-text,273,1026929,0.0-17.0-3.11,60505,List1A,white,man,,,,,"{""Q0"":""Dave is talking to Fred""}","<img src=""stim_listA/talk5.gif""</stim_listA>",is talking to,
null,"<div style=""font-size:60px;"">+</div>",,html-keyboard-response,274,1027430,0.0-17.0-0.12,60505,List1A,white,man,,,,null,,,,
null,"<img src=""stim_listA/shout7.gif""</stim_listA>",,html-keyboard-response,275,1029442,0.0-17.0-1.12,60505,List1A,white,man,,,,null,,,,
null,is shouting at,,html-keyboard-response,276,1031442,0.0-17.0-2.12,60505,List1A,white,man,,,,null,,,,
6773,,,survey-text,277,1038217,0.0-17.0-3.12,60505,List1A,white,man,,,,,"{""Q0"":""Ruth is shouting at Beth""}","<img src=""stim_listA/shout7.gif""</stim_listA>",is shouting at,
null,"<div style=""font-size:60px;"">+</div>",,html-keyboard-response,278,1038721,0.0-17.0-0.13,60505,List1A,white,man,,,,null,,,,
null,"<img src=""stim_listA/talk6.gif""</stim_listA>",,html-keyboard-response,279,1040729,0.0-17.0-1.13,60505,List1A,white,man,,,,null,,,,
null,are talking to each other,,html-keyboard-response,280,1042731,0.0-17.0-2.13,60505,List1A,white,man,,,,null,,,,
7125,,,survey-text,281,1049857,0.0-17.0-3.13,60505,List1A,white,man,,,,,"{""Q0"":""Mike and Luke are talking to each other""}","<img src=""stim_listA/talk6.gif""</stim_listA>",are talking to each other,
null,"<div style=""font-size:60px;"">+</div>",,html-keyboard-response,282,1050368,0.0-17.0-0.14,60505,List1A,white,man,,,,null,,,,
null,"<img src=""stim_listA/kiss8.gif""</stim_listA>",,html-keyboard-response,283,1052369,0.0-17.0-1.14,60505,List1A,white,man,,,,null,,,,
null,are kissing each other,,html-keyboard-response,284,1054371,0.0-17.0-2.14,60505,List1A,white,man,,,,null,,,,
6846,,,survey-text,285,1061217,0.0-17.0-3.14,60505,List1A,white,man,,,,,"{""Q0"":""Jane and Kate are kissing each other""}","<img src=""stim_listA/kiss8.gif""</stim_listA>",are kissing each other,
null,"<div style=""font-size:60px;"">+</div>",,html-keyboard-response,286,1061721,0.0-17.0-0.15,60505,List1A,white,man,,,,null,,,,
null,"<img src=""stim_listA/argue3.gif""</stim_listA>",,html-keyboard-response,287,1063724,0.0-17.0-1.15,60505,List1A,white,man,,,,null,,,,
null,is arguing with,,html-keyboard-response,288,1065726,0.0-17.0-2.15,60505,List1A,white,man,,,,null,,,,
5874,,,survey-text,289,1071601,0.0-17.0-3.15,60505,List1A,white,man,,,,,"{""Q0"":""Dave is arguing with Ruth""}","<img src=""stim_listA/argue3.gif""</stim_listA>",is arguing with,
null,"<div style=""font-size:60px;"">+</div>",,html-keyboard-response,290,1072116,0.0-17.0-0.16,60505,List1A,white,man,,,,null,,,,
null,"<img src=""stim_listA/shout4.gif""</stim_listA>",,html-keyboard-response,291,1074134,0.0-17.0-1.16,60505,List1A,white,man,,,,null,,,,
null,are shouting at each other,,html-keyboard-response,292,1076140,0.0-17.0-2.16,60505,List1A,white,man,,,,null,,,,
8170,,,survey-text,293,1084310,0.0-17.0-3.16,60505,List1A,white,man,,,,,"{""Q0"":""Jane and Dave are shouting at each other""}","<img src=""stim_listA/shout4.gif""</stim_listA>",are shouting at each other,
null,"<div style=""font-size:60px;"">+</div>",,html-keyboard-response,294,1084812,0.0-17.0-0.17,60505,List1A,white,man,,,,null,,,,
null,"<img src=""stim_listA/shout5.gif""</stim_listA>",,html-keyboard-response,295,1086818,0.0-17.0-1.17,60505,List1A,white,man,,,,null,,,,
null,is shouting at,,html-keyboard-response,296,1088819,0.0-17.0-2.17,60505,List1A,white,man,,,,null,,,,
8202,,,survey-text,297,1097021,0.0-17.0-3.17,60505,List1A,white,man,,,,,"{""Q0"":""Fred is shouting at Luke""}","<img src=""stim_listA/shout5.gif""</stim_listA>",is shouting at,
null,"<div style=""font-size:60px;"">+</div>",,html-keyboard-response,298,1097533,0.0-17.0-0.18,60505,List1A,white,man,,,,null,,,,
null,"<img src=""stim_listA/hug6.gif""</stim_listA>",,html-keyboard-response,299,1099545,0.0-17.0-1.18,60505,List1A,white,man,,,,null,,,,
null,are hugging each other,,html-keyboard-response,300,1101559,0.0-17.0-2.18,60505,List1A,white,man,,,,null,,,,
8645,,,survey-text,301,1110206,0.0-17.0-3.18,60505,List1A,white,man,,,,,"{""Q0"":""Mike and Dave are hugging each other""}","<img src=""stim_listA/hug6.gif""</stim_listA>",are hugging each other,
null,"<div style=""font-size:60px;"">+</div>",,html-keyboard-response,302,1110715,0.0-17.0-0.19,60505,List1A,white,man,,,,null,,,,
null,"<img src=""stim_listA/argue5.gif""</stim_listA>",,html-keyboard-response,303,1112718,0.0-17.0-1.19,60505,List1A,white,man,,,,null,,,,
null,is arguing with,,html-keyboard-response,304,1114719,0.0-17.0-2.19,60505,List1A,white,man,,,,null,,,,
5150,,,survey-text,305,1119870,0.0-17.0-3.19,60505,List1A,white,man,,,,,"{""Q0"":""Mike is arguing with Luke""}","<img src=""stim_listA/argue5.gif""</stim_listA>",is arguing with,
21152,"<img src='img/portrait_matrix_list1.JPG' style='width:900px;height:500px;''></img><p>If you have memorised all the portraits and names and are ready to start, press Continue.</p><p><strong>Please note: Your memory of these faces will be tested 4 times during this experiment.</strong></p>",0,html-button-response,306,1141023,0.0-18.0-0.0,60505,List1A,white,man,,,,,,,,
4669,"<img src=""portrait/WW1.jpg""style=""width:400px;height:400px;""></img>",1,html-button-response,307,1146695,0.0-18.0-1.0,60505,List1A,white,man,,TRUE,1,,,,,
null,CORRECT,,html-keyboard-response,308,1148206,0.0-18.0-2.0-0.0,60505,List1A,white,man,,,,null,,,,
1351,"<img src=""portrait/WW2.jpg""style=""width:400px;height:400px;""></img>",3,html-button-response,309,1149559,0.0-18.0-4.0,60505,List1A,white,man,,TRUE,3,,,,,
null,CORRECT,,html-keyboard-response,310,1151077,0.0-18.0-5.0-0.0,60505,List1A,white,man,,,,null,,,,
1185,"<img src=""portrait/WM2.jpg""style=""width:400px;height:400px;""></img>",7,html-button-response,311,1152263,0.0-18.0-7.0,60505,List1A,white,man,,TRUE,7,,,,,
null,CORRECT,,html-keyboard-response,312,1153776,0.0-18.0-8.0-0.0,60505,List1A,white,man,,,,null,,,,
1429,"<img src=""portrait/BW2.jpg""style=""width:400px;height:400px;""></img>",2,html-button-response,313,1155207,0.0-18.0-10.0,60505,List1A,white,man,,TRUE,2,,,,,
null,CORRECT,,html-keyboard-response,314,1156724,0.0-18.0-11.0-0.0,60505,List1A,white,man,,,,null,,,,
2290,"<img src=""portrait/BM1.jpg""style=""width:400px;height:400px;""></img>",4,html-button-response,315,1159016,0.0-18.0-13.0,60505,List1A,white,man,,TRUE,4,,,,,
null,CORRECT,,html-keyboard-response,316,1160521,0.0-18.0-14.0-0.0,60505,List1A,white,man,,,,null,,,,
1693,"<img src=""portrait/BW1.jpg""style=""width:400px;height:400px;""></img>",0,html-button-response,317,1162215,0.0-18.0-16.0,60505,List1A,white,man,,TRUE,0,,,,,
null,CORRECT,,html-keyboard-response,318,1163718,0.0-18.0-17.0-0.0,60505,List1A,white,man,,,,null,,,,
1617,"<img src=""portrait/BM2.jpg""style=""width:400px;height:400px;""></img>",5,html-button-response,319,1165335,0.0-18.0-19.0,60505,List1A,white,man,,TRUE,5,,,,,
null,CORRECT,,html-keyboard-response,320,1166847,0.0-18.0-20.0-0.0,60505,List1A,white,man,,,,null,,,,
2144,"<img src=""portrait/WM1.jpg""style=""width:400px;height:400px;""></img>",6,html-button-response,321,1168991,0.0-18.0-22.0,60505,List1A,white,man,,TRUE,6,,,,,
null,CORRECT,,html-keyboard-response,322,1170510,0.0-18.0-23.0-0.0,60505,List1A,white,man,,,,null,,,,
848,<p>You got 8 out of 8 right first time. Press Continue.</p>,0,html-button-response,323,1171359,0.0-18.0-25.0,60505,List1A,white,man,,,,,,,,
null,"<div style=""font-size:60px;"">+</div>",,html-keyboard-response,324,1172868,0.0-19.0-0.0,60505,List1A,white,man,,,,null,,,,
null,"<img src=""stim_listA/dance4.gif""</stim_listA>",,html-keyboard-response,325,1174882,0.0-19.0-1.0,60505,List1A,white,man,,,,null,,,,
null,are dancing with each other,,html-keyboard-response,326,1176885,0.0-19.0-2.0,60505,List1A,white,man,,,,null,,,,
8746,,,survey-text,327,1185631,0.0-19.0-3.0,60505,List1A,white,man,,,,,"{""Q0"":""Dave and Ruth are dancing with each other""}","<img src=""stim_listA/dance4.gif""</stim_listA>",are dancing with each other,
null,"<div style=""font-size:60px;"">+</div>",,html-keyboard-response,328,1186136,0.0-19.0-0.1,60505,List1A,white,man,,,,null,,,,
null,"<img src=""stim_listA/hug2.gif""</stim_listA>",,html-keyboard-response,329,1188147,0.0-19.0-1.1,60505,List1A,white,man,,,,null,,,,
null,are hugging each other,,html-keyboard-response,330,1190152,0.0-19.0-2.1,60505,List1A,white,man,,,,null,,,,
8286,,,survey-text,331,1198439,0.0-19.0-3.1,60505,List1A,white,man,,,,,"{""Q0"":""Mike and Kate are hugging each other""}","<img src=""stim_listA/hug2.gif""</stim_listA>",are hugging each other,
null,"<div style=""font-size:60px;"">+</div>",,html-keyboard-response,332,1198940,0.0-19.0-0.2,60505,List1A,white,man,,,,null,,,,
null,"<img src=""stim_listA/fight5.gif""</stim_listA>",,html-keyboard-response,333,1200942,0.0-19.0-1.2,60505,List1A,white,man,,,,null,,,,
null,is fighting,,html-keyboard-response,334,1202944,0.0-19.0-2.2,60505,List1A,white,man,,,,null,,,,
4999,,,survey-text,335,1207944,0.0-19.0-3.2,60505,List1A,white,man,,,,,"{""Q0"":""Mike is fighting Dave""}","<img src=""stim_listA/fight5.gif""</stim_listA>",is fighting,
null,"<div style=""font-size:60px;"">+</div>",,html-keyboard-response,336,1208459,0.0-19.0-0.3,60505,List1A,white,man,,,,null,,,,
null,"<img src=""stim_listA/touch5.gif""</stim_listA>",,html-keyboard-response,337,1210471,0.0-19.0-1.3,60505,List1A,white,man,,,,null,,,,
null,is touching,,html-keyboard-response,338,1212480,0.0-19.0-2.3,60505,List1A,white,man,,,,null,,,,
4887,,,survey-text,339,1217367,0.0-19.0-3.3,60505,List1A,white,man,,,,,"{""Q0"":""Mike is touching Dave""}","<img src=""stim_listA/touch5.gif""</stim_listA>",is touching,
null,"<div style=""font-size:60px;"">+</div>",,html-keyboard-response,340,1217869,0.0-19.0-0.4,60505,List1A,white,man,,,,null,,,,
null,"<img src=""stim_listA/meet5.gif""</stim_listA>",,html-keyboard-response,341,1219870,0.0-19.0-1.4,60505,List1A,white,man,,,,null,,,,
null,is meeting,,html-keyboard-response,342,1221872,0.0-19.0-2.4,60505,List1A,white,man,,,,null,,,,
7319,,,survey-text,343,1229191,0.0-19.0-3.4,60505,List1A,white,man,,,,,"{""Q0"":""Mike is meeting Dave""}","<img src=""stim_listA/meet5.gif""</stim_listA>",is meeting,
null,"<div style=""font-size:60px;"">+</div>",,html-keyboard-response,344,1229693,0.0-19.0-0.5,60505,List1A,white,man,,,,null,,,,
null,"<img src=""stim_listA/dance6.gif""</stim_listA>",,html-keyboard-response,345,1231696,0.0-19.0-1.5,60505,List1A,white,man,,,,null,,,,
null,are dancing with each other,,html-keyboard-response,346,1233697,0.0-19.0-2.5,60505,List1A,white,man,,,,null,,,,
7302,,,survey-text,347,1240999,0.0-19.0-3.5,60505,List1A,white,man,,,,,"{""Q0"":""Mike and Luke are dancing with each other""}","<img src=""stim_listA/dance6.gif""</stim_listA>",are dancing with each other,
null,"<div style=""font-size:60px;"">+</div>",,html-keyboard-response,348,1241500,0.0-19.0-0.6,60505,List1A,white,man,,,,null,,,,
null,"<img src=""stim_listA/dance3.gif""</stim_listA>",,html-keyboard-response,349,1243514,0.0-19.0-1.6,60505,List1A,white,man,,,,null,,,,
null,is dancing with,,html-keyboard-response,350,1245515,0.0-19.0-2.6,60505,List1A,white,man,,,,null,,,,
6091,,,survey-text,351,1251607,0.0-19.0-3.6,60505,List1A,white,man,,,,,"{""Q0"":""Luke is dancing with Jane""}","<img src=""stim_listA/dance3.gif""</stim_listA>",is dancing with,
null,"<div style=""font-size:60px;"">+</div>",,html-keyboard-response,352,1252109,0.0-19.0-0.7,60505,List1A,white,man,,,,null,,,,
null,"<img src=""stim_listA/touch7.gif""</stim_listA>",,html-keyboard-response,353,1254121,0.0-19.0-1.7,60505,List1A,white,man,,,,null,,,,
null,is touching,,html-keyboard-response,354,1256121,0.0-19.0-2.7,60505,List1A,white,man,,,,null,,,,
4495,,,survey-text,355,1260618,0.0-19.0-3.7,60505,List1A,white,man,,,,,"{""Q0"":""Jane is touching Kate""}","<img src=""stim_listA/touch7.gif""</stim_listA>",is touching,
null,"<div style=""font-size:60px;"">+</div>",,html-keyboard-response,356,1261127,0.0-19.0-0.8,60505,List1A,white,man,,,,null,,,,
null,"<img src=""stim_listA/touch3.gif""</stim_listA>",,html-keyboard-response,357,1263129,0.0-19.0-1.8,60505,List1A,white,man,,,,null,,,,
null,is touching,,html-keyboard-response,358,1265130,0.0-19.0-2.8,60505,List1A,white,man,,,,null,,,,
4527,,,survey-text,359,1269657,0.0-19.0-3.8,60505,List1A,white,man,,,,,"{""Q0"":""Jane is touching Dave""}","<img src=""stim_listA/touch3.gif""</stim_listA>",is touching,
null,"<div style=""font-size:60px;"">+</div>",,html-keyboard-response,360,1270158,0.0-19.0-0.9,60505,List1A,white,man,,,,null,,,,
null,"<img src=""stim_listA/talk4.gif""</stim_listA>",,html-keyboard-response,361,1272161,0.0-19.0-1.9,60505,List1A,white,man,,,,null,,,,
null,are talking to each other,,html-keyboard-response,362,1274161,0.0-19.0-2.9,60505,List1A,white,man,,,,null,,,,
459647,,,survey-text,363,1733810,0.0-19.0-3.9,60505,List1A,white,man,,,,,"{""Q0"":""Dave and Ruth are talking with each other""}","<img src=""stim_listA/talk4.gif""</stim_listA>",are talking to each other,
null,"<div style=""font-size:60px;"">+</div>",,html-keyboard-response,364,1734312,0.0-19.0-0.10,60505,List1A,white,man,,,,null,,,,
null,"<img src=""stim_listA/talk1.gif""</stim_listA>",,html-keyboard-response,365,1736314,0.0-19.0-1.10,60505,List1A,white,man,,,,null,,,,
null,is talking to,,html-keyboard-response,366,1738316,0.0-19.0-2.10,60505,List1A,white,man,,,,null,,,,
64397,,,survey-text,367,1802714,0.0-19.0-3.10,60505,List1A,white,man,,,,,"{""Q0"":""Fred is talking to Kate""}","<img src=""stim_listA/talk1.gif""</stim_listA>",is talking to,
null,"<div style=""font-size:60px;"">+</div>",,html-keyboard-response,368,1803229,0.0-19.0-0.11,60505,List1A,white,man,,,,null,,,,
null,"<img src=""stim_listA/argue2.gif""</stim_listA>",,html-keyboard-response,369,1805230,0.0-19.0-1.11,60505,List1A,white,man,,,,null,,,,
null,are arguing with each other,,html-keyboard-response,370,1807231,0.0-19.0-2.11,60505,List1A,white,man,,,,null,,,,
9435,,,survey-text,371,1816666,0.0-19.0-3.11,60505,List1A,white,man,,,,,"{""Q0"":""Fred and Kate are arguing with each other""}","<img src=""stim_listA/argue2.gif""</stim_listA>",are arguing with each other,
null,"<div style=""font-size:60px;"">+</div>",,html-keyboard-response,372,1817167,0.0-19.0-0.12,60505,List1A,white,man,,,,null,,,,
null,"<img src=""stim_listA/talk7.gif""</stim_listA>",,html-keyboard-response,373,1819175,0.0-19.0-1.12,60505,List1A,white,man,,,,null,,,,
null,is talking to,,html-keyboard-response,374,1821177,0.0-19.0-2.12,60505,List1A,white,man,,,,null,,,,
5841,,,survey-text,375,1827018,0.0-19.0-3.12,60505,List1A,white,man,,,,,"{""Q0"":""Jane is talking to Beth""}","<img src=""stim_listA/talk7.gif""</stim_listA>",is talking to,
null,"<div style=""font-size:60px;"">+</div>",,html-keyboard-response,376,1827519,0.0-19.0-0.13,60505,List1A,white,man,,,,null,,,,
null,"<img src=""stim_listA/marry8.gif""</stim_listA>",,html-keyboard-response,377,1829531,0.0-19.0-1.13,60505,List1A,white,man,,,,null,,,,
null,are marrying each other,,html-keyboard-response,378,1831541,0.0-19.0-2.13,60505,List1A,white,man,,,,null,,,,
7820,,,survey-text,379,1839362,0.0-19.0-3.13,60505,List1A,white,man,,,,,"{""Q0"":""Jane and Beth are marrying each other""}","<img src=""stim_listA/marry8.gif""</stim_listA>",are marrying each other,
null,"<div style=""font-size:60px;"">+</div>",,html-keyboard-response,380,1839863,0.0-19.0-0.14,60505,List1A,white,man,,,,null,,,,
null,"<img src=""stim_listA/fight7.gif""</stim_listA>",,html-keyboard-response,381,1841865,0.0-19.0-1.14,60505,List1A,white,man,,,,null,,,,
null,is fighting,,html-keyboard-response,382,1843881,0.0-19.0-2.14,60505,List1A,white,man,,,,null,,,,
4984,,,survey-text,383,1848866,0.0-19.0-3.14,60505,List1A,white,man,,,,,"{""Q0"":""Jane is fighting Kate""}","<img src=""stim_listA/fight7.gif""</stim_listA>",is fighting,
null,"<div style=""font-size:60px;"">+</div>",,html-keyboard-response,384,1849366,0.0-19.0-0.15,60505,List1A,white,man,,,,null,,,,
null,"<img src=""stim_listA/meet3.gif""</stim_listA>",,html-keyboard-response,385,1851368,0.0-19.0-1.15,60505,List1A,white,man,,,,null,,,,
null,is meeting,,html-keyboard-response,386,1853379,0.0-19.0-2.15,60505,List1A,white,man,,,,null,,,,
4320,,,survey-text,387,1857700,0.0-19.0-3.15,60505,List1A,white,man,,,,,"{""Q0"":""Jane is meeting Dave""}","<img src=""stim_listA/meet3.gif""</stim_listA>",is meeting,
null,"<div style=""font-size:60px;"">+</div>",,html-keyboard-response,388,1858203,0.0-19.0-0.16,60505,List1A,white,man,,,,null,,,,
null,"<img src=""stim_listA/touch6.gif""</stim_listA>",,html-keyboard-response,389,1860211,0.0-19.0-1.16,60505,List1A,white,man,,,,null,,,,
null,are touching each other,,html-keyboard-response,390,1862223,0.0-19.0-2.16,60505,List1A,white,man,,,,null,,,,
7627,,,survey-text,391,1869852,0.0-19.0-3.16,60505,List1A,white,man,,,,,"{""Q0"":""Fred and Luke are touching each other""}","<img src=""stim_listA/touch6.gif""</stim_listA>",are touching each other,
null,"<div style=""font-size:60px;"">+</div>",,html-keyboard-response,392,1870356,0.0-19.0-0.17,60505,List1A,white,man,,,,null,,,,
null,"<img src=""stim_listA/hug3.gif""</stim_listA>",,html-keyboard-response,393,1872359,0.0-19.0-1.17,60505,List1A,white,man,,,,null,,,,
null,is hugging,,html-keyboard-response,394,1874361,0.0-19.0-2.17,60505,List1A,white,man,,,,null,,,,
5395,,,survey-text,395,1879756,0.0-19.0-3.17,60505,List1A,white,man,,,,,"{""Q0"":""Luke is hugging Ruth""}","<img src=""stim_listA/hug3.gif""</stim_listA>",is hugging,
null,"<div style=""font-size:60px;"">+</div>",,html-keyboard-response,396,1880272,0.0-19.0-0.18,60505,List1A,white,man,,,,null,,,,
null,"<img src=""stim_listA/dance5.gif""</stim_listA>",,html-keyboard-response,397,1882274,0.0-19.0-1.18,60505,List1A,white,man,,,,null,,,,
null,is dancing with,,html-keyboard-response,398,1884276,0.0-19.0-2.18,60505,List1A,white,man,,,,null,,,,
6232,,,survey-text,399,1890508,0.0-19.0-3.18,60505,List1A,white,man,,,,,"{""Q0"":""Fred is dancing with Dave""}","<img src=""stim_listA/dance5.gif""</stim_listA>",is dancing with,
null,"<div style=""font-size:60px;"">+</div>",,html-keyboard-response,400,1891011,0.0-19.0-0.19,60505,List1A,white,man,,,,null,,,,
null,"<img src=""stim_listA/kiss4.gif""</stim_listA>",,html-keyboard-response,401,1893012,0.0-19.0-1.19,60505,List1A,white,man,,,,null,,,,
null,are kissing each other,,html-keyboard-response,402,1895014,0.0-19.0-2.19,60505,List1A,white,man,,,,null,,,,
6566,,,survey-text,403,1901580,0.0-19.0-3.19,60505,List1A,white,man,,,,,"{""Q0"":""Dave and Jane are kissing each other""}","<img src=""stim_listA/kiss4.gif""</stim_listA>",are kissing each other,
2303,<p>Thank you for completing that task.</p><p>The final part of this session is a short questionnaire.</p><p>Press Continue.</p>,0,html-button-response,404,1903884,0.0-20.0,60505,List1A,white,man,,,,,,,,
22861,,,survey-text,405,1927746,0.0-21.0,60505,List1A,white,man,,,,,"{""Q0"":""30"",""Q1"":""English"",""Q2"":""English"",""Q3"":""USA"",""Q4"":""New Zealand White"",""Q5"":""Male""}",,,demographics
60136,,,survey-likert,406,1987887,0.0-22.0,60505,List1A,white,man,,,,,"{""Q0"":3,""Q1"":3,""Q2"":3,""Q3"":5,""Q4"":5,""Q5"":5,""Q6"":5,""Q7"":3,""Q8"":5,""Q9"":5,""Q10"":5,""Q11"":5,""Q12"":3,""Q13"":3}",,,likert_race
46618,,,survey-likert,407,2034509,0.0-23.0,60505,List1A,white,man,,,,,"{""Q0"":5,""Q1"":4,""Q2"":5,""Q3"":5,""Q4"":4,""Q5"":5,""Q6"":5,""Q7"":3,""Q8"":5,""Q9"":5,""Q10"":3,""Q11"":3,""Q12"":4,""Q13"":4}",,,likert_gender
5468,,,survey-text,408,2039978,0.0-24.0,60505,List1A,white,man,,,,,"{""Q0"":""ccc""}",,,worker_id
10652,,,external-html,409,2050842,0.0-25.0,60505,List1A,white,man,debrief.html,,,,,,,
