rt,stimulus,button_pressed,trial_type,trial_index,time_elapsed,internal_node_id,subject,list,ppt_race,ppt_gender,url,first_guess,correct,key_press,responses,image_type,phrase_type,test_part
4705,Welcome to the experiment. Press Continue to begin.,0,html-button-response,0,4712,0.0-0.0,62310,List2B,black,woman,,,,,,,,
9079,,,external-html,1,17891,0.0-1.0,62310,List2B,black,woman,consent.html,,,,,,,
7504,"<p>On the next page, you will see portraits of 8 people and their names.</p><p>Your first task is to take a few minutes to memorise the names of these people.</p><p>You will have to recall their names during the rest of the experiment, so it is</p><p>essential that you try to memorise these people and their names as best as you can.</p><br><p><strong>You will then be tested on your memory of these names and portraits.</strong></p><br><p>The experiment will start after you have completed this memory test.</p><br><p>Ready?</p>",0,html-button-response,2,25399,0.0-2.0,62310,List2B,black,woman,,,,,,,,
17781,"<img src='img/portrait_matrix_list2.JPG' style='width:900px;height:500px;''></img><p>If you have memorised all the portraits and names and are ready to start, press Continue.</p><p><strong>Please note: Your memory of these faces will be tested 4 times during this experiment.</strong></p>",0,html-button-response,3,44192,0.0-3.0-0.0,62310,List2B,black,woman,,,,,,,,
5898,"<img src=""portrait/BW2.jpg""style=""width:400px;height:400px;""></img>",2,html-button-response,4,51107,0.0-3.0-1.0,62310,List2B,black,woman,,TRUE,2,,,,,
null,CORRECT,,html-keyboard-response,5,52618,0.0-3.0-2.0-0.0,62310,List2B,black,woman,,,,null,,,,
5880,"<img src=""portrait/BW1.jpg""style=""width:400px;height:400px;""></img>",0,html-button-response,6,58505,0.0-3.0-4.0,62310,List2B,black,woman,,TRUE,0,,,,,
null,CORRECT,,html-keyboard-response,7,60009,0.0-3.0-5.0-0.0,62310,List2B,black,woman,,,,null,,,,
8651,"<img src=""portrait/WM2.jpg""style=""width:400px;height:400px;""></img>",7,html-button-response,8,68669,0.0-3.0-7.0,62310,List2B,black,woman,,TRUE,7,,,,,
null,CORRECT,,html-keyboard-response,9,70179,0.0-3.0-8.0-0.0,62310,List2B,black,woman,,,,null,,,,
7460,"<img src=""portrait/WW1.jpg""style=""width:400px;height:400px;""></img>",1,html-button-response,10,77651,0.0-3.0-10.0,62310,List2B,black,woman,,TRUE,1,,,,,
null,CORRECT,,html-keyboard-response,11,79170,0.0-3.0-11.0-0.0,62310,List2B,black,woman,,,,null,,,,
6183,"<img src=""portrait/BM2.jpg""style=""width:400px;height:400px;""></img>",5,html-button-response,12,85363,0.0-3.0-13.0,62310,List2B,black,woman,,TRUE,5,,,,,
null,CORRECT,,html-keyboard-response,13,86868,0.0-3.0-14.0-0.0,62310,List2B,black,woman,,,,null,,,,
4531,"<img src=""portrait/WW2.jpg""style=""width:400px;height:400px;""></img>",3,html-button-response,14,91404,0.0-3.0-16.0,62310,List2B,black,woman,,TRUE,3,,,,,
null,CORRECT,,html-keyboard-response,15,92907,0.0-3.0-17.0-0.0,62310,List2B,black,woman,,,,null,,,,
6286,"<img src=""portrait/BM1.jpg""style=""width:400px;height:400px;""></img>",4,html-button-response,16,99197,0.0-3.0-19.0,62310,List2B,black,woman,,TRUE,4,,,,,
null,CORRECT,,html-keyboard-response,17,100701,0.0-3.0-20.0-0.0,62310,List2B,black,woman,,,,null,,,,
5282,"<img src=""portrait/WM1.jpg""style=""width:400px;height:400px;""></img>",6,html-button-response,18,105988,0.0-3.0-22.0,62310,List2B,black,woman,,TRUE,6,,,,,
null,CORRECT,,html-keyboard-response,19,107493,0.0-3.0-23.0-0.0,62310,List2B,black,woman,,,,null,,,,
1813,<p>You got 8 out of 8 right first time. Press Continue.</p>,0,html-button-response,20,109313,0.0-3.0-25.0,62310,List2B,black,woman,,,,,,,,
7876,"<p>In this experiment, you will view photographs of the people from the memory game interacting.</p><p>By using the <strong>exact</strong> phrase given <i>after</i> the photograph appears and recalling the correct names of the people in the photographs, form a sentence describing the interaction. You do not need to capitalise names.</p><p>Type your answer in the space provided. Please complete every sentence before moving onto the next trial.</p><p>You will only have a few seconds to memorise each given photograph and phrase before you can respond, so try your best to focus.</p><p>An example is given below. Press 'Continue' when you are ready.</p><img src='img/speaking_example_v2.jpg' style='width:800px;height:460px;''></img>",0,html-button-response,21,118198,0.0-4.0,62310,List2B,black,woman,,,,,,,,
2562,"<p>Before the experiment starts, you will watch two example trials. Press 'Continue'.</p>",0,html-button-response,22,121765,0.0-5.0,62310,List2B,black,woman,,,,,,,,
null,<img src='img/speaking_WW.gif'></img>,,html-keyboard-response,23,124771,0.0-6.0,62310,List2B,black,woman,,,,null,,,,
null,<p>is speaking to</p>,,html-keyboard-response,24,126774,0.0-7.0,62310,List2B,black,woman,,,,null,,,,
4259,<p><b>Answer:</b> jane is speaking to ruth</p>,0,html-button-response,25,131034,0.0-8.0,62310,List2B,black,woman,,,,,,,,
null,<img src='img/pointing_BM.gif'></img>,,html-keyboard-response,26,134039,0.0-9.0,62310,List2B,black,woman,,,,null,,,,
null,<p>are pointing at each other</p>,,html-keyboard-response,27,136043,0.0-10.0,62310,List2B,black,woman,,,,null,,,,
2755,<p><b>Answer:</b> fred and mike are pointing at each other</p>,0,html-button-response,28,138801,0.0-11.0,62310,List2B,black,woman,,,,,,,,
6210,"<p>Ready to start the experiment?</p><br><p><strong>Remember to describe the picture using a full sentence,</strong></p><p><strong>that combines the names of the people with the given phrase.</strong></p><p><strong>If you do not do this correctly you will not be paid.</strong></p><p><strong> You do not need to capitalise names or use punctuation.</strong></p><br><p>Press 'Continue' to begin.</p>",0,html-button-response,29,146015,0.0-12.0,62310,List2B,black,woman,,,,,,,,
null,"<div style=""font-size:60px;"">+</div>",,html-keyboard-response,30,147519,0.0-13.0-0.0,62310,List2B,black,woman,,,,null,,,,
null,"<img src=""stim_listB/touch3.gif""</stim_listB>",,html-keyboard-response,31,149526,0.0-13.0-1.0,62310,List2B,black,woman,,,,null,,,,
null,is touching,,html-keyboard-response,32,151530,0.0-13.0-2.0,62310,List2B,black,woman,,,,null,,,,
20225,,,survey-text,33,171764,0.0-13.0-3.0,62310,List2B,black,woman,,,,,"{""Q0"":""Mike is touching Kate""}","<img src=""stim_listB/touch3.gif""</stim_listB>",is touching,
null,"<div style=""font-size:60px;"">+</div>",,html-keyboard-response,34,172275,0.0-13.0-0.1,62310,List2B,black,woman,,,,null,,,,
null,"<img src=""stim_listB/kiss4.gif""</stim_listB>",,html-keyboard-response,35,174282,0.0-13.0-1.1,62310,List2B,black,woman,,,,null,,,,
null,are kissing each other,,html-keyboard-response,36,176287,0.0-13.0-2.1,62310,List2B,black,woman,,,,null,,,,
17256,,,survey-text,37,193549,0.0-13.0-3.1,62310,List2B,black,woman,,,,,"{""Q0"":""Mike and Kate are kissing each other""}","<img src=""stim_listB/kiss4.gif""</stim_listB>",are kissing each other,
null,"<div style=""font-size:60px;"">+</div>",,html-keyboard-response,38,194053,0.0-13.0-0.2,62310,List2B,black,woman,,,,null,,,,
null,"<img src=""stim_listB/shout7.gif""</stim_listB>",,html-keyboard-response,39,196059,0.0-13.0-1.2,62310,List2B,black,woman,,,,null,,,,
null,is shouting at,,html-keyboard-response,40,198062,0.0-13.0-2.2,62310,List2B,black,woman,,,,null,,,,
19155,,,survey-text,41,217223,0.0-13.0-3.2,62310,List2B,black,woman,,,,,"{""Q0"":""Beth is shouting at Ruth""}","<img src=""stim_listB/shout7.gif""</stim_listB>",is shouting at,
null,"<div style=""font-size:60px;"">+</div>",,html-keyboard-response,42,217734,0.0-13.0-0.3,62310,List2B,black,woman,,,,null,,,,
null,"<img src=""stim_listB/kiss3.gif""</stim_listB>",,html-keyboard-response,43,219741,0.0-13.0-1.3,62310,List2B,black,woman,,,,null,,,,
null,is kissing,,html-keyboard-response,44,221746,0.0-13.0-2.3,62310,List2B,black,woman,,,,null,,,,
9518,,,survey-text,45,231272,0.0-13.0-3.3,62310,List2B,black,woman,,,,,"{""Q0"":""No one is kissing""}","<img src=""stim_listB/kiss3.gif""</stim_listB>",is kissing,
null,"<div style=""font-size:60px;"">+</div>",,html-keyboard-response,46,231777,0.0-13.0-0.4,62310,List2B,black,woman,,,,null,,,,
null,"<img src=""stim_listB/talk3.gif""</stim_listB>",,html-keyboard-response,47,233782,0.0-13.0-1.4,62310,List2B,black,woman,,,,null,,,,
null,is talking to,,html-keyboard-response,48,235787,0.0-13.0-2.4,62310,List2B,black,woman,,,,null,,,,
14569,,,survey-text,49,250363,0.0-13.0-3.4,62310,List2B,black,woman,,,,,"{""Q0"":""Fred is talking to Kate""}","<img src=""stim_listB/talk3.gif""</stim_listB>",is talking to,
null,"<div style=""font-size:60px;"">+</div>",,html-keyboard-response,50,250875,0.0-13.0-0.5,62310,List2B,black,woman,,,,null,,,,
null,"<img src=""stim_listB/talk6.gif""</stim_listB>",,html-keyboard-response,51,252882,0.0-13.0-1.5,62310,List2B,black,woman,,,,null,,,,
null,are talking to each other,,html-keyboard-response,52,254886,0.0-13.0-2.5,62310,List2B,black,woman,,,,null,,,,
12516,,,survey-text,53,267408,0.0-13.0-3.5,62310,List2B,black,woman,,,,,"{""Q0"":""No one is talking to each other""}","<img src=""stim_listB/talk6.gif""</stim_listB>",are talking to each other,
null,"<div style=""font-size:60px;"">+</div>",,html-keyboard-response,54,267912,0.0-13.0-0.6,62310,List2B,black,woman,,,,null,,,,
null,"<img src=""stim_listB/hug5.gif""</stim_listB>",,html-keyboard-response,55,269918,0.0-13.0-1.6,62310,List2B,black,woman,,,,null,,,,
null,is hugging,,html-keyboard-response,56,271926,0.0-13.0-2.6,62310,List2B,black,woman,,,,null,,,,
12901,,,survey-text,57,284830,0.0-13.0-3.6,62310,List2B,black,woman,,,,,"{""Q0"":""No one is hugging""}","<img src=""stim_listB/hug5.gif""</stim_listB>",is hugging,
null,"<div style=""font-size:60px;"">+</div>",,html-keyboard-response,58,285334,0.0-13.0-0.7,62310,List2B,black,woman,,,,null,,,,
null,"<img src=""stim_listB/fight2.gif""</stim_listB>",,html-keyboard-response,59,287339,0.0-13.0-1.7,62310,List2B,black,woman,,,,null,,,,
null,are fighting each other,,html-keyboard-response,60,289343,0.0-13.0-2.7,62310,List2B,black,woman,,,,null,,,,
19687,,,survey-text,61,309037,0.0-13.0-3.7,62310,List2B,black,woman,,,,,"{""Q0"":""Luke is fighting Ruth""}","<img src=""stim_listB/fight2.gif""</stim_listB>",are fighting each other,
null,"<div style=""font-size:60px;"">+</div>",,html-keyboard-response,62,309549,0.0-13.0-0.8,62310,List2B,black,woman,,,,null,,,,
null,"<img src=""stim_listB/touch6.gif""</stim_listB>",,html-keyboard-response,63,311555,0.0-13.0-1.8,62310,List2B,black,woman,,,,null,,,,
null,are touching each other,,html-keyboard-response,64,313560,0.0-13.0-2.8,62310,List2B,black,woman,,,,null,,,,
12970,,,survey-text,65,326537,0.0-13.0-3.8,62310,List2B,black,woman,,,,,"{""Q0"":""No one is touching each other""}","<img src=""stim_listB/touch6.gif""</stim_listB>",are touching each other,
null,"<div style=""font-size:60px;"">+</div>",,html-keyboard-response,66,327040,0.0-13.0-0.9,62310,List2B,black,woman,,,,null,,,,
null,"<img src=""stim_listB/hug1.gif""</stim_listB>",,html-keyboard-response,67,329047,0.0-13.0-1.9,62310,List2B,black,woman,,,,null,,,,
null,is hugging,,html-keyboard-response,68,331059,0.0-13.0-2.9,62310,List2B,black,woman,,,,null,,,,
15556,,,survey-text,69,346619,0.0-13.0-3.9,62310,List2B,black,woman,,,,,"{""Q0"":""Luke is hugging Ruth""}","<img src=""stim_listB/hug1.gif""</stim_listB>",is hugging,
null,"<div style=""font-size:60px;"">+</div>",,html-keyboard-response,70,347123,0.0-13.0-0.10,62310,List2B,black,woman,,,,null,,,,
null,"<img src=""stim_listB/fight4.gif""</stim_listB>",,html-keyboard-response,71,349128,0.0-13.0-1.10,62310,List2B,black,woman,,,,null,,,,
null,are fighting each other,,html-keyboard-response,72,351131,0.0-13.0-2.10,62310,List2B,black,woman,,,,null,,,,
15799,,,survey-text,73,366935,0.0-13.0-3.10,62310,List2B,black,woman,,,,,"{""Q0"":""Fred is fighting Beth""}","<img src=""stim_listB/fight4.gif""</stim_listB>",are fighting each other,
null,"<div style=""font-size:60px;"">+</div>",,html-keyboard-response,74,367447,0.0-13.0-0.11,62310,List2B,black,woman,,,,null,,,,
null,"<img src=""stim_listB/touch8.gif""</stim_listB>",,html-keyboard-response,75,369453,0.0-13.0-1.11,62310,List2B,black,woman,,,,null,,,,
null,are touching each other,,html-keyboard-response,76,371459,0.0-13.0-2.11,62310,List2B,black,woman,,,,null,,,,
19333,,,survey-text,77,390798,0.0-13.0-3.11,62310,List2B,black,woman,,,,,"{""Q0"":""Beth and Ruth are touching each other ""}","<img src=""stim_listB/touch8.gif""</stim_listB>",are touching each other,
null,"<div style=""font-size:60px;"">+</div>",,html-keyboard-response,78,391303,0.0-13.0-0.12,62310,List2B,black,woman,,,,null,,,,
null,"<img src=""stim_listB/argue7.gif""</stim_listB>",,html-keyboard-response,79,393309,0.0-13.0-1.12,62310,List2B,black,woman,,,,null,,,,
null,is arguing with,,html-keyboard-response,80,395314,0.0-13.0-2.12,62310,List2B,black,woman,,,,null,,,,
23901,,,survey-text,81,419221,0.0-13.0-3.12,62310,List2B,black,woman,,,,,"{""Q0"":""Jane is arguing with Beth ""}","<img src=""stim_listB/argue7.gif""</stim_listB>",is arguing with,
null,"<div style=""font-size:60px;"">+</div>",,html-keyboard-response,82,419724,0.0-13.0-0.13,62310,List2B,black,woman,,,,null,,,,
null,"<img src=""stim_listB/shout2.gif""</stim_listB>",,html-keyboard-response,83,421731,0.0-13.0-1.13,62310,List2B,black,woman,,,,null,,,,
null,are shouting at each other,,html-keyboard-response,84,423735,0.0-13.0-2.13,62310,List2B,black,woman,,,,null,,,,
30418,,,survey-text,85,454162,0.0-13.0-3.13,62310,List2B,black,woman,,,,,"{""Q0"":""Jane and Dave are shouting at each other""}","<img src=""stim_listB/shout2.gif""</stim_listB>",are shouting at each other,
null,"<div style=""font-size:60px;"">+</div>",,html-keyboard-response,86,454680,0.0-13.0-0.14,62310,List2B,black,woman,,,,null,,,,
null,"<img src=""stim_listB/meet6.gif""</stim_listB>",,html-keyboard-response,87,456688,0.0-13.0-1.14,62310,List2B,black,woman,,,,null,,,,
null,are meeting each other,,html-keyboard-response,88,458693,0.0-13.0-2.14,62310,List2B,black,woman,,,,null,,,,
24138,,,survey-text,89,482837,0.0-13.0-3.14,62310,List2B,black,woman,,,,,"{""Q0"":""Fred and Luke are meeting each other""}","<img src=""stim_listB/meet6.gif""</stim_listB>",are meeting each other,
null,"<div style=""font-size:60px;"">+</div>",,html-keyboard-response,90,483340,0.0-13.0-0.15,62310,List2B,black,woman,,,,null,,,,
null,"<img src=""stim_listB/dance6.gif""</stim_listB>",,html-keyboard-response,91,485343,0.0-13.0-1.15,62310,List2B,black,woman,,,,null,,,,
null,are dancing with each other,,html-keyboard-response,92,487345,0.0-13.0-2.15,62310,List2B,black,woman,,,,null,,,,
25311,,,survey-text,93,512658,0.0-13.0-3.15,62310,List2B,black,woman,,,,,"{""Q0"":""Fred and Dave are dancing with each other ""}","<img src=""stim_listB/dance6.gif""</stim_listB>",are dancing with each other,
null,"<div style=""font-size:60px;"">+</div>",,html-keyboard-response,94,513161,0.0-13.0-0.16,62310,List2B,black,woman,,,,null,,,,
null,"<img src=""stim_listB/touch2.gif""</stim_listB>",,html-keyboard-response,95,515163,0.0-13.0-1.16,62310,List2B,black,woman,,,,null,,,,
null,are touching each other,,html-keyboard-response,96,517165,0.0-13.0-2.16,62310,List2B,black,woman,,,,null,,,,
18630,,,survey-text,97,535797,0.0-13.0-3.16,62310,List2B,black,woman,,,,,"{""Q0"":""Luke and Ruth are touching each other ""}","<img src=""stim_listB/touch2.gif""</stim_listB>",are touching each other,
null,"<div style=""font-size:60px;"">+</div>",,html-keyboard-response,98,536300,0.0-13.0-0.17,62310,List2B,black,woman,,,,null,,,,
null,"<img src=""stim_listB/shout8.gif""</stim_listB>",,html-keyboard-response,99,538303,0.0-13.0-1.17,62310,List2B,black,woman,,,,null,,,,
null,are shouting at each other,,html-keyboard-response,100,540305,0.0-13.0-2.17,62310,List2B,black,woman,,,,null,,,,
21203,,,survey-text,101,561510,0.0-13.0-3.17,62310,List2B,black,woman,,,,,"{""Q0"":""Jane and Kate are shouting at each other ""}","<img src=""stim_listB/shout8.gif""</stim_listB>",are shouting at each other,
null,"<div style=""font-size:60px;"">+</div>",,html-keyboard-response,102,562015,0.0-13.0-0.18,62310,List2B,black,woman,,,,null,,,,
null,"<img src=""stim_listB/hug7.gif""</stim_listB>",,html-keyboard-response,103,564020,0.0-13.0-1.18,62310,List2B,black,woman,,,,null,,,,
null,is hugging,,html-keyboard-response,104,566025,0.0-13.0-2.18,62310,List2B,black,woman,,,,null,,,,
17133,,,survey-text,105,583163,0.0-13.0-3.18,62310,List2B,black,woman,,,,,"{""Q0"":""Ruth and Beth are hugging ""}","<img src=""stim_listB/hug7.gif""</stim_listB>",is hugging,
null,"<div style=""font-size:60px;"">+</div>",,html-keyboard-response,106,583668,0.0-13.0-0.19,62310,List2B,black,woman,,,,null,,,,
null,"<img src=""stim_listB/meet8.gif""</stim_listB>",,html-keyboard-response,107,585675,0.0-13.0-1.19,62310,List2B,black,woman,,,,null,,,,
null,are meeting each other,,html-keyboard-response,108,587681,0.0-13.0-2.19,62310,List2B,black,woman,,,,null,,,,
18112,,,survey-text,109,605797,0.0-13.0-3.19,62310,List2B,black,woman,,,,,"{""Q0"":""Beth and Ruth are meeting each other ""}","<img src=""stim_listB/meet8.gif""</stim_listB>",are meeting each other,
10727,"<img src='img/portrait_matrix_list2.JPG' style='width:900px;height:500px;''></img><p>If you have memorised all the portraits and names and are ready to start, press Continue.</p><p><strong>Please note: Your memory of these faces will be tested 4 times during this experiment.</strong></p>",0,html-button-response,110,616531,0.0-14.0-0.0,62310,List2B,black,woman,,,,,,,,
8075,"<img src=""portrait/WW2.jpg""style=""width:400px;height:400px;""></img>",3,html-button-response,111,625612,0.0-14.0-1.0,62310,List2B,black,woman,,TRUE,3,,,,,
null,CORRECT,,html-keyboard-response,112,627117,0.0-14.0-2.0-0.0,62310,List2B,black,woman,,,,null,,,,
4357,"<img src=""portrait/BM1.jpg""style=""width:400px;height:400px;""></img>",4,html-button-response,113,631476,0.0-14.0-4.0,62310,List2B,black,woman,,TRUE,4,,,,,
null,CORRECT,,html-keyboard-response,114,632979,0.0-14.0-5.0-0.0,62310,List2B,black,woman,,,,null,,,,
3447,"<img src=""portrait/BW1.jpg""style=""width:400px;height:400px;""></img>",0,html-button-response,115,636427,0.0-14.0-7.0,62310,List2B,black,woman,,TRUE,0,,,,,
null,CORRECT,,html-keyboard-response,116,637930,0.0-14.0-8.0-0.0,62310,List2B,black,woman,,,,null,,,,
5232,"<img src=""portrait/WW1.jpg""style=""width:400px;height:400px;""></img>",1,html-button-response,117,643163,0.0-14.0-10.0,62310,List2B,black,woman,,TRUE,1,,,,,
null,CORRECT,,html-keyboard-response,118,644666,0.0-14.0-11.0-0.0,62310,List2B,black,woman,,,,null,,,,
5030,"<img src=""portrait/WM2.jpg""style=""width:400px;height:400px;""></img>",7,html-button-response,119,649698,0.0-14.0-13.0,62310,List2B,black,woman,,TRUE,7,,,,,
null,CORRECT,,html-keyboard-response,120,651213,0.0-14.0-14.0-0.0,62310,List2B,black,woman,,,,null,,,,
3515,"<img src=""portrait/WM1.jpg""style=""width:400px;height:400px;""></img>",6,html-button-response,121,654739,0.0-14.0-16.0,62310,List2B,black,woman,,TRUE,6,,,,,
null,CORRECT,,html-keyboard-response,122,656244,0.0-14.0-17.0-0.0,62310,List2B,black,woman,,,,null,,,,
3769,"<img src=""portrait/BW2.jpg""style=""width:400px;height:400px;""></img>",2,html-button-response,123,660020,0.0-14.0-19.0,62310,List2B,black,woman,,TRUE,2,,,,,
null,CORRECT,,html-keyboard-response,124,661524,0.0-14.0-20.0-0.0,62310,List2B,black,woman,,,,null,,,,
7207,"<img src=""portrait/BM2.jpg""style=""width:400px;height:400px;""></img>",5,html-button-response,125,668739,0.0-14.0-22.0,62310,List2B,black,woman,,TRUE,5,,,,,
null,CORRECT,,html-keyboard-response,126,670257,0.0-14.0-23.0-0.0,62310,List2B,black,woman,,,,null,,,,
1376,<p>You got 8 out of 8 right first time. Press Continue.</p>,0,html-button-response,127,671642,0.0-14.0-25.0,62310,List2B,black,woman,,,,,,,,
null,"<div style=""font-size:60px;"">+</div>",,html-keyboard-response,128,673151,0.0-15.0-0.0,62310,List2B,black,woman,,,,null,,,,
null,"<img src=""stim_listB/kiss7.gif""</stim_listB>",,html-keyboard-response,129,675156,0.0-15.0-1.0,62310,List2B,black,woman,,,,null,,,,
null,is kissing,,html-keyboard-response,130,677161,0.0-15.0-2.0,62310,List2B,black,woman,,,,null,,,,
20332,,,survey-text,131,697499,0.0-15.0-3.0,62310,List2B,black,woman,,,,,"{""Q0"":""Beth and Ruth is kissing ""}","<img src=""stim_listB/kiss7.gif""</stim_listB>",is kissing,
null,"<div style=""font-size:60px;"">+</div>",,html-keyboard-response,132,698005,0.0-15.0-0.1,62310,List2B,black,woman,,,,null,,,,
null,"<img src=""stim_listB/shout1.gif""</stim_listB>",,html-keyboard-response,133,700011,0.0-15.0-1.1,62310,List2B,black,woman,,,,null,,,,
null,is shouting at,,html-keyboard-response,134,702016,0.0-15.0-2.1,62310,List2B,black,woman,,,,null,,,,
24357,,,survey-text,135,726376,0.0-15.0-3.1,62310,List2B,black,woman,,,,,"{""Q0"":""Luke and Ruth is shouting ""}","<img src=""stim_listB/shout1.gif""</stim_listB>",is shouting at,
null,"<div style=""font-size:60px;"">+</div>",,html-keyboard-response,136,726880,0.0-15.0-0.2,62310,List2B,black,woman,,,,null,,,,
null,"<img src=""stim_listB/hug8.gif""</stim_listB>",,html-keyboard-response,137,728882,0.0-15.0-1.2,62310,List2B,black,woman,,,,null,,,,
null,are hugging each other,,html-keyboard-response,138,730885,0.0-15.0-2.2,62310,List2B,black,woman,,,,null,,,,
27630,,,survey-text,139,758517,0.0-15.0-3.2,62310,List2B,black,woman,,,,,"{""Q0"":""Beth and Ruth are hugging each other""}","<img src=""stim_listB/hug8.gif""</stim_listB>",are hugging each other,
null,"<div style=""font-size:60px;"">+</div>",,html-keyboard-response,140,759018,0.0-15.0-0.3,62310,List2B,black,woman,,,,null,,,,
null,"<img src=""stim_listB/touch5.gif""</stim_listB>",,html-keyboard-response,141,761021,0.0-15.0-1.3,62310,List2B,black,woman,,,,null,,,,
null,is touching,,html-keyboard-response,142,763024,0.0-15.0-2.3,62310,List2B,black,woman,,,,null,,,,
16293,,,survey-text,143,779319,0.0-15.0-3.3,62310,List2B,black,woman,,,,,"{""Q0"":""Fred and Dave is touching ""}","<img src=""stim_listB/touch5.gif""</stim_listB>",is touching,
null,"<div style=""font-size:60px;"">+</div>",,html-keyboard-response,144,779823,0.0-15.0-0.4,62310,List2B,black,woman,,,,null,,,,
null,"<img src=""stim_listB/talk5.gif""</stim_listB>",,html-keyboard-response,145,781825,0.0-15.0-1.4,62310,List2B,black,woman,,,,null,,,,
null,is talking to,,html-keyboard-response,146,783827,0.0-15.0-2.4,62310,List2B,black,woman,,,,null,,,,
27446,,,survey-text,147,811274,0.0-15.0-3.4,62310,List2B,black,woman,,,,,"{""Q0"":""Mike is talking to Luke""}","<img src=""stim_listB/talk5.gif""</stim_listB>",is talking to,
null,"<div style=""font-size:60px;"">+</div>",,html-keyboard-response,148,811777,0.0-15.0-0.5,62310,List2B,black,woman,,,,null,,,,
null,"<img src=""stim_listB/argue6.gif""</stim_listB>",,html-keyboard-response,149,813780,0.0-15.0-1.5,62310,List2B,black,woman,,,,null,,,,
null,are arguing with each other,,html-keyboard-response,150,815780,0.0-15.0-2.5,62310,List2B,black,woman,,,,null,,,,
23959,,,survey-text,151,839741,0.0-15.0-3.5,62310,List2B,black,woman,,,,,"{""Q0"":""Mike and Luke are arguing with each other ""}","<img src=""stim_listB/argue6.gif""</stim_listB>",are arguing with each other,
null,"<div style=""font-size:60px;"">+</div>",,html-keyboard-response,152,840244,0.0-15.0-0.6,62310,List2B,black,woman,,,,null,,,,
null,"<img src=""stim_listB/talk4.gif""</stim_listB>",,html-keyboard-response,153,842243,0.0-15.0-1.6,62310,List2B,black,woman,,,,null,,,,
null,are talking to each other,,html-keyboard-response,154,844241,0.0-15.0-2.6,62310,List2B,black,woman,,,,null,,,,
16193,,,survey-text,155,860436,0.0-15.0-3.6,62310,List2B,black,woman,,,,,"{""Q0"":""Beth and Mike are talking to each other""}","<img src=""stim_listB/talk4.gif""</stim_listB>",are talking to each other,
null,"<div style=""font-size:60px;"">+</div>",,html-keyboard-response,156,860939,0.0-15.0-0.7,62310,List2B,black,woman,,,,null,,,,
null,"<img src=""stim_listB/hug6.gif""</stim_listB>",,html-keyboard-response,157,862944,0.0-15.0-1.7,62310,List2B,black,woman,,,,null,,,,
null,are hugging each other,,html-keyboard-response,158,864946,0.0-15.0-2.7,62310,List2B,black,woman,,,,null,,,,
25148,,,survey-text,159,890097,0.0-15.0-3.7,62310,List2B,black,woman,,,,,"{""Q0"":""Dave and Mike are hugging each other ""}","<img src=""stim_listB/hug6.gif""</stim_listB>",are hugging each other,
null,"<div style=""font-size:60px;"">+</div>",,html-keyboard-response,160,890600,0.0-15.0-0.8,62310,List2B,black,woman,,,,null,,,,
null,"<img src=""stim_listB/dance2.gif""</stim_listB>",,html-keyboard-response,161,892602,0.0-15.0-1.8,62310,List2B,black,woman,,,,null,,,,
null,are dancing with each other,,html-keyboard-response,162,894604,0.0-15.0-2.8,62310,List2B,black,woman,,,,null,,,,
23528,,,survey-text,163,918134,0.0-15.0-3.8,62310,List2B,black,woman,,,,,"{""Q0"":""Dave and Ruth are dancing with each other""}","<img src=""stim_listB/dance2.gif""</stim_listB>",are dancing with each other,
null,"<div style=""font-size:60px;"">+</div>",,html-keyboard-response,164,918638,0.0-15.0-0.9,62310,List2B,black,woman,,,,null,,,,
null,"<img src=""stim_listB/marry2.gif""</stim_listB>",,html-keyboard-response,165,920639,0.0-15.0-1.9,62310,List2B,black,woman,,,,null,,,,
null,are marrying each other,,html-keyboard-response,166,922640,0.0-15.0-2.9,62310,List2B,black,woman,,,,null,,,,
16045,,,survey-text,167,938686,0.0-15.0-3.9,62310,List2B,black,woman,,,,,"{""Q0"":""Luke and Jane are marrying each other""}","<img src=""stim_listB/marry2.gif""</stim_listB>",are marrying each other,
null,"<div style=""font-size:60px;"">+</div>",,html-keyboard-response,168,939188,0.0-15.0-0.10,62310,List2B,black,woman,,,,null,,,,
null,"<img src=""stim_listB/meet1.gif""</stim_listB>",,html-keyboard-response,169,941193,0.0-15.0-1.10,62310,List2B,black,woman,,,,null,,,,
null,is meeting,,html-keyboard-response,170,943195,0.0-15.0-2.10,62310,List2B,black,woman,,,,null,,,,
15693,,,survey-text,171,958889,0.0-15.0-3.10,62310,List2B,black,woman,,,,,"{""Q0"":""Jane and Dave is meeting ""}","<img src=""stim_listB/meet1.gif""</stim_listB>",is meeting,
null,"<div style=""font-size:60px;"">+</div>",,html-keyboard-response,172,959392,0.0-15.0-0.11,62310,List2B,black,woman,,,,null,,,,
null,"<img src=""stim_listB/argue3.gif""</stim_listB>",,html-keyboard-response,173,961395,0.0-15.0-1.11,62310,List2B,black,woman,,,,null,,,,
null,is arguing with,,html-keyboard-response,174,963396,0.0-15.0-2.11,62310,List2B,black,woman,,,,null,,,,
24037,,,survey-text,175,987435,0.0-15.0-3.11,62310,List2B,black,woman,,,,,"{""Q0"":""No one is arguing ""}","<img src=""stim_listB/argue3.gif""</stim_listB>",is arguing with,
null,"<div style=""font-size:60px;"">+</div>",,html-keyboard-response,176,987940,0.0-15.0-0.12,62310,List2B,black,woman,,,,null,,,,
null,"<img src=""stim_listB/marry1.gif""</stim_listB>",,html-keyboard-response,177,989945,0.0-15.0-1.12,62310,List2B,black,woman,,,,null,,,,
null,is marrying,,html-keyboard-response,178,991948,0.0-15.0-2.12,62310,List2B,black,woman,,,,null,,,,
16581,,,survey-text,179,1008531,0.0-15.0-3.12,62310,List2B,black,woman,,,,,"{""Q0"":""Dave and Ruth is marrying ""}","<img src=""stim_listB/marry1.gif""</stim_listB>",is marrying,
null,"<div style=""font-size:60px;"">+</div>",,html-keyboard-response,180,1009035,0.0-15.0-0.13,62310,List2B,black,woman,,,,null,,,,
null,"<img src=""stim_listB/kiss5.gif""</stim_listB>",,html-keyboard-response,181,1011037,0.0-15.0-1.13,62310,List2B,black,woman,,,,null,,,,
null,is kissing,,html-keyboard-response,182,1013039,0.0-15.0-2.13,62310,List2B,black,woman,,,,null,,,,
16830,,,survey-text,183,1029871,0.0-15.0-3.13,62310,List2B,black,woman,,,,,"{""Q0"":""Fred and Luke is kissing ""}","<img src=""stim_listB/kiss5.gif""</stim_listB>",is kissing,
null,"<div style=""font-size:60px;"">+</div>",,html-keyboard-response,184,1030374,0.0-15.0-0.14,62310,List2B,black,woman,,,,null,,,,
null,"<img src=""stim_listB/talk2.gif""</stim_listB>",,html-keyboard-response,185,1032380,0.0-15.0-1.14,62310,List2B,black,woman,,,,null,,,,
null,are talking to each other,,html-keyboard-response,186,1034382,0.0-15.0-2.14,62310,List2B,black,woman,,,,null,,,,
23504,,,survey-text,187,1057889,0.0-15.0-3.14,62310,List2B,black,woman,,,,,"{""Q0"":""Dave and Ruth are talking to each other ""}","<img src=""stim_listB/talk2.gif""</stim_listB>",are talking to each other,
null,"<div style=""font-size:60px;"">+</div>",,html-keyboard-response,188,1058392,0.0-15.0-0.15,62310,List2B,black,woman,,,,null,,,,
null,"<img src=""stim_listB/shout3.gif""</stim_listB>",,html-keyboard-response,189,1060394,0.0-15.0-1.15,62310,List2B,black,woman,,,,null,,,,
null,is shouting at,,html-keyboard-response,190,1062396,0.0-15.0-2.15,62310,List2B,black,woman,,,,null,,,,
21513,,,survey-text,191,1083911,0.0-15.0-3.15,62310,List2B,black,woman,,,,,"{""Q0"":""Fred is shouting at Beth""}","<img src=""stim_listB/shout3.gif""</stim_listB>",is shouting at,
null,"<div style=""font-size:60px;"">+</div>",,html-keyboard-response,192,1084415,0.0-15.0-0.16,62310,List2B,black,woman,,,,null,,,,
null,"<img src=""stim_listB/shout4.gif""</stim_listB>",,html-keyboard-response,193,1086417,0.0-15.0-1.16,62310,List2B,black,woman,,,,null,,,,
null,are shouting at each other,,html-keyboard-response,194,1088419,0.0-15.0-2.16,62310,List2B,black,woman,,,,null,,,,
26746,,,survey-text,195,1115167,0.0-15.0-3.16,62310,List2B,black,woman,,,,,"{""Q0"":""Kate and Mike is shouting at each other ""}","<img src=""stim_listB/shout4.gif""</stim_listB>",are shouting at each other,
null,"<div style=""font-size:60px;"">+</div>",,html-keyboard-response,196,1115671,0.0-15.0-0.17,62310,List2B,black,woman,,,,null,,,,
null,"<img src=""stim_listB/meet7.gif""</stim_listB>",,html-keyboard-response,197,1117673,0.0-15.0-1.17,62310,List2B,black,woman,,,,null,,,,
null,is meeting,,html-keyboard-response,198,1119675,0.0-15.0-2.17,62310,List2B,black,woman,,,,null,,,,
25228,,,survey-text,199,1144904,0.0-15.0-3.17,62310,List2B,black,woman,,,,,"{""Q0"":""Jane and Kate is meeting ""}","<img src=""stim_listB/meet7.gif""</stim_listB>",is meeting,
null,"<div style=""font-size:60px;"">+</div>",,html-keyboard-response,200,1145408,0.0-15.0-0.18,62310,List2B,black,woman,,,,null,,,,
null,"<img src=""stim_listB/dance7.gif""</stim_listB>",,html-keyboard-response,201,1147411,0.0-15.0-1.18,62310,List2B,black,woman,,,,null,,,,
null,is dancing with,,html-keyboard-response,202,1149413,0.0-15.0-2.18,62310,List2B,black,woman,,,,null,,,,
18009,,,survey-text,203,1167423,0.0-15.0-3.18,62310,List2B,black,woman,,,,,"{""Q0"":""Ruth is dancing with Kate ""}","<img src=""stim_listB/dance7.gif""</stim_listB>",is dancing with,
null,"<div style=""font-size:60px;"">+</div>",,html-keyboard-response,204,1167928,0.0-15.0-0.19,62310,List2B,black,woman,,,,null,,,,
null,"<img src=""stim_listB/marry7.gif""</stim_listB>",,html-keyboard-response,205,1169930,0.0-15.0-1.19,62310,List2B,black,woman,,,,null,,,,
null,is marrying,,html-keyboard-response,206,1171932,0.0-15.0-2.19,62310,List2B,black,woman,,,,null,,,,
16393,,,survey-text,207,1188326,0.0-15.0-3.19,62310,List2B,black,woman,,,,,"{""Q0"":""Beth is marrying Jane ""}","<img src=""stim_listB/marry7.gif""</stim_listB>",is marrying,
2531,"<img src='img/portrait_matrix_list2.JPG' style='width:900px;height:500px;''></img><p>If you have memorised all the portraits and names and are ready to start, press Continue.</p><p><strong>Please note: Your memory of these faces will be tested 4 times during this experiment.</strong></p>",0,html-button-response,208,1190860,0.0-16.0-0.0,62310,List2B,black,woman,,,,,,,,
4099,"<img src=""portrait/WW1.jpg""style=""width:400px;height:400px;""></img>",1,html-button-response,209,1195963,0.0-16.0-1.0,62310,List2B,black,woman,,TRUE,1,,,,,
null,CORRECT,,html-keyboard-response,210,1197467,0.0-16.0-2.0-0.0,62310,List2B,black,woman,,,,null,,,,
3279,"<img src=""portrait/WW2.jpg""style=""width:400px;height:400px;""></img>",3,html-button-response,211,1200747,0.0-16.0-4.0,62310,List2B,black,woman,,TRUE,3,,,,,
null,CORRECT,,html-keyboard-response,212,1202249,0.0-16.0-5.0-0.0,62310,List2B,black,woman,,,,null,,,,
3329,"<img src=""portrait/BW2.jpg""style=""width:400px;height:400px;""></img>",2,html-button-response,213,1205579,0.0-16.0-7.0,62310,List2B,black,woman,,TRUE,2,,,,,
null,CORRECT,,html-keyboard-response,214,1207082,0.0-16.0-8.0-0.0,62310,List2B,black,woman,,,,null,,,,
4155,"<img src=""portrait/WM1.jpg""style=""width:400px;height:400px;""></img>",6,html-button-response,215,1211240,0.0-16.0-10.0,62310,List2B,black,woman,,TRUE,6,,,,,
null,CORRECT,,html-keyboard-response,216,1212745,0.0-16.0-11.0-0.0,62310,List2B,black,woman,,,,null,,,,
7252,"<img src=""portrait/WM2.jpg""style=""width:400px;height:400px;""></img>",7,html-button-response,217,1220002,0.0-16.0-13.0,62310,List2B,black,woman,,TRUE,7,,,,,
null,CORRECT,,html-keyboard-response,218,1221507,0.0-16.0-14.0-0.0,62310,List2B,black,woman,,,,null,,,,
4157,"<img src=""portrait/BW1.jpg""style=""width:400px;height:400px;""></img>",0,html-button-response,219,1225666,0.0-16.0-16.0,62310,List2B,black,woman,,TRUE,0,,,,,
null,CORRECT,,html-keyboard-response,220,1227168,0.0-16.0-17.0-0.0,62310,List2B,black,woman,,,,null,,,,
4565,"<img src=""portrait/BM2.jpg""style=""width:400px;height:400px;""></img>",5,html-button-response,221,1231734,0.0-16.0-19.0,62310,List2B,black,woman,,TRUE,5,,,,,
null,CORRECT,,html-keyboard-response,222,1233237,0.0-16.0-20.0-0.0,62310,List2B,black,woman,,,,null,,,,
5664,"<img src=""portrait/BM1.jpg""style=""width:400px;height:400px;""></img>",4,html-button-response,223,1238905,0.0-16.0-22.0,62310,List2B,black,woman,,TRUE,4,,,,,
null,CORRECT,,html-keyboard-response,224,1240423,0.0-16.0-23.0-0.0,62310,List2B,black,woman,,,,null,,,,
1813,<p>You got 8 out of 8 right first time. Press Continue.</p>,0,html-button-response,225,1242247,0.0-16.0-25.0,62310,List2B,black,woman,,,,,,,,
null,"<div style=""font-size:60px;"">+</div>",,html-keyboard-response,226,1243753,0.0-17.0-0.0,62310,List2B,black,woman,,,,null,,,,
null,"<img src=""stim_listB/kiss2.gif""</stim_listB>",,html-keyboard-response,227,1245757,0.0-17.0-1.0,62310,List2B,black,woman,,,,null,,,,
null,are kissing each other,,html-keyboard-response,228,1247759,0.0-17.0-2.0,62310,List2B,black,woman,,,,null,,,,
18746,,,survey-text,229,1266507,0.0-17.0-3.0,62310,List2B,black,woman,,,,,"{""Q0"":""Jane and Kate is kissing each other ""}","<img src=""stim_listB/kiss2.gif""</stim_listB>",are kissing each other,
null,"<div style=""font-size:60px;"">+</div>",,html-keyboard-response,230,1267011,0.0-17.0-0.1,62310,List2B,black,woman,,,,null,,,,
null,"<img src=""stim_listB/hug4.gif""</stim_listB>",,html-keyboard-response,231,1269013,0.0-17.0-1.1,62310,List2B,black,woman,,,,null,,,,
null,are hugging each other,,html-keyboard-response,232,1271015,0.0-17.0-2.1,62310,List2B,black,woman,,,,null,,,,
18309,,,survey-text,233,1289328,0.0-17.0-3.1,62310,List2B,black,woman,,,,,"{""Q0"":""Kate and Mike is hugging each other ""}","<img src=""stim_listB/hug4.gif""</stim_listB>",are hugging each other,
null,"<div style=""font-size:60px;"">+</div>",,html-keyboard-response,234,1289832,0.0-17.0-0.2,62310,List2B,black,woman,,,,null,,,,
null,"<img src=""stim_listB/meet2.gif""</stim_listB>",,html-keyboard-response,235,1291833,0.0-17.0-1.2,62310,List2B,black,woman,,,,null,,,,
null,are meeting each other,,html-keyboard-response,236,1293835,0.0-17.0-2.2,62310,List2B,black,woman,,,,null,,,,
16855,,,survey-text,237,1310692,0.0-17.0-3.2,62310,List2B,black,woman,,,,,"{""Q0"":""Luke and Ruth are meeting each other ""}","<img src=""stim_listB/meet2.gif""</stim_listB>",are meeting each other,
null,"<div style=""font-size:60px;"">+</div>",,html-keyboard-response,238,1311201,0.0-17.0-0.3,62310,List2B,black,woman,,,,null,,,,
null,"<img src=""stim_listB/touch4.gif""</stim_listB>",,html-keyboard-response,239,1313207,0.0-17.0-1.3,62310,List2B,black,woman,,,,null,,,,
null,are touching each other,,html-keyboard-response,240,1315212,0.0-17.0-2.3,62310,List2B,black,woman,,,,null,,,,
21360,,,survey-text,241,1336576,0.0-17.0-3.3,62310,List2B,black,woman,,,,,"{""Q0"":""Fred and Beth are touching each other ""}","<img src=""stim_listB/touch4.gif""</stim_listB>",are touching each other,
null,"<div style=""font-size:60px;"">+</div>",,html-keyboard-response,242,1337080,0.0-17.0-0.4,62310,List2B,black,woman,,,,null,,,,
null,"<img src=""stim_listB/hug3.gif""</stim_listB>",,html-keyboard-response,243,1339084,0.0-17.0-1.4,62310,List2B,black,woman,,,,null,,,,
null,is hugging,,html-keyboard-response,244,1341088,0.0-17.0-2.4,62310,List2B,black,woman,,,,null,,,,
27266,,,survey-text,245,1368359,0.0-17.0-3.4,62310,List2B,black,woman,,,,,"{""Q0"":""Fred and Beth is hugging ""}","<img src=""stim_listB/hug3.gif""</stim_listB>",is hugging,
null,"<div style=""font-size:60px;"">+</div>",,html-keyboard-response,246,1368870,0.0-17.0-0.5,62310,List2B,black,woman,,,,null,,,,
null,"<img src=""stim_listB/argue4.gif""</stim_listB>",,html-keyboard-response,247,1370876,0.0-17.0-1.5,62310,List2B,black,woman,,,,null,,,,
null,are arguing with each other,,html-keyboard-response,248,1372892,0.0-17.0-2.5,62310,List2B,black,woman,,,,null,,,,
31096,,,survey-text,249,1403992,0.0-17.0-3.5,62310,List2B,black,woman,,,,,"{""Q0"":""Fred and Kate are arguing with each other ""}","<img src=""stim_listB/argue4.gif""</stim_listB>",are arguing with each other,
null,"<div style=""font-size:60px;"">+</div>",,html-keyboard-response,250,1404496,0.0-17.0-0.6,62310,List2B,black,woman,,,,null,,,,
null,"<img src=""stim_listB/talk8.gif""</stim_listB>",,html-keyboard-response,251,1406502,0.0-17.0-1.6,62310,List2B,black,woman,,,,null,,,,
null,are talking to each other,,html-keyboard-response,252,1408506,0.0-17.0-2.6,62310,List2B,black,woman,,,,null,,,,
16483,,,survey-text,253,1424993,0.0-17.0-3.6,62310,List2B,black,woman,,,,,"{""Q0"":""Jane and Beth are talking to each other ""}","<img src=""stim_listB/talk8.gif""</stim_listB>",are talking to each other,
null,"<div style=""font-size:60px;"">+</div>",,html-keyboard-response,254,1425498,0.0-17.0-0.7,62310,List2B,black,woman,,,,null,,,,
null,"<img src=""stim_listB/fight6.gif""</stim_listB>",,html-keyboard-response,255,1427502,0.0-17.0-1.7,62310,List2B,black,woman,,,,null,,,,
null,are fighting each other,,html-keyboard-response,256,1429507,0.0-17.0-2.7,62310,List2B,black,woman,,,,null,,,,
15367,,,survey-text,257,1444877,0.0-17.0-3.7,62310,List2B,black,woman,,,,,"{""Q0"":""No one is fighting each other ""}","<img src=""stim_listB/fight6.gif""</stim_listB>",are fighting each other,
null,"<div style=""font-size:60px;"">+</div>",,html-keyboard-response,258,1445382,0.0-17.0-0.8,62310,List2B,black,woman,,,,null,,,,
null,"<img src=""stim_listB/marry4.gif""</stim_listB>",,html-keyboard-response,259,1447386,0.0-17.0-1.8,62310,List2B,black,woman,,,,null,,,,
null,are marrying each other,,html-keyboard-response,260,1449390,0.0-17.0-2.8,62310,List2B,black,woman,,,,null,,,,
13522,,,survey-text,261,1462916,0.0-17.0-3.8,62310,List2B,black,woman,,,,,"{""Q0"":""Fred and Kate are marrying each other""}","<img src=""stim_listB/marry4.gif""</stim_listB>",are marrying each other,
null,"<div style=""font-size:60px;"">+</div>",,html-keyboard-response,262,1463420,0.0-17.0-0.9,62310,List2B,black,woman,,,,null,,,,
null,"<img src=""stim_listB/fight7.gif""</stim_listB>",,html-keyboard-response,263,1465425,0.0-17.0-1.9,62310,List2B,black,woman,,,,null,,,,
null,is fighting,,html-keyboard-response,264,1467430,0.0-17.0-2.9,62310,List2B,black,woman,,,,null,,,,
24986,,,survey-text,265,1492420,0.0-17.0-3.9,62310,List2B,black,woman,,,,,"{""Q0"":""Jane and Kate is fighting""}","<img src=""stim_listB/fight7.gif""</stim_listB>",is fighting,
null,"<div style=""font-size:60px;"">+</div>",,html-keyboard-response,266,1492926,0.0-17.0-0.10,62310,List2B,black,woman,,,,null,,,,
null,"<img src=""stim_listB/argue8.gif""</stim_listB>",,html-keyboard-response,267,1494933,0.0-17.0-1.10,62310,List2B,black,woman,,,,null,,,,
null,are arguing with each other,,html-keyboard-response,268,1496939,0.0-17.0-2.10,62310,List2B,black,woman,,,,null,,,,
11178,,,survey-text,269,1508121,0.0-17.0-3.10,62310,List2B,black,woman,,,,,"{""Q0"":""No one is arguing with each other ""}","<img src=""stim_listB/argue8.gif""</stim_listB>",are arguing with each other,
null,"<div style=""font-size:60px;"">+</div>",,html-keyboard-response,270,1508626,0.0-17.0-0.11,62310,List2B,black,woman,,,,null,,,,
null,"<img src=""stim_listB/dance3.gif""</stim_listB>",,html-keyboard-response,271,1510631,0.0-17.0-1.11,62310,List2B,black,woman,,,,null,,,,
null,is dancing with,,html-keyboard-response,272,1512636,0.0-17.0-2.11,62310,List2B,black,woman,,,,null,,,,
10435,,,survey-text,273,1523076,0.0-17.0-3.11,62310,List2B,black,woman,,,,,"{""Q0"":""No one is dancing with ""}","<img src=""stim_listB/dance3.gif""</stim_listB>",is dancing with,
null,"<div style=""font-size:60px;"">+</div>",,html-keyboard-response,274,1523580,0.0-17.0-0.12,62310,List2B,black,woman,,,,null,,,,
null,"<img src=""stim_listB/meet3.gif""</stim_listB>",,html-keyboard-response,275,1525585,0.0-17.0-1.12,62310,List2B,black,woman,,,,null,,,,
null,is meeting,,html-keyboard-response,276,1527590,0.0-17.0-2.12,62310,List2B,black,woman,,,,null,,,,
10756,,,survey-text,277,1538350,0.0-17.0-3.12,62310,List2B,black,woman,,,,,"{""Q0"":""No one is meeting""}","<img src=""stim_listB/meet3.gif""</stim_listB>",is meeting,
null,"<div style=""font-size:60px;"">+</div>",,html-keyboard-response,278,1538855,0.0-17.0-0.13,62310,List2B,black,woman,,,,null,,,,
null,"<img src=""stim_listB/marry8.gif""</stim_listB>",,html-keyboard-response,279,1540858,0.0-17.0-1.13,62310,List2B,black,woman,,,,null,,,,
null,are marrying each other,,html-keyboard-response,280,1542862,0.0-17.0-2.13,62310,List2B,black,woman,,,,null,,,,
19050,,,survey-text,281,1561916,0.0-17.0-3.13,62310,List2B,black,woman,,,,,"{""Q0"":""Ruth and Kate are marrying each other ""}","<img src=""stim_listB/marry8.gif""</stim_listB>",are marrying each other,
null,"<div style=""font-size:60px;"">+</div>",,html-keyboard-response,282,1562421,0.0-17.0-0.14,62310,List2B,black,woman,,,,null,,,,
null,"<img src=""stim_listB/argue5.gif""</stim_listB>",,html-keyboard-response,283,1564426,0.0-17.0-1.14,62310,List2B,black,woman,,,,null,,,,
null,is arguing with,,html-keyboard-response,284,1566431,0.0-17.0-2.14,62310,List2B,black,woman,,,,null,,,,
16459,,,survey-text,285,1582894,0.0-17.0-3.14,62310,List2B,black,woman,,,,,"{""Q0"":""Dave is arguing with Fred""}","<img src=""stim_listB/argue5.gif""</stim_listB>",is arguing with,
null,"<div style=""font-size:60px;"">+</div>",,html-keyboard-response,286,1583399,0.0-17.0-0.15,62310,List2B,black,woman,,,,null,,,,
null,"<img src=""stim_listB/fight8.gif""</stim_listB>",,html-keyboard-response,287,1585401,0.0-17.0-1.15,62310,List2B,black,woman,,,,null,,,,
null,are fighting each other,,html-keyboard-response,288,1587403,0.0-17.0-2.15,62310,List2B,black,woman,,,,null,,,,
20083,,,survey-text,289,1607497,0.0-17.0-3.15,62310,List2B,black,woman,,,,,"{""Q0"":""Ruth and Beth are fighting each other ""}","<img src=""stim_listB/fight8.gif""</stim_listB>",are fighting each other,
null,"<div style=""font-size:60px;"">+</div>",,html-keyboard-response,290,1607999,0.0-17.0-0.16,62310,List2B,black,woman,,,,null,,,,
null,"<img src=""stim_listB/touch7.gif""</stim_listB>",,html-keyboard-response,291,1610003,0.0-17.0-1.16,62310,List2B,black,woman,,,,null,,,,
null,is touching,,html-keyboard-response,292,1612003,0.0-17.0-2.16,62310,List2B,black,woman,,,,null,,,,
11079,,,survey-text,293,1623083,0.0-17.0-3.16,62310,List2B,black,woman,,,,,"{""Q0"":""Jane and Kate is touching ""}","<img src=""stim_listB/touch7.gif""</stim_listB>",is touching,
null,"<div style=""font-size:60px;"">+</div>",,html-keyboard-response,294,1623586,0.0-17.0-0.17,62310,List2B,black,woman,,,,null,,,,
null,"<img src=""stim_listB/touch1.gif""</stim_listB>",,html-keyboard-response,295,1625590,0.0-17.0-1.17,62310,List2B,black,woman,,,,null,,,,
null,is touching,,html-keyboard-response,296,1627594,0.0-17.0-2.17,62310,List2B,black,woman,,,,null,,,,
13904,,,survey-text,297,1641504,0.0-17.0-3.17,62310,List2B,black,woman,,,,,"{""Q0"":""Jane and Dave is touching ""}","<img src=""stim_listB/touch1.gif""</stim_listB>",is touching,
null,"<div style=""font-size:60px;"">+</div>",,html-keyboard-response,298,1642016,0.0-17.0-0.18,62310,List2B,black,woman,,,,null,,,,
null,"<img src=""stim_listB/dance8.gif""</stim_listB>",,html-keyboard-response,299,1644024,0.0-17.0-1.18,62310,List2B,black,woman,,,,null,,,,
null,are dancing with each other,,html-keyboard-response,300,1646029,0.0-17.0-2.18,62310,List2B,black,woman,,,,null,,,,
16899,,,survey-text,301,1662936,0.0-17.0-3.18,62310,List2B,black,woman,,,,,"{""Q0"":""Beth and Jane is dancing with each other ""}","<img src=""stim_listB/dance8.gif""</stim_listB>",are dancing with each other,
null,"<div style=""font-size:60px;"">+</div>",,html-keyboard-response,302,1663441,0.0-17.0-0.19,62310,List2B,black,woman,,,,null,,,,
null,"<img src=""stim_listB/fight5.gif""</stim_listB>",,html-keyboard-response,303,1665447,0.0-17.0-1.19,62310,List2B,black,woman,,,,null,,,,
null,is fighting,,html-keyboard-response,304,1667452,0.0-17.0-2.19,62310,List2B,black,woman,,,,null,,,,
11885,,,survey-text,305,1679344,0.0-17.0-3.19,62310,List2B,black,woman,,,,,"{""Q0"":""Mike and Dave is fighting ""}","<img src=""stim_listB/fight5.gif""</stim_listB>",is fighting,
1980,"<img src='img/portrait_matrix_list2.JPG' style='width:900px;height:500px;''></img><p>If you have memorised all the portraits and names and are ready to start, press Continue.</p><p><strong>Please note: Your memory of these faces will be tested 4 times during this experiment.</strong></p>",0,html-button-response,306,1681338,0.0-18.0-0.0,62310,List2B,black,woman,,,,,,,,
5076,"<img src=""portrait/BM1.jpg""style=""width:400px;height:400px;""></img>",4,html-button-response,307,1687422,0.0-18.0-1.0,62310,List2B,black,woman,,TRUE,4,,,,,
null,CORRECT,,html-keyboard-response,308,1688934,0.0-18.0-2.0-0.0,62310,List2B,black,woman,,,,null,,,,
3958,"<img src=""portrait/WM2.jpg""style=""width:400px;height:400px;""></img>",7,html-button-response,309,1692901,0.0-18.0-4.0,62310,List2B,black,woman,,TRUE,7,,,,,
null,CORRECT,,html-keyboard-response,310,1694407,0.0-18.0-5.0-0.0,62310,List2B,black,woman,,,,null,,,,
4076,"<img src=""portrait/BM2.jpg""style=""width:400px;height:400px;""></img>",5,html-button-response,311,1698490,0.0-18.0-7.0,62310,List2B,black,woman,,TRUE,5,,,,,
null,CORRECT,,html-keyboard-response,312,1699994,0.0-18.0-8.0-0.0,62310,List2B,black,woman,,,,null,,,,
4371,"<img src=""portrait/WW2.jpg""style=""width:400px;height:400px;""></img>",3,html-button-response,313,1704372,0.0-18.0-10.0,62310,List2B,black,woman,,TRUE,3,,,,,
null,CORRECT,,html-keyboard-response,314,1705878,0.0-18.0-11.0-0.0,62310,List2B,black,woman,,,,null,,,,
4839,"<img src=""portrait/WM1.jpg""style=""width:400px;height:400px;""></img>",6,html-button-response,315,1710725,0.0-18.0-13.0,62310,List2B,black,woman,,TRUE,6,,,,,
null,CORRECT,,html-keyboard-response,316,1712230,0.0-18.0-14.0-0.0,62310,List2B,black,woman,,,,null,,,,
5805,"<img src=""portrait/BW1.jpg""style=""width:400px;height:400px;""></img>",0,html-button-response,317,1718043,0.0-18.0-16.0,62310,List2B,black,woman,,TRUE,0,,,,,
null,CORRECT,,html-keyboard-response,318,1719547,0.0-18.0-17.0-0.0,62310,List2B,black,woman,,,,null,,,,
3888,"<img src=""portrait/BW2.jpg""style=""width:400px;height:400px;""></img>",2,html-button-response,319,1723442,0.0-18.0-19.0,62310,List2B,black,woman,,TRUE,2,,,,,
null,CORRECT,,html-keyboard-response,320,1724947,0.0-18.0-20.0-0.0,62310,List2B,black,woman,,,,null,,,,
4623,"<img src=""portrait/WW1.jpg""style=""width:400px;height:400px;""></img>",1,html-button-response,321,1729577,0.0-18.0-22.0,62310,List2B,black,woman,,TRUE,1,,,,,
null,CORRECT,,html-keyboard-response,322,1731082,0.0-18.0-23.0-0.0,62310,List2B,black,woman,,,,null,,,,
1554,<p>You got 8 out of 8 right first time. Press Continue.</p>,0,html-button-response,323,1732642,0.0-18.0-25.0,62310,List2B,black,woman,,,,,,,,
null,"<div style=""font-size:60px;"">+</div>",,html-keyboard-response,324,1734153,0.0-19.0-0.0,62310,List2B,black,woman,,,,null,,,,
null,"<img src=""stim_listB/dance1.gif""</stim_listB>",,html-keyboard-response,325,1736159,0.0-19.0-1.0,62310,List2B,black,woman,,,,null,,,,
null,is dancing with,,html-keyboard-response,326,1738164,0.0-19.0-2.0,62310,List2B,black,woman,,,,null,,,,
26857,,,survey-text,327,1765027,0.0-19.0-3.0,62310,List2B,black,woman,,,,,"{""Q0"":""Luke is dancing with Jane""}","<img src=""stim_listB/dance1.gif""</stim_listB>",is dancing with,
null,"<div style=""font-size:60px;"">+</div>",,html-keyboard-response,328,1765530,0.0-19.0-0.1,62310,List2B,black,woman,,,,null,,,,
null,"<img src=""stim_listB/shout5.gif""</stim_listB>",,html-keyboard-response,329,1767533,0.0-19.0-1.1,62310,List2B,black,woman,,,,null,,,,
null,is shouting at,,html-keyboard-response,330,1769536,0.0-19.0-2.1,62310,List2B,black,woman,,,,null,,,,
14631,,,survey-text,331,1784174,0.0-19.0-3.1,62310,List2B,black,woman,,,,,"{""Q0"":""Fred is shouting at Luke ""}","<img src=""stim_listB/shout5.gif""</stim_listB>",is shouting at,
null,"<div style=""font-size:60px;"">+</div>",,html-keyboard-response,332,1784678,0.0-19.0-0.2,62310,List2B,black,woman,,,,null,,,,
null,"<img src=""stim_listB/argue1.gif""</stim_listB>",,html-keyboard-response,333,1786684,0.0-19.0-1.2,62310,List2B,black,woman,,,,null,,,,
null,is arguing with,,html-keyboard-response,334,1788689,0.0-19.0-2.2,62310,List2B,black,woman,,,,null,,,,
10082,,,survey-text,335,1798775,0.0-19.0-3.2,62310,List2B,black,woman,,,,,"{""Q0"":""Dave is arguing with Ruth ""}","<img src=""stim_listB/argue1.gif""</stim_listB>",is arguing with,
null,"<div style=""font-size:60px;"">+</div>",,html-keyboard-response,336,1799280,0.0-19.0-0.3,62310,List2B,black,woman,,,,null,,,,
null,"<img src=""stim_listB/shout6.gif""</stim_listB>",,html-keyboard-response,337,1801285,0.0-19.0-1.3,62310,List2B,black,woman,,,,null,,,,
null,are shouting at each other,,html-keyboard-response,338,1803290,0.0-19.0-2.3,62310,List2B,black,woman,,,,null,,,,
23965,,,survey-text,339,1827261,0.0-19.0-3.3,62310,List2B,black,woman,,,,,"{""Q0"":""Mike and Dave is shouting at each other ""}","<img src=""stim_listB/shout6.gif""</stim_listB>",are shouting at each other,
null,"<div style=""font-size:60px;"">+</div>",,html-keyboard-response,340,1827766,0.0-19.0-0.4,62310,List2B,black,woman,,,,null,,,,
null,"<img src=""stim_listB/marry6.gif""</stim_listB>",,html-keyboard-response,341,1829772,0.0-19.0-1.4,62310,List2B,black,woman,,,,null,,,,
null,are marrying each other,,html-keyboard-response,342,1831777,0.0-19.0-2.4,62310,List2B,black,woman,,,,null,,,,
17149,,,survey-text,343,1848933,0.0-19.0-3.4,62310,List2B,black,woman,,,,,"{""Q0"":""Luke and Mike is marrying each other ""}","<img src=""stim_listB/marry6.gif""</stim_listB>",are marrying each other,
null,"<div style=""font-size:60px;"">+</div>",,html-keyboard-response,344,1849439,0.0-19.0-0.5,62310,List2B,black,woman,,,,null,,,,
null,"<img src=""stim_listB/kiss8.gif""</stim_listB>",,html-keyboard-response,345,1851444,0.0-19.0-1.5,62310,List2B,black,woman,,,,null,,,,
null,are kissing each other,,html-keyboard-response,346,1853448,0.0-19.0-2.5,62310,List2B,black,woman,,,,null,,,,
14183,,,survey-text,347,1867638,0.0-19.0-3.5,62310,List2B,black,woman,,,,,"{""Q0"":""Jane and Kate is kissing each other ""}","<img src=""stim_listB/kiss8.gif""</stim_listB>",are kissing each other,
null,"<div style=""font-size:60px;"">+</div>",,html-keyboard-response,348,1868141,0.0-19.0-0.6,62310,List2B,black,woman,,,,null,,,,
null,"<img src=""stim_listB/kiss1.gif""</stim_listB>",,html-keyboard-response,349,1870146,0.0-19.0-1.6,62310,List2B,black,woman,,,,null,,,,
null,is kissing,,html-keyboard-response,350,1872151,0.0-19.0-2.6,62310,List2B,black,woman,,,,null,,,,
8849,,,survey-text,351,1881004,0.0-19.0-3.6,62310,List2B,black,woman,,,,,"{""Q0"":""Luke and Ruth is kissing""}","<img src=""stim_listB/kiss1.gif""</stim_listB>",is kissing,
null,"<div style=""font-size:60px;"">+</div>",,html-keyboard-response,352,1881508,0.0-19.0-0.7,62310,List2B,black,woman,,,,null,,,,
null,"<img src=""stim_listB/dance5.gif""</stim_listB>",,html-keyboard-response,353,1883513,0.0-19.0-1.7,62310,List2B,black,woman,,,,null,,,,
null,is dancing with,,html-keyboard-response,354,1885515,0.0-19.0-2.7,62310,List2B,black,woman,,,,null,,,,
8034,,,survey-text,355,1893551,0.0-19.0-3.7,62310,List2B,black,woman,,,,,"{""Q0"":""Mike is dancing with Luke""}","<img src=""stim_listB/dance5.gif""</stim_listB>",is dancing with,
null,"<div style=""font-size:60px;"">+</div>",,html-keyboard-response,356,1894054,0.0-19.0-0.8,62310,List2B,black,woman,,,,null,,,,
null,"<img src=""stim_listB/dance4.gif""</stim_listB>",,html-keyboard-response,357,1896057,0.0-19.0-1.8,62310,List2B,black,woman,,,,null,,,,
null,are dancing with each other,,html-keyboard-response,358,1898062,0.0-19.0-2.8,62310,List2B,black,woman,,,,null,,,,
17691,,,survey-text,359,1915757,0.0-19.0-3.8,62310,List2B,black,woman,,,,,"{""Q0"":""Beth and Mike are dancing with each other ""}","<img src=""stim_listB/dance4.gif""</stim_listB>",are dancing with each other,
null,"<div style=""font-size:60px;"">+</div>",,html-keyboard-response,360,1916263,0.0-19.0-0.9,62310,List2B,black,woman,,,,null,,,,
null,"<img src=""stim_listB/talk7.gif""</stim_listB>",,html-keyboard-response,361,1918270,0.0-19.0-1.9,62310,List2B,black,woman,,,,null,,,,
null,is talking to,,html-keyboard-response,362,1920276,0.0-19.0-2.9,62310,List2B,black,woman,,,,null,,,,
14105,,,survey-text,363,1934386,0.0-19.0-3.9,62310,List2B,black,woman,,,,,"{""Q0"":""Kate is talking to Ruth ""}","<img src=""stim_listB/talk7.gif""</stim_listB>",is talking to,
null,"<div style=""font-size:60px;"">+</div>",,html-keyboard-response,364,1934890,0.0-19.0-0.10,62310,List2B,black,woman,,,,null,,,,
null,"<img src=""stim_listB/kiss6.gif""</stim_listB>",,html-keyboard-response,365,1936895,0.0-19.0-1.10,62310,List2B,black,woman,,,,null,,,,
null,are kissing each other,,html-keyboard-response,366,1938898,0.0-19.0-2.10,62310,List2B,black,woman,,,,null,,,,
18294,,,survey-text,367,1957196,0.0-19.0-3.10,62310,List2B,black,woman,,,,,"{""Q0"":""Dave and Fred is kissing each other ""}","<img src=""stim_listB/kiss6.gif""</stim_listB>",are kissing each other,
null,"<div style=""font-size:60px;"">+</div>",,html-keyboard-response,368,1957700,0.0-19.0-0.11,62310,List2B,black,woman,,,,null,,,,
null,"<img src=""stim_listB/meet4.gif""</stim_listB>",,html-keyboard-response,369,1959705,0.0-19.0-1.11,62310,List2B,black,woman,,,,null,,,,
null,are meeting each other,,html-keyboard-response,370,1961711,0.0-19.0-2.11,62310,List2B,black,woman,,,,null,,,,
20163,,,survey-text,371,1981878,0.0-19.0-3.11,62310,List2B,black,woman,,,,,"{""Q0"":""Ruth is meeting Fred""}","<img src=""stim_listB/meet4.gif""</stim_listB>",are meeting each other,
null,"<div style=""font-size:60px;"">+</div>",,html-keyboard-response,372,1982382,0.0-19.0-0.12,62310,List2B,black,woman,,,,null,,,,
null,"<img src=""stim_listB/marry3.gif""</stim_listB>",,html-keyboard-response,373,1984385,0.0-19.0-1.12,62310,List2B,black,woman,,,,null,,,,
null,is marrying,,html-keyboard-response,374,1986387,0.0-19.0-2.12,62310,List2B,black,woman,,,,null,,,,
10833,,,survey-text,375,1997223,0.0-19.0-3.12,62310,List2B,black,woman,,,,,"{""Q0"":""Mike and Beth is marrying ""}","<img src=""stim_listB/marry3.gif""</stim_listB>",is marrying,
null,"<div style=""font-size:60px;"">+</div>",,html-keyboard-response,376,1997728,0.0-19.0-0.13,62310,List2B,black,woman,,,,null,,,,
null,"<img src=""stim_listB/fight3.gif""</stim_listB>",,html-keyboard-response,377,1999733,0.0-19.0-1.13,62310,List2B,black,woman,,,,null,,,,
null,is fighting,,html-keyboard-response,378,2001736,0.0-19.0-2.13,62310,List2B,black,woman,,,,null,,,,
9545,,,survey-text,379,2011286,0.0-19.0-3.13,62310,List2B,black,woman,,,,,"{""Q0"":""Kate is fighting Mike""}","<img src=""stim_listB/fight3.gif""</stim_listB>",is fighting,
null,"<div style=""font-size:60px;"">+</div>",,html-keyboard-response,380,2011790,0.0-19.0-0.14,62310,List2B,black,woman,,,,null,,,,
null,"<img src=""stim_listB/meet5.gif""</stim_listB>",,html-keyboard-response,381,2013795,0.0-19.0-1.14,62310,List2B,black,woman,,,,null,,,,
null,is meeting,,html-keyboard-response,382,2015800,0.0-19.0-2.14,62310,List2B,black,woman,,,,null,,,,
14735,,,survey-text,383,2030540,0.0-19.0-3.14,62310,List2B,black,woman,,,,,"{""Q0"":""Dave and Mike is meeting ""}","<img src=""stim_listB/meet5.gif""</stim_listB>",is meeting,
null,"<div style=""font-size:60px;"">+</div>",,html-keyboard-response,384,2031047,0.0-19.0-0.15,62310,List2B,black,woman,,,,null,,,,
null,"<img src=""stim_listB/argue2.gif""</stim_listB>",,html-keyboard-response,385,2033052,0.0-19.0-1.15,62310,List2B,black,woman,,,,null,,,,
null,are arguing with each other,,html-keyboard-response,386,2035056,0.0-19.0-2.15,62310,List2B,black,woman,,,,null,,,,
46971,,,survey-text,387,2082032,0.0-19.0-3.15,62310,List2B,black,woman,,,,,"{""Q0"":""Luke and Jane is arguing with each other ""}","<img src=""stim_listB/argue2.gif""</stim_listB>",are arguing with each other,
null,"<div style=""font-size:60px;"">+</div>",,html-keyboard-response,388,2082540,0.0-19.0-0.16,62310,List2B,black,woman,,,,null,,,,
null,"<img src=""stim_listB/hug2.gif""</stim_listB>",,html-keyboard-response,389,2084545,0.0-19.0-1.16,62310,List2B,black,woman,,,,null,,,,
null,are hugging each other,,html-keyboard-response,390,2086550,0.0-19.0-2.16,62310,List2B,black,woman,,,,null,,,,
13228,,,survey-text,391,2099783,0.0-19.0-3.16,62310,List2B,black,woman,,,,,"{""Q0"":""Jane and Dave is hugging each other ""}","<img src=""stim_listB/hug2.gif""</stim_listB>",are hugging each other,
null,"<div style=""font-size:60px;"">+</div>",,html-keyboard-response,392,2100288,0.0-19.0-0.17,62310,List2B,black,woman,,,,null,,,,
null,"<img src=""stim_listB/talk1.gif""</stim_listB>",,html-keyboard-response,393,2102293,0.0-19.0-1.17,62310,List2B,black,woman,,,,null,,,,
null,is talking to,,html-keyboard-response,394,2104298,0.0-19.0-2.17,62310,List2B,black,woman,,,,null,,,,
11994,,,survey-text,395,2116296,0.0-19.0-3.17,62310,List2B,black,woman,,,,,"{""Q0"":""Luke is talking to Jane ""}","<img src=""stim_listB/talk1.gif""</stim_listB>",is talking to,
null,"<div style=""font-size:60px;"">+</div>",,html-keyboard-response,396,2116799,0.0-19.0-0.18,62310,List2B,black,woman,,,,null,,,,
null,"<img src=""stim_listB/fight1.gif""</stim_listB>",,html-keyboard-response,397,2118805,0.0-19.0-1.18,62310,List2B,black,woman,,,,null,,,,
null,is fighting,,html-keyboard-response,398,2120809,0.0-19.0-2.18,62310,List2B,black,woman,,,,null,,,,
9991,,,survey-text,399,2130804,0.0-19.0-3.18,62310,List2B,black,woman,,,,,"{""Q0"":""Dave and Jane is fighting ""}","<img src=""stim_listB/fight1.gif""</stim_listB>",is fighting,
null,"<div style=""font-size:60px;"">+</div>",,html-keyboard-response,400,2131308,0.0-19.0-0.19,62310,List2B,black,woman,,,,null,,,,
null,"<img src=""stim_listB/marry5.gif""</stim_listB>",,html-keyboard-response,401,2133313,0.0-19.0-1.19,62310,List2B,black,woman,,,,null,,,,
null,is marrying,,html-keyboard-response,402,2135318,0.0-19.0-2.19,62310,List2B,black,woman,,,,null,,,,
14107,,,survey-text,403,2149429,0.0-19.0-3.19,62310,List2B,black,woman,,,,,"{""Q0"":""Dave and Fred is marrying ""}","<img src=""stim_listB/marry5.gif""</stim_listB>",is marrying,
3027,<p>Thank you for completing that task.</p><p>The final part of this session is a short questionnaire.</p><p>Press Continue.</p>,0,html-button-response,404,2152462,0.0-20.0,62310,List2B,black,woman,,,,,,,,
30649,,,survey-text,405,2184120,0.0-21.0,62310,List2B,black,woman,,,,,"{""Q0"":""20"",""Q1"":""English "",""Q2"":""English "",""Q3"":""United States of America "",""Q4"":""Black"",""Q5"":""Female""}",,,demographics
45062,,,survey-likert,406,2229208,0.0-22.0,62310,List2B,black,woman,,,,,"{""Q0"":5,""Q1"":5,""Q2"":5,""Q3"":6,""Q4"":6,""Q5"":5,""Q6"":6,""Q7"":5,""Q8"":6,""Q9"":6,""Q10"":6,""Q11"":3,""Q12"":3,""Q13"":3}",,,likert_race
30990,,,survey-likert,407,2260218,0.0-23.0,62310,List2B,black,woman,,,,,"{""Q0"":5,""Q1"":5,""Q2"":6,""Q3"":6,""Q4"":6,""Q5"":6,""Q6"":6,""Q7"":6,""Q8"":6,""Q9"":6,""Q10"":1,""Q11"":1,""Q12"":1,""Q13"":1}",,,likert_gender
14714,,,survey-text,408,2274941,0.0-24.0,62310,List2B,black,woman,,,,,"{""Q0"":""ccc""}",,,worker_id
6686,,,external-html,409,2282079,0.0-25.0,62310,List2B,black,woman,debrief.html,,,,,,,
