rt,stimulus,button_pressed,trial_type,trial_index,time_elapsed,internal_node_id,subject,list,ppt_race,ppt_gender,url,first_guess,correct,key_press,responses,image_type,phrase_type,test_part
2513,Welcome to the experiment. Press Continue to begin.,0,html-button-response,0,2519,0.0-0.0,6261,List1B,white,woman,,,,,,,,
52506,,,external-html,1,56080,0.0-1.0,6261,List1B,white,woman,consent.html,,,,,,,
12807,"<p>On the next page, you will see portraits of 8 people and their names.</p><p>Your first task is to take a few minutes to memorise the names of these people.</p><p>You will have to recall their names during the rest of the experiment, so it is</p><p>essential that you try to memorise these people and their names as best as you can.</p><br><p><strong>You will then be tested on your memory of these names and portraits.</strong></p><br><p>The experiment will start after you have completed this memory test.</p><br><p>Ready?</p>",0,html-button-response,2,68890,0.0-2.0,6261,List1B,white,woman,,,,,,,,
24266,"<img src='img/portrait_matrix_list1.JPG' style='width:900px;height:500px;''></img><p>If you have memorised all the portraits and names and are ready to start, press Continue.</p><p><strong>Please note: Your memory of these faces will be tested 4 times during this experiment.</strong></p>",0,html-button-response,3,94162,0.0-3.0-0.0,6261,List1B,white,woman,,,,,,,,
6946,"<img src=""portrait/WW2.jpg""style=""width:400px;height:400px;""></img>",0,html-button-response,4,102116,0.0-3.0-1.0,6261,List1B,white,woman,,TRUE,3,,,,,
5352,"<img src=""portrait/WW2.jpg""style=""width:400px;height:400px;""></img>",3,html-button-response,5,108479,0.0-3.0-3.0-0.0,6261,List1B,white,woman,,FALSE,3,,,,,
null,CORRECT,,html-keyboard-response,6,109988,0.0-3.0-3.0-1.0-0.0,6261,List1B,white,woman,,,,null,,,,
4153,"<img src=""portrait/WM1.jpg""style=""width:400px;height:400px;""></img>",6,html-button-response,7,114146,0.0-3.0-4.0,6261,List1B,white,woman,,TRUE,6,,,,,
null,CORRECT,,html-keyboard-response,8,115651,0.0-3.0-5.0-0.0,6261,List1B,white,woman,,,,null,,,,
9766,"<img src=""portrait/BW2.jpg""style=""width:400px;height:400px;""></img>",2,html-button-response,9,125424,0.0-3.0-7.0,6261,List1B,white,woman,,TRUE,2,,,,,
null,CORRECT,,html-keyboard-response,10,126939,0.0-3.0-8.0-0.0,6261,List1B,white,woman,,,,null,,,,
3921,"<img src=""portrait/WW1.jpg""style=""width:400px;height:400px;""></img>",0,html-button-response,11,130867,0.0-3.0-10.0,6261,List1B,white,woman,,TRUE,1,,,,,
2842,"<img src=""portrait/WW1.jpg""style=""width:400px;height:400px;""></img>",1,html-button-response,12,134716,0.0-3.0-12.0-0.0,6261,List1B,white,woman,,FALSE,1,,,,,
null,CORRECT,,html-keyboard-response,13,136221,0.0-3.0-12.0-1.0-0.0,6261,List1B,white,woman,,,,null,,,,
7511,"<img src=""portrait/BW1.jpg""style=""width:400px;height:400px;""></img>",0,html-button-response,14,143738,0.0-3.0-13.0,6261,List1B,white,woman,,TRUE,0,,,,,
null,CORRECT,,html-keyboard-response,15,145252,0.0-3.0-14.0-0.0,6261,List1B,white,woman,,,,null,,,,
5042,"<img src=""portrait/BM1.jpg""style=""width:400px;height:400px;""></img>",4,html-button-response,16,150302,0.0-3.0-16.0,6261,List1B,white,woman,,TRUE,4,,,,,
null,CORRECT,,html-keyboard-response,17,151807,0.0-3.0-17.0-0.0,6261,List1B,white,woman,,,,null,,,,
2790,"<img src=""portrait/WM2.jpg""style=""width:400px;height:400px;""></img>",7,html-button-response,18,154601,0.0-3.0-19.0,6261,List1B,white,woman,,TRUE,7,,,,,
null,CORRECT,,html-keyboard-response,19,156106,0.0-3.0-20.0-0.0,6261,List1B,white,woman,,,,null,,,,
3340,"<img src=""portrait/BM2.jpg""style=""width:400px;height:400px;""></img>",5,html-button-response,20,159452,0.0-3.0-22.0,6261,List1B,white,woman,,TRUE,5,,,,,
null,CORRECT,,html-keyboard-response,21,160956,0.0-3.0-23.0-0.0,6261,List1B,white,woman,,,,null,,,,
2076,<p>You got 6 out of 8 right first time. Press Continue.</p>,0,html-button-response,22,163037,0.0-3.0-25.0,6261,List1B,white,woman,,,,,,,,
3162,"As you did not score 100%, the memory game will repeat. Press Continue.",0,html-button-response,23,167203,0.0-3.0-26.0-0.0,6261,List1B,white,woman,,,,,,,,
11226,"<img src='img/portrait_matrix_list1.JPG' style='width:900px;height:500px;''></img><p>If you have memorised all the portraits and names and are ready to start, press Continue.</p><p><strong>Please note: Your memory of these faces will be tested 4 times during this experiment.</strong></p>",0,html-button-response,24,179439,0.0-3.1-0.1,6261,List1B,white,woman,,,,,,,,
2243,"<img src=""portrait/WW2.jpg""style=""width:400px;height:400px;""></img>",1,html-button-response,25,182689,0.0-3.1-1.1,6261,List1B,white,woman,,TRUE,3,,,,,
2679,"<img src=""portrait/WW2.jpg""style=""width:400px;height:400px;""></img>",3,html-button-response,26,186374,0.0-3.1-3.1-0.1,6261,List1B,white,woman,,FALSE,3,,,,,
null,CORRECT,,html-keyboard-response,27,187880,0.0-3.1-3.1-1.1-0.1,6261,List1B,white,woman,,,,null,,,,
2320,"<img src=""portrait/WM1.jpg""style=""width:400px;height:400px;""></img>",6,html-button-response,28,190205,0.0-3.1-4.1,6261,List1B,white,woman,,TRUE,6,,,,,
null,CORRECT,,html-keyboard-response,29,191709,0.0-3.1-5.1-0.1,6261,List1B,white,woman,,,,null,,,,
3027,"<img src=""portrait/BW2.jpg""style=""width:400px;height:400px;""></img>",0,html-button-response,30,194741,0.0-3.1-7.1,6261,List1B,white,woman,,TRUE,2,,,,,
2260,"<img src=""portrait/BW2.jpg""style=""width:400px;height:400px;""></img>",2,html-button-response,31,198007,0.0-3.1-9.1-0.1,6261,List1B,white,woman,,FALSE,2,,,,,
null,CORRECT,,html-keyboard-response,32,199511,0.0-3.1-9.1-1.1-0.1,6261,List1B,white,woman,,,,null,,,,
9689,"<img src=""portrait/WW1.jpg""style=""width:400px;height:400px;""></img>",1,html-button-response,33,209205,0.0-3.1-10.1,6261,List1B,white,woman,,TRUE,1,,,,,
null,CORRECT,,html-keyboard-response,34,210709,0.0-3.1-11.1-0.1,6261,List1B,white,woman,,,,null,,,,
1727,"<img src=""portrait/BW1.jpg""style=""width:400px;height:400px;""></img>",0,html-button-response,35,212438,0.0-3.1-13.1,6261,List1B,white,woman,,TRUE,0,,,,,
null,CORRECT,,html-keyboard-response,36,213941,0.0-3.1-14.1-0.1,6261,List1B,white,woman,,,,null,,,,
2296,"<img src=""portrait/BM1.jpg""style=""width:400px;height:400px;""></img>",5,html-button-response,37,216238,0.0-3.1-16.1,6261,List1B,white,woman,,TRUE,4,,,,,
1983,"<img src=""portrait/BM1.jpg""style=""width:400px;height:400px;""></img>",4,html-button-response,38,219224,0.0-3.1-18.1-0.1,6261,List1B,white,woman,,FALSE,4,,,,,
null,CORRECT,,html-keyboard-response,39,220726,0.0-3.1-18.1-1.1-0.1,6261,List1B,white,woman,,,,null,,,,
3549,"<img src=""portrait/WM2.jpg""style=""width:400px;height:400px;""></img>",7,html-button-response,40,224277,0.0-3.1-19.1,6261,List1B,white,woman,,TRUE,7,,,,,
null,CORRECT,,html-keyboard-response,41,225781,0.0-3.1-20.1-0.1,6261,List1B,white,woman,,,,null,,,,
1606,"<img src=""portrait/BM2.jpg""style=""width:400px;height:400px;""></img>",5,html-button-response,42,227392,0.0-3.1-22.1,6261,List1B,white,woman,,TRUE,5,,,,,
null,CORRECT,,html-keyboard-response,43,228897,0.0-3.1-23.1-0.1,6261,List1B,white,woman,,,,null,,,,
1308,<p>You got 5 out of 8 right first time. Press Continue.</p>,0,html-button-response,44,230210,0.0-3.1-25.1,6261,List1B,white,woman,,,,,,,,
1246,"As you did not score 100%, the memory game will repeat. Press Continue.",0,html-button-response,45,232461,0.0-3.1-26.1-0.1,6261,List1B,white,woman,,,,,,,,
5425,"<img src='img/portrait_matrix_list1.JPG' style='width:900px;height:500px;''></img><p>If you have memorised all the portraits and names and are ready to start, press Continue.</p><p><strong>Please note: Your memory of these faces will be tested 4 times during this experiment.</strong></p>",0,html-button-response,46,238895,0.0-3.2-0.2,6261,List1B,white,woman,,,,,,,,
4030,"<img src=""portrait/WW2.jpg""style=""width:400px;height:400px;""></img>",3,html-button-response,47,243931,0.0-3.2-1.2,6261,List1B,white,woman,,TRUE,3,,,,,
null,CORRECT,,html-keyboard-response,48,245435,0.0-3.2-2.2-0.2,6261,List1B,white,woman,,,,null,,,,
2158,"<img src=""portrait/WM1.jpg""style=""width:400px;height:400px;""></img>",6,html-button-response,49,247598,0.0-3.2-4.2,6261,List1B,white,woman,,TRUE,6,,,,,
null,CORRECT,,html-keyboard-response,50,249102,0.0-3.2-5.2-0.2,6261,List1B,white,woman,,,,null,,,,
10563,"<img src=""portrait/BW2.jpg""style=""width:400px;height:400px;""></img>",2,html-button-response,51,259671,0.0-3.2-7.2,6261,List1B,white,woman,,TRUE,2,,,,,
null,CORRECT,,html-keyboard-response,52,261186,0.0-3.2-8.2-0.2,6261,List1B,white,woman,,,,null,,,,
6942,"<img src=""portrait/WW1.jpg""style=""width:400px;height:400px;""></img>",1,html-button-response,53,268138,0.0-3.2-10.2,6261,List1B,white,woman,,TRUE,1,,,,,
null,CORRECT,,html-keyboard-response,54,269653,0.0-3.2-11.2-0.2,6261,List1B,white,woman,,,,null,,,,
2705,"<img src=""portrait/BW1.jpg""style=""width:400px;height:400px;""></img>",0,html-button-response,55,272367,0.0-3.2-13.2,6261,List1B,white,woman,,TRUE,0,,,,,
null,CORRECT,,html-keyboard-response,56,273872,0.0-3.2-14.2-0.2,6261,List1B,white,woman,,,,null,,,,
6878,"<img src=""portrait/BM1.jpg""style=""width:400px;height:400px;""></img>",4,html-button-response,57,280757,0.0-3.2-16.2,6261,List1B,white,woman,,TRUE,4,,,,,
null,CORRECT,,html-keyboard-response,58,282272,0.0-3.2-17.2-0.2,6261,List1B,white,woman,,,,null,,,,
6675,"<img src=""portrait/WM2.jpg""style=""width:400px;height:400px;""></img>",7,html-button-response,59,288956,0.0-3.2-19.2,6261,List1B,white,woman,,TRUE,7,,,,,
null,CORRECT,,html-keyboard-response,60,290471,0.0-3.2-20.2-0.2,6261,List1B,white,woman,,,,null,,,,
5811,"<img src=""portrait/BM2.jpg""style=""width:400px;height:400px;""></img>",5,html-button-response,61,296292,0.0-3.2-22.2,6261,List1B,white,woman,,TRUE,5,,,,,
null,CORRECT,,html-keyboard-response,62,297807,0.0-3.2-23.2-0.2,6261,List1B,white,woman,,,,null,,,,
1522,<p>You got 8 out of 8 right first time. Press Continue.</p>,0,html-button-response,63,299336,0.0-3.2-25.2,6261,List1B,white,woman,,,,,,,,
23795,"<p>In this experiment, you will view photographs of the people from the memory game interacting.</p><p>By using the <strong>exact</strong> phrase given <i>after</i> the photograph appears and recalling the correct names of the people in the photographs, form a sentence describing the interaction. You do not need to capitalise names.</p><p>Type your answer in the space provided. Please complete every sentence before moving onto the next trial.</p><p>You will only have a few seconds to memorise each given photograph and phrase before you can respond, so try your best to focus.</p><p>An example is given below. Press 'Continue' when you are ready.</p><img src='img/speaking_example_v2.jpg' style='width:800px;height:460px;''></img>",0,html-button-response,64,324139,0.0-4.0,6261,List1B,white,woman,,,,,,,,
2580,"<p>Before the experiment starts, you will watch two example trials. Press 'Continue'.</p>",0,html-button-response,65,327723,0.0-5.0,6261,List1B,white,woman,,,,,,,,
null,<img src='img/speaking_WW.gif'></img>,,html-keyboard-response,66,330729,0.0-6.0,6261,List1B,white,woman,,,,null,,,,
null,<p>is speaking to</p>,,html-keyboard-response,67,332732,0.0-7.0,6261,List1B,white,woman,,,,null,,,,
3007,<p><b>Answer:</b> kate is speaking to beth</p>,0,html-button-response,68,335741,0.0-8.0,6261,List1B,white,woman,,,,,,,,
null,<img src='img/pointing_BM.gif'></img>,,html-keyboard-response,69,338747,0.0-9.0,6261,List1B,white,woman,,,,null,,,,
null,<p>are pointing at each other</p>,,html-keyboard-response,70,340750,0.0-10.0,6261,List1B,white,woman,,,,null,,,,
1689,<p><b>Answer:</b> luke and dave are pointing at each other</p>,0,html-button-response,71,342442,0.0-11.0,6261,List1B,white,woman,,,,,,,,
4079,"<p>Ready to start the experiment?</p><br><p><strong>Remember to describe the picture using a full sentence,</strong></p><p><strong>that combines the names of the people with the given phrase.</strong></p><p><strong>If you do not do this correctly you will not be paid.</strong></p><p><strong> You do not need to capitalise names or use punctuation.</strong></p><br><p>Press 'Continue' to begin.</p>",0,html-button-response,72,347525,0.0-12.0,6261,List1B,white,woman,,,,,,,,
null,"<div style=""font-size:60px;"">+</div>",,html-keyboard-response,73,349030,0.0-13.0-0.0,6261,List1B,white,woman,,,,null,,,,
null,"<img src=""stim_listB/shout8.gif""</stim_listB>",,html-keyboard-response,74,351035,0.0-13.0-1.0,6261,List1B,white,woman,,,,null,,,,
null,are shouting at each other,,html-keyboard-response,75,353040,0.0-13.0-2.0,6261,List1B,white,woman,,,,null,,,,
15956,,,survey-text,76,369002,0.0-13.0-3.0,6261,List1B,white,woman,,,,,"{""Q0"":""Kate and Jane are shouting at each other""}","<img src=""stim_listB/shout8.gif""</stim_listB>",are shouting at each other,
null,"<div style=""font-size:60px;"">+</div>",,html-keyboard-response,77,369512,0.0-13.0-0.1,6261,List1B,white,woman,,,,null,,,,
null,"<img src=""stim_listB/talk3.gif""</stim_listB>",,html-keyboard-response,78,371518,0.0-13.0-1.1,6261,List1B,white,woman,,,,null,,,,
null,is talking to,,html-keyboard-response,79,373522,0.0-13.0-2.1,6261,List1B,white,woman,,,,null,,,,
9641,,,survey-text,80,383169,0.0-13.0-3.1,6261,List1B,white,woman,,,,,"{""Q0"":""Jane is talking to Luke""}","<img src=""stim_listB/talk3.gif""</stim_listB>",is talking to,
null,"<div style=""font-size:60px;"">+</div>",,html-keyboard-response,81,383680,0.0-13.0-0.2,6261,List1B,white,woman,,,,null,,,,
null,"<img src=""stim_listB/argue8.gif""</stim_listB>",,html-keyboard-response,82,385685,0.0-13.0-1.2,6261,List1B,white,woman,,,,null,,,,
null,are arguing with each other,,html-keyboard-response,83,387689,0.0-13.0-2.2,6261,List1B,white,woman,,,,null,,,,
14278,,,survey-text,84,401973,0.0-13.0-3.2,6261,List1B,white,woman,,,,,"{""Q0"":""Jane and Beth are arguing with each other ""}","<img src=""stim_listB/argue8.gif""</stim_listB>",are arguing with each other,
null,"<div style=""font-size:60px;"">+</div>",,html-keyboard-response,85,402482,0.0-13.0-0.3,6261,List1B,white,woman,,,,null,,,,
null,"<img src=""stim_listB/kiss7.gif""</stim_listB>",,html-keyboard-response,86,404488,0.0-13.0-1.3,6261,List1B,white,woman,,,,null,,,,
null,is kissing,,html-keyboard-response,87,406492,0.0-13.0-2.3,6261,List1B,white,woman,,,,null,,,,
11942,,,survey-text,88,418440,0.0-13.0-3.3,6261,List1B,white,woman,,,,,"{""Q0"":""Beth is kissing Ruth""}","<img src=""stim_listB/kiss7.gif""</stim_listB>",is kissing,
null,"<div style=""font-size:60px;"">+</div>",,html-keyboard-response,89,418950,0.0-13.0-0.4,6261,List1B,white,woman,,,,null,,,,
null,"<img src=""stim_listB/shout4.gif""</stim_listB>",,html-keyboard-response,90,420955,0.0-13.0-1.4,6261,List1B,white,woman,,,,null,,,,
null,are shouting at each other,,html-keyboard-response,91,422960,0.0-13.0-2.4,6261,List1B,white,woman,,,,null,,,,
13678,,,survey-text,92,436644,0.0-13.0-3.4,6261,List1B,white,woman,,,,,"{""Q0"":""Dave and Jane are shouting at each other ""}","<img src=""stim_listB/shout4.gif""</stim_listB>",are shouting at each other,
null,"<div style=""font-size:60px;"">+</div>",,html-keyboard-response,93,437154,0.0-13.0-0.5,6261,List1B,white,woman,,,,null,,,,
null,"<img src=""stim_listB/meet2.gif""</stim_listB>",,html-keyboard-response,94,439160,0.0-13.0-1.5,6261,List1B,white,woman,,,,null,,,,
null,are meeting each other,,html-keyboard-response,95,441165,0.0-13.0-2.5,6261,List1B,white,woman,,,,null,,,,
13456,,,survey-text,96,454630,0.0-13.0-3.5,6261,List1B,white,woman,,,,,"{""Q0"":""Beth and Fred are meeting each other ""}","<img src=""stim_listB/meet2.gif""</stim_listB>",are meeting each other,
null,"<div style=""font-size:60px;"">+</div>",,html-keyboard-response,97,455141,0.0-13.0-0.6,6261,List1B,white,woman,,,,null,,,,
null,"<img src=""stim_listB/touch2.gif""</stim_listB>",,html-keyboard-response,98,457146,0.0-13.0-1.6,6261,List1B,white,woman,,,,null,,,,
null,are touching each other,,html-keyboard-response,99,459151,0.0-13.0-2.6,6261,List1B,white,woman,,,,null,,,,
15474,,,survey-text,100,474631,0.0-13.0-3.6,6261,List1B,white,woman,,,,,"{""Q0"":""Beth and Fred are touching each other ""}","<img src=""stim_listB/touch2.gif""</stim_listB>",are touching each other,
null,"<div style=""font-size:60px;"">+</div>",,html-keyboard-response,101,475142,0.0-13.0-0.7,6261,List1B,white,woman,,,,null,,,,
null,"<img src=""stim_listB/talk8.gif""</stim_listB>",,html-keyboard-response,102,477147,0.0-13.0-1.7,6261,List1B,white,woman,,,,null,,,,
null,are talking to each other,,html-keyboard-response,103,479152,0.0-13.0-2.7,6261,List1B,white,woman,,,,null,,,,
19253,,,survey-text,104,498410,0.0-13.0-3.7,6261,List1B,white,woman,,,,,"{""Q0"":""Kate and Ruth are talking to each other ""}","<img src=""stim_listB/talk8.gif""</stim_listB>",are talking to each other,
null,"<div style=""font-size:60px;"">+</div>",,html-keyboard-response,105,498912,0.0-13.0-0.8,6261,List1B,white,woman,,,,null,,,,
null,"<img src=""stim_listB/fight4.gif""</stim_listB>",,html-keyboard-response,106,500914,0.0-13.0-1.8,6261,List1B,white,woman,,,,null,,,,
null,are fighting each other,,html-keyboard-response,107,502916,0.0-13.0-2.8,6261,List1B,white,woman,,,,null,,,,
14893,,,survey-text,108,517810,0.0-13.0-3.8,6261,List1B,white,woman,,,,,"{""Q0"":""Ruth and Luke are fighting each other ""}","<img src=""stim_listB/fight4.gif""</stim_listB>",are fighting each other,
null,"<div style=""font-size:60px;"">+</div>",,html-keyboard-response,109,518313,0.0-13.0-0.9,6261,List1B,white,woman,,,,null,,,,
null,"<img src=""stim_listB/dance3.gif""</stim_listB>",,html-keyboard-response,110,520315,0.0-13.0-1.9,6261,List1B,white,woman,,,,null,,,,
null,is dancing with,,html-keyboard-response,111,522317,0.0-13.0-2.9,6261,List1B,white,woman,,,,null,,,,
16977,,,survey-text,112,539296,0.0-13.0-3.9,6261,List1B,white,woman,,,,,"{""Q0"":""Jane is dancing with Luke""}","<img src=""stim_listB/dance3.gif""</stim_listB>",is dancing with,
null,"<div style=""font-size:60px;"">+</div>",,html-keyboard-response,113,539799,0.0-13.0-0.10,6261,List1B,white,woman,,,,null,,,,
null,"<img src=""stim_listB/fight5.gif""</stim_listB>",,html-keyboard-response,114,541801,0.0-13.0-1.10,6261,List1B,white,woman,,,,null,,,,
null,is fighting,,html-keyboard-response,115,543803,0.0-13.0-2.10,6261,List1B,white,woman,,,,null,,,,
9211,,,survey-text,116,553015,0.0-13.0-3.10,6261,List1B,white,woman,,,,,"{""Q0"":""Dave is fighting Mike""}","<img src=""stim_listB/fight5.gif""</stim_listB>",is fighting,
null,"<div style=""font-size:60px;"">+</div>",,html-keyboard-response,117,553518,0.0-13.0-0.11,6261,List1B,white,woman,,,,null,,,,
null,"<img src=""stim_listB/marry6.gif""</stim_listB>",,html-keyboard-response,118,555520,0.0-13.0-1.11,6261,List1B,white,woman,,,,null,,,,
null,are marrying each other,,html-keyboard-response,119,557522,0.0-13.0-2.11,6261,List1B,white,woman,,,,null,,,,
12060,,,survey-text,120,569584,0.0-13.0-3.11,6261,List1B,white,woman,,,,,"{""Q0"":""Fred and Dave are marrying each other ""}","<img src=""stim_listB/marry6.gif""</stim_listB>",are marrying each other,
null,"<div style=""font-size:60px;"">+</div>",,html-keyboard-response,121,570087,0.0-13.0-0.12,6261,List1B,white,woman,,,,null,,,,
null,"<img src=""stim_listB/hug6.gif""</stim_listB>",,html-keyboard-response,122,572090,0.0-13.0-1.12,6261,List1B,white,woman,,,,null,,,,
null,are hugging each other,,html-keyboard-response,123,574094,0.0-13.0-2.12,6261,List1B,white,woman,,,,null,,,,
15162,,,survey-text,124,589262,0.0-13.0-3.12,6261,List1B,white,woman,,,,,"{""Q0"":""Dave and Mike are hugging each other""}","<img src=""stim_listB/hug6.gif""</stim_listB>",are hugging each other,
null,"<div style=""font-size:60px;"">+</div>",,html-keyboard-response,125,589773,0.0-13.0-0.13,6261,List1B,white,woman,,,,null,,,,
null,"<img src=""stim_listB/touch8.gif""</stim_listB>",,html-keyboard-response,126,591779,0.0-13.0-1.13,6261,List1B,white,woman,,,,null,,,,
null,are touching each other,,html-keyboard-response,127,593783,0.0-13.0-2.13,6261,List1B,white,woman,,,,null,,,,
11324,,,survey-text,128,605114,0.0-13.0-3.13,6261,List1B,white,woman,,,,,"{""Q0"":""Beth and Ruth are touching each other""}","<img src=""stim_listB/touch8.gif""</stim_listB>",are touching each other,
null,"<div style=""font-size:60px;"">+</div>",,html-keyboard-response,129,605624,0.0-13.0-0.14,6261,List1B,white,woman,,,,null,,,,
null,"<img src=""stim_listB/meet8.gif""</stim_listB>",,html-keyboard-response,130,607630,0.0-13.0-1.14,6261,List1B,white,woman,,,,null,,,,
null,are meeting each other,,html-keyboard-response,131,609635,0.0-13.0-2.14,6261,List1B,white,woman,,,,null,,,,
12408,,,survey-text,132,622050,0.0-13.0-3.14,6261,List1B,white,woman,,,,,"{""Q0"":""Beth and Ruth are meeting each other""}","<img src=""stim_listB/meet8.gif""</stim_listB>",are meeting each other,
null,"<div style=""font-size:60px;"">+</div>",,html-keyboard-response,133,622559,0.0-13.0-0.15,6261,List1B,white,woman,,,,null,,,,
null,"<img src=""stim_listB/meet5.gif""</stim_listB>",,html-keyboard-response,134,624564,0.0-13.0-1.15,6261,List1B,white,woman,,,,null,,,,
null,is meeting,,html-keyboard-response,135,626569,0.0-13.0-2.15,6261,List1B,white,woman,,,,null,,,,
7179,,,survey-text,136,633753,0.0-13.0-3.15,6261,List1B,white,woman,,,,,"{""Q0"":""Dave is meeting Mike""}","<img src=""stim_listB/meet5.gif""</stim_listB>",is meeting,
null,"<div style=""font-size:60px;"">+</div>",,html-keyboard-response,137,634263,0.0-13.0-0.16,6261,List1B,white,woman,,,,null,,,,
null,"<img src=""stim_listB/dance8.gif""</stim_listB>",,html-keyboard-response,138,636269,0.0-13.0-1.16,6261,List1B,white,woman,,,,null,,,,
null,are dancing with each other,,html-keyboard-response,139,638273,0.0-13.0-2.16,6261,List1B,white,woman,,,,null,,,,
11560,,,survey-text,140,649841,0.0-13.0-3.16,6261,List1B,white,woman,,,,,"{""Q0"":""Ruth and Kate are dancing with each other""}","<img src=""stim_listB/dance8.gif""</stim_listB>",are dancing with each other,
null,"<div style=""font-size:60px;"">+</div>",,html-keyboard-response,141,650350,0.0-13.0-0.17,6261,List1B,white,woman,,,,null,,,,
null,"<img src=""stim_listB/kiss6.gif""</stim_listB>",,html-keyboard-response,142,652357,0.0-13.0-1.17,6261,List1B,white,woman,,,,null,,,,
null,are kissing each other,,html-keyboard-response,143,654361,0.0-13.0-2.17,6261,List1B,white,woman,,,,null,,,,
13448,,,survey-text,144,667814,0.0-13.0-3.17,6261,List1B,white,woman,,,,,"{""Q0"":""Mike and dave are kissing each other ""}","<img src=""stim_listB/kiss6.gif""</stim_listB>",are kissing each other,
null,"<div style=""font-size:60px;"">+</div>",,html-keyboard-response,145,668316,0.0-13.0-0.18,6261,List1B,white,woman,,,,null,,,,
null,"<img src=""stim_listB/hug4.gif""</stim_listB>",,html-keyboard-response,146,670318,0.0-13.0-1.18,6261,List1B,white,woman,,,,null,,,,
null,are hugging each other,,html-keyboard-response,147,672320,0.0-13.0-2.18,6261,List1B,white,woman,,,,null,,,,
9326,,,survey-text,148,681647,0.0-13.0-3.18,6261,List1B,white,woman,,,,,"{""Q0"":""Ruth and Dave are cuddling each other""}","<img src=""stim_listB/hug4.gif""</stim_listB>",are hugging each other,
null,"<div style=""font-size:60px;"">+</div>",,html-keyboard-response,149,682149,0.0-13.0-0.19,6261,List1B,white,woman,,,,null,,,,
null,"<img src=""stim_listB/kiss8.gif""</stim_listB>",,html-keyboard-response,150,684151,0.0-13.0-1.19,6261,List1B,white,woman,,,,null,,,,
null,are kissing each other,,html-keyboard-response,151,686153,0.0-13.0-2.19,6261,List1B,white,woman,,,,null,,,,
10837,,,survey-text,152,696992,0.0-13.0-3.19,6261,List1B,white,woman,,,,,"{""Q0"":""Ruth and Kate are kissing each other""}","<img src=""stim_listB/kiss8.gif""</stim_listB>",are kissing each other,
10106,"<img src='img/portrait_matrix_list1.JPG' style='width:900px;height:500px;''></img><p>If you have memorised all the portraits and names and are ready to start, press Continue.</p><p><strong>Please note: Your memory of these faces will be tested 4 times during this experiment.</strong></p>",0,html-button-response,153,707107,0.0-14.0-0.0,6261,List1B,white,woman,,,,,,,,
3525,"<img src=""portrait/WM1.jpg""style=""width:400px;height:400px;""></img>",6,html-button-response,154,711638,0.0-14.0-1.0,6261,List1B,white,woman,,TRUE,6,,,,,
null,CORRECT,,html-keyboard-response,155,713149,0.0-14.0-2.0-0.0,6261,List1B,white,woman,,,,null,,,,
2184,"<img src=""portrait/BW2.jpg""style=""width:400px;height:400px;""></img>",0,html-button-response,156,715339,0.0-14.0-4.0,6261,List1B,white,woman,,TRUE,2,,,,,
2828,"<img src=""portrait/BW2.jpg""style=""width:400px;height:400px;""></img>",2,html-button-response,157,719174,0.0-14.0-6.0-0.0,6261,List1B,white,woman,,FALSE,2,,,,,
null,CORRECT,,html-keyboard-response,158,720679,0.0-14.0-6.0-1.0-0.0,6261,List1B,white,woman,,,,null,,,,
3355,"<img src=""portrait/WW1.jpg""style=""width:400px;height:400px;""></img>",1,html-button-response,159,724040,0.0-14.0-7.0,6261,List1B,white,woman,,TRUE,1,,,,,
null,CORRECT,,html-keyboard-response,160,725544,0.0-14.0-8.0-0.0,6261,List1B,white,woman,,,,null,,,,
2308,"<img src=""portrait/BW1.jpg""style=""width:400px;height:400px;""></img>",0,html-button-response,161,727856,0.0-14.0-10.0,6261,List1B,white,woman,,TRUE,0,,,,,
null,CORRECT,,html-keyboard-response,162,729362,0.0-14.0-11.0-0.0,6261,List1B,white,woman,,,,null,,,,
4440,"<img src=""portrait/WW2.jpg""style=""width:400px;height:400px;""></img>",3,html-button-response,163,733807,0.0-14.0-13.0,6261,List1B,white,woman,,TRUE,3,,,,,
null,CORRECT,,html-keyboard-response,164,735312,0.0-14.0-14.0-0.0,6261,List1B,white,woman,,,,null,,,,
3657,"<img src=""portrait/WM2.jpg""style=""width:400px;height:400px;""></img>",7,html-button-response,165,738975,0.0-14.0-16.0,6261,List1B,white,woman,,TRUE,7,,,,,
null,CORRECT,,html-keyboard-response,166,740479,0.0-14.0-17.0-0.0,6261,List1B,white,woman,,,,null,,,,
1809,"<img src=""portrait/BM1.jpg""style=""width:400px;height:400px;""></img>",4,html-button-response,167,742293,0.0-14.0-19.0,6261,List1B,white,woman,,TRUE,4,,,,,
null,CORRECT,,html-keyboard-response,168,743797,0.0-14.0-20.0-0.0,6261,List1B,white,woman,,,,null,,,,
2406,"<img src=""portrait/BM2.jpg""style=""width:400px;height:400px;""></img>",5,html-button-response,169,746209,0.0-14.0-22.0,6261,List1B,white,woman,,TRUE,5,,,,,
null,CORRECT,,html-keyboard-response,170,747713,0.0-14.0-23.0-0.0,6261,List1B,white,woman,,,,null,,,,
1426,<p>You got 7 out of 8 right first time. Press Continue.</p>,0,html-button-response,171,749143,0.0-14.0-25.0,6261,List1B,white,woman,,,,,,,,
1511,"As you did not score 100%, the memory game will repeat. Press Continue.",0,html-button-response,172,751659,0.0-14.0-26.0-0.0,6261,List1B,white,woman,,,,,,,,
1607,"<img src='img/portrait_matrix_list1.JPG' style='width:900px;height:500px;''></img><p>If you have memorised all the portraits and names and are ready to start, press Continue.</p><p><strong>Please note: Your memory of these faces will be tested 4 times during this experiment.</strong></p>",0,html-button-response,173,754276,0.0-14.1-0.1,6261,List1B,white,woman,,,,,,,,
2730,"<img src=""portrait/WM1.jpg""style=""width:400px;height:400px;""></img>",6,html-button-response,174,758010,0.0-14.1-1.1,6261,List1B,white,woman,,TRUE,6,,,,,
null,CORRECT,,html-keyboard-response,175,759514,0.0-14.1-2.1-0.1,6261,List1B,white,woman,,,,null,,,,
2727,"<img src=""portrait/BW2.jpg""style=""width:400px;height:400px;""></img>",2,html-button-response,176,762245,0.0-14.1-4.1,6261,List1B,white,woman,,TRUE,2,,,,,
null,CORRECT,,html-keyboard-response,177,763750,0.0-14.1-5.1-0.1,6261,List1B,white,woman,,,,null,,,,
1791,"<img src=""portrait/WW1.jpg""style=""width:400px;height:400px;""></img>",1,html-button-response,178,765546,0.0-14.1-7.1,6261,List1B,white,woman,,TRUE,1,,,,,
null,CORRECT,,html-keyboard-response,179,767051,0.0-14.1-8.1-0.1,6261,List1B,white,woman,,,,null,,,,
1864,"<img src=""portrait/BW1.jpg""style=""width:400px;height:400px;""></img>",0,html-button-response,180,768929,0.0-14.1-10.1,6261,List1B,white,woman,,TRUE,0,,,,,
null,CORRECT,,html-keyboard-response,181,770434,0.0-14.1-11.1-0.1,6261,List1B,white,woman,,,,null,,,,
2424,"<img src=""portrait/WW2.jpg""style=""width:400px;height:400px;""></img>",3,html-button-response,182,772862,0.0-14.1-13.1,6261,List1B,white,woman,,TRUE,3,,,,,
null,CORRECT,,html-keyboard-response,183,774367,0.0-14.1-14.1-0.1,6261,List1B,white,woman,,,,null,,,,
1676,"<img src=""portrait/WM2.jpg""style=""width:400px;height:400px;""></img>",7,html-button-response,184,776048,0.0-14.1-16.1,6261,List1B,white,woman,,TRUE,7,,,,,
null,CORRECT,,html-keyboard-response,185,777552,0.0-14.1-17.1-0.1,6261,List1B,white,woman,,,,null,,,,
1689,"<img src=""portrait/BM1.jpg""style=""width:400px;height:400px;""></img>",4,html-button-response,186,779246,0.0-14.1-19.1,6261,List1B,white,woman,,TRUE,4,,,,,
null,CORRECT,,html-keyboard-response,187,780750,0.0-14.1-20.1-0.1,6261,List1B,white,woman,,,,null,,,,
2109,"<img src=""portrait/BM2.jpg""style=""width:400px;height:400px;""></img>",5,html-button-response,188,782863,0.0-14.1-22.1,6261,List1B,white,woman,,TRUE,5,,,,,
null,CORRECT,,html-keyboard-response,189,784367,0.0-14.1-23.1-0.1,6261,List1B,white,woman,,,,null,,,,
1426,<p>You got 8 out of 8 right first time. Press Continue.</p>,0,html-button-response,190,785797,0.0-14.1-25.1,6261,List1B,white,woman,,,,,,,,
null,"<div style=""font-size:60px;"">+</div>",,html-keyboard-response,191,787309,0.0-15.0-0.0,6261,List1B,white,woman,,,,null,,,,
null,"<img src=""stim_listB/argue7.gif""</stim_listB>",,html-keyboard-response,192,789315,0.0-15.0-1.0,6261,List1B,white,woman,,,,null,,,,
null,is arguing with,,html-keyboard-response,193,791319,0.0-15.0-2.0,6261,List1B,white,woman,,,,null,,,,
9979,,,survey-text,194,801303,0.0-15.0-3.0,6261,List1B,white,woman,,,,,"{""Q0"":""Ruth is arguing with Kate""}","<img src=""stim_listB/argue7.gif""</stim_listB>",is arguing with,
null,"<div style=""font-size:60px;"">+</div>",,html-keyboard-response,195,801807,0.0-15.0-0.1,6261,List1B,white,woman,,,,null,,,,
null,"<img src=""stim_listB/argue3.gif""</stim_listB>",,html-keyboard-response,196,803811,0.0-15.0-1.1,6261,List1B,white,woman,,,,null,,,,
null,is arguing with,,html-keyboard-response,197,805815,0.0-15.0-2.1,6261,List1B,white,woman,,,,null,,,,
7250,,,survey-text,198,813069,0.0-15.0-3.1,6261,List1B,white,woman,,,,,"{""Q0"":""Ruth is arguing with Dave""}","<img src=""stim_listB/argue3.gif""</stim_listB>",is arguing with,
null,"<div style=""font-size:60px;"">+</div>",,html-keyboard-response,199,813573,0.0-15.0-0.2,6261,List1B,white,woman,,,,null,,,,
null,"<img src=""stim_listB/talk2.gif""</stim_listB>",,html-keyboard-response,200,815577,0.0-15.0-1.2,6261,List1B,white,woman,,,,null,,,,
null,are talking to each other,,html-keyboard-response,201,817581,0.0-15.0-2.2,6261,List1B,white,woman,,,,null,,,,
10520,,,survey-text,202,828104,0.0-15.0-3.2,6261,List1B,white,woman,,,,,"{""Q0"":""Beth and Mike are talking to each other""}","<img src=""stim_listB/talk2.gif""</stim_listB>",are talking to each other,
null,"<div style=""font-size:60px;"">+</div>",,html-keyboard-response,203,828608,0.0-15.0-0.3,6261,List1B,white,woman,,,,null,,,,
null,"<img src=""stim_listB/kiss2.gif""</stim_listB>",,html-keyboard-response,204,830613,0.0-15.0-1.3,6261,List1B,white,woman,,,,null,,,,
null,are kissing each other,,html-keyboard-response,205,832617,0.0-15.0-2.3,6261,List1B,white,woman,,,,null,,,,
9403,,,survey-text,206,842023,0.0-15.0-3.3,6261,List1B,white,woman,,,,,"{""Q0"":""Kate and Mike are kissing each other""}","<img src=""stim_listB/kiss2.gif""</stim_listB>",are kissing each other,
null,"<div style=""font-size:60px;"">+</div>",,html-keyboard-response,207,842527,0.0-15.0-0.4,6261,List1B,white,woman,,,,null,,,,
null,"<img src=""stim_listB/talk6.gif""</stim_listB>",,html-keyboard-response,208,844532,0.0-15.0-1.4,6261,List1B,white,woman,,,,null,,,,
null,are talking to each other,,html-keyboard-response,209,846536,0.0-15.0-2.4,6261,List1B,white,woman,,,,null,,,,
9203,,,survey-text,210,855742,0.0-15.0-3.4,6261,List1B,white,woman,,,,,"{""Q0"":""Mike and Luke are talking to each other""}","<img src=""stim_listB/talk6.gif""</stim_listB>",are talking to each other,
null,"<div style=""font-size:60px;"">+</div>",,html-keyboard-response,211,856246,0.0-15.0-0.5,6261,List1B,white,woman,,,,null,,,,
null,"<img src=""stim_listB/touch6.gif""</stim_listB>",,html-keyboard-response,212,858252,0.0-15.0-1.5,6261,List1B,white,woman,,,,null,,,,
null,are touching each other,,html-keyboard-response,213,860256,0.0-15.0-2.5,6261,List1B,white,woman,,,,null,,,,
11451,,,survey-text,214,871710,0.0-15.0-3.5,6261,List1B,white,woman,,,,,"{""Q0"":""Fred and Luke are touching each other""}","<img src=""stim_listB/touch6.gif""</stim_listB>",are touching each other,
null,"<div style=""font-size:60px;"">+</div>",,html-keyboard-response,215,872212,0.0-15.0-0.6,6261,List1B,white,woman,,,,null,,,,
null,"<img src=""stim_listB/talk4.gif""</stim_listB>",,html-keyboard-response,216,874217,0.0-15.0-1.6,6261,List1B,white,woman,,,,null,,,,
null,are talking to each other,,html-keyboard-response,217,876221,0.0-15.0-2.6,6261,List1B,white,woman,,,,null,,,,
15851,,,survey-text,218,892082,0.0-15.0-3.6,6261,List1B,white,woman,,,,,"{""Q0"":""Dave and Ruth are talking to each other""}","<img src=""stim_listB/talk4.gif""</stim_listB>",are talking to each other,
null,"<div style=""font-size:60px;"">+</div>",,html-keyboard-response,219,892587,0.0-15.0-0.7,6261,List1B,white,woman,,,,null,,,,
null,"<img src=""stim_listB/dance4.gif""</stim_listB>",,html-keyboard-response,220,894592,0.0-15.0-1.7,6261,List1B,white,woman,,,,null,,,,
null,are dancing with each other,,html-keyboard-response,221,896596,0.0-15.0-2.7,6261,List1B,white,woman,,,,null,,,,
11243,,,survey-text,222,907848,0.0-15.0-3.7,6261,List1B,white,woman,,,,,"{""Q0"":""Dave and Ruth are dancing with each other ""}","<img src=""stim_listB/dance4.gif""</stim_listB>",are dancing with each other,
null,"<div style=""font-size:60px;"">+</div>",,html-keyboard-response,223,908351,0.0-15.0-0.8,6261,List1B,white,woman,,,,null,,,,
null,"<img src=""stim_listB/dance6.gif""</stim_listB>",,html-keyboard-response,224,910356,0.0-15.0-1.8,6261,List1B,white,woman,,,,null,,,,
null,are dancing with each other,,html-keyboard-response,225,912360,0.0-15.0-2.8,6261,List1B,white,woman,,,,null,,,,
12669,,,survey-text,226,925033,0.0-15.0-3.8,6261,List1B,white,woman,,,,,"{""Q0"":""Mike and Luke are dancing with each other ""}","<img src=""stim_listB/dance6.gif""</stim_listB>",are dancing with each other,
null,"<div style=""font-size:60px;"">+</div>",,html-keyboard-response,227,925537,0.0-15.0-0.9,6261,List1B,white,woman,,,,null,,,,
null,"<img src=""stim_listB/dance2.gif""</stim_listB>",,html-keyboard-response,228,927542,0.0-15.0-1.9,6261,List1B,white,woman,,,,null,,,,
null,are dancing with each other,,html-keyboard-response,229,929546,0.0-15.0-2.9,6261,List1B,white,woman,,,,null,,,,
10757,,,survey-text,230,940306,0.0-15.0-3.9,6261,List1B,white,woman,,,,,"{""Q0"":""Mike and Beth are dancing with each other ""}","<img src=""stim_listB/dance2.gif""</stim_listB>",are dancing with each other,
null,"<div style=""font-size:60px;"">+</div>",,html-keyboard-response,231,940810,0.0-15.0-0.10,6261,List1B,white,woman,,,,null,,,,
null,"<img src=""stim_listB/dance1.gif""</stim_listB>",,html-keyboard-response,232,942816,0.0-15.0-1.10,6261,List1B,white,woman,,,,null,,,,
null,is dancing with,,html-keyboard-response,233,944820,0.0-15.0-2.10,6261,List1B,white,woman,,,,null,,,,
8891,,,survey-text,234,953716,0.0-15.0-3.10,6261,List1B,white,woman,,,,,"{""Q0"":""Beth is dancing with Fred""}","<img src=""stim_listB/dance1.gif""</stim_listB>",is dancing with,
null,"<div style=""font-size:60px;"">+</div>",,html-keyboard-response,235,954219,0.0-15.0-0.11,6261,List1B,white,woman,,,,null,,,,
null,"<img src=""stim_listB/shout5.gif""</stim_listB>",,html-keyboard-response,236,956224,0.0-15.0-1.11,6261,List1B,white,woman,,,,null,,,,
null,is shouting at,,html-keyboard-response,237,958229,0.0-15.0-2.11,6261,List1B,white,woman,,,,null,,,,
9067,,,survey-text,238,967299,0.0-15.0-3.11,6261,List1B,white,woman,,,,,"{""Q0"":""Fred is shouting at Luke""}","<img src=""stim_listB/shout5.gif""</stim_listB>",is shouting at,
null,"<div style=""font-size:60px;"">+</div>",,html-keyboard-response,239,967803,0.0-15.0-0.12,6261,List1B,white,woman,,,,null,,,,
null,"<img src=""stim_listB/hug8.gif""</stim_listB>",,html-keyboard-response,240,969808,0.0-15.0-1.12,6261,List1B,white,woman,,,,null,,,,
null,are hugging each other,,html-keyboard-response,241,971812,0.0-15.0-2.12,6261,List1B,white,woman,,,,null,,,,
10370,,,survey-text,242,982185,0.0-15.0-3.12,6261,List1B,white,woman,,,,,"{""Q0"":""Kate and Jane are hugging each other""}","<img src=""stim_listB/hug8.gif""</stim_listB>",are hugging each other,
null,"<div style=""font-size:60px;"">+</div>",,html-keyboard-response,243,982687,0.0-15.0-0.13,6261,List1B,white,woman,,,,null,,,,
null,"<img src=""stim_listB/fight1.gif""</stim_listB>",,html-keyboard-response,244,984692,0.0-15.0-1.13,6261,List1B,white,woman,,,,null,,,,
null,is fighting,,html-keyboard-response,245,986696,0.0-15.0-2.13,6261,List1B,white,woman,,,,null,,,,
6372,,,survey-text,246,993071,0.0-15.0-3.13,6261,List1B,white,woman,,,,,"{""Q0"":""Kate is fighting Mike""}","<img src=""stim_listB/fight1.gif""</stim_listB>",is fighting,
null,"<div style=""font-size:60px;"">+</div>",,html-keyboard-response,247,993574,0.0-15.0-0.14,6261,List1B,white,woman,,,,null,,,,
null,"<img src=""stim_listB/touch5.gif""</stim_listB>",,html-keyboard-response,248,995579,0.0-15.0-1.14,6261,List1B,white,woman,,,,null,,,,
null,is touching,,html-keyboard-response,249,997583,0.0-15.0-2.14,6261,List1B,white,woman,,,,null,,,,
9321,,,survey-text,250,1006907,0.0-15.0-3.14,6261,List1B,white,woman,,,,,"{""Q0"":""Dave is touching Mike""}","<img src=""stim_listB/touch5.gif""</stim_listB>",is touching,
null,"<div style=""font-size:60px;"">+</div>",,html-keyboard-response,251,1007411,0.0-15.0-0.15,6261,List1B,white,woman,,,,null,,,,
null,"<img src=""stim_listB/kiss3.gif""</stim_listB>",,html-keyboard-response,252,1009416,0.0-15.0-1.15,6261,List1B,white,woman,,,,null,,,,
null,is kissing,,html-keyboard-response,253,1011420,0.0-15.0-2.15,6261,List1B,white,woman,,,,null,,,,
6636,,,survey-text,254,1018060,0.0-15.0-3.15,6261,List1B,white,woman,,,,,"{""Q0"":""Ruth is kissing Luke""}","<img src=""stim_listB/kiss3.gif""</stim_listB>",is kissing,
null,"<div style=""font-size:60px;"">+</div>",,html-keyboard-response,255,1018564,0.0-15.0-0.16,6261,List1B,white,woman,,,,null,,,,
null,"<img src=""stim_listB/meet4.gif""</stim_listB>",,html-keyboard-response,256,1020569,0.0-15.0-1.16,6261,List1B,white,woman,,,,null,,,,
null,are meeting each other,,html-keyboard-response,257,1022572,0.0-15.0-2.16,6261,List1B,white,woman,,,,null,,,,
9453,,,survey-text,258,1032029,0.0-15.0-3.16,6261,List1B,white,woman,,,,,"{""Q0"":""Luke and Ruth are meeting each other""}","<img src=""stim_listB/meet4.gif""</stim_listB>",are meeting each other,
null,"<div style=""font-size:60px;"">+</div>",,html-keyboard-response,259,1032532,0.0-15.0-0.17,6261,List1B,white,woman,,,,null,,,,
null,"<img src=""stim_listB/marry1.gif""</stim_listB>",,html-keyboard-response,260,1034537,0.0-15.0-1.17,6261,List1B,white,woman,,,,null,,,,
null,is marrying,,html-keyboard-response,261,1036541,0.0-15.0-2.17,6261,List1B,white,woman,,,,null,,,,
6815,,,survey-text,262,1043360,0.0-15.0-3.17,6261,List1B,white,woman,,,,,"{""Q0"":""Beth is marrying Mike""}","<img src=""stim_listB/marry1.gif""</stim_listB>",is marrying,
null,"<div style=""font-size:60px;"">+</div>",,html-keyboard-response,263,1043864,0.0-15.0-0.18,6261,List1B,white,woman,,,,null,,,,
null,"<img src=""stim_listB/hug2.gif""</stim_listB>",,html-keyboard-response,264,1045869,0.0-15.0-1.18,6261,List1B,white,woman,,,,null,,,,
null,are hugging each other,,html-keyboard-response,265,1047874,0.0-15.0-2.18,6261,List1B,white,woman,,,,null,,,,
9702,,,survey-text,266,1057579,0.0-15.0-3.18,6261,List1B,white,woman,,,,,"{""Q0"":""Kate and Mike are hugging each other""}","<img src=""stim_listB/hug2.gif""</stim_listB>",are hugging each other,
null,"<div style=""font-size:60px;"">+</div>",,html-keyboard-response,267,1058083,0.0-15.0-0.19,6261,List1B,white,woman,,,,null,,,,
null,"<img src=""stim_listB/shout7.gif""</stim_listB>",,html-keyboard-response,268,1060088,0.0-15.0-1.19,6261,List1B,white,woman,,,,null,,,,
null,is shouting at,,html-keyboard-response,269,1062092,0.0-15.0-2.19,6261,List1B,white,woman,,,,null,,,,
8368,,,survey-text,270,1070464,0.0-15.0-3.19,6261,List1B,white,woman,,,,,"{""Q0"":""Ruth is shouting at Beth""}","<img src=""stim_listB/shout7.gif""</stim_listB>",is shouting at,
3877,"<img src='img/portrait_matrix_list1.JPG' style='width:900px;height:500px;''></img><p>If you have memorised all the portraits and names and are ready to start, press Continue.</p><p><strong>Please note: Your memory of these faces will be tested 4 times during this experiment.</strong></p>",0,html-button-response,271,1074345,0.0-16.0-0.0,6261,List1B,white,woman,,,,,,,,
1978,"<img src=""portrait/WM1.jpg""style=""width:400px;height:400px;""></img>",6,html-button-response,272,1077331,0.0-16.0-1.0,6261,List1B,white,woman,,TRUE,6,,,,,
null,CORRECT,,html-keyboard-response,273,1078841,0.0-16.0-2.0-0.0,6261,List1B,white,woman,,,,null,,,,
4331,"<img src=""portrait/BW2.jpg""style=""width:400px;height:400px;""></img>",2,html-button-response,274,1083180,0.0-16.0-4.0,6261,List1B,white,woman,,TRUE,2,,,,,
null,CORRECT,,html-keyboard-response,275,1084684,0.0-16.0-5.0-0.0,6261,List1B,white,woman,,,,null,,,,
1973,"<img src=""portrait/BM1.jpg""style=""width:400px;height:400px;""></img>",4,html-button-response,276,1086662,0.0-16.0-7.0,6261,List1B,white,woman,,TRUE,4,,,,,
null,CORRECT,,html-keyboard-response,277,1088167,0.0-16.0-8.0-0.0,6261,List1B,white,woman,,,,null,,,,
2792,"<img src=""portrait/WW1.jpg""style=""width:400px;height:400px;""></img>",1,html-button-response,278,1090965,0.0-16.0-10.0,6261,List1B,white,woman,,TRUE,1,,,,,
null,CORRECT,,html-keyboard-response,279,1092469,0.0-16.0-11.0-0.0,6261,List1B,white,woman,,,,null,,,,
1654,"<img src=""portrait/WW2.jpg""style=""width:400px;height:400px;""></img>",3,html-button-response,280,1094131,0.0-16.0-13.0,6261,List1B,white,woman,,TRUE,3,,,,,
null,CORRECT,,html-keyboard-response,281,1095634,0.0-16.0-14.0-0.0,6261,List1B,white,woman,,,,null,,,,
1416,"<img src=""portrait/WM2.jpg""style=""width:400px;height:400px;""></img>",7,html-button-response,282,1097063,0.0-16.0-16.0,6261,List1B,white,woman,,TRUE,7,,,,,
null,CORRECT,,html-keyboard-response,283,1098569,0.0-16.0-17.0-0.0,6261,List1B,white,woman,,,,null,,,,
1622,"<img src=""portrait/BW1.jpg""style=""width:400px;height:400px;""></img>",0,html-button-response,284,1100198,0.0-16.0-19.0,6261,List1B,white,woman,,TRUE,0,,,,,
null,CORRECT,,html-keyboard-response,285,1101703,0.0-16.0-20.0-0.0,6261,List1B,white,woman,,,,null,,,,
2189,"<img src=""portrait/BM2.jpg""style=""width:400px;height:400px;""></img>",5,html-button-response,286,1103899,0.0-16.0-22.0,6261,List1B,white,woman,,TRUE,5,,,,,
null,CORRECT,,html-keyboard-response,287,1105403,0.0-16.0-23.0-0.0,6261,List1B,white,woman,,,,null,,,,
1341,<p>You got 8 out of 8 right first time. Press Continue.</p>,0,html-button-response,288,1106748,0.0-16.0-25.0,6261,List1B,white,woman,,,,,,,,
null,"<div style=""font-size:60px;"">+</div>",,html-keyboard-response,289,1108255,0.0-17.0-0.0,6261,List1B,white,woman,,,,null,,,,
null,"<img src=""stim_listB/dance7.gif""</stim_listB>",,html-keyboard-response,290,1110260,0.0-17.0-1.0,6261,List1B,white,woman,,,,null,,,,
null,is dancing with,,html-keyboard-response,291,1112264,0.0-17.0-2.0,6261,List1B,white,woman,,,,null,,,,
7070,,,survey-text,292,1119337,0.0-17.0-3.0,6261,List1B,white,woman,,,,,"{""Q0"":""Jane is dancing with Beth""}","<img src=""stim_listB/dance7.gif""</stim_listB>",is dancing with,
null,"<div style=""font-size:60px;"">+</div>",,html-keyboard-response,293,1119841,0.0-17.0-0.1,6261,List1B,white,woman,,,,null,,,,
null,"<img src=""stim_listB/shout6.gif""</stim_listB>",,html-keyboard-response,294,1121846,0.0-17.0-1.1,6261,List1B,white,woman,,,,null,,,,
null,are shouting at each other,,html-keyboard-response,295,1123850,0.0-17.0-2.1,6261,List1B,white,woman,,,,null,,,,
9551,,,survey-text,296,1133405,0.0-17.0-3.1,6261,List1B,white,woman,,,,,"{""Q0"":""Dave and Mike are shouting at each other""}","<img src=""stim_listB/shout6.gif""</stim_listB>",are shouting at each other,
null,"<div style=""font-size:60px;"">+</div>",,html-keyboard-response,297,1133909,0.0-17.0-0.2,6261,List1B,white,woman,,,,null,,,,
null,"<img src=""stim_listB/argue5.gif""</stim_listB>",,html-keyboard-response,298,1135914,0.0-17.0-1.2,6261,List1B,white,woman,,,,null,,,,
null,is arguing with,,html-keyboard-response,299,1137918,0.0-17.0-2.2,6261,List1B,white,woman,,,,null,,,,
10035,,,survey-text,300,1147962,0.0-17.0-3.2,6261,List1B,white,woman,,,,,"{""Q0"":""Mike is arguing with Luke""}","<img src=""stim_listB/argue5.gif""</stim_listB>",is arguing with,
null,"<div style=""font-size:60px;"">+</div>",,html-keyboard-response,301,1148466,0.0-17.0-0.3,6261,List1B,white,woman,,,,null,,,,
null,"<img src=""stim_listB/shout1.gif""</stim_listB>",,html-keyboard-response,302,1150471,0.0-17.0-1.3,6261,List1B,white,woman,,,,null,,,,
null,is shouting at,,html-keyboard-response,303,1152475,0.0-17.0-2.3,6261,List1B,white,woman,,,,null,,,,
7446,,,survey-text,304,1159925,0.0-17.0-3.3,6261,List1B,white,woman,,,,,"{""Q0"":""Beth is shouting at Fred""}","<img src=""stim_listB/shout1.gif""</stim_listB>",is shouting at,
null,"<div style=""font-size:60px;"">+</div>",,html-keyboard-response,305,1160428,0.0-17.0-0.4,6261,List1B,white,woman,,,,null,,,,
null,"<img src=""stim_listB/marry3.gif""</stim_listB>",,html-keyboard-response,306,1162434,0.0-17.0-1.4,6261,List1B,white,woman,,,,null,,,,
null,is marrying,,html-keyboard-response,307,1164438,0.0-17.0-2.4,6261,List1B,white,woman,,,,null,,,,
7286,,,survey-text,308,1171727,0.0-17.0-3.4,6261,List1B,white,woman,,,,,"{""Q0"":""Ruth is marrying Dave""}","<img src=""stim_listB/marry3.gif""</stim_listB>",is marrying,
null,"<div style=""font-size:60px;"">+</div>",,html-keyboard-response,309,1172236,0.0-17.0-0.5,6261,List1B,white,woman,,,,null,,,,
null,"<img src=""stim_listB/marry2.gif""</stim_listB>",,html-keyboard-response,310,1174241,0.0-17.0-1.5,6261,List1B,white,woman,,,,null,,,,
null,are marrying each other,,html-keyboard-response,311,1176245,0.0-17.0-2.5,6261,List1B,white,woman,,,,null,,,,
8496,,,survey-text,312,1184745,0.0-17.0-3.5,6261,List1B,white,woman,,,,,"{""Q0"":""Fred and Kate are marrying each other""}","<img src=""stim_listB/marry2.gif""</stim_listB>",are marrying each other,
null,"<div style=""font-size:60px;"">+</div>",,html-keyboard-response,313,1185248,0.0-17.0-0.6,6261,List1B,white,woman,,,,null,,,,
null,"<img src=""stim_listB/hug3.gif""</stim_listB>",,html-keyboard-response,314,1187253,0.0-17.0-1.6,6261,List1B,white,woman,,,,null,,,,
null,is hugging,,html-keyboard-response,315,1189257,0.0-17.0-2.6,6261,List1B,white,woman,,,,null,,,,
6821,,,survey-text,316,1196081,0.0-17.0-3.6,6261,List1B,white,woman,,,,,"{""Q0"":""Ruth is hugging Luke""}","<img src=""stim_listB/hug3.gif""</stim_listB>",is hugging,
null,"<div style=""font-size:60px;"">+</div>",,html-keyboard-response,317,1196586,0.0-17.0-0.7,6261,List1B,white,woman,,,,null,,,,
null,"<img src=""stim_listB/touch4.gif""</stim_listB>",,html-keyboard-response,318,1198591,0.0-17.0-1.7,6261,List1B,white,woman,,,,null,,,,
null,are touching each other,,html-keyboard-response,319,1200595,0.0-17.0-2.7,6261,List1B,white,woman,,,,null,,,,
10133,,,survey-text,320,1210731,0.0-17.0-3.7,6261,List1B,white,woman,,,,,"{""Q0"":""Ruth and Luke are touching each other""}","<img src=""stim_listB/touch4.gif""</stim_listB>",are touching each other,
null,"<div style=""font-size:60px;"">+</div>",,html-keyboard-response,321,1211235,0.0-17.0-0.8,6261,List1B,white,woman,,,,null,,,,
null,"<img src=""stim_listB/meet1.gif""</stim_listB>",,html-keyboard-response,322,1213240,0.0-17.0-1.8,6261,List1B,white,woman,,,,null,,,,
null,is meeting,,html-keyboard-response,323,1215244,0.0-17.0-2.8,6261,List1B,white,woman,,,,null,,,,
6097,,,survey-text,324,1221350,0.0-17.0-3.8,6261,List1B,white,woman,,,,,"{""Q0"":""Kate is meeting Mike""}","<img src=""stim_listB/meet1.gif""</stim_listB>",is meeting,
null,"<div style=""font-size:60px;"">+</div>",,html-keyboard-response,325,1221855,0.0-17.0-0.9,6261,List1B,white,woman,,,,null,,,,
null,"<img src=""stim_listB/hug7.gif""</stim_listB>",,html-keyboard-response,326,1223860,0.0-17.0-1.9,6261,List1B,white,woman,,,,null,,,,
null,is hugging,,html-keyboard-response,327,1225864,0.0-17.0-2.9,6261,List1B,white,woman,,,,null,,,,
6133,,,survey-text,328,1232001,0.0-17.0-3.9,6261,List1B,white,woman,,,,,"{""Q0"":""Ruth is hugging Beth""}","<img src=""stim_listB/hug7.gif""</stim_listB>",is hugging,
null,"<div style=""font-size:60px;"">+</div>",,html-keyboard-response,329,1232504,0.0-17.0-0.10,6261,List1B,white,woman,,,,null,,,,
null,"<img src=""stim_listB/fight8.gif""</stim_listB>",,html-keyboard-response,330,1234509,0.0-17.0-1.10,6261,List1B,white,woman,,,,null,,,,
null,are fighting each other,,html-keyboard-response,331,1236513,0.0-17.0-2.10,6261,List1B,white,woman,,,,null,,,,
9787,,,survey-text,332,1246303,0.0-17.0-3.10,6261,List1B,white,woman,,,,,"{""Q0"":""Beth and Ruth are fighting each other""}","<img src=""stim_listB/fight8.gif""</stim_listB>",are fighting each other,
null,"<div style=""font-size:60px;"">+</div>",,html-keyboard-response,333,1246806,0.0-17.0-0.11,6261,List1B,white,woman,,,,null,,,,
null,"<img src=""stim_listB/kiss5.gif""</stim_listB>",,html-keyboard-response,334,1248811,0.0-17.0-1.11,6261,List1B,white,woman,,,,null,,,,
null,is kissing,,html-keyboard-response,335,1250815,0.0-17.0-2.11,6261,List1B,white,woman,,,,null,,,,
6686,,,survey-text,336,1257504,0.0-17.0-3.11,6261,List1B,white,woman,,,,,"{""Q0"":""Fred is kissing Luke""}","<img src=""stim_listB/kiss5.gif""</stim_listB>",is kissing,
null,"<div style=""font-size:60px;"">+</div>",,html-keyboard-response,337,1258007,0.0-17.0-0.12,6261,List1B,white,woman,,,,null,,,,
null,"<img src=""stim_listB/touch1.gif""</stim_listB>",,html-keyboard-response,338,1260012,0.0-17.0-1.12,6261,List1B,white,woman,,,,null,,,,
null,is touching,,html-keyboard-response,339,1262016,0.0-17.0-2.12,6261,List1B,white,woman,,,,null,,,,
6296,,,survey-text,340,1268321,0.0-17.0-3.12,6261,List1B,white,woman,,,,,"{""Q0"":""Kate is touching Mike""}","<img src=""stim_listB/touch1.gif""</stim_listB>",is touching,
null,"<div style=""font-size:60px;"">+</div>",,html-keyboard-response,341,1268826,0.0-17.0-0.13,6261,List1B,white,woman,,,,null,,,,
null,"<img src=""stim_listB/fight6.gif""</stim_listB>",,html-keyboard-response,342,1270831,0.0-17.0-1.13,6261,List1B,white,woman,,,,null,,,,
null,are fighting each other,,html-keyboard-response,343,1272835,0.0-17.0-2.13,6261,List1B,white,woman,,,,null,,,,
9236,,,survey-text,344,1282074,0.0-17.0-3.13,6261,List1B,white,woman,,,,,"{""Q0"":""Fred and Luke are fighting each other""}","<img src=""stim_listB/fight6.gif""</stim_listB>",are fighting each other,
null,"<div style=""font-size:60px;"">+</div>",,html-keyboard-response,345,1282577,0.0-17.0-0.14,6261,List1B,white,woman,,,,null,,,,
null,"<img src=""stim_listB/shout3.gif""</stim_listB>",,html-keyboard-response,346,1284583,0.0-17.0-1.14,6261,List1B,white,woman,,,,null,,,,
null,is shouting at,,html-keyboard-response,347,1286587,0.0-17.0-2.14,6261,List1B,white,woman,,,,null,,,,
6718,,,survey-text,348,1293309,0.0-17.0-3.14,6261,List1B,white,woman,,,,,"{""Q0"":""Ruth is shouting at Luke""}","<img src=""stim_listB/shout3.gif""</stim_listB>",is shouting at,
null,"<div style=""font-size:60px;"">+</div>",,html-keyboard-response,349,1293813,0.0-17.0-0.15,6261,List1B,white,woman,,,,null,,,,
null,"<img src=""stim_listB/shout2.gif""</stim_listB>",,html-keyboard-response,350,1295818,0.0-17.0-1.15,6261,List1B,white,woman,,,,null,,,,
null,are shouting at each other,,html-keyboard-response,351,1297823,0.0-17.0-2.15,6261,List1B,white,woman,,,,null,,,,
9136,,,survey-text,352,1306962,0.0-17.0-3.15,6261,List1B,white,woman,,,,,"{""Q0"":""Mike and Kate are shouting at each other""}","<img src=""stim_listB/shout2.gif""</stim_listB>",are shouting at each other,
null,"<div style=""font-size:60px;"">+</div>",,html-keyboard-response,353,1307466,0.0-17.0-0.16,6261,List1B,white,woman,,,,null,,,,
null,"<img src=""stim_listB/marry5.gif""</stim_listB>",,html-keyboard-response,354,1309472,0.0-17.0-1.16,6261,List1B,white,woman,,,,null,,,,
null,is marrying,,html-keyboard-response,355,1311476,0.0-17.0-2.16,6261,List1B,white,woman,,,,null,,,,
6050,,,survey-text,356,1317529,0.0-17.0-3.16,6261,List1B,white,woman,,,,,"{""Q0"":""Luke is marrying Mike""}","<img src=""stim_listB/marry5.gif""</stim_listB>",is marrying,
null,"<div style=""font-size:60px;"">+</div>",,html-keyboard-response,357,1318032,0.0-17.0-0.17,6261,List1B,white,woman,,,,null,,,,
null,"<img src=""stim_listB/kiss1.gif""</stim_listB>",,html-keyboard-response,358,1320037,0.0-17.0-1.17,6261,List1B,white,woman,,,,null,,,,
null,is kissing,,html-keyboard-response,359,1322040,0.0-17.0-2.17,6261,List1B,white,woman,,,,null,,,,
6203,,,survey-text,360,1328247,0.0-17.0-3.17,6261,List1B,white,woman,,,,,"{""Q0"":""Beth is kissing Fred""}","<img src=""stim_listB/kiss1.gif""</stim_listB>",is kissing,
null,"<div style=""font-size:60px;"">+</div>",,html-keyboard-response,361,1328750,0.0-17.0-0.18,6261,List1B,white,woman,,,,null,,,,
null,"<img src=""stim_listB/hug5.gif""</stim_listB>",,html-keyboard-response,362,1330755,0.0-17.0-1.18,6261,List1B,white,woman,,,,null,,,,
null,is hugging,,html-keyboard-response,363,1332759,0.0-17.0-2.18,6261,List1B,white,woman,,,,null,,,,
6113,,,survey-text,364,1338881,0.0-17.0-3.18,6261,List1B,white,woman,,,,,"{""Q0"":""Fred is hugging Luke""}","<img src=""stim_listB/hug5.gif""</stim_listB>",is hugging,
null,"<div style=""font-size:60px;"">+</div>",,html-keyboard-response,365,1339385,0.0-17.0-0.19,6261,List1B,white,woman,,,,null,,,,
null,"<img src=""stim_listB/argue2.gif""</stim_listB>",,html-keyboard-response,366,1341390,0.0-17.0-1.19,6261,List1B,white,woman,,,,null,,,,
null,are arguing with each other,,html-keyboard-response,367,1343395,0.0-17.0-2.19,6261,List1B,white,woman,,,,null,,,,
10551,,,survey-text,368,1353949,0.0-17.0-3.19,6261,List1B,white,woman,,,,,"{""Q0"":""Fred and Kate are arguing with each other ""}","<img src=""stim_listB/argue2.gif""</stim_listB>",are arguing with each other,
5676,"<img src='img/portrait_matrix_list1.JPG' style='width:900px;height:500px;''></img><p>If you have memorised all the portraits and names and are ready to start, press Continue.</p><p><strong>Please note: Your memory of these faces will be tested 4 times during this experiment.</strong></p>",0,html-button-response,369,1359630,0.0-18.0-0.0,6261,List1B,white,woman,,,,,,,,
2212,"<img src=""portrait/WW2.jpg""style=""width:400px;height:400px;""></img>",3,html-button-response,370,1362850,0.0-18.0-1.0,6261,List1B,white,woman,,TRUE,3,,,,,
null,CORRECT,,html-keyboard-response,371,1364361,0.0-18.0-2.0-0.0,6261,List1B,white,woman,,,,null,,,,
1648,"<img src=""portrait/BM1.jpg""style=""width:400px;height:400px;""></img>",4,html-button-response,372,1366015,0.0-18.0-4.0,6261,List1B,white,woman,,TRUE,4,,,,,
null,CORRECT,,html-keyboard-response,373,1367521,0.0-18.0-5.0-0.0,6261,List1B,white,woman,,,,null,,,,
1871,"<img src=""portrait/WW1.jpg""style=""width:400px;height:400px;""></img>",1,html-button-response,374,1369399,0.0-18.0-7.0,6261,List1B,white,woman,,TRUE,1,,,,,
null,CORRECT,,html-keyboard-response,375,1370902,0.0-18.0-8.0-0.0,6261,List1B,white,woman,,,,null,,,,
1858,"<img src=""portrait/BM2.jpg""style=""width:400px;height:400px;""></img>",5,html-button-response,376,1372768,0.0-18.0-10.0,6261,List1B,white,woman,,TRUE,5,,,,,
null,CORRECT,,html-keyboard-response,377,1374272,0.0-18.0-11.0-0.0,6261,List1B,white,woman,,,,null,,,,
2372,"<img src=""portrait/WM1.jpg""style=""width:400px;height:400px;""></img>",6,html-button-response,378,1376652,0.0-18.0-13.0,6261,List1B,white,woman,,TRUE,6,,,,,
null,CORRECT,,html-keyboard-response,379,1378156,0.0-18.0-14.0-0.0,6261,List1B,white,woman,,,,null,,,,
1805,"<img src=""portrait/BW2.jpg""style=""width:400px;height:400px;""></img>",2,html-button-response,380,1379968,0.0-18.0-16.0,6261,List1B,white,woman,,TRUE,2,,,,,
null,CORRECT,,html-keyboard-response,381,1381473,0.0-18.0-17.0-0.0,6261,List1B,white,woman,,,,null,,,,
1805,"<img src=""portrait/BW1.jpg""style=""width:400px;height:400px;""></img>",0,html-button-response,382,1383286,0.0-18.0-19.0,6261,List1B,white,woman,,TRUE,0,,,,,
null,CORRECT,,html-keyboard-response,383,1384795,0.0-18.0-20.0-0.0,6261,List1B,white,woman,,,,null,,,,
1731,"<img src=""portrait/WM2.jpg""style=""width:400px;height:400px;""></img>",7,html-button-response,384,1386535,0.0-18.0-22.0,6261,List1B,white,woman,,TRUE,7,,,,,
null,CORRECT,,html-keyboard-response,385,1388040,0.0-18.0-23.0-0.0,6261,List1B,white,woman,,,,null,,,,
1124,<p>You got 8 out of 8 right first time. Press Continue.</p>,0,html-button-response,386,1389168,0.0-18.0-25.0,6261,List1B,white,woman,,,,,,,,
null,"<div style=""font-size:60px;"">+</div>",,html-keyboard-response,387,1390676,0.0-19.0-0.0,6261,List1B,white,woman,,,,null,,,,
null,"<img src=""stim_listB/argue6.gif""</stim_listB>",,html-keyboard-response,388,1392681,0.0-19.0-1.0,6261,List1B,white,woman,,,,null,,,,
null,are arguing with each other,,html-keyboard-response,389,1394685,0.0-19.0-2.0,6261,List1B,white,woman,,,,null,,,,
9652,,,survey-text,390,1404341,0.0-19.0-3.0,6261,List1B,white,woman,,,,,"{""Q0"":""Fred and Dave are arguing with each other""}","<img src=""stim_listB/argue6.gif""</stim_listB>",are arguing with each other,
null,"<div style=""font-size:60px;"">+</div>",,html-keyboard-response,391,1404845,0.0-19.0-0.1,6261,List1B,white,woman,,,,null,,,,
null,"<img src=""stim_listB/touch7.gif""</stim_listB>",,html-keyboard-response,392,1406850,0.0-19.0-1.1,6261,List1B,white,woman,,,,null,,,,
null,is touching,,html-keyboard-response,393,1408854,0.0-19.0-2.1,6261,List1B,white,woman,,,,null,,,,
5616,,,survey-text,394,1414474,0.0-19.0-3.1,6261,List1B,white,woman,,,,,"{""Q0"":""Jane is touching Kate""}","<img src=""stim_listB/touch7.gif""</stim_listB>",is touching,
null,"<div style=""font-size:60px;"">+</div>",,html-keyboard-response,395,1414977,0.0-19.0-0.2,6261,List1B,white,woman,,,,null,,,,
null,"<img src=""stim_listB/talk7.gif""</stim_listB>",,html-keyboard-response,396,1416982,0.0-19.0-1.2,6261,List1B,white,woman,,,,null,,,,
null,is talking to,,html-keyboard-response,397,1418986,0.0-19.0-2.2,6261,List1B,white,woman,,,,null,,,,
7651,,,survey-text,398,1426641,0.0-19.0-3.2,6261,List1B,white,woman,,,,,"{""Q0"":""Jane is talking to Beth""}","<img src=""stim_listB/talk7.gif""</stim_listB>",is talking to,
null,"<div style=""font-size:60px;"">+</div>",,html-keyboard-response,399,1427146,0.0-19.0-0.3,6261,List1B,white,woman,,,,null,,,,
null,"<img src=""stim_listB/marry8.gif""</stim_listB>",,html-keyboard-response,400,1429151,0.0-19.0-1.3,6261,List1B,white,woman,,,,null,,,,
null,are marrying each other,,html-keyboard-response,401,1431156,0.0-19.0-2.3,6261,List1B,white,woman,,,,null,,,,
10852,,,survey-text,402,1442011,0.0-19.0-3.3,6261,List1B,white,woman,,,,,"{""Q0"":""Jane and Beth are marrying each other""}","<img src=""stim_listB/marry8.gif""</stim_listB>",are marrying each other,
null,"<div style=""font-size:60px;"">+</div>",,html-keyboard-response,403,1442515,0.0-19.0-0.4,6261,List1B,white,woman,,,,null,,,,
null,"<img src=""stim_listB/marry7.gif""</stim_listB>",,html-keyboard-response,404,1444521,0.0-19.0-1.4,6261,List1B,white,woman,,,,null,,,,
null,is marrying,,html-keyboard-response,405,1446525,0.0-19.0-2.4,6261,List1B,white,woman,,,,null,,,,
5783,,,survey-text,406,1452312,0.0-19.0-3.4,6261,List1B,white,woman,,,,,"{""Q0"":""Ruth is marrying Kate""}","<img src=""stim_listB/marry7.gif""</stim_listB>",is marrying,
null,"<div style=""font-size:60px;"">+</div>",,html-keyboard-response,407,1452815,0.0-19.0-0.5,6261,List1B,white,woman,,,,null,,,,
null,"<img src=""stim_listB/argue1.gif""</stim_listB>",,html-keyboard-response,408,1454820,0.0-19.0-1.5,6261,List1B,white,woman,,,,null,,,,
null,is arguing with,,html-keyboard-response,409,1456824,0.0-19.0-2.5,6261,List1B,white,woman,,,,null,,,,
6865,,,survey-text,410,1463698,0.0-19.0-3.5,6261,List1B,white,woman,,,,,"{""Q0"":""Beth is arguing with Mike""}","<img src=""stim_listB/argue1.gif""</stim_listB>",is arguing with,
null,"<div style=""font-size:60px;"">+</div>",,html-keyboard-response,411,1464202,0.0-19.0-0.6,6261,List1B,white,woman,,,,null,,,,
null,"<img src=""stim_listB/talk1.gif""</stim_listB>",,html-keyboard-response,412,1466208,0.0-19.0-1.6,6261,List1B,white,woman,,,,null,,,,
null,is talking to,,html-keyboard-response,413,1468212,0.0-19.0-2.6,6261,List1B,white,woman,,,,null,,,,
6469,,,survey-text,414,1474684,0.0-19.0-3.6,6261,List1B,white,woman,,,,,"{""Q0"":""Kate is talking to Fred""}","<img src=""stim_listB/talk1.gif""</stim_listB>",is talking to,
null,"<div style=""font-size:60px;"">+</div>",,html-keyboard-response,415,1475187,0.0-19.0-0.7,6261,List1B,white,woman,,,,null,,,,
null,"<img src=""stim_listB/meet3.gif""</stim_listB>",,html-keyboard-response,416,1477192,0.0-19.0-1.7,6261,List1B,white,woman,,,,null,,,,
null,is meeting,,html-keyboard-response,417,1479196,0.0-19.0-2.7,6261,List1B,white,woman,,,,null,,,,
5716,,,survey-text,418,1484916,0.0-19.0-3.7,6261,List1B,white,woman,,,,,"{""Q0"":""Jane is meeting Dave""}","<img src=""stim_listB/meet3.gif""</stim_listB>",is meeting,
null,"<div style=""font-size:60px;"">+</div>",,html-keyboard-response,419,1485421,0.0-19.0-0.8,6261,List1B,white,woman,,,,null,,,,
null,"<img src=""stim_listB/kiss4.gif""</stim_listB>",,html-keyboard-response,420,1487427,0.0-19.0-1.8,6261,List1B,white,woman,,,,null,,,,
null,are kissing each other,,html-keyboard-response,421,1489431,0.0-19.0-2.8,6261,List1B,white,woman,,,,null,,,,
7935,,,survey-text,422,1497369,0.0-19.0-3.8,6261,List1B,white,woman,,,,,"{""Q0"":""Jane and Dave are kissing each other""}","<img src=""stim_listB/kiss4.gif""</stim_listB>",are kissing each other,
null,"<div style=""font-size:60px;"">+</div>",,html-keyboard-response,423,1497874,0.0-19.0-0.9,6261,List1B,white,woman,,,,null,,,,
null,"<img src=""stim_listB/touch3.gif""</stim_listB>",,html-keyboard-response,424,1499879,0.0-19.0-1.9,6261,List1B,white,woman,,,,null,,,,
null,is touching,,html-keyboard-response,425,1501884,0.0-19.0-2.9,6261,List1B,white,woman,,,,null,,,,
5765,,,survey-text,426,1507652,0.0-19.0-3.9,6261,List1B,white,woman,,,,,"{""Q0"":""Jane is touching Dave""}","<img src=""stim_listB/touch3.gif""</stim_listB>",is touching,
null,"<div style=""font-size:60px;"">+</div>",,html-keyboard-response,427,1508156,0.0-19.0-0.10,6261,List1B,white,woman,,,,null,,,,
null,"<img src=""stim_listB/meet6.gif""</stim_listB>",,html-keyboard-response,428,1510160,0.0-19.0-1.10,6261,List1B,white,woman,,,,null,,,,
null,are meeting each other,,html-keyboard-response,429,1512164,0.0-19.0-2.10,6261,List1B,white,woman,,,,null,,,,
8271,,,survey-text,430,1520439,0.0-19.0-3.10,6261,List1B,white,woman,,,,,"{""Q0"":""Fred and Luke are meeting each other""}","<img src=""stim_listB/meet6.gif""</stim_listB>",are meeting each other,
null,"<div style=""font-size:60px;"">+</div>",,html-keyboard-response,431,1520944,0.0-19.0-0.11,6261,List1B,white,woman,,,,null,,,,
null,"<img src=""stim_listB/dance5.gif""</stim_listB>",,html-keyboard-response,432,1522949,0.0-19.0-1.11,6261,List1B,white,woman,,,,null,,,,
null,is dancing with,,html-keyboard-response,433,1524953,0.0-19.0-2.11,6261,List1B,white,woman,,,,null,,,,
5951,,,survey-text,434,1530908,0.0-19.0-3.11,6261,List1B,white,woman,,,,,"{""Q0"":""Dave is dancing with Fred""}","<img src=""stim_listB/dance5.gif""</stim_listB>",is dancing with,
null,"<div style=""font-size:60px;"">+</div>",,html-keyboard-response,435,1531411,0.0-19.0-0.12,6261,List1B,white,woman,,,,null,,,,
null,"<img src=""stim_listB/fight3.gif""</stim_listB>",,html-keyboard-response,436,1533416,0.0-19.0-1.12,6261,List1B,white,woman,,,,null,,,,
null,is fighting,,html-keyboard-response,437,1535420,0.0-19.0-2.12,6261,List1B,white,woman,,,,null,,,,
5599,,,survey-text,438,1541023,0.0-19.0-3.12,6261,List1B,white,woman,,,,,"{""Q0"":""Jane is fighting Dave""}","<img src=""stim_listB/fight3.gif""</stim_listB>",is fighting,
null,"<div style=""font-size:60px;"">+</div>",,html-keyboard-response,439,1541526,0.0-19.0-0.13,6261,List1B,white,woman,,,,null,,,,
null,"<img src=""stim_listB/fight2.gif""</stim_listB>",,html-keyboard-response,440,1543531,0.0-19.0-1.13,6261,List1B,white,woman,,,,null,,,,
null,are fighting each other,,html-keyboard-response,441,1545542,0.0-19.0-2.13,6261,List1B,white,woman,,,,null,,,,
8730,,,survey-text,442,1554276,0.0-19.0-3.13,6261,List1B,white,woman,,,,,"{""Q0"":""Fred and Beth are fighting each other""}","<img src=""stim_listB/fight2.gif""</stim_listB>",are fighting each other,
null,"<div style=""font-size:60px;"">+</div>",,html-keyboard-response,443,1554780,0.0-19.0-0.14,6261,List1B,white,woman,,,,null,,,,
null,"<img src=""stim_listB/marry4.gif""</stim_listB>",,html-keyboard-response,444,1556785,0.0-19.0-1.14,6261,List1B,white,woman,,,,null,,,,
null,are marrying each other,,html-keyboard-response,445,1558789,0.0-19.0-2.14,6261,List1B,white,woman,,,,null,,,,
8350,,,survey-text,446,1567143,0.0-19.0-3.14,6261,List1B,white,woman,,,,,"{""Q0"":""Jane and Luke are marrying each other""}","<img src=""stim_listB/marry4.gif""</stim_listB>",are marrying each other,
null,"<div style=""font-size:60px;"">+</div>",,html-keyboard-response,447,1567647,0.0-19.0-0.15,6261,List1B,white,woman,,,,null,,,,
null,"<img src=""stim_listB/hug1.gif""</stim_listB>",,html-keyboard-response,448,1569652,0.0-19.0-1.15,6261,List1B,white,woman,,,,null,,,,
null,is hugging,,html-keyboard-response,449,1571656,0.0-19.0-2.15,6261,List1B,white,woman,,,,null,,,,
6002,,,survey-text,450,1577662,0.0-19.0-3.15,6261,List1B,white,woman,,,,,"{""Q0"":""Beth is hugging Fred""}","<img src=""stim_listB/hug1.gif""</stim_listB>",is hugging,
null,"<div style=""font-size:60px;"">+</div>",,html-keyboard-response,451,1578165,0.0-19.0-0.16,6261,List1B,white,woman,,,,null,,,,
null,"<img src=""stim_listB/fight7.gif""</stim_listB>",,html-keyboard-response,452,1580170,0.0-19.0-1.16,6261,List1B,white,woman,,,,null,,,,
null,is fighting,,html-keyboard-response,453,1582174,0.0-19.0-2.16,6261,List1B,white,woman,,,,null,,,,
5819,,,survey-text,454,1587996,0.0-19.0-3.16,6261,List1B,white,woman,,,,,"{""Q0"":""Jane is fighting Kate""}","<img src=""stim_listB/fight7.gif""</stim_listB>",is fighting,
null,"<div style=""font-size:60px;"">+</div>",,html-keyboard-response,455,1588500,0.0-19.0-0.17,6261,List1B,white,woman,,,,null,,,,
null,"<img src=""stim_listB/meet7.gif""</stim_listB>",,html-keyboard-response,456,1590505,0.0-19.0-1.17,6261,List1B,white,woman,,,,null,,,,
null,is meeting,,html-keyboard-response,457,1592509,0.0-19.0-2.17,6261,List1B,white,woman,,,,null,,,,
5734,,,survey-text,458,1598247,0.0-19.0-3.17,6261,List1B,white,woman,,,,,"{""Q0"":""Jane is meeting Kate""}","<img src=""stim_listB/meet7.gif""</stim_listB>",is meeting,
null,"<div style=""font-size:60px;"">+</div>",,html-keyboard-response,459,1598751,0.0-19.0-0.18,6261,List1B,white,woman,,,,null,,,,
null,"<img src=""stim_listB/argue4.gif""</stim_listB>",,html-keyboard-response,460,1600756,0.0-19.0-1.18,6261,List1B,white,woman,,,,null,,,,
null,are arguing with each other,,html-keyboard-response,461,1602760,0.0-19.0-2.18,6261,List1B,white,woman,,,,null,,,,
8769,,,survey-text,462,1611532,0.0-19.0-3.18,6261,List1B,white,woman,,,,,"{""Q0"":""Jane and Luke are arguing with each other""}","<img src=""stim_listB/argue4.gif""</stim_listB>",are arguing with each other,
null,"<div style=""font-size:60px;"">+</div>",,html-keyboard-response,463,1612036,0.0-19.0-0.19,6261,List1B,white,woman,,,,null,,,,
null,"<img src=""stim_listB/talk5.gif""</stim_listB>",,html-keyboard-response,464,1614040,0.0-19.0-1.19,6261,List1B,white,woman,,,,null,,,,
null,is talking to,,html-keyboard-response,465,1616044,0.0-19.0-2.19,6261,List1B,white,woman,,,,null,,,,
6115,,,survey-text,466,1622169,0.0-19.0-3.19,6261,List1B,white,woman,,,,,"{""Q0"":""Dave is talking to Fred""}","<img src=""stim_listB/talk5.gif""</stim_listB>",is talking to,
3144,<p>Thank you for completing that task.</p><p>The final part of this session is a short questionnaire.</p><p>Press Continue.</p>,0,html-button-response,467,1625316,0.0-20.0,6261,List1B,white,woman,,,,,,,,
18850,,,survey-text,468,1645172,0.0-21.0,6261,List1B,white,woman,,,,,"{""Q0"":""25"",""Q1"":""English"",""Q2"":""English"",""Q3"":""England"",""Q4"":""White "",""Q5"":""Female""}",,,demographics
45474,,,survey-likert,469,1690661,0.0-22.0,6261,List1B,white,woman,,,,,"{""Q0"":5,""Q1"":5,""Q2"":5,""Q3"":6,""Q4"":5,""Q5"":5,""Q6"":4,""Q7"":2,""Q8"":4,""Q9"":4,""Q10"":5,""Q11"":5,""Q12"":5,""Q13"":5}",,,likert_race
29371,,,survey-likert,470,1720038,0.0-23.0,6261,List1B,white,woman,,,,,"{""Q0"":6,""Q1"":6,""Q2"":6,""Q3"":6,""Q4"":6,""Q5"":6,""Q6"":6,""Q7"":2,""Q8"":6,""Q9"":6,""Q10"":6,""Q11"":6,""Q12"":6,""Q13"":6}",,,likert_gender
10195,,,survey-text,471,1730239,0.0-24.0,6261,List1B,white,woman,,,,,"{""Q0"":""ccc""}",,,worker_id
7770,,,external-html,472,1738096,0.0-25.0,6261,List1B,white,woman,debrief.html,,,,,,,
