rt,stimulus,button_pressed,trial_type,trial_index,time_elapsed,internal_node_id,subject,list,ppt_race,ppt_gender,url,first_guess,correct,key_press,responses,image_type,phrase_type,test_part
1479,Welcome to the experiment. Press Continue to begin.,0,html-button-response,0,1483,0.0-0.0,63140,List1A,black,woman,,,,,,,,
25172,,,external-html,1,27760,0.0-1.0,63140,List1A,black,woman,consent.html,,,,,,,
9159,"<p>On the next page, you will see portraits of 8 people and their names.</p><p>Your first task is to take a few minutes to memorise the names of these people.</p><p>You will have to recall their names during the rest of the experiment, so it is</p><p>essential that you try to memorise these people and their names as best as you can.</p><br><p><strong>You will then be tested on your memory of these names and portraits.</strong></p><br><p>The experiment will start after you have completed this memory test.</p><br><p>Ready?</p>",0,html-button-response,2,36919,0.0-2.0,63140,List1A,black,woman,,,,,,,,
71358,"<img src='img/portrait_matrix_list1.JPG' style='width:900px;height:500px;''></img><p>If you have memorised all the portraits and names and are ready to start, press Continue.</p><p><strong>Please note: Your memory of these faces will be tested 4 times during this experiment.</strong></p>",0,html-button-response,3,109279,0.0-3.0-0.0,63140,List1A,black,woman,,,,,,,,
9485,"<img src=""portrait/WW2.jpg""style=""width:400px;height:400px;""></img>",3,html-button-response,4,119766,0.0-3.0-1.0,63140,List1A,black,woman,,TRUE,3,,,,,
null,CORRECT,,html-keyboard-response,5,121271,0.0-3.0-2.0-0.0,63140,List1A,black,woman,,,,null,,,,
7862,"<img src=""portrait/WW1.jpg""style=""width:400px;height:400px;""></img>",1,html-button-response,6,129134,0.0-3.0-4.0,63140,List1A,black,woman,,TRUE,1,,,,,
null,CORRECT,,html-keyboard-response,7,130638,0.0-3.0-5.0-0.0,63140,List1A,black,woman,,,,null,,,,
11815,"<img src=""portrait/WM2.jpg""style=""width:400px;height:400px;""></img>",7,html-button-response,8,142454,0.0-3.0-7.0,63140,List1A,black,woman,,TRUE,7,,,,,
null,CORRECT,,html-keyboard-response,9,143956,0.0-3.0-8.0-0.0,63140,List1A,black,woman,,,,null,,,,
2433,"<img src=""portrait/BM1.jpg""style=""width:400px;height:400px;""></img>",4,html-button-response,10,146390,0.0-3.0-10.0,63140,List1A,black,woman,,TRUE,4,,,,,
null,CORRECT,,html-keyboard-response,11,147892,0.0-3.0-11.0-0.0,63140,List1A,black,woman,,,,null,,,,
9457,"<img src=""portrait/BM2.jpg""style=""width:400px;height:400px;""></img>",6,html-button-response,12,157349,0.0-3.0-13.0,63140,List1A,black,woman,,TRUE,5,,,,,
2679,"<img src=""portrait/BM2.jpg""style=""width:400px;height:400px;""></img>",5,html-button-response,13,161029,0.0-3.0-15.0-0.0,63140,List1A,black,woman,,FALSE,5,,,,,
null,CORRECT,,html-keyboard-response,14,162531,0.0-3.0-15.0-1.0-0.0,63140,List1A,black,woman,,,,null,,,,
4776,"<img src=""portrait/BW2.jpg""style=""width:400px;height:400px;""></img>",2,html-button-response,15,167309,0.0-3.0-16.0,63140,List1A,black,woman,,TRUE,2,,,,,
null,CORRECT,,html-keyboard-response,16,168810,0.0-3.0-17.0-0.0,63140,List1A,black,woman,,,,null,,,,
2601,"<img src=""portrait/BW1.jpg""style=""width:400px;height:400px;""></img>",0,html-button-response,17,171413,0.0-3.0-19.0,63140,List1A,black,woman,,TRUE,0,,,,,
null,CORRECT,,html-keyboard-response,18,172914,0.0-3.0-20.0-0.0,63140,List1A,black,woman,,,,null,,,,
4836,"<img src=""portrait/WM1.jpg""style=""width:400px;height:400px;""></img>",6,html-button-response,19,177751,0.0-3.0-22.0,63140,List1A,black,woman,,TRUE,6,,,,,
null,CORRECT,,html-keyboard-response,20,179252,0.0-3.0-23.0-0.0,63140,List1A,black,woman,,,,null,,,,
1889,<p>You got 7 out of 8 right first time. Press Continue.</p>,0,html-button-response,21,181143,0.0-3.0-25.0,63140,List1A,black,woman,,,,,,,,
2774,"As you did not score 100%, the memory game will repeat. Press Continue.",0,html-button-response,22,184918,0.0-3.0-26.0-0.0,63140,List1A,black,woman,,,,,,,,
23445,"<img src='img/portrait_matrix_list1.JPG' style='width:900px;height:500px;''></img><p>If you have memorised all the portraits and names and are ready to start, press Continue.</p><p><strong>Please note: Your memory of these faces will be tested 4 times during this experiment.</strong></p>",0,html-button-response,23,209365,0.0-3.1-0.1,63140,List1A,black,woman,,,,,,,,
3158,"<img src=""portrait/WW2.jpg""style=""width:400px;height:400px;""></img>",3,html-button-response,24,213525,0.0-3.1-1.1,63140,List1A,black,woman,,TRUE,3,,,,,
null,CORRECT,,html-keyboard-response,25,215026,0.0-3.1-2.1-0.1,63140,List1A,black,woman,,,,null,,,,
5305,"<img src=""portrait/WW1.jpg""style=""width:400px;height:400px;""></img>",1,html-button-response,26,220333,0.0-3.1-4.1,63140,List1A,black,woman,,TRUE,1,,,,,
null,CORRECT,,html-keyboard-response,27,221835,0.0-3.1-5.1-0.1,63140,List1A,black,woman,,,,null,,,,
1881,"<img src=""portrait/WM2.jpg""style=""width:400px;height:400px;""></img>",7,html-button-response,28,223717,0.0-3.1-7.1,63140,List1A,black,woman,,TRUE,7,,,,,
null,CORRECT,,html-keyboard-response,29,225219,0.0-3.1-8.1-0.1,63140,List1A,black,woman,,,,null,,,,
1897,"<img src=""portrait/BM1.jpg""style=""width:400px;height:400px;""></img>",4,html-button-response,30,227116,0.0-3.1-10.1,63140,List1A,black,woman,,TRUE,4,,,,,
null,CORRECT,,html-keyboard-response,31,228619,0.0-3.1-11.1-0.1,63140,List1A,black,woman,,,,null,,,,
1929,"<img src=""portrait/BM2.jpg""style=""width:400px;height:400px;""></img>",5,html-button-response,32,230549,0.0-3.1-13.1,63140,List1A,black,woman,,TRUE,5,,,,,
null,CORRECT,,html-keyboard-response,33,232051,0.0-3.1-14.1-0.1,63140,List1A,black,woman,,,,null,,,,
2713,"<img src=""portrait/BW2.jpg""style=""width:400px;height:400px;""></img>",2,html-button-response,34,234764,0.0-3.1-16.1,63140,List1A,black,woman,,TRUE,2,,,,,
null,CORRECT,,html-keyboard-response,35,236266,0.0-3.1-17.1-0.1,63140,List1A,black,woman,,,,null,,,,
2249,"<img src=""portrait/BW1.jpg""style=""width:400px;height:400px;""></img>",0,html-button-response,36,238516,0.0-3.1-19.1,63140,List1A,black,woman,,TRUE,0,,,,,
null,CORRECT,,html-keyboard-response,37,240018,0.0-3.1-20.1-0.1,63140,List1A,black,woman,,,,null,,,,
2987,"<img src=""portrait/WM1.jpg""style=""width:400px;height:400px;""></img>",6,html-button-response,38,243006,0.0-3.1-22.1,63140,List1A,black,woman,,TRUE,6,,,,,
null,CORRECT,,html-keyboard-response,39,244508,0.0-3.1-23.1-0.1,63140,List1A,black,woman,,,,null,,,,
2432,<p>You got 8 out of 8 right first time. Press Continue.</p>,0,html-button-response,40,246942,0.0-3.1-25.1,63140,List1A,black,woman,,,,,,,,
25165,"<p>In this experiment, you will view photographs of the people from the memory game interacting.</p><p>By using the <strong>exact</strong> phrase given <i>after</i> the photograph appears and recalling the correct names of the people in the photographs, form a sentence describing the interaction. You do not need to capitalise names.</p><p>Type your answer in the space provided. Please complete every sentence before moving onto the next trial.</p><p>You will only have a few seconds to memorise each given photograph and phrase before you can respond, so try your best to focus.</p><p>An example is given below. Press 'Continue' when you are ready.</p><img src='img/speaking_example_v2.jpg' style='width:800px;height:460px;''></img>",0,html-button-response,41,273109,0.0-4.0,63140,List1A,black,woman,,,,,,,,
1775,"<p>Before the experiment starts, you will watch two example trials. Press 'Continue'.</p>",0,html-button-response,42,275884,0.0-5.0,63140,List1A,black,woman,,,,,,,,
null,<img src='img/speaking_WW.gif'></img>,,html-keyboard-response,43,278886,0.0-6.0,63140,List1A,black,woman,,,,null,,,,
null,<p>is speaking to</p>,,html-keyboard-response,44,280887,0.0-7.0,63140,List1A,black,woman,,,,null,,,,
3637,<p><b>Answer:</b> kate is speaking to beth</p>,0,html-button-response,45,284524,0.0-8.0,63140,List1A,black,woman,,,,,,,,
null,<img src='img/pointing_BM.gif'></img>,,html-keyboard-response,46,287526,0.0-9.0,63140,List1A,black,woman,,,,null,,,,
null,<p>are pointing at each other</p>,,html-keyboard-response,47,289527,0.0-10.0,63140,List1A,black,woman,,,,null,,,,
2531,<p><b>Answer:</b> luke and dave are pointing at each other</p>,0,html-button-response,48,292060,0.0-11.0,63140,List1A,black,woman,,,,,,,,
4110,"<p>Ready to start the experiment?</p><br><p><strong>Remember to describe the picture using a full sentence,</strong></p><p><strong> that combines the names of the people with the given phrase.</strong></p><p><strong> You do not need to capitalise names or use punctuation.</strong></p><br><p>Press 'Continue' to begin.</p>",0,html-button-response,49,297172,0.0-12.0,63140,List1A,black,woman,,,,,,,,
null,"<div style=""font-size:60px;"">+</div>",,html-keyboard-response,50,298674,0.0-13.0-0.0,63140,List1A,black,woman,,,,null,,,,
null,"<img src=""stim_listA/hug2.gif""</stim_listA>",,html-keyboard-response,51,300676,0.0-13.0-1.0,63140,List1A,black,woman,,,,null,,,,
null,are hugging each other,,html-keyboard-response,52,302680,0.0-13.0-2.0,63140,List1A,black,woman,,,,null,,,,
10709,,,survey-text,53,313389,0.0-13.0-3.0,63140,List1A,black,woman,,,,,"{""Q0"":""kate and mike are hugging each other""}","<img src=""stim_listA/hug2.gif""</stim_listA>",are hugging each other,
null,"<div style=""font-size:60px;"">+</div>",,html-keyboard-response,54,313891,0.0-13.0-0.1,63140,List1A,black,woman,,,,null,,,,
null,"<img src=""stim_listA/argue2.gif""</stim_listA>",,html-keyboard-response,55,315892,0.0-13.0-1.1,63140,List1A,black,woman,,,,null,,,,
null,are arguing with each other,,html-keyboard-response,56,317893,0.0-13.0-2.1,63140,List1A,black,woman,,,,null,,,,
15719,,,survey-text,57,333612,0.0-13.0-3.1,63140,List1A,black,woman,,,,,"{""Q0"":""kate and fred are arguing with each other""}","<img src=""stim_listA/argue2.gif""</stim_listA>",are arguing with each other,
null,"<div style=""font-size:60px;"">+</div>",,html-keyboard-response,58,334113,0.0-13.0-0.2,63140,List1A,black,woman,,,,null,,,,
null,"<img src=""stim_listA/shout3.gif""</stim_listA>",,html-keyboard-response,59,336117,0.0-13.0-1.2,63140,List1A,black,woman,,,,null,,,,
null,is shouting at,,html-keyboard-response,60,338118,0.0-13.0-2.2,63140,List1A,black,woman,,,,null,,,,
10156,,,survey-text,61,348275,0.0-13.0-3.2,63140,List1A,black,woman,,,,,"{""Q0"":""ruth is shouting at luke""}","<img src=""stim_listA/shout3.gif""</stim_listA>",is shouting at,
null,"<div style=""font-size:60px;"">+</div>",,html-keyboard-response,62,348777,0.0-13.0-0.3,63140,List1A,black,woman,,,,null,,,,
null,"<img src=""stim_listA/shout7.gif""</stim_listA>",,html-keyboard-response,63,350778,0.0-13.0-1.3,63140,List1A,black,woman,,,,null,,,,
null,is shouting at,,html-keyboard-response,64,352779,0.0-13.0-2.3,63140,List1A,black,woman,,,,null,,,,
9210,,,survey-text,65,361989,0.0-13.0-3.3,63140,List1A,black,woman,,,,,"{""Q0"":""ruth is shouting at beth""}","<img src=""stim_listA/shout7.gif""</stim_listA>",is shouting at,
null,"<div style=""font-size:60px;"">+</div>",,html-keyboard-response,66,362490,0.0-13.0-0.4,63140,List1A,black,woman,,,,null,,,,
null,"<img src=""stim_listA/hug5.gif""</stim_listA>",,html-keyboard-response,67,364491,0.0-13.0-1.4,63140,List1A,black,woman,,,,null,,,,
null,is hugging,,html-keyboard-response,68,366492,0.0-13.0-2.4,63140,List1A,black,woman,,,,null,,,,
9655,,,survey-text,69,376149,0.0-13.0-3.4,63140,List1A,black,woman,,,,,"{""Q0"":""fred is hugging luke""}","<img src=""stim_listA/hug5.gif""</stim_listA>",is hugging,
null,"<div style=""font-size:60px;"">+</div>",,html-keyboard-response,70,376650,0.0-13.0-0.5,63140,List1A,black,woman,,,,null,,,,
null,"<img src=""stim_listA/marry4.gif""</stim_listA>",,html-keyboard-response,71,378651,0.0-13.0-1.5,63140,List1A,black,woman,,,,null,,,,
null,are marrying each other,,html-keyboard-response,72,380652,0.0-13.0-2.5,63140,List1A,black,woman,,,,null,,,,
12240,,,survey-text,73,392892,0.0-13.0-3.5,63140,List1A,black,woman,,,,,"{""Q0"":""jane and luke are marrying each other""}","<img src=""stim_listA/marry4.gif""</stim_listA>",are marrying each other,
null,"<div style=""font-size:60px;"">+</div>",,html-keyboard-response,74,393393,0.0-13.0-0.6,63140,List1A,black,woman,,,,null,,,,
null,"<img src=""stim_listA/marry7.gif""</stim_listA>",,html-keyboard-response,75,395394,0.0-13.0-1.6,63140,List1A,black,woman,,,,null,,,,
null,is marrying,,html-keyboard-response,76,397395,0.0-13.0-2.6,63140,List1A,black,woman,,,,null,,,,
11784,,,survey-text,77,409179,0.0-13.0-3.6,63140,List1A,black,woman,,,,,"{""Q0"":""kate is marrying ruth""}","<img src=""stim_listA/marry7.gif""</stim_listA>",is marrying,
null,"<div style=""font-size:60px;"">+</div>",,html-keyboard-response,78,409680,0.0-13.0-0.7,63140,List1A,black,woman,,,,null,,,,
null,"<img src=""stim_listA/meet4.gif""</stim_listA>",,html-keyboard-response,79,411681,0.0-13.0-1.7,63140,List1A,black,woman,,,,null,,,,
null,are meeting each other,,html-keyboard-response,80,413682,0.0-13.0-2.7,63140,List1A,black,woman,,,,null,,,,
11282,,,survey-text,81,424966,0.0-13.0-3.7,63140,List1A,black,woman,,,,,"{""Q0"":""luke and ruth are meeting each other""}","<img src=""stim_listA/meet4.gif""</stim_listA>",are meeting each other,
null,"<div style=""font-size:60px;"">+</div>",,html-keyboard-response,82,425467,0.0-13.0-0.8,63140,List1A,black,woman,,,,null,,,,
null,"<img src=""stim_listA/shout8.gif""</stim_listA>",,html-keyboard-response,83,427468,0.0-13.0-1.8,63140,List1A,black,woman,,,,null,,,,
null,are shouting at each other,,html-keyboard-response,84,429469,0.0-13.0-2.8,63140,List1A,black,woman,,,,null,,,,
17735,,,survey-text,85,447204,0.0-13.0-3.8,63140,List1A,black,woman,,,,,"{""Q0"":""jane and kate are shouting at each other""}","<img src=""stim_listA/shout8.gif""</stim_listA>",are shouting at each other,
null,"<div style=""font-size:60px;"">+</div>",,html-keyboard-response,86,447705,0.0-13.0-0.9,63140,List1A,black,woman,,,,null,,,,
null,"<img src=""stim_listA/meet2.gif""</stim_listA>",,html-keyboard-response,87,449706,0.0-13.0-1.9,63140,List1A,black,woman,,,,null,,,,
null,are meeting each other,,html-keyboard-response,88,451708,0.0-13.0-2.9,63140,List1A,black,woman,,,,null,,,,
8823,,,survey-text,89,460532,0.0-13.0-3.9,63140,List1A,black,woman,,,,,"{""Q0"":""beth and fred are meeting each other""}","<img src=""stim_listA/meet2.gif""</stim_listA>",are meeting each other,
null,"<div style=""font-size:60px;"">+</div>",,html-keyboard-response,90,461033,0.0-13.0-0.10,63140,List1A,black,woman,,,,null,,,,
null,"<img src=""stim_listA/dance4.gif""</stim_listA>",,html-keyboard-response,91,463034,0.0-13.0-1.10,63140,List1A,black,woman,,,,null,,,,
null,are dancing with each other,,html-keyboard-response,92,465035,0.0-13.0-2.10,63140,List1A,black,woman,,,,null,,,,
9247,,,survey-text,93,474283,0.0-13.0-3.10,63140,List1A,black,woman,,,,,"{""Q0"":""dave and ruth are dancing with each other""}","<img src=""stim_listA/dance4.gif""</stim_listA>",are dancing with each other,
null,"<div style=""font-size:60px;"">+</div>",,html-keyboard-response,94,474784,0.0-13.0-0.11,63140,List1A,black,woman,,,,null,,,,
null,"<img src=""stim_listA/shout5.gif""</stim_listA>",,html-keyboard-response,95,476785,0.0-13.0-1.11,63140,List1A,black,woman,,,,null,,,,
null,is shouting at,,html-keyboard-response,96,478786,0.0-13.0-2.11,63140,List1A,black,woman,,,,null,,,,
5921,,,survey-text,97,484709,0.0-13.0-3.11,63140,List1A,black,woman,,,,,"{""Q0"":""fred is shouting at luke""}","<img src=""stim_listA/shout5.gif""</stim_listA>",is shouting at,
null,"<div style=""font-size:60px;"">+</div>",,html-keyboard-response,98,485210,0.0-13.0-0.12,63140,List1A,black,woman,,,,null,,,,
null,"<img src=""stim_listA/talk5.gif""</stim_listA>",,html-keyboard-response,99,487211,0.0-13.0-1.12,63140,List1A,black,woman,,,,null,,,,
null,is talking to,,html-keyboard-response,100,489212,0.0-13.0-2.12,63140,List1A,black,woman,,,,null,,,,
6575,,,survey-text,101,495788,0.0-13.0-3.12,63140,List1A,black,woman,,,,,"{""Q0"":""dave is talking to fred""}","<img src=""stim_listA/talk5.gif""</stim_listA>",is talking to,
null,"<div style=""font-size:60px;"">+</div>",,html-keyboard-response,102,496289,0.0-13.0-0.13,63140,List1A,black,woman,,,,null,,,,
null,"<img src=""stim_listA/fight4.gif""</stim_listA>",,html-keyboard-response,103,498290,0.0-13.0-1.13,63140,List1A,black,woman,,,,null,,,,
null,are fighting each other,,html-keyboard-response,104,500293,0.0-13.0-2.13,63140,List1A,black,woman,,,,null,,,,
11157,,,survey-text,105,511451,0.0-13.0-3.13,63140,List1A,black,woman,,,,,"{""Q0"":""luke and ruth are fighting each other""}","<img src=""stim_listA/fight4.gif""</stim_listA>",are fighting each other,
null,"<div style=""font-size:60px;"">+</div>",,html-keyboard-response,106,511953,0.0-13.0-0.14,63140,List1A,black,woman,,,,null,,,,
null,"<img src=""stim_listA/touch7.gif""</stim_listA>",,html-keyboard-response,107,513954,0.0-13.0-1.14,63140,List1A,black,woman,,,,null,,,,
null,is touching,,html-keyboard-response,108,515955,0.0-13.0-2.14,63140,List1A,black,woman,,,,null,,,,
9743,,,survey-text,109,525699,0.0-13.0-3.14,63140,List1A,black,woman,,,,,"{""Q0"":""jane and kate are touching""}","<img src=""stim_listA/touch7.gif""</stim_listA>",is touching,
null,"<div style=""font-size:60px;"">+</div>",,html-keyboard-response,110,526200,0.0-13.0-0.15,63140,List1A,black,woman,,,,null,,,,
null,"<img src=""stim_listA/argue8.gif""</stim_listA>",,html-keyboard-response,111,528201,0.0-13.0-1.15,63140,List1A,black,woman,,,,null,,,,
null,are arguing with each other,,html-keyboard-response,112,530202,0.0-13.0-2.15,63140,List1A,black,woman,,,,null,,,,
13776,,,survey-text,113,543980,0.0-13.0-3.15,63140,List1A,black,woman,,,,,"{""Q0"":""beth and jane are arguing with each other""}","<img src=""stim_listA/argue8.gif""</stim_listA>",are arguing with each other,
null,"<div style=""font-size:60px;"">+</div>",,html-keyboard-response,114,544481,0.0-13.0-0.16,63140,List1A,black,woman,,,,null,,,,
null,"<img src=""stim_listA/argue1.gif""</stim_listA>",,html-keyboard-response,115,546482,0.0-13.0-1.16,63140,List1A,black,woman,,,,null,,,,
null,is arguing with,,html-keyboard-response,116,548483,0.0-13.0-2.16,63140,List1A,black,woman,,,,null,,,,
9031,,,survey-text,117,557515,0.0-13.0-3.16,63140,List1A,black,woman,,,,,"{""Q0"":""mike is arguing with beth""}","<img src=""stim_listA/argue1.gif""</stim_listA>",is arguing with,
null,"<div style=""font-size:60px;"">+</div>",,html-keyboard-response,118,558016,0.0-13.0-0.17,63140,List1A,black,woman,,,,null,,,,
null,"<img src=""stim_listA/shout1.gif""</stim_listA>",,html-keyboard-response,119,560017,0.0-13.0-1.17,63140,List1A,black,woman,,,,null,,,,
null,is shouting at,,html-keyboard-response,120,562018,0.0-13.0-2.17,63140,List1A,black,woman,,,,null,,,,
6481,,,survey-text,121,568499,0.0-13.0-3.17,63140,List1A,black,woman,,,,,"{""Q0"":""fred is shouting at beth""}","<img src=""stim_listA/shout1.gif""</stim_listA>",is shouting at,
null,"<div style=""font-size:60px;"">+</div>",,html-keyboard-response,122,569001,0.0-13.0-0.18,63140,List1A,black,woman,,,,null,,,,
null,"<img src=""stim_listA/marry6.gif""</stim_listA>",,html-keyboard-response,123,571002,0.0-13.0-1.18,63140,List1A,black,woman,,,,null,,,,
null,are marrying each other,,html-keyboard-response,124,573003,0.0-13.0-2.18,63140,List1A,black,woman,,,,null,,,,
10487,,,survey-text,125,583490,0.0-13.0-3.18,63140,List1A,black,woman,,,,,"{""Q0"":""dave and fred are marrying each other""}","<img src=""stim_listA/marry6.gif""</stim_listA>",are marrying each other,
null,"<div style=""font-size:60px;"">+</div>",,html-keyboard-response,126,583991,0.0-13.0-0.19,63140,List1A,black,woman,,,,null,,,,
null,"<img src=""stim_listA/argue4.gif""</stim_listA>",,html-keyboard-response,127,585992,0.0-13.0-1.19,63140,List1A,black,woman,,,,null,,,,
null,are arguing with each other,,html-keyboard-response,128,587993,0.0-13.0-2.19,63140,List1A,black,woman,,,,null,,,,
11663,,,survey-text,129,599657,0.0-13.0-3.19,63140,List1A,black,woman,,,,,"{""Q0"":""jane and luke are arguing with each other""}","<img src=""stim_listA/argue4.gif""</stim_listA>",are arguing with each other,
302638,"<img src='img/portrait_matrix_list1.JPG' style='width:900px;height:500px;''></img><p>If you have memorised all the portraits and names and are ready to start, press Continue.</p><p><strong>Please note: Your memory of these faces will be tested 4 times during this experiment.</strong></p>",0,html-button-response,130,902296,0.0-14.0-0.0,63140,List1A,black,woman,,,,,,,,
1957,"<img src=""portrait/WW1.jpg""style=""width:400px;height:400px;""></img>",1,html-button-response,131,905256,0.0-14.0-1.0,63140,List1A,black,woman,,TRUE,1,,,,,
null,CORRECT,,html-keyboard-response,132,906761,0.0-14.0-2.0-0.0,63140,List1A,black,woman,,,,null,,,,
1392,"<img src=""portrait/WM2.jpg""style=""width:400px;height:400px;""></img>",7,html-button-response,133,908154,0.0-14.0-4.0,63140,List1A,black,woman,,TRUE,7,,,,,
null,CORRECT,,html-keyboard-response,134,909656,0.0-14.0-5.0-0.0,63140,List1A,black,woman,,,,null,,,,
1553,"<img src=""portrait/WW2.jpg""style=""width:400px;height:400px;""></img>",3,html-button-response,135,911210,0.0-14.0-7.0,63140,List1A,black,woman,,TRUE,3,,,,,
null,CORRECT,,html-keyboard-response,136,912712,0.0-14.0-8.0-0.0,63140,List1A,black,woman,,,,null,,,,
2505,"<img src=""portrait/BM1.jpg""style=""width:400px;height:400px;""></img>",4,html-button-response,137,915217,0.0-14.0-10.0,63140,List1A,black,woman,,TRUE,4,,,,,
null,CORRECT,,html-keyboard-response,138,916719,0.0-14.0-11.0-0.0,63140,List1A,black,woman,,,,null,,,,
1562,"<img src=""portrait/BW2.jpg""style=""width:400px;height:400px;""></img>",2,html-button-response,139,918281,0.0-14.0-13.0,63140,List1A,black,woman,,TRUE,2,,,,,
null,CORRECT,,html-keyboard-response,140,919783,0.0-14.0-14.0-0.0,63140,List1A,black,woman,,,,null,,,,
2242,"<img src=""portrait/WM1.jpg""style=""width:400px;height:400px;""></img>",6,html-button-response,141,922025,0.0-14.0-16.0,63140,List1A,black,woman,,TRUE,6,,,,,
null,CORRECT,,html-keyboard-response,142,923527,0.0-14.0-17.0-0.0,63140,List1A,black,woman,,,,null,,,,
2721,"<img src=""portrait/BW1.jpg""style=""width:400px;height:400px;""></img>",0,html-button-response,143,926249,0.0-14.0-19.0,63140,List1A,black,woman,,TRUE,0,,,,,
null,CORRECT,,html-keyboard-response,144,927750,0.0-14.0-20.0-0.0,63140,List1A,black,woman,,,,null,,,,
1665,"<img src=""portrait/BM2.jpg""style=""width:400px;height:400px;""></img>",5,html-button-response,145,929417,0.0-14.0-22.0,63140,List1A,black,woman,,TRUE,5,,,,,
null,CORRECT,,html-keyboard-response,146,930930,0.0-14.0-23.0-0.0,63140,List1A,black,woman,,,,null,,,,
1549,<p>You got 8 out of 8 right first time. Press Continue.</p>,0,html-button-response,147,932481,0.0-14.0-25.0,63140,List1A,black,woman,,,,,,,,
null,"<div style=""font-size:60px;"">+</div>",,html-keyboard-response,148,933983,0.0-15.0-0.0,63140,List1A,black,woman,,,,null,,,,
null,"<img src=""stim_listA/touch8.gif""</stim_listA>",,html-keyboard-response,149,935984,0.0-15.0-1.0,63140,List1A,black,woman,,,,null,,,,
null,are touching each other,,html-keyboard-response,150,937985,0.0-15.0-2.0,63140,List1A,black,woman,,,,null,,,,
12294,,,survey-text,151,950280,0.0-15.0-3.0,63140,List1A,black,woman,,,,,"{""Q0"":""ruth and beth are touching each other""}","<img src=""stim_listA/touch8.gif""</stim_listA>",are touching each other,
null,"<div style=""font-size:60px;"">+</div>",,html-keyboard-response,152,950782,0.0-15.0-0.1,63140,List1A,black,woman,,,,null,,,,
null,"<img src=""stim_listA/marry2.gif""</stim_listA>",,html-keyboard-response,153,952783,0.0-15.0-1.1,63140,List1A,black,woman,,,,null,,,,
null,are marrying each other,,html-keyboard-response,154,954783,0.0-15.0-2.1,63140,List1A,black,woman,,,,null,,,,
8207,,,survey-text,155,962991,0.0-15.0-3.1,63140,List1A,black,woman,,,,,"{""Q0"":""fred and kate are marrying each other""}","<img src=""stim_listA/marry2.gif""</stim_listA>",are marrying each other,
null,"<div style=""font-size:60px;"">+</div>",,html-keyboard-response,156,963493,0.0-15.0-0.2,63140,List1A,black,woman,,,,null,,,,
null,"<img src=""stim_listA/argue6.gif""</stim_listA>",,html-keyboard-response,157,965494,0.0-15.0-1.2,63140,List1A,black,woman,,,,null,,,,
null,are arguing with each other,,html-keyboard-response,158,967497,0.0-15.0-2.2,63140,List1A,black,woman,,,,null,,,,
10007,,,survey-text,159,977505,0.0-15.0-3.2,63140,List1A,black,woman,,,,,"{""Q0"":""fred and dave are arguing with each other""}","<img src=""stim_listA/argue6.gif""</stim_listA>",are arguing with each other,
null,"<div style=""font-size:60px;"">+</div>",,html-keyboard-response,160,978006,0.0-15.0-0.3,63140,List1A,black,woman,,,,null,,,,
null,"<img src=""stim_listA/meet8.gif""</stim_listA>",,html-keyboard-response,161,980008,0.0-15.0-1.3,63140,List1A,black,woman,,,,null,,,,
null,are meeting each other,,html-keyboard-response,162,982008,0.0-15.0-2.3,63140,List1A,black,woman,,,,null,,,,
7967,,,survey-text,163,989976,0.0-15.0-3.3,63140,List1A,black,woman,,,,,"{""Q0"":""ruth and beth are meeting each other""}","<img src=""stim_listA/meet8.gif""</stim_listA>",are meeting each other,
null,"<div style=""font-size:60px;"">+</div>",,html-keyboard-response,164,990478,0.0-15.0-0.4,63140,List1A,black,woman,,,,null,,,,
null,"<img src=""stim_listA/fight3.gif""</stim_listA>",,html-keyboard-response,165,992479,0.0-15.0-1.4,63140,List1A,black,woman,,,,null,,,,
null,is fighting,,html-keyboard-response,166,994480,0.0-15.0-2.4,63140,List1A,black,woman,,,,null,,,,
7624,,,survey-text,167,1002104,0.0-15.0-3.4,63140,List1A,black,woman,,,,,"{""Q0"":""jane and dave are fighting""}","<img src=""stim_listA/fight3.gif""</stim_listA>",is fighting,
null,"<div style=""font-size:60px;"">+</div>",,html-keyboard-response,168,1002605,0.0-15.0-0.5,63140,List1A,black,woman,,,,null,,,,
null,"<img src=""stim_listA/talk6.gif""</stim_listA>",,html-keyboard-response,169,1004606,0.0-15.0-1.5,63140,List1A,black,woman,,,,null,,,,
null,are talking to each other,,html-keyboard-response,170,1006607,0.0-15.0-2.5,63140,List1A,black,woman,,,,null,,,,
11399,,,survey-text,171,1018007,0.0-15.0-3.5,63140,List1A,black,woman,,,,,"{""Q0"":""mike and luke are talking to each other""}","<img src=""stim_listA/talk6.gif""</stim_listA>",are talking to each other,
null,"<div style=""font-size:60px;"">+</div>",,html-keyboard-response,172,1018509,0.0-15.0-0.6,63140,List1A,black,woman,,,,null,,,,
null,"<img src=""stim_listA/kiss1.gif""</stim_listA>",,html-keyboard-response,173,1020510,0.0-15.0-1.6,63140,List1A,black,woman,,,,null,,,,
null,is kissing,,html-keyboard-response,174,1022511,0.0-15.0-2.6,63140,List1A,black,woman,,,,null,,,,
7552,,,survey-text,175,1030064,0.0-15.0-3.6,63140,List1A,black,woman,,,,,"{""Q0"":""beth and fred are kissing""}","<img src=""stim_listA/kiss1.gif""</stim_listA>",is kissing,
null,"<div style=""font-size:60px;"">+</div>",,html-keyboard-response,176,1030565,0.0-15.0-0.7,63140,List1A,black,woman,,,,null,,,,
null,"<img src=""stim_listA/talk3.gif""</stim_listA>",,html-keyboard-response,177,1032566,0.0-15.0-1.7,63140,List1A,black,woman,,,,null,,,,
null,is talking to,,html-keyboard-response,178,1034567,0.0-15.0-2.7,63140,List1A,black,woman,,,,null,,,,
8120,,,survey-text,179,1042688,0.0-15.0-3.7,63140,List1A,black,woman,,,,,"{""Q0"":""luke is talking to jane""}","<img src=""stim_listA/talk3.gif""</stim_listA>",is talking to,
null,"<div style=""font-size:60px;"">+</div>",,html-keyboard-response,180,1043188,0.0-15.0-0.8,63140,List1A,black,woman,,,,null,,,,
null,"<img src=""stim_listA/dance2.gif""</stim_listA>",,html-keyboard-response,181,1045190,0.0-15.0-1.8,63140,List1A,black,woman,,,,null,,,,
null,are dancing with each other,,html-keyboard-response,182,1047191,0.0-15.0-2.8,63140,List1A,black,woman,,,,null,,,,
11320,,,survey-text,183,1058511,0.0-15.0-3.8,63140,List1A,black,woman,,,,,"{""Q0"":""mike and beth are dancing with each other""}","<img src=""stim_listA/dance2.gif""</stim_listA>",are dancing with each other,
null,"<div style=""font-size:60px;"">+</div>",,html-keyboard-response,184,1059012,0.0-15.0-0.9,63140,List1A,black,woman,,,,null,,,,
null,"<img src=""stim_listA/marry3.gif""</stim_listA>",,html-keyboard-response,185,1061014,0.0-15.0-1.9,63140,List1A,black,woman,,,,null,,,,
null,is marrying,,html-keyboard-response,186,1063015,0.0-15.0-2.9,63140,List1A,black,woman,,,,null,,,,
30696,,,survey-text,187,1093712,0.0-15.0-3.9,63140,List1A,black,woman,,,,,"{""Q0"":""dave is marrying ruth""}","<img src=""stim_listA/marry3.gif""</stim_listA>",is marrying,
null,"<div style=""font-size:60px;"">+</div>",,html-keyboard-response,188,1094213,0.0-15.0-0.10,63140,List1A,black,woman,,,,null,,,,
null,"<img src=""stim_listA/dance8.gif""</stim_listA>",,html-keyboard-response,189,1096214,0.0-15.0-1.10,63140,List1A,black,woman,,,,null,,,,
null,are dancing with each other,,html-keyboard-response,190,1098215,0.0-15.0-2.10,63140,List1A,black,woman,,,,null,,,,
10936,,,survey-text,191,1109151,0.0-15.0-3.10,63140,List1A,black,woman,,,,,"{""Q0"":""ruth and kate are dancing with each other""}","<img src=""stim_listA/dance8.gif""</stim_listA>",are dancing with each other,
null,"<div style=""font-size:60px;"">+</div>",,html-keyboard-response,192,1109652,0.0-15.0-0.11,63140,List1A,black,woman,,,,null,,,,
null,"<img src=""stim_listA/meet6.gif""</stim_listA>",,html-keyboard-response,193,1111653,0.0-15.0-1.11,63140,List1A,black,woman,,,,null,,,,
null,are meeting each other,,html-keyboard-response,194,1113654,0.0-15.0-2.11,63140,List1A,black,woman,,,,null,,,,
9208,,,survey-text,195,1122862,0.0-15.0-3.11,63140,List1A,black,woman,,,,,"{""Q0"":""fred and luke are meeting each other""}","<img src=""stim_listA/meet6.gif""</stim_listA>",are meeting each other,
null,"<div style=""font-size:60px;"">+</div>",,html-keyboard-response,196,1123363,0.0-15.0-0.12,63140,List1A,black,woman,,,,null,,,,
null,"<img src=""stim_listA/hug1.gif""</stim_listA>",,html-keyboard-response,197,1125364,0.0-15.0-1.12,63140,List1A,black,woman,,,,null,,,,
null,is hugging,,html-keyboard-response,198,1127365,0.0-15.0-2.12,63140,List1A,black,woman,,,,null,,,,
9656,,,survey-text,199,1137022,0.0-15.0-3.12,63140,List1A,black,woman,,,,,"{""Q0"":""fred and beth are hugging""}","<img src=""stim_listA/hug1.gif""</stim_listA>",is hugging,
null,"<div style=""font-size:60px;"">+</div>",,html-keyboard-response,200,1137522,0.0-15.0-0.13,63140,List1A,black,woman,,,,null,,,,
null,"<img src=""stim_listA/shout4.gif""</stim_listA>",,html-keyboard-response,201,1139524,0.0-15.0-1.13,63140,List1A,black,woman,,,,null,,,,
null,are shouting at each other,,html-keyboard-response,202,1141525,0.0-15.0-2.13,63140,List1A,black,woman,,,,null,,,,
11178,,,survey-text,203,1152703,0.0-15.0-3.13,63140,List1A,black,woman,,,,,"{""Q0"":""jane and dave are shouting at each other""}","<img src=""stim_listA/shout4.gif""</stim_listA>",are shouting at each other,
null,"<div style=""font-size:60px;"">+</div>",,html-keyboard-response,204,1153204,0.0-15.0-0.14,63140,List1A,black,woman,,,,null,,,,
null,"<img src=""stim_listA/touch2.gif""</stim_listA>",,html-keyboard-response,205,1155205,0.0-15.0-1.14,63140,List1A,black,woman,,,,null,,,,
null,are touching each other,,html-keyboard-response,206,1157206,0.0-15.0-2.14,63140,List1A,black,woman,,,,null,,,,
10479,,,survey-text,207,1167687,0.0-15.0-3.14,63140,List1A,black,woman,,,,,"{""Q0"":""beth and fred are touching each other""}","<img src=""stim_listA/touch2.gif""</stim_listA>",are touching each other,
null,"<div style=""font-size:60px;"">+</div>",,html-keyboard-response,208,1168188,0.0-15.0-0.15,63140,List1A,black,woman,,,,null,,,,
null,"<img src=""stim_listA/fight2.gif""</stim_listA>",,html-keyboard-response,209,1170189,0.0-15.0-1.15,63140,List1A,black,woman,,,,null,,,,
null,are fighting each other,,html-keyboard-response,210,1172191,0.0-15.0-2.15,63140,List1A,black,woman,,,,null,,,,
13543,,,survey-text,211,1185734,0.0-15.0-3.15,63140,List1A,black,woman,,,,,"{""Q0"":""fred and beth are fighting each other""}","<img src=""stim_listA/fight2.gif""</stim_listA>",are fighting each other,
null,"<div style=""font-size:60px;"">+</div>",,html-keyboard-response,212,1186235,0.0-15.0-0.16,63140,List1A,black,woman,,,,null,,,,
null,"<img src=""stim_listA/talk7.gif""</stim_listA>",,html-keyboard-response,213,1188236,0.0-15.0-1.16,63140,List1A,black,woman,,,,null,,,,
null,is talking to,,html-keyboard-response,214,1190237,0.0-15.0-2.16,63140,List1A,black,woman,,,,null,,,,
6280,,,survey-text,215,1196518,0.0-15.0-3.16,63140,List1A,black,woman,,,,,"{""Q0"":""beth is talking to jane""}","<img src=""stim_listA/talk7.gif""</stim_listA>",is talking to,
null,"<div style=""font-size:60px;"">+</div>",,html-keyboard-response,216,1197018,0.0-15.0-0.17,63140,List1A,black,woman,,,,null,,,,
null,"<img src=""stim_listA/touch5.gif""</stim_listA>",,html-keyboard-response,217,1199019,0.0-15.0-1.17,63140,List1A,black,woman,,,,null,,,,
null,is touching,,html-keyboard-response,218,1201020,0.0-15.0-2.17,63140,List1A,black,woman,,,,null,,,,
9610,,,survey-text,219,1210631,0.0-15.0-3.17,63140,List1A,black,woman,,,,,"{""Q0"":""mike is touching dave""}","<img src=""stim_listA/touch5.gif""</stim_listA>",is touching,
null,"<div style=""font-size:60px;"">+</div>",,html-keyboard-response,220,1211132,0.0-15.0-0.18,63140,List1A,black,woman,,,,null,,,,
null,"<img src=""stim_listA/marry8.gif""</stim_listA>",,html-keyboard-response,221,1213133,0.0-15.0-1.18,63140,List1A,black,woman,,,,null,,,,
null,are marrying each other,,html-keyboard-response,222,1215134,0.0-15.0-2.18,63140,List1A,black,woman,,,,null,,,,
8567,,,survey-text,223,1223702,0.0-15.0-3.18,63140,List1A,black,woman,,,,,"{""Q0"":""beth and jane are marrying each other""}","<img src=""stim_listA/marry8.gif""</stim_listA>",are marrying each other,
null,"<div style=""font-size:60px;"">+</div>",,html-keyboard-response,224,1224204,0.0-15.0-0.19,63140,List1A,black,woman,,,,null,,,,
null,"<img src=""stim_listA/argue3.gif""</stim_listA>",,html-keyboard-response,225,1226205,0.0-15.0-1.19,63140,List1A,black,woman,,,,null,,,,
null,is arguing with,,html-keyboard-response,226,1228206,0.0-15.0-2.19,63140,List1A,black,woman,,,,null,,,,
7623,,,survey-text,227,1235830,0.0-15.0-3.19,63140,List1A,black,woman,,,,,"{""Q0"":""ruth is arguing with dave""}","<img src=""stim_listA/argue3.gif""</stim_listA>",is arguing with,
342590,"<img src='img/portrait_matrix_list1.JPG' style='width:900px;height:500px;''></img><p>If you have memorised all the portraits and names and are ready to start, press Continue.</p><p><strong>Please note: Your memory of these faces will be tested 4 times during this experiment.</strong></p>",0,html-button-response,228,1578420,0.0-16.0-0.0,63140,List1A,black,woman,,,,,,,,
1862,"<img src=""portrait/BM2.jpg""style=""width:400px;height:400px;""></img>",5,html-button-response,229,1581284,0.0-16.0-1.0,63140,List1A,black,woman,,TRUE,5,,,,,
null,CORRECT,,html-keyboard-response,230,1582786,0.0-16.0-2.0-0.0,63140,List1A,black,woman,,,,null,,,,
1793,"<img src=""portrait/WW1.jpg""style=""width:400px;height:400px;""></img>",1,html-button-response,231,1584580,0.0-16.0-4.0,63140,List1A,black,woman,,TRUE,1,,,,,
null,CORRECT,,html-keyboard-response,232,1586081,0.0-16.0-5.0-0.0,63140,List1A,black,woman,,,,null,,,,
1289,"<img src=""portrait/BW1.jpg""style=""width:400px;height:400px;""></img>",0,html-button-response,233,1587372,0.0-16.0-7.0,63140,List1A,black,woman,,TRUE,0,,,,,
null,CORRECT,,html-keyboard-response,234,1588873,0.0-16.0-8.0-0.0,63140,List1A,black,woman,,,,null,,,,
1777,"<img src=""portrait/WM1.jpg""style=""width:400px;height:400px;""></img>",6,html-button-response,235,1590652,0.0-16.0-10.0,63140,List1A,black,woman,,TRUE,6,,,,,
null,CORRECT,,html-keyboard-response,236,1592155,0.0-16.0-11.0-0.0,63140,List1A,black,woman,,,,null,,,,
1536,"<img src=""portrait/WW2.jpg""style=""width:400px;height:400px;""></img>",3,html-button-response,237,1593692,0.0-16.0-13.0,63140,List1A,black,woman,,TRUE,3,,,,,
null,CORRECT,,html-keyboard-response,238,1595194,0.0-16.0-14.0-0.0,63140,List1A,black,woman,,,,null,,,,
1545,"<img src=""portrait/BM1.jpg""style=""width:400px;height:400px;""></img>",4,html-button-response,239,1596740,0.0-16.0-16.0,63140,List1A,black,woman,,TRUE,4,,,,,
null,CORRECT,,html-keyboard-response,240,1598242,0.0-16.0-17.0-0.0,63140,List1A,black,woman,,,,null,,,,
1905,"<img src=""portrait/BW2.jpg""style=""width:400px;height:400px;""></img>",2,html-button-response,241,1600147,0.0-16.0-19.0,63140,List1A,black,woman,,TRUE,2,,,,,
null,CORRECT,,html-keyboard-response,242,1601649,0.0-16.0-20.0-0.0,63140,List1A,black,woman,,,,null,,,,
1458,"<img src=""portrait/WM2.jpg""style=""width:400px;height:400px;""></img>",7,html-button-response,243,1603108,0.0-16.0-22.0,63140,List1A,black,woman,,TRUE,7,,,,,
null,CORRECT,,html-keyboard-response,244,1604610,0.0-16.0-23.0-0.0,63140,List1A,black,woman,,,,null,,,,
1601,<p>You got 8 out of 8 right first time. Press Continue.</p>,0,html-button-response,245,1606211,0.0-16.0-25.0,63140,List1A,black,woman,,,,,,,,
null,"<div style=""font-size:60px;"">+</div>",,html-keyboard-response,246,1607713,0.0-17.0-0.0,63140,List1A,black,woman,,,,null,,,,
null,"<img src=""stim_listA/kiss6.gif""</stim_listA>",,html-keyboard-response,247,1609714,0.0-17.0-1.0,63140,List1A,black,woman,,,,null,,,,
null,are kissing each other,,html-keyboard-response,248,1611715,0.0-17.0-2.0,63140,List1A,black,woman,,,,null,,,,
9671,,,survey-text,249,1621387,0.0-17.0-3.0,63140,List1A,black,woman,,,,,"{""Q0"":""mike and dave are kissing each other""}","<img src=""stim_listA/kiss6.gif""</stim_listA>",are kissing each other,
null,"<div style=""font-size:60px;"">+</div>",,html-keyboard-response,250,1621887,0.0-17.0-0.1,63140,List1A,black,woman,,,,null,,,,
null,"<img src=""stim_listA/dance1.gif""</stim_listA>",,html-keyboard-response,251,1623889,0.0-17.0-1.1,63140,List1A,black,woman,,,,null,,,,
null,is dancing with,,html-keyboard-response,252,1625890,0.0-17.0-2.1,63140,List1A,black,woman,,,,null,,,,
7105,,,survey-text,253,1632996,0.0-17.0-3.1,63140,List1A,black,woman,,,,,"{""Q0"":""kate is dancing with fred""}","<img src=""stim_listA/dance1.gif""</stim_listA>",is dancing with,
null,"<div style=""font-size:60px;"">+</div>",,html-keyboard-response,254,1633497,0.0-17.0-0.2,63140,List1A,black,woman,,,,null,,,,
null,"<img src=""stim_listA/talk8.gif""</stim_listA>",,html-keyboard-response,255,1635498,0.0-17.0-1.2,63140,List1A,black,woman,,,,null,,,,
null,are talking to each other,,html-keyboard-response,256,1637499,0.0-17.0-2.2,63140,List1A,black,woman,,,,null,,,,
14344,,,survey-text,257,1651843,0.0-17.0-3.2,63140,List1A,black,woman,,,,,"{""Q0"":""ruth and kate are talking with each other""}","<img src=""stim_listA/talk8.gif""</stim_listA>",are talking to each other,
null,"<div style=""font-size:60px;"">+</div>",,html-keyboard-response,258,1652344,0.0-17.0-0.3,63140,List1A,black,woman,,,,null,,,,
null,"<img src=""stim_listA/hug4.gif""</stim_listA>",,html-keyboard-response,259,1654345,0.0-17.0-1.3,63140,List1A,black,woman,,,,null,,,,
null,are hugging each other,,html-keyboard-response,260,1656346,0.0-17.0-2.3,63140,List1A,black,woman,,,,null,,,,
8255,,,survey-text,261,1664603,0.0-17.0-3.3,63140,List1A,black,woman,,,,,"{""Q0"":""dave and jane are hugging each other""}","<img src=""stim_listA/hug4.gif""</stim_listA>",are hugging each other,
null,"<div style=""font-size:60px;"">+</div>",,html-keyboard-response,262,1665103,0.0-17.0-0.4,63140,List1A,black,woman,,,,null,,,,
null,"<img src=""stim_listA/fight5.gif""</stim_listA>",,html-keyboard-response,263,1667104,0.0-17.0-1.4,63140,List1A,black,woman,,,,null,,,,
null,is fighting,,html-keyboard-response,264,1669106,0.0-17.0-2.4,63140,List1A,black,woman,,,,null,,,,
7168,,,survey-text,265,1676274,0.0-17.0-3.4,63140,List1A,black,woman,,,,,"{""Q0"":""mike is fighting dave""}","<img src=""stim_listA/fight5.gif""</stim_listA>",is fighting,
null,"<div style=""font-size:60px;"">+</div>",,html-keyboard-response,266,1676776,0.0-17.0-0.5,63140,List1A,black,woman,,,,null,,,,
null,"<img src=""stim_listA/fight7.gif""</stim_listA>",,html-keyboard-response,267,1678777,0.0-17.0-1.5,63140,List1A,black,woman,,,,null,,,,
null,is fighting,,html-keyboard-response,268,1680778,0.0-17.0-2.5,63140,List1A,black,woman,,,,null,,,,
7672,,,survey-text,269,1688450,0.0-17.0-3.5,63140,List1A,black,woman,,,,,"{""Q0"":""jane is fighting kate""}","<img src=""stim_listA/fight7.gif""</stim_listA>",is fighting,
null,"<div style=""font-size:60px;"">+</div>",,html-keyboard-response,270,1688951,0.0-17.0-0.6,63140,List1A,black,woman,,,,null,,,,
null,"<img src=""stim_listA/meet1.gif""</stim_listA>",,html-keyboard-response,271,1690952,0.0-17.0-1.6,63140,List1A,black,woman,,,,null,,,,
null,is meeting,,html-keyboard-response,272,1692956,0.0-17.0-2.6,63140,List1A,black,woman,,,,null,,,,
9248,,,survey-text,273,1702204,0.0-17.0-3.6,63140,List1A,black,woman,,,,,"{""Q0"":""kate is meeting mike""}","<img src=""stim_listA/meet1.gif""</stim_listA>",is meeting,
null,"<div style=""font-size:60px;"">+</div>",,html-keyboard-response,274,1702706,0.0-17.0-0.7,63140,List1A,black,woman,,,,null,,,,
null,"<img src=""stim_listA/meet3.gif""</stim_listA>",,html-keyboard-response,275,1704710,0.0-17.0-1.7,63140,List1A,black,woman,,,,null,,,,
null,is meeting,,html-keyboard-response,276,1706711,0.0-17.0-2.7,63140,List1A,black,woman,,,,null,,,,
5956,,,survey-text,277,1712667,0.0-17.0-3.7,63140,List1A,black,woman,,,,,"{""Q0"":""dave is meeting jane""}","<img src=""stim_listA/meet3.gif""</stim_listA>",is meeting,
null,"<div style=""font-size:60px;"">+</div>",,html-keyboard-response,278,1713168,0.0-17.0-0.8,63140,List1A,black,woman,,,,null,,,,
null,"<img src=""stim_listA/kiss4.gif""</stim_listA>",,html-keyboard-response,279,1715169,0.0-17.0-1.8,63140,List1A,black,woman,,,,null,,,,
null,are kissing each other,,html-keyboard-response,280,1717170,0.0-17.0-2.8,63140,List1A,black,woman,,,,null,,,,
12560,,,survey-text,281,1729731,0.0-17.0-3.8,63140,List1A,black,woman,,,,,"{""Q0"":""jane and dave are kissing each other""}","<img src=""stim_listA/kiss4.gif""</stim_listA>",are kissing each other,
null,"<div style=""font-size:60px;"">+</div>",,html-keyboard-response,282,1730233,0.0-17.0-0.9,63140,List1A,black,woman,,,,null,,,,
null,"<img src=""stim_listA/dance3.gif""</stim_listA>",,html-keyboard-response,283,1732234,0.0-17.0-1.9,63140,List1A,black,woman,,,,null,,,,
null,is dancing with,,html-keyboard-response,284,1734235,0.0-17.0-2.9,63140,List1A,black,woman,,,,null,,,,
6407,,,survey-text,285,1740642,0.0-17.0-3.9,63140,List1A,black,woman,,,,,"{""Q0"":""jane is dancing with luke""}","<img src=""stim_listA/dance3.gif""</stim_listA>",is dancing with,
null,"<div style=""font-size:60px;"">+</div>",,html-keyboard-response,286,1741143,0.0-17.0-0.10,63140,List1A,black,woman,,,,null,,,,
null,"<img src=""stim_listA/fight1.gif""</stim_listA>",,html-keyboard-response,287,1743144,0.0-17.0-1.10,63140,List1A,black,woman,,,,null,,,,
null,is fighting,,html-keyboard-response,288,1745145,0.0-17.0-2.10,63140,List1A,black,woman,,,,null,,,,
8922,,,survey-text,289,1754067,0.0-17.0-3.10,63140,List1A,black,woman,,,,,"{""Q0"":""kate is fighting mike""}","<img src=""stim_listA/fight1.gif""</stim_listA>",is fighting,
null,"<div style=""font-size:60px;"">+</div>",,html-keyboard-response,290,1754569,0.0-17.0-0.11,63140,List1A,black,woman,,,,null,,,,
null,"<img src=""stim_listA/talk2.gif""</stim_listA>",,html-keyboard-response,291,1756570,0.0-17.0-1.11,63140,List1A,black,woman,,,,null,,,,
null,are talking to each other,,html-keyboard-response,292,1758571,0.0-17.0-2.11,63140,List1A,black,woman,,,,null,,,,
11759,,,survey-text,293,1770330,0.0-17.0-3.11,63140,List1A,black,woman,,,,,"{""Q0"":""beth and mike are talking with each other""}","<img src=""stim_listA/talk2.gif""</stim_listA>",are talking to each other,
null,"<div style=""font-size:60px;"">+</div>",,html-keyboard-response,294,1770831,0.0-17.0-0.12,63140,List1A,black,woman,,,,null,,,,
null,"<img src=""stim_listA/dance7.gif""</stim_listA>",,html-keyboard-response,295,1772832,0.0-17.0-1.12,63140,List1A,black,woman,,,,null,,,,
null,is dancing with,,html-keyboard-response,296,1774833,0.0-17.0-2.12,63140,List1A,black,woman,,,,null,,,,
6896,,,survey-text,297,1781730,0.0-17.0-3.12,63140,List1A,black,woman,,,,,"{""Q0"":""beth is dancing with jane""}","<img src=""stim_listA/dance7.gif""</stim_listA>",is dancing with,
null,"<div style=""font-size:60px;"">+</div>",,html-keyboard-response,298,1782231,0.0-17.0-0.13,63140,List1A,black,woman,,,,null,,,,
null,"<img src=""stim_listA/kiss5.gif""</stim_listA>",,html-keyboard-response,299,1784232,0.0-17.0-1.13,63140,List1A,black,woman,,,,null,,,,
null,is kissing,,html-keyboard-response,300,1786233,0.0-17.0-2.13,63140,List1A,black,woman,,,,null,,,,
6192,,,survey-text,301,1792426,0.0-17.0-3.13,63140,List1A,black,woman,,,,,"{""Q0"":""fred is kissing luke""}","<img src=""stim_listA/kiss5.gif""</stim_listA>",is kissing,
null,"<div style=""font-size:60px;"">+</div>",,html-keyboard-response,302,1792927,0.0-17.0-0.14,63140,List1A,black,woman,,,,null,,,,
null,"<img src=""stim_listA/kiss7.gif""</stim_listA>",,html-keyboard-response,303,1794929,0.0-17.0-1.14,63140,List1A,black,woman,,,,null,,,,
null,is kissing,,html-keyboard-response,304,1796930,0.0-17.0-2.14,63140,List1A,black,woman,,,,null,,,,
7031,,,survey-text,305,1803961,0.0-17.0-3.14,63140,List1A,black,woman,,,,,"{""Q0"":""ruth is kissing beth""}","<img src=""stim_listA/kiss7.gif""</stim_listA>",is kissing,
null,"<div style=""font-size:60px;"">+</div>",,html-keyboard-response,306,1804462,0.0-17.0-0.15,63140,List1A,black,woman,,,,null,,,,
null,"<img src=""stim_listA/dance6.gif""</stim_listA>",,html-keyboard-response,307,1806464,0.0-17.0-1.15,63140,List1A,black,woman,,,,null,,,,
null,are dancing with each other,,html-keyboard-response,308,1808465,0.0-17.0-2.15,63140,List1A,black,woman,,,,null,,,,
12321,,,survey-text,309,1820787,0.0-17.0-3.15,63140,List1A,black,woman,,,,,"{""Q0"":""luke and mike are dancing with each other""}","<img src=""stim_listA/dance6.gif""</stim_listA>",are dancing with each other,
null,"<div style=""font-size:60px;"">+</div>",,html-keyboard-response,310,1821287,0.0-17.0-0.16,63140,List1A,black,woman,,,,null,,,,
null,"<img src=""stim_listA/fight6.gif""</stim_listA>",,html-keyboard-response,311,1823289,0.0-17.0-1.16,63140,List1A,black,woman,,,,null,,,,
null,are fighting each other,,html-keyboard-response,312,1825290,0.0-17.0-2.16,63140,List1A,black,woman,,,,null,,,,
10896,,,survey-text,313,1836186,0.0-17.0-3.16,63140,List1A,black,woman,,,,,"{""Q0"":""luke and fred are fighting each other""}","<img src=""stim_listA/fight6.gif""</stim_listA>",are fighting each other,
null,"<div style=""font-size:60px;"">+</div>",,html-keyboard-response,314,1836687,0.0-17.0-0.17,63140,List1A,black,woman,,,,null,,,,
null,"<img src=""stim_listA/shout2.gif""</stim_listA>",,html-keyboard-response,315,1838688,0.0-17.0-1.17,63140,List1A,black,woman,,,,null,,,,
null,are shouting at each other,,html-keyboard-response,316,1840689,0.0-17.0-2.17,63140,List1A,black,woman,,,,null,,,,
9384,,,survey-text,317,1850073,0.0-17.0-3.17,63140,List1A,black,woman,,,,,"{""Q0"":""mike and kate are shouting at each other""}","<img src=""stim_listA/shout2.gif""</stim_listA>",are shouting at each other,
null,"<div style=""font-size:60px;"">+</div>",,html-keyboard-response,318,1850574,0.0-17.0-0.18,63140,List1A,black,woman,,,,null,,,,
null,"<img src=""stim_listA/hug7.gif""</stim_listA>",,html-keyboard-response,319,1852576,0.0-17.0-1.18,63140,List1A,black,woman,,,,null,,,,
null,is hugging,,html-keyboard-response,320,1854577,0.0-17.0-2.18,63140,List1A,black,woman,,,,null,,,,
6736,,,survey-text,321,1861313,0.0-17.0-3.18,63140,List1A,black,woman,,,,,"{""Q0"":""ruth is hugging beth""}","<img src=""stim_listA/hug7.gif""</stim_listA>",is hugging,
null,"<div style=""font-size:60px;"">+</div>",,html-keyboard-response,322,1861814,0.0-17.0-0.19,63140,List1A,black,woman,,,,null,,,,
null,"<img src=""stim_listA/argue5.gif""</stim_listA>",,html-keyboard-response,323,1863815,0.0-17.0-1.19,63140,List1A,black,woman,,,,null,,,,
null,is arguing with,,html-keyboard-response,324,1865816,0.0-17.0-2.19,63140,List1A,black,woman,,,,null,,,,
9201,,,survey-text,325,1875019,0.0-17.0-3.19,63140,List1A,black,woman,,,,,"{""Q0"":""luke is arguing with mike""}","<img src=""stim_listA/argue5.gif""</stim_listA>",is arguing with,
295412,"<img src='img/portrait_matrix_list1.JPG' style='width:900px;height:500px;''></img><p>If you have memorised all the portraits and names and are ready to start, press Continue.</p><p><strong>Please note: Your memory of these faces will be tested 4 times during this experiment.</strong></p>",0,html-button-response,326,2170431,0.0-18.0-0.0,63140,List1A,black,woman,,,,,,,,
1326,"<img src=""portrait/WM2.jpg""style=""width:400px;height:400px;""></img>",7,html-button-response,327,2172759,0.0-18.0-1.0,63140,List1A,black,woman,,TRUE,7,,,,,
null,CORRECT,,html-keyboard-response,328,2174261,0.0-18.0-2.0-0.0,63140,List1A,black,woman,,,,null,,,,
1409,"<img src=""portrait/WW2.jpg""style=""width:400px;height:400px;""></img>",3,html-button-response,329,2175671,0.0-18.0-4.0,63140,List1A,black,woman,,TRUE,3,,,,,
null,CORRECT,,html-keyboard-response,330,2177174,0.0-18.0-5.0-0.0,63140,List1A,black,woman,,,,null,,,,
1266,"<img src=""portrait/BW1.jpg""style=""width:400px;height:400px;""></img>",0,html-button-response,331,2178441,0.0-18.0-7.0,63140,List1A,black,woman,,TRUE,0,,,,,
null,CORRECT,,html-keyboard-response,332,2179943,0.0-18.0-8.0-0.0,63140,List1A,black,woman,,,,null,,,,
1401,"<img src=""portrait/BM2.jpg""style=""width:400px;height:400px;""></img>",5,html-button-response,333,2181345,0.0-18.0-10.0,63140,List1A,black,woman,,TRUE,5,,,,,
null,CORRECT,,html-keyboard-response,334,2182847,0.0-18.0-11.0-0.0,63140,List1A,black,woman,,,,null,,,,
1521,"<img src=""portrait/BW2.jpg""style=""width:400px;height:400px;""></img>",2,html-button-response,335,2184369,0.0-18.0-13.0,63140,List1A,black,woman,,TRUE,2,,,,,
null,CORRECT,,html-keyboard-response,336,2185871,0.0-18.0-14.0-0.0,63140,List1A,black,woman,,,,null,,,,
1737,"<img src=""portrait/WM1.jpg""style=""width:400px;height:400px;""></img>",6,html-button-response,337,2187609,0.0-18.0-16.0,63140,List1A,black,woman,,TRUE,6,,,,,
null,CORRECT,,html-keyboard-response,338,2189111,0.0-18.0-17.0-0.0,63140,List1A,black,woman,,,,null,,,,
2104,"<img src=""portrait/WW1.jpg""style=""width:400px;height:400px;""></img>",1,html-button-response,339,2191216,0.0-18.0-19.0,63140,List1A,black,woman,,TRUE,1,,,,,
null,CORRECT,,html-keyboard-response,340,2192718,0.0-18.0-20.0-0.0,63140,List1A,black,woman,,,,null,,,,
1778,"<img src=""portrait/BM1.jpg""style=""width:400px;height:400px;""></img>",4,html-button-response,341,2194496,0.0-18.0-22.0,63140,List1A,black,woman,,TRUE,4,,,,,
null,CORRECT,,html-keyboard-response,342,2195998,0.0-18.0-23.0-0.0,63140,List1A,black,woman,,,,null,,,,
1314,<p>You got 8 out of 8 right first time. Press Continue.</p>,0,html-button-response,343,2197313,0.0-18.0-25.0,63140,List1A,black,woman,,,,,,,,
null,"<div style=""font-size:60px;"">+</div>",,html-keyboard-response,344,2198815,0.0-19.0-0.0,63140,List1A,black,woman,,,,null,,,,
null,"<img src=""stim_listA/hug3.gif""</stim_listA>",,html-keyboard-response,345,2200816,0.0-19.0-1.0,63140,List1A,black,woman,,,,null,,,,
null,is hugging,,html-keyboard-response,346,2202817,0.0-19.0-2.0,63140,List1A,black,woman,,,,null,,,,
7310,,,survey-text,347,2210127,0.0-19.0-3.0,63140,List1A,black,woman,,,,,"{""Q0"":""luke is hugging ruth""}","<img src=""stim_listA/hug3.gif""</stim_listA>",is hugging,
null,"<div style=""font-size:60px;"">+</div>",,html-keyboard-response,348,2210628,0.0-19.0-0.1,63140,List1A,black,woman,,,,null,,,,
null,"<img src=""stim_listA/dance5.gif""</stim_listA>",,html-keyboard-response,349,2212629,0.0-19.0-1.1,63140,List1A,black,woman,,,,null,,,,
null,is dancing with,,html-keyboard-response,350,2214630,0.0-19.0-2.1,63140,List1A,black,woman,,,,null,,,,
6160,,,survey-text,351,2220791,0.0-19.0-3.1,63140,List1A,black,woman,,,,,"{""Q0"":""fred is dancing with dave""}","<img src=""stim_listA/dance5.gif""</stim_listA>",is dancing with,
null,"<div style=""font-size:60px;"">+</div>",,html-keyboard-response,352,2221292,0.0-19.0-0.2,63140,List1A,black,woman,,,,null,,,,
null,"<img src=""stim_listA/touch3.gif""</stim_listA>",,html-keyboard-response,353,2223294,0.0-19.0-1.2,63140,List1A,black,woman,,,,null,,,,
null,is touching,,html-keyboard-response,354,2225295,0.0-19.0-2.2,63140,List1A,black,woman,,,,null,,,,
7791,,,survey-text,355,2233086,0.0-19.0-3.2,63140,List1A,black,woman,,,,,"{""Q0"":""jane is touching dave""}","<img src=""stim_listA/touch3.gif""</stim_listA>",is touching,
null,"<div style=""font-size:60px;"">+</div>",,html-keyboard-response,356,2233588,0.0-19.0-0.3,63140,List1A,black,woman,,,,null,,,,
null,"<img src=""stim_listA/argue7.gif""</stim_listA>",,html-keyboard-response,357,2235589,0.0-19.0-1.3,63140,List1A,black,woman,,,,null,,,,
null,is arguing with,,html-keyboard-response,358,2237592,0.0-19.0-2.3,63140,List1A,black,woman,,,,null,,,,
7816,,,survey-text,359,2245408,0.0-19.0-3.3,63140,List1A,black,woman,,,,,"{""Q0"":""ruth is arguing with kate""}","<img src=""stim_listA/argue7.gif""</stim_listA>",is arguing with,
null,"<div style=""font-size:60px;"">+</div>",,html-keyboard-response,360,2245909,0.0-19.0-0.4,63140,List1A,black,woman,,,,null,,,,
null,"<img src=""stim_listA/shout6.gif""</stim_listA>",,html-keyboard-response,361,2247910,0.0-19.0-1.4,63140,List1A,black,woman,,,,null,,,,
null,are shouting at each other,,html-keyboard-response,362,2249911,0.0-19.0-2.4,63140,List1A,black,woman,,,,null,,,,
9528,,,survey-text,363,2259439,0.0-19.0-3.4,63140,List1A,black,woman,,,,,"{""Q0"":""dave and mike are shouting at each other""}","<img src=""stim_listA/shout6.gif""</stim_listA>",are shouting at each other,
null,"<div style=""font-size:60px;"">+</div>",,html-keyboard-response,364,2259940,0.0-19.0-0.5,63140,List1A,black,woman,,,,null,,,,
null,"<img src=""stim_listA/touch6.gif""</stim_listA>",,html-keyboard-response,365,2261941,0.0-19.0-1.5,63140,List1A,black,woman,,,,null,,,,
null,are touching each other,,html-keyboard-response,366,2263942,0.0-19.0-2.5,63140,List1A,black,woman,,,,null,,,,
14968,,,survey-text,367,2278911,0.0-19.0-3.5,63140,List1A,black,woman,,,,,"{""Q0"":""luke and fred are touching each other""}","<img src=""stim_listA/touch6.gif""</stim_listA>",are touching each other,
null,"<div style=""font-size:60px;"">+</div>",,html-keyboard-response,368,2279413,0.0-19.0-0.6,63140,List1A,black,woman,,,,null,,,,
null,"<img src=""stim_listA/kiss3.gif""</stim_listA>",,html-keyboard-response,369,2281415,0.0-19.0-1.6,63140,List1A,black,woman,,,,null,,,,
null,is kissing,,html-keyboard-response,370,2283416,0.0-19.0-2.6,63140,List1A,black,woman,,,,null,,,,
7454,,,survey-text,371,2290870,0.0-19.0-3.6,63140,List1A,black,woman,,,,,"{""Q0"":""ruth is kissing luke""}","<img src=""stim_listA/kiss3.gif""</stim_listA>",is kissing,
null,"<div style=""font-size:60px;"">+</div>",,html-keyboard-response,372,2291371,0.0-19.0-0.7,63140,List1A,black,woman,,,,null,,,,
null,"<img src=""stim_listA/touch4.gif""</stim_listA>",,html-keyboard-response,373,2293372,0.0-19.0-1.7,63140,List1A,black,woman,,,,null,,,,
null,are touching each other,,html-keyboard-response,374,2295373,0.0-19.0-2.7,63140,List1A,black,woman,,,,null,,,,
12545,,,survey-text,375,2307920,0.0-19.0-3.7,63140,List1A,black,woman,,,,,"{""Q0"":""luke and ruth are touching each other""}","<img src=""stim_listA/touch4.gif""</stim_listA>",are touching each other,
null,"<div style=""font-size:60px;"">+</div>",,html-keyboard-response,376,2308421,0.0-19.0-0.8,63140,List1A,black,woman,,,,null,,,,
null,"<img src=""stim_listA/meet5.gif""</stim_listA>",,html-keyboard-response,377,2310422,0.0-19.0-1.8,63140,List1A,black,woman,,,,null,,,,
null,is meeting,,html-keyboard-response,378,2312423,0.0-19.0-2.8,63140,List1A,black,woman,,,,null,,,,
8216,,,survey-text,379,2320639,0.0-19.0-3.8,63140,List1A,black,woman,,,,,"{""Q0"":""dave is meeting mike""}","<img src=""stim_listA/meet5.gif""</stim_listA>",is meeting,
null,"<div style=""font-size:60px;"">+</div>",,html-keyboard-response,380,2321140,0.0-19.0-0.9,63140,List1A,black,woman,,,,null,,,,
null,"<img src=""stim_listA/talk1.gif""</stim_listA>",,html-keyboard-response,381,2323141,0.0-19.0-1.9,63140,List1A,black,woman,,,,null,,,,
null,is talking to,,html-keyboard-response,382,2325142,0.0-19.0-2.9,63140,List1A,black,woman,,,,null,,,,
7753,,,survey-text,383,2332895,0.0-19.0-3.9,63140,List1A,black,woman,,,,,"{""Q0"":""kate is talking to fred""}","<img src=""stim_listA/talk1.gif""</stim_listA>",is talking to,
null,"<div style=""font-size:60px;"">+</div>",,html-keyboard-response,384,2333396,0.0-19.0-0.10,63140,List1A,black,woman,,,,null,,,,
null,"<img src=""stim_listA/hug8.gif""</stim_listA>",,html-keyboard-response,385,2335397,0.0-19.0-1.10,63140,List1A,black,woman,,,,null,,,,
null,are hugging each other,,html-keyboard-response,386,2337398,0.0-19.0-2.10,63140,List1A,black,woman,,,,null,,,,
10272,,,survey-text,387,2347670,0.0-19.0-3.10,63140,List1A,black,woman,,,,,"{""Q0"":""jane and kate are hugging each other""}","<img src=""stim_listA/hug8.gif""</stim_listA>",are hugging each other,
null,"<div style=""font-size:60px;"">+</div>",,html-keyboard-response,388,2348172,0.0-19.0-0.11,63140,List1A,black,woman,,,,null,,,,
null,"<img src=""stim_listA/fight8.gif""</stim_listA>",,html-keyboard-response,389,2350173,0.0-19.0-1.11,63140,List1A,black,woman,,,,null,,,,
null,are fighting each other,,html-keyboard-response,390,2352174,0.0-19.0-2.11,63140,List1A,black,woman,,,,null,,,,
10024,,,survey-text,391,2362199,0.0-19.0-3.11,63140,List1A,black,woman,,,,,"{""Q0"":""ruth and beth are fighting each other""}","<img src=""stim_listA/fight8.gif""</stim_listA>",are fighting each other,
null,"<div style=""font-size:60px;"">+</div>",,html-keyboard-response,392,2362700,0.0-19.0-0.12,63140,List1A,black,woman,,,,null,,,,
null,"<img src=""stim_listA/kiss8.gif""</stim_listA>",,html-keyboard-response,393,2364702,0.0-19.0-1.12,63140,List1A,black,woman,,,,null,,,,
null,are kissing each other,,html-keyboard-response,394,2366702,0.0-19.0-2.12,63140,List1A,black,woman,,,,null,,,,
8527,,,survey-text,395,2375230,0.0-19.0-3.12,63140,List1A,black,woman,,,,,"{""Q0"":""jane and kate are kissing each other""}","<img src=""stim_listA/kiss8.gif""</stim_listA>",are kissing each other,
null,"<div style=""font-size:60px;"">+</div>",,html-keyboard-response,396,2375731,0.0-19.0-0.13,63140,List1A,black,woman,,,,null,,,,
null,"<img src=""stim_listA/marry1.gif""</stim_listA>",,html-keyboard-response,397,2377733,0.0-19.0-1.13,63140,List1A,black,woman,,,,null,,,,
null,is marrying,,html-keyboard-response,398,2379734,0.0-19.0-2.13,63140,List1A,black,woman,,,,null,,,,
5687,,,survey-text,399,2385422,0.0-19.0-3.13,63140,List1A,black,woman,,,,,"{""Q0"":""mike is marrying beth""}","<img src=""stim_listA/marry1.gif""</stim_listA>",is marrying,
null,"<div style=""font-size:60px;"">+</div>",,html-keyboard-response,400,2385923,0.0-19.0-0.14,63140,List1A,black,woman,,,,null,,,,
null,"<img src=""stim_listA/kiss2.gif""</stim_listA>",,html-keyboard-response,401,2387924,0.0-19.0-1.14,63140,List1A,black,woman,,,,null,,,,
null,are kissing each other,,html-keyboard-response,402,2389925,0.0-19.0-2.14,63140,List1A,black,woman,,,,null,,,,
9400,,,survey-text,403,2399325,0.0-19.0-3.14,63140,List1A,black,woman,,,,,"{""Q0"":""kate and mike are kissing each other""}","<img src=""stim_listA/kiss2.gif""</stim_listA>",are kissing each other,
null,"<div style=""font-size:60px;"">+</div>",,html-keyboard-response,404,2399826,0.0-19.0-0.15,63140,List1A,black,woman,,,,null,,,,
null,"<img src=""stim_listA/talk4.gif""</stim_listA>",,html-keyboard-response,405,2401827,0.0-19.0-1.15,63140,List1A,black,woman,,,,null,,,,
null,are talking to each other,,html-keyboard-response,406,2403828,0.0-19.0-2.15,63140,List1A,black,woman,,,,null,,,,
9345,,,survey-text,407,2413173,0.0-19.0-3.15,63140,List1A,black,woman,,,,,"{""Q0"":""ruth and dave are talking to each other""}","<img src=""stim_listA/talk4.gif""</stim_listA>",are talking to each other,
null,"<div style=""font-size:60px;"">+</div>",,html-keyboard-response,408,2413674,0.0-19.0-0.16,63140,List1A,black,woman,,,,null,,,,
null,"<img src=""stim_listA/touch1.gif""</stim_listA>",,html-keyboard-response,409,2415675,0.0-19.0-1.16,63140,List1A,black,woman,,,,null,,,,
null,is touching,,html-keyboard-response,410,2417676,0.0-19.0-2.16,63140,List1A,black,woman,,,,null,,,,
7145,,,survey-text,411,2424822,0.0-19.0-3.16,63140,List1A,black,woman,,,,,"{""Q0"":""kate is touching mike""}","<img src=""stim_listA/touch1.gif""</stim_listA>",is touching,
null,"<div style=""font-size:60px;"">+</div>",,html-keyboard-response,412,2425324,0.0-19.0-0.17,63140,List1A,black,woman,,,,null,,,,
null,"<img src=""stim_listA/marry5.gif""</stim_listA>",,html-keyboard-response,413,2427325,0.0-19.0-1.17,63140,List1A,black,woman,,,,null,,,,
null,is marrying,,html-keyboard-response,414,2429326,0.0-19.0-2.17,63140,List1A,black,woman,,,,null,,,,
7512,,,survey-text,415,2436838,0.0-19.0-3.17,63140,List1A,black,woman,,,,,"{""Q0"":""luke is marrying mike""}","<img src=""stim_listA/marry5.gif""</stim_listA>",is marrying,
null,"<div style=""font-size:60px;"">+</div>",,html-keyboard-response,416,2437339,0.0-19.0-0.18,63140,List1A,black,woman,,,,null,,,,
null,"<img src=""stim_listA/meet7.gif""</stim_listA>",,html-keyboard-response,417,2439340,0.0-19.0-1.18,63140,List1A,black,woman,,,,null,,,,
null,is meeting,,html-keyboard-response,418,2441341,0.0-19.0-2.18,63140,List1A,black,woman,,,,null,,,,
5183,,,survey-text,419,2446525,0.0-19.0-3.18,63140,List1A,black,woman,,,,,"{""Q0"":""kate is meeting jane""}","<img src=""stim_listA/meet7.gif""</stim_listA>",is meeting,
null,"<div style=""font-size:60px;"">+</div>",,html-keyboard-response,420,2447026,0.0-19.0-0.19,63140,List1A,black,woman,,,,null,,,,
null,"<img src=""stim_listA/hug6.gif""</stim_listA>",,html-keyboard-response,421,2449027,0.0-19.0-1.19,63140,List1A,black,woman,,,,null,,,,
null,are hugging each other,,html-keyboard-response,422,2451028,0.0-19.0-2.19,63140,List1A,black,woman,,,,null,,,,
10848,,,survey-text,423,2461877,0.0-19.0-3.19,63140,List1A,black,woman,,,,,"{""Q0"":""dave and mike are hugging each other""}","<img src=""stim_listA/hug6.gif""</stim_listA>",are hugging each other,
2079,<p>Thank you for completing that task.</p><p>The final part of this session is a short questionnaire.</p><p>Press Continue.</p>,0,html-button-response,424,2463957,0.0-20.0,63140,List1A,black,woman,,,,,,,,
27536,,,survey-text,425,2492494,0.0-21.0,63140,List1A,black,woman,,,,,"{""Q0"":""38"",""Q1"":""English"",""Q2"":""English"",""Q3"":""United States"",""Q4"":""Black American"",""Q5"":""female""}",,,demographics
32037,,,survey-likert,426,2524536,0.0-22.0,63140,List1A,black,woman,,,,,"{""Q0"":6,""Q1"":6,""Q2"":6,""Q3"":6,""Q4"":6,""Q5"":3,""Q6"":5,""Q7"":6,""Q8"":6,""Q9"":6,""Q10"":5,""Q11"":5,""Q12"":4,""Q13"":4}",,,likert_race
36156,,,survey-likert,427,2560697,0.0-23.0,63140,List1A,black,woman,,,,,"{""Q0"":3,""Q1"":3,""Q2"":2,""Q3"":5,""Q4"":4,""Q5"":3,""Q6"":3,""Q7"":0,""Q8"":1,""Q9"":3,""Q10"":2,""Q11"":3,""Q12"":2,""Q13"":2}",,,likert_gender
8491,,,survey-text,428,2569189,0.0-24.0,63140,List1A,black,woman,,,,,"{""Q0"":""ccc""}",,,worker_id
22873,,,external-html,429,2592268,0.0-25.0,63140,List1A,black,woman,debrief.html,,,,,,,
