rt,stimulus,button_pressed,trial_type,trial_index,time_elapsed,internal_node_id,subject,list,ppt_race,ppt_gender,url,first_guess,correct,key_press,responses,image_type,phrase_type,test_part
11853,Welcome to the experiment. Press Continue to begin.,0,html-button-response,0,11855,0.0-0.0,63197,List2A,black,woman,,,,,,,,
46686,,,external-html,1,60070,0.0-1.0,63197,List2A,black,woman,consent.html,,,,,,,
16902,"<p>On the next page, you will see portraits of 8 people and their names.</p><p>Your first task is to take a few minutes to memorise the names of these people.</p><p>You will have to recall their names during the rest of the experiment, so it is</p><p>essential that you try to memorise these people and their names as best as you can.</p><br><p><strong>You will then be tested on your memory of these names and portraits.</strong></p><br><p>The experiment will start after you have completed this memory test.</p><br><p>Ready?</p>",0,html-button-response,2,76974,0.0-2.0,63197,List2A,black,woman,,,,,,,,
70117,"<img src='img/portrait_matrix_list2.JPG' style='width:900px;height:500px;''></img><p>If you have memorised all the portraits and names and are ready to start, press Continue.</p><p><strong>Please note: Your memory of these faces will be tested 4 times during this experiment.</strong></p>",0,html-button-response,3,148106,0.0-3.0-0.0,63197,List2A,black,woman,,,,,,,,
2614,"<img src=""portrait/BW1.jpg""style=""width:400px;height:400px;""></img>",0,html-button-response,4,151722,0.0-3.0-1.0,63197,List2A,black,woman,,TRUE,0,,,,,
null,CORRECT,,html-keyboard-response,5,153232,0.0-3.0-2.0-0.0,63197,List2A,black,woman,,,,null,,,,
3185,"<img src=""portrait/WM2.jpg""style=""width:400px;height:400px;""></img>",7,html-button-response,6,156418,0.0-3.0-4.0,63197,List2A,black,woman,,TRUE,7,,,,,
null,CORRECT,,html-keyboard-response,7,157938,0.0-3.0-5.0-0.0,63197,List2A,black,woman,,,,null,,,,
5142,"<img src=""portrait/WW2.jpg""style=""width:400px;height:400px;""></img>",3,html-button-response,8,163082,0.0-3.0-7.0,63197,List2A,black,woman,,TRUE,3,,,,,
null,CORRECT,,html-keyboard-response,9,164597,0.0-3.0-8.0-0.0,63197,List2A,black,woman,,,,null,,,,
3012,"<img src=""portrait/WM1.jpg""style=""width:400px;height:400px;""></img>",6,html-button-response,10,167610,0.0-3.0-10.0,63197,List2A,black,woman,,TRUE,6,,,,,
null,CORRECT,,html-keyboard-response,11,169140,0.0-3.0-11.0-0.0,63197,List2A,black,woman,,,,null,,,,
2405,"<img src=""portrait/BM1.jpg""style=""width:400px;height:400px;""></img>",5,html-button-response,12,171546,0.0-3.0-13.0,63197,List2A,black,woman,,TRUE,4,,,,,
3596,"<img src=""portrait/BM1.jpg""style=""width:400px;height:400px;""></img>",4,html-button-response,13,176154,0.0-3.0-15.0-0.0,63197,List2A,black,woman,,FALSE,4,,,,,
null,CORRECT,,html-keyboard-response,14,177656,0.0-3.0-15.0-1.0-0.0,63197,List2A,black,woman,,,,null,,,,
4505,"<img src=""portrait/BW2.jpg""style=""width:400px;height:400px;""></img>",2,html-button-response,15,182162,0.0-3.0-16.0,63197,List2A,black,woman,,TRUE,2,,,,,
null,CORRECT,,html-keyboard-response,16,183670,0.0-3.0-17.0-0.0,63197,List2A,black,woman,,,,null,,,,
2475,"<img src=""portrait/BM2.jpg""style=""width:400px;height:400px;""></img>",5,html-button-response,17,186146,0.0-3.0-19.0,63197,List2A,black,woman,,TRUE,5,,,,,
null,CORRECT,,html-keyboard-response,18,187653,0.0-3.0-20.0-0.0,63197,List2A,black,woman,,,,null,,,,
2220,"<img src=""portrait/WW1.jpg""style=""width:400px;height:400px;""></img>",3,html-button-response,19,189874,0.0-3.0-22.0,63197,List2A,black,woman,,TRUE,1,,,,,
1924,"<img src=""portrait/WW1.jpg""style=""width:400px;height:400px;""></img>",1,html-button-response,20,192810,0.0-3.0-24.0-0.0,63197,List2A,black,woman,,FALSE,1,,,,,
null,CORRECT,,html-keyboard-response,21,194316,0.0-3.0-24.0-1.0-0.0,63197,List2A,black,woman,,,,null,,,,
1892,<p>You got 6 out of 8 right first time. Press Continue.</p>,0,html-button-response,22,196210,0.0-3.0-25.0,63197,List2A,black,woman,,,,,,,,
2579,"As you did not score 100%, the memory game will repeat. Press Continue.",0,html-button-response,23,199794,0.0-3.0-26.0-0.0,63197,List2A,black,woman,,,,,,,,
12744,"<img src='img/portrait_matrix_list2.JPG' style='width:900px;height:500px;''></img><p>If you have memorised all the portraits and names and are ready to start, press Continue.</p><p><strong>Please note: Your memory of these faces will be tested 4 times during this experiment.</strong></p>",0,html-button-response,24,213542,0.0-3.1-0.1,63197,List2A,black,woman,,,,,,,,
3927,"<img src=""portrait/BW1.jpg""style=""width:400px;height:400px;""></img>",0,html-button-response,25,218470,0.0-3.1-1.1,63197,List2A,black,woman,,TRUE,0,,,,,
null,CORRECT,,html-keyboard-response,26,219980,0.0-3.1-2.1-0.1,63197,List2A,black,woman,,,,null,,,,
3753,"<img src=""portrait/WM2.jpg""style=""width:400px;height:400px;""></img>",7,html-button-response,27,223734,0.0-3.1-4.1,63197,List2A,black,woman,,TRUE,7,,,,,
null,CORRECT,,html-keyboard-response,28,225237,0.0-3.1-5.1-0.1,63197,List2A,black,woman,,,,null,,,,
3233,"<img src=""portrait/WW2.jpg""style=""width:400px;height:400px;""></img>",3,html-button-response,29,228470,0.0-3.1-7.1,63197,List2A,black,woman,,TRUE,3,,,,,
null,CORRECT,,html-keyboard-response,30,229984,0.0-3.1-8.1-0.1,63197,List2A,black,woman,,,,null,,,,
2126,"<img src=""portrait/WM1.jpg""style=""width:400px;height:400px;""></img>",6,html-button-response,31,232110,0.0-3.1-10.1,63197,List2A,black,woman,,TRUE,6,,,,,
null,CORRECT,,html-keyboard-response,32,233615,0.0-3.1-11.1-0.1,63197,List2A,black,woman,,,,null,,,,
1799,"<img src=""portrait/BM1.jpg""style=""width:400px;height:400px;""></img>",4,html-button-response,33,235415,0.0-3.1-13.1,63197,List2A,black,woman,,TRUE,4,,,,,
null,CORRECT,,html-keyboard-response,34,236931,0.0-3.1-14.1-0.1,63197,List2A,black,woman,,,,null,,,,
3043,"<img src=""portrait/BW2.jpg""style=""width:400px;height:400px;""></img>",2,html-button-response,35,239974,0.0-3.1-16.1,63197,List2A,black,woman,,TRUE,2,,,,,
null,CORRECT,,html-keyboard-response,36,241495,0.0-3.1-17.1-0.1,63197,List2A,black,woman,,,,null,,,,
2910,"<img src=""portrait/BM2.jpg""style=""width:400px;height:400px;""></img>",5,html-button-response,37,244406,0.0-3.1-19.1,63197,List2A,black,woman,,TRUE,5,,,,,
null,CORRECT,,html-keyboard-response,38,245927,0.0-3.1-20.1-0.1,63197,List2A,black,woman,,,,null,,,,
1934,"<img src=""portrait/WW1.jpg""style=""width:400px;height:400px;""></img>",1,html-button-response,39,247862,0.0-3.1-22.1,63197,List2A,black,woman,,TRUE,1,,,,,
null,CORRECT,,html-keyboard-response,40,249369,0.0-3.1-23.1-0.1,63197,List2A,black,woman,,,,null,,,,
1604,<p>You got 8 out of 8 right first time. Press Continue.</p>,0,html-button-response,41,250974,0.0-3.1-25.1,63197,List2A,black,woman,,,,,,,,
43682,"<p>In this experiment, you will view photographs of the people from the memory game interacting.</p><p>By using the <strong>exact</strong> phrase given <i>after</i> the photograph appears and recalling the correct names of the people in the photographs, form a sentence describing the interaction. You do not need to capitalise names.</p><p>Type your answer in the space provided. Please complete every sentence before moving onto the next trial.</p><p>You will only have a few seconds to memorise each given photograph and phrase before you can respond, so try your best to focus.</p><p>An example is given below. Press 'Continue' when you are ready.</p><img src='img/speaking_example_v2.jpg' style='width:800px;height:460px;''></img>",0,html-button-response,42,295660,0.0-4.0,63197,List2A,black,woman,,,,,,,,
2451,"<p>Before the experiment starts, you will watch two example trials. Press 'Continue'.</p>",0,html-button-response,43,299123,0.0-5.0,63197,List2A,black,woman,,,,,,,,
null,<img src='img/speaking_WW.gif'></img>,,html-keyboard-response,44,302134,0.0-6.0,63197,List2A,black,woman,,,,null,,,,
null,<p>is speaking to</p>,,html-keyboard-response,45,304149,0.0-7.0,63197,List2A,black,woman,,,,null,,,,
2614,<p><b>Answer:</b> jane is speaking to ruth</p>,0,html-button-response,46,306763,0.0-8.0,63197,List2A,black,woman,,,,,,,,
null,<img src='img/pointing_BM.gif'></img>,,html-keyboard-response,47,309785,0.0-9.0,63197,List2A,black,woman,,,,null,,,,
null,<p>are pointing at each other</p>,,html-keyboard-response,48,311801,0.0-10.0,63197,List2A,black,woman,,,,null,,,,
3722,<p><b>Answer:</b> fred and mike are pointing at each other</p>,0,html-button-response,49,315523,0.0-11.0,63197,List2A,black,woman,,,,,,,,
7157,"<p>Ready to start the experiment?</p><br><p><strong>Remember to describe the picture using a full sentence,</strong></p><p><strong> that combines the names of the people with the given phrase.</strong></p><p><strong> You do not need to capitalise names or use punctuation.</strong></p><br><p>Press 'Continue' to begin.</p>",0,html-button-response,50,323691,0.0-12.0,63197,List2A,black,woman,,,,,,,,
null,"<div style=""font-size:60px;"">+</div>",,html-keyboard-response,51,325207,0.0-13.0-0.0,63197,List2A,black,woman,,,,null,,,,
null,"<img src=""stim_listA/dance8.gif""</stim_listA>",,html-keyboard-response,52,327218,0.0-13.0-1.0,63197,List2A,black,woman,,,,null,,,,
null,are dancing with each other,,html-keyboard-response,53,329219,0.0-13.0-2.0,63197,List2A,black,woman,,,,null,,,,
17151,,,survey-text,54,346371,0.0-13.0-3.0,63197,List2A,black,woman,,,,,"{""Q0"":""Beth and jane are dancing together""}","<img src=""stim_listA/dance8.gif""</stim_listA>",are dancing with each other,
null,"<div style=""font-size:60px;"">+</div>",,html-keyboard-response,55,346876,0.0-13.0-0.1,63197,List2A,black,woman,,,,null,,,,
null,"<img src=""stim_listA/touch5.gif""</stim_listA>",,html-keyboard-response,56,348889,0.0-13.0-1.1,63197,List2A,black,woman,,,,null,,,,
null,is touching,,html-keyboard-response,57,350897,0.0-13.0-2.1,63197,List2A,black,woman,,,,null,,,,
12801,,,survey-text,58,363701,0.0-13.0-3.1,63197,List2A,black,woman,,,,,"{""Q0"":""dave is touching mike""}","<img src=""stim_listA/touch5.gif""</stim_listA>",is touching,
null,"<div style=""font-size:60px;"">+</div>",,html-keyboard-response,59,364209,0.0-13.0-0.2,63197,List2A,black,woman,,,,null,,,,
null,"<img src=""stim_listA/meet1.gif""</stim_listA>",,html-keyboard-response,60,366222,0.0-13.0-1.2,63197,List2A,black,woman,,,,null,,,,
null,is meeting,,html-keyboard-response,61,368237,0.0-13.0-2.2,63197,List2A,black,woman,,,,null,,,,
11598,,,survey-text,62,379837,0.0-13.0-3.2,63197,List2A,black,woman,,,,,"{""Q0"":""jane is shaking dave""}","<img src=""stim_listA/meet1.gif""</stim_listA>",is meeting,
null,"<div style=""font-size:60px;"">+</div>",,html-keyboard-response,63,380337,0.0-13.0-0.3,63197,List2A,black,woman,,,,null,,,,
null,"<img src=""stim_listA/kiss5.gif""</stim_listA>",,html-keyboard-response,64,382345,0.0-13.0-1.3,63197,List2A,black,woman,,,,null,,,,
null,is kissing,,html-keyboard-response,65,384351,0.0-13.0-2.3,63197,List2A,black,woman,,,,null,,,,
14756,,,survey-text,66,399109,0.0-13.0-3.3,63197,List2A,black,woman,,,,,"{""Q0"":""luke is kissing fred""}","<img src=""stim_listA/kiss5.gif""</stim_listA>",is kissing,
null,"<div style=""font-size:60px;"">+</div>",,html-keyboard-response,67,399618,0.0-13.0-0.4,63197,List2A,black,woman,,,,null,,,,
null,"<img src=""stim_listA/hug7.gif""</stim_listA>",,html-keyboard-response,68,401628,0.0-13.0-1.4,63197,List2A,black,woman,,,,null,,,,
null,is hugging,,html-keyboard-response,69,403643,0.0-13.0-2.4,63197,List2A,black,woman,,,,null,,,,
10697,,,survey-text,70,414341,0.0-13.0-3.4,63197,List2A,black,woman,,,,,"{""Q0"":""beth is hugging ruth""}","<img src=""stim_listA/hug7.gif""</stim_listA>",is hugging,
null,"<div style=""font-size:60px;"">+</div>",,html-keyboard-response,71,414841,0.0-13.0-0.5,63197,List2A,black,woman,,,,null,,,,
null,"<img src=""stim_listA/fight1.gif""</stim_listA>",,html-keyboard-response,72,416854,0.0-13.0-1.5,63197,List2A,black,woman,,,,null,,,,
null,is fighting,,html-keyboard-response,73,418864,0.0-13.0-2.5,63197,List2A,black,woman,,,,null,,,,
13310,,,survey-text,74,432175,0.0-13.0-3.5,63197,List2A,black,woman,,,,,"{""Q0"":""jane is fighting luke""}","<img src=""stim_listA/fight1.gif""</stim_listA>",is fighting,
null,"<div style=""font-size:60px;"">+</div>",,html-keyboard-response,75,432677,0.0-13.0-0.6,63197,List2A,black,woman,,,,null,,,,
null,"<img src=""stim_listA/kiss1.gif""</stim_listA>",,html-keyboard-response,76,434692,0.0-13.0-1.6,63197,List2A,black,woman,,,,null,,,,
null,is kissing,,html-keyboard-response,77,436698,0.0-13.0-2.6,63197,List2A,black,woman,,,,null,,,,
19212,,,survey-text,78,455911,0.0-13.0-3.6,63197,List2A,black,woman,,,,,"{""Q0"":""ruth is kissing luke""}","<img src=""stim_listA/kiss1.gif""</stim_listA>",is kissing,
null,"<div style=""font-size:60px;"">+</div>",,html-keyboard-response,79,456426,0.0-13.0-0.7,63197,List2A,black,woman,,,,null,,,,
null,"<img src=""stim_listA/fight5.gif""</stim_listA>",,html-keyboard-response,80,458440,0.0-13.0-1.7,63197,List2A,black,woman,,,,null,,,,
null,is fighting,,html-keyboard-response,81,460455,0.0-13.0-2.7,63197,List2A,black,woman,,,,null,,,,
7566,,,survey-text,82,468023,0.0-13.0-3.7,63197,List2A,black,woman,,,,,"{""Q0"":""mike is fighting dave""}","<img src=""stim_listA/fight5.gif""</stim_listA>",is fighting,
null,"<div style=""font-size:60px;"">+</div>",,html-keyboard-response,83,468537,0.0-13.0-0.8,63197,List2A,black,woman,,,,null,,,,
null,"<img src=""stim_listA/argue4.gif""</stim_listA>",,html-keyboard-response,84,470547,0.0-13.0-1.8,63197,List2A,black,woman,,,,null,,,,
null,are arguing with each other,,html-keyboard-response,85,472548,0.0-13.0-2.8,63197,List2A,black,woman,,,,null,,,,
22610,,,survey-text,86,495159,0.0-13.0-3.8,63197,List2A,black,woman,,,,,"{""Q0"":""kate and fred are arguing with each other""}","<img src=""stim_listA/argue4.gif""</stim_listA>",are arguing with each other,
null,"<div style=""font-size:60px;"">+</div>",,html-keyboard-response,87,495673,0.0-13.0-0.9,63197,List2A,black,woman,,,,null,,,,
null,"<img src=""stim_listA/hug5.gif""</stim_listA>",,html-keyboard-response,88,497688,0.0-13.0-1.9,63197,List2A,black,woman,,,,null,,,,
null,is hugging,,html-keyboard-response,89,499704,0.0-13.0-2.9,63197,List2A,black,woman,,,,null,,,,
25087,,,survey-text,90,524791,0.0-13.0-3.9,63197,List2A,black,woman,,,,,"{""Q0"":""""}","<img src=""stim_listA/hug5.gif""</stim_listA>",is hugging,
null,"<div style=""font-size:60px;"">+</div>",,html-keyboard-response,91,525292,0.0-13.0-0.10,63197,List2A,black,woman,,,,null,,,,
null,"<img src=""stim_listA/marry1.gif""</stim_listA>",,html-keyboard-response,92,527299,0.0-13.0-1.10,63197,List2A,black,woman,,,,null,,,,
null,is marrying,,html-keyboard-response,93,529303,0.0-13.0-2.10,63197,List2A,black,woman,,,,null,,,,
447635,,,survey-text,94,976938,0.0-13.0-3.10,63197,List2A,black,woman,,,,,"{""Q0"":""dave is marrying ruth""}","<img src=""stim_listA/marry1.gif""</stim_listA>",is marrying,
null,"<div style=""font-size:60px;"">+</div>",,html-keyboard-response,95,977440,0.0-13.0-0.11,63197,List2A,black,woman,,,,null,,,,
null,"<img src=""stim_listA/shout1.gif""</stim_listA>",,html-keyboard-response,96,979452,0.0-13.0-1.11,63197,List2A,black,woman,,,,null,,,,
null,is shouting at,,html-keyboard-response,97,981457,0.0-13.0-2.11,63197,List2A,black,woman,,,,null,,,,
8073,,,survey-text,98,989530,0.0-13.0-3.11,63197,List2A,black,woman,,,,,"{""Q0"":""luke is shouting at ruth""}","<img src=""stim_listA/shout1.gif""</stim_listA>",is shouting at,
null,"<div style=""font-size:60px;"">+</div>",,html-keyboard-response,99,990040,0.0-13.0-0.12,63197,List2A,black,woman,,,,null,,,,
null,"<img src=""stim_listA/talk3.gif""</stim_listA>",,html-keyboard-response,100,992057,0.0-13.0-1.12,63197,List2A,black,woman,,,,null,,,,
null,is talking to,,html-keyboard-response,101,994070,0.0-13.0-2.12,63197,List2A,black,woman,,,,null,,,,
10796,,,survey-text,102,1004866,0.0-13.0-3.12,63197,List2A,black,woman,,,,,"{""Q0"":""kate is talking to fred""}","<img src=""stim_listA/talk3.gif""</stim_listA>",is talking to,
null,"<div style=""font-size:60px;"">+</div>",,html-keyboard-response,103,1005372,0.0-13.0-0.13,63197,List2A,black,woman,,,,null,,,,
null,"<img src=""stim_listA/shout5.gif""</stim_listA>",,html-keyboard-response,104,1007374,0.0-13.0-1.13,63197,List2A,black,woman,,,,null,,,,
null,is shouting at,,html-keyboard-response,105,1009386,0.0-13.0-2.13,63197,List2A,black,woman,,,,null,,,,
11040,,,survey-text,106,1020426,0.0-13.0-3.13,63197,List2A,black,woman,,,,,"{""Q0"":""luke is shouting at fred""}","<img src=""stim_listA/shout5.gif""</stim_listA>",is shouting at,
null,"<div style=""font-size:60px;"">+</div>",,html-keyboard-response,107,1020927,0.0-13.0-0.14,63197,List2A,black,woman,,,,null,,,,
null,"<img src=""stim_listA/talk7.gif""</stim_listA>",,html-keyboard-response,108,1022938,0.0-13.0-1.14,63197,List2A,black,woman,,,,null,,,,
null,is talking to,,html-keyboard-response,109,1024950,0.0-13.0-2.14,63197,List2A,black,woman,,,,null,,,,
8891,,,survey-text,110,1033842,0.0-13.0-3.14,63197,List2A,black,woman,,,,,"{""Q0"":""kate is talking to ruth""}","<img src=""stim_listA/talk7.gif""</stim_listA>",is talking to,
null,"<div style=""font-size:60px;"">+</div>",,html-keyboard-response,111,1034344,0.0-13.0-0.15,63197,List2A,black,woman,,,,null,,,,
null,"<img src=""stim_listA/meet7.gif""</stim_listA>",,html-keyboard-response,112,1036345,0.0-13.0-1.15,63197,List2A,black,woman,,,,null,,,,
null,is meeting,,html-keyboard-response,113,1038359,0.0-13.0-2.15,63197,List2A,black,woman,,,,null,,,,
8314,,,survey-text,114,1046674,0.0-13.0-3.15,63197,List2A,black,woman,,,,,"{""Q0"":""jane is meeting kate""}","<img src=""stim_listA/meet7.gif""</stim_listA>",is meeting,
null,"<div style=""font-size:60px;"">+</div>",,html-keyboard-response,115,1047185,0.0-13.0-0.16,63197,List2A,black,woman,,,,null,,,,
null,"<img src=""stim_listA/dance1.gif""</stim_listA>",,html-keyboard-response,116,1049196,0.0-13.0-1.16,63197,List2A,black,woman,,,,null,,,,
null,is dancing with,,html-keyboard-response,117,1051197,0.0-13.0-2.16,63197,List2A,black,woman,,,,null,,,,
16332,,,survey-text,118,1067530,0.0-13.0-3.16,63197,List2A,black,woman,,,,,"{""Q0"":""luke is dancing with jane""}","<img src=""stim_listA/dance1.gif""</stim_listA>",is dancing with,
null,"<div style=""font-size:60px;"">+</div>",,html-keyboard-response,119,1068031,0.0-13.0-0.17,63197,List2A,black,woman,,,,null,,,,
null,"<img src=""stim_listA/dance3.gif""</stim_listA>",,html-keyboard-response,120,1070034,0.0-13.0-1.17,63197,List2A,black,woman,,,,null,,,,
null,is dancing with,,html-keyboard-response,121,1072042,0.0-13.0-2.17,63197,List2A,black,woman,,,,null,,,,
17391,,,survey-text,122,1089434,0.0-13.0-3.17,63197,List2A,black,woman,,,,,"{""Q0"":""fred is dancing with beth""}","<img src=""stim_listA/dance3.gif""</stim_listA>",is dancing with,
null,"<div style=""font-size:60px;"">+</div>",,html-keyboard-response,123,1089947,0.0-13.0-0.18,63197,List2A,black,woman,,,,null,,,,
null,"<img src=""stim_listA/argue2.gif""</stim_listA>",,html-keyboard-response,124,1091951,0.0-13.0-1.18,63197,List2A,black,woman,,,,null,,,,
null,are arguing with each other,,html-keyboard-response,125,1093954,0.0-13.0-2.18,63197,List2A,black,woman,,,,null,,,,
15551,,,survey-text,126,1109506,0.0-13.0-3.18,63197,List2A,black,woman,,,,,"{""Q0"":""jane and luke are arguing with each other""}","<img src=""stim_listA/argue2.gif""</stim_listA>",are arguing with each other,
null,"<div style=""font-size:60px;"">+</div>",,html-keyboard-response,127,1110007,0.0-13.0-0.19,63197,List2A,black,woman,,,,null,,,,
null,"<img src=""stim_listA/fight8.gif""</stim_listA>",,html-keyboard-response,128,1112013,0.0-13.0-1.19,63197,List2A,black,woman,,,,null,,,,
null,are fighting each other,,html-keyboard-response,129,1114097,0.0-13.0-2.19,63197,List2A,black,woman,,,,null,,,,
19240,,,survey-text,130,1133338,0.0-13.0-3.19,63197,List2A,black,woman,,,,,"{""Q0"":"" beth and ruth are fighting each other""}","<img src=""stim_listA/fight8.gif""</stim_listA>",are fighting each other,
6639,"<img src='img/portrait_matrix_list2.JPG' style='width:900px;height:500px;''></img><p>If you have memorised all the portraits and names and are ready to start, press Continue.</p><p><strong>Please note: Your memory of these faces will be tested 4 times during this experiment.</strong></p>",0,html-button-response,131,1139978,0.0-14.0-0.0,63197,List2A,black,woman,,,,,,,,
1772,"<img src=""portrait/WM2.jpg""style=""width:400px;height:400px;""></img>",7,html-button-response,132,1142754,0.0-14.0-1.0,63197,List2A,black,woman,,TRUE,7,,,,,
null,CORRECT,,html-keyboard-response,133,1144257,0.0-14.0-2.0-0.0,63197,List2A,black,woman,,,,null,,,,
2543,"<img src=""portrait/WM1.jpg""style=""width:400px;height:400px;""></img>",6,html-button-response,134,1146802,0.0-14.0-4.0,63197,List2A,black,woman,,TRUE,6,,,,,
null,CORRECT,,html-keyboard-response,135,1148327,0.0-14.0-5.0-0.0,63197,List2A,black,woman,,,,null,,,,
1946,"<img src=""portrait/WW2.jpg""style=""width:400px;height:400px;""></img>",3,html-button-response,136,1150274,0.0-14.0-7.0,63197,List2A,black,woman,,TRUE,3,,,,,
null,CORRECT,,html-keyboard-response,137,1151792,0.0-14.0-8.0-0.0,63197,List2A,black,woman,,,,null,,,,
1609,"<img src=""portrait/WW1.jpg""style=""width:400px;height:400px;""></img>",1,html-button-response,138,1153402,0.0-14.0-10.0,63197,List2A,black,woman,,TRUE,1,,,,,
null,CORRECT,,html-keyboard-response,139,1154908,0.0-14.0-11.0-0.0,63197,List2A,black,woman,,,,null,,,,
1404,"<img src=""portrait/BW2.jpg""style=""width:400px;height:400px;""></img>",2,html-button-response,140,1156314,0.0-14.0-13.0,63197,List2A,black,woman,,TRUE,2,,,,,
null,CORRECT,,html-keyboard-response,141,1157825,0.0-14.0-14.0-0.0,63197,List2A,black,woman,,,,null,,,,
1400,"<img src=""portrait/BM1.jpg""style=""width:400px;height:400px;""></img>",4,html-button-response,142,1159226,0.0-14.0-16.0,63197,List2A,black,woman,,TRUE,4,,,,,
null,CORRECT,,html-keyboard-response,143,1160739,0.0-14.0-17.0-0.0,63197,List2A,black,woman,,,,null,,,,
2534,"<img src=""portrait/BW1.jpg""style=""width:400px;height:400px;""></img>",0,html-button-response,144,1163275,0.0-14.0-19.0,63197,List2A,black,woman,,TRUE,0,,,,,
null,CORRECT,,html-keyboard-response,145,1164782,0.0-14.0-20.0-0.0,63197,List2A,black,woman,,,,null,,,,
1923,"<img src=""portrait/BM2.jpg""style=""width:400px;height:400px;""></img>",5,html-button-response,146,1166706,0.0-14.0-22.0,63197,List2A,black,woman,,TRUE,5,,,,,
null,CORRECT,,html-keyboard-response,147,1168222,0.0-14.0-23.0-0.0,63197,List2A,black,woman,,,,null,,,,
1187,<p>You got 8 out of 8 right first time. Press Continue.</p>,0,html-button-response,148,1169410,0.0-14.0-25.0,63197,List2A,black,woman,,,,,,,,
null,"<div style=""font-size:60px;"">+</div>",,html-keyboard-response,149,1170922,0.0-15.0-0.0,63197,List2A,black,woman,,,,null,,,,
null,"<img src=""stim_listA/shout4.gif""</stim_listA>",,html-keyboard-response,150,1172934,0.0-15.0-1.0,63197,List2A,black,woman,,,,null,,,,
null,are shouting at each other,,html-keyboard-response,151,1174946,0.0-15.0-2.0,63197,List2A,black,woman,,,,null,,,,
12808,,,survey-text,152,1187754,0.0-15.0-3.0,63197,List2A,black,woman,,,,,"{""Q0"":""fred and kate are shouting at each other""}","<img src=""stim_listA/shout4.gif""</stim_listA>",are shouting at each other,
null,"<div style=""font-size:60px;"">+</div>",,html-keyboard-response,153,1188264,0.0-15.0-0.1,63197,List2A,black,woman,,,,null,,,,
null,"<img src=""stim_listA/meet3.gif""</stim_listA>",,html-keyboard-response,154,1190266,0.0-15.0-1.1,63197,List2A,black,woman,,,,null,,,,
null,is meeting,,html-keyboard-response,155,1192268,0.0-15.0-2.1,63197,List2A,black,woman,,,,null,,,,
7557,,,survey-text,156,1199826,0.0-15.0-3.1,63197,List2A,black,woman,,,,,"{""Q0"":""fred is meeting kate""}","<img src=""stim_listA/meet3.gif""</stim_listA>",is meeting,
null,"<div style=""font-size:60px;"">+</div>",,html-keyboard-response,157,1200333,0.0-15.0-0.2,63197,List2A,black,woman,,,,null,,,,
null,"<img src=""stim_listA/shout7.gif""</stim_listA>",,html-keyboard-response,158,1202345,0.0-15.0-1.2,63197,List2A,black,woman,,,,null,,,,
null,is shouting at,,html-keyboard-response,159,1204346,0.0-15.0-2.2,63197,List2A,black,woman,,,,null,,,,
8118,,,survey-text,160,1212466,0.0-15.0-3.2,63197,List2A,black,woman,,,,,"{""Q0"":""jane is shouting at beth""}","<img src=""stim_listA/shout7.gif""</stim_listA>",is shouting at,
null,"<div style=""font-size:60px;"">+</div>",,html-keyboard-response,161,1212972,0.0-15.0-0.3,63197,List2A,black,woman,,,,null,,,,
null,"<img src=""stim_listA/fight3.gif""</stim_listA>",,html-keyboard-response,162,1214976,0.0-15.0-1.3,63197,List2A,black,woman,,,,null,,,,
null,is fighting,,html-keyboard-response,163,1216976,0.0-15.0-2.3,63197,List2A,black,woman,,,,null,,,,
9338,,,survey-text,164,1226314,0.0-15.0-3.3,63197,List2A,black,woman,,,,,"{""Q0"":""fred is fighting kate""}","<img src=""stim_listA/fight3.gif""</stim_listA>",is fighting,
null,"<div style=""font-size:60px;"">+</div>",,html-keyboard-response,165,1226819,0.0-15.0-0.4,63197,List2A,black,woman,,,,null,,,,
null,"<img src=""stim_listA/talk1.gif""</stim_listA>",,html-keyboard-response,166,1228821,0.0-15.0-1.4,63197,List2A,black,woman,,,,null,,,,
null,is talking to,,html-keyboard-response,167,1230835,0.0-15.0-2.4,63197,List2A,black,woman,,,,null,,,,
10271,,,survey-text,168,1241106,0.0-15.0-3.4,63197,List2A,black,woman,,,,,"{""Q0"":""jane is talking to dave""}","<img src=""stim_listA/talk1.gif""</stim_listA>",is talking to,
null,"<div style=""font-size:60px;"">+</div>",,html-keyboard-response,169,1241622,0.0-15.0-0.5,63197,List2A,black,woman,,,,null,,,,
null,"<img src=""stim_listA/marry7.gif""</stim_listA>",,html-keyboard-response,170,1243634,0.0-15.0-1.5,63197,List2A,black,woman,,,,null,,,,
null,is marrying,,html-keyboard-response,171,1245647,0.0-15.0-2.5,63197,List2A,black,woman,,,,null,,,,
12411,,,survey-text,172,1258058,0.0-15.0-3.5,63197,List2A,black,woman,,,,,"{""Q0"":""beth is marrying jane""}","<img src=""stim_listA/marry7.gif""</stim_listA>",is marrying,
null,"<div style=""font-size:60px;"">+</div>",,html-keyboard-response,173,1258560,0.0-15.0-0.6,63197,List2A,black,woman,,,,null,,,,
null,"<img src=""stim_listA/talk8.gif""</stim_listA>",,html-keyboard-response,174,1260568,0.0-15.0-1.6,63197,List2A,black,woman,,,,null,,,,
null,are talking to each other,,html-keyboard-response,175,1262582,0.0-15.0-2.6,63197,List2A,black,woman,,,,null,,,,
21224,,,survey-text,176,1283807,0.0-15.0-3.6,63197,List2A,black,woman,,,,,"{""Q0"":""beth and jane are talking to each other""}","<img src=""stim_listA/talk8.gif""</stim_listA>",are talking to each other,
null,"<div style=""font-size:60px;"">+</div>",,html-keyboard-response,177,1284309,0.0-15.0-0.7,63197,List2A,black,woman,,,,null,,,,
null,"<img src=""stim_listA/meet8.gif""</stim_listA>",,html-keyboard-response,178,1286314,0.0-15.0-1.7,63197,List2A,black,woman,,,,null,,,,
null,are meeting each other,,html-keyboard-response,179,1288329,0.0-15.0-2.7,63197,List2A,black,woman,,,,null,,,,
20037,,,survey-text,180,1308367,0.0-15.0-3.7,63197,List2A,black,woman,,,,,"{""Q0"":""beth and jane are meeting each other""}","<img src=""stim_listA/meet8.gif""</stim_listA>",are meeting each other,
null,"<div style=""font-size:60px;"">+</div>",,html-keyboard-response,181,1308869,0.0-15.0-0.8,63197,List2A,black,woman,,,,null,,,,
null,"<img src=""stim_listA/argue3.gif""</stim_listA>",,html-keyboard-response,182,1310886,0.0-15.0-1.8,63197,List2A,black,woman,,,,null,,,,
null,is arguing with,,html-keyboard-response,183,1312887,0.0-15.0-2.8,63197,List2A,black,woman,,,,null,,,,
23327,,,survey-text,184,1336215,0.0-15.0-3.8,63197,List2A,black,woman,,,,,"{""Q0"":""beth is arguing with mike""}","<img src=""stim_listA/argue3.gif""</stim_listA>",is arguing with,
null,"<div style=""font-size:60px;"">+</div>",,html-keyboard-response,185,1336717,0.0-15.0-0.9,63197,List2A,black,woman,,,,null,,,,
null,"<img src=""stim_listA/kiss7.gif""</stim_listA>",,html-keyboard-response,186,1338722,0.0-15.0-1.9,63197,List2A,black,woman,,,,null,,,,
null,is kissing,,html-keyboard-response,187,1340726,0.0-15.0-2.9,63197,List2A,black,woman,,,,null,,,,
11442,,,survey-text,188,1352169,0.0-15.0-3.9,63197,List2A,black,woman,,,,,"{""Q0"":""beth is kissing jane""}","<img src=""stim_listA/kiss7.gif""</stim_listA>",is kissing,
null,"<div style=""font-size:60px;"">+</div>",,html-keyboard-response,189,1352671,0.0-15.0-0.10,63197,List2A,black,woman,,,,null,,,,
null,"<img src=""stim_listA/dance5.gif""</stim_listA>",,html-keyboard-response,190,1354672,0.0-15.0-1.10,63197,List2A,black,woman,,,,null,,,,
null,is dancing with,,html-keyboard-response,191,1356673,0.0-15.0-2.10,63197,List2A,black,woman,,,,null,,,,
10016,,,survey-text,192,1366689,0.0-15.0-3.10,63197,List2A,black,woman,,,,,"{""Q0"":""mike is dancing with luke""}","<img src=""stim_listA/dance5.gif""</stim_listA>",is dancing with,
null,"<div style=""font-size:60px;"">+</div>",,html-keyboard-response,193,1367196,0.0-15.0-0.11,63197,List2A,black,woman,,,,null,,,,
null,"<img src=""stim_listA/argue6.gif""</stim_listA>",,html-keyboard-response,194,1369197,0.0-15.0-1.11,63197,List2A,black,woman,,,,null,,,,
null,are arguing with each other,,html-keyboard-response,195,1371208,0.0-15.0-2.11,63197,List2A,black,woman,,,,null,,,,
31120,,,survey-text,196,1402329,0.0-15.0-3.11,63197,List2A,black,woman,,,,,"{""Q0"":""mike and luke are arguing with each other""}","<img src=""stim_listA/argue6.gif""</stim_listA>",are arguing with each other,
null,"<div style=""font-size:60px;"">+</div>",,html-keyboard-response,197,1402843,0.0-15.0-0.12,63197,List2A,black,woman,,,,null,,,,
null,"<img src=""stim_listA/marry2.gif""</stim_listA>",,html-keyboard-response,198,1404845,0.0-15.0-1.12,63197,List2A,black,woman,,,,null,,,,
null,are marrying each other,,html-keyboard-response,199,1406861,0.0-15.0-2.12,63197,List2A,black,woman,,,,null,,,,
23523,,,survey-text,200,1430385,0.0-15.0-3.12,63197,List2A,black,woman,,,,,"{""Q0"":""luke and jane are marrying each other""}","<img src=""stim_listA/marry2.gif""</stim_listA>",are marrying each other,
null,"<div style=""font-size:60px;"">+</div>",,html-keyboard-response,201,1430899,0.0-15.0-0.13,63197,List2A,black,woman,,,,null,,,,
null,"<img src=""stim_listA/shout8.gif""</stim_listA>",,html-keyboard-response,202,1432913,0.0-15.0-1.13,63197,List2A,black,woman,,,,null,,,,
null,are shouting at each other,,html-keyboard-response,203,1434921,0.0-15.0-2.13,63197,List2A,black,woman,,,,null,,,,
22327,,,survey-text,204,1457248,0.0-15.0-3.13,63197,List2A,black,woman,,,,,"{""Q0"":""kate and jane are shouting at each other""}","<img src=""stim_listA/shout8.gif""</stim_listA>",are shouting at each other,
null,"<div style=""font-size:60px;"">+</div>",,html-keyboard-response,205,1457758,0.0-15.0-0.14,63197,List2A,black,woman,,,,null,,,,
null,"<img src=""stim_listA/shout6.gif""</stim_listA>",,html-keyboard-response,206,1459763,0.0-15.0-1.14,63197,List2A,black,woman,,,,null,,,,
null,are shouting at each other,,html-keyboard-response,207,1461770,0.0-15.0-2.14,63197,List2A,black,woman,,,,null,,,,
12104,,,survey-text,208,1473874,0.0-15.0-3.14,63197,List2A,black,woman,,,,,"{""Q0"":""dave and mike are shouting at each other""}","<img src=""stim_listA/shout6.gif""</stim_listA>",are shouting at each other,
null,"<div style=""font-size:60px;"">+</div>",,html-keyboard-response,209,1474387,0.0-15.0-0.15,63197,List2A,black,woman,,,,null,,,,
null,"<img src=""stim_listA/argue1.gif""</stim_listA>",,html-keyboard-response,210,1476389,0.0-15.0-1.15,63197,List2A,black,woman,,,,null,,,,
null,is arguing with,,html-keyboard-response,211,1478390,0.0-15.0-2.15,63197,List2A,black,woman,,,,null,,,,
16460,,,survey-text,212,1494850,0.0-15.0-3.15,63197,List2A,black,woman,,,,,"{""Q0"":""ruth is arguing with dave""}","<img src=""stim_listA/argue1.gif""</stim_listA>",is arguing with,
null,"<div style=""font-size:60px;"">+</div>",,html-keyboard-response,213,1495359,0.0-15.0-0.16,63197,List2A,black,woman,,,,null,,,,
null,"<img src=""stim_listA/kiss8.gif""</stim_listA>",,html-keyboard-response,214,1497368,0.0-15.0-1.16,63197,List2A,black,woman,,,,null,,,,
null,are kissing each other,,html-keyboard-response,215,1499379,0.0-15.0-2.16,63197,List2A,black,woman,,,,null,,,,
16501,,,survey-text,216,1515882,0.0-15.0-3.16,63197,List2A,black,woman,,,,,"{""Q0"":""kate and jane are kissing each other""}","<img src=""stim_listA/kiss8.gif""</stim_listA>",are kissing each other,
null,"<div style=""font-size:60px;"">+</div>",,html-keyboard-response,217,1516390,0.0-15.0-0.17,63197,List2A,black,woman,,,,null,,,,
null,"<img src=""stim_listA/talk6.gif""</stim_listA>",,html-keyboard-response,218,1518401,0.0-15.0-1.17,63197,List2A,black,woman,,,,null,,,,
null,are talking to each other,,html-keyboard-response,219,1520416,0.0-15.0-2.17,63197,List2A,black,woman,,,,null,,,,
17976,,,survey-text,220,1538395,0.0-15.0-3.17,63197,List2A,black,woman,,,,,"{""Q0"":""fred and dave are talking to each other""}","<img src=""stim_listA/talk6.gif""</stim_listA>",are talking to each other,
null,"<div style=""font-size:60px;"">+</div>",,html-keyboard-response,221,1538902,0.0-15.0-0.18,63197,List2A,black,woman,,,,null,,,,
null,"<img src=""stim_listA/argue7.gif""</stim_listA>",,html-keyboard-response,222,1540910,0.0-15.0-1.18,63197,List2A,black,woman,,,,null,,,,
null,is arguing with,,html-keyboard-response,223,1542921,0.0-15.0-2.18,63197,List2A,black,woman,,,,null,,,,
9529,,,survey-text,224,1552451,0.0-15.0-3.18,63197,List2A,black,woman,,,,,"{""Q0"":""jane is arguing with beth""}","<img src=""stim_listA/argue7.gif""</stim_listA>",is arguing with,
null,"<div style=""font-size:60px;"">+</div>",,html-keyboard-response,225,1552953,0.0-15.0-0.19,63197,List2A,black,woman,,,,null,,,,
null,"<img src=""stim_listA/fight4.gif""</stim_listA>",,html-keyboard-response,226,1554955,0.0-15.0-1.19,63197,List2A,black,woman,,,,null,,,,
null,are fighting each other,,html-keyboard-response,227,1556970,0.0-15.0-2.19,63197,List2A,black,woman,,,,null,,,,
25140,,,survey-text,228,1582112,0.0-15.0-3.19,63197,List2A,black,woman,,,,,"{""Q0"":""beth and fred are fighting with each other""}","<img src=""stim_listA/fight4.gif""</stim_listA>",are fighting each other,
6439,"<img src='img/portrait_matrix_list2.JPG' style='width:900px;height:500px;''></img><p>If you have memorised all the portraits and names and are ready to start, press Continue.</p><p><strong>Please note: Your memory of these faces will be tested 4 times during this experiment.</strong></p>",0,html-button-response,229,1588552,0.0-16.0-0.0,63197,List2A,black,woman,,,,,,,,
5723,"<img src=""portrait/WW2.jpg""style=""width:400px;height:400px;""></img>",3,html-button-response,230,1595288,0.0-16.0-1.0,63197,List2A,black,woman,,TRUE,3,,,,,
null,CORRECT,,html-keyboard-response,231,1596796,0.0-16.0-2.0-0.0,63197,List2A,black,woman,,,,null,,,,
1322,"<img src=""portrait/BW2.jpg""style=""width:400px;height:400px;""></img>",2,html-button-response,232,1598120,0.0-16.0-4.0,63197,List2A,black,woman,,TRUE,2,,,,,
null,CORRECT,,html-keyboard-response,233,1599643,0.0-16.0-5.0-0.0,63197,List2A,black,woman,,,,null,,,,
2260,"<img src=""portrait/WM2.jpg""style=""width:400px;height:400px;""></img>",7,html-button-response,234,1601904,0.0-16.0-7.0,63197,List2A,black,woman,,TRUE,7,,,,,
null,CORRECT,,html-keyboard-response,235,1603421,0.0-16.0-8.0-0.0,63197,List2A,black,woman,,,,null,,,,
1418,"<img src=""portrait/WM1.jpg""style=""width:400px;height:400px;""></img>",6,html-button-response,236,1604840,0.0-16.0-10.0,63197,List2A,black,woman,,TRUE,6,,,,,
null,CORRECT,,html-keyboard-response,237,1606342,0.0-16.0-11.0-0.0,63197,List2A,black,woman,,,,null,,,,
10801,"<img src=""portrait/BM1.jpg""style=""width:400px;height:400px;""></img>",4,html-button-response,238,1617144,0.0-16.0-13.0,63197,List2A,black,woman,,TRUE,4,,,,,
null,CORRECT,,html-keyboard-response,239,1618669,0.0-16.0-14.0-0.0,63197,List2A,black,woman,,,,null,,,,
3617,"<img src=""portrait/BW1.jpg""style=""width:400px;height:400px;""></img>",0,html-button-response,240,1622288,0.0-16.0-16.0,63197,List2A,black,woman,,TRUE,0,,,,,
null,CORRECT,,html-keyboard-response,241,1623805,0.0-16.0-17.0-0.0,63197,List2A,black,woman,,,,null,,,,
1441,"<img src=""portrait/BM2.jpg""style=""width:400px;height:400px;""></img>",5,html-button-response,242,1625248,0.0-16.0-19.0,63197,List2A,black,woman,,TRUE,5,,,,,
null,CORRECT,,html-keyboard-response,243,1626767,0.0-16.0-20.0-0.0,63197,List2A,black,woman,,,,null,,,,
37081,"<img src=""portrait/WW1.jpg""style=""width:400px;height:400px;""></img>",1,html-button-response,244,1663848,0.0-16.0-22.0,63197,List2A,black,woman,,TRUE,1,,,,,
null,CORRECT,,html-keyboard-response,245,1665373,0.0-16.0-23.0-0.0,63197,List2A,black,woman,,,,null,,,,
1298,<p>You got 8 out of 8 right first time. Press Continue.</p>,0,html-button-response,246,1666672,0.0-16.0-25.0,63197,List2A,black,woman,,,,,,,,
null,"<div style=""font-size:60px;"">+</div>",,html-keyboard-response,247,1668200,0.0-17.0-0.0,63197,List2A,black,woman,,,,null,,,,
null,"<img src=""stim_listA/hug8.gif""</stim_listA>",,html-keyboard-response,248,1670202,0.0-17.0-1.0,63197,List2A,black,woman,,,,null,,,,
null,are hugging each other,,html-keyboard-response,249,1672203,0.0-17.0-2.0,63197,List2A,black,woman,,,,null,,,,
11620,,,survey-text,250,1683824,0.0-17.0-3.0,63197,List2A,black,woman,,,,,"{""Q0"":""jane and kate are hugging each other""}","<img src=""stim_listA/hug8.gif""</stim_listA>",are hugging each other,
null,"<div style=""font-size:60px;"">+</div>",,html-keyboard-response,251,1684333,0.0-17.0-0.1,63197,List2A,black,woman,,,,null,,,,
null,"<img src=""stim_listA/meet2.gif""</stim_listA>",,html-keyboard-response,252,1686336,0.0-17.0-1.1,63197,List2A,black,woman,,,,null,,,,
null,are meeting each other,,html-keyboard-response,253,1688342,0.0-17.0-2.1,63197,List2A,black,woman,,,,null,,,,
11408,,,survey-text,254,1699752,0.0-17.0-3.1,63197,List2A,black,woman,,,,,"{""Q0"":""luke and ruth are meeting each other""}","<img src=""stim_listA/meet2.gif""</stim_listA>",are meeting each other,
null,"<div style=""font-size:60px;"">+</div>",,html-keyboard-response,255,1700253,0.0-17.0-0.2,63197,List2A,black,woman,,,,null,,,,
null,"<img src=""stim_listA/talk2.gif""</stim_listA>",,html-keyboard-response,256,1702256,0.0-17.0-1.2,63197,List2A,black,woman,,,,null,,,,
null,are talking to each other,,html-keyboard-response,257,1704258,0.0-17.0-2.2,63197,List2A,black,woman,,,,null,,,,
14965,,,survey-text,258,1719224,0.0-17.0-3.2,63197,List2A,black,woman,,,,,"{""Q0"":""dave and ruth are talking to each other""}","<img src=""stim_listA/talk2.gif""</stim_listA>",are talking to each other,
null,"<div style=""font-size:60px;"">+</div>",,html-keyboard-response,259,1719726,0.0-17.0-0.3,63197,List2A,black,woman,,,,null,,,,
null,"<img src=""stim_listA/hug2.gif""</stim_listA>",,html-keyboard-response,260,1721728,0.0-17.0-1.3,63197,List2A,black,woman,,,,null,,,,
null,are hugging each other,,html-keyboard-response,261,1723741,0.0-17.0-2.3,63197,List2A,black,woman,,,,null,,,,
12757,,,survey-text,262,1736499,0.0-17.0-3.3,63197,List2A,black,woman,,,,,"{""Q0"":""luke and jane are hugging each other""}","<img src=""stim_listA/hug2.gif""</stim_listA>",are hugging each other,
null,"<div style=""font-size:60px;"">+</div>",,html-keyboard-response,263,1737010,0.0-17.0-0.4,63197,List2A,black,woman,,,,null,,,,
null,"<img src=""stim_listA/talk4.gif""</stim_listA>",,html-keyboard-response,264,1739021,0.0-17.0-1.4,63197,List2A,black,woman,,,,null,,,,
null,are talking to each other,,html-keyboard-response,265,1741027,0.0-17.0-2.4,63197,List2A,black,woman,,,,null,,,,
13750,,,survey-text,266,1754779,0.0-17.0-3.4,63197,List2A,black,woman,,,,,"{""Q0"":""mike and beth are talking to each other""}","<img src=""stim_listA/talk4.gif""</stim_listA>",are talking to each other,
null,"<div style=""font-size:60px;"">+</div>",,html-keyboard-response,267,1755286,0.0-17.0-0.5,63197,List2A,black,woman,,,,null,,,,
null,"<img src=""stim_listA/shout2.gif""</stim_listA>",,html-keyboard-response,268,1757291,0.0-17.0-1.5,63197,List2A,black,woman,,,,null,,,,
null,are shouting at each other,,html-keyboard-response,269,1759292,0.0-17.0-2.5,63197,List2A,black,woman,,,,null,,,,
17405,,,survey-text,270,1776698,0.0-17.0-3.5,63197,List2A,black,woman,,,,,"{""Q0"":""jane and dave are shouting at each other""}","<img src=""stim_listA/shout2.gif""</stim_listA>",are shouting at each other,
null,"<div style=""font-size:60px;"">+</div>",,html-keyboard-response,271,1777212,0.0-17.0-0.6,63197,List2A,black,woman,,,,null,,,,
null,"<img src=""stim_listA/hug3.gif""</stim_listA>",,html-keyboard-response,272,1779214,0.0-17.0-1.6,63197,List2A,black,woman,,,,null,,,,
null,is hugging,,html-keyboard-response,273,1781214,0.0-17.0-2.6,63197,List2A,black,woman,,,,null,,,,
10453,,,survey-text,274,1791668,0.0-17.0-3.6,63197,List2A,black,woman,,,,,"{""Q0"":""beth is hugging fred""}","<img src=""stim_listA/hug3.gif""</stim_listA>",is hugging,
null,"<div style=""font-size:60px;"">+</div>",,html-keyboard-response,275,1792183,0.0-17.0-0.7,63197,List2A,black,woman,,,,null,,,,
null,"<img src=""stim_listA/talk5.gif""</stim_listA>",,html-keyboard-response,276,1794186,0.0-17.0-1.7,63197,List2A,black,woman,,,,null,,,,
null,is talking to,,html-keyboard-response,277,1796200,0.0-17.0-2.7,63197,List2A,black,woman,,,,null,,,,
19484,,,survey-text,278,1815684,0.0-17.0-3.7,63197,List2A,black,woman,,,,,"{""Q0"":""mike and luke are talking to each other""}","<img src=""stim_listA/talk5.gif""</stim_listA>",is talking to,
null,"<div style=""font-size:60px;"">+</div>",,html-keyboard-response,279,1816189,0.0-17.0-0.8,63197,List2A,black,woman,,,,null,,,,
null,"<img src=""stim_listA/touch6.gif""</stim_listA>",,html-keyboard-response,280,1818196,0.0-17.0-1.8,63197,List2A,black,woman,,,,null,,,,
null,are touching each other,,html-keyboard-response,281,1820198,0.0-17.0-2.8,63197,List2A,black,woman,,,,null,,,,
16300,,,survey-text,282,1836500,0.0-17.0-3.8,63197,List2A,black,woman,,,,,"{""Q0"":""luke and fred are touching each other""}","<img src=""stim_listA/touch6.gif""</stim_listA>",are touching each other,
null,"<div style=""font-size:60px;"">+</div>",,html-keyboard-response,283,1837009,0.0-17.0-0.9,63197,List2A,black,woman,,,,null,,,,
null,"<img src=""stim_listA/hug6.gif""</stim_listA>",,html-keyboard-response,284,1839021,0.0-17.0-1.9,63197,List2A,black,woman,,,,null,,,,
null,are hugging each other,,html-keyboard-response,285,1841022,0.0-17.0-2.9,63197,List2A,black,woman,,,,null,,,,
19479,,,survey-text,286,1860502,0.0-17.0-3.9,63197,List2A,black,woman,,,,,"{""Q0"":""mike and dave are hugging each other""}","<img src=""stim_listA/hug6.gif""</stim_listA>",are hugging each other,
null,"<div style=""font-size:60px;"">+</div>",,html-keyboard-response,287,1861007,0.0-17.0-0.10,63197,List2A,black,woman,,,,null,,,,
null,"<img src=""stim_listA/meet6.gif""</stim_listA>",,html-keyboard-response,288,1863016,0.0-17.0-1.10,63197,List2A,black,woman,,,,null,,,,
null,are meeting each other,,html-keyboard-response,289,1865024,0.0-17.0-2.10,63197,List2A,black,woman,,,,null,,,,
24725,,,survey-text,290,1889750,0.0-17.0-3.10,63197,List2A,black,woman,,,,,"{""Q0"":""fred and dave are talking to each other""}","<img src=""stim_listA/meet6.gif""</stim_listA>",are meeting each other,
null,"<div style=""font-size:60px;"">+</div>",,html-keyboard-response,291,1890256,0.0-17.0-0.11,63197,List2A,black,woman,,,,null,,,,
null,"<img src=""stim_listA/touch4.gif""</stim_listA>",,html-keyboard-response,292,1892271,0.0-17.0-1.11,63197,List2A,black,woman,,,,null,,,,
null,are touching each other,,html-keyboard-response,293,1894277,0.0-17.0-2.11,63197,List2A,black,woman,,,,null,,,,
15317,,,survey-text,294,1909594,0.0-17.0-3.11,63197,List2A,black,woman,,,,,"{""Q0"":""fred and beth are touching each other""}","<img src=""stim_listA/touch4.gif""</stim_listA>",are touching each other,
null,"<div style=""font-size:60px;"">+</div>",,html-keyboard-response,295,1910104,0.0-17.0-0.12,63197,List2A,black,woman,,,,null,,,,
null,"<img src=""stim_listA/touch3.gif""</stim_listA>",,html-keyboard-response,296,1912121,0.0-17.0-1.12,63197,List2A,black,woman,,,,null,,,,
null,is touching,,html-keyboard-response,297,1914122,0.0-17.0-2.12,63197,List2A,black,woman,,,,null,,,,
10752,,,survey-text,298,1924874,0.0-17.0-3.12,63197,List2A,black,woman,,,,,"{""Q0"":""mike is touching kate""}","<img src=""stim_listA/touch3.gif""</stim_listA>",is touching,
null,"<div style=""font-size:60px;"">+</div>",,html-keyboard-response,299,1925382,0.0-17.0-0.13,63197,List2A,black,woman,,,,null,,,,
null,"<img src=""stim_listA/touch1.gif""</stim_listA>",,html-keyboard-response,300,1927392,0.0-17.0-1.13,63197,List2A,black,woman,,,,null,,,,
null,is touching,,html-keyboard-response,301,1929397,0.0-17.0-2.13,63197,List2A,black,woman,,,,null,,,,
7189,,,survey-text,302,1936586,0.0-17.0-3.13,63197,List2A,black,woman,,,,,"{""Q0"":""jane is touching dave""}","<img src=""stim_listA/touch1.gif""</stim_listA>",is touching,
null,"<div style=""font-size:60px;"">+</div>",,html-keyboard-response,303,1937101,0.0-17.0-0.14,63197,List2A,black,woman,,,,null,,,,
null,"<img src=""stim_listA/fight2.gif""</stim_listA>",,html-keyboard-response,304,1939104,0.0-17.0-1.14,63197,List2A,black,woman,,,,null,,,,
null,are fighting each other,,html-keyboard-response,305,1941117,0.0-17.0-2.14,63197,List2A,black,woman,,,,null,,,,
21443,,,survey-text,306,1962562,0.0-17.0-3.14,63197,List2A,black,woman,,,,,"{""Q0"":""jane and dave are fighting each other""}","<img src=""stim_listA/fight2.gif""</stim_listA>",are fighting each other,
null,"<div style=""font-size:60px;"">+</div>",,html-keyboard-response,307,1963063,0.0-17.0-0.15,63197,List2A,black,woman,,,,null,,,,
null,"<img src=""stim_listA/touch7.gif""</stim_listA>",,html-keyboard-response,308,1965066,0.0-17.0-1.15,63197,List2A,black,woman,,,,null,,,,
null,is touching,,html-keyboard-response,309,1967081,0.0-17.0-2.15,63197,List2A,black,woman,,,,null,,,,
9158,,,survey-text,310,1976241,0.0-17.0-3.15,63197,List2A,black,woman,,,,,"{""Q0"":""jane is touching kate""}","<img src=""stim_listA/touch7.gif""</stim_listA>",is touching,
null,"<div style=""font-size:60px;"">+</div>",,html-keyboard-response,311,1976748,0.0-17.0-0.16,63197,List2A,black,woman,,,,null,,,,
null,"<img src=""stim_listA/touch8.gif""</stim_listA>",,html-keyboard-response,312,1978755,0.0-17.0-1.16,63197,List2A,black,woman,,,,null,,,,
null,are touching each other,,html-keyboard-response,313,1980756,0.0-17.0-2.16,63197,List2A,black,woman,,,,null,,,,
35419,,,survey-text,314,2016176,0.0-17.0-3.16,63197,List2A,black,woman,,,,,"{""Q0"":""beth and ruth are touching each other""}","<img src=""stim_listA/touch8.gif""</stim_listA>",are touching each other,
null,"<div style=""font-size:60px;"">+</div>",,html-keyboard-response,315,2016689,0.0-17.0-0.17,63197,List2A,black,woman,,,,null,,,,
null,"<img src=""stim_listA/argue5.gif""</stim_listA>",,html-keyboard-response,316,2018700,0.0-17.0-1.17,63197,List2A,black,woman,,,,null,,,,
null,is arguing with,,html-keyboard-response,317,2020715,0.0-17.0-2.17,63197,List2A,black,woman,,,,null,,,,
17291,,,survey-text,318,2038008,0.0-17.0-3.17,63197,List2A,black,woman,,,,,"{""Q0"":""fred and dave are arguing with each other""}","<img src=""stim_listA/argue5.gif""</stim_listA>",is arguing with,
null,"<div style=""font-size:60px;"">+</div>",,html-keyboard-response,319,2038514,0.0-17.0-0.18,63197,List2A,black,woman,,,,null,,,,
null,"<img src=""stim_listA/hug4.gif""</stim_listA>",,html-keyboard-response,320,2040530,0.0-17.0-1.18,63197,List2A,black,woman,,,,null,,,,
null,are hugging each other,,html-keyboard-response,321,2042531,0.0-17.0-2.18,63197,List2A,black,woman,,,,null,,,,
13859,,,survey-text,322,2056391,0.0-17.0-3.18,63197,List2A,black,woman,,,,,"{""Q0"":""mike and kate are hugging each other""}","<img src=""stim_listA/hug4.gif""</stim_listA>",are hugging each other,
null,"<div style=""font-size:60px;"">+</div>",,html-keyboard-response,323,2056907,0.0-17.0-0.19,63197,List2A,black,woman,,,,null,,,,
null,"<img src=""stim_listA/hug1.gif""</stim_listA>",,html-keyboard-response,324,2058922,0.0-17.0-1.19,63197,List2A,black,woman,,,,null,,,,
null,is hugging,,html-keyboard-response,325,2060937,0.0-17.0-2.19,63197,List2A,black,woman,,,,null,,,,
17117,,,survey-text,326,2078055,0.0-17.0-3.19,63197,List2A,black,woman,,,,,"{""Q0"":""jane is hugging luke""}","<img src=""stim_listA/hug1.gif""</stim_listA>",is hugging,
2838,"<img src='img/portrait_matrix_list2.JPG' style='width:900px;height:500px;''></img><p>If you have memorised all the portraits and names and are ready to start, press Continue.</p><p><strong>Please note: Your memory of these faces will be tested 4 times during this experiment.</strong></p>",0,html-button-response,327,2080895,0.0-18.0-0.0,63197,List2A,black,woman,,,,,,,,
1726,"<img src=""portrait/WM2.jpg""style=""width:400px;height:400px;""></img>",7,html-button-response,328,2083631,0.0-18.0-1.0,63197,List2A,black,woman,,TRUE,7,,,,,
null,CORRECT,,html-keyboard-response,329,2085140,0.0-18.0-2.0-0.0,63197,List2A,black,woman,,,,null,,,,
1433,"<img src=""portrait/BM2.jpg""style=""width:400px;height:400px;""></img>",5,html-button-response,330,2086575,0.0-18.0-4.0,63197,List2A,black,woman,,TRUE,5,,,,,
null,CORRECT,,html-keyboard-response,331,2088099,0.0-18.0-5.0-0.0,63197,List2A,black,woman,,,,null,,,,
1958,"<img src=""portrait/WM1.jpg""style=""width:400px;height:400px;""></img>",6,html-button-response,332,2090057,0.0-18.0-7.0,63197,List2A,black,woman,,TRUE,6,,,,,
null,CORRECT,,html-keyboard-response,333,2091576,0.0-18.0-8.0-0.0,63197,List2A,black,woman,,,,null,,,,
9472,"<img src=""portrait/BM1.jpg""style=""width:400px;height:400px;""></img>",4,html-button-response,334,2101049,0.0-18.0-10.0,63197,List2A,black,woman,,TRUE,4,,,,,
null,CORRECT,,html-keyboard-response,335,2102577,0.0-18.0-11.0-0.0,63197,List2A,black,woman,,,,null,,,,
3967,"<img src=""portrait/WW1.jpg""style=""width:400px;height:400px;""></img>",1,html-button-response,336,2106545,0.0-18.0-13.0,63197,List2A,black,woman,,TRUE,1,,,,,
null,CORRECT,,html-keyboard-response,337,2108062,0.0-18.0-14.0-0.0,63197,List2A,black,woman,,,,null,,,,
1330,"<img src=""portrait/BW2.jpg""style=""width:400px;height:400px;""></img>",2,html-button-response,338,2109393,0.0-18.0-16.0,63197,List2A,black,woman,,TRUE,2,,,,,
null,CORRECT,,html-keyboard-response,339,2110924,0.0-18.0-17.0-0.0,63197,List2A,black,woman,,,,null,,,,
1132,"<img src=""portrait/BW1.jpg""style=""width:400px;height:400px;""></img>",0,html-button-response,340,2112057,0.0-18.0-19.0,63197,List2A,black,woman,,TRUE,0,,,,,
null,CORRECT,,html-keyboard-response,341,2113559,0.0-18.0-20.0-0.0,63197,List2A,black,woman,,,,null,,,,
1658,"<img src=""portrait/WW2.jpg""style=""width:400px;height:400px;""></img>",3,html-button-response,342,2115218,0.0-18.0-22.0,63197,List2A,black,woman,,TRUE,3,,,,,
null,CORRECT,,html-keyboard-response,343,2116732,0.0-18.0-23.0-0.0,63197,List2A,black,woman,,,,null,,,,
3444,<p>You got 8 out of 8 right first time. Press Continue.</p>,0,html-button-response,344,2120177,0.0-18.0-25.0,63197,List2A,black,woman,,,,,,,,
null,"<div style=""font-size:60px;"">+</div>",,html-keyboard-response,345,2121683,0.0-19.0-0.0,63197,List2A,black,woman,,,,null,,,,
null,"<img src=""stim_listA/fight6.gif""</stim_listA>",,html-keyboard-response,346,2123699,0.0-19.0-1.0,63197,List2A,black,woman,,,,null,,,,
null,are fighting each other,,html-keyboard-response,347,2125700,0.0-19.0-2.0,63197,List2A,black,woman,,,,null,,,,
14517,,,survey-text,348,2140218,0.0-19.0-3.0,63197,List2A,black,woman,,,,,"{""Q0"":""luke annd fred are fighting each other""}","<img src=""stim_listA/fight6.gif""</stim_listA>",are fighting each other,
null,"<div style=""font-size:60px;"">+</div>",,html-keyboard-response,349,2140733,0.0-19.0-0.1,63197,List2A,black,woman,,,,null,,,,
null,"<img src=""stim_listA/meet5.gif""</stim_listA>",,html-keyboard-response,350,2142737,0.0-19.0-1.1,63197,List2A,black,woman,,,,null,,,,
null,is meeting,,html-keyboard-response,351,2144751,0.0-19.0-2.1,63197,List2A,black,woman,,,,null,,,,
7503,,,survey-text,352,2152254,0.0-19.0-3.1,63197,List2A,black,woman,,,,,"{""Q0"":""mike is meeting dave""}","<img src=""stim_listA/meet5.gif""</stim_listA>",is meeting,
null,"<div style=""font-size:60px;"">+</div>",,html-keyboard-response,353,2152768,0.0-19.0-0.2,63197,List2A,black,woman,,,,null,,,,
null,"<img src=""stim_listA/shout3.gif""</stim_listA>",,html-keyboard-response,354,2154772,0.0-19.0-1.2,63197,List2A,black,woman,,,,null,,,,
null,is shouting at,,html-keyboard-response,355,2156785,0.0-19.0-2.2,63197,List2A,black,woman,,,,null,,,,
9581,,,survey-text,356,2166366,0.0-19.0-3.2,63197,List2A,black,woman,,,,,"{""Q0"":""beth is shouting at fred""}","<img src=""stim_listA/shout3.gif""</stim_listA>",is shouting at,
null,"<div style=""font-size:60px;"">+</div>",,html-keyboard-response,357,2166879,0.0-19.0-0.3,63197,List2A,black,woman,,,,null,,,,
null,"<img src=""stim_listA/meet4.gif""</stim_listA>",,html-keyboard-response,358,2168883,0.0-19.0-1.3,63197,List2A,black,woman,,,,null,,,,
null,are meeting each other,,html-keyboard-response,359,2170898,0.0-19.0-2.3,63197,List2A,black,woman,,,,null,,,,
15132,,,survey-text,360,2186030,0.0-19.0-3.3,63197,List2A,black,woman,,,,,"{""Q0"":""fred and beth are meeting each other""}","<img src=""stim_listA/meet4.gif""</stim_listA>",are meeting each other,
null,"<div style=""font-size:60px;"">+</div>",,html-keyboard-response,361,2186537,0.0-19.0-0.4,63197,List2A,black,woman,,,,null,,,,
null,"<img src=""stim_listA/kiss2.gif""</stim_listA>",,html-keyboard-response,362,2188543,0.0-19.0-1.4,63197,List2A,black,woman,,,,null,,,,
null,are kissing each other,,html-keyboard-response,363,2190557,0.0-19.0-2.4,63197,List2A,black,woman,,,,null,,,,
18948,,,survey-text,364,2209506,0.0-19.0-3.4,63197,List2A,black,woman,,,,,"{""Q0"":""dave and jane are kissing each other""}","<img src=""stim_listA/kiss2.gif""</stim_listA>",are kissing each other,
null,"<div style=""font-size:60px;"">+</div>",,html-keyboard-response,365,2210020,0.0-19.0-0.5,63197,List2A,black,woman,,,,null,,,,
null,"<img src=""stim_listA/marry6.gif""</stim_listA>",,html-keyboard-response,366,2212023,0.0-19.0-1.5,63197,List2A,black,woman,,,,null,,,,
null,are marrying each other,,html-keyboard-response,367,2214037,0.0-19.0-2.5,63197,List2A,black,woman,,,,null,,,,
18284,,,survey-text,368,2232322,0.0-19.0-3.5,63197,List2A,black,woman,,,,,"{""Q0"":""luke and mike are marrying each other""}","<img src=""stim_listA/marry6.gif""</stim_listA>",are marrying each other,
null,"<div style=""font-size:60px;"">+</div>",,html-keyboard-response,369,2232828,0.0-19.0-0.6,63197,List2A,black,woman,,,,null,,,,
null,"<img src=""stim_listA/touch2.gif""</stim_listA>",,html-keyboard-response,370,2234839,0.0-19.0-1.6,63197,List2A,black,woman,,,,null,,,,
null,are touching each other,,html-keyboard-response,371,2236850,0.0-19.0-2.6,63197,List2A,black,woman,,,,null,,,,
18247,,,survey-text,372,2255097,0.0-19.0-3.6,63197,List2A,black,woman,,,,,"{""Q0"":""luke and ruth are touching each other""}","<img src=""stim_listA/touch2.gif""</stim_listA>",are touching each other,
null,"<div style=""font-size:60px;"">+</div>",,html-keyboard-response,373,2255599,0.0-19.0-0.7,63197,List2A,black,woman,,,,null,,,,
null,"<img src=""stim_listA/marry3.gif""</stim_listA>",,html-keyboard-response,374,2257612,0.0-19.0-1.7,63197,List2A,black,woman,,,,null,,,,
null,is marrying,,html-keyboard-response,375,2259627,0.0-19.0-2.7,63197,List2A,black,woman,,,,null,,,,
14056,,,survey-text,376,2273685,0.0-19.0-3.7,63197,List2A,black,woman,,,,,"{""Q0"":""beth is marrying mike""}","<img src=""stim_listA/marry3.gif""</stim_listA>",is marrying,
null,"<div style=""font-size:60px;"">+</div>",,html-keyboard-response,377,2274199,0.0-19.0-0.8,63197,List2A,black,woman,,,,null,,,,
null,"<img src=""stim_listA/dance6.gif""</stim_listA>",,html-keyboard-response,378,2276202,0.0-19.0-1.8,63197,List2A,black,woman,,,,null,,,,
null,are dancing with each other,,html-keyboard-response,379,2278218,0.0-19.0-2.8,63197,List2A,black,woman,,,,null,,,,
14441,,,survey-text,380,2292661,0.0-19.0-3.8,63197,List2A,black,woman,,,,,"{""Q0"":""dave and fred are dancing with each other""}","<img src=""stim_listA/dance6.gif""</stim_listA>",are dancing with each other,
null,"<div style=""font-size:60px;"">+</div>",,html-keyboard-response,381,2293176,0.0-19.0-0.9,63197,List2A,black,woman,,,,null,,,,
null,"<img src=""stim_listA/marry8.gif""</stim_listA>",,html-keyboard-response,382,2295181,0.0-19.0-1.9,63197,List2A,black,woman,,,,null,,,,
null,are marrying each other,,html-keyboard-response,383,2297196,0.0-19.0-2.9,63197,List2A,black,woman,,,,null,,,,
28296,,,survey-text,384,2325492,0.0-19.0-3.9,63197,List2A,black,woman,,,,,"{""Q0"":""kate and jane are marrying each other""}","<img src=""stim_listA/marry8.gif""</stim_listA>",are marrying each other,
null,"<div style=""font-size:60px;"">+</div>",,html-keyboard-response,385,2325999,0.0-19.0-0.10,63197,List2A,black,woman,,,,null,,,,
null,"<img src=""stim_listA/marry4.gif""</stim_listA>",,html-keyboard-response,386,2328002,0.0-19.0-1.10,63197,List2A,black,woman,,,,null,,,,
null,are marrying each other,,html-keyboard-response,387,2330021,0.0-19.0-2.10,63197,List2A,black,woman,,,,null,,,,
15908,,,survey-text,388,2345929,0.0-19.0-3.10,63197,List2A,black,woman,,,,,"{""Q0"":""kate and fred are marrying each other""}","<img src=""stim_listA/marry4.gif""</stim_listA>",are marrying each other,
null,"<div style=""font-size:60px;"">+</div>",,html-keyboard-response,389,2346432,0.0-19.0-0.11,63197,List2A,black,woman,,,,null,,,,
null,"<img src=""stim_listA/argue8.gif""</stim_listA>",,html-keyboard-response,390,2348435,0.0-19.0-1.11,63197,List2A,black,woman,,,,null,,,,
null,are arguing with each other,,html-keyboard-response,391,2350449,0.0-19.0-2.11,63197,List2A,black,woman,,,,null,,,,
18856,,,survey-text,392,2369305,0.0-19.0-3.11,63197,List2A,black,woman,,,,,"{""Q0"":""kate and jane are arguing with each other""}","<img src=""stim_listA/argue8.gif""</stim_listA>",are arguing with each other,
null,"<div style=""font-size:60px;"">+</div>",,html-keyboard-response,393,2369808,0.0-19.0-0.12,63197,List2A,black,woman,,,,null,,,,
null,"<img src=""stim_listA/kiss4.gif""</stim_listA>",,html-keyboard-response,394,2371810,0.0-19.0-1.12,63197,List2A,black,woman,,,,null,,,,
null,are kissing each other,,html-keyboard-response,395,2373812,0.0-19.0-2.12,63197,List2A,black,woman,,,,null,,,,
18650,,,survey-text,396,2392462,0.0-19.0-3.12,63197,List2A,black,woman,,,,,"{""Q0"":""fred and kate are kissing each other""}","<img src=""stim_listA/kiss4.gif""</stim_listA>",are kissing each other,
null,"<div style=""font-size:60px;"">+</div>",,html-keyboard-response,397,2392972,0.0-19.0-0.13,63197,List2A,black,woman,,,,null,,,,
null,"<img src=""stim_listA/kiss3.gif""</stim_listA>",,html-keyboard-response,398,2394975,0.0-19.0-1.13,63197,List2A,black,woman,,,,null,,,,
null,is kissing,,html-keyboard-response,399,2396990,0.0-19.0-2.13,63197,List2A,black,woman,,,,null,,,,
10831,,,survey-text,400,2407822,0.0-19.0-3.13,63197,List2A,black,woman,,,,,"{""Q0"":""beth is kissing fred""}","<img src=""stim_listA/kiss3.gif""</stim_listA>",is kissing,
null,"<div style=""font-size:60px;"">+</div>",,html-keyboard-response,401,2408332,0.0-19.0-0.14,63197,List2A,black,woman,,,,null,,,,
null,"<img src=""stim_listA/dance4.gif""</stim_listA>",,html-keyboard-response,402,2410334,0.0-19.0-1.14,63197,List2A,black,woman,,,,null,,,,
null,are dancing with each other,,html-keyboard-response,403,2412349,0.0-19.0-2.14,63197,List2A,black,woman,,,,null,,,,
18177,,,survey-text,404,2430526,0.0-19.0-3.14,63197,List2A,black,woman,,,,,"{""Q0"":""beth and mike are dancing with each other""}","<img src=""stim_listA/dance4.gif""</stim_listA>",are dancing with each other,
null,"<div style=""font-size:60px;"">+</div>",,html-keyboard-response,405,2431042,0.0-19.0-0.15,63197,List2A,black,woman,,,,null,,,,
null,"<img src=""stim_listA/marry5.gif""</stim_listA>",,html-keyboard-response,406,2433047,0.0-19.0-1.15,63197,List2A,black,woman,,,,null,,,,
null,is marrying,,html-keyboard-response,407,2435062,0.0-19.0-2.15,63197,List2A,black,woman,,,,null,,,,
8263,,,survey-text,408,2443326,0.0-19.0-3.15,63197,List2A,black,woman,,,,,"{""Q0"":""fred is marrying dave""}","<img src=""stim_listA/marry5.gif""</stim_listA>",is marrying,
null,"<div style=""font-size:60px;"">+</div>",,html-keyboard-response,409,2443839,0.0-19.0-0.16,63197,List2A,black,woman,,,,null,,,,
null,"<img src=""stim_listA/fight7.gif""</stim_listA>",,html-keyboard-response,410,2445845,0.0-19.0-1.16,63197,List2A,black,woman,,,,null,,,,
null,is fighting,,html-keyboard-response,411,2447848,0.0-19.0-2.16,63197,List2A,black,woman,,,,null,,,,
18978,,,survey-text,412,2466827,0.0-19.0-3.16,63197,List2A,black,woman,,,,,"{""Q0"":""kate is fighting jane""}","<img src=""stim_listA/fight7.gif""</stim_listA>",is fighting,
null,"<div style=""font-size:60px;"">+</div>",,html-keyboard-response,413,2467328,0.0-19.0-0.17,63197,List2A,black,woman,,,,null,,,,
null,"<img src=""stim_listA/dance2.gif""</stim_listA>",,html-keyboard-response,414,2469341,0.0-19.0-1.17,63197,List2A,black,woman,,,,null,,,,
null,are dancing with each other,,html-keyboard-response,415,2471342,0.0-19.0-2.17,63197,List2A,black,woman,,,,null,,,,
17580,,,survey-text,416,2488923,0.0-19.0-3.17,63197,List2A,black,woman,,,,,"{""Q0"":""dave and ruth are dancing with each other""}","<img src=""stim_listA/dance2.gif""</stim_listA>",are dancing with each other,
null,"<div style=""font-size:60px;"">+</div>",,html-keyboard-response,417,2489434,0.0-19.0-0.18,63197,List2A,black,woman,,,,null,,,,
null,"<img src=""stim_listA/dance7.gif""</stim_listA>",,html-keyboard-response,418,2491440,0.0-19.0-1.18,63197,List2A,black,woman,,,,null,,,,
null,is dancing with,,html-keyboard-response,419,2493444,0.0-19.0-2.18,63197,List2A,black,woman,,,,null,,,,
13878,,,survey-text,420,2507323,0.0-19.0-3.18,63197,List2A,black,woman,,,,,"{""Q0"":""ruth is dancing with kate""}","<img src=""stim_listA/dance7.gif""</stim_listA>",is dancing with,
null,"<div style=""font-size:60px;"">+</div>",,html-keyboard-response,421,2507831,0.0-19.0-0.19,63197,List2A,black,woman,,,,null,,,,
null,"<img src=""stim_listA/kiss6.gif""</stim_listA>",,html-keyboard-response,422,2509837,0.0-19.0-1.19,63197,List2A,black,woman,,,,null,,,,
null,are kissing each other,,html-keyboard-response,423,2511851,0.0-19.0-2.19,63197,List2A,black,woman,,,,null,,,,
20647,,,survey-text,424,2532499,0.0-19.0-3.19,63197,List2A,black,woman,,,,,"{""Q0"":""dave and mike are kissing each other""}","<img src=""stim_listA/kiss6.gif""</stim_listA>",are kissing each other,
3478,<p>Thank you for completing that task.</p><p>The final part of this session is a short questionnaire.</p><p>Press Continue.</p>,0,html-button-response,425,2535979,0.0-20.0,63197,List2A,black,woman,,,,,,,,
44121,,,survey-text,426,2581103,0.0-21.0,63197,List2A,black,woman,,,,,"{""Q0"":""21"",""Q1"":""english"",""Q2"":""english"",""Q3"":""united states"",""Q4"":""black"",""Q5"":""female""}",,,demographics
165336,,,survey-likert,427,2746443,0.0-22.0,63197,List2A,black,woman,,,,,"{""Q0"":5,""Q1"":5,""Q2"":6,""Q3"":6,""Q4"":5,""Q5"":6,""Q6"":5,""Q7"":2,""Q8"":4,""Q9"":4,""Q10"":4,""Q11"":4,""Q12"":5,""Q13"":5}",,,likert_race
54709,,,survey-likert,428,2801156,0.0-23.0,63197,List2A,black,woman,,,,,"{""Q0"":5,""Q1"":5,""Q2"":5,""Q3"":5,""Q4"":5,""Q5"":5,""Q6"":5,""Q7"":4,""Q8"":5,""Q9"":5,""Q10"":4,""Q11"":4,""Q12"":"""",""Q13"":5}",,,likert_gender
12164,,,survey-text,429,2813321,0.0-24.0,63197,List2A,black,woman,,,,,"{""Q0"":""ccc""}",,,worker_id
35206,,,external-html,430,2848993,0.0-25.0,63197,List2A,black,woman,debrief.html,,,,,,,
