rt,stimulus,button_pressed,trial_type,trial_index,time_elapsed,internal_node_id,subject,list,ppt_race,ppt_gender,url,first_guess,correct,key_press,responses,image_type,phrase_type,test_part
1846,Welcome to the experiment. Press Continue to begin.,0,html-button-response,0,1858,0.0-0.0,63541,List2A,white,woman,,,,,,,,
30541,,,external-html,1,33474,0.0-1.0,63541,List2A,white,woman,consent.html,,,,,,,
9348,"<p>On the next page, you will see portraits of 8 people and their names.</p><p>Your first task is to take a few minutes to memorise the names of these people.</p><p>You will have to recall their names during the rest of the experiment, so it is</p><p>essential that you try to memorise these people and their names as best as you can.</p><br><p><strong>You will then be tested on your memory of these names and portraits.</strong></p><br><p>The experiment will start after you have completed this memory test.</p><br><p>Ready?</p>",0,html-button-response,2,42831,0.0-2.0,63541,List2A,white,woman,,,,,,,,
81652,"<img src='img/portrait_matrix_list2.JPG' style='width:900px;height:500px;''></img><p>If you have memorised all the portraits and names and are ready to start, press Continue.</p><p><strong>Please note: Your memory of these faces will be tested 4 times during this experiment.</strong></p>",0,html-button-response,3,125488,0.0-3.0-0.0,63541,List2A,white,woman,,,,,,,,
2889,"<img src=""portrait/BM1.jpg""style=""width:400px;height:400px;""></img>",4,html-button-response,4,129385,0.0-3.0-1.0,63541,List2A,white,woman,,TRUE,4,,,,,
null,CORRECT,,html-keyboard-response,5,130891,0.0-3.0-2.0-0.0,63541,List2A,white,woman,,,,null,,,,
3141,"<img src=""portrait/BW1.jpg""style=""width:400px;height:400px;""></img>",0,html-button-response,6,134039,0.0-3.0-4.0,63541,List2A,white,woman,,TRUE,0,,,,,
null,CORRECT,,html-keyboard-response,7,135549,0.0-3.0-5.0-0.0,63541,List2A,white,woman,,,,null,,,,
3803,"<img src=""portrait/WM2.jpg""style=""width:400px;height:400px;""></img>",7,html-button-response,8,139357,0.0-3.0-7.0,63541,List2A,white,woman,,TRUE,7,,,,,
null,CORRECT,,html-keyboard-response,9,140860,0.0-3.0-8.0-0.0,63541,List2A,white,woman,,,,null,,,,
1753,"<img src=""portrait/WM1.jpg""style=""width:400px;height:400px;""></img>",6,html-button-response,10,142618,0.0-3.0-10.0,63541,List2A,white,woman,,TRUE,6,,,,,
null,CORRECT,,html-keyboard-response,11,144122,0.0-3.0-11.0-0.0,63541,List2A,white,woman,,,,null,,,,
2375,"<img src=""portrait/WW1.jpg""style=""width:400px;height:400px;""></img>",1,html-button-response,12,146503,0.0-3.0-13.0,63541,List2A,white,woman,,TRUE,1,,,,,
null,CORRECT,,html-keyboard-response,13,148007,0.0-3.0-14.0-0.0,63541,List2A,white,woman,,,,null,,,,
2157,"<img src=""portrait/BM2.jpg""style=""width:400px;height:400px;""></img>",5,html-button-response,14,150168,0.0-3.0-16.0,63541,List2A,white,woman,,TRUE,5,,,,,
null,CORRECT,,html-keyboard-response,15,151672,0.0-3.0-17.0-0.0,63541,List2A,white,woman,,,,null,,,,
4104,"<img src=""portrait/WW2.jpg""style=""width:400px;height:400px;""></img>",3,html-button-response,16,155781,0.0-3.0-19.0,63541,List2A,white,woman,,TRUE,3,,,,,
null,CORRECT,,html-keyboard-response,17,157285,0.0-3.0-20.0-0.0,63541,List2A,white,woman,,,,null,,,,
2109,"<img src=""portrait/BW2.jpg""style=""width:400px;height:400px;""></img>",2,html-button-response,18,159397,0.0-3.0-22.0,63541,List2A,white,woman,,TRUE,2,,,,,
null,CORRECT,,html-keyboard-response,19,160900,0.0-3.0-23.0-0.0,63541,List2A,white,woman,,,,null,,,,
2020,<p>You got 8 out of 8 right first time. Press Continue.</p>,0,html-button-response,20,162925,0.0-3.0-25.0,63541,List2A,white,woman,,,,,,,,
23698,"<p>In this experiment, you will view photographs of the people from the memory game interacting.</p><p>By using the <strong>exact</strong> phrase given <i>after</i> the photograph appears and recalling the correct names of the people in the photographs, form a sentence describing the interaction. You do not need to capitalise names.</p><p>Type your answer in the space provided. Please complete every sentence before moving onto the next trial.</p><p>You will only have a few seconds to memorise each given photograph and phrase before you can respond, so try your best to focus.</p><p>An example is given below. Press 'Continue' when you are ready.</p><img src='img/speaking_example_v2.jpg' style='width:800px;height:460px;''></img>",0,html-button-response,21,187632,0.0-4.0,63541,List2A,white,woman,,,,,,,,
2008,"<p>Before the experiment starts, you will watch two example trials. Press 'Continue'.</p>",0,html-button-response,22,190643,0.0-5.0,63541,List2A,white,woman,,,,,,,,
null,<img src='img/speaking_WW.gif'></img>,,html-keyboard-response,23,193648,0.0-6.0,63541,List2A,white,woman,,,,null,,,,
null,<p>is speaking to</p>,,html-keyboard-response,24,195652,0.0-7.0,63541,List2A,white,woman,,,,null,,,,
1583,<p><b>Answer:</b> jane is speaking to ruth</p>,0,html-button-response,25,197238,0.0-8.0,63541,List2A,white,woman,,,,,,,,
null,<img src='img/pointing_BM.gif'></img>,,html-keyboard-response,26,200241,0.0-9.0,63541,List2A,white,woman,,,,null,,,,
null,<p>are pointing at each other</p>,,html-keyboard-response,27,202243,0.0-10.0,63541,List2A,white,woman,,,,null,,,,
3988,<p><b>Answer:</b> fred and mike are pointing at each other</p>,0,html-button-response,28,206234,0.0-11.0,63541,List2A,white,woman,,,,,,,,
6673,"<p>Ready to start the experiment?</p><br><p><strong>Remember to describe the picture using a full sentence,</strong></p><p><strong>that combines the names of the people with the given phrase.</strong></p><p><strong>If you do not do this correctly you will not be paid.</strong></p><p><strong> You do not need to capitalise names or use punctuation.</strong></p><br><p>Press 'Continue' to begin.</p>",0,html-button-response,29,213913,0.0-12.0,63541,List2A,white,woman,,,,,,,,
null,"<div style=""font-size:60px;"">+</div>",,html-keyboard-response,30,215418,0.0-13.0-0.0,63541,List2A,white,woman,,,,null,,,,
null,"<img src=""stim_listA/talk2.gif""</stim_listA>",,html-keyboard-response,31,217423,0.0-13.0-1.0,63541,List2A,white,woman,,,,null,,,,
null,are talking to each other,,html-keyboard-response,32,219426,0.0-13.0-2.0,63541,List2A,white,woman,,,,null,,,,
8192,,,survey-text,33,227624,0.0-13.0-3.0,63541,List2A,white,woman,,,,,"{""Q0"":""dave is speaking to ruth""}","<img src=""stim_listA/talk2.gif""</stim_listA>",are talking to each other,
null,"<div style=""font-size:60px;"">+</div>",,html-keyboard-response,34,228131,0.0-13.0-0.1,63541,List2A,white,woman,,,,null,,,,
null,"<img src=""stim_listA/talk6.gif""</stim_listA>",,html-keyboard-response,35,230133,0.0-13.0-1.1,63541,List2A,white,woman,,,,null,,,,
null,are talking to each other,,html-keyboard-response,36,232136,0.0-13.0-2.1,63541,List2A,white,woman,,,,null,,,,
8804,,,survey-text,37,240944,0.0-13.0-3.1,63541,List2A,white,woman,,,,,"{""Q0"":""dave and fred are talking to each other""}","<img src=""stim_listA/talk6.gif""</stim_listA>",are talking to each other,
null,"<div style=""font-size:60px;"">+</div>",,html-keyboard-response,38,241449,0.0-13.0-0.2,63541,List2A,white,woman,,,,null,,,,
null,"<img src=""stim_listA/dance2.gif""</stim_listA>",,html-keyboard-response,39,243453,0.0-13.0-1.2,63541,List2A,white,woman,,,,null,,,,
null,are dancing with each other,,html-keyboard-response,40,245455,0.0-13.0-2.2,63541,List2A,white,woman,,,,null,,,,
11045,,,survey-text,41,256503,0.0-13.0-3.2,63541,List2A,white,woman,,,,,"{""Q0"":""ruth and dave are dancing with each other""}","<img src=""stim_listA/dance2.gif""</stim_listA>",are dancing with each other,
null,"<div style=""font-size:60px;"">+</div>",,html-keyboard-response,42,257007,0.0-13.0-0.3,63541,List2A,white,woman,,,,null,,,,
null,"<img src=""stim_listA/marry6.gif""</stim_listA>",,html-keyboard-response,43,259010,0.0-13.0-1.3,63541,List2A,white,woman,,,,null,,,,
null,are marrying each other,,html-keyboard-response,44,261023,0.0-13.0-2.3,63541,List2A,white,woman,,,,null,,,,
10136,,,survey-text,45,271161,0.0-13.0-3.3,63541,List2A,white,woman,,,,,"{""Q0"":""fred and luke are marrying each other""}","<img src=""stim_listA/marry6.gif""</stim_listA>",are marrying each other,
null,"<div style=""font-size:60px;"">+</div>",,html-keyboard-response,46,271665,0.0-13.0-0.4,63541,List2A,white,woman,,,,null,,,,
null,"<img src=""stim_listA/marry5.gif""</stim_listA>",,html-keyboard-response,47,273669,0.0-13.0-1.4,63541,List2A,white,woman,,,,null,,,,
null,is marrying,,html-keyboard-response,48,275671,0.0-13.0-2.4,63541,List2A,white,woman,,,,null,,,,
8867,,,survey-text,49,284541,0.0-13.0-3.4,63541,List2A,white,woman,,,,,"{""Q0"":""dave is marrying fred""}","<img src=""stim_listA/marry5.gif""</stim_listA>",is marrying,
null,"<div style=""font-size:60px;"">+</div>",,html-keyboard-response,50,285045,0.0-13.0-0.5,63541,List2A,white,woman,,,,null,,,,
null,"<img src=""stim_listA/argue7.gif""</stim_listA>",,html-keyboard-response,51,287049,0.0-13.0-1.5,63541,List2A,white,woman,,,,null,,,,
null,is arguing with,,html-keyboard-response,52,289051,0.0-13.0-2.5,63541,List2A,white,woman,,,,null,,,,
7779,,,survey-text,53,296832,0.0-13.0-3.5,63541,List2A,white,woman,,,,,"{""Q0"":""beth is arguing with jane""}","<img src=""stim_listA/argue7.gif""</stim_listA>",is arguing with,
null,"<div style=""font-size:60px;"">+</div>",,html-keyboard-response,54,297336,0.0-13.0-0.6,63541,List2A,white,woman,,,,null,,,,
null,"<img src=""stim_listA/marry2.gif""</stim_listA>",,html-keyboard-response,55,299341,0.0-13.0-1.6,63541,List2A,white,woman,,,,null,,,,
null,are marrying each other,,html-keyboard-response,56,301344,0.0-13.0-2.6,63541,List2A,white,woman,,,,null,,,,
11327,,,survey-text,57,312675,0.0-13.0-3.6,63541,List2A,white,woman,,,,,"{""Q0"":""jane and luke are marrying each other""}","<img src=""stim_listA/marry2.gif""</stim_listA>",are marrying each other,
null,"<div style=""font-size:60px;"">+</div>",,html-keyboard-response,58,313178,0.0-13.0-0.7,63541,List2A,white,woman,,,,null,,,,
null,"<img src=""stim_listA/fight1.gif""</stim_listA>",,html-keyboard-response,59,315182,0.0-13.0-1.7,63541,List2A,white,woman,,,,null,,,,
null,is fighting,,html-keyboard-response,60,317184,0.0-13.0-2.7,63541,List2A,white,woman,,,,null,,,,
7267,,,survey-text,61,324454,0.0-13.0-3.7,63541,List2A,white,woman,,,,,"{""Q0"":""dave is fighting jane""}","<img src=""stim_listA/fight1.gif""</stim_listA>",is fighting,
null,"<div style=""font-size:60px;"">+</div>",,html-keyboard-response,62,324958,0.0-13.0-0.8,63541,List2A,white,woman,,,,null,,,,
null,"<img src=""stim_listA/kiss5.gif""</stim_listA>",,html-keyboard-response,63,326960,0.0-13.0-1.8,63541,List2A,white,woman,,,,null,,,,
null,is kissing,,html-keyboard-response,64,328962,0.0-13.0-2.8,63541,List2A,white,woman,,,,null,,,,
8494,,,survey-text,65,337459,0.0-13.0-3.8,63541,List2A,white,woman,,,,,"{""Q0"":""luke is kissing fred""}","<img src=""stim_listA/kiss5.gif""</stim_listA>",is kissing,
null,"<div style=""font-size:60px;"">+</div>",,html-keyboard-response,66,337969,0.0-13.0-0.9,63541,List2A,white,woman,,,,null,,,,
null,"<img src=""stim_listA/touch8.gif""</stim_listA>",,html-keyboard-response,67,339973,0.0-13.0-1.9,63541,List2A,white,woman,,,,null,,,,
null,are touching each other,,html-keyboard-response,68,341975,0.0-13.0-2.9,63541,List2A,white,woman,,,,null,,,,
8601,,,survey-text,69,350579,0.0-13.0-3.9,63541,List2A,white,woman,,,,,"{""Q0"":""ruth and beth are touching each other""}","<img src=""stim_listA/touch8.gif""</stim_listA>",are touching each other,
null,"<div style=""font-size:60px;"">+</div>",,html-keyboard-response,70,351082,0.0-13.0-0.10,63541,List2A,white,woman,,,,null,,,,
null,"<img src=""stim_listA/touch5.gif""</stim_listA>",,html-keyboard-response,71,353086,0.0-13.0-1.10,63541,List2A,white,woman,,,,null,,,,
null,is touching,,html-keyboard-response,72,355090,0.0-13.0-2.10,63541,List2A,white,woman,,,,null,,,,
11176,,,survey-text,73,366269,0.0-13.0-3.10,63541,List2A,white,woman,,,,,"{""Q0"":""dave is touching mike""}","<img src=""stim_listA/touch5.gif""</stim_listA>",is touching,
null,"<div style=""font-size:60px;"">+</div>",,html-keyboard-response,74,366772,0.0-13.0-0.11,63541,List2A,white,woman,,,,null,,,,
null,"<img src=""stim_listA/fight4.gif""</stim_listA>",,html-keyboard-response,75,368777,0.0-13.0-1.11,63541,List2A,white,woman,,,,null,,,,
null,are fighting each other,,html-keyboard-response,76,370779,0.0-13.0-2.11,63541,List2A,white,woman,,,,null,,,,
9715,,,survey-text,77,380497,0.0-13.0-3.11,63541,List2A,white,woman,,,,,"{""Q0"":""beth and fred are fighting each other""}","<img src=""stim_listA/fight4.gif""</stim_listA>",are fighting each other,
null,"<div style=""font-size:60px;"">+</div>",,html-keyboard-response,78,381002,0.0-13.0-0.12,63541,List2A,white,woman,,,,null,,,,
null,"<img src=""stim_listA/meet4.gif""</stim_listA>",,html-keyboard-response,79,383007,0.0-13.0-1.12,63541,List2A,white,woman,,,,null,,,,
null,are meeting each other,,html-keyboard-response,80,385009,0.0-13.0-2.12,63541,List2A,white,woman,,,,null,,,,
10183,,,survey-text,81,395195,0.0-13.0-3.12,63541,List2A,white,woman,,,,,"{""Q0"":""beth and fred are meeting each other""}","<img src=""stim_listA/meet4.gif""</stim_listA>",are meeting each other,
null,"<div style=""font-size:60px;"">+</div>",,html-keyboard-response,82,395699,0.0-13.0-0.13,63541,List2A,white,woman,,,,null,,,,
null,"<img src=""stim_listA/talk3.gif""</stim_listA>",,html-keyboard-response,83,397701,0.0-13.0-1.13,63541,List2A,white,woman,,,,null,,,,
null,is talking to,,html-keyboard-response,84,399703,0.0-13.0-2.13,63541,List2A,white,woman,,,,null,,,,
9665,,,survey-text,85,409371,0.0-13.0-3.13,63541,List2A,white,woman,,,,,"{""Q0"":""kate is talking to fred""}","<img src=""stim_listA/talk3.gif""</stim_listA>",is talking to,
null,"<div style=""font-size:60px;"">+</div>",,html-keyboard-response,86,409875,0.0-13.0-0.14,63541,List2A,white,woman,,,,null,,,,
null,"<img src=""stim_listA/meet3.gif""</stim_listA>",,html-keyboard-response,87,411879,0.0-13.0-1.14,63541,List2A,white,woman,,,,null,,,,
null,is meeting,,html-keyboard-response,88,413881,0.0-13.0-2.14,63541,List2A,white,woman,,,,null,,,,
5402,,,survey-text,89,419285,0.0-13.0-3.14,63541,List2A,white,woman,,,,,"{""Q0"":""mike is meeting kate""}","<img src=""stim_listA/meet3.gif""</stim_listA>",is meeting,
null,"<div style=""font-size:60px;"">+</div>",,html-keyboard-response,90,419788,0.0-13.0-0.15,63541,List2A,white,woman,,,,null,,,,
null,"<img src=""stim_listA/shout4.gif""</stim_listA>",,html-keyboard-response,91,421793,0.0-13.0-1.15,63541,List2A,white,woman,,,,null,,,,
null,are shouting at each other,,html-keyboard-response,92,423796,0.0-13.0-2.15,63541,List2A,white,woman,,,,null,,,,
8455,,,survey-text,93,432254,0.0-13.0-3.15,63541,List2A,white,woman,,,,,"{""Q0"":""mike and kate are shouting at each other""}","<img src=""stim_listA/shout4.gif""</stim_listA>",are shouting at each other,
null,"<div style=""font-size:60px;"">+</div>",,html-keyboard-response,94,432758,0.0-13.0-0.16,63541,List2A,white,woman,,,,null,,,,
null,"<img src=""stim_listA/dance7.gif""</stim_listA>",,html-keyboard-response,95,434761,0.0-13.0-1.16,63541,List2A,white,woman,,,,null,,,,
null,is dancing with,,html-keyboard-response,96,436764,0.0-13.0-2.16,63541,List2A,white,woman,,,,null,,,,
7781,,,survey-text,97,444547,0.0-13.0-3.16,63541,List2A,white,woman,,,,,"{""Q0"":""kate is dancing with ruth""}","<img src=""stim_listA/dance7.gif""</stim_listA>",is dancing with,
null,"<div style=""font-size:60px;"">+</div>",,html-keyboard-response,98,445051,0.0-13.0-0.17,63541,List2A,white,woman,,,,null,,,,
null,"<img src=""stim_listA/fight2.gif""</stim_listA>",,html-keyboard-response,99,447055,0.0-13.0-1.17,63541,List2A,white,woman,,,,null,,,,
null,are fighting each other,,html-keyboard-response,100,449058,0.0-13.0-2.17,63541,List2A,white,woman,,,,null,,,,
16988,,,survey-text,101,466048,0.0-13.0-3.17,63541,List2A,white,woman,,,,,"{""Q0"":""ruth and luke are fighting each other""}","<img src=""stim_listA/fight2.gif""</stim_listA>",are fighting each other,
null,"<div style=""font-size:60px;"">+</div>",,html-keyboard-response,102,466551,0.0-13.0-0.18,63541,List2A,white,woman,,,,null,,,,
null,"<img src=""stim_listA/dance4.gif""</stim_listA>",,html-keyboard-response,103,468555,0.0-13.0-1.18,63541,List2A,white,woman,,,,null,,,,
null,are dancing with each other,,html-keyboard-response,104,470558,0.0-13.0-2.18,63541,List2A,white,woman,,,,null,,,,
9036,,,survey-text,105,479597,0.0-13.0-3.18,63541,List2A,white,woman,,,,,"{""Q0"":""beth and mike are dancing with each other""}","<img src=""stim_listA/dance4.gif""</stim_listA>",are dancing with each other,
null,"<div style=""font-size:60px;"">+</div>",,html-keyboard-response,106,480100,0.0-13.0-0.19,63541,List2A,white,woman,,,,null,,,,
null,"<img src=""stim_listA/meet5.gif""</stim_listA>",,html-keyboard-response,107,482104,0.0-13.0-1.19,63541,List2A,white,woman,,,,null,,,,
null,is meeting,,html-keyboard-response,108,484106,0.0-13.0-2.19,63541,List2A,white,woman,,,,null,,,,
4974,,,survey-text,109,489083,0.0-13.0-3.19,63541,List2A,white,woman,,,,,"{""Q0"":""dave is meeting mike""}","<img src=""stim_listA/meet5.gif""</stim_listA>",is meeting,
11979,"<img src='img/portrait_matrix_list2.JPG' style='width:900px;height:500px;''></img><p>If you have memorised all the portraits and names and are ready to start, press Continue.</p><p><strong>Please note: Your memory of these faces will be tested 4 times during this experiment.</strong></p>",0,html-button-response,110,501066,0.0-14.0-0.0,63541,List2A,white,woman,,,,,,,,
4866,"<img src=""portrait/WM2.jpg""style=""width:400px;height:400px;""></img>",7,html-button-response,111,506941,0.0-14.0-1.0,63541,List2A,white,woman,,TRUE,7,,,,,
null,CORRECT,,html-keyboard-response,112,508447,0.0-14.0-2.0-0.0,63541,List2A,white,woman,,,,null,,,,
2066,"<img src=""portrait/WW2.jpg""style=""width:400px;height:400px;""></img>",3,html-button-response,113,510519,0.0-14.0-4.0,63541,List2A,white,woman,,TRUE,3,,,,,
null,CORRECT,,html-keyboard-response,114,512024,0.0-14.0-5.0-0.0,63541,List2A,white,woman,,,,null,,,,
1641,"<img src=""portrait/WW1.jpg""style=""width:400px;height:400px;""></img>",1,html-button-response,115,513670,0.0-14.0-7.0,63541,List2A,white,woman,,TRUE,1,,,,,
null,CORRECT,,html-keyboard-response,116,515174,0.0-14.0-8.0-0.0,63541,List2A,white,woman,,,,null,,,,
1883,"<img src=""portrait/WM1.jpg""style=""width:400px;height:400px;""></img>",6,html-button-response,117,517063,0.0-14.0-10.0,63541,List2A,white,woman,,TRUE,6,,,,,
null,CORRECT,,html-keyboard-response,118,518567,0.0-14.0-11.0-0.0,63541,List2A,white,woman,,,,null,,,,
1801,"<img src=""portrait/BW1.jpg""style=""width:400px;height:400px;""></img>",0,html-button-response,119,520372,0.0-14.0-13.0,63541,List2A,white,woman,,TRUE,0,,,,,
null,CORRECT,,html-keyboard-response,120,521876,0.0-14.0-14.0-0.0,63541,List2A,white,woman,,,,null,,,,
1552,"<img src=""portrait/BM2.jpg""style=""width:400px;height:400px;""></img>",5,html-button-response,121,523434,0.0-14.0-16.0,63541,List2A,white,woman,,TRUE,5,,,,,
null,CORRECT,,html-keyboard-response,122,524937,0.0-14.0-17.0-0.0,63541,List2A,white,woman,,,,null,,,,
1450,"<img src=""portrait/BM1.jpg""style=""width:400px;height:400px;""></img>",4,html-button-response,123,526393,0.0-14.0-19.0,63541,List2A,white,woman,,TRUE,4,,,,,
null,CORRECT,,html-keyboard-response,124,527898,0.0-14.0-20.0-0.0,63541,List2A,white,woman,,,,null,,,,
4129,"<img src=""portrait/BW2.jpg""style=""width:400px;height:400px;""></img>",2,html-button-response,125,532031,0.0-14.0-22.0,63541,List2A,white,woman,,TRUE,2,,,,,
null,CORRECT,,html-keyboard-response,126,533536,0.0-14.0-23.0-0.0,63541,List2A,white,woman,,,,null,,,,
1185,<p>You got 8 out of 8 right first time. Press Continue.</p>,0,html-button-response,127,534725,0.0-14.0-25.0,63541,List2A,white,woman,,,,,,,,
null,"<div style=""font-size:60px;"">+</div>",,html-keyboard-response,128,536230,0.0-15.0-0.0,63541,List2A,white,woman,,,,null,,,,
null,"<img src=""stim_listA/talk5.gif""</stim_listA>",,html-keyboard-response,129,538235,0.0-15.0-1.0,63541,List2A,white,woman,,,,null,,,,
null,is talking to,,html-keyboard-response,130,540237,0.0-15.0-2.0,63541,List2A,white,woman,,,,null,,,,
5078,,,survey-text,131,545318,0.0-15.0-3.0,63541,List2A,white,woman,,,,,"{""Q0"":""luke is talking to mike""}","<img src=""stim_listA/talk5.gif""</stim_listA>",is talking to,
null,"<div style=""font-size:60px;"">+</div>",,html-keyboard-response,132,545823,0.0-15.0-0.1,63541,List2A,white,woman,,,,null,,,,
null,"<img src=""stim_listA/touch1.gif""</stim_listA>",,html-keyboard-response,133,547826,0.0-15.0-1.1,63541,List2A,white,woman,,,,null,,,,
null,is touching,,html-keyboard-response,134,549828,0.0-15.0-2.1,63541,List2A,white,woman,,,,null,,,,
6979,,,survey-text,135,556808,0.0-15.0-3.1,63541,List2A,white,woman,,,,,"{""Q0"":""dave is touching jane""}","<img src=""stim_listA/touch1.gif""</stim_listA>",is touching,
null,"<div style=""font-size:60px;"">+</div>",,html-keyboard-response,136,557311,0.0-15.0-0.2,63541,List2A,white,woman,,,,null,,,,
null,"<img src=""stim_listA/kiss1.gif""</stim_listA>",,html-keyboard-response,137,559315,0.0-15.0-1.2,63541,List2A,white,woman,,,,null,,,,
null,is kissing,,html-keyboard-response,138,561318,0.0-15.0-2.2,63541,List2A,white,woman,,,,null,,,,
5761,,,survey-text,139,567081,0.0-15.0-3.2,63541,List2A,white,woman,,,,,"{""Q0"":""luke is kissing ruth""}","<img src=""stim_listA/kiss1.gif""</stim_listA>",is kissing,
null,"<div style=""font-size:60px;"">+</div>",,html-keyboard-response,140,567586,0.0-15.0-0.3,63541,List2A,white,woman,,,,null,,,,
null,"<img src=""stim_listA/kiss3.gif""</stim_listA>",,html-keyboard-response,141,569592,0.0-15.0-1.3,63541,List2A,white,woman,,,,null,,,,
null,is kissing,,html-keyboard-response,142,571594,0.0-15.0-2.3,63541,List2A,white,woman,,,,null,,,,
4724,,,survey-text,143,576321,0.0-15.0-3.3,63541,List2A,white,woman,,,,,"{""Q0"":""beth is kissing fred""}","<img src=""stim_listA/kiss3.gif""</stim_listA>",is kissing,
null,"<div style=""font-size:60px;"">+</div>",,html-keyboard-response,144,576825,0.0-15.0-0.4,63541,List2A,white,woman,,,,null,,,,
null,"<img src=""stim_listA/marry1.gif""</stim_listA>",,html-keyboard-response,145,578828,0.0-15.0-1.4,63541,List2A,white,woman,,,,null,,,,
null,is marrying,,html-keyboard-response,146,580831,0.0-15.0-2.4,63541,List2A,white,woman,,,,null,,,,
7173,,,survey-text,147,588007,0.0-15.0-3.4,63541,List2A,white,woman,,,,,"{""Q0"":""dave is marrying ruth""}","<img src=""stim_listA/marry1.gif""</stim_listA>",is marrying,
null,"<div style=""font-size:60px;"">+</div>",,html-keyboard-response,148,588511,0.0-15.0-0.5,63541,List2A,white,woman,,,,null,,,,
null,"<img src=""stim_listA/shout3.gif""</stim_listA>",,html-keyboard-response,149,590516,0.0-15.0-1.5,63541,List2A,white,woman,,,,null,,,,
null,is shouting at,,html-keyboard-response,150,592519,0.0-15.0-2.5,63541,List2A,white,woman,,,,null,,,,
5897,,,survey-text,151,598418,0.0-15.0-3.5,63541,List2A,white,woman,,,,,"{""Q0"":""fred is shouting at beth""}","<img src=""stim_listA/shout3.gif""</stim_listA>",is shouting at,
null,"<div style=""font-size:60px;"">+</div>",,html-keyboard-response,152,598922,0.0-15.0-0.6,63541,List2A,white,woman,,,,null,,,,
null,"<img src=""stim_listA/talk1.gif""</stim_listA>",,html-keyboard-response,153,600927,0.0-15.0-1.6,63541,List2A,white,woman,,,,null,,,,
null,is talking to,,html-keyboard-response,154,602929,0.0-15.0-2.6,63541,List2A,white,woman,,,,null,,,,
5267,,,survey-text,155,608198,0.0-15.0-3.6,63541,List2A,white,woman,,,,,"{""Q0"":""luke is talking to jane""}","<img src=""stim_listA/talk1.gif""</stim_listA>",is talking to,
null,"<div style=""font-size:60px;"">+</div>",,html-keyboard-response,156,608701,0.0-15.0-0.7,63541,List2A,white,woman,,,,null,,,,
null,"<img src=""stim_listA/kiss2.gif""</stim_listA>",,html-keyboard-response,157,610704,0.0-15.0-1.7,63541,List2A,white,woman,,,,null,,,,
null,are kissing each other,,html-keyboard-response,158,612708,0.0-15.0-2.7,63541,List2A,white,woman,,,,null,,,,
6891,,,survey-text,159,619601,0.0-15.0-3.7,63541,List2A,white,woman,,,,,"{""Q0"":""dave and jane are kissing each other""}","<img src=""stim_listA/kiss2.gif""</stim_listA>",are kissing each other,
null,"<div style=""font-size:60px;"">+</div>",,html-keyboard-response,160,620105,0.0-15.0-0.8,63541,List2A,white,woman,,,,null,,,,
null,"<img src=""stim_listA/touch6.gif""</stim_listA>",,html-keyboard-response,161,622110,0.0-15.0-1.8,63541,List2A,white,woman,,,,null,,,,
null,are touching each other,,html-keyboard-response,162,624112,0.0-15.0-2.8,63541,List2A,white,woman,,,,null,,,,
8112,,,survey-text,163,632227,0.0-15.0-3.8,63541,List2A,white,woman,,,,,"{""Q0"":""fred and luke are touching each other""}","<img src=""stim_listA/touch6.gif""</stim_listA>",are touching each other,
null,"<div style=""font-size:60px;"">+</div>",,html-keyboard-response,164,632731,0.0-15.0-0.9,63541,List2A,white,woman,,,,null,,,,
null,"<img src=""stim_listA/hug2.gif""</stim_listA>",,html-keyboard-response,165,634736,0.0-15.0-1.9,63541,List2A,white,woman,,,,null,,,,
null,are hugging each other,,html-keyboard-response,166,636739,0.0-15.0-2.9,63541,List2A,white,woman,,,,null,,,,
9441,,,survey-text,167,646183,0.0-15.0-3.9,63541,List2A,white,woman,,,,,"{""Q0"":""dave and jane are hugging each other""}","<img src=""stim_listA/hug2.gif""</stim_listA>",are hugging each other,
null,"<div style=""font-size:60px;"">+</div>",,html-keyboard-response,168,646686,0.0-15.0-0.10,63541,List2A,white,woman,,,,null,,,,
null,"<img src=""stim_listA/fight6.gif""</stim_listA>",,html-keyboard-response,169,648689,0.0-15.0-1.10,63541,List2A,white,woman,,,,null,,,,
null,are fighting each other,,html-keyboard-response,170,650692,0.0-15.0-2.10,63541,List2A,white,woman,,,,null,,,,
7733,,,survey-text,171,658429,0.0-15.0-3.10,63541,List2A,white,woman,,,,,"{""Q0"":""fred and luke are fighting each other""}","<img src=""stim_listA/fight6.gif""</stim_listA>",are fighting each other,
null,"<div style=""font-size:60px;"">+</div>",,html-keyboard-response,172,658932,0.0-15.0-0.11,63541,List2A,white,woman,,,,null,,,,
null,"<img src=""stim_listA/shout7.gif""</stim_listA>",,html-keyboard-response,173,660937,0.0-15.0-1.11,63541,List2A,white,woman,,,,null,,,,
null,is shouting at,,html-keyboard-response,174,662940,0.0-15.0-2.11,63541,List2A,white,woman,,,,null,,,,
10006,,,survey-text,175,672948,0.0-15.0-3.11,63541,List2A,white,woman,,,,,"{""Q0"":""beth is shouting at jane""}","<img src=""stim_listA/shout7.gif""</stim_listA>",is shouting at,
null,"<div style=""font-size:60px;"">+</div>",,html-keyboard-response,176,673452,0.0-15.0-0.12,63541,List2A,white,woman,,,,null,,,,
null,"<img src=""stim_listA/kiss6.gif""</stim_listA>",,html-keyboard-response,177,675457,0.0-15.0-1.12,63541,List2A,white,woman,,,,null,,,,
null,are kissing each other,,html-keyboard-response,178,677459,0.0-15.0-2.12,63541,List2A,white,woman,,,,null,,,,
8940,,,survey-text,179,686403,0.0-15.0-3.12,63541,List2A,white,woman,,,,,"{""Q0"":""mike and dave are kissing each other""}","<img src=""stim_listA/kiss6.gif""</stim_listA>",are kissing each other,
null,"<div style=""font-size:60px;"">+</div>",,html-keyboard-response,180,686906,0.0-15.0-0.13,63541,List2A,white,woman,,,,null,,,,
null,"<img src=""stim_listA/fight3.gif""</stim_listA>",,html-keyboard-response,181,688911,0.0-15.0-1.13,63541,List2A,white,woman,,,,null,,,,
null,is fighting,,html-keyboard-response,182,690913,0.0-15.0-2.13,63541,List2A,white,woman,,,,null,,,,
5808,,,survey-text,183,696724,0.0-15.0-3.13,63541,List2A,white,woman,,,,,"{""Q0"":""mike is fighting kate""}","<img src=""stim_listA/fight3.gif""</stim_listA>",is fighting,
null,"<div style=""font-size:60px;"">+</div>",,html-keyboard-response,184,697228,0.0-15.0-0.14,63541,List2A,white,woman,,,,null,,,,
null,"<img src=""stim_listA/dance3.gif""</stim_listA>",,html-keyboard-response,185,699233,0.0-15.0-1.14,63541,List2A,white,woman,,,,null,,,,
null,is dancing with,,html-keyboard-response,186,701237,0.0-15.0-2.14,63541,List2A,white,woman,,,,null,,,,
6948,,,survey-text,187,708188,0.0-15.0-3.14,63541,List2A,white,woman,,,,,"{""Q0"":""kate is dancing with fred""}","<img src=""stim_listA/dance3.gif""</stim_listA>",is dancing with,
null,"<div style=""font-size:60px;"">+</div>",,html-keyboard-response,188,708692,0.0-15.0-0.15,63541,List2A,white,woman,,,,null,,,,
null,"<img src=""stim_listA/talk7.gif""</stim_listA>",,html-keyboard-response,189,710697,0.0-15.0-1.15,63541,List2A,white,woman,,,,null,,,,
null,is talking to,,html-keyboard-response,190,712700,0.0-15.0-2.15,63541,List2A,white,woman,,,,null,,,,
11604,,,survey-text,191,724308,0.0-15.0-3.15,63541,List2A,white,woman,,,,,"{""Q0"":""kate is talking to ruth""}","<img src=""stim_listA/talk7.gif""</stim_listA>",is talking to,
null,"<div style=""font-size:60px;"">+</div>",,html-keyboard-response,192,724817,0.0-15.0-0.16,63541,List2A,white,woman,,,,null,,,,
null,"<img src=""stim_listA/shout6.gif""</stim_listA>",,html-keyboard-response,193,726821,0.0-15.0-1.16,63541,List2A,white,woman,,,,null,,,,
null,are shouting at each other,,html-keyboard-response,194,728823,0.0-15.0-2.16,63541,List2A,white,woman,,,,null,,,,
9577,,,survey-text,195,738404,0.0-15.0-3.16,63541,List2A,white,woman,,,,,"{""Q0"":""mike and dave are shouting at each other""}","<img src=""stim_listA/shout6.gif""</stim_listA>",are shouting at each other,
null,"<div style=""font-size:60px;"">+</div>",,html-keyboard-response,196,738908,0.0-15.0-0.17,63541,List2A,white,woman,,,,null,,,,
null,"<img src=""stim_listA/argue2.gif""</stim_listA>",,html-keyboard-response,197,740912,0.0-15.0-1.17,63541,List2A,white,woman,,,,null,,,,
null,are arguing with each other,,html-keyboard-response,198,742915,0.0-15.0-2.17,63541,List2A,white,woman,,,,null,,,,
13508,,,survey-text,199,756426,0.0-15.0-3.17,63541,List2A,white,woman,,,,,"{""Q0"":""luke and jane are arguing with each other""}","<img src=""stim_listA/argue2.gif""</stim_listA>",are arguing with each other,
null,"<div style=""font-size:60px;"">+</div>",,html-keyboard-response,200,756930,0.0-15.0-0.18,63541,List2A,white,woman,,,,null,,,,
null,"<img src=""stim_listA/meet1.gif""</stim_listA>",,html-keyboard-response,201,758934,0.0-15.0-1.18,63541,List2A,white,woman,,,,null,,,,
null,is meeting,,html-keyboard-response,202,760935,0.0-15.0-2.18,63541,List2A,white,woman,,,,null,,,,
8615,,,survey-text,203,769552,0.0-15.0-3.18,63541,List2A,white,woman,,,,,"{""Q0"":""jane is meeting dave""}","<img src=""stim_listA/meet1.gif""</stim_listA>",is meeting,
null,"<div style=""font-size:60px;"">+</div>",,html-keyboard-response,204,770057,0.0-15.0-0.19,63541,List2A,white,woman,,,,null,,,,
null,"<img src=""stim_listA/dance5.gif""</stim_listA>",,html-keyboard-response,205,772062,0.0-15.0-1.19,63541,List2A,white,woman,,,,null,,,,
null,is dancing with,,html-keyboard-response,206,774065,0.0-15.0-2.19,63541,List2A,white,woman,,,,null,,,,
5734,,,survey-text,207,779802,0.0-15.0-3.19,63541,List2A,white,woman,,,,,"{""Q0"":""luke is dancing with mike""}","<img src=""stim_listA/dance5.gif""</stim_listA>",is dancing with,
4149,"<img src='img/portrait_matrix_list2.JPG' style='width:900px;height:500px;''></img><p>If you have memorised all the portraits and names and are ready to start, press Continue.</p><p><strong>Please note: Your memory of these faces will be tested 4 times during this experiment.</strong></p>",0,html-button-response,208,783955,0.0-16.0-0.0,63541,List2A,white,woman,,,,,,,,
1774,"<img src=""portrait/BM2.jpg""style=""width:400px;height:400px;""></img>",5,html-button-response,209,786738,0.0-16.0-1.0,63541,List2A,white,woman,,TRUE,5,,,,,
null,CORRECT,,html-keyboard-response,210,788242,0.0-16.0-2.0-0.0,63541,List2A,white,woman,,,,null,,,,
1721,"<img src=""portrait/BW1.jpg""style=""width:400px;height:400px;""></img>",0,html-button-response,211,789970,0.0-16.0-4.0,63541,List2A,white,woman,,TRUE,0,,,,,
null,CORRECT,,html-keyboard-response,212,791473,0.0-16.0-5.0-0.0,63541,List2A,white,woman,,,,null,,,,
1572,"<img src=""portrait/WW2.jpg""style=""width:400px;height:400px;""></img>",3,html-button-response,213,793052,0.0-16.0-7.0,63541,List2A,white,woman,,TRUE,3,,,,,
null,CORRECT,,html-keyboard-response,214,794555,0.0-16.0-8.0-0.0,63541,List2A,white,woman,,,,null,,,,
1612,"<img src=""portrait/BM1.jpg""style=""width:400px;height:400px;""></img>",4,html-button-response,215,796171,0.0-16.0-10.0,63541,List2A,white,woman,,TRUE,4,,,,,
null,CORRECT,,html-keyboard-response,216,797676,0.0-16.0-11.0-0.0,63541,List2A,white,woman,,,,null,,,,
1508,"<img src=""portrait/WM1.jpg""style=""width:400px;height:400px;""></img>",6,html-button-response,217,799186,0.0-16.0-13.0,63541,List2A,white,woman,,TRUE,6,,,,,
null,CORRECT,,html-keyboard-response,218,800691,0.0-16.0-14.0-0.0,63541,List2A,white,woman,,,,null,,,,
1535,"<img src=""portrait/WW1.jpg""style=""width:400px;height:400px;""></img>",1,html-button-response,219,802230,0.0-16.0-16.0,63541,List2A,white,woman,,TRUE,1,,,,,
null,CORRECT,,html-keyboard-response,220,803734,0.0-16.0-17.0-0.0,63541,List2A,white,woman,,,,null,,,,
1369,"<img src=""portrait/WM2.jpg""style=""width:400px;height:400px;""></img>",7,html-button-response,221,805112,0.0-16.0-19.0,63541,List2A,white,woman,,TRUE,7,,,,,
null,CORRECT,,html-keyboard-response,222,806616,0.0-16.0-20.0-0.0,63541,List2A,white,woman,,,,null,,,,
1181,"<img src=""portrait/BW2.jpg""style=""width:400px;height:400px;""></img>",2,html-button-response,223,807803,0.0-16.0-22.0,63541,List2A,white,woman,,TRUE,2,,,,,
null,CORRECT,,html-keyboard-response,224,809307,0.0-16.0-23.0-0.0,63541,List2A,white,woman,,,,null,,,,
1050,<p>You got 8 out of 8 right first time. Press Continue.</p>,0,html-button-response,225,810360,0.0-16.0-25.0,63541,List2A,white,woman,,,,,,,,
null,"<div style=""font-size:60px;"">+</div>",,html-keyboard-response,226,811865,0.0-17.0-0.0,63541,List2A,white,woman,,,,null,,,,
null,"<img src=""stim_listA/marry8.gif""</stim_listA>",,html-keyboard-response,227,813869,0.0-17.0-1.0,63541,List2A,white,woman,,,,null,,,,
null,are marrying each other,,html-keyboard-response,228,815872,0.0-17.0-2.0,63541,List2A,white,woman,,,,null,,,,
8263,,,survey-text,229,824138,0.0-17.0-3.0,63541,List2A,white,woman,,,,,"{""Q0"":""kate and ruth are marrying each other""}","<img src=""stim_listA/marry8.gif""</stim_listA>",are marrying each other,
null,"<div style=""font-size:60px;"">+</div>",,html-keyboard-response,230,824642,0.0-17.0-0.1,63541,List2A,white,woman,,,,null,,,,
null,"<img src=""stim_listA/argue3.gif""</stim_listA>",,html-keyboard-response,231,826647,0.0-17.0-1.1,63541,List2A,white,woman,,,,null,,,,
null,is arguing with,,html-keyboard-response,232,828650,0.0-17.0-2.1,63541,List2A,white,woman,,,,null,,,,
6981,,,survey-text,233,835633,0.0-17.0-3.1,63541,List2A,white,woman,,,,,"{""Q0"":""mike is arguing with beth""}","<img src=""stim_listA/argue3.gif""</stim_listA>",is arguing with,
null,"<div style=""font-size:60px;"">+</div>",,html-keyboard-response,234,836137,0.0-17.0-0.2,63541,List2A,white,woman,,,,null,,,,
null,"<img src=""stim_listA/shout2.gif""</stim_listA>",,html-keyboard-response,235,838141,0.0-17.0-1.2,63541,List2A,white,woman,,,,null,,,,
null,are shouting at each other,,html-keyboard-response,236,840143,0.0-17.0-2.2,63541,List2A,white,woman,,,,null,,,,
7467,,,survey-text,237,847613,0.0-17.0-3.2,63541,List2A,white,woman,,,,,"{""Q0"":""dave and jane are shouting at each other""}","<img src=""stim_listA/shout2.gif""</stim_listA>",are shouting at each other,
null,"<div style=""font-size:60px;"">+</div>",,html-keyboard-response,238,848117,0.0-17.0-0.3,63541,List2A,white,woman,,,,null,,,,
null,"<img src=""stim_listA/shout8.gif""</stim_listA>",,html-keyboard-response,239,850121,0.0-17.0-1.3,63541,List2A,white,woman,,,,null,,,,
null,are shouting at each other,,html-keyboard-response,240,852124,0.0-17.0-2.3,63541,List2A,white,woman,,,,null,,,,
7614,,,survey-text,241,859740,0.0-17.0-3.3,63541,List2A,white,woman,,,,,"{""Q0"":""kate and jane are shouting at each other""}","<img src=""stim_listA/shout8.gif""</stim_listA>",are shouting at each other,
null,"<div style=""font-size:60px;"">+</div>",,html-keyboard-response,242,860243,0.0-17.0-0.4,63541,List2A,white,woman,,,,null,,,,
null,"<img src=""stim_listA/marry7.gif""</stim_listA>",,html-keyboard-response,243,862248,0.0-17.0-1.4,63541,List2A,white,woman,,,,null,,,,
null,is marrying,,html-keyboard-response,244,864251,0.0-17.0-2.4,63541,List2A,white,woman,,,,null,,,,
8902,,,survey-text,245,873155,0.0-17.0-3.4,63541,List2A,white,woman,,,,,"{""Q0"":""beth is marrying jane""}","<img src=""stim_listA/marry7.gif""</stim_listA>",is marrying,
null,"<div style=""font-size:60px;"">+</div>",,html-keyboard-response,246,873658,0.0-17.0-0.5,63541,List2A,white,woman,,,,null,,,,
null,"<img src=""stim_listA/marry4.gif""</stim_listA>",,html-keyboard-response,247,875661,0.0-17.0-1.5,63541,List2A,white,woman,,,,null,,,,
null,are marrying each other,,html-keyboard-response,248,877665,0.0-17.0-2.5,63541,List2A,white,woman,,,,null,,,,
11699,,,survey-text,249,889366,0.0-17.0-3.5,63541,List2A,white,woman,,,,,"{""Q0"":""fred and kate are marrying each other""}","<img src=""stim_listA/marry4.gif""</stim_listA>",are marrying each other,
null,"<div style=""font-size:60px;"">+</div>",,html-keyboard-response,250,889870,0.0-17.0-0.6,63541,List2A,white,woman,,,,null,,,,
null,"<img src=""stim_listA/talk4.gif""</stim_listA>",,html-keyboard-response,251,891874,0.0-17.0-1.6,63541,List2A,white,woman,,,,null,,,,
null,are talking to each other,,html-keyboard-response,252,893878,0.0-17.0-2.6,63541,List2A,white,woman,,,,null,,,,
8113,,,survey-text,253,901993,0.0-17.0-3.6,63541,List2A,white,woman,,,,,"{""Q0"":""beth and mike are talking to each other""}","<img src=""stim_listA/talk4.gif""</stim_listA>",are talking to each other,
null,"<div style=""font-size:60px;"">+</div>",,html-keyboard-response,254,902497,0.0-17.0-0.7,63541,List2A,white,woman,,,,null,,,,
null,"<img src=""stim_listA/talk8.gif""</stim_listA>",,html-keyboard-response,255,904502,0.0-17.0-1.7,63541,List2A,white,woman,,,,null,,,,
null,are talking to each other,,html-keyboard-response,256,906505,0.0-17.0-2.7,63541,List2A,white,woman,,,,null,,,,
8000,,,survey-text,257,914508,0.0-17.0-3.7,63541,List2A,white,woman,,,,,"{""Q0"":""beth and jane are talking to each other""}","<img src=""stim_listA/talk8.gif""</stim_listA>",are talking to each other,
null,"<div style=""font-size:60px;"">+</div>",,html-keyboard-response,258,915013,0.0-17.0-0.8,63541,List2A,white,woman,,,,null,,,,
null,"<img src=""stim_listA/argue1.gif""</stim_listA>",,html-keyboard-response,259,917018,0.0-17.0-1.8,63541,List2A,white,woman,,,,null,,,,
null,is arguing with,,html-keyboard-response,260,919022,0.0-17.0-2.8,63541,List2A,white,woman,,,,null,,,,
6786,,,survey-text,261,925812,0.0-17.0-3.8,63541,List2A,white,woman,,,,,"{""Q0"":""dave is arguing with ruth""}","<img src=""stim_listA/argue1.gif""</stim_listA>",is arguing with,
null,"<div style=""font-size:60px;"">+</div>",,html-keyboard-response,262,926316,0.0-17.0-0.9,63541,List2A,white,woman,,,,null,,,,
null,"<img src=""stim_listA/hug3.gif""</stim_listA>",,html-keyboard-response,263,928321,0.0-17.0-1.9,63541,List2A,white,woman,,,,null,,,,
null,is hugging,,html-keyboard-response,264,930323,0.0-17.0-2.9,63541,List2A,white,woman,,,,null,,,,
6626,,,survey-text,265,936951,0.0-17.0-3.9,63541,List2A,white,woman,,,,,"{""Q0"":""fred is hugging beth""}","<img src=""stim_listA/hug3.gif""</stim_listA>",is hugging,
null,"<div style=""font-size:60px;"">+</div>",,html-keyboard-response,266,937456,0.0-17.0-0.10,63541,List2A,white,woman,,,,null,,,,
null,"<img src=""stim_listA/meet8.gif""</stim_listA>",,html-keyboard-response,267,939460,0.0-17.0-1.10,63541,List2A,white,woman,,,,null,,,,
null,are meeting each other,,html-keyboard-response,268,941463,0.0-17.0-2.10,63541,List2A,white,woman,,,,null,,,,
7382,,,survey-text,269,948849,0.0-17.0-3.10,63541,List2A,white,woman,,,,,"{""Q0"":""beth and ruth are meeting each other""}","<img src=""stim_listA/meet8.gif""</stim_listA>",are meeting each other,
null,"<div style=""font-size:60px;"">+</div>",,html-keyboard-response,270,949352,0.0-17.0-0.11,63541,List2A,white,woman,,,,null,,,,
null,"<img src=""stim_listA/hug7.gif""</stim_listA>",,html-keyboard-response,271,951356,0.0-17.0-1.11,63541,List2A,white,woman,,,,null,,,,
null,is hugging,,html-keyboard-response,272,953360,0.0-17.0-2.11,63541,List2A,white,woman,,,,null,,,,
6487,,,survey-text,273,959851,0.0-17.0-3.11,63541,List2A,white,woman,,,,,"{""Q0"":""beth is hugging ruth""}","<img src=""stim_listA/hug7.gif""</stim_listA>",is hugging,
null,"<div style=""font-size:60px;"">+</div>",,html-keyboard-response,274,960354,0.0-17.0-0.12,63541,List2A,white,woman,,,,null,,,,
null,"<img src=""stim_listA/meet7.gif""</stim_listA>",,html-keyboard-response,275,962358,0.0-17.0-1.12,63541,List2A,white,woman,,,,null,,,,
null,is meeting,,html-keyboard-response,276,964361,0.0-17.0-2.12,63541,List2A,white,woman,,,,null,,,,
5708,,,survey-text,277,970072,0.0-17.0-3.12,63541,List2A,white,woman,,,,,"{""Q0"":""kate is meeting jane""}","<img src=""stim_listA/meet7.gif""</stim_listA>",is meeting,
null,"<div style=""font-size:60px;"">+</div>",,html-keyboard-response,278,970576,0.0-17.0-0.13,63541,List2A,white,woman,,,,null,,,,
null,"<img src=""stim_listA/marry3.gif""</stim_listA>",,html-keyboard-response,279,972580,0.0-17.0-1.13,63541,List2A,white,woman,,,,null,,,,
null,is marrying,,html-keyboard-response,280,974582,0.0-17.0-2.13,63541,List2A,white,woman,,,,null,,,,
8158,,,survey-text,281,982744,0.0-17.0-3.13,63541,List2A,white,woman,,,,,"{""Q0"":""beth is marrying mike""}","<img src=""stim_listA/marry3.gif""</stim_listA>",is marrying,
null,"<div style=""font-size:60px;"">+</div>",,html-keyboard-response,282,983247,0.0-17.0-0.14,63541,List2A,white,woman,,,,null,,,,
null,"<img src=""stim_listA/shout5.gif""</stim_listA>",,html-keyboard-response,283,985252,0.0-17.0-1.14,63541,List2A,white,woman,,,,null,,,,
null,is shouting at,,html-keyboard-response,284,987254,0.0-17.0-2.14,63541,List2A,white,woman,,,,null,,,,
5176,,,survey-text,285,992433,0.0-17.0-3.14,63541,List2A,white,woman,,,,,"{""Q0"":""fred is shouting at luke""}","<img src=""stim_listA/shout5.gif""</stim_listA>",is shouting at,
null,"<div style=""font-size:60px;"">+</div>",,html-keyboard-response,286,992937,0.0-17.0-0.15,63541,List2A,white,woman,,,,null,,,,
null,"<img src=""stim_listA/shout1.gif""</stim_listA>",,html-keyboard-response,287,994941,0.0-17.0-1.15,63541,List2A,white,woman,,,,null,,,,
null,is shouting at,,html-keyboard-response,288,996943,0.0-17.0-2.15,63541,List2A,white,woman,,,,null,,,,
5596,,,survey-text,289,1002541,0.0-17.0-3.15,63541,List2A,white,woman,,,,,"{""Q0"":""luke is shouting at ruth""}","<img src=""stim_listA/shout1.gif""</stim_listA>",is shouting at,
null,"<div style=""font-size:60px;"">+</div>",,html-keyboard-response,290,1003045,0.0-17.0-0.16,63541,List2A,white,woman,,,,null,,,,
null,"<img src=""stim_listA/touch2.gif""</stim_listA>",,html-keyboard-response,291,1005049,0.0-17.0-1.16,63541,List2A,white,woman,,,,null,,,,
null,are touching each other,,html-keyboard-response,292,1007051,0.0-17.0-2.16,63541,List2A,white,woman,,,,null,,,,
6708,,,survey-text,293,1013761,0.0-17.0-3.16,63541,List2A,white,woman,,,,,"{""Q0"":""luke and ruth are touching each other""}","<img src=""stim_listA/touch2.gif""</stim_listA>",are touching each other,
null,"<div style=""font-size:60px;"">+</div>",,html-keyboard-response,294,1014266,0.0-17.0-0.17,63541,List2A,white,woman,,,,null,,,,
null,"<img src=""stim_listA/fight5.gif""</stim_listA>",,html-keyboard-response,295,1016269,0.0-17.0-1.17,63541,List2A,white,woman,,,,null,,,,
null,is fighting,,html-keyboard-response,296,1018271,0.0-17.0-2.17,63541,List2A,white,woman,,,,null,,,,
8842,,,survey-text,297,1027116,0.0-17.0-3.17,63541,List2A,white,woman,,,,,"{""Q0"":""dave is fighting mike""}","<img src=""stim_listA/fight5.gif""</stim_listA>",is fighting,
null,"<div style=""font-size:60px;"">+</div>",,html-keyboard-response,298,1027620,0.0-17.0-0.18,63541,List2A,white,woman,,,,null,,,,
null,"<img src=""stim_listA/hug8.gif""</stim_listA>",,html-keyboard-response,299,1029624,0.0-17.0-1.18,63541,List2A,white,woman,,,,null,,,,
null,are hugging each other,,html-keyboard-response,300,1031627,0.0-17.0-2.18,63541,List2A,white,woman,,,,null,,,,
6949,,,survey-text,301,1038578,0.0-17.0-3.18,63541,List2A,white,woman,,,,,"{""Q0"":""kate and jane are hugging each other""}","<img src=""stim_listA/hug8.gif""</stim_listA>",are hugging each other,
null,"<div style=""font-size:60px;"">+</div>",,html-keyboard-response,302,1039083,0.0-17.0-0.19,63541,List2A,white,woman,,,,null,,,,
null,"<img src=""stim_listA/fight8.gif""</stim_listA>",,html-keyboard-response,303,1041088,0.0-17.0-1.19,63541,List2A,white,woman,,,,null,,,,
null,are fighting each other,,html-keyboard-response,304,1043091,0.0-17.0-2.19,63541,List2A,white,woman,,,,null,,,,
8864,,,survey-text,305,1051958,0.0-17.0-3.19,63541,List2A,white,woman,,,,,"{""Q0"":""beth and ruth are fighting each other""}","<img src=""stim_listA/fight8.gif""</stim_listA>",are fighting each other,
2323,"<img src='img/portrait_matrix_list2.JPG' style='width:900px;height:500px;''></img><p>If you have memorised all the portraits and names and are ready to start, press Continue.</p><p><strong>Please note: Your memory of these faces will be tested 4 times during this experiment.</strong></p>",0,html-button-response,306,1054287,0.0-18.0-0.0,63541,List2A,white,woman,,,,,,,,
1623,"<img src=""portrait/BM2.jpg""style=""width:400px;height:400px;""></img>",5,html-button-response,307,1056917,0.0-18.0-1.0,63541,List2A,white,woman,,TRUE,5,,,,,
null,CORRECT,,html-keyboard-response,308,1058423,0.0-18.0-2.0-0.0,63541,List2A,white,woman,,,,null,,,,
2421,"<img src=""portrait/BW2.jpg""style=""width:400px;height:400px;""></img>",2,html-button-response,309,1060848,0.0-18.0-4.0,63541,List2A,white,woman,,TRUE,2,,,,,
null,CORRECT,,html-keyboard-response,310,1062351,0.0-18.0-5.0-0.0,63541,List2A,white,woman,,,,null,,,,
1646,"<img src=""portrait/WW2.jpg""style=""width:400px;height:400px;""></img>",3,html-button-response,311,1064003,0.0-18.0-7.0,63541,List2A,white,woman,,TRUE,3,,,,,
null,CORRECT,,html-keyboard-response,312,1065508,0.0-18.0-8.0-0.0,63541,List2A,white,woman,,,,null,,,,
1571,"<img src=""portrait/WM1.jpg""style=""width:400px;height:400px;""></img>",6,html-button-response,313,1067085,0.0-18.0-10.0,63541,List2A,white,woman,,TRUE,6,,,,,
null,CORRECT,,html-keyboard-response,314,1068589,0.0-18.0-11.0-0.0,63541,List2A,white,woman,,,,null,,,,
1642,"<img src=""portrait/BW1.jpg""style=""width:400px;height:400px;""></img>",0,html-button-response,315,1070239,0.0-18.0-13.0,63541,List2A,white,woman,,TRUE,0,,,,,
null,CORRECT,,html-keyboard-response,316,1071744,0.0-18.0-14.0-0.0,63541,List2A,white,woman,,,,null,,,,
1454,"<img src=""portrait/BM1.jpg""style=""width:400px;height:400px;""></img>",4,html-button-response,317,1073204,0.0-18.0-16.0,63541,List2A,white,woman,,TRUE,4,,,,,
null,CORRECT,,html-keyboard-response,318,1074709,0.0-18.0-17.0-0.0,63541,List2A,white,woman,,,,null,,,,
1436,"<img src=""portrait/WW1.jpg""style=""width:400px;height:400px;""></img>",1,html-button-response,319,1076150,0.0-18.0-19.0,63541,List2A,white,woman,,TRUE,1,,,,,
null,CORRECT,,html-keyboard-response,320,1077655,0.0-18.0-20.0-0.0,63541,List2A,white,woman,,,,null,,,,
942,"<img src=""portrait/WM2.jpg""style=""width:400px;height:400px;""></img>",7,html-button-response,321,1078603,0.0-18.0-22.0,63541,List2A,white,woman,,TRUE,7,,,,,
null,CORRECT,,html-keyboard-response,322,1080108,0.0-18.0-23.0-0.0,63541,List2A,white,woman,,,,null,,,,
1295,<p>You got 8 out of 8 right first time. Press Continue.</p>,0,html-button-response,323,1081406,0.0-18.0-25.0,63541,List2A,white,woman,,,,,,,,
null,"<div style=""font-size:60px;"">+</div>",,html-keyboard-response,324,1082909,0.0-19.0-0.0,63541,List2A,white,woman,,,,null,,,,
null,"<img src=""stim_listA/fight7.gif""</stim_listA>",,html-keyboard-response,325,1084914,0.0-19.0-1.0,63541,List2A,white,woman,,,,null,,,,
null,is fighting,,html-keyboard-response,326,1086917,0.0-19.0-2.0,63541,List2A,white,woman,,,,null,,,,
5730,,,survey-text,327,1092650,0.0-19.0-3.0,63541,List2A,white,woman,,,,,"{""Q0"":""jane is fighting kate""}","<img src=""stim_listA/fight7.gif""</stim_listA>",is fighting,
null,"<div style=""font-size:60px;"">+</div>",,html-keyboard-response,328,1093153,0.0-19.0-0.1,63541,List2A,white,woman,,,,null,,,,
null,"<img src=""stim_listA/touch3.gif""</stim_listA>",,html-keyboard-response,329,1095156,0.0-19.0-1.1,63541,List2A,white,woman,,,,null,,,,
null,is touching,,html-keyboard-response,330,1097160,0.0-19.0-2.1,63541,List2A,white,woman,,,,null,,,,
7526,,,survey-text,331,1104688,0.0-19.0-3.1,63541,List2A,white,woman,,,,,"{""Q0"":""kate is touching mike""}","<img src=""stim_listA/touch3.gif""</stim_listA>",is touching,
null,"<div style=""font-size:60px;"">+</div>",,html-keyboard-response,332,1105191,0.0-19.0-0.2,63541,List2A,white,woman,,,,null,,,,
null,"<img src=""stim_listA/touch4.gif""</stim_listA>",,html-keyboard-response,333,1107196,0.0-19.0-1.2,63541,List2A,white,woman,,,,null,,,,
null,are touching each other,,html-keyboard-response,334,1109200,0.0-19.0-2.2,63541,List2A,white,woman,,,,null,,,,
6528,,,survey-text,335,1115730,0.0-19.0-3.2,63541,List2A,white,woman,,,,,"{""Q0"":""beth and fred are touching each other""}","<img src=""stim_listA/touch4.gif""</stim_listA>",are touching each other,
null,"<div style=""font-size:60px;"">+</div>",,html-keyboard-response,336,1116235,0.0-19.0-0.3,63541,List2A,white,woman,,,,null,,,,
null,"<img src=""stim_listA/meet2.gif""</stim_listA>",,html-keyboard-response,337,1118239,0.0-19.0-1.3,63541,List2A,white,woman,,,,null,,,,
null,are meeting each other,,html-keyboard-response,338,1120242,0.0-19.0-2.3,63541,List2A,white,woman,,,,null,,,,
7719,,,survey-text,339,1127964,0.0-19.0-3.3,63541,List2A,white,woman,,,,,"{""Q0"":""luke and ruth are meeting each other""}","<img src=""stim_listA/meet2.gif""</stim_listA>",are meeting each other,
null,"<div style=""font-size:60px;"">+</div>",,html-keyboard-response,340,1128468,0.0-19.0-0.4,63541,List2A,white,woman,,,,null,,,,
null,"<img src=""stim_listA/kiss7.gif""</stim_listA>",,html-keyboard-response,341,1130473,0.0-19.0-1.4,63541,List2A,white,woman,,,,null,,,,
null,is kissing,,html-keyboard-response,342,1132477,0.0-19.0-2.4,63541,List2A,white,woman,,,,null,,,,
6832,,,survey-text,343,1139312,0.0-19.0-3.4,63541,List2A,white,woman,,,,,"{""Q0"":""beth is kissing ruth""}","<img src=""stim_listA/kiss7.gif""</stim_listA>",is kissing,
null,"<div style=""font-size:60px;"">+</div>",,html-keyboard-response,344,1139815,0.0-19.0-0.5,63541,List2A,white,woman,,,,null,,,,
null,"<img src=""stim_listA/argue8.gif""</stim_listA>",,html-keyboard-response,345,1141818,0.0-19.0-1.5,63541,List2A,white,woman,,,,null,,,,
null,are arguing with each other,,html-keyboard-response,346,1143821,0.0-19.0-2.5,63541,List2A,white,woman,,,,null,,,,
8776,,,survey-text,347,1152600,0.0-19.0-3.5,63541,List2A,white,woman,,,,,"{""Q0"":""kate and ruth are arguing with each other""}","<img src=""stim_listA/argue8.gif""</stim_listA>",are arguing with each other,
null,"<div style=""font-size:60px;"">+</div>",,html-keyboard-response,348,1153104,0.0-19.0-0.6,63541,List2A,white,woman,,,,null,,,,
null,"<img src=""stim_listA/kiss8.gif""</stim_listA>",,html-keyboard-response,349,1155109,0.0-19.0-1.6,63541,List2A,white,woman,,,,null,,,,
null,are kissing each other,,html-keyboard-response,350,1157111,0.0-19.0-2.6,63541,List2A,white,woman,,,,null,,,,
6378,,,survey-text,351,1163492,0.0-19.0-3.6,63541,List2A,white,woman,,,,,"{""Q0"":""kate and jane are kissing each other""}","<img src=""stim_listA/kiss8.gif""</stim_listA>",are kissing each other,
null,"<div style=""font-size:60px;"">+</div>",,html-keyboard-response,352,1163995,0.0-19.0-0.7,63541,List2A,white,woman,,,,null,,,,
null,"<img src=""stim_listA/argue5.gif""</stim_listA>",,html-keyboard-response,353,1165998,0.0-19.0-1.7,63541,List2A,white,woman,,,,null,,,,
null,is arguing with,,html-keyboard-response,354,1168001,0.0-19.0-2.7,63541,List2A,white,woman,,,,null,,,,
6281,,,survey-text,355,1174286,0.0-19.0-3.7,63541,List2A,white,woman,,,,,"{""Q0"":""dave is arguing with fred""}","<img src=""stim_listA/argue5.gif""</stim_listA>",is arguing with,
null,"<div style=""font-size:60px;"">+</div>",,html-keyboard-response,356,1174789,0.0-19.0-0.8,63541,List2A,white,woman,,,,null,,,,
null,"<img src=""stim_listA/dance1.gif""</stim_listA>",,html-keyboard-response,357,1176794,0.0-19.0-1.8,63541,List2A,white,woman,,,,null,,,,
null,is dancing with,,html-keyboard-response,358,1178797,0.0-19.0-2.8,63541,List2A,white,woman,,,,null,,,,
6692,,,survey-text,359,1185491,0.0-19.0-3.8,63541,List2A,white,woman,,,,,"{""Q0"":""luke is dancing with jane""}","<img src=""stim_listA/dance1.gif""</stim_listA>",is dancing with,
null,"<div style=""font-size:60px;"">+</div>",,html-keyboard-response,360,1185995,0.0-19.0-0.9,63541,List2A,white,woman,,,,null,,,,
null,"<img src=""stim_listA/dance6.gif""</stim_listA>",,html-keyboard-response,361,1187999,0.0-19.0-1.9,63541,List2A,white,woman,,,,null,,,,
null,are dancing with each other,,html-keyboard-response,362,1190001,0.0-19.0-2.9,63541,List2A,white,woman,,,,null,,,,
7287,,,survey-text,363,1197291,0.0-19.0-3.9,63541,List2A,white,woman,,,,,"{""Q0"":""dave and fred are dancing with each other""}","<img src=""stim_listA/dance6.gif""</stim_listA>",are dancing with each other,
null,"<div style=""font-size:60px;"">+</div>",,html-keyboard-response,364,1197795,0.0-19.0-0.10,63541,List2A,white,woman,,,,null,,,,
null,"<img src=""stim_listA/meet6.gif""</stim_listA>",,html-keyboard-response,365,1199798,0.0-19.0-1.10,63541,List2A,white,woman,,,,null,,,,
null,are meeting each other,,html-keyboard-response,366,1201801,0.0-19.0-2.10,63541,List2A,white,woman,,,,null,,,,
7282,,,survey-text,367,1209087,0.0-19.0-3.10,63541,List2A,white,woman,,,,,"{""Q0"":""fred and luke are meeting each other""}","<img src=""stim_listA/meet6.gif""</stim_listA>",are meeting each other,
null,"<div style=""font-size:60px;"">+</div>",,html-keyboard-response,368,1209590,0.0-19.0-0.11,63541,List2A,white,woman,,,,null,,,,
null,"<img src=""stim_listA/argue4.gif""</stim_listA>",,html-keyboard-response,369,1211593,0.0-19.0-1.11,63541,List2A,white,woman,,,,null,,,,
null,are arguing with each other,,html-keyboard-response,370,1213596,0.0-19.0-2.11,63541,List2A,white,woman,,,,null,,,,
10678,,,survey-text,371,1224277,0.0-19.0-3.11,63541,List2A,white,woman,,,,,"{""Q0"":""kate and fred are arguing with each other""}","<img src=""stim_listA/argue4.gif""</stim_listA>",are arguing with each other,
null,"<div style=""font-size:60px;"">+</div>",,html-keyboard-response,372,1224782,0.0-19.0-0.12,63541,List2A,white,woman,,,,null,,,,
null,"<img src=""stim_listA/dance8.gif""</stim_listA>",,html-keyboard-response,373,1226785,0.0-19.0-1.12,63541,List2A,white,woman,,,,null,,,,
null,are dancing with each other,,html-keyboard-response,374,1228787,0.0-19.0-2.12,63541,List2A,white,woman,,,,null,,,,
9001,,,survey-text,375,1237789,0.0-19.0-3.12,63541,List2A,white,woman,,,,,"{""Q0"":""beth and jane are dancing with each other""}","<img src=""stim_listA/dance8.gif""</stim_listA>",are dancing with each other,
null,"<div style=""font-size:60px;"">+</div>",,html-keyboard-response,376,1238293,0.0-19.0-0.13,63541,List2A,white,woman,,,,null,,,,
null,"<img src=""stim_listA/kiss4.gif""</stim_listA>",,html-keyboard-response,377,1240298,0.0-19.0-1.13,63541,List2A,white,woman,,,,null,,,,
null,are kissing each other,,html-keyboard-response,378,1242301,0.0-19.0-2.13,63541,List2A,white,woman,,,,null,,,,
7628,,,survey-text,379,1249931,0.0-19.0-3.13,63541,List2A,white,woman,,,,,"{""Q0"":""kate and mike are kissing each other""}","<img src=""stim_listA/kiss4.gif""</stim_listA>",are kissing each other,
null,"<div style=""font-size:60px;"">+</div>",,html-keyboard-response,380,1250435,0.0-19.0-0.14,63541,List2A,white,woman,,,,null,,,,
null,"<img src=""stim_listA/hug6.gif""</stim_listA>",,html-keyboard-response,381,1252439,0.0-19.0-1.14,63541,List2A,white,woman,,,,null,,,,
null,are hugging each other,,html-keyboard-response,382,1254442,0.0-19.0-2.14,63541,List2A,white,woman,,,,null,,,,
6839,,,survey-text,383,1261284,0.0-19.0-3.14,63541,List2A,white,woman,,,,,"{""Q0"":""mike and dave are hugging each other""}","<img src=""stim_listA/hug6.gif""</stim_listA>",are hugging each other,
null,"<div style=""font-size:60px;"">+</div>",,html-keyboard-response,384,1261787,0.0-19.0-0.15,63541,List2A,white,woman,,,,null,,,,
null,"<img src=""stim_listA/hug5.gif""</stim_listA>",,html-keyboard-response,385,1263792,0.0-19.0-1.15,63541,List2A,white,woman,,,,null,,,,
null,is hugging,,html-keyboard-response,386,1265793,0.0-19.0-2.15,63541,List2A,white,woman,,,,null,,,,
6127,,,survey-text,387,1271922,0.0-19.0-3.15,63541,List2A,white,woman,,,,,"{""Q0"":""fred is hugging luke""}","<img src=""stim_listA/hug5.gif""</stim_listA>",is hugging,
null,"<div style=""font-size:60px;"">+</div>",,html-keyboard-response,388,1272426,0.0-19.0-0.16,63541,List2A,white,woman,,,,null,,,,
null,"<img src=""stim_listA/hug4.gif""</stim_listA>",,html-keyboard-response,389,1274428,0.0-19.0-1.16,63541,List2A,white,woman,,,,null,,,,
null,are hugging each other,,html-keyboard-response,390,1276431,0.0-19.0-2.16,63541,List2A,white,woman,,,,null,,,,
8969,,,survey-text,391,1285403,0.0-19.0-3.16,63541,List2A,white,woman,,,,,"{""Q0"":""mike and kate are hugging each other""}","<img src=""stim_listA/hug4.gif""</stim_listA>",are hugging each other,
null,"<div style=""font-size:60px;"">+</div>",,html-keyboard-response,392,1285907,0.0-19.0-0.17,63541,List2A,white,woman,,,,null,,,,
null,"<img src=""stim_listA/argue6.gif""</stim_listA>",,html-keyboard-response,393,1287912,0.0-19.0-1.17,63541,List2A,white,woman,,,,null,,,,
null,are arguing with each other,,html-keyboard-response,394,1289918,0.0-19.0-2.17,63541,List2A,white,woman,,,,null,,,,
8530,,,survey-text,395,1298452,0.0-19.0-3.17,63541,List2A,white,woman,,,,,"{""Q0"":""mike and luke are arguing with each other""}","<img src=""stim_listA/argue6.gif""</stim_listA>",are arguing with each other,
null,"<div style=""font-size:60px;"">+</div>",,html-keyboard-response,396,1298956,0.0-19.0-0.18,63541,List2A,white,woman,,,,null,,,,
null,"<img src=""stim_listA/hug1.gif""</stim_listA>",,html-keyboard-response,397,1300960,0.0-19.0-1.18,63541,List2A,white,woman,,,,null,,,,
null,is hugging,,html-keyboard-response,398,1302963,0.0-19.0-2.18,63541,List2A,white,woman,,,,null,,,,
5169,,,survey-text,399,1308135,0.0-19.0-3.18,63541,List2A,white,woman,,,,,"{""Q0"":""luke is hugging ruth""}","<img src=""stim_listA/hug1.gif""</stim_listA>",is hugging,
null,"<div style=""font-size:60px;"">+</div>",,html-keyboard-response,400,1308639,0.0-19.0-0.19,63541,List2A,white,woman,,,,null,,,,
null,"<img src=""stim_listA/touch7.gif""</stim_listA>",,html-keyboard-response,401,1310641,0.0-19.0-1.19,63541,List2A,white,woman,,,,null,,,,
null,is touching,,html-keyboard-response,402,1312646,0.0-19.0-2.19,63541,List2A,white,woman,,,,null,,,,
5607,,,survey-text,403,1318256,0.0-19.0-3.19,63541,List2A,white,woman,,,,,"{""Q0"":""jane is touching kate""}","<img src=""stim_listA/touch7.gif""</stim_listA>",is touching,
1854,<p>Thank you for completing that task.</p><p>The final part of this session is a short questionnaire.</p><p>Press Continue.</p>,0,html-button-response,404,1320115,0.0-20.0,63541,List2A,white,woman,,,,,,,,
16827,,,survey-text,405,1337950,0.0-21.0,63541,List2A,white,woman,,,,,"{""Q0"":""21"",""Q1"":""English"",""Q2"":""English"",""Q3"":""England"",""Q4"":""White British"",""Q5"":""Female""}",,,demographics
35511,,,survey-likert,406,1373494,0.0-22.0,63541,List2A,white,woman,,,,,"{""Q0"":5,""Q1"":5,""Q2"":5,""Q3"":5,""Q4"":5,""Q5"":4,""Q6"":5,""Q7"":3,""Q8"":5,""Q9"":5,""Q10"":4,""Q11"":4,""Q12"":3,""Q13"":3}",,,likert_race
34254,,,survey-likert,407,1407803,0.0-23.0,63541,List2A,white,woman,,,,,"{""Q0"":6,""Q1"":6,""Q2"":5,""Q3"":5,""Q4"":6,""Q5"":5,""Q6"":5,""Q7"":3,""Q8"":6,""Q9"":6,""Q10"":4,""Q11"":3,""Q12"":3,""Q13"":3}",,,likert_gender
3719,,,survey-text,408,1411572,0.0-24.0,63541,List2A,white,woman,,,,,"{""Q0"":""ccc""}",,,worker_id
21777,,,external-html,409,1433496,0.0-25.0,63541,List2A,white,woman,debrief.html,,,,,,,
