rt,stimulus,button_pressed,trial_type,trial_index,time_elapsed,internal_node_id,subject,list,ppt_race,ppt_gender,url,first_guess,correct,key_press,responses,image_type,phrase_type,test_part
2303,Welcome to the experiment. Press Continue to begin.,0,html-button-response,0,2306,0.0-0.0,64143,List2B,black,woman,,,,,,,,
401621,,,external-html,1,405047,0.0-1.0,64143,List2B,black,woman,consent.html,,,,,,,
26417,"<p>On the next page, you will see portraits of 8 people and their names.</p><p>Your first task is to take a few minutes to memorise the names of these people.</p><p>You will have to recall their names during the rest of the experiment, so it is</p><p>essential that you try to memorise these people and their names as best as you can.</p><br><p><strong>You will then be tested on your memory of these names and portraits.</strong></p><br><p>The experiment will start after you have completed this memory test.</p><br><p>Ready?</p>",0,html-button-response,2,431465,0.0-2.0,64143,List2B,black,woman,,,,,,,,
119739,"<img src='img/portrait_matrix_list2.JPG' style='width:900px;height:500px;''></img><p>If you have memorised all the portraits and names and are ready to start, press Continue.</p><p><strong>Please note: Your memory of these faces will be tested 4 times during this experiment.</strong></p>",0,html-button-response,3,552214,0.0-3.0-0.0,64143,List2B,black,woman,,,,,,,,
3676,"<img src=""portrait/WM1.jpg""style=""width:400px;height:400px;""></img>",5,html-button-response,4,556901,0.0-3.0-1.0,64143,List2B,black,woman,,TRUE,6,,,,,
3125,"<img src=""portrait/WM1.jpg""style=""width:400px;height:400px;""></img>",6,html-button-response,5,561035,0.0-3.0-3.0-0.0,64143,List2B,black,woman,,FALSE,6,,,,,
null,CORRECT,,html-keyboard-response,6,562547,0.0-3.0-3.0-1.0-0.0,64143,List2B,black,woman,,,,null,,,,
1870,"<img src=""portrait/WW2.jpg""style=""width:400px;height:400px;""></img>",3,html-button-response,7,564418,0.0-3.0-4.0,64143,List2B,black,woman,,TRUE,3,,,,,
null,CORRECT,,html-keyboard-response,8,565953,0.0-3.0-5.0-0.0,64143,List2B,black,woman,,,,null,,,,
1932,"<img src=""portrait/WM2.jpg""style=""width:400px;height:400px;""></img>",7,html-button-response,9,567889,0.0-3.0-7.0,64143,List2B,black,woman,,TRUE,7,,,,,
null,CORRECT,,html-keyboard-response,10,569408,0.0-3.0-8.0-0.0,64143,List2B,black,woman,,,,null,,,,
2196,"<img src=""portrait/BW2.jpg""style=""width:400px;height:400px;""></img>",2,html-button-response,11,571604,0.0-3.0-10.0,64143,List2B,black,woman,,TRUE,2,,,,,
null,CORRECT,,html-keyboard-response,12,573131,0.0-3.0-11.0-0.0,64143,List2B,black,woman,,,,null,,,,
1726,"<img src=""portrait/BM1.jpg""style=""width:400px;height:400px;""></img>",4,html-button-response,13,574859,0.0-3.0-13.0,64143,List2B,black,woman,,TRUE,4,,,,,
null,CORRECT,,html-keyboard-response,14,576376,0.0-3.0-14.0-0.0,64143,List2B,black,woman,,,,null,,,,
10401,"<img src=""portrait/WW1.jpg""style=""width:400px;height:400px;""></img>",1,html-button-response,15,586779,0.0-3.0-16.0,64143,List2B,black,woman,,TRUE,1,,,,,
null,CORRECT,,html-keyboard-response,16,588307,0.0-3.0-17.0-0.0,64143,List2B,black,woman,,,,null,,,,
2639,"<img src=""portrait/BM2.jpg""style=""width:400px;height:400px;""></img>",5,html-button-response,17,590948,0.0-3.0-19.0,64143,List2B,black,woman,,TRUE,5,,,,,
null,CORRECT,,html-keyboard-response,18,592466,0.0-3.0-20.0-0.0,64143,List2B,black,woman,,,,null,,,,
5509,"<img src=""portrait/BW1.jpg""style=""width:400px;height:400px;""></img>",0,html-button-response,19,597976,0.0-3.0-22.0,64143,List2B,black,woman,,TRUE,0,,,,,
null,CORRECT,,html-keyboard-response,20,599498,0.0-3.0-23.0-0.0,64143,List2B,black,woman,,,,null,,,,
1669,<p>You got 7 out of 8 right first time. Press Continue.</p>,0,html-button-response,21,601169,0.0-3.0-25.0,64143,List2B,black,woman,,,,,,,,
3341,"As you did not score 100%, the memory game will repeat. Press Continue.",0,html-button-response,22,605519,0.0-3.0-26.0-0.0,64143,List2B,black,woman,,,,,,,,
9301,"<img src='img/portrait_matrix_list2.JPG' style='width:900px;height:500px;''></img><p>If you have memorised all the portraits and names and are ready to start, press Continue.</p><p><strong>Please note: Your memory of these faces will be tested 4 times during this experiment.</strong></p>",0,html-button-response,23,615824,0.0-3.1-0.1,64143,List2B,black,woman,,,,,,,,
2878,"<img src=""portrait/WM1.jpg""style=""width:400px;height:400px;""></img>",6,html-button-response,24,619720,0.0-3.1-1.1,64143,List2B,black,woman,,TRUE,6,,,,,
null,CORRECT,,html-keyboard-response,25,621245,0.0-3.1-2.1-0.1,64143,List2B,black,woman,,,,null,,,,
1534,"<img src=""portrait/WW2.jpg""style=""width:400px;height:400px;""></img>",3,html-button-response,26,622781,0.0-3.1-4.1,64143,List2B,black,woman,,TRUE,3,,,,,
null,CORRECT,,html-keyboard-response,27,624280,0.0-3.1-5.1-0.1,64143,List2B,black,woman,,,,null,,,,
1550,"<img src=""portrait/WM2.jpg""style=""width:400px;height:400px;""></img>",7,html-button-response,28,625832,0.0-3.1-7.1,64143,List2B,black,woman,,TRUE,7,,,,,
null,CORRECT,,html-keyboard-response,29,627346,0.0-3.1-8.1-0.1,64143,List2B,black,woman,,,,null,,,,
1775,"<img src=""portrait/BW2.jpg""style=""width:400px;height:400px;""></img>",2,html-button-response,30,629122,0.0-3.1-10.1,64143,List2B,black,woman,,TRUE,2,,,,,
null,CORRECT,,html-keyboard-response,31,630626,0.0-3.1-11.1-0.1,64143,List2B,black,woman,,,,null,,,,
2216,"<img src=""portrait/BM1.jpg""style=""width:400px;height:400px;""></img>",4,html-button-response,32,632843,0.0-3.1-13.1,64143,List2B,black,woman,,TRUE,4,,,,,
null,CORRECT,,html-keyboard-response,33,634359,0.0-3.1-14.1-0.1,64143,List2B,black,woman,,,,null,,,,
2862,"<img src=""portrait/WW1.jpg""style=""width:400px;height:400px;""></img>",1,html-button-response,34,637221,0.0-3.1-16.1,64143,List2B,black,woman,,TRUE,1,,,,,
null,CORRECT,,html-keyboard-response,35,638749,0.0-3.1-17.1-0.1,64143,List2B,black,woman,,,,null,,,,
1748,"<img src=""portrait/BM2.jpg""style=""width:400px;height:400px;""></img>",5,html-button-response,36,640498,0.0-3.1-19.1,64143,List2B,black,woman,,TRUE,5,,,,,
null,CORRECT,,html-keyboard-response,37,642024,0.0-3.1-20.1-0.1,64143,List2B,black,woman,,,,null,,,,
1769,"<img src=""portrait/BW1.jpg""style=""width:400px;height:400px;""></img>",0,html-button-response,38,643795,0.0-3.1-22.1,64143,List2B,black,woman,,TRUE,0,,,,,
null,CORRECT,,html-keyboard-response,39,645312,0.0-3.1-23.1-0.1,64143,List2B,black,woman,,,,null,,,,
1305,<p>You got 8 out of 8 right first time. Press Continue.</p>,0,html-button-response,40,646618,0.0-3.1-25.1,64143,List2B,black,woman,,,,,,,,
38592,"<p>In this experiment, you will view photographs of the people from the memory game interacting.</p><p>By using the <strong>exact</strong> phrase given <i>after</i> the photograph appears and recalling the correct names of the people in the photographs, form a sentence describing the interaction. You do not need to capitalise names.</p><p>Type your answer in the space provided. Please complete every sentence before moving onto the next trial.</p><p>You will only have a few seconds to memorise each given photograph and phrase before you can respond, so try your best to focus.</p><p>An example is given below. Press 'Continue' when you are ready.</p><img src='img/speaking_example_v2.jpg' style='width:800px;height:460px;''></img>",0,html-button-response,41,686223,0.0-4.0,64143,List2B,black,woman,,,,,,,,
2619,"<p>Before the experiment starts, you will watch two example trials. Press 'Continue'.</p>",0,html-button-response,42,689852,0.0-5.0,64143,List2B,black,woman,,,,,,,,
null,<img src='img/speaking_WW.gif'></img>,,html-keyboard-response,43,692857,0.0-6.0,64143,List2B,black,woman,,,,null,,,,
null,<p>is speaking to</p>,,html-keyboard-response,44,694866,0.0-7.0,64143,List2B,black,woman,,,,null,,,,
2985,<p><b>Answer:</b> jane is speaking to ruth</p>,0,html-button-response,45,697852,0.0-8.0,64143,List2B,black,woman,,,,,,,,
null,<img src='img/pointing_BM.gif'></img>,,html-keyboard-response,46,700875,0.0-9.0,64143,List2B,black,woman,,,,null,,,,
null,<p>are pointing at each other</p>,,html-keyboard-response,47,702875,0.0-10.0,64143,List2B,black,woman,,,,null,,,,
2117,<p><b>Answer:</b> fred and mike are pointing at each other</p>,0,html-button-response,48,704993,0.0-11.0,64143,List2B,black,woman,,,,,,,,
8478,"<p>Ready to start the experiment?</p><br><p><strong>Remember to describe the picture using a full sentence,</strong></p><p><strong>that combines the names of the people with the given phrase.</strong></p><p><strong>If you do not do this correctly you will not be paid.</strong></p><p><strong> You do not need to capitalise names or use punctuation.</strong></p><br><p>Press 'Continue' to begin.</p>",0,html-button-response,49,714478,0.0-12.0,64143,List2B,black,woman,,,,,,,,
null,"<div style=""font-size:60px;"">+</div>",,html-keyboard-response,50,715999,0.0-13.0-0.0,64143,List2B,black,woman,,,,null,,,,
null,"<img src=""stim_listB/meet8.gif""</stim_listB>",,html-keyboard-response,51,718002,0.0-13.0-1.0,64143,List2B,black,woman,,,,null,,,,
null,are meeting each other,,html-keyboard-response,52,719999,0.0-13.0-2.0,64143,List2B,black,woman,,,,null,,,,
13196,,,survey-text,53,733199,0.0-13.0-3.0,64143,List2B,black,woman,,,,,"{""Q0"":""beth and ruth are meeting each other""}","<img src=""stim_listB/meet8.gif""</stim_listB>",are meeting each other,
null,"<div style=""font-size:60px;"">+</div>",,html-keyboard-response,54,733703,0.0-13.0-0.1,64143,List2B,black,woman,,,,null,,,,
null,"<img src=""stim_listB/touch6.gif""</stim_listB>",,html-keyboard-response,55,735704,0.0-13.0-1.1,64143,List2B,black,woman,,,,null,,,,
null,are touching each other,,html-keyboard-response,56,737715,0.0-13.0-2.1,64143,List2B,black,woman,,,,null,,,,
8288,,,survey-text,57,746003,0.0-13.0-3.1,64143,List2B,black,woman,,,,,"{""Q0"":""fred and luke are touching each other""}","<img src=""stim_listB/touch6.gif""</stim_listB>",are touching each other,
null,"<div style=""font-size:60px;"">+</div>",,html-keyboard-response,58,746507,0.0-13.0-0.2,64143,List2B,black,woman,,,,null,,,,
null,"<img src=""stim_listB/fight8.gif""</stim_listB>",,html-keyboard-response,59,748511,0.0-13.0-1.2,64143,List2B,black,woman,,,,null,,,,
null,are fighting each other,,html-keyboard-response,60,750513,0.0-13.0-2.2,64143,List2B,black,woman,,,,null,,,,
10853,,,survey-text,61,761367,0.0-13.0-3.2,64143,List2B,black,woman,,,,,"{""Q0"":""ruth and beth are fighting each other""}","<img src=""stim_listB/fight8.gif""</stim_listB>",are fighting each other,
null,"<div style=""font-size:60px;"">+</div>",,html-keyboard-response,62,761870,0.0-13.0-0.3,64143,List2B,black,woman,,,,null,,,,
null,"<img src=""stim_listB/touch7.gif""</stim_listB>",,html-keyboard-response,63,763875,0.0-13.0-1.3,64143,List2B,black,woman,,,,null,,,,
null,is touching,,html-keyboard-response,64,765885,0.0-13.0-2.3,64143,List2B,black,woman,,,,null,,,,
8751,,,survey-text,65,774637,0.0-13.0-3.3,64143,List2B,black,woman,,,,,"{""Q0"":""kate is touching jane""}","<img src=""stim_listB/touch7.gif""</stim_listB>",is touching,
null,"<div style=""font-size:60px;"">+</div>",,html-keyboard-response,66,775151,0.0-13.0-0.4,64143,List2B,black,woman,,,,null,,,,
null,"<img src=""stim_listB/dance2.gif""</stim_listB>",,html-keyboard-response,67,777152,0.0-13.0-1.4,64143,List2B,black,woman,,,,null,,,,
null,are dancing with each other,,html-keyboard-response,68,779156,0.0-13.0-2.4,64143,List2B,black,woman,,,,null,,,,
9742,,,survey-text,69,788899,0.0-13.0-3.4,64143,List2B,black,woman,,,,,"{""Q0"":""dave and ruth are dancing together""}","<img src=""stim_listB/dance2.gif""</stim_listB>",are dancing with each other,
null,"<div style=""font-size:60px;"">+</div>",,html-keyboard-response,70,789415,0.0-13.0-0.5,64143,List2B,black,woman,,,,null,,,,
null,"<img src=""stim_listB/argue2.gif""</stim_listB>",,html-keyboard-response,71,791420,0.0-13.0-1.5,64143,List2B,black,woman,,,,null,,,,
null,are arguing with each other,,html-keyboard-response,72,793420,0.0-13.0-2.5,64143,List2B,black,woman,,,,null,,,,
9530,,,survey-text,73,802952,0.0-13.0-3.5,64143,List2B,black,woman,,,,,"{""Q0"":""jane and luke are arguing with each other""}","<img src=""stim_listB/argue2.gif""</stim_listB>",are arguing with each other,
null,"<div style=""font-size:60px;"">+</div>",,html-keyboard-response,74,803468,0.0-13.0-0.6,64143,List2B,black,woman,,,,null,,,,
null,"<img src=""stim_listB/meet7.gif""</stim_listB>",,html-keyboard-response,75,805481,0.0-13.0-1.6,64143,List2B,black,woman,,,,null,,,,
null,is meeting,,html-keyboard-response,76,807478,0.0-13.0-2.6,64143,List2B,black,woman,,,,null,,,,
5047,,,survey-text,77,812527,0.0-13.0-3.6,64143,List2B,black,woman,,,,,"{""Q0"":""kate is meeting jane""}","<img src=""stim_listB/meet7.gif""</stim_listB>",is meeting,
null,"<div style=""font-size:60px;"">+</div>",,html-keyboard-response,78,813033,0.0-13.0-0.7,64143,List2B,black,woman,,,,null,,,,
null,"<img src=""stim_listB/marry7.gif""</stim_listB>",,html-keyboard-response,79,815035,0.0-13.0-1.7,64143,List2B,black,woman,,,,null,,,,
null,is marrying,,html-keyboard-response,80,817032,0.0-13.0-2.7,64143,List2B,black,woman,,,,null,,,,
13210,,,survey-text,81,830243,0.0-13.0-3.7,64143,List2B,black,woman,,,,,"{""Q0"":""jane is marrying dave""}","<img src=""stim_listB/marry7.gif""</stim_listB>",is marrying,
null,"<div style=""font-size:60px;"">+</div>",,html-keyboard-response,82,830747,0.0-13.0-0.8,64143,List2B,black,woman,,,,null,,,,
null,"<img src=""stim_listB/kiss2.gif""</stim_listB>",,html-keyboard-response,83,832749,0.0-13.0-1.8,64143,List2B,black,woman,,,,null,,,,
null,are kissing each other,,html-keyboard-response,84,834760,0.0-13.0-2.8,64143,List2B,black,woman,,,,null,,,,
12257,,,survey-text,85,847019,0.0-13.0-3.8,64143,List2B,black,woman,,,,,"{""Q0"":""dave and jane are kissing each other""}","<img src=""stim_listB/kiss2.gif""</stim_listB>",are kissing each other,
null,"<div style=""font-size:60px;"">+</div>",,html-keyboard-response,86,847538,0.0-13.0-0.9,64143,List2B,black,woman,,,,null,,,,
null,"<img src=""stim_listB/fight3.gif""</stim_listB>",,html-keyboard-response,87,849547,0.0-13.0-1.9,64143,List2B,black,woman,,,,null,,,,
null,is fighting,,html-keyboard-response,88,851547,0.0-13.0-2.9,64143,List2B,black,woman,,,,null,,,,
8165,,,survey-text,89,859713,0.0-13.0-3.9,64143,List2B,black,woman,,,,,"{""Q0"":""kate is fighting fred""}","<img src=""stim_listB/fight3.gif""</stim_listB>",is fighting,
null,"<div style=""font-size:60px;"">+</div>",,html-keyboard-response,90,860226,0.0-13.0-0.10,64143,List2B,black,woman,,,,null,,,,
null,"<img src=""stim_listB/kiss3.gif""</stim_listB>",,html-keyboard-response,91,862232,0.0-13.0-1.10,64143,List2B,black,woman,,,,null,,,,
null,is kissing,,html-keyboard-response,92,864234,0.0-13.0-2.10,64143,List2B,black,woman,,,,null,,,,
7187,,,survey-text,93,871423,0.0-13.0-3.10,64143,List2B,black,woman,,,,,"{""Q0"":""fred is kissing beth""}","<img src=""stim_listB/kiss3.gif""</stim_listB>",is kissing,
null,"<div style=""font-size:60px;"">+</div>",,html-keyboard-response,94,871927,0.0-13.0-0.11,64143,List2B,black,woman,,,,null,,,,
null,"<img src=""stim_listB/kiss6.gif""</stim_listB>",,html-keyboard-response,95,873938,0.0-13.0-1.11,64143,List2B,black,woman,,,,null,,,,
null,are kissing each other,,html-keyboard-response,96,875940,0.0-13.0-2.11,64143,List2B,black,woman,,,,null,,,,
8613,,,survey-text,97,884553,0.0-13.0-3.11,64143,List2B,black,woman,,,,,"{""Q0"":""dave and mike are kissing each other""}","<img src=""stim_listB/kiss6.gif""</stim_listB>",are kissing each other,
null,"<div style=""font-size:60px;"">+</div>",,html-keyboard-response,98,885058,0.0-13.0-0.12,64143,List2B,black,woman,,,,null,,,,
null,"<img src=""stim_listB/dance7.gif""</stim_listB>",,html-keyboard-response,99,887061,0.0-13.0-1.12,64143,List2B,black,woman,,,,null,,,,
null,is dancing with,,html-keyboard-response,100,889062,0.0-13.0-2.12,64143,List2B,black,woman,,,,null,,,,
6694,,,survey-text,101,895757,0.0-13.0-3.12,64143,List2B,black,woman,,,,,"{""Q0"":""ruth is dancing with kate""}","<img src=""stim_listB/dance7.gif""</stim_listB>",is dancing with,
null,"<div style=""font-size:60px;"">+</div>",,html-keyboard-response,102,896259,0.0-13.0-0.13,64143,List2B,black,woman,,,,null,,,,
null,"<img src=""stim_listB/fight6.gif""</stim_listB>",,html-keyboard-response,103,898266,0.0-13.0-1.13,64143,List2B,black,woman,,,,null,,,,
null,are fighting each other,,html-keyboard-response,104,900268,0.0-13.0-2.13,64143,List2B,black,woman,,,,null,,,,
7258,,,survey-text,105,907527,0.0-13.0-3.13,64143,List2B,black,woman,,,,,"{""Q0"":""luke and fred are fighting each other""}","<img src=""stim_listB/fight6.gif""</stim_listB>",are fighting each other,
null,"<div style=""font-size:60px;"">+</div>",,html-keyboard-response,106,908037,0.0-13.0-0.14,64143,List2B,black,woman,,,,null,,,,
null,"<img src=""stim_listB/kiss8.gif""</stim_listB>",,html-keyboard-response,107,910047,0.0-13.0-1.14,64143,List2B,black,woman,,,,null,,,,
null,are kissing each other,,html-keyboard-response,108,912045,0.0-13.0-2.14,64143,List2B,black,woman,,,,null,,,,
8866,,,survey-text,109,920912,0.0-13.0-3.14,64143,List2B,black,woman,,,,,"{""Q0"":""kate and ruth are kissing each other""}","<img src=""stim_listB/kiss8.gif""</stim_listB>",are kissing each other,
null,"<div style=""font-size:60px;"">+</div>",,html-keyboard-response,110,921421,0.0-13.0-0.15,64143,List2B,black,woman,,,,null,,,,
null,"<img src=""stim_listB/talk3.gif""</stim_listB>",,html-keyboard-response,111,923435,0.0-13.0-1.15,64143,List2B,black,woman,,,,null,,,,
null,is talking to,,html-keyboard-response,112,925423,0.0-13.0-2.15,64143,List2B,black,woman,,,,null,,,,
5944,,,survey-text,113,931368,0.0-13.0-3.15,64143,List2B,black,woman,,,,,"{""Q0"":""fred is talking to kate""}","<img src=""stim_listB/talk3.gif""</stim_listB>",is talking to,
null,"<div style=""font-size:60px;"">+</div>",,html-keyboard-response,114,931878,0.0-13.0-0.16,64143,List2B,black,woman,,,,null,,,,
null,"<img src=""stim_listB/marry8.gif""</stim_listB>",,html-keyboard-response,115,933891,0.0-13.0-1.16,64143,List2B,black,woman,,,,null,,,,
null,are marrying each other,,html-keyboard-response,116,935881,0.0-13.0-2.16,64143,List2B,black,woman,,,,null,,,,
9699,,,survey-text,117,945581,0.0-13.0-3.16,64143,List2B,black,woman,,,,,"{""Q0"":""ruth and kate are marrying each other""}","<img src=""stim_listB/marry8.gif""</stim_listB>",are marrying each other,
null,"<div style=""font-size:60px;"">+</div>",,html-keyboard-response,118,946099,0.0-13.0-0.17,64143,List2B,black,woman,,,,null,,,,
null,"<img src=""stim_listB/fight4.gif""</stim_listB>",,html-keyboard-response,119,948107,0.0-13.0-1.17,64143,List2B,black,woman,,,,null,,,,
null,are fighting each other,,html-keyboard-response,120,950101,0.0-13.0-2.17,64143,List2B,black,woman,,,,null,,,,
7592,,,survey-text,121,957695,0.0-13.0-3.17,64143,List2B,black,woman,,,,,"{""Q0"":""beth and fred are fighting each other""}","<img src=""stim_listB/fight4.gif""</stim_listB>",are fighting each other,
null,"<div style=""font-size:60px;"">+</div>",,html-keyboard-response,122,958205,0.0-13.0-0.18,64143,List2B,black,woman,,,,null,,,,
null,"<img src=""stim_listB/hug6.gif""</stim_listB>",,html-keyboard-response,123,960216,0.0-13.0-1.18,64143,List2B,black,woman,,,,null,,,,
null,are hugging each other,,html-keyboard-response,124,962216,0.0-13.0-2.18,64143,List2B,black,woman,,,,null,,,,
7732,,,survey-text,125,969949,0.0-13.0-3.18,64143,List2B,black,woman,,,,,"{""Q0"":""mike and dave are hugging each other""}","<img src=""stim_listB/hug6.gif""</stim_listB>",are hugging each other,
null,"<div style=""font-size:60px;"">+</div>",,html-keyboard-response,126,970456,0.0-13.0-0.19,64143,List2B,black,woman,,,,null,,,,
null,"<img src=""stim_listB/kiss5.gif""</stim_listB>",,html-keyboard-response,127,972468,0.0-13.0-1.19,64143,List2B,black,woman,,,,null,,,,
null,is kissing,,html-keyboard-response,128,974466,0.0-13.0-2.19,64143,List2B,black,woman,,,,null,,,,
7137,,,survey-text,129,981603,0.0-13.0-3.19,64143,List2B,black,woman,,,,,"{""Q0"":""luke is kissing fred""}","<img src=""stim_listB/kiss5.gif""</stim_listB>",is kissing,
3678,"<img src='img/portrait_matrix_list2.JPG' style='width:900px;height:500px;''></img><p>If you have memorised all the portraits and names and are ready to start, press Continue.</p><p><strong>Please note: Your memory of these faces will be tested 4 times during this experiment.</strong></p>",0,html-button-response,130,985283,0.0-14.0-0.0,64143,List2B,black,woman,,,,,,,,
1995,"<img src=""portrait/BM2.jpg""style=""width:400px;height:400px;""></img>",5,html-button-response,131,988293,0.0-14.0-1.0,64143,List2B,black,woman,,TRUE,5,,,,,
null,CORRECT,,html-keyboard-response,132,989817,0.0-14.0-2.0-0.0,64143,List2B,black,woman,,,,null,,,,
1596,"<img src=""portrait/BW1.jpg""style=""width:400px;height:400px;""></img>",0,html-button-response,133,991413,0.0-14.0-4.0,64143,List2B,black,woman,,TRUE,0,,,,,
null,CORRECT,,html-keyboard-response,134,992952,0.0-14.0-5.0-0.0,64143,List2B,black,woman,,,,null,,,,
1702,"<img src=""portrait/WW2.jpg""style=""width:400px;height:400px;""></img>",3,html-button-response,135,994657,0.0-14.0-7.0,64143,List2B,black,woman,,TRUE,3,,,,,
null,CORRECT,,html-keyboard-response,136,996173,0.0-14.0-8.0-0.0,64143,List2B,black,woman,,,,null,,,,
1506,"<img src=""portrait/BM1.jpg""style=""width:400px;height:400px;""></img>",4,html-button-response,137,997681,0.0-14.0-10.0,64143,List2B,black,woman,,TRUE,4,,,,,
null,CORRECT,,html-keyboard-response,138,999200,0.0-14.0-11.0-0.0,64143,List2B,black,woman,,,,null,,,,
1816,"<img src=""portrait/WM1.jpg""style=""width:400px;height:400px;""></img>",6,html-button-response,139,1001017,0.0-14.0-13.0,64143,List2B,black,woman,,TRUE,6,,,,,
null,CORRECT,,html-keyboard-response,140,1002530,0.0-14.0-14.0-0.0,64143,List2B,black,woman,,,,null,,,,
3324,"<img src=""portrait/WW1.jpg""style=""width:400px;height:400px;""></img>",1,html-button-response,141,1005855,0.0-14.0-16.0,64143,List2B,black,woman,,TRUE,1,,,,,
null,CORRECT,,html-keyboard-response,142,1007367,0.0-14.0-17.0-0.0,64143,List2B,black,woman,,,,null,,,,
1952,"<img src=""portrait/BW2.jpg""style=""width:400px;height:400px;""></img>",2,html-button-response,143,1009321,0.0-14.0-19.0,64143,List2B,black,woman,,TRUE,2,,,,,
null,CORRECT,,html-keyboard-response,144,1010842,0.0-14.0-20.0-0.0,64143,List2B,black,woman,,,,null,,,,
1824,"<img src=""portrait/WM2.jpg""style=""width:400px;height:400px;""></img>",7,html-button-response,145,1012667,0.0-14.0-22.0,64143,List2B,black,woman,,TRUE,7,,,,,
null,CORRECT,,html-keyboard-response,146,1014187,0.0-14.0-23.0-0.0,64143,List2B,black,woman,,,,null,,,,
1290,<p>You got 8 out of 8 right first time. Press Continue.</p>,0,html-button-response,147,1015479,0.0-14.0-25.0,64143,List2B,black,woman,,,,,,,,
null,"<div style=""font-size:60px;"">+</div>",,html-keyboard-response,148,1016994,0.0-15.0-0.0,64143,List2B,black,woman,,,,null,,,,
null,"<img src=""stim_listB/shout2.gif""</stim_listB>",,html-keyboard-response,149,1018999,0.0-15.0-1.0,64143,List2B,black,woman,,,,null,,,,
null,are shouting at each other,,html-keyboard-response,150,1021006,0.0-15.0-2.0,64143,List2B,black,woman,,,,null,,,,
9847,,,survey-text,151,1030855,0.0-15.0-3.0,64143,List2B,black,woman,,,,,"{""Q0"":""dave and jane are shouting at each other""}","<img src=""stim_listB/shout2.gif""</stim_listB>",are shouting at each other,
null,"<div style=""font-size:60px;"">+</div>",,html-keyboard-response,152,1031367,0.0-15.0-0.1,64143,List2B,black,woman,,,,null,,,,
null,"<img src=""stim_listB/marry1.gif""</stim_listB>",,html-keyboard-response,153,1033369,0.0-15.0-1.1,64143,List2B,black,woman,,,,null,,,,
null,is marrying,,html-keyboard-response,154,1035378,0.0-15.0-2.1,64143,List2B,black,woman,,,,null,,,,
7246,,,survey-text,155,1042625,0.0-15.0-3.1,64143,List2B,black,woman,,,,,"{""Q0"":""dave and ruth are marrying""}","<img src=""stim_listB/marry1.gif""</stim_listB>",is marrying,
null,"<div style=""font-size:60px;"">+</div>",,html-keyboard-response,156,1043131,0.0-15.0-0.2,64143,List2B,black,woman,,,,null,,,,
null,"<img src=""stim_listB/touch1.gif""</stim_listB>",,html-keyboard-response,157,1045140,0.0-15.0-1.2,64143,List2B,black,woman,,,,null,,,,
null,is touching,,html-keyboard-response,158,1047132,0.0-15.0-2.2,64143,List2B,black,woman,,,,null,,,,
10446,,,survey-text,159,1057578,0.0-15.0-3.2,64143,List2B,black,woman,,,,,"{""Q0"":""jane is touching dave""}","<img src=""stim_listB/touch1.gif""</stim_listB>",is touching,
null,"<div style=""font-size:60px;"">+</div>",,html-keyboard-response,160,1058089,0.0-15.0-0.3,64143,List2B,black,woman,,,,null,,,,
null,"<img src=""stim_listB/kiss1.gif""</stim_listB>",,html-keyboard-response,161,1060089,0.0-15.0-1.3,64143,List2B,black,woman,,,,null,,,,
null,is kissing,,html-keyboard-response,162,1062097,0.0-15.0-2.3,64143,List2B,black,woman,,,,null,,,,
8817,,,survey-text,163,1070915,0.0-15.0-3.3,64143,List2B,black,woman,,,,,"{""Q0"":""luke is kissing ruth""}","<img src=""stim_listB/kiss1.gif""</stim_listB>",is kissing,
null,"<div style=""font-size:60px;"">+</div>",,html-keyboard-response,164,1071417,0.0-15.0-0.4,64143,List2B,black,woman,,,,null,,,,
null,"<img src=""stim_listB/talk7.gif""</stim_listB>",,html-keyboard-response,165,1073421,0.0-15.0-1.4,64143,List2B,black,woman,,,,null,,,,
null,is talking to,,html-keyboard-response,166,1075423,0.0-15.0-2.4,64143,List2B,black,woman,,,,null,,,,
7848,,,survey-text,167,1083273,0.0-15.0-3.4,64143,List2B,black,woman,,,,,"{""Q0"":""ruth is talking to kate""}","<img src=""stim_listB/talk7.gif""</stim_listB>",is talking to,
null,"<div style=""font-size:60px;"">+</div>",,html-keyboard-response,168,1083787,0.0-15.0-0.5,64143,List2B,black,woman,,,,null,,,,
null,"<img src=""stim_listB/shout5.gif""</stim_listB>",,html-keyboard-response,169,1085793,0.0-15.0-1.5,64143,List2B,black,woman,,,,null,,,,
null,is shouting at,,html-keyboard-response,170,1087794,0.0-15.0-2.5,64143,List2B,black,woman,,,,null,,,,
8773,,,survey-text,171,1096569,0.0-15.0-3.5,64143,List2B,black,woman,,,,,"{""Q0"":""fred is shouting at luke""}","<img src=""stim_listB/shout5.gif""</stim_listB>",is shouting at,
null,"<div style=""font-size:60px;"">+</div>",,html-keyboard-response,172,1097080,0.0-15.0-0.6,64143,List2B,black,woman,,,,null,,,,
null,"<img src=""stim_listB/dance3.gif""</stim_listB>",,html-keyboard-response,173,1099089,0.0-15.0-1.6,64143,List2B,black,woman,,,,null,,,,
null,is dancing with,,html-keyboard-response,174,1101088,0.0-15.0-2.6,64143,List2B,black,woman,,,,null,,,,
5541,,,survey-text,175,1106631,0.0-15.0-3.6,64143,List2B,black,woman,,,,,"{""Q0"":""fred is dancing with kate""}","<img src=""stim_listB/dance3.gif""</stim_listB>",is dancing with,
null,"<div style=""font-size:60px;"">+</div>",,html-keyboard-response,176,1107141,0.0-15.0-0.7,64143,List2B,black,woman,,,,null,,,,
null,"<img src=""stim_listB/hug1.gif""</stim_listB>",,html-keyboard-response,177,1109155,0.0-15.0-1.7,64143,List2B,black,woman,,,,null,,,,
null,is hugging,,html-keyboard-response,178,1111146,0.0-15.0-2.7,64143,List2B,black,woman,,,,null,,,,
6562,,,survey-text,179,1117709,0.0-15.0-3.7,64143,List2B,black,woman,,,,,"{""Q0"":""luke is hugging ruth""}","<img src=""stim_listB/hug1.gif""</stim_listB>",is hugging,
null,"<div style=""font-size:60px;"">+</div>",,html-keyboard-response,180,1118211,0.0-15.0-0.8,64143,List2B,black,woman,,,,null,,,,
null,"<img src=""stim_listB/fight1.gif""</stim_listB>",,html-keyboard-response,181,1120219,0.0-15.0-1.8,64143,List2B,black,woman,,,,null,,,,
null,is fighting,,html-keyboard-response,182,1122220,0.0-15.0-2.8,64143,List2B,black,woman,,,,null,,,,
4889,,,survey-text,183,1127109,0.0-15.0-3.8,64143,List2B,black,woman,,,,,"{""Q0"":""jane is fighting dave""}","<img src=""stim_listB/fight1.gif""</stim_listB>",is fighting,
null,"<div style=""font-size:60px;"">+</div>",,html-keyboard-response,184,1127623,0.0-15.0-0.9,64143,List2B,black,woman,,,,null,,,,
null,"<img src=""stim_listB/fight2.gif""</stim_listB>",,html-keyboard-response,185,1129625,0.0-15.0-1.9,64143,List2B,black,woman,,,,null,,,,
null,are fighting each other,,html-keyboard-response,186,1131640,0.0-15.0-2.9,64143,List2B,black,woman,,,,null,,,,
10483,,,survey-text,187,1142125,0.0-15.0-3.9,64143,List2B,black,woman,,,,,"{""Q0"":""luke and ruth are fighting each other""}","<img src=""stim_listB/fight2.gif""</stim_listB>",are fighting each other,
null,"<div style=""font-size:60px;"">+</div>",,html-keyboard-response,188,1142629,0.0-15.0-0.10,64143,List2B,black,woman,,,,null,,,,
null,"<img src=""stim_listB/argue5.gif""</stim_listB>",,html-keyboard-response,189,1144637,0.0-15.0-1.10,64143,List2B,black,woman,,,,null,,,,
null,is arguing with,,html-keyboard-response,190,1146638,0.0-15.0-2.10,64143,List2B,black,woman,,,,null,,,,
9703,,,survey-text,191,1156343,0.0-15.0-3.10,64143,List2B,black,woman,,,,,"{""Q0"":""dave is arguing with fred""}","<img src=""stim_listB/argue5.gif""</stim_listB>",is arguing with,
null,"<div style=""font-size:60px;"">+</div>",,html-keyboard-response,192,1156849,0.0-15.0-0.11,64143,List2B,black,woman,,,,null,,,,
null,"<img src=""stim_listB/meet1.gif""</stim_listB>",,html-keyboard-response,193,1158858,0.0-15.0-1.11,64143,List2B,black,woman,,,,null,,,,
null,is meeting,,html-keyboard-response,194,1160856,0.0-15.0-2.11,64143,List2B,black,woman,,,,null,,,,
8803,,,survey-text,195,1169660,0.0-15.0-3.11,64143,List2B,black,woman,,,,,"{""Q0"":""dave is meeting jane""}","<img src=""stim_listB/meet1.gif""</stim_listB>",is meeting,
null,"<div style=""font-size:60px;"">+</div>",,html-keyboard-response,196,1170161,0.0-15.0-0.12,64143,List2B,black,woman,,,,null,,,,
null,"<img src=""stim_listB/meet6.gif""</stim_listB>",,html-keyboard-response,197,1172169,0.0-15.0-1.12,64143,List2B,black,woman,,,,null,,,,
null,are meeting each other,,html-keyboard-response,198,1174161,0.0-15.0-2.12,64143,List2B,black,woman,,,,null,,,,
7413,,,survey-text,199,1181575,0.0-15.0-3.12,64143,List2B,black,woman,,,,,"{""Q0"":""fred and luke are meeting each other""}","<img src=""stim_listB/meet6.gif""</stim_listB>",are meeting each other,
null,"<div style=""font-size:60px;"">+</div>",,html-keyboard-response,200,1182088,0.0-15.0-0.13,64143,List2B,black,woman,,,,null,,,,
null,"<img src=""stim_listB/argue8.gif""</stim_listB>",,html-keyboard-response,201,1184092,0.0-15.0-1.13,64143,List2B,black,woman,,,,null,,,,
null,are arguing with each other,,html-keyboard-response,202,1186093,0.0-15.0-2.13,64143,List2B,black,woman,,,,null,,,,
7568,,,survey-text,203,1193662,0.0-15.0-3.13,64143,List2B,black,woman,,,,,"{""Q0"":""kate and ruth are arguing with each other""}","<img src=""stim_listB/argue8.gif""</stim_listB>",are arguing with each other,
null,"<div style=""font-size:60px;"">+</div>",,html-keyboard-response,204,1194167,0.0-15.0-0.14,64143,List2B,black,woman,,,,null,,,,
null,"<img src=""stim_listB/touch4.gif""</stim_listB>",,html-keyboard-response,205,1196184,0.0-15.0-1.14,64143,List2B,black,woman,,,,null,,,,
null,are touching each other,,html-keyboard-response,206,1198169,0.0-15.0-2.14,64143,List2B,black,woman,,,,null,,,,
9292,,,survey-text,207,1207463,0.0-15.0-3.14,64143,List2B,black,woman,,,,,"{""Q0"":""beth and fred are touching each other""}","<img src=""stim_listB/touch4.gif""</stim_listB>",are touching each other,
null,"<div style=""font-size:60px;"">+</div>",,html-keyboard-response,208,1207978,0.0-15.0-0.15,64143,List2B,black,woman,,,,null,,,,
null,"<img src=""stim_listB/talk6.gif""</stim_listB>",,html-keyboard-response,209,1209986,0.0-15.0-1.15,64143,List2B,black,woman,,,,null,,,,
null,are talking to each other,,html-keyboard-response,210,1211985,0.0-15.0-2.15,64143,List2B,black,woman,,,,null,,,,
9430,,,survey-text,211,1221417,0.0-15.0-3.15,64143,List2B,black,woman,,,,,"{""Q0"":""fred and dave are talking to each other""}","<img src=""stim_listB/talk6.gif""</stim_listB>",are talking to each other,
null,"<div style=""font-size:60px;"">+</div>",,html-keyboard-response,212,1221928,0.0-15.0-0.16,64143,List2B,black,woman,,,,null,,,,
null,"<img src=""stim_listB/kiss4.gif""</stim_listB>",,html-keyboard-response,213,1223935,0.0-15.0-1.16,64143,List2B,black,woman,,,,null,,,,
null,are kissing each other,,html-keyboard-response,214,1225939,0.0-15.0-2.16,64143,List2B,black,woman,,,,null,,,,
7251,,,survey-text,215,1233191,0.0-15.0-3.16,64143,List2B,black,woman,,,,,"{""Q0"":""mike and kate are kissing each other""}","<img src=""stim_listB/kiss4.gif""</stim_listB>",are kissing each other,
null,"<div style=""font-size:60px;"">+</div>",,html-keyboard-response,216,1233695,0.0-15.0-0.17,64143,List2B,black,woman,,,,null,,,,
null,"<img src=""stim_listB/talk8.gif""</stim_listB>",,html-keyboard-response,217,1235704,0.0-15.0-1.17,64143,List2B,black,woman,,,,null,,,,
null,are talking to each other,,html-keyboard-response,218,1237707,0.0-15.0-2.17,64143,List2B,black,woman,,,,null,,,,
10111,,,survey-text,219,1247819,0.0-15.0-3.17,64143,List2B,black,woman,,,,,"{""Q0"":""jane and beth are talking to each other""}","<img src=""stim_listB/talk8.gif""</stim_listB>",are talking to each other,
null,"<div style=""font-size:60px;"">+</div>",,html-keyboard-response,220,1248327,0.0-15.0-0.18,64143,List2B,black,woman,,,,null,,,,
null,"<img src=""stim_listB/shout1.gif""</stim_listB>",,html-keyboard-response,221,1250330,0.0-15.0-1.18,64143,List2B,black,woman,,,,null,,,,
null,is shouting at,,html-keyboard-response,222,1252331,0.0-15.0-2.18,64143,List2B,black,woman,,,,null,,,,
6786,,,survey-text,223,1259119,0.0-15.0-3.18,64143,List2B,black,woman,,,,,"{""Q0"":""luke is shouting and ruth""}","<img src=""stim_listB/shout1.gif""</stim_listB>",is shouting at,
null,"<div style=""font-size:60px;"">+</div>",,html-keyboard-response,224,1259640,0.0-15.0-0.19,64143,List2B,black,woman,,,,null,,,,
null,"<img src=""stim_listB/hug3.gif""</stim_listB>",,html-keyboard-response,225,1261639,0.0-15.0-1.19,64143,List2B,black,woman,,,,null,,,,
null,is hugging,,html-keyboard-response,226,1263641,0.0-15.0-2.19,64143,List2B,black,woman,,,,null,,,,
5636,,,survey-text,227,1269279,0.0-15.0-3.19,64143,List2B,black,woman,,,,,"{""Q0"":""kate is hugging fred""}","<img src=""stim_listB/hug3.gif""</stim_listB>",is hugging,
2576,"<img src='img/portrait_matrix_list2.JPG' style='width:900px;height:500px;''></img><p>If you have memorised all the portraits and names and are ready to start, press Continue.</p><p><strong>Please note: Your memory of these faces will be tested 4 times during this experiment.</strong></p>",0,html-button-response,228,1271857,0.0-16.0-0.0,64143,List2B,black,woman,,,,,,,,
2374,"<img src=""portrait/BW2.jpg""style=""width:400px;height:400px;""></img>",2,html-button-response,229,1275247,0.0-16.0-1.0,64143,List2B,black,woman,,TRUE,2,,,,,
null,CORRECT,,html-keyboard-response,230,1276764,0.0-16.0-2.0-0.0,64143,List2B,black,woman,,,,null,,,,
1516,"<img src=""portrait/WM2.jpg""style=""width:400px;height:400px;""></img>",7,html-button-response,231,1278282,0.0-16.0-4.0,64143,List2B,black,woman,,TRUE,7,,,,,
null,CORRECT,,html-keyboard-response,232,1279798,0.0-16.0-5.0-0.0,64143,List2B,black,woman,,,,null,,,,
1781,"<img src=""portrait/WW1.jpg""style=""width:400px;height:400px;""></img>",1,html-button-response,233,1281580,0.0-16.0-7.0,64143,List2B,black,woman,,TRUE,1,,,,,
null,CORRECT,,html-keyboard-response,234,1283107,0.0-16.0-8.0-0.0,64143,List2B,black,woman,,,,null,,,,
1442,"<img src=""portrait/BM2.jpg""style=""width:400px;height:400px;""></img>",5,html-button-response,235,1284551,0.0-16.0-10.0,64143,List2B,black,woman,,TRUE,5,,,,,
null,CORRECT,,html-keyboard-response,236,1286062,0.0-16.0-11.0-0.0,64143,List2B,black,woman,,,,null,,,,
1547,"<img src=""portrait/WW2.jpg""style=""width:400px;height:400px;""></img>",3,html-button-response,237,1287611,0.0-16.0-13.0,64143,List2B,black,woman,,TRUE,3,,,,,
null,CORRECT,,html-keyboard-response,238,1289123,0.0-16.0-14.0-0.0,64143,List2B,black,woman,,,,null,,,,
1712,"<img src=""portrait/WM1.jpg""style=""width:400px;height:400px;""></img>",6,html-button-response,239,1290836,0.0-16.0-16.0,64143,List2B,black,woman,,TRUE,6,,,,,
null,CORRECT,,html-keyboard-response,240,1292345,0.0-16.0-17.0-0.0,64143,List2B,black,woman,,,,null,,,,
3086,"<img src=""portrait/BW1.jpg""style=""width:400px;height:400px;""></img>",0,html-button-response,241,1295432,0.0-16.0-19.0,64143,List2B,black,woman,,TRUE,0,,,,,
null,CORRECT,,html-keyboard-response,242,1296951,0.0-16.0-20.0-0.0,64143,List2B,black,woman,,,,null,,,,
1461,"<img src=""portrait/BM1.jpg""style=""width:400px;height:400px;""></img>",4,html-button-response,243,1298412,0.0-16.0-22.0,64143,List2B,black,woman,,TRUE,4,,,,,
null,CORRECT,,html-keyboard-response,244,1299938,0.0-16.0-23.0-0.0,64143,List2B,black,woman,,,,null,,,,
1291,<p>You got 8 out of 8 right first time. Press Continue.</p>,0,html-button-response,245,1301230,0.0-16.0-25.0,64143,List2B,black,woman,,,,,,,,
null,"<div style=""font-size:60px;"">+</div>",,html-keyboard-response,246,1302748,0.0-17.0-0.0,64143,List2B,black,woman,,,,null,,,,
null,"<img src=""stim_listB/dance8.gif""</stim_listB>",,html-keyboard-response,247,1304765,0.0-17.0-1.0,64143,List2B,black,woman,,,,null,,,,
null,are dancing with each other,,html-keyboard-response,248,1306750,0.0-17.0-2.0,64143,List2B,black,woman,,,,null,,,,
9617,,,survey-text,249,1316369,0.0-17.0-3.0,64143,List2B,black,woman,,,,,"{""Q0"":""beth and jane are dancing together""}","<img src=""stim_listB/dance8.gif""</stim_listB>",are dancing with each other,
null,"<div style=""font-size:60px;"">+</div>",,html-keyboard-response,250,1316890,0.0-17.0-0.1,64143,List2B,black,woman,,,,null,,,,
null,"<img src=""stim_listB/argue6.gif""</stim_listB>",,html-keyboard-response,251,1318906,0.0-17.0-1.1,64143,List2B,black,woman,,,,null,,,,
null,are arguing with each other,,html-keyboard-response,252,1320896,0.0-17.0-2.1,64143,List2B,black,woman,,,,null,,,,
7336,,,survey-text,253,1328232,0.0-17.0-3.1,64143,List2B,black,woman,,,,,"{""Q0"":""luke and mike are arguing with each other""}","<img src=""stim_listB/argue6.gif""</stim_listB>",are arguing with each other,
null,"<div style=""font-size:60px;"">+</div>",,html-keyboard-response,254,1328748,0.0-17.0-0.2,64143,List2B,black,woman,,,,null,,,,
null,"<img src=""stim_listB/fight5.gif""</stim_listB>",,html-keyboard-response,255,1330750,0.0-17.0-1.2,64143,List2B,black,woman,,,,null,,,,
null,is fighting,,html-keyboard-response,256,1332756,0.0-17.0-2.2,64143,List2B,black,woman,,,,null,,,,
4797,,,survey-text,257,1337554,0.0-17.0-3.2,64143,List2B,black,woman,,,,,"{""Q0"":""dave is fighting fred""}","<img src=""stim_listB/fight5.gif""</stim_listB>",is fighting,
null,"<div style=""font-size:60px;"">+</div>",,html-keyboard-response,258,1338062,0.0-17.0-0.3,64143,List2B,black,woman,,,,null,,,,
null,"<img src=""stim_listB/meet4.gif""</stim_listB>",,html-keyboard-response,259,1340074,0.0-17.0-1.3,64143,List2B,black,woman,,,,null,,,,
null,are meeting each other,,html-keyboard-response,260,1342077,0.0-17.0-2.3,64143,List2B,black,woman,,,,null,,,,
8348,,,survey-text,261,1350426,0.0-17.0-3.3,64143,List2B,black,woman,,,,,"{""Q0"":""beth and fred are meeting each other""}","<img src=""stim_listB/meet4.gif""</stim_listB>",are meeting each other,
null,"<div style=""font-size:60px;"">+</div>",,html-keyboard-response,262,1350933,0.0-17.0-0.4,64143,List2B,black,woman,,,,null,,,,
null,"<img src=""stim_listB/dance5.gif""</stim_listB>",,html-keyboard-response,263,1352965,0.0-17.0-1.4,64143,List2B,black,woman,,,,null,,,,
null,is dancing with,,html-keyboard-response,264,1354937,0.0-17.0-2.4,64143,List2B,black,woman,,,,null,,,,
6419,,,survey-text,265,1361357,0.0-17.0-3.4,64143,List2B,black,woman,,,,,"{""Q0"":""luke is dancing with mike""}","<img src=""stim_listB/dance5.gif""</stim_listB>",is dancing with,
null,"<div style=""font-size:60px;"">+</div>",,html-keyboard-response,266,1361868,0.0-17.0-0.5,64143,List2B,black,woman,,,,null,,,,
null,"<img src=""stim_listB/fight7.gif""</stim_listB>",,html-keyboard-response,267,1363873,0.0-17.0-1.5,64143,List2B,black,woman,,,,null,,,,
null,is fighting,,html-keyboard-response,268,1365880,0.0-17.0-2.5,64143,List2B,black,woman,,,,null,,,,
5210,,,survey-text,269,1371093,0.0-17.0-3.5,64143,List2B,black,woman,,,,,"{""Q0"":""jane is fighting kate""}","<img src=""stim_listB/fight7.gif""</stim_listB>",is fighting,
null,"<div style=""font-size:60px;"">+</div>",,html-keyboard-response,270,1371610,0.0-17.0-0.6,64143,List2B,black,woman,,,,null,,,,
null,"<img src=""stim_listB/touch5.gif""</stim_listB>",,html-keyboard-response,271,1373624,0.0-17.0-1.6,64143,List2B,black,woman,,,,null,,,,
null,is touching,,html-keyboard-response,272,1375626,0.0-17.0-2.6,64143,List2B,black,woman,,,,null,,,,
5153,,,survey-text,273,1380781,0.0-17.0-3.6,64143,List2B,black,woman,,,,,"{""Q0"":""dave is touching mike""}","<img src=""stim_listB/touch5.gif""</stim_listB>",is touching,
null,"<div style=""font-size:60px;"">+</div>",,html-keyboard-response,274,1381308,0.0-17.0-0.7,64143,List2B,black,woman,,,,null,,,,
null,"<img src=""stim_listB/talk2.gif""</stim_listB>",,html-keyboard-response,275,1383311,0.0-17.0-1.7,64143,List2B,black,woman,,,,null,,,,
null,are talking to each other,,html-keyboard-response,276,1385320,0.0-17.0-2.7,64143,List2B,black,woman,,,,null,,,,
9391,,,survey-text,277,1394713,0.0-17.0-3.7,64143,List2B,black,woman,,,,,"{""Q0"":""dave and ruth are talking to each other""}","<img src=""stim_listB/talk2.gif""</stim_listB>",are talking to each other,
null,"<div style=""font-size:60px;"">+</div>",,html-keyboard-response,278,1395225,0.0-17.0-0.8,64143,List2B,black,woman,,,,null,,,,
null,"<img src=""stim_listB/hug2.gif""</stim_listB>",,html-keyboard-response,279,1397231,0.0-17.0-1.8,64143,List2B,black,woman,,,,null,,,,
null,are hugging each other,,html-keyboard-response,280,1399231,0.0-17.0-2.8,64143,List2B,black,woman,,,,null,,,,
7072,,,survey-text,281,1406305,0.0-17.0-3.8,64143,List2B,black,woman,,,,,"{""Q0"":""jane and dave are hugging each other""}","<img src=""stim_listB/hug2.gif""</stim_listB>",are hugging each other,
null,"<div style=""font-size:60px;"">+</div>",,html-keyboard-response,282,1406806,0.0-17.0-0.9,64143,List2B,black,woman,,,,null,,,,
null,"<img src=""stim_listB/marry3.gif""</stim_listB>",,html-keyboard-response,283,1408814,0.0-17.0-1.9,64143,List2B,black,woman,,,,null,,,,
null,is marrying,,html-keyboard-response,284,1410808,0.0-17.0-2.9,64143,List2B,black,woman,,,,null,,,,
6484,,,survey-text,285,1417293,0.0-17.0-3.9,64143,List2B,black,woman,,,,,"{""Q0"":""beth is marrying mike""}","<img src=""stim_listB/marry3.gif""</stim_listB>",is marrying,
null,"<div style=""font-size:60px;"">+</div>",,html-keyboard-response,286,1417806,0.0-17.0-0.10,64143,List2B,black,woman,,,,null,,,,
null,"<img src=""stim_listB/hug7.gif""</stim_listB>",,html-keyboard-response,287,1419812,0.0-17.0-1.10,64143,List2B,black,woman,,,,null,,,,
null,is hugging,,html-keyboard-response,288,1421806,0.0-17.0-2.10,64143,List2B,black,woman,,,,null,,,,
5491,,,survey-text,289,1427299,0.0-17.0-3.10,64143,List2B,black,woman,,,,,"{""Q0"":""ruth is hugging beth""}","<img src=""stim_listB/hug7.gif""</stim_listB>",is hugging,
null,"<div style=""font-size:60px;"">+</div>",,html-keyboard-response,290,1427813,0.0-17.0-0.11,64143,List2B,black,woman,,,,null,,,,
null,"<img src=""stim_listB/marry5.gif""</stim_listB>",,html-keyboard-response,291,1429826,0.0-17.0-1.11,64143,List2B,black,woman,,,,null,,,,
null,is marrying,,html-keyboard-response,292,1431828,0.0-17.0-2.11,64143,List2B,black,woman,,,,null,,,,
8761,,,survey-text,293,1440590,0.0-17.0-3.11,64143,List2B,black,woman,,,,,"{""Q0"":""fred is marrying dave""}","<img src=""stim_listB/marry5.gif""</stim_listB>",is marrying,
null,"<div style=""font-size:60px;"">+</div>",,html-keyboard-response,294,1441103,0.0-17.0-0.12,64143,List2B,black,woman,,,,null,,,,
null,"<img src=""stim_listB/talk1.gif""</stim_listB>",,html-keyboard-response,295,1443105,0.0-17.0-1.12,64143,List2B,black,woman,,,,null,,,,
null,is talking to,,html-keyboard-response,296,1445106,0.0-17.0-2.12,64143,List2B,black,woman,,,,null,,,,
6008,,,survey-text,297,1451115,0.0-17.0-3.12,64143,List2B,black,woman,,,,,"{""Q0"":""luke is talking to jane""}","<img src=""stim_listB/talk1.gif""</stim_listB>",is talking to,
null,"<div style=""font-size:60px;"">+</div>",,html-keyboard-response,298,1451618,0.0-17.0-0.13,64143,List2B,black,woman,,,,null,,,,
null,"<img src=""stim_listB/argue4.gif""</stim_listB>",,html-keyboard-response,299,1453625,0.0-17.0-1.13,64143,List2B,black,woman,,,,null,,,,
null,are arguing with each other,,html-keyboard-response,300,1455631,0.0-17.0-2.13,64143,List2B,black,woman,,,,null,,,,
8302,,,survey-text,301,1463934,0.0-17.0-3.13,64143,List2B,black,woman,,,,,"{""Q0"":""kate and fred are arguing with each other""}","<img src=""stim_listB/argue4.gif""</stim_listB>",are arguing with each other,
null,"<div style=""font-size:60px;"">+</div>",,html-keyboard-response,302,1464437,0.0-17.0-0.14,64143,List2B,black,woman,,,,null,,,,
null,"<img src=""stim_listB/meet3.gif""</stim_listB>",,html-keyboard-response,303,1466452,0.0-17.0-1.14,64143,List2B,black,woman,,,,null,,,,
null,is meeting,,html-keyboard-response,304,1468446,0.0-17.0-2.14,64143,List2B,black,woman,,,,null,,,,
4861,,,survey-text,305,1473309,0.0-17.0-3.14,64143,List2B,black,woman,,,,,"{""Q0"":""kate is meeting mike""}","<img src=""stim_listB/meet3.gif""</stim_listB>",is meeting,
null,"<div style=""font-size:60px;"">+</div>",,html-keyboard-response,306,1473818,0.0-17.0-0.15,64143,List2B,black,woman,,,,null,,,,
null,"<img src=""stim_listB/hug5.gif""</stim_listB>",,html-keyboard-response,307,1475826,0.0-17.0-1.15,64143,List2B,black,woman,,,,null,,,,
null,is hugging,,html-keyboard-response,308,1477823,0.0-17.0-2.15,64143,List2B,black,woman,,,,null,,,,
6053,,,survey-text,309,1483877,0.0-17.0-3.15,64143,List2B,black,woman,,,,,"{""Q0"":""fred is hugging luke""}","<img src=""stim_listB/hug5.gif""</stim_listB>",is hugging,
null,"<div style=""font-size:60px;"">+</div>",,html-keyboard-response,310,1484389,0.0-17.0-0.16,64143,List2B,black,woman,,,,null,,,,
null,"<img src=""stim_listB/argue1.gif""</stim_listB>",,html-keyboard-response,311,1486405,0.0-17.0-1.16,64143,List2B,black,woman,,,,null,,,,
null,is arguing with,,html-keyboard-response,312,1488405,0.0-17.0-2.16,64143,List2B,black,woman,,,,null,,,,
8619,,,survey-text,313,1497024,0.0-17.0-3.16,64143,List2B,black,woman,,,,,"{""Q0"":""dave is arguing with ruth""}","<img src=""stim_listB/argue1.gif""</stim_listB>",is arguing with,
null,"<div style=""font-size:60px;"">+</div>",,html-keyboard-response,314,1497527,0.0-17.0-0.17,64143,List2B,black,woman,,,,null,,,,
null,"<img src=""stim_listB/shout4.gif""</stim_listB>",,html-keyboard-response,315,1499531,0.0-17.0-1.17,64143,List2B,black,woman,,,,null,,,,
null,are shouting at each other,,html-keyboard-response,316,1501532,0.0-17.0-2.17,64143,List2B,black,woman,,,,null,,,,
8199,,,survey-text,317,1509732,0.0-17.0-3.17,64143,List2B,black,woman,,,,,"{""Q0"":""mike and kate are shouting at each other""}","<img src=""stim_listB/shout4.gif""</stim_listB>",are shouting at each other,
null,"<div style=""font-size:60px;"">+</div>",,html-keyboard-response,318,1510239,0.0-17.0-0.18,64143,List2B,black,woman,,,,null,,,,
null,"<img src=""stim_listB/dance6.gif""</stim_listB>",,html-keyboard-response,319,1512250,0.0-17.0-1.18,64143,List2B,black,woman,,,,null,,,,
null,are dancing with each other,,html-keyboard-response,320,1514253,0.0-17.0-2.18,64143,List2B,black,woman,,,,null,,,,
6627,,,survey-text,321,1520880,0.0-17.0-3.18,64143,List2B,black,woman,,,,,"{""Q0"":""dave and fred are dancing with each other""}","<img src=""stim_listB/dance6.gif""</stim_listB>",are dancing with each other,
null,"<div style=""font-size:60px;"">+</div>",,html-keyboard-response,322,1521389,0.0-17.0-0.19,64143,List2B,black,woman,,,,null,,,,
null,"<img src=""stim_listB/touch3.gif""</stim_listB>",,html-keyboard-response,323,1523406,0.0-17.0-1.19,64143,List2B,black,woman,,,,null,,,,
null,is touching,,html-keyboard-response,324,1525389,0.0-17.0-2.19,64143,List2B,black,woman,,,,null,,,,
6470,,,survey-text,325,1531861,0.0-17.0-3.19,64143,List2B,black,woman,,,,,"{""Q0"":""mike is touching kate""}","<img src=""stim_listB/touch3.gif""</stim_listB>",is touching,
1714,"<img src='img/portrait_matrix_list2.JPG' style='width:900px;height:500px;''></img><p>If you have memorised all the portraits and names and are ready to start, press Continue.</p><p><strong>Please note: Your memory of these faces will be tested 4 times during this experiment.</strong></p>",0,html-button-response,326,1533576,0.0-18.0-0.0,64143,List2B,black,woman,,,,,,,,
1473,"<img src=""portrait/BW1.jpg""style=""width:400px;height:400px;""></img>",0,html-button-response,327,1536052,0.0-18.0-1.0,64143,List2B,black,woman,,TRUE,0,,,,,
null,CORRECT,,html-keyboard-response,328,1537571,0.0-18.0-2.0-0.0,64143,List2B,black,woman,,,,null,,,,
1666,"<img src=""portrait/WM1.jpg""style=""width:400px;height:400px;""></img>",6,html-button-response,329,1539238,0.0-18.0-4.0,64143,List2B,black,woman,,TRUE,6,,,,,
null,CORRECT,,html-keyboard-response,330,1540755,0.0-18.0-5.0-0.0,64143,List2B,black,woman,,,,null,,,,
1489,"<img src=""portrait/WM2.jpg""style=""width:400px;height:400px;""></img>",7,html-button-response,331,1542246,0.0-18.0-7.0,64143,List2B,black,woman,,TRUE,7,,,,,
null,CORRECT,,html-keyboard-response,332,1543763,0.0-18.0-8.0-0.0,64143,List2B,black,woman,,,,null,,,,
2342,"<img src=""portrait/BW2.jpg""style=""width:400px;height:400px;""></img>",2,html-button-response,333,1546107,0.0-18.0-10.0,64143,List2B,black,woman,,TRUE,2,,,,,
null,CORRECT,,html-keyboard-response,334,1547625,0.0-18.0-11.0-0.0,64143,List2B,black,woman,,,,null,,,,
1280,"<img src=""portrait/WW2.jpg""style=""width:400px;height:400px;""></img>",3,html-button-response,335,1548906,0.0-18.0-13.0,64143,List2B,black,woman,,TRUE,3,,,,,
null,CORRECT,,html-keyboard-response,336,1550420,0.0-18.0-14.0-0.0,64143,List2B,black,woman,,,,null,,,,
3311,"<img src=""portrait/WW1.jpg""style=""width:400px;height:400px;""></img>",1,html-button-response,337,1553732,0.0-18.0-16.0,64143,List2B,black,woman,,TRUE,1,,,,,
null,CORRECT,,html-keyboard-response,338,1555253,0.0-18.0-17.0-0.0,64143,List2B,black,woman,,,,null,,,,
1694,"<img src=""portrait/BM2.jpg""style=""width:400px;height:400px;""></img>",5,html-button-response,339,1556949,0.0-18.0-19.0,64143,List2B,black,woman,,TRUE,5,,,,,
null,CORRECT,,html-keyboard-response,340,1558456,0.0-18.0-20.0-0.0,64143,List2B,black,woman,,,,null,,,,
3882,"<img src=""portrait/BM1.jpg""style=""width:400px;height:400px;""></img>",4,html-button-response,341,1562341,0.0-18.0-22.0,64143,List2B,black,woman,,TRUE,4,,,,,
null,CORRECT,,html-keyboard-response,342,1563859,0.0-18.0-23.0-0.0,64143,List2B,black,woman,,,,null,,,,
1283,<p>You got 8 out of 8 right first time. Press Continue.</p>,0,html-button-response,343,1565143,0.0-18.0-25.0,64143,List2B,black,woman,,,,,,,,
null,"<div style=""font-size:60px;"">+</div>",,html-keyboard-response,344,1566652,0.0-19.0-0.0,64143,List2B,black,woman,,,,null,,,,
null,"<img src=""stim_listB/hug4.gif""</stim_listB>",,html-keyboard-response,345,1568654,0.0-19.0-1.0,64143,List2B,black,woman,,,,null,,,,
null,are hugging each other,,html-keyboard-response,346,1570653,0.0-19.0-2.0,64143,List2B,black,woman,,,,null,,,,
10996,,,survey-text,347,1581650,0.0-19.0-3.0,64143,List2B,black,woman,,,,,"{""Q0"":""kate and mike are hugging each other""}","<img src=""stim_listB/hug4.gif""</stim_listB>",are hugging each other,
null,"<div style=""font-size:60px;"">+</div>",,html-keyboard-response,348,1582173,0.0-19.0-0.1,64143,List2B,black,woman,,,,null,,,,
null,"<img src=""stim_listB/dance1.gif""</stim_listB>",,html-keyboard-response,349,1584184,0.0-19.0-1.1,64143,List2B,black,woman,,,,null,,,,
null,is dancing with,,html-keyboard-response,350,1586175,0.0-19.0-2.1,64143,List2B,black,woman,,,,null,,,,
7923,,,survey-text,351,1594101,0.0-19.0-3.1,64143,List2B,black,woman,,,,,"{""Q0"":""jane is dancing with luke""}","<img src=""stim_listB/dance1.gif""</stim_listB>",is dancing with,
null,"<div style=""font-size:60px;"">+</div>",,html-keyboard-response,352,1594606,0.0-19.0-0.2,64143,List2B,black,woman,,,,null,,,,
null,"<img src=""stim_listB/meet5.gif""</stim_listB>",,html-keyboard-response,353,1596609,0.0-19.0-1.2,64143,List2B,black,woman,,,,null,,,,
null,is meeting,,html-keyboard-response,354,1598611,0.0-19.0-2.2,64143,List2B,black,woman,,,,null,,,,
7398,,,survey-text,355,1606010,0.0-19.0-3.2,64143,List2B,black,woman,,,,,"{""Q0"":""mike is meeting dave""}","<img src=""stim_listB/meet5.gif""</stim_listB>",is meeting,
null,"<div style=""font-size:60px;"">+</div>",,html-keyboard-response,356,1606523,0.0-19.0-0.3,64143,List2B,black,woman,,,,null,,,,
null,"<img src=""stim_listB/shout7.gif""</stim_listB>",,html-keyboard-response,357,1608533,0.0-19.0-1.3,64143,List2B,black,woman,,,,null,,,,
null,is shouting at,,html-keyboard-response,358,1610536,0.0-19.0-2.3,64143,List2B,black,woman,,,,null,,,,
6186,,,survey-text,359,1616724,0.0-19.0-3.3,64143,List2B,black,woman,,,,,"{""Q0"":""beth is shouting at ruth""}","<img src=""stim_listB/shout7.gif""</stim_listB>",is shouting at,
null,"<div style=""font-size:60px;"">+</div>",,html-keyboard-response,360,1617231,0.0-19.0-0.4,64143,List2B,black,woman,,,,null,,,,
null,"<img src=""stim_listB/dance4.gif""</stim_listB>",,html-keyboard-response,361,1619234,0.0-19.0-1.4,64143,List2B,black,woman,,,,null,,,,
null,are dancing with each other,,html-keyboard-response,362,1621240,0.0-19.0-2.4,64143,List2B,black,woman,,,,null,,,,
10332,,,survey-text,363,1631572,0.0-19.0-3.4,64143,List2B,black,woman,,,,,"{""Q0"":""beth and mike are dancing together""}","<img src=""stim_listB/dance4.gif""</stim_listB>",are dancing with each other,
null,"<div style=""font-size:60px;"">+</div>",,html-keyboard-response,364,1632075,0.0-19.0-0.5,64143,List2B,black,woman,,,,null,,,,
null,"<img src=""stim_listB/talk4.gif""</stim_listB>",,html-keyboard-response,365,1634077,0.0-19.0-1.5,64143,List2B,black,woman,,,,null,,,,
null,are talking to each other,,html-keyboard-response,366,1636078,0.0-19.0-2.5,64143,List2B,black,woman,,,,null,,,,
7607,,,survey-text,367,1643686,0.0-19.0-3.5,64143,List2B,black,woman,,,,,"{""Q0"":""mike and beth are talking to each other""}","<img src=""stim_listB/talk4.gif""</stim_listB>",are talking to each other,
null,"<div style=""font-size:60px;"">+</div>",,html-keyboard-response,368,1644195,0.0-19.0-0.6,64143,List2B,black,woman,,,,null,,,,
null,"<img src=""stim_listB/kiss7.gif""</stim_listB>",,html-keyboard-response,369,1646203,0.0-19.0-1.6,64143,List2B,black,woman,,,,null,,,,
null,is kissing,,html-keyboard-response,370,1648218,0.0-19.0-2.6,64143,List2B,black,woman,,,,null,,,,
7418,,,survey-text,371,1655638,0.0-19.0-3.6,64143,List2B,black,woman,,,,,"{""Q0"":""beth is kissing ruth""}","<img src=""stim_listB/kiss7.gif""</stim_listB>",is kissing,
null,"<div style=""font-size:60px;"">+</div>",,html-keyboard-response,372,1656142,0.0-19.0-0.7,64143,List2B,black,woman,,,,null,,,,
null,"<img src=""stim_listB/marry4.gif""</stim_listB>",,html-keyboard-response,373,1658150,0.0-19.0-1.7,64143,List2B,black,woman,,,,null,,,,
null,are marrying each other,,html-keyboard-response,374,1660157,0.0-19.0-2.7,64143,List2B,black,woman,,,,null,,,,
7317,,,survey-text,375,1667476,0.0-19.0-3.7,64143,List2B,black,woman,,,,,"{""Q0"":""kate and fred are marrying each other""}","<img src=""stim_listB/marry4.gif""</stim_listB>",are marrying each other,
null,"<div style=""font-size:60px;"">+</div>",,html-keyboard-response,376,1667977,0.0-19.0-0.8,64143,List2B,black,woman,,,,null,,,,
null,"<img src=""stim_listB/marry2.gif""</stim_listB>",,html-keyboard-response,377,1669983,0.0-19.0-1.8,64143,List2B,black,woman,,,,null,,,,
null,are marrying each other,,html-keyboard-response,378,1671979,0.0-19.0-2.8,64143,List2B,black,woman,,,,null,,,,
9922,,,survey-text,379,1681903,0.0-19.0-3.8,64143,List2B,black,woman,,,,,"{""Q0"":""jane and luke are marrying each other""}","<img src=""stim_listB/marry2.gif""</stim_listB>",are marrying each other,
null,"<div style=""font-size:60px;"">+</div>",,html-keyboard-response,380,1682415,0.0-19.0-0.9,64143,List2B,black,woman,,,,null,,,,
null,"<img src=""stim_listB/talk5.gif""</stim_listB>",,html-keyboard-response,381,1684417,0.0-19.0-1.9,64143,List2B,black,woman,,,,null,,,,
null,is talking to,,html-keyboard-response,382,1686416,0.0-19.0-2.9,64143,List2B,black,woman,,,,null,,,,
4585,,,survey-text,383,1691002,0.0-19.0-3.9,64143,List2B,black,woman,,,,,"{""Q0"":""luke is talking to mike""}","<img src=""stim_listB/talk5.gif""</stim_listB>",is talking to,
null,"<div style=""font-size:60px;"">+</div>",,html-keyboard-response,384,1691515,0.0-19.0-0.10,64143,List2B,black,woman,,,,null,,,,
null,"<img src=""stim_listB/marry6.gif""</stim_listB>",,html-keyboard-response,385,1693528,0.0-19.0-1.10,64143,List2B,black,woman,,,,null,,,,
null,are marrying each other,,html-keyboard-response,386,1695530,0.0-19.0-2.10,64143,List2B,black,woman,,,,null,,,,
7273,,,survey-text,387,1702806,0.0-19.0-3.10,64143,List2B,black,woman,,,,,"{""Q0"":""luke and mike are marrying each other""}","<img src=""stim_listB/marry6.gif""</stim_listB>",are marrying each other,
null,"<div style=""font-size:60px;"">+</div>",,html-keyboard-response,388,1703311,0.0-19.0-0.11,64143,List2B,black,woman,,,,null,,,,
null,"<img src=""stim_listB/touch8.gif""</stim_listB>",,html-keyboard-response,389,1705313,0.0-19.0-1.11,64143,List2B,black,woman,,,,null,,,,
null,are touching each other,,html-keyboard-response,390,1707322,0.0-19.0-2.11,64143,List2B,black,woman,,,,null,,,,
6512,,,survey-text,391,1713836,0.0-19.0-3.11,64143,List2B,black,woman,,,,,"{""Q0"":""beth and ruth are touching each other""}","<img src=""stim_listB/touch8.gif""</stim_listB>",are touching each other,
null,"<div style=""font-size:60px;"">+</div>",,html-keyboard-response,392,1714346,0.0-19.0-0.12,64143,List2B,black,woman,,,,null,,,,
null,"<img src=""stim_listB/touch2.gif""</stim_listB>",,html-keyboard-response,393,1716358,0.0-19.0-1.12,64143,List2B,black,woman,,,,null,,,,
null,are touching each other,,html-keyboard-response,394,1718360,0.0-19.0-2.12,64143,List2B,black,woman,,,,null,,,,
11437,,,survey-text,395,1729798,0.0-19.0-3.12,64143,List2B,black,woman,,,,,"{""Q0"":""luke and ruth are touching each other""}","<img src=""stim_listB/touch2.gif""</stim_listB>",are touching each other,
null,"<div style=""font-size:60px;"">+</div>",,html-keyboard-response,396,1730312,0.0-19.0-0.13,64143,List2B,black,woman,,,,null,,,,
null,"<img src=""stim_listB/shout8.gif""</stim_listB>",,html-keyboard-response,397,1732328,0.0-19.0-1.13,64143,List2B,black,woman,,,,null,,,,
null,are shouting at each other,,html-keyboard-response,398,1734320,0.0-19.0-2.13,64143,List2B,black,woman,,,,null,,,,
6978,,,survey-text,399,1741299,0.0-19.0-3.13,64143,List2B,black,woman,,,,,"{""Q0"":""jane and kate are shouting at each other""}","<img src=""stim_listB/shout8.gif""</stim_listB>",are shouting at each other,
null,"<div style=""font-size:60px;"">+</div>",,html-keyboard-response,400,1741812,0.0-19.0-0.14,64143,List2B,black,woman,,,,null,,,,
null,"<img src=""stim_listB/shout3.gif""</stim_listB>",,html-keyboard-response,401,1743827,0.0-19.0-1.14,64143,List2B,black,woman,,,,null,,,,
null,is shouting at,,html-keyboard-response,402,1745821,0.0-19.0-2.14,64143,List2B,black,woman,,,,null,,,,
7484,,,survey-text,403,1753306,0.0-19.0-3.14,64143,List2B,black,woman,,,,,"{""Q0"":""fred is shoouting at beth""}","<img src=""stim_listB/shout3.gif""</stim_listB>",is shouting at,
null,"<div style=""font-size:60px;"">+</div>",,html-keyboard-response,404,1753819,0.0-19.0-0.15,64143,List2B,black,woman,,,,null,,,,
null,"<img src=""stim_listB/hug8.gif""</stim_listB>",,html-keyboard-response,405,1755827,0.0-19.0-1.15,64143,List2B,black,woman,,,,null,,,,
null,are hugging each other,,html-keyboard-response,406,1757824,0.0-19.0-2.15,64143,List2B,black,woman,,,,null,,,,
6465,,,survey-text,407,1764290,0.0-19.0-3.15,64143,List2B,black,woman,,,,,"{""Q0"":""kate and jane are hugging each other""}","<img src=""stim_listB/hug8.gif""</stim_listB>",are hugging each other,
null,"<div style=""font-size:60px;"">+</div>",,html-keyboard-response,408,1764809,0.0-19.0-0.16,64143,List2B,black,woman,,,,null,,,,
null,"<img src=""stim_listB/argue3.gif""</stim_listB>",,html-keyboard-response,409,1766811,0.0-19.0-1.16,64143,List2B,black,woman,,,,null,,,,
null,is arguing with,,html-keyboard-response,410,1768812,0.0-19.0-2.16,64143,List2B,black,woman,,,,null,,,,
9432,,,survey-text,411,1778246,0.0-19.0-3.16,64143,List2B,black,woman,,,,,"{""Q0"":""mike and beth are arguing with each other""}","<img src=""stim_listB/argue3.gif""</stim_listB>",is arguing with,
null,"<div style=""font-size:60px;"">+</div>",,html-keyboard-response,412,1778756,0.0-19.0-0.17,64143,List2B,black,woman,,,,null,,,,
null,"<img src=""stim_listB/argue7.gif""</stim_listB>",,html-keyboard-response,413,1780764,0.0-19.0-1.17,64143,List2B,black,woman,,,,null,,,,
null,is arguing with,,html-keyboard-response,414,1782757,0.0-19.0-2.17,64143,List2B,black,woman,,,,null,,,,
5788,,,survey-text,415,1788546,0.0-19.0-3.17,64143,List2B,black,woman,,,,,"{""Q0"":""jane is arguing with beth""}","<img src=""stim_listB/argue7.gif""</stim_listB>",is arguing with,
null,"<div style=""font-size:60px;"">+</div>",,html-keyboard-response,416,1789053,0.0-19.0-0.18,64143,List2B,black,woman,,,,null,,,,
null,"<img src=""stim_listB/shout6.gif""</stim_listB>",,html-keyboard-response,417,1791061,0.0-19.0-1.18,64143,List2B,black,woman,,,,null,,,,
null,are shouting at each other,,html-keyboard-response,418,1793067,0.0-19.0-2.18,64143,List2B,black,woman,,,,null,,,,
7142,,,survey-text,419,1800210,0.0-19.0-3.18,64143,List2B,black,woman,,,,,"{""Q0"":""mike and dave are shouting at each other""}","<img src=""stim_listB/shout6.gif""</stim_listB>",are shouting at each other,
null,"<div style=""font-size:60px;"">+</div>",,html-keyboard-response,420,1800723,0.0-19.0-0.19,64143,List2B,black,woman,,,,null,,,,
null,"<img src=""stim_listB/meet2.gif""</stim_listB>",,html-keyboard-response,421,1802731,0.0-19.0-1.19,64143,List2B,black,woman,,,,null,,,,
null,are meeting each other,,html-keyboard-response,422,1804733,0.0-19.0-2.19,64143,List2B,black,woman,,,,null,,,,
7707,,,survey-text,423,1812440,0.0-19.0-3.19,64143,List2B,black,woman,,,,,"{""Q0"":""ruth and luke are meeting each other""}","<img src=""stim_listB/meet2.gif""</stim_listB>",are meeting each other,
2463,<p>Thank you for completing that task.</p><p>The final part of this session is a short questionnaire.</p><p>Press Continue.</p>,0,html-button-response,424,1814906,0.0-20.0,64143,List2B,black,woman,,,,,,,,
30153,,,survey-text,425,1846072,0.0-21.0,64143,List2B,black,woman,,,,,"{""Q0"":""28"",""Q1"":""english"",""Q2"":""english"",""Q3"":""united states"",""Q4"":""african american"",""Q5"":""female""}",,,demographics
61153,,,survey-likert,426,1907231,0.0-22.0,64143,List2B,black,woman,,,,,"{""Q0"":5,""Q1"":5,""Q2"":5,""Q3"":5,""Q4"":6,""Q5"":6,""Q6"":6,""Q7"":5,""Q8"":5,""Q9"":5,""Q10"":5,""Q11"":2,""Q12"":4,""Q13"":2}",,,likert_race
74463,,,survey-likert,427,1981697,0.0-23.0,64143,List2B,black,woman,,,,,"{""Q0"":5,""Q1"":6,""Q2"":5,""Q3"":5,""Q4"":6,""Q5"":5,""Q6"":5,""Q7"":5,""Q8"":5,""Q9"":5,""Q10"":5,""Q11"":4,""Q12"":4,""Q13"":4}",,,likert_gender
10946,,,survey-text,428,1992646,0.0-24.0,64143,List2B,black,woman,,,,,"{""Q0"":""ccc""}",,,worker_id
35048,,,external-html,429,2027929,0.0-25.0,64143,List2B,black,woman,debrief.html,,,,,,,
