rt,stimulus,button_pressed,trial_type,trial_index,time_elapsed,internal_node_id,subject,list,ppt_race,ppt_gender,url,first_guess,correct,key_press,responses,image_type,phrase_type,test_part
14552,Welcome to the experiment. Press Continue to begin.,0,html-button-response,0,14658,0.0-0.0,64771,List1B,black,man,,,,,,,,
149086,,,external-html,1,165048,0.0-1.0,64771,List1B,black,man,consent.html,,,,,,,
29474,"<p>On the next page, you will see portraits of 8 people and their names.</p><p>Your first task is to take a few minutes to memorise the names of these people.</p><p>You will have to recall their names during the rest of the experiment, so it is</p><p>essential that you try to memorise these people and their names as best as you can.</p><br><p><strong>You will then be tested on your memory of these names and portraits.</strong></p><br><p>The experiment will start after you have completed this memory test.</p><br><p>Ready?</p>",0,html-button-response,2,194535,0.0-2.0,64771,List1B,black,man,,,,,,,,
67460,"<img src='img/portrait_matrix_list1.JPG' style='width:900px;height:500px;''></img><p>If you have memorised all the portraits and names and are ready to start, press Continue.</p><p><strong>Please note: Your memory of these faces will be tested 4 times during this experiment.</strong></p>",0,html-button-response,3,263001,0.0-3.0-0.0,64771,List1B,black,man,,,,,,,,
18340,"<img src=""portrait/WW1.jpg""style=""width:400px;height:400px;""></img>",3,html-button-response,4,282346,0.0-3.0-1.0,64771,List1B,black,man,,TRUE,1,,,,,
7478,"<img src=""portrait/WW1.jpg""style=""width:400px;height:400px;""></img>",1,html-button-response,5,290828,0.0-3.0-3.0-0.0,64771,List1B,black,man,,FALSE,1,,,,,
null,CORRECT,,html-keyboard-response,6,292337,0.0-3.0-3.0-1.0-0.0,64771,List1B,black,man,,,,null,,,,
4789,"<img src=""portrait/WM2.jpg""style=""width:400px;height:400px;""></img>",4,html-button-response,7,297133,0.0-3.0-4.0,64771,List1B,black,man,,TRUE,7,,,,,
5675,"<img src=""portrait/WM2.jpg""style=""width:400px;height:400px;""></img>",7,html-button-response,8,303812,0.0-3.0-6.0-0.0,64771,List1B,black,man,,FALSE,7,,,,,
null,CORRECT,,html-keyboard-response,9,305339,0.0-3.0-6.0-1.0-0.0,64771,List1B,black,man,,,,null,,,,
9019,"<img src=""portrait/WW2.jpg""style=""width:400px;height:400px;""></img>",0,html-button-response,10,314358,0.0-3.0-7.0,64771,List1B,black,man,,TRUE,3,,,,,
3460,"<img src=""portrait/WW2.jpg""style=""width:400px;height:400px;""></img>",3,html-button-response,11,318826,0.0-3.0-9.0-0.0,64771,List1B,black,man,,FALSE,3,,,,,
null,CORRECT,,html-keyboard-response,12,320351,0.0-3.0-9.0-1.0-0.0,64771,List1B,black,man,,,,null,,,,
7085,"<img src=""portrait/WM1.jpg""style=""width:400px;height:400px;""></img>",6,html-button-response,13,327439,0.0-3.0-10.0,64771,List1B,black,man,,TRUE,6,,,,,
null,CORRECT,,html-keyboard-response,14,328942,0.0-3.0-11.0-0.0,64771,List1B,black,man,,,,null,,,,
13007,"<img src=""portrait/BM1.jpg""style=""width:400px;height:400px;""></img>",4,html-button-response,15,341956,0.0-3.0-13.0,64771,List1B,black,man,,TRUE,4,,,,,
null,CORRECT,,html-keyboard-response,16,343458,0.0-3.0-14.0-0.0,64771,List1B,black,man,,,,null,,,,
4182,"<img src=""portrait/BM2.jpg""style=""width:400px;height:400px;""></img>",5,html-button-response,17,347644,0.0-3.0-16.0,64771,List1B,black,man,,TRUE,5,,,,,
null,CORRECT,,html-keyboard-response,18,349148,0.0-3.0-17.0-0.0,64771,List1B,black,man,,,,null,,,,
3782,"<img src=""portrait/BW1.jpg""style=""width:400px;height:400px;""></img>",0,html-button-response,19,352935,0.0-3.0-19.0,64771,List1B,black,man,,TRUE,0,,,,,
null,CORRECT,,html-keyboard-response,20,354447,0.0-3.0-20.0-0.0,64771,List1B,black,man,,,,null,,,,
3242,"<img src=""portrait/BW2.jpg""style=""width:400px;height:400px;""></img>",2,html-button-response,21,357691,0.0-3.0-22.0,64771,List1B,black,man,,TRUE,2,,,,,
null,CORRECT,,html-keyboard-response,22,359195,0.0-3.0-23.0-0.0,64771,List1B,black,man,,,,null,,,,
2209,<p>You got 5 out of 8 right first time. Press Continue.</p>,0,html-button-response,23,361411,0.0-3.0-25.0,64771,List1B,black,man,,,,,,,,
4376,"As you did not score 100%, the memory game will repeat. Press Continue.",0,html-button-response,24,366802,0.0-3.0-26.0-0.0,64771,List1B,black,man,,,,,,,,
145206,"<img src='img/portrait_matrix_list1.JPG' style='width:900px;height:500px;''></img><p>If you have memorised all the portraits and names and are ready to start, press Continue.</p><p><strong>Please note: Your memory of these faces will be tested 4 times during this experiment.</strong></p>",0,html-button-response,25,513016,0.0-3.1-0.1,64771,List1B,black,man,,,,,,,,
7634,"<img src=""portrait/WW1.jpg""style=""width:400px;height:400px;""></img>",3,html-button-response,26,521654,0.0-3.1-1.1,64771,List1B,black,man,,TRUE,1,,,,,
3196,"<img src=""portrait/WW1.jpg""style=""width:400px;height:400px;""></img>",1,html-button-response,27,525851,0.0-3.1-3.1-0.1,64771,List1B,black,man,,FALSE,1,,,,,
null,CORRECT,,html-keyboard-response,28,527354,0.0-3.1-3.1-1.1-0.1,64771,List1B,black,man,,,,null,,,,
5153,"<img src=""portrait/WM2.jpg""style=""width:400px;height:400px;""></img>",7,html-button-response,29,532515,0.0-3.1-4.1,64771,List1B,black,man,,TRUE,7,,,,,
null,CORRECT,,html-keyboard-response,30,534028,0.0-3.1-5.1-0.1,64771,List1B,black,man,,,,null,,,,
1950,"<img src=""portrait/WW2.jpg""style=""width:400px;height:400px;""></img>",3,html-button-response,31,535982,0.0-3.1-7.1,64771,List1B,black,man,,TRUE,3,,,,,
null,CORRECT,,html-keyboard-response,32,537485,0.0-3.1-8.1-0.1,64771,List1B,black,man,,,,null,,,,
5728,"<img src=""portrait/WM1.jpg""style=""width:400px;height:400px;""></img>",6,html-button-response,33,543221,0.0-3.1-10.1,64771,List1B,black,man,,TRUE,6,,,,,
null,CORRECT,,html-keyboard-response,34,544745,0.0-3.1-11.1-0.1,64771,List1B,black,man,,,,null,,,,
2419,"<img src=""portrait/BM1.jpg""style=""width:400px;height:400px;""></img>",4,html-button-response,35,547168,0.0-3.1-13.1,64771,List1B,black,man,,TRUE,4,,,,,
null,CORRECT,,html-keyboard-response,36,548671,0.0-3.1-14.1-0.1,64771,List1B,black,man,,,,null,,,,
2124,"<img src=""portrait/BM2.jpg""style=""width:400px;height:400px;""></img>",5,html-button-response,37,550799,0.0-3.1-16.1,64771,List1B,black,man,,TRUE,5,,,,,
null,CORRECT,,html-keyboard-response,38,552302,0.0-3.1-17.1-0.1,64771,List1B,black,man,,,,null,,,,
3412,"<img src=""portrait/BW1.jpg""style=""width:400px;height:400px;""></img>",0,html-button-response,39,555718,0.0-3.1-19.1,64771,List1B,black,man,,TRUE,0,,,,,
null,CORRECT,,html-keyboard-response,40,557220,0.0-3.1-20.1-0.1,64771,List1B,black,man,,,,null,,,,
6304,"<img src=""portrait/BW2.jpg""style=""width:400px;height:400px;""></img>",2,html-button-response,41,563531,0.0-3.1-22.1,64771,List1B,black,man,,TRUE,2,,,,,
null,CORRECT,,html-keyboard-response,42,565034,0.0-3.1-23.1-0.1,64771,List1B,black,man,,,,null,,,,
1218,<p>You got 7 out of 8 right first time. Press Continue.</p>,0,html-button-response,43,566257,0.0-3.1-25.1,64771,List1B,black,man,,,,,,,,
2424,"As you did not score 100%, the memory game will repeat. Press Continue.",0,html-button-response,44,569685,0.0-3.1-26.1-0.1,64771,List1B,black,man,,,,,,,,
2112,"<img src='img/portrait_matrix_list1.JPG' style='width:900px;height:500px;''></img><p>If you have memorised all the portraits and names and are ready to start, press Continue.</p><p><strong>Please note: Your memory of these faces will be tested 4 times during this experiment.</strong></p>",0,html-button-response,45,572801,0.0-3.2-0.2,64771,List1B,black,man,,,,,,,,
4667,"<img src=""portrait/WW1.jpg""style=""width:400px;height:400px;""></img>",1,html-button-response,46,578471,0.0-3.2-1.2,64771,List1B,black,man,,TRUE,1,,,,,
null,CORRECT,,html-keyboard-response,47,579972,0.0-3.2-2.2-0.2,64771,List1B,black,man,,,,null,,,,
7324,"<img src=""portrait/WM2.jpg""style=""width:400px;height:400px;""></img>",7,html-button-response,48,587301,0.0-3.2-4.2,64771,List1B,black,man,,TRUE,7,,,,,
null,CORRECT,,html-keyboard-response,49,588804,0.0-3.2-5.2-0.2,64771,List1B,black,man,,,,null,,,,
1912,"<img src=""portrait/WW2.jpg""style=""width:400px;height:400px;""></img>",3,html-button-response,50,590721,0.0-3.2-7.2,64771,List1B,black,man,,TRUE,3,,,,,
null,CORRECT,,html-keyboard-response,51,592224,0.0-3.2-8.2-0.2,64771,List1B,black,man,,,,null,,,,
3353,"<img src=""portrait/WM1.jpg""style=""width:400px;height:400px;""></img>",6,html-button-response,52,595585,0.0-3.2-10.2,64771,List1B,black,man,,TRUE,6,,,,,
null,CORRECT,,html-keyboard-response,53,597087,0.0-3.2-11.2-0.2,64771,List1B,black,man,,,,null,,,,
4622,"<img src=""portrait/BM1.jpg""style=""width:400px;height:400px;""></img>",4,html-button-response,54,601725,0.0-3.2-13.2,64771,List1B,black,man,,TRUE,4,,,,,
null,CORRECT,,html-keyboard-response,55,603226,0.0-3.2-14.2-0.2,64771,List1B,black,man,,,,null,,,,
3228,"<img src=""portrait/BM2.jpg""style=""width:400px;height:400px;""></img>",5,html-button-response,56,606461,0.0-3.2-16.2,64771,List1B,black,man,,TRUE,5,,,,,
null,CORRECT,,html-keyboard-response,57,607963,0.0-3.2-17.2-0.2,64771,List1B,black,man,,,,null,,,,
3302,"<img src=""portrait/BW1.jpg""style=""width:400px;height:400px;""></img>",0,html-button-response,58,611283,0.0-3.2-19.2,64771,List1B,black,man,,TRUE,0,,,,,
null,CORRECT,,html-keyboard-response,59,612787,0.0-3.2-20.2-0.2,64771,List1B,black,man,,,,null,,,,
1561,"<img src=""portrait/BW2.jpg""style=""width:400px;height:400px;""></img>",2,html-button-response,60,614351,0.0-3.2-22.2,64771,List1B,black,man,,TRUE,2,,,,,
null,CORRECT,,html-keyboard-response,61,615854,0.0-3.2-23.2-0.2,64771,List1B,black,man,,,,null,,,,
1329,<p>You got 8 out of 8 right first time. Press Continue.</p>,0,html-button-response,62,617187,0.0-3.2-25.2,64771,List1B,black,man,,,,,,,,
160805,"<p>In this experiment, you will view photographs of the people from the memory game interacting.</p><p>By using the <strong>exact</strong> phrase given <i>after</i> the photograph appears and recalling the correct names of the people in the photographs, form a sentence describing the interaction. You do not need to capitalise names.</p><p>Type your answer in the space provided. Please complete every sentence before moving onto the next trial.</p><p>You will only have a few seconds to memorise each given photograph and phrase before you can respond, so try your best to focus.</p><p>An example is given below. Press 'Continue' when you are ready.</p><img src='img/speaking_example_v2.jpg' style='width:800px;height:460px;''></img>",0,html-button-response,63,779003,0.0-4.0,64771,List1B,black,man,,,,,,,,
2813,"<p>Before the experiment starts, you will watch two example trials. Press 'Continue'.</p>",0,html-button-response,64,782822,0.0-5.0,64771,List1B,black,man,,,,,,,,
null,<img src='img/speaking_WW.gif'></img>,,html-keyboard-response,65,785838,0.0-6.0,64771,List1B,black,man,,,,null,,,,
null,<p>is speaking to</p>,,html-keyboard-response,66,787839,0.0-7.0,64771,List1B,black,man,,,,null,,,,
4465,<p><b>Answer:</b> kate is speaking to beth</p>,0,html-button-response,67,792305,0.0-8.0,64771,List1B,black,man,,,,,,,,
null,<img src='img/pointing_BM.gif'></img>,,html-keyboard-response,68,795307,0.0-9.0,64771,List1B,black,man,,,,null,,,,
null,<p>are pointing at each other</p>,,html-keyboard-response,69,797308,0.0-10.0,64771,List1B,black,man,,,,null,,,,
4603,<p><b>Answer:</b> luke and dave are pointing at each other</p>,0,html-button-response,70,801915,0.0-11.0,64771,List1B,black,man,,,,,,,,
25023,"<p>Ready to start the experiment?</p><br><p><strong>Remember to describe the picture using a full sentence,</strong></p><p><strong>that combines the names of the people with the given phrase.</strong></p><p><strong>If you do not do this correctly you will not be paid.</strong></p><p><strong> You do not need to capitalise names or use punctuation.</strong></p><br><p>Press 'Continue' to begin.</p>",0,html-button-response,71,827944,0.0-12.0,64771,List1B,black,man,,,,,,,,
null,"<div style=""font-size:60px;"">+</div>",,html-keyboard-response,72,829445,0.0-13.0-0.0,64771,List1B,black,man,,,,null,,,,
null,"<img src=""stim_listB/meet6.gif""</stim_listB>",,html-keyboard-response,73,831450,0.0-13.0-1.0,64771,List1B,black,man,,,,null,,,,
null,are meeting each other,,html-keyboard-response,74,833452,0.0-13.0-2.0,64771,List1B,black,man,,,,null,,,,
29879,,,survey-text,75,863336,0.0-13.0-3.0,64771,List1B,black,man,,,,,"{""Q0"":""fred is handshaking dave""}","<img src=""stim_listB/meet6.gif""</stim_listB>",are meeting each other,
null,"<div style=""font-size:60px;"">+</div>",,html-keyboard-response,76,863843,0.0-13.0-0.1,64771,List1B,black,man,,,,null,,,,
null,"<img src=""stim_listB/fight8.gif""</stim_listB>",,html-keyboard-response,77,865844,0.0-13.0-1.1,64771,List1B,black,man,,,,null,,,,
null,are fighting each other,,html-keyboard-response,78,867852,0.0-13.0-2.1,64771,List1B,black,man,,,,null,,,,
18818,,,survey-text,79,886672,0.0-13.0-3.1,64771,List1B,black,man,,,,,"{""Q0"":""beth is fighting ruth""}","<img src=""stim_listB/fight8.gif""</stim_listB>",are fighting each other,
null,"<div style=""font-size:60px;"">+</div>",,html-keyboard-response,80,887175,0.0-13.0-0.2,64771,List1B,black,man,,,,null,,,,
null,"<img src=""stim_listB/kiss1.gif""</stim_listB>",,html-keyboard-response,81,889182,0.0-13.0-1.2,64771,List1B,black,man,,,,null,,,,
null,is kissing,,html-keyboard-response,82,891182,0.0-13.0-2.2,64771,List1B,black,man,,,,null,,,,
10689,,,survey-text,83,901873,0.0-13.0-3.2,64771,List1B,black,man,,,,,"{""Q0"":""beth is kissing fred""}","<img src=""stim_listB/kiss1.gif""</stim_listB>",is kissing,
null,"<div style=""font-size:60px;"">+</div>",,html-keyboard-response,84,902401,0.0-13.0-0.3,64771,List1B,black,man,,,,null,,,,
null,"<img src=""stim_listB/shout8.gif""</stim_listB>",,html-keyboard-response,85,904415,0.0-13.0-1.3,64771,List1B,black,man,,,,null,,,,
null,are shouting at each other,,html-keyboard-response,86,906415,0.0-13.0-2.3,64771,List1B,black,man,,,,null,,,,
68624,,,survey-text,87,975042,0.0-13.0-3.3,64771,List1B,black,man,,,,,"{""Q0"":""kate and jane are shouting at each other""}","<img src=""stim_listB/shout8.gif""</stim_listB>",are shouting at each other,
null,"<div style=""font-size:60px;"">+</div>",,html-keyboard-response,88,975544,0.0-13.0-0.4,64771,List1B,black,man,,,,null,,,,
null,"<img src=""stim_listB/touch1.gif""</stim_listB>",,html-keyboard-response,89,977548,0.0-13.0-1.4,64771,List1B,black,man,,,,null,,,,
null,is touching,,html-keyboard-response,90,979550,0.0-13.0-2.4,64771,List1B,black,man,,,,null,,,,
11268,,,survey-text,91,990823,0.0-13.0-3.4,64771,List1B,black,man,,,,,"{""Q0"":""beth is touching fred""}","<img src=""stim_listB/touch1.gif""</stim_listB>",is touching,
null,"<div style=""font-size:60px;"">+</div>",,html-keyboard-response,92,991326,0.0-13.0-0.5,64771,List1B,black,man,,,,null,,,,
null,"<img src=""stim_listB/marry6.gif""</stim_listB>",,html-keyboard-response,93,993343,0.0-13.0-1.5,64771,List1B,black,man,,,,null,,,,
null,are marrying each other,,html-keyboard-response,94,995350,0.0-13.0-2.5,64771,List1B,black,man,,,,null,,,,
18084,,,survey-text,95,1013435,0.0-13.0-3.5,64771,List1B,black,man,,,,,"{""Q0"":""fred is marrying dave""}","<img src=""stim_listB/marry6.gif""</stim_listB>",are marrying each other,
null,"<div style=""font-size:60px;"">+</div>",,html-keyboard-response,96,1013938,0.0-13.0-0.6,64771,List1B,black,man,,,,null,,,,
null,"<img src=""stim_listB/dance8.gif""</stim_listB>",,html-keyboard-response,97,1015946,0.0-13.0-1.6,64771,List1B,black,man,,,,null,,,,
null,are dancing with each other,,html-keyboard-response,98,1017947,0.0-13.0-2.6,64771,List1B,black,man,,,,null,,,,
27936,,,survey-text,99,1045901,0.0-13.0-3.6,64771,List1B,black,man,,,,,"{""Q0"":""beth is dancing with ruth""}","<img src=""stim_listB/dance8.gif""</stim_listB>",are dancing with each other,
null,"<div style=""font-size:60px;"">+</div>",,html-keyboard-response,100,1046407,0.0-13.0-0.7,64771,List1B,black,man,,,,null,,,,
null,"<img src=""stim_listB/touch8.gif""</stim_listB>",,html-keyboard-response,101,1048413,0.0-13.0-1.7,64771,List1B,black,man,,,,null,,,,
null,are touching each other,,html-keyboard-response,102,1050414,0.0-13.0-2.7,64771,List1B,black,man,,,,null,,,,
24616,,,survey-text,103,1075031,0.0-13.0-3.7,64771,List1B,black,man,,,,,"{""Q0"":""beth and ruth are touching""}","<img src=""stim_listB/touch8.gif""</stim_listB>",are touching each other,
null,"<div style=""font-size:60px;"">+</div>",,html-keyboard-response,104,1075545,0.0-13.0-0.8,64771,List1B,black,man,,,,null,,,,
null,"<img src=""stim_listB/dance6.gif""</stim_listB>",,html-keyboard-response,105,1077546,0.0-13.0-1.8,64771,List1B,black,man,,,,null,,,,
null,are dancing with each other,,html-keyboard-response,106,1079560,0.0-13.0-2.8,64771,List1B,black,man,,,,null,,,,
10583,,,survey-text,107,1090143,0.0-13.0-3.8,64771,List1B,black,man,,,,,"{""Q0"":""fred and dave are dancing""}","<img src=""stim_listB/dance6.gif""</stim_listB>",are dancing with each other,
null,"<div style=""font-size:60px;"">+</div>",,html-keyboard-response,108,1090660,0.0-13.0-0.9,64771,List1B,black,man,,,,null,,,,
null,"<img src=""stim_listB/dance3.gif""</stim_listB>",,html-keyboard-response,109,1092665,0.0-13.0-1.9,64771,List1B,black,man,,,,null,,,,
null,is dancing with,,html-keyboard-response,110,1094667,0.0-13.0-2.9,64771,List1B,black,man,,,,null,,,,
27244,,,survey-text,111,1121912,0.0-13.0-3.9,64771,List1B,black,man,,,,,"{""Q0"":""jane is dancing with luke""}","<img src=""stim_listB/dance3.gif""</stim_listB>",is dancing with,
null,"<div style=""font-size:60px;"">+</div>",,html-keyboard-response,112,1122418,0.0-13.0-0.10,64771,List1B,black,man,,,,null,,,,
null,"<img src=""stim_listB/argue5.gif""</stim_listB>",,html-keyboard-response,113,1124427,0.0-13.0-1.10,64771,List1B,black,man,,,,null,,,,
null,is arguing with,,html-keyboard-response,114,1126428,0.0-13.0-2.10,64771,List1B,black,man,,,,null,,,,
11826,,,survey-text,115,1138259,0.0-13.0-3.10,64771,List1B,black,man,,,,,"{""Q0"":""luke is arguing with fred""}","<img src=""stim_listB/argue5.gif""</stim_listB>",is arguing with,
null,"<div style=""font-size:60px;"">+</div>",,html-keyboard-response,116,1138764,0.0-13.0-0.11,64771,List1B,black,man,,,,null,,,,
null,"<img src=""stim_listB/meet5.gif""</stim_listB>",,html-keyboard-response,117,1140770,0.0-13.0-1.11,64771,List1B,black,man,,,,null,,,,
null,is meeting,,html-keyboard-response,118,1142777,0.0-13.0-2.11,64771,List1B,black,man,,,,null,,,,
12582,,,survey-text,119,1155362,0.0-13.0-3.11,64771,List1B,black,man,,,,,"{""Q0"":""dave is meeting fred""}","<img src=""stim_listB/meet5.gif""</stim_listB>",is meeting,
null,"<div style=""font-size:60px;"">+</div>",,html-keyboard-response,120,1155868,0.0-13.0-0.12,64771,List1B,black,man,,,,null,,,,
null,"<img src=""stim_listB/fight6.gif""</stim_listB>",,html-keyboard-response,121,1157873,0.0-13.0-1.12,64771,List1B,black,man,,,,null,,,,
null,are fighting each other,,html-keyboard-response,122,1159874,0.0-13.0-2.12,64771,List1B,black,man,,,,null,,,,
22254,,,survey-text,123,1182130,0.0-13.0-3.12,64771,List1B,black,man,,,,,"{""Q0"":""mike is fighting luke""}","<img src=""stim_listB/fight6.gif""</stim_listB>",are fighting each other,
null,"<div style=""font-size:60px;"">+</div>",,html-keyboard-response,124,1182631,0.0-13.0-0.13,64771,List1B,black,man,,,,null,,,,
null,"<img src=""stim_listB/shout7.gif""</stim_listB>",,html-keyboard-response,125,1184635,0.0-13.0-1.13,64771,List1B,black,man,,,,null,,,,
null,is shouting at,,html-keyboard-response,126,1186637,0.0-13.0-2.13,64771,List1B,black,man,,,,null,,,,
24637,,,survey-text,127,1211276,0.0-13.0-3.13,64771,List1B,black,man,,,,,"{""Q0"":""ruth and beth are shouting at each other""}","<img src=""stim_listB/shout7.gif""</stim_listB>",is shouting at,
null,"<div style=""font-size:60px;"">+</div>",,html-keyboard-response,128,1211778,0.0-13.0-0.14,64771,List1B,black,man,,,,null,,,,
null,"<img src=""stim_listB/dance7.gif""</stim_listB>",,html-keyboard-response,129,1213792,0.0-13.0-1.14,64771,List1B,black,man,,,,null,,,,
null,is dancing with,,html-keyboard-response,130,1215791,0.0-13.0-2.14,64771,List1B,black,man,,,,null,,,,
17247,,,survey-text,131,1233041,0.0-13.0-3.14,64771,List1B,black,man,,,,,"{""Q0"":""jane is dancing with beth""}","<img src=""stim_listB/dance7.gif""</stim_listB>",is dancing with,
null,"<div style=""font-size:60px;"">+</div>",,html-keyboard-response,132,1233543,0.0-13.0-0.15,64771,List1B,black,man,,,,null,,,,
null,"<img src=""stim_listB/hug6.gif""</stim_listB>",,html-keyboard-response,133,1235549,0.0-13.0-1.15,64771,List1B,black,man,,,,null,,,,
null,are hugging each other,,html-keyboard-response,134,1237549,0.0-13.0-2.15,64771,List1B,black,man,,,,null,,,,
18181,,,survey-text,135,1255735,0.0-13.0-3.15,64771,List1B,black,man,,,,,"{""Q0"":""fred and dave are hugging each other""}","<img src=""stim_listB/hug6.gif""</stim_listB>",are hugging each other,
null,"<div style=""font-size:60px;"">+</div>",,html-keyboard-response,136,1256238,0.0-13.0-0.16,64771,List1B,black,man,,,,null,,,,
null,"<img src=""stim_listB/hug4.gif""</stim_listB>",,html-keyboard-response,137,1258242,0.0-13.0-1.16,64771,List1B,black,man,,,,null,,,,
null,are hugging each other,,html-keyboard-response,138,1260245,0.0-13.0-2.16,64771,List1B,black,man,,,,null,,,,
15089,,,survey-text,139,1275338,0.0-13.0-3.16,64771,List1B,black,man,,,,,"{""Q0"":""fred and jane are hugging each other""}","<img src=""stim_listB/hug4.gif""</stim_listB>",are hugging each other,
null,"<div style=""font-size:60px;"">+</div>",,html-keyboard-response,140,1275842,0.0-13.0-0.17,64771,List1B,black,man,,,,null,,,,
null,"<img src=""stim_listB/meet4.gif""</stim_listB>",,html-keyboard-response,141,1277854,0.0-13.0-1.17,64771,List1B,black,man,,,,null,,,,
null,are meeting each other,,html-keyboard-response,142,1279855,0.0-13.0-2.17,64771,List1B,black,man,,,,null,,,,
17413,,,survey-text,143,1297272,0.0-13.0-3.17,64771,List1B,black,man,,,,,"{""Q0"":""ruth and fred are hugging each other""}","<img src=""stim_listB/meet4.gif""</stim_listB>",are meeting each other,
null,"<div style=""font-size:60px;"">+</div>",,html-keyboard-response,144,1297776,0.0-13.0-0.18,64771,List1B,black,man,,,,null,,,,
null,"<img src=""stim_listB/shout4.gif""</stim_listB>",,html-keyboard-response,145,1299795,0.0-13.0-1.18,64771,List1B,black,man,,,,null,,,,
null,are shouting at each other,,html-keyboard-response,146,1301795,0.0-13.0-2.18,64771,List1B,black,man,,,,null,,,,
24872,,,survey-text,147,1326670,0.0-13.0-3.18,64771,List1B,black,man,,,,,"{""Q0"":""luke and jane are shouting at each other""}","<img src=""stim_listB/shout4.gif""</stim_listB>",are shouting at each other,
null,"<div style=""font-size:60px;"">+</div>",,html-keyboard-response,148,1327173,0.0-13.0-0.19,64771,List1B,black,man,,,,null,,,,
null,"<img src=""stim_listB/talk1.gif""</stim_listB>",,html-keyboard-response,149,1329187,0.0-13.0-1.19,64771,List1B,black,man,,,,null,,,,
null,is talking to,,html-keyboard-response,150,1331192,0.0-13.0-2.19,64771,List1B,black,man,,,,null,,,,
9653,,,survey-text,151,1340846,0.0-13.0-3.19,64771,List1B,black,man,,,,,"{""Q0"":""beth is talking to fred""}","<img src=""stim_listB/talk1.gif""</stim_listB>",is talking to,
54657,"<img src='img/portrait_matrix_list1.JPG' style='width:900px;height:500px;''></img><p>If you have memorised all the portraits and names and are ready to start, press Continue.</p><p><strong>Please note: Your memory of these faces will be tested 4 times during this experiment.</strong></p>",0,html-button-response,152,1395509,0.0-14.0-0.0,64771,List1B,black,man,,,,,,,,
3385,"<img src=""portrait/BM1.jpg""style=""width:400px;height:400px;""></img>",4,html-button-response,153,1399901,0.0-14.0-1.0,64771,List1B,black,man,,TRUE,4,,,,,
null,CORRECT,,html-keyboard-response,154,1401405,0.0-14.0-2.0-0.0,64771,List1B,black,man,,,,null,,,,
2531,"<img src=""portrait/BW2.jpg""style=""width:400px;height:400px;""></img>",2,html-button-response,155,1403941,0.0-14.0-4.0,64771,List1B,black,man,,TRUE,2,,,,,
null,CORRECT,,html-keyboard-response,156,1405445,0.0-14.0-5.0-0.0,64771,List1B,black,man,,,,null,,,,
2820,"<img src=""portrait/BM2.jpg""style=""width:400px;height:400px;""></img>",5,html-button-response,157,1408268,0.0-14.0-7.0,64771,List1B,black,man,,TRUE,5,,,,,
null,CORRECT,,html-keyboard-response,158,1409784,0.0-14.0-8.0-0.0,64771,List1B,black,man,,,,null,,,,
3201,"<img src=""portrait/BW1.jpg""style=""width:400px;height:400px;""></img>",0,html-button-response,159,1412985,0.0-14.0-10.0,64771,List1B,black,man,,TRUE,0,,,,,
null,CORRECT,,html-keyboard-response,160,1414487,0.0-14.0-11.0-0.0,64771,List1B,black,man,,,,null,,,,
4442,"<img src=""portrait/WW2.jpg""style=""width:400px;height:400px;""></img>",3,html-button-response,161,1418933,0.0-14.0-13.0,64771,List1B,black,man,,TRUE,3,,,,,
null,CORRECT,,html-keyboard-response,162,1420445,0.0-14.0-14.0-0.0,64771,List1B,black,man,,,,null,,,,
1970,"<img src=""portrait/WW1.jpg""style=""width:400px;height:400px;""></img>",1,html-button-response,163,1422423,0.0-14.0-16.0,64771,List1B,black,man,,TRUE,1,,,,,
null,CORRECT,,html-keyboard-response,164,1423926,0.0-14.0-17.0-0.0,64771,List1B,black,man,,,,null,,,,
2069,"<img src=""portrait/WM1.jpg""style=""width:400px;height:400px;""></img>",6,html-button-response,165,1425999,0.0-14.0-19.0,64771,List1B,black,man,,TRUE,6,,,,,
null,CORRECT,,html-keyboard-response,166,1427502,0.0-14.0-20.0-0.0,64771,List1B,black,man,,,,null,,,,
1446,"<img src=""portrait/WM2.jpg""style=""width:400px;height:400px;""></img>",7,html-button-response,167,1428956,0.0-14.0-22.0,64771,List1B,black,man,,TRUE,7,,,,,
null,CORRECT,,html-keyboard-response,168,1430471,0.0-14.0-23.0-0.0,64771,List1B,black,man,,,,null,,,,
1254,<p>You got 8 out of 8 right first time. Press Continue.</p>,0,html-button-response,169,1431730,0.0-14.0-25.0,64771,List1B,black,man,,,,,,,,
null,"<div style=""font-size:60px;"">+</div>",,html-keyboard-response,170,1433234,0.0-15.0-0.0,64771,List1B,black,man,,,,null,,,,
null,"<img src=""stim_listB/kiss8.gif""</stim_listB>",,html-keyboard-response,171,1435252,0.0-15.0-1.0,64771,List1B,black,man,,,,null,,,,
null,are kissing each other,,html-keyboard-response,172,1437252,0.0-15.0-2.0,64771,List1B,black,man,,,,null,,,,
25630,,,survey-text,173,1462886,0.0-15.0-3.0,64771,List1B,black,man,,,,,"{""Q0"":""kate and jane are kissing each other""}","<img src=""stim_listB/kiss8.gif""</stim_listB>",are kissing each other,
null,"<div style=""font-size:60px;"">+</div>",,html-keyboard-response,174,1463391,0.0-15.0-0.1,64771,List1B,black,man,,,,null,,,,
null,"<img src=""stim_listB/marry2.gif""</stim_listB>",,html-keyboard-response,175,1465395,0.0-15.0-1.1,64771,List1B,black,man,,,,null,,,,
null,are marrying each other,,html-keyboard-response,176,1467397,0.0-15.0-2.1,64771,List1B,black,man,,,,null,,,,
14752,,,survey-text,177,1482151,0.0-15.0-3.1,64771,List1B,black,man,,,,,"{""Q0"":""jane and fred are marrying each other""}","<img src=""stim_listB/marry2.gif""</stim_listB>",are marrying each other,
null,"<div style=""font-size:60px;"">+</div>",,html-keyboard-response,178,1482674,0.0-15.0-0.2,64771,List1B,black,man,,,,null,,,,
null,"<img src=""stim_listB/fight5.gif""</stim_listB>",,html-keyboard-response,179,1484675,0.0-15.0-1.2,64771,List1B,black,man,,,,null,,,,
null,is fighting,,html-keyboard-response,180,1486676,0.0-15.0-2.2,64771,List1B,black,man,,,,null,,,,
19892,,,survey-text,181,1506572,0.0-15.0-3.2,64771,List1B,black,man,,,,,"{""Q0"":""dave and mike are fighting each other""}","<img src=""stim_listB/fight5.gif""</stim_listB>",is fighting,
null,"<div style=""font-size:60px;"">+</div>",,html-keyboard-response,182,1507076,0.0-15.0-0.3,64771,List1B,black,man,,,,null,,,,
null,"<img src=""stim_listB/argue6.gif""</stim_listB>",,html-keyboard-response,183,1509081,0.0-15.0-1.3,64771,List1B,black,man,,,,null,,,,
null,are arguing with each other,,html-keyboard-response,184,1511083,0.0-15.0-2.3,64771,List1B,black,man,,,,null,,,,
20624,,,survey-text,185,1531709,0.0-15.0-3.3,64771,List1B,black,man,,,,,"{""Q0"":""fred and dave are arguing with each other""}","<img src=""stim_listB/argue6.gif""</stim_listB>",are arguing with each other,
null,"<div style=""font-size:60px;"">+</div>",,html-keyboard-response,186,1532211,0.0-15.0-0.4,64771,List1B,black,man,,,,null,,,,
null,"<img src=""stim_listB/touch2.gif""</stim_listB>",,html-keyboard-response,187,1534217,0.0-15.0-1.4,64771,List1B,black,man,,,,null,,,,
null,are touching each other,,html-keyboard-response,188,1536234,0.0-15.0-2.4,64771,List1B,black,man,,,,null,,,,
20045,,,survey-text,189,1556279,0.0-15.0-3.4,64771,List1B,black,man,,,,,"{""Q0"":""beth and fred are touching each other""}","<img src=""stim_listB/touch2.gif""</stim_listB>",are touching each other,
null,"<div style=""font-size:60px;"">+</div>",,html-keyboard-response,190,1556780,0.0-15.0-0.5,64771,List1B,black,man,,,,null,,,,
null,"<img src=""stim_listB/shout3.gif""</stim_listB>",,html-keyboard-response,191,1558785,0.0-15.0-1.5,64771,List1B,black,man,,,,null,,,,
null,is shouting at,,html-keyboard-response,192,1560787,0.0-15.0-2.5,64771,List1B,black,man,,,,null,,,,
16104,,,survey-text,193,1576894,0.0-15.0-3.5,64771,List1B,black,man,,,,,"{""Q0"":""ruth is shouting at luke""}","<img src=""stim_listB/shout3.gif""</stim_listB>",is shouting at,
null,"<div style=""font-size:60px;"">+</div>",,html-keyboard-response,194,1577398,0.0-15.0-0.6,64771,List1B,black,man,,,,null,,,,
null,"<img src=""stim_listB/touch6.gif""</stim_listB>",,html-keyboard-response,195,1579414,0.0-15.0-1.6,64771,List1B,black,man,,,,null,,,,
null,are touching each other,,html-keyboard-response,196,1581415,0.0-15.0-2.6,64771,List1B,black,man,,,,null,,,,
21310,,,survey-text,197,1602729,0.0-15.0-3.6,64771,List1B,black,man,,,,,"{""Q0"":""fred and luke are touching each other""}","<img src=""stim_listB/touch6.gif""</stim_listB>",are touching each other,
null,"<div style=""font-size:60px;"">+</div>",,html-keyboard-response,198,1603231,0.0-15.0-0.7,64771,List1B,black,man,,,,null,,,,
null,"<img src=""stim_listB/talk5.gif""</stim_listB>",,html-keyboard-response,199,1605237,0.0-15.0-1.7,64771,List1B,black,man,,,,null,,,,
null,is talking to,,html-keyboard-response,200,1607238,0.0-15.0-2.7,64771,List1B,black,man,,,,null,,,,
20413,,,survey-text,201,1627653,0.0-15.0-3.7,64771,List1B,black,man,,,,,"{""Q0"":""dave is talking to fred""}","<img src=""stim_listB/talk5.gif""</stim_listB>",is talking to,
null,"<div style=""font-size:60px;"">+</div>",,html-keyboard-response,202,1628157,0.0-15.0-0.8,64771,List1B,black,man,,,,null,,,,
null,"<img src=""stim_listB/argue7.gif""</stim_listB>",,html-keyboard-response,203,1630162,0.0-15.0-1.8,64771,List1B,black,man,,,,null,,,,
null,is arguing with,,html-keyboard-response,204,1632163,0.0-15.0-2.8,64771,List1B,black,man,,,,null,,,,
19545,,,survey-text,205,1651712,0.0-15.0-3.8,64771,List1B,black,man,,,,,"{""Q0"":""ruth is arguing with jane""}","<img src=""stim_listB/argue7.gif""</stim_listB>",is arguing with,
null,"<div style=""font-size:60px;"">+</div>",,html-keyboard-response,206,1652215,0.0-15.0-0.9,64771,List1B,black,man,,,,null,,,,
null,"<img src=""stim_listB/marry5.gif""</stim_listB>",,html-keyboard-response,207,1654219,0.0-15.0-1.9,64771,List1B,black,man,,,,null,,,,
null,is marrying,,html-keyboard-response,208,1656219,0.0-15.0-2.9,64771,List1B,black,man,,,,null,,,,
16823,,,survey-text,209,1673046,0.0-15.0-3.9,64771,List1B,black,man,,,,,"{""Q0"":""luke is marrying mike""}","<img src=""stim_listB/marry5.gif""</stim_listB>",is marrying,
null,"<div style=""font-size:60px;"">+</div>",,html-keyboard-response,210,1673549,0.0-15.0-0.10,64771,List1B,black,man,,,,null,,,,
null,"<img src=""stim_listB/kiss2.gif""</stim_listB>",,html-keyboard-response,211,1675554,0.0-15.0-1.10,64771,List1B,black,man,,,,null,,,,
null,are kissing each other,,html-keyboard-response,212,1677556,0.0-15.0-2.10,64771,List1B,black,man,,,,null,,,,
11671,,,survey-text,213,1689231,0.0-15.0-3.10,64771,List1B,black,man,,,,,"{""Q0"":""mike is kissing jane""}","<img src=""stim_listB/kiss2.gif""</stim_listB>",are kissing each other,
null,"<div style=""font-size:60px;"">+</div>",,html-keyboard-response,214,1689734,0.0-15.0-0.11,64771,List1B,black,man,,,,null,,,,
null,"<img src=""stim_listB/meet7.gif""</stim_listB>",,html-keyboard-response,215,1691741,0.0-15.0-1.11,64771,List1B,black,man,,,,null,,,,
null,is meeting,,html-keyboard-response,216,1693741,0.0-15.0-2.11,64771,List1B,black,man,,,,null,,,,
44730,,,survey-text,217,1738473,0.0-15.0-3.11,64771,List1B,black,man,,,,,"{""Q0"":""jane is handshaking kate""}","<img src=""stim_listB/meet7.gif""</stim_listB>",is meeting,
null,"<div style=""font-size:60px;"">+</div>",,html-keyboard-response,218,1738980,0.0-15.0-0.12,64771,List1B,black,man,,,,null,,,,
null,"<img src=""stim_listB/meet2.gif""</stim_listB>",,html-keyboard-response,219,1740981,0.0-15.0-1.12,64771,List1B,black,man,,,,null,,,,
null,are meeting each other,,html-keyboard-response,220,1742991,0.0-15.0-2.12,64771,List1B,black,man,,,,null,,,,
14047,,,survey-text,221,1757038,0.0-15.0-3.12,64771,List1B,black,man,,,,,"{""Q0"":""beth and fred are meeting each other""}","<img src=""stim_listB/meet2.gif""</stim_listB>",are meeting each other,
null,"<div style=""font-size:60px;"">+</div>",,html-keyboard-response,222,1757539,0.0-15.0-0.13,64771,List1B,black,man,,,,null,,,,
null,"<img src=""stim_listB/talk3.gif""</stim_listB>",,html-keyboard-response,223,1759547,0.0-15.0-1.13,64771,List1B,black,man,,,,null,,,,
null,is talking to,,html-keyboard-response,224,1761550,0.0-15.0-2.13,64771,List1B,black,man,,,,null,,,,
64336,,,survey-text,225,1825889,0.0-15.0-3.13,64771,List1B,black,man,,,,,"{""Q0"":""jane is talking to fred""}","<img src=""stim_listB/talk3.gif""</stim_listB>",is talking to,
null,"<div style=""font-size:60px;"">+</div>",,html-keyboard-response,226,1826392,0.0-15.0-0.14,64771,List1B,black,man,,,,null,,,,
null,"<img src=""stim_listB/dance5.gif""</stim_listB>",,html-keyboard-response,227,1828399,0.0-15.0-1.14,64771,List1B,black,man,,,,null,,,,
null,is dancing with,,html-keyboard-response,228,1830401,0.0-15.0-2.14,64771,List1B,black,man,,,,null,,,,
16137,,,survey-text,229,1846541,0.0-15.0-3.14,64771,List1B,black,man,,,,,"{""Q0"":""dave is dancing with fred""}","<img src=""stim_listB/dance5.gif""</stim_listB>",is dancing with,
null,"<div style=""font-size:60px;"">+</div>",,html-keyboard-response,230,1847044,0.0-15.0-0.15,64771,List1B,black,man,,,,null,,,,
null,"<img src=""stim_listB/touch3.gif""</stim_listB>",,html-keyboard-response,231,1849049,0.0-15.0-1.15,64771,List1B,black,man,,,,null,,,,
null,is touching,,html-keyboard-response,232,1851051,0.0-15.0-2.15,64771,List1B,black,man,,,,null,,,,
11698,,,survey-text,233,1862751,0.0-15.0-3.15,64771,List1B,black,man,,,,,"{""Q0"":""jane is touching fred""}","<img src=""stim_listB/touch3.gif""</stim_listB>",is touching,
null,"<div style=""font-size:60px;"">+</div>",,html-keyboard-response,234,1863255,0.0-15.0-0.16,64771,List1B,black,man,,,,null,,,,
null,"<img src=""stim_listB/meet3.gif""</stim_listB>",,html-keyboard-response,235,1865255,0.0-15.0-1.16,64771,List1B,black,man,,,,null,,,,
null,is meeting,,html-keyboard-response,236,1867268,0.0-15.0-2.16,64771,List1B,black,man,,,,null,,,,
20057,,,survey-text,237,1887326,0.0-15.0-3.16,64771,List1B,black,man,,,,,"{""Q0"":""jane is meeting dave""}","<img src=""stim_listB/meet3.gif""</stim_listB>",is meeting,
null,"<div style=""font-size:60px;"">+</div>",,html-keyboard-response,238,1887841,0.0-15.0-0.17,64771,List1B,black,man,,,,null,,,,
null,"<img src=""stim_listB/fight4.gif""</stim_listB>",,html-keyboard-response,239,1889841,0.0-15.0-1.17,64771,List1B,black,man,,,,null,,,,
null,are fighting each other,,html-keyboard-response,240,1891851,0.0-15.0-2.17,64771,List1B,black,man,,,,null,,,,
18249,,,survey-text,241,1910101,0.0-15.0-3.17,64771,List1B,black,man,,,,,"{""Q0"":""luke is fighting ruth""}","<img src=""stim_listB/fight4.gif""</stim_listB>",are fighting each other,
null,"<div style=""font-size:60px;"">+</div>",,html-keyboard-response,242,1910605,0.0-15.0-0.18,64771,List1B,black,man,,,,null,,,,
null,"<img src=""stim_listB/kiss7.gif""</stim_listB>",,html-keyboard-response,243,1912610,0.0-15.0-1.18,64771,List1B,black,man,,,,null,,,,
null,is kissing,,html-keyboard-response,244,1914610,0.0-15.0-2.18,64771,List1B,black,man,,,,null,,,,
10899,,,survey-text,245,1925514,0.0-15.0-3.18,64771,List1B,black,man,,,,,"{""Q0"":""ruth is kissing beth""}","<img src=""stim_listB/kiss7.gif""</stim_listB>",is kissing,
null,"<div style=""font-size:60px;"">+</div>",,html-keyboard-response,246,1926023,0.0-15.0-0.19,64771,List1B,black,man,,,,null,,,,
null,"<img src=""stim_listB/hug3.gif""</stim_listB>",,html-keyboard-response,247,1928026,0.0-15.0-1.19,64771,List1B,black,man,,,,null,,,,
null,is hugging,,html-keyboard-response,248,1930028,0.0-15.0-2.19,64771,List1B,black,man,,,,null,,,,
13715,,,survey-text,249,1943745,0.0-15.0-3.19,64771,List1B,black,man,,,,,"{""Q0"":""ruth is hugging luke""}","<img src=""stim_listB/hug3.gif""</stim_listB>",is hugging,
2998,"<img src='img/portrait_matrix_list1.JPG' style='width:900px;height:500px;''></img><p>If you have memorised all the portraits and names and are ready to start, press Continue.</p><p><strong>Please note: Your memory of these faces will be tested 4 times during this experiment.</strong></p>",0,html-button-response,250,1946743,0.0-16.0-0.0,64771,List1B,black,man,,,,,,,,
2888,"<img src=""portrait/WW1.jpg""style=""width:400px;height:400px;""></img>",1,html-button-response,251,1950637,0.0-16.0-1.0,64771,List1B,black,man,,TRUE,1,,,,,
null,CORRECT,,html-keyboard-response,252,1952146,0.0-16.0-2.0-0.0,64771,List1B,black,man,,,,null,,,,
4084,"<img src=""portrait/BW2.jpg""style=""width:400px;height:400px;""></img>",2,html-button-response,253,1956238,0.0-16.0-4.0,64771,List1B,black,man,,TRUE,2,,,,,
null,CORRECT,,html-keyboard-response,254,1957756,0.0-16.0-5.0-0.0,64771,List1B,black,man,,,,null,,,,
1524,"<img src=""portrait/WM2.jpg""style=""width:400px;height:400px;""></img>",7,html-button-response,255,1959296,0.0-16.0-7.0,64771,List1B,black,man,,TRUE,7,,,,,
null,CORRECT,,html-keyboard-response,256,1960798,0.0-16.0-8.0-0.0,64771,List1B,black,man,,,,null,,,,
2574,"<img src=""portrait/WW2.jpg""style=""width:400px;height:400px;""></img>",3,html-button-response,257,1963392,0.0-16.0-10.0,64771,List1B,black,man,,TRUE,3,,,,,
null,CORRECT,,html-keyboard-response,258,1964910,0.0-16.0-11.0-0.0,64771,List1B,black,man,,,,null,,,,
2282,"<img src=""portrait/WM1.jpg""style=""width:400px;height:400px;""></img>",6,html-button-response,259,1967196,0.0-16.0-13.0,64771,List1B,black,man,,TRUE,6,,,,,
null,CORRECT,,html-keyboard-response,260,1968709,0.0-16.0-14.0-0.0,64771,List1B,black,man,,,,null,,,,
1867,"<img src=""portrait/BM2.jpg""style=""width:400px;height:400px;""></img>",5,html-button-response,261,1970583,0.0-16.0-16.0,64771,List1B,black,man,,TRUE,5,,,,,
null,CORRECT,,html-keyboard-response,262,1972099,0.0-16.0-17.0-0.0,64771,List1B,black,man,,,,null,,,,
3384,"<img src=""portrait/BW1.jpg""style=""width:400px;height:400px;""></img>",0,html-button-response,263,1975485,0.0-16.0-19.0,64771,List1B,black,man,,TRUE,0,,,,,
null,CORRECT,,html-keyboard-response,264,1977000,0.0-16.0-20.0-0.0,64771,List1B,black,man,,,,null,,,,
1691,"<img src=""portrait/BM1.jpg""style=""width:400px;height:400px;""></img>",4,html-button-response,265,1978694,0.0-16.0-22.0,64771,List1B,black,man,,TRUE,4,,,,,
null,CORRECT,,html-keyboard-response,266,1980198,0.0-16.0-23.0-0.0,64771,List1B,black,man,,,,null,,,,
1477,<p>You got 8 out of 8 right first time. Press Continue.</p>,0,html-button-response,267,1981695,0.0-16.0-25.0,64771,List1B,black,man,,,,,,,,
null,"<div style=""font-size:60px;"">+</div>",,html-keyboard-response,268,1983208,0.0-17.0-0.0,64771,List1B,black,man,,,,null,,,,
null,"<img src=""stim_listB/dance4.gif""</stim_listB>",,html-keyboard-response,269,1985208,0.0-17.0-1.0,64771,List1B,black,man,,,,null,,,,
null,are dancing with each other,,html-keyboard-response,270,1987209,0.0-17.0-2.0,64771,List1B,black,man,,,,null,,,,
33025,,,survey-text,271,2020238,0.0-17.0-3.0,64771,List1B,black,man,,,,,"{""Q0"":""dave and ruth are dancing with each other""}","<img src=""stim_listB/dance4.gif""</stim_listB>",are dancing with each other,
null,"<div style=""font-size:60px;"">+</div>",,html-keyboard-response,272,2020742,0.0-17.0-0.1,64771,List1B,black,man,,,,null,,,,
null,"<img src=""stim_listB/shout2.gif""</stim_listB>",,html-keyboard-response,273,2022747,0.0-17.0-1.1,64771,List1B,black,man,,,,null,,,,
null,are shouting at each other,,html-keyboard-response,274,2024760,0.0-17.0-2.1,64771,List1B,black,man,,,,null,,,,
25450,,,survey-text,275,2050212,0.0-17.0-3.1,64771,List1B,black,man,,,,,"{""Q0"":""jane and mike are shouting at each other""}","<img src=""stim_listB/shout2.gif""</stim_listB>",are shouting at each other,
null,"<div style=""font-size:60px;"">+</div>",,html-keyboard-response,276,2050716,0.0-17.0-0.2,64771,List1B,black,man,,,,null,,,,
null,"<img src=""stim_listB/hug5.gif""</stim_listB>",,html-keyboard-response,277,2052720,0.0-17.0-1.2,64771,List1B,black,man,,,,null,,,,
null,is hugging,,html-keyboard-response,278,2054722,0.0-17.0-2.2,64771,List1B,black,man,,,,null,,,,
10836,,,survey-text,279,2065562,0.0-17.0-3.2,64771,List1B,black,man,,,,,"{""Q0"":""fred is hugging luke""}","<img src=""stim_listB/hug5.gif""</stim_listB>",is hugging,
null,"<div style=""font-size:60px;"">+</div>",,html-keyboard-response,280,2066066,0.0-17.0-0.3,64771,List1B,black,man,,,,null,,,,
null,"<img src=""stim_listB/fight7.gif""</stim_listB>",,html-keyboard-response,281,2068071,0.0-17.0-1.3,64771,List1B,black,man,,,,null,,,,
null,is fighting,,html-keyboard-response,282,2070072,0.0-17.0-2.3,64771,List1B,black,man,,,,null,,,,
10967,,,survey-text,283,2081043,0.0-17.0-3.3,64771,List1B,black,man,,,,,"{""Q0"":""jane is fighting beth""}","<img src=""stim_listB/fight7.gif""</stim_listB>",is fighting,
null,"<div style=""font-size:60px;"">+</div>",,html-keyboard-response,284,2081558,0.0-17.0-0.4,64771,List1B,black,man,,,,null,,,,
null,"<img src=""stim_listB/argue8.gif""</stim_listB>",,html-keyboard-response,285,2083561,0.0-17.0-1.4,64771,List1B,black,man,,,,null,,,,
null,are arguing with each other,,html-keyboard-response,286,2085561,0.0-17.0-2.4,64771,List1B,black,man,,,,null,,,,
91881,,,survey-text,287,2177445,0.0-17.0-3.4,64771,List1B,black,man,,,,,"{""Q0"":""beth is arguing with jane""}","<img src=""stim_listB/argue8.gif""</stim_listB>",are arguing with each other,
null,"<div style=""font-size:60px;"">+</div>",,html-keyboard-response,288,2177949,0.0-17.0-0.5,64771,List1B,black,man,,,,null,,,,
null,"<img src=""stim_listB/dance1.gif""</stim_listB>",,html-keyboard-response,289,2179952,0.0-17.0-1.5,64771,List1B,black,man,,,,null,,,,
null,is dancing with,,html-keyboard-response,290,2181954,0.0-17.0-2.5,64771,List1B,black,man,,,,null,,,,
17388,,,survey-text,291,2199346,0.0-17.0-3.5,64771,List1B,black,man,,,,,"{""Q0"":""jane is dancing with fred""}","<img src=""stim_listB/dance1.gif""</stim_listB>",is dancing with,
null,"<div style=""font-size:60px;"">+</div>",,html-keyboard-response,292,2199849,0.0-17.0-0.6,64771,List1B,black,man,,,,null,,,,
null,"<img src=""stim_listB/talk2.gif""</stim_listB>",,html-keyboard-response,293,2201853,0.0-17.0-1.6,64771,List1B,black,man,,,,null,,,,
null,are talking to each other,,html-keyboard-response,294,2203860,0.0-17.0-2.6,64771,List1B,black,man,,,,null,,,,
14759,,,survey-text,295,2218621,0.0-17.0-3.6,64771,List1B,black,man,,,,,"{""Q0"":""fred is talking with beth""}","<img src=""stim_listB/talk2.gif""</stim_listB>",are talking to each other,
null,"<div style=""font-size:60px;"">+</div>",,html-keyboard-response,296,2219125,0.0-17.0-0.7,64771,List1B,black,man,,,,null,,,,
null,"<img src=""stim_listB/fight1.gif""</stim_listB>",,html-keyboard-response,297,2221130,0.0-17.0-1.7,64771,List1B,black,man,,,,null,,,,
null,is fighting,,html-keyboard-response,298,2223131,0.0-17.0-2.7,64771,List1B,black,man,,,,null,,,,
15368,,,survey-text,299,2238502,0.0-17.0-3.7,64771,List1B,black,man,,,,,"{""Q0"":""jane is fighting mike""}","<img src=""stim_listB/fight1.gif""</stim_listB>",is fighting,
null,"<div style=""font-size:60px;"">+</div>",,html-keyboard-response,300,2239006,0.0-17.0-0.8,64771,List1B,black,man,,,,null,,,,
null,"<img src=""stim_listB/shout6.gif""</stim_listB>",,html-keyboard-response,301,2241011,0.0-17.0-1.8,64771,List1B,black,man,,,,null,,,,
null,are shouting at each other,,html-keyboard-response,302,2243013,0.0-17.0-2.8,64771,List1B,black,man,,,,null,,,,
21618,,,survey-text,303,2264635,0.0-17.0-3.8,64771,List1B,black,man,,,,,"{""Q0"":""mike and dave are shouting at each other""}","<img src=""stim_listB/shout6.gif""</stim_listB>",are shouting at each other,
null,"<div style=""font-size:60px;"">+</div>",,html-keyboard-response,304,2265139,0.0-17.0-0.9,64771,List1B,black,man,,,,null,,,,
null,"<img src=""stim_listB/touch5.gif""</stim_listB>",,html-keyboard-response,305,2267144,0.0-17.0-1.9,64771,List1B,black,man,,,,null,,,,
null,is touching,,html-keyboard-response,306,2269152,0.0-17.0-2.9,64771,List1B,black,man,,,,null,,,,
27979,,,survey-text,307,2297133,0.0-17.0-3.9,64771,List1B,black,man,,,,,"{""Q0"":""dave is touching fred""}","<img src=""stim_listB/touch5.gif""</stim_listB>",is touching,
null,"<div style=""font-size:60px;"">+</div>",,html-keyboard-response,308,2297634,0.0-17.0-0.10,64771,List1B,black,man,,,,null,,,,
null,"<img src=""stim_listB/dance2.gif""</stim_listB>",,html-keyboard-response,309,2299639,0.0-17.0-1.10,64771,List1B,black,man,,,,null,,,,
null,are dancing with each other,,html-keyboard-response,310,2301641,0.0-17.0-2.10,64771,List1B,black,man,,,,null,,,,
15539,,,survey-text,311,2317182,0.0-17.0-3.10,64771,List1B,black,man,,,,,"{""Q0"":""beth and mike are dancing""}","<img src=""stim_listB/dance2.gif""</stim_listB>",are dancing with each other,
null,"<div style=""font-size:60px;"">+</div>",,html-keyboard-response,312,2317682,0.0-17.0-0.11,64771,List1B,black,man,,,,null,,,,
null,"<img src=""stim_listB/talk8.gif""</stim_listB>",,html-keyboard-response,313,2319688,0.0-17.0-1.11,64771,List1B,black,man,,,,null,,,,
null,are talking to each other,,html-keyboard-response,314,2321689,0.0-17.0-2.11,64771,List1B,black,man,,,,null,,,,
35792,,,survey-text,315,2357486,0.0-17.0-3.11,64771,List1B,black,man,,,,,"{""Q0"":""ruth and kate are talking""}","<img src=""stim_listB/talk8.gif""</stim_listB>",are talking to each other,
null,"<div style=""font-size:60px;"">+</div>",,html-keyboard-response,316,2358001,0.0-17.0-0.12,64771,List1B,black,man,,,,null,,,,
null,"<img src=""stim_listB/argue2.gif""</stim_listB>",,html-keyboard-response,317,2360002,0.0-17.0-1.12,64771,List1B,black,man,,,,null,,,,
null,are arguing with each other,,html-keyboard-response,318,2362009,0.0-17.0-2.12,64771,List1B,black,man,,,,null,,,,
12998,,,survey-text,319,2375007,0.0-17.0-3.12,64771,List1B,black,man,,,,,"{""Q0"":""fred and kate are arguing""}","<img src=""stim_listB/argue2.gif""</stim_listB>",are arguing with each other,
null,"<div style=""font-size:60px;"">+</div>",,html-keyboard-response,320,2375524,0.0-17.0-0.13,64771,List1B,black,man,,,,null,,,,
null,"<img src=""stim_listB/meet1.gif""</stim_listB>",,html-keyboard-response,321,2377527,0.0-17.0-1.13,64771,List1B,black,man,,,,null,,,,
null,is meeting,,html-keyboard-response,322,2379531,0.0-17.0-2.13,64771,List1B,black,man,,,,null,,,,
16143,,,survey-text,323,2395679,0.0-17.0-3.13,64771,List1B,black,man,,,,,"{""Q0"":""kate is meeting mike""}","<img src=""stim_listB/meet1.gif""</stim_listB>",is meeting,
null,"<div style=""font-size:60px;"">+</div>",,html-keyboard-response,324,2396195,0.0-17.0-0.14,64771,List1B,black,man,,,,null,,,,
null,"<img src=""stim_listB/talk4.gif""</stim_listB>",,html-keyboard-response,325,2398198,0.0-17.0-1.14,64771,List1B,black,man,,,,null,,,,
null,are talking to each other,,html-keyboard-response,326,2400199,0.0-17.0-2.14,64771,List1B,black,man,,,,null,,,,
14745,,,survey-text,327,2414948,0.0-17.0-3.14,64771,List1B,black,man,,,,,"{""Q0"":""dave and ruth are talking""}","<img src=""stim_listB/talk4.gif""</stim_listB>",are talking to each other,
null,"<div style=""font-size:60px;"">+</div>",,html-keyboard-response,328,2415452,0.0-17.0-0.15,64771,List1B,black,man,,,,null,,,,
null,"<img src=""stim_listB/touch7.gif""</stim_listB>",,html-keyboard-response,329,2417462,0.0-17.0-1.15,64771,List1B,black,man,,,,null,,,,
null,is touching,,html-keyboard-response,330,2419462,0.0-17.0-2.15,64771,List1B,black,man,,,,null,,,,
14989,,,survey-text,331,2434455,0.0-17.0-3.15,64771,List1B,black,man,,,,,"{""Q0"":""jane and kate are touching""}","<img src=""stim_listB/touch7.gif""</stim_listB>",is touching,
null,"<div style=""font-size:60px;"">+</div>",,html-keyboard-response,332,2434960,0.0-17.0-0.16,64771,List1B,black,man,,,,null,,,,
null,"<img src=""stim_listB/hug8.gif""</stim_listB>",,html-keyboard-response,333,2436966,0.0-17.0-1.16,64771,List1B,black,man,,,,null,,,,
null,are hugging each other,,html-keyboard-response,334,2438967,0.0-17.0-2.16,64771,List1B,black,man,,,,null,,,,
12680,,,survey-text,335,2451651,0.0-17.0-3.16,64771,List1B,black,man,,,,,"{""Q0"":""kate and jane are hugging""}","<img src=""stim_listB/hug8.gif""</stim_listB>",are hugging each other,
null,"<div style=""font-size:60px;"">+</div>",,html-keyboard-response,336,2452155,0.0-17.0-0.17,64771,List1B,black,man,,,,null,,,,
null,"<img src=""stim_listB/argue3.gif""</stim_listB>",,html-keyboard-response,337,2454160,0.0-17.0-1.17,64771,List1B,black,man,,,,null,,,,
null,is arguing with,,html-keyboard-response,338,2456162,0.0-17.0-2.17,64771,List1B,black,man,,,,null,,,,
14634,,,survey-text,339,2470800,0.0-17.0-3.17,64771,List1B,black,man,,,,,"{""Q0"":""ruth and dave are arguing""}","<img src=""stim_listB/argue3.gif""</stim_listB>",is arguing with,
null,"<div style=""font-size:60px;"">+</div>",,html-keyboard-response,340,2471304,0.0-17.0-0.18,64771,List1B,black,man,,,,null,,,,
null,"<img src=""stim_listB/kiss6.gif""</stim_listB>",,html-keyboard-response,341,2473311,0.0-17.0-1.18,64771,List1B,black,man,,,,null,,,,
null,are kissing each other,,html-keyboard-response,342,2475312,0.0-17.0-2.18,64771,List1B,black,man,,,,null,,,,
15011,,,survey-text,343,2490325,0.0-17.0-3.18,64771,List1B,black,man,,,,,"{""Q0"":""mike and luke are kissing""}","<img src=""stim_listB/kiss6.gif""</stim_listB>",are kissing each other,
null,"<div style=""font-size:60px;"">+</div>",,html-keyboard-response,344,2490841,0.0-17.0-0.19,64771,List1B,black,man,,,,null,,,,
null,"<img src=""stim_listB/touch4.gif""</stim_listB>",,html-keyboard-response,345,2492846,0.0-17.0-1.19,64771,List1B,black,man,,,,null,,,,
null,are touching each other,,html-keyboard-response,346,2494848,0.0-17.0-2.19,64771,List1B,black,man,,,,null,,,,
11845,,,survey-text,347,2506697,0.0-17.0-3.19,64771,List1B,black,man,,,,,"{""Q0"":""luke and ruth are touching""}","<img src=""stim_listB/touch4.gif""</stim_listB>",are touching each other,
9586,"<img src='img/portrait_matrix_list1.JPG' style='width:900px;height:500px;''></img><p>If you have memorised all the portraits and names and are ready to start, press Continue.</p><p><strong>Please note: Your memory of these faces will be tested 4 times during this experiment.</strong></p>",0,html-button-response,348,2516290,0.0-18.0-0.0,64771,List1B,black,man,,,,,,,,
2733,"<img src=""portrait/BW2.jpg""style=""width:400px;height:400px;""></img>",2,html-button-response,349,2520030,0.0-18.0-1.0,64771,List1B,black,man,,TRUE,2,,,,,
null,CORRECT,,html-keyboard-response,350,2521534,0.0-18.0-2.0-0.0,64771,List1B,black,man,,,,null,,,,
4725,"<img src=""portrait/BM1.jpg""style=""width:400px;height:400px;""></img>",4,html-button-response,351,2526267,0.0-18.0-4.0,64771,List1B,black,man,,TRUE,4,,,,,
null,CORRECT,,html-keyboard-response,352,2527775,0.0-18.0-5.0-0.0,64771,List1B,black,man,,,,null,,,,
1676,"<img src=""portrait/BM2.jpg""style=""width:400px;height:400px;""></img>",5,html-button-response,353,2529458,0.0-18.0-7.0,64771,List1B,black,man,,TRUE,5,,,,,
null,CORRECT,,html-keyboard-response,354,2530961,0.0-18.0-8.0-0.0,64771,List1B,black,man,,,,null,,,,
2431,"<img src=""portrait/WW2.jpg""style=""width:400px;height:400px;""></img>",3,html-button-response,355,2533399,0.0-18.0-10.0,64771,List1B,black,man,,TRUE,3,,,,,
null,CORRECT,,html-keyboard-response,356,2534901,0.0-18.0-11.0-0.0,64771,List1B,black,man,,,,null,,,,
2979,"<img src=""portrait/BW1.jpg""style=""width:400px;height:400px;""></img>",0,html-button-response,357,2537889,0.0-18.0-13.0,64771,List1B,black,man,,TRUE,0,,,,,
null,CORRECT,,html-keyboard-response,358,2539395,0.0-18.0-14.0-0.0,64771,List1B,black,man,,,,null,,,,
1594,"<img src=""portrait/WM1.jpg""style=""width:400px;height:400px;""></img>",6,html-button-response,359,2540993,0.0-18.0-16.0,64771,List1B,black,man,,TRUE,6,,,,,
null,CORRECT,,html-keyboard-response,360,2542497,0.0-18.0-17.0-0.0,64771,List1B,black,man,,,,null,,,,
868,"<img src=""portrait/WM2.jpg""style=""width:400px;height:400px;""></img>",7,html-button-response,361,2543383,0.0-18.0-19.0,64771,List1B,black,man,,TRUE,7,,,,,
null,CORRECT,,html-keyboard-response,362,2544890,0.0-18.0-20.0-0.0,64771,List1B,black,man,,,,null,,,,
3895,"<img src=""portrait/WW1.jpg""style=""width:400px;height:400px;""></img>",1,html-button-response,363,2548789,0.0-18.0-22.0,64771,List1B,black,man,,TRUE,1,,,,,
null,CORRECT,,html-keyboard-response,364,2550296,0.0-18.0-23.0-0.0,64771,List1B,black,man,,,,null,,,,
1282,<p>You got 8 out of 8 right first time. Press Continue.</p>,0,html-button-response,365,2551580,0.0-18.0-25.0,64771,List1B,black,man,,,,,,,,
null,"<div style=""font-size:60px;"">+</div>",,html-keyboard-response,366,2553087,0.0-19.0-0.0,64771,List1B,black,man,,,,null,,,,
null,"<img src=""stim_listB/talk7.gif""</stim_listB>",,html-keyboard-response,367,2555103,0.0-19.0-1.0,64771,List1B,black,man,,,,null,,,,
null,is talking to,,html-keyboard-response,368,2557117,0.0-19.0-2.0,64771,List1B,black,man,,,,null,,,,
26380,,,survey-text,369,2583497,0.0-19.0-3.0,64771,List1B,black,man,,,,,"{""Q0"":""jane and beth are talking""}","<img src=""stim_listB/talk7.gif""</stim_listB>",is talking to,
null,"<div style=""font-size:60px;"">+</div>",,html-keyboard-response,370,2584017,0.0-19.0-0.1,64771,List1B,black,man,,,,null,,,,
null,"<img src=""stim_listB/talk6.gif""</stim_listB>",,html-keyboard-response,371,2586022,0.0-19.0-1.1,64771,List1B,black,man,,,,null,,,,
null,are talking to each other,,html-keyboard-response,372,2588023,0.0-19.0-2.1,64771,List1B,black,man,,,,null,,,,
14393,,,survey-text,373,2602420,0.0-19.0-3.1,64771,List1B,black,man,,,,,"{""Q0"":""mike and luke are talking""}","<img src=""stim_listB/talk6.gif""</stim_listB>",are talking to each other,
null,"<div style=""font-size:60px;"">+</div>",,html-keyboard-response,374,2602923,0.0-19.0-0.2,64771,List1B,black,man,,,,null,,,,
null,"<img src=""stim_listB/shout1.gif""</stim_listB>",,html-keyboard-response,375,2604928,0.0-19.0-1.2,64771,List1B,black,man,,,,null,,,,
null,is shouting at,,html-keyboard-response,376,2606930,0.0-19.0-2.2,64771,List1B,black,man,,,,null,,,,
20659,,,survey-text,377,2627592,0.0-19.0-3.2,64771,List1B,black,man,,,,,"{""Q0"":""beth and fred are shouting at each other""}","<img src=""stim_listB/shout1.gif""</stim_listB>",is shouting at,
null,"<div style=""font-size:60px;"">+</div>",,html-keyboard-response,378,2628096,0.0-19.0-0.3,64771,List1B,black,man,,,,null,,,,
null,"<img src=""stim_listB/argue4.gif""</stim_listB>",,html-keyboard-response,379,2630102,0.0-19.0-1.3,64771,List1B,black,man,,,,null,,,,
null,are arguing with each other,,html-keyboard-response,380,2632103,0.0-19.0-2.3,64771,List1B,black,man,,,,null,,,,
20751,,,survey-text,381,2652860,0.0-19.0-3.3,64771,List1B,black,man,,,,,"{""Q0"":""luke and jane are arguing with each other""}","<img src=""stim_listB/argue4.gif""</stim_listB>",are arguing with each other,
null,"<div style=""font-size:60px;"">+</div>",,html-keyboard-response,382,2653365,0.0-19.0-0.4,64771,List1B,black,man,,,,null,,,,
null,"<img src=""stim_listB/marry3.gif""</stim_listB>",,html-keyboard-response,383,2655377,0.0-19.0-1.4,64771,List1B,black,man,,,,null,,,,
null,is marrying,,html-keyboard-response,384,2657380,0.0-19.0-2.4,64771,List1B,black,man,,,,null,,,,
22417,,,survey-text,385,2679802,0.0-19.0-3.4,64771,List1B,black,man,,,,,"{""Q0"":""ruth and dave are marrying each other""}","<img src=""stim_listB/marry3.gif""</stim_listB>",is marrying,
null,"<div style=""font-size:60px;"">+</div>",,html-keyboard-response,386,2680306,0.0-19.0-0.5,64771,List1B,black,man,,,,null,,,,
null,"<img src=""stim_listB/kiss5.gif""</stim_listB>",,html-keyboard-response,387,2682311,0.0-19.0-1.5,64771,List1B,black,man,,,,null,,,,
null,is kissing,,html-keyboard-response,388,2684312,0.0-19.0-2.5,64771,List1B,black,man,,,,null,,,,
10955,,,survey-text,389,2695269,0.0-19.0-3.5,64771,List1B,black,man,,,,,"{""Q0"":""luke and fred are kissing""}","<img src=""stim_listB/kiss5.gif""</stim_listB>",is kissing,
null,"<div style=""font-size:60px;"">+</div>",,html-keyboard-response,390,2695770,0.0-19.0-0.6,64771,List1B,black,man,,,,null,,,,
null,"<img src=""stim_listB/shout5.gif""</stim_listB>",,html-keyboard-response,391,2697775,0.0-19.0-1.6,64771,List1B,black,man,,,,null,,,,
null,is shouting at,,html-keyboard-response,392,2699781,0.0-19.0-2.6,64771,List1B,black,man,,,,null,,,,
54831,,,survey-text,393,2754613,0.0-19.0-3.6,64771,List1B,black,man,,,,,"{""Q0"":""""}","<img src=""stim_listB/shout5.gif""</stim_listB>",is shouting at,
null,"<div style=""font-size:60px;"">+</div>",,html-keyboard-response,394,2755124,0.0-19.0-0.7,64771,List1B,black,man,,,,null,,,,
null,"<img src=""stim_listB/fight2.gif""</stim_listB>",,html-keyboard-response,395,2757131,0.0-19.0-1.7,64771,List1B,black,man,,,,null,,,,
null,are fighting each other,,html-keyboard-response,396,2759139,0.0-19.0-2.7,64771,List1B,black,man,,,,null,,,,
17975,,,survey-text,397,2777114,0.0-19.0-3.7,64771,List1B,black,man,,,,,"{""Q0"":""fred and beth are fighting each other""}","<img src=""stim_listB/fight2.gif""</stim_listB>",are fighting each other,
null,"<div style=""font-size:60px;"">+</div>",,html-keyboard-response,398,2777615,0.0-19.0-0.8,64771,List1B,black,man,,,,null,,,,
null,"<img src=""stim_listB/marry1.gif""</stim_listB>",,html-keyboard-response,399,2779620,0.0-19.0-1.8,64771,List1B,black,man,,,,null,,,,
null,is marrying,,html-keyboard-response,400,2781622,0.0-19.0-2.8,64771,List1B,black,man,,,,null,,,,
14957,,,survey-text,401,2796582,0.0-19.0-3.8,64771,List1B,black,man,,,,,"{""Q0"":""beth and mike are marrying""}","<img src=""stim_listB/marry1.gif""</stim_listB>",is marrying,
null,"<div style=""font-size:60px;"">+</div>",,html-keyboard-response,402,2797092,0.0-19.0-0.9,64771,List1B,black,man,,,,null,,,,
null,"<img src=""stim_listB/meet8.gif""</stim_listB>",,html-keyboard-response,403,2799099,0.0-19.0-1.9,64771,List1B,black,man,,,,null,,,,
null,are meeting each other,,html-keyboard-response,404,2801111,0.0-19.0-2.9,64771,List1B,black,man,,,,null,,,,
14585,,,survey-text,405,2815696,0.0-19.0-3.9,64771,List1B,black,man,,,,,"{""Q0"":""beth and ruth are meeting each other""}","<img src=""stim_listB/meet8.gif""</stim_listB>",are meeting each other,
null,"<div style=""font-size:60px;"">+</div>",,html-keyboard-response,406,2816213,0.0-19.0-0.10,64771,List1B,black,man,,,,null,,,,
null,"<img src=""stim_listB/marry7.gif""</stim_listB>",,html-keyboard-response,407,2818223,0.0-19.0-1.10,64771,List1B,black,man,,,,null,,,,
null,is marrying,,html-keyboard-response,408,2820224,0.0-19.0-2.10,64771,List1B,black,man,,,,null,,,,
13819,,,survey-text,409,2834060,0.0-19.0-3.10,64771,List1B,black,man,,,,,"{""Q0"":""ruth and jane are marrying""}","<img src=""stim_listB/marry7.gif""</stim_listB>",is marrying,
null,"<div style=""font-size:60px;"">+</div>",,html-keyboard-response,410,2834561,0.0-19.0-0.11,64771,List1B,black,man,,,,null,,,,
null,"<img src=""stim_listB/fight3.gif""</stim_listB>",,html-keyboard-response,411,2836565,0.0-19.0-1.11,64771,List1B,black,man,,,,null,,,,
null,is fighting,,html-keyboard-response,412,2838568,0.0-19.0-2.11,64771,List1B,black,man,,,,null,,,,
10308,,,survey-text,413,2848878,0.0-19.0-3.11,64771,List1B,black,man,,,,,"{""Q0"":""jane is fighting dave""}","<img src=""stim_listB/fight3.gif""</stim_listB>",is fighting,
null,"<div style=""font-size:60px;"">+</div>",,html-keyboard-response,414,2849384,0.0-19.0-0.12,64771,List1B,black,man,,,,null,,,,
null,"<img src=""stim_listB/hug2.gif""</stim_listB>",,html-keyboard-response,415,2851385,0.0-19.0-1.12,64771,List1B,black,man,,,,null,,,,
null,are hugging each other,,html-keyboard-response,416,2853396,0.0-19.0-2.12,64771,List1B,black,man,,,,null,,,,
35346,,,survey-text,417,2888746,0.0-19.0-3.12,64771,List1B,black,man,,,,,"{""Q0"":""jane and mike are hugging""}","<img src=""stim_listB/hug2.gif""</stim_listB>",are hugging each other,
null,"<div style=""font-size:60px;"">+</div>",,html-keyboard-response,418,2889253,0.0-19.0-0.13,64771,List1B,black,man,,,,null,,,,
null,"<img src=""stim_listB/marry4.gif""</stim_listB>",,html-keyboard-response,419,2891267,0.0-19.0-1.13,64771,List1B,black,man,,,,null,,,,
null,are marrying each other,,html-keyboard-response,420,2893268,0.0-19.0-2.13,64771,List1B,black,man,,,,null,,,,
13771,,,survey-text,421,2907043,0.0-19.0-3.13,64771,List1B,black,man,,,,,"{""Q0"":""luke and jane are marrying each other""}","<img src=""stim_listB/marry4.gif""</stim_listB>",are marrying each other,
null,"<div style=""font-size:60px;"">+</div>",,html-keyboard-response,422,2907547,0.0-19.0-0.14,64771,List1B,black,man,,,,null,,,,
null,"<img src=""stim_listB/hug7.gif""</stim_listB>",,html-keyboard-response,423,2909551,0.0-19.0-1.14,64771,List1B,black,man,,,,null,,,,
null,is hugging,,html-keyboard-response,424,2911552,0.0-19.0-2.14,64771,List1B,black,man,,,,null,,,,
61952,,,survey-text,425,2973509,0.0-19.0-3.14,64771,List1B,black,man,,,,,"{""Q0"":""fred and ""}","<img src=""stim_listB/hug7.gif""</stim_listB>",is hugging,
null,"<div style=""font-size:60px;"">+</div>",,html-keyboard-response,426,2974024,0.0-19.0-0.15,64771,List1B,black,man,,,,null,,,,
null,"<img src=""stim_listB/marry8.gif""</stim_listB>",,html-keyboard-response,427,2976028,0.0-19.0-1.15,64771,List1B,black,man,,,,null,,,,
null,are marrying each other,,html-keyboard-response,428,2978030,0.0-19.0-2.15,64771,List1B,black,man,,,,null,,,,
13906,,,survey-text,429,2991941,0.0-19.0-3.15,64771,List1B,black,man,,,,,"{""Q0"":""beth and jane are marrying each other""}","<img src=""stim_listB/marry8.gif""</stim_listB>",are marrying each other,
null,"<div style=""font-size:60px;"">+</div>",,html-keyboard-response,430,2992444,0.0-19.0-0.16,64771,List1B,black,man,,,,null,,,,
null,"<img src=""stim_listB/kiss4.gif""</stim_listB>",,html-keyboard-response,431,2994448,0.0-19.0-1.16,64771,List1B,black,man,,,,null,,,,
null,are kissing each other,,html-keyboard-response,432,2996449,0.0-19.0-2.16,64771,List1B,black,man,,,,null,,,,
22084,,,survey-text,433,3018536,0.0-19.0-3.16,64771,List1B,black,man,,,,,"{""Q0"":""dave and jane are kissing""}","<img src=""stim_listB/kiss4.gif""</stim_listB>",are kissing each other,
null,"<div style=""font-size:60px;"">+</div>",,html-keyboard-response,434,3019039,0.0-19.0-0.17,64771,List1B,black,man,,,,null,,,,
null,"<img src=""stim_listB/argue1.gif""</stim_listB>",,html-keyboard-response,435,3021043,0.0-19.0-1.17,64771,List1B,black,man,,,,null,,,,
null,is arguing with,,html-keyboard-response,436,3023045,0.0-19.0-2.17,64771,List1B,black,man,,,,null,,,,
14053,,,survey-text,437,3037100,0.0-19.0-3.17,64771,List1B,black,man,,,,,"{""Q0"":""beth is arguing with mike""}","<img src=""stim_listB/argue1.gif""</stim_listB>",is arguing with,
null,"<div style=""font-size:60px;"">+</div>",,html-keyboard-response,438,3037600,0.0-19.0-0.18,64771,List1B,black,man,,,,null,,,,
null,"<img src=""stim_listB/kiss3.gif""</stim_listB>",,html-keyboard-response,439,3039609,0.0-19.0-1.18,64771,List1B,black,man,,,,null,,,,
null,is kissing,,html-keyboard-response,440,3041609,0.0-19.0-2.18,64771,List1B,black,man,,,,null,,,,
23567,,,survey-text,441,3065181,0.0-19.0-3.18,64771,List1B,black,man,,,,,"{""Q0"":""ruth and luke are kissing""}","<img src=""stim_listB/kiss3.gif""</stim_listB>",is kissing,
null,"<div style=""font-size:60px;"">+</div>",,html-keyboard-response,442,3065692,0.0-19.0-0.19,64771,List1B,black,man,,,,null,,,,
null,"<img src=""stim_listB/hug1.gif""</stim_listB>",,html-keyboard-response,443,3067692,0.0-19.0-1.19,64771,List1B,black,man,,,,null,,,,
null,is hugging,,html-keyboard-response,444,3069694,0.0-19.0-2.19,64771,List1B,black,man,,,,null,,,,
19953,,,survey-text,445,3089649,0.0-19.0-3.19,64771,List1B,black,man,,,,,"{""Q0"":""beth is hugging fred""}","<img src=""stim_listB/hug1.gif""</stim_listB>",is hugging,
4171,<p>Thank you for completing that task.</p><p>The final part of this session is a short questionnaire.</p><p>Press Continue.</p>,0,html-button-response,446,3093821,0.0-20.0,64771,List1B,black,man,,,,,,,,
64850,,,survey-text,447,3159686,0.0-21.0,64771,List1B,black,man,,,,,"{""Q0"":""27"",""Q1"":""English"",""Q2"":""English"",""Q3"":""United States"",""Q4"":""Black"",""Q5"":""Male""}",,,demographics
175635,,,survey-likert,448,3335366,0.0-22.0,64771,List1B,black,man,,,,,"{""Q0"":4,""Q1"":3,""Q2"":4,""Q3"":5,""Q4"":5,""Q5"":5,""Q6"":5,""Q7"":4,""Q8"":4,""Q9"":5,""Q10"":4,""Q11"":3,""Q12"":4,""Q13"":4}",,,likert_race
188065,,,survey-likert,449,3523554,0.0-23.0,64771,List1B,black,man,,,,,"{""Q0"":3,""Q1"":3,""Q2"":6,""Q3"":6,""Q4"":6,""Q5"":6,""Q6"":6,""Q7"":5,""Q8"":6,""Q9"":6,""Q10"":4,""Q11"":4,""Q12"":4,""Q13"":4}",,,likert_gender
10482,,,survey-text,450,3534129,0.0-24.0,64771,List1B,black,man,,,,,"{""Q0"":""ccc""}",,,worker_id
58016,,,external-html,451,3592587,0.0-25.0,64771,List1B,black,man,debrief.html,,,,,,,
