rt,stimulus,button_pressed,trial_type,trial_index,time_elapsed,internal_node_id,subject,list,ppt_race,ppt_gender,url,first_guess,correct,key_press,responses,image_type,phrase_type,test_part
2740,Welcome to the experiment. Press Continue to begin.,0,html-button-response,0,2744,0.0-0.0,64778,List1A,white,woman,,,,,,,,
58635,,,external-html,1,62463,0.0-1.0,64778,List1A,white,woman,consent.html,,,,,,,
14168,"<p>On the next page, you will see portraits of 8 people and their names.</p><p>Your first task is to take a few minutes to memorise the names of these people.</p><p>You will have to recall their names during the rest of the experiment, so it is</p><p>essential that you try to memorise these people and their names as best as you can.</p><br><p><strong>You will then be tested on your memory of these names and portraits.</strong></p><br><p>The experiment will start after you have completed this memory test.</p><br><p>Ready?</p>",0,html-button-response,2,76634,0.0-2.0,64778,List1A,white,woman,,,,,,,,
83573,"<img src='img/portrait_matrix_list1.JPG' style='width:900px;height:500px;''></img><p>If you have memorised all the portraits and names and are ready to start, press Continue.</p><p><strong>Please note: Your memory of these faces will be tested 4 times during this experiment.</strong></p>",0,html-button-response,3,161213,0.0-3.0-0.0,64778,List1A,white,woman,,,,,,,,
4573,"<img src=""portrait/BW1.jpg""style=""width:400px;height:400px;""></img>",0,html-button-response,4,166794,0.0-3.0-1.0,64778,List1A,white,woman,,TRUE,0,,,,,
null,CORRECT,,html-keyboard-response,5,168303,0.0-3.0-2.0-0.0,64778,List1A,white,woman,,,,null,,,,
2055,"<img src=""portrait/WW2.jpg""style=""width:400px;height:400px;""></img>",3,html-button-response,6,170361,0.0-3.0-4.0,64778,List1A,white,woman,,TRUE,3,,,,,
null,CORRECT,,html-keyboard-response,7,171868,0.0-3.0-5.0-0.0,64778,List1A,white,woman,,,,null,,,,
3619,"<img src=""portrait/WM1.jpg""style=""width:400px;height:400px;""></img>",6,html-button-response,8,175489,0.0-3.0-7.0,64778,List1A,white,woman,,TRUE,6,,,,,
null,CORRECT,,html-keyboard-response,9,176992,0.0-3.0-8.0-0.0,64778,List1A,white,woman,,,,null,,,,
8406,"<img src=""portrait/BM1.jpg""style=""width:400px;height:400px;""></img>",4,html-button-response,10,185399,0.0-3.0-10.0,64778,List1A,white,woman,,TRUE,4,,,,,
null,CORRECT,,html-keyboard-response,11,186904,0.0-3.0-11.0-0.0,64778,List1A,white,woman,,,,null,,,,
2273,"<img src=""portrait/WW1.jpg""style=""width:400px;height:400px;""></img>",1,html-button-response,12,189179,0.0-3.0-13.0,64778,List1A,white,woman,,TRUE,1,,,,,
null,CORRECT,,html-keyboard-response,13,190687,0.0-3.0-14.0-0.0,64778,List1A,white,woman,,,,null,,,,
4764,"<img src=""portrait/WM2.jpg""style=""width:400px;height:400px;""></img>",7,html-button-response,14,195453,0.0-3.0-16.0,64778,List1A,white,woman,,TRUE,7,,,,,
null,CORRECT,,html-keyboard-response,15,196958,0.0-3.0-17.0-0.0,64778,List1A,white,woman,,,,null,,,,
2464,"<img src=""portrait/BM2.jpg""style=""width:400px;height:400px;""></img>",5,html-button-response,16,199424,0.0-3.0-19.0,64778,List1A,white,woman,,TRUE,5,,,,,
null,CORRECT,,html-keyboard-response,17,200933,0.0-3.0-20.0-0.0,64778,List1A,white,woman,,,,null,,,,
2266,"<img src=""portrait/BW2.jpg""style=""width:400px;height:400px;""></img>",2,html-button-response,18,203201,0.0-3.0-22.0,64778,List1A,white,woman,,TRUE,2,,,,,
null,CORRECT,,html-keyboard-response,19,204708,0.0-3.0-23.0-0.0,64778,List1A,white,woman,,,,null,,,,
1565,<p>You got 8 out of 8 right first time. Press Continue.</p>,0,html-button-response,20,206276,0.0-3.0-25.0,64778,List1A,white,woman,,,,,,,,
32350,"<p>In this experiment, you will view photographs of the people from the memory game interacting.</p><p>By using the <strong>exact</strong> phrase given <i>after</i> the photograph appears and recalling the correct names of the people in the photographs, form a sentence describing the interaction. You do not need to capitalise names.</p><p>Type your answer in the space provided. Please complete every sentence before moving onto the next trial.</p><p>You will only have a few seconds to memorise each given photograph and phrase before you can respond, so try your best to focus.</p><p>An example is given below. Press 'Continue' when you are ready.</p><img src='img/speaking_example_v2.jpg' style='width:800px;height:460px;''></img>",0,html-button-response,21,239631,0.0-4.0,64778,List1A,white,woman,,,,,,,,
2171,"<p>Before the experiment starts, you will watch two example trials. Press 'Continue'.</p>",0,html-button-response,22,242805,0.0-5.0,64778,List1A,white,woman,,,,,,,,
null,<img src='img/speaking_WW.gif'></img>,,html-keyboard-response,23,245813,0.0-6.0,64778,List1A,white,woman,,,,null,,,,
null,<p>is speaking to</p>,,html-keyboard-response,24,247814,0.0-7.0,64778,List1A,white,woman,,,,null,,,,
3611,<p><b>Answer:</b> kate is speaking to beth</p>,0,html-button-response,25,251426,0.0-8.0,64778,List1A,white,woman,,,,,,,,
null,<img src='img/pointing_BM.gif'></img>,,html-keyboard-response,26,254433,0.0-9.0,64778,List1A,white,woman,,,,null,,,,
null,<p>are pointing at each other</p>,,html-keyboard-response,27,256437,0.0-10.0,64778,List1A,white,woman,,,,null,,,,
4365,<p><b>Answer:</b> luke and dave are pointing at each other</p>,0,html-button-response,28,260804,0.0-11.0,64778,List1A,white,woman,,,,,,,,
6837,"<p>Ready to start the experiment?</p><br><p><strong>Remember to describe the picture using a full sentence,</strong></p><p><strong> that combines the names of the people with the given phrase.</strong></p><p><strong> You do not need to capitalise names or use punctuation.</strong></p><br><p>Press 'Continue' to begin.</p>",0,html-button-response,29,268644,0.0-12.0,64778,List1A,white,woman,,,,,,,,
null,"<div style=""font-size:60px;"">+</div>",,html-keyboard-response,30,270148,0.0-13.0-0.0,64778,List1A,white,woman,,,,null,,,,
null,"<img src=""stim_listA/marry7.gif""</stim_listA>",,html-keyboard-response,31,272152,0.0-13.0-1.0,64778,List1A,white,woman,,,,null,,,,
null,is marrying,,html-keyboard-response,32,274156,0.0-13.0-2.0,64778,List1A,white,woman,,,,null,,,,
25261,,,survey-text,33,299419,0.0-13.0-3.0,64778,List1A,white,woman,,,,,"{""Q0"":""ruth is marrying kate""}","<img src=""stim_listA/marry7.gif""</stim_listA>",is marrying,
null,"<div style=""font-size:60px;"">+</div>",,html-keyboard-response,34,299926,0.0-13.0-0.1,64778,List1A,white,woman,,,,null,,,,
null,"<img src=""stim_listA/talk5.gif""</stim_listA>",,html-keyboard-response,35,301933,0.0-13.0-1.1,64778,List1A,white,woman,,,,null,,,,
null,is talking to,,html-keyboard-response,36,303935,0.0-13.0-2.1,64778,List1A,white,woman,,,,null,,,,
15208,,,survey-text,37,319145,0.0-13.0-3.1,64778,List1A,white,woman,,,,,"{""Q0"":""fred is talking to dave""}","<img src=""stim_listA/talk5.gif""</stim_listA>",is talking to,
null,"<div style=""font-size:60px;"">+</div>",,html-keyboard-response,38,319649,0.0-13.0-0.2,64778,List1A,white,woman,,,,null,,,,
null,"<img src=""stim_listA/argue1.gif""</stim_listA>",,html-keyboard-response,39,321652,0.0-13.0-1.2,64778,List1A,white,woman,,,,null,,,,
null,is arguing with,,html-keyboard-response,40,323654,0.0-13.0-2.2,64778,List1A,white,woman,,,,null,,,,
8273,,,survey-text,41,331928,0.0-13.0-3.2,64778,List1A,white,woman,,,,,"{""Q0"":""mike is arguing with beth""}","<img src=""stim_listA/argue1.gif""</stim_listA>",is arguing with,
null,"<div style=""font-size:60px;"">+</div>",,html-keyboard-response,42,332434,0.0-13.0-0.3,64778,List1A,white,woman,,,,null,,,,
null,"<img src=""stim_listA/fight1.gif""</stim_listA>",,html-keyboard-response,43,334438,0.0-13.0-1.3,64778,List1A,white,woman,,,,null,,,,
null,is fighting,,html-keyboard-response,44,336441,0.0-13.0-2.3,64778,List1A,white,woman,,,,null,,,,
14462,,,survey-text,45,350904,0.0-13.0-3.3,64778,List1A,white,woman,,,,,"{""Q0"":""kate is fighting mike""}","<img src=""stim_listA/fight1.gif""</stim_listA>",is fighting,
null,"<div style=""font-size:60px;"">+</div>",,html-keyboard-response,46,351406,0.0-13.0-0.4,64778,List1A,white,woman,,,,null,,,,
null,"<img src=""stim_listA/talk8.gif""</stim_listA>",,html-keyboard-response,47,353411,0.0-13.0-1.4,64778,List1A,white,woman,,,,null,,,,
null,are talking to each other,,html-keyboard-response,48,355415,0.0-13.0-2.4,64778,List1A,white,woman,,,,null,,,,
13510,,,survey-text,49,368926,0.0-13.0-3.4,64778,List1A,white,woman,,,,,"{""Q0"":""ruth and kate are talking to each other""}","<img src=""stim_listA/talk8.gif""</stim_listA>",are talking to each other,
null,"<div style=""font-size:60px;"">+</div>",,html-keyboard-response,50,369428,0.0-13.0-0.5,64778,List1A,white,woman,,,,null,,,,
null,"<img src=""stim_listA/shout1.gif""</stim_listA>",,html-keyboard-response,51,371432,0.0-13.0-1.5,64778,List1A,white,woman,,,,null,,,,
null,is shouting at,,html-keyboard-response,52,373437,0.0-13.0-2.5,64778,List1A,white,woman,,,,null,,,,
6895,,,survey-text,53,380333,0.0-13.0-3.5,64778,List1A,white,woman,,,,,"{""Q0"":""fred is shouting at beth""}","<img src=""stim_listA/shout1.gif""</stim_listA>",is shouting at,
null,"<div style=""font-size:60px;"">+</div>",,html-keyboard-response,54,380836,0.0-13.0-0.6,64778,List1A,white,woman,,,,null,,,,
null,"<img src=""stim_listA/marry4.gif""</stim_listA>",,html-keyboard-response,55,382844,0.0-13.0-1.6,64778,List1A,white,woman,,,,null,,,,
null,are marrying each other,,html-keyboard-response,56,384847,0.0-13.0-2.6,64778,List1A,white,woman,,,,null,,,,
16143,,,survey-text,57,400990,0.0-13.0-3.6,64778,List1A,white,woman,,,,,"{""Q0"":""jane and luke are marrying each other""}","<img src=""stim_listA/marry4.gif""</stim_listA>",are marrying each other,
null,"<div style=""font-size:60px;"">+</div>",,html-keyboard-response,58,401495,0.0-13.0-0.7,64778,List1A,white,woman,,,,null,,,,
null,"<img src=""stim_listA/talk4.gif""</stim_listA>",,html-keyboard-response,59,403499,0.0-13.0-1.7,64778,List1A,white,woman,,,,null,,,,
null,are talking to each other,,html-keyboard-response,60,405503,0.0-13.0-2.7,64778,List1A,white,woman,,,,null,,,,
10129,,,survey-text,61,415633,0.0-13.0-3.7,64778,List1A,white,woman,,,,,"{""Q0"":""ruth and dave are talking to each other""}","<img src=""stim_listA/talk4.gif""</stim_listA>",are talking to each other,
null,"<div style=""font-size:60px;"">+</div>",,html-keyboard-response,62,416137,0.0-13.0-0.8,64778,List1A,white,woman,,,,null,,,,
null,"<img src=""stim_listA/marry2.gif""</stim_listA>",,html-keyboard-response,63,418142,0.0-13.0-1.8,64778,List1A,white,woman,,,,null,,,,
null,are marrying each other,,html-keyboard-response,64,420144,0.0-13.0-2.8,64778,List1A,white,woman,,,,null,,,,
9543,,,survey-text,65,429688,0.0-13.0-3.8,64778,List1A,white,woman,,,,,"{""Q0"":""kate and fred are marrying each other""}","<img src=""stim_listA/marry2.gif""</stim_listA>",are marrying each other,
null,"<div style=""font-size:60px;"">+</div>",,html-keyboard-response,66,430196,0.0-13.0-0.9,64778,List1A,white,woman,,,,null,,,,
null,"<img src=""stim_listA/kiss1.gif""</stim_listA>",,html-keyboard-response,67,432201,0.0-13.0-1.9,64778,List1A,white,woman,,,,null,,,,
null,is kissing,,html-keyboard-response,68,434204,0.0-13.0-2.9,64778,List1A,white,woman,,,,null,,,,
5571,,,survey-text,69,439775,0.0-13.0-3.9,64778,List1A,white,woman,,,,,"{""Q0"":""fred is kissing beth""}","<img src=""stim_listA/kiss1.gif""</stim_listA>",is kissing,
null,"<div style=""font-size:60px;"">+</div>",,html-keyboard-response,70,440279,0.0-13.0-0.10,64778,List1A,white,woman,,,,null,,,,
null,"<img src=""stim_listA/fight6.gif""</stim_listA>",,html-keyboard-response,71,442280,0.0-13.0-1.10,64778,List1A,white,woman,,,,null,,,,
null,are fighting each other,,html-keyboard-response,72,444283,0.0-13.0-2.10,64778,List1A,white,woman,,,,null,,,,
7560,,,survey-text,73,451843,0.0-13.0-3.10,64778,List1A,white,woman,,,,,"{""Q0"":""luke and fred are fighting""}","<img src=""stim_listA/fight6.gif""</stim_listA>",are fighting each other,
null,"<div style=""font-size:60px;"">+</div>",,html-keyboard-response,74,452346,0.0-13.0-0.11,64778,List1A,white,woman,,,,null,,,,
null,"<img src=""stim_listA/touch1.gif""</stim_listA>",,html-keyboard-response,75,454350,0.0-13.0-1.11,64778,List1A,white,woman,,,,null,,,,
null,is touching,,html-keyboard-response,76,456354,0.0-13.0-2.11,64778,List1A,white,woman,,,,null,,,,
7302,,,survey-text,77,463658,0.0-13.0-3.11,64778,List1A,white,woman,,,,,"{""Q0"":""mike is touching kate""}","<img src=""stim_listA/touch1.gif""</stim_listA>",is touching,
null,"<div style=""font-size:60px;"">+</div>",,html-keyboard-response,78,464162,0.0-13.0-0.12,64778,List1A,white,woman,,,,null,,,,
null,"<img src=""stim_listA/shout2.gif""</stim_listA>",,html-keyboard-response,79,466167,0.0-13.0-1.12,64778,List1A,white,woman,,,,null,,,,
null,are shouting at each other,,html-keyboard-response,80,468170,0.0-13.0-2.12,64778,List1A,white,woman,,,,null,,,,
11113,,,survey-text,81,479285,0.0-13.0-3.12,64778,List1A,white,woman,,,,,"{""Q0"":""mike and kate are shouting at each other""}","<img src=""stim_listA/shout2.gif""</stim_listA>",are shouting at each other,
null,"<div style=""font-size:60px;"">+</div>",,html-keyboard-response,82,479787,0.0-13.0-0.13,64778,List1A,white,woman,,,,null,,,,
null,"<img src=""stim_listA/fight2.gif""</stim_listA>",,html-keyboard-response,83,481790,0.0-13.0-1.13,64778,List1A,white,woman,,,,null,,,,
null,are fighting each other,,html-keyboard-response,84,483793,0.0-13.0-2.13,64778,List1A,white,woman,,,,null,,,,
9613,,,survey-text,85,493407,0.0-13.0-3.13,64778,List1A,white,woman,,,,,"{""Q0"":""fred and beth are fighting each other""}","<img src=""stim_listA/fight2.gif""</stim_listA>",are fighting each other,
null,"<div style=""font-size:60px;"">+</div>",,html-keyboard-response,86,493910,0.0-13.0-0.14,64778,List1A,white,woman,,,,null,,,,
null,"<img src=""stim_listA/argue6.gif""</stim_listA>",,html-keyboard-response,87,495913,0.0-13.0-1.14,64778,List1A,white,woman,,,,null,,,,
null,are arguing with each other,,html-keyboard-response,88,497916,0.0-13.0-2.14,64778,List1A,white,woman,,,,null,,,,
10532,,,survey-text,89,508448,0.0-13.0-3.14,64778,List1A,white,woman,,,,,"{""Q0"":""fred and dave are arguing ""}","<img src=""stim_listA/argue6.gif""</stim_listA>",are arguing with each other,
null,"<div style=""font-size:60px;"">+</div>",,html-keyboard-response,90,508951,0.0-13.0-0.15,64778,List1A,white,woman,,,,null,,,,
null,"<img src=""stim_listA/argue2.gif""</stim_listA>",,html-keyboard-response,91,510957,0.0-13.0-1.15,64778,List1A,white,woman,,,,null,,,,
null,are arguing with each other,,html-keyboard-response,92,512960,0.0-13.0-2.15,64778,List1A,white,woman,,,,null,,,,
8776,,,survey-text,93,521738,0.0-13.0-3.15,64778,List1A,white,woman,,,,,"{""Q0"":""kate and fred are arguing each other""}","<img src=""stim_listA/argue2.gif""</stim_listA>",are arguing with each other,
null,"<div style=""font-size:60px;"">+</div>",,html-keyboard-response,94,522240,0.0-13.0-0.16,64778,List1A,white,woman,,,,null,,,,
null,"<img src=""stim_listA/hug7.gif""</stim_listA>",,html-keyboard-response,95,524245,0.0-13.0-1.16,64778,List1A,white,woman,,,,null,,,,
null,is hugging,,html-keyboard-response,96,526247,0.0-13.0-2.16,64778,List1A,white,woman,,,,null,,,,
8183,,,survey-text,97,534431,0.0-13.0-3.16,64778,List1A,white,woman,,,,,"{""Q0"":""beth is hugging ruth""}","<img src=""stim_listA/hug7.gif""</stim_listA>",is hugging,
null,"<div style=""font-size:60px;"">+</div>",,html-keyboard-response,98,534934,0.0-13.0-0.17,64778,List1A,white,woman,,,,null,,,,
null,"<img src=""stim_listA/meet5.gif""</stim_listA>",,html-keyboard-response,99,536941,0.0-13.0-1.17,64778,List1A,white,woman,,,,null,,,,
null,is meeting,,html-keyboard-response,100,538946,0.0-13.0-2.17,64778,List1A,white,woman,,,,null,,,,
5699,,,survey-text,101,544647,0.0-13.0-3.17,64778,List1A,white,woman,,,,,"{""Q0"":""mike is meeting dave""}","<img src=""stim_listA/meet5.gif""</stim_listA>",is meeting,
null,"<div style=""font-size:60px;"">+</div>",,html-keyboard-response,102,545149,0.0-13.0-0.18,64778,List1A,white,woman,,,,null,,,,
null,"<img src=""stim_listA/shout4.gif""</stim_listA>",,html-keyboard-response,103,547152,0.0-13.0-1.18,64778,List1A,white,woman,,,,null,,,,
null,are shouting at each other,,html-keyboard-response,104,549153,0.0-13.0-2.18,64778,List1A,white,woman,,,,null,,,,
9964,,,survey-text,105,559118,0.0-13.0-3.18,64778,List1A,white,woman,,,,,"{""Q0"":""jane and dave are shouting at each other""}","<img src=""stim_listA/shout4.gif""</stim_listA>",are shouting at each other,
null,"<div style=""font-size:60px;"">+</div>",,html-keyboard-response,106,559622,0.0-13.0-0.19,64778,List1A,white,woman,,,,null,,,,
null,"<img src=""stim_listA/dance5.gif""</stim_listA>",,html-keyboard-response,107,561627,0.0-13.0-1.19,64778,List1A,white,woman,,,,null,,,,
null,is dancing with,,html-keyboard-response,108,563630,0.0-13.0-2.19,64778,List1A,white,woman,,,,null,,,,
7679,,,survey-text,109,571309,0.0-13.0-3.19,64778,List1A,white,woman,,,,,"{""Q0"":""fred is dancing with dave""}","<img src=""stim_listA/dance5.gif""</stim_listA>",is dancing with,
14852,"<img src='img/portrait_matrix_list1.JPG' style='width:900px;height:500px;''></img><p>If you have memorised all the portraits and names and are ready to start, press Continue.</p><p><strong>Please note: Your memory of these faces will be tested 4 times during this experiment.</strong></p>",0,html-button-response,110,586163,0.0-14.0-0.0,64778,List1A,white,woman,,,,,,,,
1617,"<img src=""portrait/BW2.jpg""style=""width:400px;height:400px;""></img>",2,html-button-response,111,588784,0.0-14.0-1.0,64778,List1A,white,woman,,TRUE,2,,,,,
null,CORRECT,,html-keyboard-response,112,590287,0.0-14.0-2.0-0.0,64778,List1A,white,woman,,,,null,,,,
2495,"<img src=""portrait/BM2.jpg""style=""width:400px;height:400px;""></img>",5,html-button-response,113,592784,0.0-14.0-4.0,64778,List1A,white,woman,,TRUE,5,,,,,
null,CORRECT,,html-keyboard-response,114,594289,0.0-14.0-5.0-0.0,64778,List1A,white,woman,,,,null,,,,
2505,"<img src=""portrait/WW2.jpg""style=""width:400px;height:400px;""></img>",3,html-button-response,115,596796,0.0-14.0-7.0,64778,List1A,white,woman,,TRUE,3,,,,,
null,CORRECT,,html-keyboard-response,116,598300,0.0-14.0-8.0-0.0,64778,List1A,white,woman,,,,null,,,,
2111,"<img src=""portrait/WM1.jpg""style=""width:400px;height:400px;""></img>",6,html-button-response,117,600412,0.0-14.0-10.0,64778,List1A,white,woman,,TRUE,6,,,,,
null,CORRECT,,html-keyboard-response,118,601920,0.0-14.0-11.0-0.0,64778,List1A,white,woman,,,,null,,,,
1645,"<img src=""portrait/WM2.jpg""style=""width:400px;height:400px;""></img>",7,html-button-response,119,603567,0.0-14.0-13.0,64778,List1A,white,woman,,TRUE,7,,,,,
null,CORRECT,,html-keyboard-response,120,605074,0.0-14.0-14.0-0.0,64778,List1A,white,woman,,,,null,,,,
2338,"<img src=""portrait/BM1.jpg""style=""width:400px;height:400px;""></img>",4,html-button-response,121,607414,0.0-14.0-16.0,64778,List1A,white,woman,,TRUE,4,,,,,
null,CORRECT,,html-keyboard-response,122,608920,0.0-14.0-17.0-0.0,64778,List1A,white,woman,,,,null,,,,
1887,"<img src=""portrait/BW1.jpg""style=""width:400px;height:400px;""></img>",0,html-button-response,123,610810,0.0-14.0-19.0,64778,List1A,white,woman,,TRUE,0,,,,,
null,CORRECT,,html-keyboard-response,124,612317,0.0-14.0-20.0-0.0,64778,List1A,white,woman,,,,null,,,,
1683,"<img src=""portrait/WW1.jpg""style=""width:400px;height:400px;""></img>",1,html-button-response,125,614002,0.0-14.0-22.0,64778,List1A,white,woman,,TRUE,1,,,,,
null,CORRECT,,html-keyboard-response,126,615506,0.0-14.0-23.0-0.0,64778,List1A,white,woman,,,,null,,,,
2303,<p>You got 8 out of 8 right first time. Press Continue.</p>,0,html-button-response,127,617811,0.0-14.0-25.0,64778,List1A,white,woman,,,,,,,,
null,"<div style=""font-size:60px;"">+</div>",,html-keyboard-response,128,619324,0.0-15.0-0.0,64778,List1A,white,woman,,,,null,,,,
null,"<img src=""stim_listA/marry3.gif""</stim_listA>",,html-keyboard-response,129,621329,0.0-15.0-1.0,64778,List1A,white,woman,,,,null,,,,
null,is marrying,,html-keyboard-response,130,623337,0.0-15.0-2.0,64778,List1A,white,woman,,,,null,,,,
6760,,,survey-text,131,630098,0.0-15.0-3.0,64778,List1A,white,woman,,,,,"{""Q0"":""dave is marrying ruth""}","<img src=""stim_listA/marry3.gif""</stim_listA>",is marrying,
null,"<div style=""font-size:60px;"">+</div>",,html-keyboard-response,132,630601,0.0-15.0-0.1,64778,List1A,white,woman,,,,null,,,,
null,"<img src=""stim_listA/hug2.gif""</stim_listA>",,html-keyboard-response,133,632604,0.0-15.0-1.1,64778,List1A,white,woman,,,,null,,,,
null,are hugging each other,,html-keyboard-response,134,634607,0.0-15.0-2.1,64778,List1A,white,woman,,,,null,,,,
9184,,,survey-text,135,643793,0.0-15.0-3.1,64778,List1A,white,woman,,,,,"{""Q0"":""kate and mike are hugging ""}","<img src=""stim_listA/hug2.gif""</stim_listA>",are hugging each other,
null,"<div style=""font-size:60px;"">+</div>",,html-keyboard-response,136,644297,0.0-15.0-0.2,64778,List1A,white,woman,,,,null,,,,
null,"<img src=""stim_listA/shout8.gif""</stim_listA>",,html-keyboard-response,137,646299,0.0-15.0-1.2,64778,List1A,white,woman,,,,null,,,,
null,are shouting at each other,,html-keyboard-response,138,648306,0.0-15.0-2.2,64778,List1A,white,woman,,,,null,,,,
7447,,,survey-text,139,655755,0.0-15.0-3.2,64778,List1A,white,woman,,,,,"{""Q0"":""jane and kate are shouting ""}","<img src=""stim_listA/shout8.gif""</stim_listA>",are shouting at each other,
null,"<div style=""font-size:60px;"">+</div>",,html-keyboard-response,140,656257,0.0-15.0-0.3,64778,List1A,white,woman,,,,null,,,,
null,"<img src=""stim_listA/marry1.gif""</stim_listA>",,html-keyboard-response,141,658261,0.0-15.0-1.3,64778,List1A,white,woman,,,,null,,,,
null,is marrying,,html-keyboard-response,142,660262,0.0-15.0-2.3,64778,List1A,white,woman,,,,null,,,,
5858,,,survey-text,143,666122,0.0-15.0-3.3,64778,List1A,white,woman,,,,,"{""Q0"":""mike is marrying beth""}","<img src=""stim_listA/marry1.gif""</stim_listA>",is marrying,
null,"<div style=""font-size:60px;"">+</div>",,html-keyboard-response,144,666627,0.0-15.0-0.4,64778,List1A,white,woman,,,,null,,,,
null,"<img src=""stim_listA/kiss2.gif""</stim_listA>",,html-keyboard-response,145,668631,0.0-15.0-1.4,64778,List1A,white,woman,,,,null,,,,
null,are kissing each other,,html-keyboard-response,146,670632,0.0-15.0-2.4,64778,List1A,white,woman,,,,null,,,,
9956,,,survey-text,147,680589,0.0-15.0-3.4,64778,List1A,white,woman,,,,,"{""Q0"":""kate and mike are kissing each other""}","<img src=""stim_listA/kiss2.gif""</stim_listA>",are kissing each other,
null,"<div style=""font-size:60px;"">+</div>",,html-keyboard-response,148,681092,0.0-15.0-0.5,64778,List1A,white,woman,,,,null,,,,
null,"<img src=""stim_listA/shout3.gif""</stim_listA>",,html-keyboard-response,149,683096,0.0-15.0-1.5,64778,List1A,white,woman,,,,null,,,,
null,is shouting at,,html-keyboard-response,150,685100,0.0-15.0-2.5,64778,List1A,white,woman,,,,null,,,,
14773,,,survey-text,151,699873,0.0-15.0-3.5,64778,List1A,white,woman,,,,,"{""Q0"":""luke is shouting at ruth""}","<img src=""stim_listA/shout3.gif""</stim_listA>",is shouting at,
null,"<div style=""font-size:60px;"">+</div>",,html-keyboard-response,152,700376,0.0-15.0-0.6,64778,List1A,white,woman,,,,null,,,,
null,"<img src=""stim_listA/hug5.gif""</stim_listA>",,html-keyboard-response,153,702382,0.0-15.0-1.6,64778,List1A,white,woman,,,,null,,,,
null,is hugging,,html-keyboard-response,154,704383,0.0-15.0-2.6,64778,List1A,white,woman,,,,null,,,,
11750,,,survey-text,155,716135,0.0-15.0-3.6,64778,List1A,white,woman,,,,,"{""Q0"":""fred is hugging luke""}","<img src=""stim_listA/hug5.gif""</stim_listA>",is hugging,
null,"<div style=""font-size:60px;"">+</div>",,html-keyboard-response,156,716639,0.0-15.0-0.7,64778,List1A,white,woman,,,,null,,,,
null,"<img src=""stim_listA/touch7.gif""</stim_listA>",,html-keyboard-response,157,718641,0.0-15.0-1.7,64778,List1A,white,woman,,,,null,,,,
null,is touching,,html-keyboard-response,158,720646,0.0-15.0-2.7,64778,List1A,white,woman,,,,null,,,,
5416,,,survey-text,159,726062,0.0-15.0-3.7,64778,List1A,white,woman,,,,,"{""Q0"":""kate is touching jane""}","<img src=""stim_listA/touch7.gif""</stim_listA>",is touching,
null,"<div style=""font-size:60px;"">+</div>",,html-keyboard-response,160,726567,0.0-15.0-0.8,64778,List1A,white,woman,,,,null,,,,
null,"<img src=""stim_listA/shout6.gif""</stim_listA>",,html-keyboard-response,161,728572,0.0-15.0-1.8,64778,List1A,white,woman,,,,null,,,,
null,are shouting at each other,,html-keyboard-response,162,730575,0.0-15.0-2.8,64778,List1A,white,woman,,,,null,,,,
9003,,,survey-text,163,739579,0.0-15.0-3.8,64778,List1A,white,woman,,,,,"{""Q0"":""dave and mike are shouting at each other""}","<img src=""stim_listA/shout6.gif""</stim_listA>",are shouting at each other,
null,"<div style=""font-size:60px;"">+</div>",,html-keyboard-response,164,740082,0.0-15.0-0.9,64778,List1A,white,woman,,,,null,,,,
null,"<img src=""stim_listA/fight7.gif""</stim_listA>",,html-keyboard-response,165,742086,0.0-15.0-1.9,64778,List1A,white,woman,,,,null,,,,
null,is fighting,,html-keyboard-response,166,744089,0.0-15.0-2.9,64778,List1A,white,woman,,,,null,,,,
8351,,,survey-text,167,752442,0.0-15.0-3.9,64778,List1A,white,woman,,,,,"{""Q0"":""kate is fighting jane""}","<img src=""stim_listA/fight7.gif""</stim_listA>",is fighting,
null,"<div style=""font-size:60px;"">+</div>",,html-keyboard-response,168,752943,0.0-15.0-0.10,64778,List1A,white,woman,,,,null,,,,
null,"<img src=""stim_listA/meet1.gif""</stim_listA>",,html-keyboard-response,169,754948,0.0-15.0-1.10,64778,List1A,white,woman,,,,null,,,,
null,is meeting,,html-keyboard-response,170,756953,0.0-15.0-2.10,64778,List1A,white,woman,,,,null,,,,
6852,,,survey-text,171,763805,0.0-15.0-3.10,64778,List1A,white,woman,,,,,"{""Q0"":""kate is meeting mike""}","<img src=""stim_listA/meet1.gif""</stim_listA>",is meeting,
null,"<div style=""font-size:60px;"">+</div>",,html-keyboard-response,172,764309,0.0-15.0-0.11,64778,List1A,white,woman,,,,null,,,,
null,"<img src=""stim_listA/kiss4.gif""</stim_listA>",,html-keyboard-response,173,766311,0.0-15.0-1.11,64778,List1A,white,woman,,,,null,,,,
null,are kissing each other,,html-keyboard-response,174,768313,0.0-15.0-2.11,64778,List1A,white,woman,,,,null,,,,
7654,,,survey-text,175,775969,0.0-15.0-3.11,64778,List1A,white,woman,,,,,"{""Q0"":""jane and dave are kissing each other""}","<img src=""stim_listA/kiss4.gif""</stim_listA>",are kissing each other,
null,"<div style=""font-size:60px;"">+</div>",,html-keyboard-response,176,776471,0.0-15.0-0.12,64778,List1A,white,woman,,,,null,,,,
null,"<img src=""stim_listA/fight3.gif""</stim_listA>",,html-keyboard-response,177,778477,0.0-15.0-1.12,64778,List1A,white,woman,,,,null,,,,
null,is fighting,,html-keyboard-response,178,780481,0.0-15.0-2.12,64778,List1A,white,woman,,,,null,,,,
6074,,,survey-text,179,786557,0.0-15.0-3.12,64778,List1A,white,woman,,,,,"{""Q0"":""jane is fighting dave""}","<img src=""stim_listA/fight3.gif""</stim_listA>",is fighting,
null,"<div style=""font-size:60px;"">+</div>",,html-keyboard-response,180,787061,0.0-15.0-0.13,64778,List1A,white,woman,,,,null,,,,
null,"<img src=""stim_listA/touch5.gif""</stim_listA>",,html-keyboard-response,181,789067,0.0-15.0-1.13,64778,List1A,white,woman,,,,null,,,,
null,is touching,,html-keyboard-response,182,791071,0.0-15.0-2.13,64778,List1A,white,woman,,,,null,,,,
5575,,,survey-text,183,796648,0.0-15.0-3.13,64778,List1A,white,woman,,,,,"{""Q0"":""dave is touching mike""}","<img src=""stim_listA/touch5.gif""</stim_listA>",is touching,
null,"<div style=""font-size:60px;"">+</div>",,html-keyboard-response,184,797150,0.0-15.0-0.14,64778,List1A,white,woman,,,,null,,,,
null,"<img src=""stim_listA/meet6.gif""</stim_listA>",,html-keyboard-response,185,799158,0.0-15.0-1.14,64778,List1A,white,woman,,,,null,,,,
null,are meeting each other,,html-keyboard-response,186,801159,0.0-15.0-2.14,64778,List1A,white,woman,,,,null,,,,
9956,,,survey-text,187,811117,0.0-15.0-3.14,64778,List1A,white,woman,,,,,"{""Q0"":""luke and fred are meeting each other""}","<img src=""stim_listA/meet6.gif""</stim_listA>",are meeting each other,
null,"<div style=""font-size:60px;"">+</div>",,html-keyboard-response,188,811621,0.0-15.0-0.15,64778,List1A,white,woman,,,,null,,,,
null,"<img src=""stim_listA/touch6.gif""</stim_listA>",,html-keyboard-response,189,813626,0.0-15.0-1.15,64778,List1A,white,woman,,,,null,,,,
null,are touching each other,,html-keyboard-response,190,815628,0.0-15.0-2.15,64778,List1A,white,woman,,,,null,,,,
8521,,,survey-text,191,824150,0.0-15.0-3.15,64778,List1A,white,woman,,,,,"{""Q0"":""luke and fred are touching each other""}","<img src=""stim_listA/touch6.gif""</stim_listA>",are touching each other,
null,"<div style=""font-size:60px;"">+</div>",,html-keyboard-response,192,824659,0.0-15.0-0.16,64778,List1A,white,woman,,,,null,,,,
null,"<img src=""stim_listA/argue4.gif""</stim_listA>",,html-keyboard-response,193,826663,0.0-15.0-1.16,64778,List1A,white,woman,,,,null,,,,
null,are arguing with each other,,html-keyboard-response,194,828668,0.0-15.0-2.16,64778,List1A,white,woman,,,,null,,,,
12446,,,survey-text,195,841115,0.0-15.0-3.16,64778,List1A,white,woman,,,,,"{""Q0"":""jane and luke are arguing with each other""}","<img src=""stim_listA/argue4.gif""</stim_listA>",are arguing with each other,
null,"<div style=""font-size:60px;"">+</div>",,html-keyboard-response,196,841618,0.0-15.0-0.17,64778,List1A,white,woman,,,,null,,,,
null,"<img src=""stim_listA/kiss6.gif""</stim_listA>",,html-keyboard-response,197,843626,0.0-15.0-1.17,64778,List1A,white,woman,,,,null,,,,
null,are kissing each other,,html-keyboard-response,198,845628,0.0-15.0-2.17,64778,List1A,white,woman,,,,null,,,,
8448,,,survey-text,199,854078,0.0-15.0-3.17,64778,List1A,white,woman,,,,,"{""Q0"":""dave and mike are kissing each other""}","<img src=""stim_listA/kiss6.gif""</stim_listA>",are kissing each other,
null,"<div style=""font-size:60px;"">+</div>",,html-keyboard-response,200,854581,0.0-15.0-0.18,64778,List1A,white,woman,,,,null,,,,
null,"<img src=""stim_listA/talk7.gif""</stim_listA>",,html-keyboard-response,201,856589,0.0-15.0-1.18,64778,List1A,white,woman,,,,null,,,,
null,is talking to,,html-keyboard-response,202,858593,0.0-15.0-2.18,64778,List1A,white,woman,,,,null,,,,
5276,,,survey-text,203,863872,0.0-15.0-3.18,64778,List1A,white,woman,,,,,"{""Q0"":""beth is talking to jane""}","<img src=""stim_listA/talk7.gif""</stim_listA>",is talking to,
null,"<div style=""font-size:60px;"">+</div>",,html-keyboard-response,204,864377,0.0-15.0-0.19,64778,List1A,white,woman,,,,null,,,,
null,"<img src=""stim_listA/talk2.gif""</stim_listA>",,html-keyboard-response,205,866378,0.0-15.0-1.19,64778,List1A,white,woman,,,,null,,,,
null,are talking to each other,,html-keyboard-response,206,868380,0.0-15.0-2.19,64778,List1A,white,woman,,,,null,,,,
10769,,,survey-text,207,879150,0.0-15.0-3.19,64778,List1A,white,woman,,,,,"{""Q0"":""beth and mike are talking to each other""}","<img src=""stim_listA/talk2.gif""</stim_listA>",are talking to each other,
10273,"<img src='img/portrait_matrix_list1.JPG' style='width:900px;height:500px;''></img><p>If you have memorised all the portraits and names and are ready to start, press Continue.</p><p><strong>Please note: Your memory of these faces will be tested 4 times during this experiment.</strong></p>",0,html-button-response,208,889425,0.0-16.0-0.0,64778,List1A,white,woman,,,,,,,,
1953,"<img src=""portrait/WM1.jpg""style=""width:400px;height:400px;""></img>",6,html-button-response,209,892381,0.0-16.0-1.0,64778,List1A,white,woman,,TRUE,6,,,,,
null,CORRECT,,html-keyboard-response,210,893883,0.0-16.0-2.0-0.0,64778,List1A,white,woman,,,,null,,,,
1997,"<img src=""portrait/WW2.jpg""style=""width:400px;height:400px;""></img>",3,html-button-response,211,895882,0.0-16.0-4.0,64778,List1A,white,woman,,TRUE,3,,,,,
null,CORRECT,,html-keyboard-response,212,897386,0.0-16.0-5.0-0.0,64778,List1A,white,woman,,,,null,,,,
1486,"<img src=""portrait/BW2.jpg""style=""width:400px;height:400px;""></img>",2,html-button-response,213,898874,0.0-16.0-7.0,64778,List1A,white,woman,,TRUE,2,,,,,
null,CORRECT,,html-keyboard-response,214,900379,0.0-16.0-8.0-0.0,64778,List1A,white,woman,,,,null,,,,
2659,"<img src=""portrait/BM1.jpg""style=""width:400px;height:400px;""></img>",4,html-button-response,215,903040,0.0-16.0-10.0,64778,List1A,white,woman,,TRUE,4,,,,,
null,CORRECT,,html-keyboard-response,216,904549,0.0-16.0-11.0-0.0,64778,List1A,white,woman,,,,null,,,,
1461,"<img src=""portrait/WM2.jpg""style=""width:400px;height:400px;""></img>",7,html-button-response,217,906012,0.0-16.0-13.0,64778,List1A,white,woman,,TRUE,7,,,,,
null,CORRECT,,html-keyboard-response,218,907518,0.0-16.0-14.0-0.0,64778,List1A,white,woman,,,,null,,,,
1412,"<img src=""portrait/BM2.jpg""style=""width:400px;height:400px;""></img>",5,html-button-response,219,908931,0.0-16.0-16.0,64778,List1A,white,woman,,TRUE,5,,,,,
null,CORRECT,,html-keyboard-response,220,910440,0.0-16.0-17.0-0.0,64778,List1A,white,woman,,,,null,,,,
1603,"<img src=""portrait/WW1.jpg""style=""width:400px;height:400px;""></img>",1,html-button-response,221,912045,0.0-16.0-19.0,64778,List1A,white,woman,,TRUE,1,,,,,
null,CORRECT,,html-keyboard-response,222,913552,0.0-16.0-20.0-0.0,64778,List1A,white,woman,,,,null,,,,
1648,"<img src=""portrait/BW1.jpg""style=""width:400px;height:400px;""></img>",0,html-button-response,223,915203,0.0-16.0-22.0,64778,List1A,white,woman,,TRUE,0,,,,,
null,CORRECT,,html-keyboard-response,224,916712,0.0-16.0-23.0-0.0,64778,List1A,white,woman,,,,null,,,,
1326,<p>You got 8 out of 8 right first time. Press Continue.</p>,0,html-button-response,225,918040,0.0-16.0-25.0,64778,List1A,white,woman,,,,,,,,
null,"<div style=""font-size:60px;"">+</div>",,html-keyboard-response,226,919551,0.0-17.0-0.0,64778,List1A,white,woman,,,,null,,,,
null,"<img src=""stim_listA/marry6.gif""</stim_listA>",,html-keyboard-response,227,921557,0.0-17.0-1.0,64778,List1A,white,woman,,,,null,,,,
null,are marrying each other,,html-keyboard-response,228,923558,0.0-17.0-2.0,64778,List1A,white,woman,,,,null,,,,
8300,,,survey-text,229,931859,0.0-17.0-3.0,64778,List1A,white,woman,,,,,"{""Q0"":""dave and fred are marrying each other""}","<img src=""stim_listA/marry6.gif""</stim_listA>",are marrying each other,
null,"<div style=""font-size:60px;"">+</div>",,html-keyboard-response,230,932360,0.0-17.0-0.1,64778,List1A,white,woman,,,,null,,,,
null,"<img src=""stim_listA/dance1.gif""</stim_listA>",,html-keyboard-response,231,934366,0.0-17.0-1.1,64778,List1A,white,woman,,,,null,,,,
null,is dancing with,,html-keyboard-response,232,936368,0.0-17.0-2.1,64778,List1A,white,woman,,,,null,,,,
9318,,,survey-text,233,945687,0.0-17.0-3.1,64778,List1A,white,woman,,,,,"{""Q0"":""fred is dancing with kate""}","<img src=""stim_listA/dance1.gif""</stim_listA>",is dancing with,
null,"<div style=""font-size:60px;"">+</div>",,html-keyboard-response,234,946189,0.0-17.0-0.2,64778,List1A,white,woman,,,,null,,,,
null,"<img src=""stim_listA/dance7.gif""</stim_listA>",,html-keyboard-response,235,948192,0.0-17.0-1.2,64778,List1A,white,woman,,,,null,,,,
null,is dancing with,,html-keyboard-response,236,950193,0.0-17.0-2.2,64778,List1A,white,woman,,,,null,,,,
9242,,,survey-text,237,959435,0.0-17.0-3.2,64778,List1A,white,woman,,,,,"{""Q0"":""beth is dancing with jane""}","<img src=""stim_listA/dance7.gif""</stim_listA>",is dancing with,
null,"<div style=""font-size:60px;"">+</div>",,html-keyboard-response,238,959937,0.0-17.0-0.3,64778,List1A,white,woman,,,,null,,,,
null,"<img src=""stim_listA/kiss7.gif""</stim_listA>",,html-keyboard-response,239,961943,0.0-17.0-1.3,64778,List1A,white,woman,,,,null,,,,
null,is kissing,,html-keyboard-response,240,963946,0.0-17.0-2.3,64778,List1A,white,woman,,,,null,,,,
6599,,,survey-text,241,970548,0.0-17.0-3.3,64778,List1A,white,woman,,,,,"{""Q0"":""ruth is kissing beth""}","<img src=""stim_listA/kiss7.gif""</stim_listA>",is kissing,
null,"<div style=""font-size:60px;"">+</div>",,html-keyboard-response,242,971053,0.0-17.0-0.4,64778,List1A,white,woman,,,,null,,,,
null,"<img src=""stim_listA/fight8.gif""</stim_listA>",,html-keyboard-response,243,973056,0.0-17.0-1.4,64778,List1A,white,woman,,,,null,,,,
null,are fighting each other,,html-keyboard-response,244,975060,0.0-17.0-2.4,64778,List1A,white,woman,,,,null,,,,
11297,,,survey-text,245,986358,0.0-17.0-3.4,64778,List1A,white,woman,,,,,"{""Q0"":""ruth and beth are fighting each other""}","<img src=""stim_listA/fight8.gif""</stim_listA>",are fighting each other,
null,"<div style=""font-size:60px;"">+</div>",,html-keyboard-response,246,986860,0.0-17.0-0.5,64778,List1A,white,woman,,,,null,,,,
null,"<img src=""stim_listA/touch3.gif""</stim_listA>",,html-keyboard-response,247,988864,0.0-17.0-1.5,64778,List1A,white,woman,,,,null,,,,
null,is touching,,html-keyboard-response,248,990866,0.0-17.0-2.5,64778,List1A,white,woman,,,,null,,,,
6246,,,survey-text,249,997114,0.0-17.0-3.5,64778,List1A,white,woman,,,,,"{""Q0"":""dave is touching jane""}","<img src=""stim_listA/touch3.gif""</stim_listA>",is touching,
null,"<div style=""font-size:60px;"">+</div>",,html-keyboard-response,250,997622,0.0-17.0-0.6,64778,List1A,white,woman,,,,null,,,,
null,"<img src=""stim_listA/shout5.gif""</stim_listA>",,html-keyboard-response,251,999624,0.0-17.0-1.6,64778,List1A,white,woman,,,,null,,,,
null,is shouting at,,html-keyboard-response,252,1001627,0.0-17.0-2.6,64778,List1A,white,woman,,,,null,,,,
9034,,,survey-text,253,1010662,0.0-17.0-3.6,64778,List1A,white,woman,,,,,"{""Q0"":""luke is shouting at fred""}","<img src=""stim_listA/shout5.gif""</stim_listA>",is shouting at,
null,"<div style=""font-size:60px;"">+</div>",,html-keyboard-response,254,1011163,0.0-17.0-0.7,64778,List1A,white,woman,,,,null,,,,
null,"<img src=""stim_listA/argue3.gif""</stim_listA>",,html-keyboard-response,255,1013166,0.0-17.0-1.7,64778,List1A,white,woman,,,,null,,,,
null,is arguing with,,html-keyboard-response,256,1015167,0.0-17.0-2.7,64778,List1A,white,woman,,,,null,,,,
6472,,,survey-text,257,1021641,0.0-17.0-3.7,64778,List1A,white,woman,,,,,"{""Q0"":""dave is arguing with ruth""}","<img src=""stim_listA/argue3.gif""</stim_listA>",is arguing with,
null,"<div style=""font-size:60px;"">+</div>",,html-keyboard-response,258,1022143,0.0-17.0-0.8,64778,List1A,white,woman,,,,null,,,,
null,"<img src=""stim_listA/hug6.gif""</stim_listA>",,html-keyboard-response,259,1024148,0.0-17.0-1.8,64778,List1A,white,woman,,,,null,,,,
null,are hugging each other,,html-keyboard-response,260,1026155,0.0-17.0-2.8,64778,List1A,white,woman,,,,null,,,,
7462,,,survey-text,261,1033617,0.0-17.0-3.8,64778,List1A,white,woman,,,,,"{""Q0"":""dave and mike are hugging each other""}","<img src=""stim_listA/hug6.gif""</stim_listA>",are hugging each other,
null,"<div style=""font-size:60px;"">+</div>",,html-keyboard-response,262,1034122,0.0-17.0-0.9,64778,List1A,white,woman,,,,null,,,,
null,"<img src=""stim_listA/dance4.gif""</stim_listA>",,html-keyboard-response,263,1036124,0.0-17.0-1.9,64778,List1A,white,woman,,,,null,,,,
null,are dancing with each other,,html-keyboard-response,264,1038128,0.0-17.0-2.9,64778,List1A,white,woman,,,,null,,,,
11414,,,survey-text,265,1049544,0.0-17.0-3.9,64778,List1A,white,woman,,,,,"{""Q0"":""ruth and dave are dancing with each other""}","<img src=""stim_listA/dance4.gif""</stim_listA>",are dancing with each other,
null,"<div style=""font-size:60px;"">+</div>",,html-keyboard-response,266,1050046,0.0-17.0-0.10,64778,List1A,white,woman,,,,null,,,,
null,"<img src=""stim_listA/dance6.gif""</stim_listA>",,html-keyboard-response,267,1052049,0.0-17.0-1.10,64778,List1A,white,woman,,,,null,,,,
null,are dancing with each other,,html-keyboard-response,268,1054051,0.0-17.0-2.10,64778,List1A,white,woman,,,,null,,,,
9221,,,survey-text,269,1063273,0.0-17.0-3.10,64778,List1A,white,woman,,,,,"{""Q0"":""luke and mike are dancing with each other""}","<img src=""stim_listA/dance6.gif""</stim_listA>",are dancing with each other,
null,"<div style=""font-size:60px;"">+</div>",,html-keyboard-response,270,1063776,0.0-17.0-0.11,64778,List1A,white,woman,,,,null,,,,
null,"<img src=""stim_listA/marry5.gif""</stim_listA>",,html-keyboard-response,271,1065780,0.0-17.0-1.11,64778,List1A,white,woman,,,,null,,,,
null,is marrying,,html-keyboard-response,272,1067784,0.0-17.0-2.11,64778,List1A,white,woman,,,,null,,,,
6958,,,survey-text,273,1074744,0.0-17.0-3.11,64778,List1A,white,woman,,,,,"{""Q0"":""luke is marrying mike""}","<img src=""stim_listA/marry5.gif""</stim_listA>",is marrying,
null,"<div style=""font-size:60px;"">+</div>",,html-keyboard-response,274,1075247,0.0-17.0-0.12,64778,List1A,white,woman,,,,null,,,,
null,"<img src=""stim_listA/hug3.gif""</stim_listA>",,html-keyboard-response,275,1077255,0.0-17.0-1.12,64778,List1A,white,woman,,,,null,,,,
null,is hugging,,html-keyboard-response,276,1079257,0.0-17.0-2.12,64778,List1A,white,woman,,,,null,,,,
8778,,,survey-text,277,1088037,0.0-17.0-3.12,64778,List1A,white,woman,,,,,"{""Q0"":""luke is hugging ruth""}","<img src=""stim_listA/hug3.gif""</stim_listA>",is hugging,
null,"<div style=""font-size:60px;"">+</div>",,html-keyboard-response,278,1088541,0.0-17.0-0.13,64778,List1A,white,woman,,,,null,,,,
null,"<img src=""stim_listA/kiss3.gif""</stim_listA>",,html-keyboard-response,279,1090546,0.0-17.0-1.13,64778,List1A,white,woman,,,,null,,,,
null,is kissing,,html-keyboard-response,280,1092550,0.0-17.0-2.13,64778,List1A,white,woman,,,,null,,,,
5313,,,survey-text,281,1097864,0.0-17.0-3.13,64778,List1A,white,woman,,,,,"{""Q0"":""luke is kissing ruth""}","<img src=""stim_listA/kiss3.gif""</stim_listA>",is kissing,
null,"<div style=""font-size:60px;"">+</div>",,html-keyboard-response,282,1098368,0.0-17.0-0.14,64778,List1A,white,woman,,,,null,,,,
null,"<img src=""stim_listA/touch2.gif""</stim_listA>",,html-keyboard-response,283,1100373,0.0-17.0-1.14,64778,List1A,white,woman,,,,null,,,,
null,are touching each other,,html-keyboard-response,284,1102375,0.0-17.0-2.14,64778,List1A,white,woman,,,,null,,,,
7752,,,survey-text,285,1110128,0.0-17.0-3.14,64778,List1A,white,woman,,,,,"{""Q0"":""beth and fred are touching each other""}","<img src=""stim_listA/touch2.gif""</stim_listA>",are touching each other,
null,"<div style=""font-size:60px;"">+</div>",,html-keyboard-response,286,1110631,0.0-17.0-0.15,64778,List1A,white,woman,,,,null,,,,
null,"<img src=""stim_listA/meet7.gif""</stim_listA>",,html-keyboard-response,287,1112635,0.0-17.0-1.15,64778,List1A,white,woman,,,,null,,,,
null,is meeting,,html-keyboard-response,288,1114637,0.0-17.0-2.15,64778,List1A,white,woman,,,,null,,,,
5366,,,survey-text,289,1120005,0.0-17.0-3.15,64778,List1A,white,woman,,,,,"{""Q0"":""jane is meeting kate""}","<img src=""stim_listA/meet7.gif""</stim_listA>",is meeting,
null,"<div style=""font-size:60px;"">+</div>",,html-keyboard-response,290,1120510,0.0-17.0-0.16,64778,List1A,white,woman,,,,null,,,,
null,"<img src=""stim_listA/meet2.gif""</stim_listA>",,html-keyboard-response,291,1122512,0.0-17.0-1.16,64778,List1A,white,woman,,,,null,,,,
null,are meeting each other,,html-keyboard-response,292,1124513,0.0-17.0-2.16,64778,List1A,white,woman,,,,null,,,,
15304,,,survey-text,293,1139818,0.0-17.0-3.16,64778,List1A,white,woman,,,,,"{""Q0"":""fred and beth are meeting each other""}","<img src=""stim_listA/meet2.gif""</stim_listA>",are meeting each other,
null,"<div style=""font-size:60px;"">+</div>",,html-keyboard-response,294,1140320,0.0-17.0-0.17,64778,List1A,white,woman,,,,null,,,,
null,"<img src=""stim_listA/touch8.gif""</stim_listA>",,html-keyboard-response,295,1142323,0.0-17.0-1.17,64778,List1A,white,woman,,,,null,,,,
null,are touching each other,,html-keyboard-response,296,1144325,0.0-17.0-2.17,64778,List1A,white,woman,,,,null,,,,
11313,,,survey-text,297,1155638,0.0-17.0-3.17,64778,List1A,white,woman,,,,,"{""Q0"":""ruth and beth are touching each other""}","<img src=""stim_listA/touch8.gif""</stim_listA>",are touching each other,
null,"<div style=""font-size:60px;"">+</div>",,html-keyboard-response,298,1156140,0.0-17.0-0.18,64778,List1A,white,woman,,,,null,,,,
null,"<img src=""stim_listA/fight4.gif""</stim_listA>",,html-keyboard-response,299,1158144,0.0-17.0-1.18,64778,List1A,white,woman,,,,null,,,,
null,are fighting each other,,html-keyboard-response,300,1160149,0.0-17.0-2.18,64778,List1A,white,woman,,,,null,,,,
10034,,,survey-text,301,1170184,0.0-17.0-3.18,64778,List1A,white,woman,,,,,"{""Q0"":""ruth and luke are fighting each other""}","<img src=""stim_listA/fight4.gif""</stim_listA>",are fighting each other,
null,"<div style=""font-size:60px;"">+</div>",,html-keyboard-response,302,1170691,0.0-17.0-0.19,64778,List1A,white,woman,,,,null,,,,
null,"<img src=""stim_listA/meet8.gif""</stim_listA>",,html-keyboard-response,303,1172695,0.0-17.0-1.19,64778,List1A,white,woman,,,,null,,,,
null,are meeting each other,,html-keyboard-response,304,1174697,0.0-17.0-2.19,64778,List1A,white,woman,,,,null,,,,
9094,,,survey-text,305,1183793,0.0-17.0-3.19,64778,List1A,white,woman,,,,,"{""Q0"":""ruth and beth are meeting each other""}","<img src=""stim_listA/meet8.gif""</stim_listA>",are meeting each other,
24317,"<img src='img/portrait_matrix_list1.JPG' style='width:900px;height:500px;''></img><p>If you have memorised all the portraits and names and are ready to start, press Continue.</p><p><strong>Please note: Your memory of these faces will be tested 4 times during this experiment.</strong></p>",0,html-button-response,306,1208111,0.0-18.0-0.0,64778,List1A,white,woman,,,,,,,,
1531,"<img src=""portrait/WM1.jpg""style=""width:400px;height:400px;""></img>",6,html-button-response,307,1210648,0.0-18.0-1.0,64778,List1A,white,woman,,TRUE,6,,,,,
null,CORRECT,,html-keyboard-response,308,1212155,0.0-18.0-2.0-0.0,64778,List1A,white,woman,,,,null,,,,
2080,"<img src=""portrait/WW1.jpg""style=""width:400px;height:400px;""></img>",1,html-button-response,309,1214237,0.0-18.0-4.0,64778,List1A,white,woman,,TRUE,1,,,,,
null,CORRECT,,html-keyboard-response,310,1215741,0.0-18.0-5.0-0.0,64778,List1A,white,woman,,,,null,,,,
1620,"<img src=""portrait/WM2.jpg""style=""width:400px;height:400px;""></img>",7,html-button-response,311,1217364,0.0-18.0-7.0,64778,List1A,white,woman,,TRUE,7,,,,,
null,CORRECT,,html-keyboard-response,312,1218873,0.0-18.0-8.0-0.0,64778,List1A,white,woman,,,,null,,,,
1622,"<img src=""portrait/BM2.jpg""style=""width:400px;height:400px;""></img>",5,html-button-response,313,1220498,0.0-18.0-10.0,64778,List1A,white,woman,,TRUE,5,,,,,
null,CORRECT,,html-keyboard-response,314,1222006,0.0-18.0-11.0-0.0,64778,List1A,white,woman,,,,null,,,,
2525,"<img src=""portrait/WW2.jpg""style=""width:400px;height:400px;""></img>",3,html-button-response,315,1224533,0.0-18.0-13.0,64778,List1A,white,woman,,TRUE,3,,,,,
null,CORRECT,,html-keyboard-response,316,1226044,0.0-18.0-14.0-0.0,64778,List1A,white,woman,,,,null,,,,
2194,"<img src=""portrait/BW1.jpg""style=""width:400px;height:400px;""></img>",0,html-button-response,317,1228242,0.0-18.0-16.0,64778,List1A,white,woman,,TRUE,0,,,,,
null,CORRECT,,html-keyboard-response,318,1229748,0.0-18.0-17.0-0.0,64778,List1A,white,woman,,,,null,,,,
3025,"<img src=""portrait/BM1.jpg""style=""width:400px;height:400px;""></img>",4,html-button-response,319,1232775,0.0-18.0-19.0,64778,List1A,white,woman,,TRUE,4,,,,,
null,CORRECT,,html-keyboard-response,320,1234280,0.0-18.0-20.0-0.0,64778,List1A,white,woman,,,,null,,,,
2054,"<img src=""portrait/BW2.jpg""style=""width:400px;height:400px;""></img>",2,html-button-response,321,1236336,0.0-18.0-22.0,64778,List1A,white,woman,,TRUE,2,,,,,
null,CORRECT,,html-keyboard-response,322,1237844,0.0-18.0-23.0-0.0,64778,List1A,white,woman,,,,null,,,,
1651,<p>You got 8 out of 8 right first time. Press Continue.</p>,0,html-button-response,323,1239497,0.0-18.0-25.0,64778,List1A,white,woman,,,,,,,,
null,"<div style=""font-size:60px;"">+</div>",,html-keyboard-response,324,1241003,0.0-19.0-0.0,64778,List1A,white,woman,,,,null,,,,
null,"<img src=""stim_listA/hug4.gif""</stim_listA>",,html-keyboard-response,325,1243006,0.0-19.0-1.0,64778,List1A,white,woman,,,,null,,,,
null,are hugging each other,,html-keyboard-response,326,1245008,0.0-19.0-2.0,64778,List1A,white,woman,,,,null,,,,
7947,,,survey-text,327,1252957,0.0-19.0-3.0,64778,List1A,white,woman,,,,,"{""Q0"":""jane and dave are hugging each other""}","<img src=""stim_listA/hug4.gif""</stim_listA>",are hugging each other,
null,"<div style=""font-size:60px;"">+</div>",,html-keyboard-response,328,1253461,0.0-19.0-0.1,64778,List1A,white,woman,,,,null,,,,
null,"<img src=""stim_listA/dance2.gif""</stim_listA>",,html-keyboard-response,329,1255466,0.0-19.0-1.1,64778,List1A,white,woman,,,,null,,,,
null,are dancing with each other,,html-keyboard-response,330,1257469,0.0-19.0-2.1,64778,List1A,white,woman,,,,null,,,,
11233,,,survey-text,331,1268703,0.0-19.0-3.1,64778,List1A,white,woman,,,,,"{""Q0"":""beth and mike are dancing with each other""}","<img src=""stim_listA/dance2.gif""</stim_listA>",are dancing with each other,
null,"<div style=""font-size:60px;"">+</div>",,html-keyboard-response,332,1269206,0.0-19.0-0.2,64778,List1A,white,woman,,,,null,,,,
null,"<img src=""stim_listA/meet3.gif""</stim_listA>",,html-keyboard-response,333,1271210,0.0-19.0-1.2,64778,List1A,white,woman,,,,null,,,,
null,is meeting,,html-keyboard-response,334,1273213,0.0-19.0-2.2,64778,List1A,white,woman,,,,null,,,,
6756,,,survey-text,335,1279969,0.0-19.0-3.2,64778,List1A,white,woman,,,,,"{""Q0"":""dave is meeting jane""}","<img src=""stim_listA/meet3.gif""</stim_listA>",is meeting,
null,"<div style=""font-size:60px;"">+</div>",,html-keyboard-response,336,1280478,0.0-19.0-0.3,64778,List1A,white,woman,,,,null,,,,
null,"<img src=""stim_listA/argue7.gif""</stim_listA>",,html-keyboard-response,337,1282482,0.0-19.0-1.3,64778,List1A,white,woman,,,,null,,,,
null,is arguing with,,html-keyboard-response,338,1284485,0.0-19.0-2.3,64778,List1A,white,woman,,,,null,,,,
7135,,,survey-text,339,1291622,0.0-19.0-3.3,64778,List1A,white,woman,,,,,"{""Q0"":""kate is arguing with ruth""}","<img src=""stim_listA/argue7.gif""</stim_listA>",is arguing with,
null,"<div style=""font-size:60px;"">+</div>",,html-keyboard-response,340,1292124,0.0-19.0-0.4,64778,List1A,white,woman,,,,null,,,,
null,"<img src=""stim_listA/fight5.gif""</stim_listA>",,html-keyboard-response,341,1294132,0.0-19.0-1.4,64778,List1A,white,woman,,,,null,,,,
null,is fighting,,html-keyboard-response,342,1296136,0.0-19.0-2.4,64778,List1A,white,woman,,,,null,,,,
5353,,,survey-text,343,1301490,0.0-19.0-3.4,64778,List1A,white,woman,,,,,"{""Q0"":""mike is fighting dave""}","<img src=""stim_listA/fight5.gif""</stim_listA>",is fighting,
null,"<div style=""font-size:60px;"">+</div>",,html-keyboard-response,344,1301992,0.0-19.0-0.5,64778,List1A,white,woman,,,,null,,,,
null,"<img src=""stim_listA/talk3.gif""</stim_listA>",,html-keyboard-response,345,1303994,0.0-19.0-1.5,64778,List1A,white,woman,,,,null,,,,
null,is talking to,,html-keyboard-response,346,1305997,0.0-19.0-2.5,64778,List1A,white,woman,,,,null,,,,
5219,,,survey-text,347,1311216,0.0-19.0-3.5,64778,List1A,white,woman,,,,,"{""Q0"":""luke is talking to jane""}","<img src=""stim_listA/talk3.gif""</stim_listA>",is talking to,
null,"<div style=""font-size:60px;"">+</div>",,html-keyboard-response,348,1311721,0.0-19.0-0.6,64778,List1A,white,woman,,,,null,,,,
null,"<img src=""stim_listA/shout7.gif""</stim_listA>",,html-keyboard-response,349,1313728,0.0-19.0-1.6,64778,List1A,white,woman,,,,null,,,,
null,is shouting at,,html-keyboard-response,350,1315730,0.0-19.0-2.6,64778,List1A,white,woman,,,,null,,,,
7086,,,survey-text,351,1322816,0.0-19.0-3.6,64778,List1A,white,woman,,,,,"{""Q0"":""beth is shouting at ruth""}","<img src=""stim_listA/shout7.gif""</stim_listA>",is shouting at,
null,"<div style=""font-size:60px;"">+</div>",,html-keyboard-response,352,1323319,0.0-19.0-0.7,64778,List1A,white,woman,,,,null,,,,
null,"<img src=""stim_listA/touch4.gif""</stim_listA>",,html-keyboard-response,353,1325322,0.0-19.0-1.7,64778,List1A,white,woman,,,,null,,,,
null,are touching each other,,html-keyboard-response,354,1327323,0.0-19.0-2.7,64778,List1A,white,woman,,,,null,,,,
10322,,,survey-text,355,1337647,0.0-19.0-3.7,64778,List1A,white,woman,,,,,"{""Q0"":""ruth and luke are touching each other""}","<img src=""stim_listA/touch4.gif""</stim_listA>",are touching each other,
null,"<div style=""font-size:60px;"">+</div>",,html-keyboard-response,356,1338151,0.0-19.0-0.8,64778,List1A,white,woman,,,,null,,,,
null,"<img src=""stim_listA/kiss5.gif""</stim_listA>",,html-keyboard-response,357,1340155,0.0-19.0-1.8,64778,List1A,white,woman,,,,null,,,,
null,is kissing,,html-keyboard-response,358,1342161,0.0-19.0-2.8,64778,List1A,white,woman,,,,null,,,,
5054,,,survey-text,359,1347217,0.0-19.0-3.8,64778,List1A,white,woman,,,,,"{""Q0"":""fred is kissing luke""}","<img src=""stim_listA/kiss5.gif""</stim_listA>",is kissing,
null,"<div style=""font-size:60px;"">+</div>",,html-keyboard-response,360,1347720,0.0-19.0-0.9,64778,List1A,white,woman,,,,null,,,,
null,"<img src=""stim_listA/kiss8.gif""</stim_listA>",,html-keyboard-response,361,1349724,0.0-19.0-1.9,64778,List1A,white,woman,,,,null,,,,
null,are kissing each other,,html-keyboard-response,362,1351728,0.0-19.0-2.9,64778,List1A,white,woman,,,,null,,,,
10285,,,survey-text,363,1362014,0.0-19.0-3.9,64778,List1A,white,woman,,,,,"{""Q0"":""jane and kate are kissing each other""}","<img src=""stim_listA/kiss8.gif""</stim_listA>",are kissing each other,
null,"<div style=""font-size:60px;"">+</div>",,html-keyboard-response,364,1362517,0.0-19.0-0.10,64778,List1A,white,woman,,,,null,,,,
null,"<img src=""stim_listA/dance8.gif""</stim_listA>",,html-keyboard-response,365,1364521,0.0-19.0-1.10,64778,List1A,white,woman,,,,null,,,,
null,are dancing with each other,,html-keyboard-response,366,1366522,0.0-19.0-2.10,64778,List1A,white,woman,,,,null,,,,
9918,,,survey-text,367,1376442,0.0-19.0-3.10,64778,List1A,white,woman,,,,,"{""Q0"":""ruth and kate are dancing with each other""}","<img src=""stim_listA/dance8.gif""</stim_listA>",are dancing with each other,
null,"<div style=""font-size:60px;"">+</div>",,html-keyboard-response,368,1376945,0.0-19.0-0.11,64778,List1A,white,woman,,,,null,,,,
null,"<img src=""stim_listA/hug1.gif""</stim_listA>",,html-keyboard-response,369,1378950,0.0-19.0-1.11,64778,List1A,white,woman,,,,null,,,,
null,is hugging,,html-keyboard-response,370,1380951,0.0-19.0-2.11,64778,List1A,white,woman,,,,null,,,,
7086,,,survey-text,371,1388038,0.0-19.0-3.11,64778,List1A,white,woman,,,,,"{""Q0"":""fred is hugging beth""}","<img src=""stim_listA/hug1.gif""</stim_listA>",is hugging,
null,"<div style=""font-size:60px;"">+</div>",,html-keyboard-response,372,1388541,0.0-19.0-0.12,64778,List1A,white,woman,,,,null,,,,
null,"<img src=""stim_listA/argue5.gif""</stim_listA>",,html-keyboard-response,373,1390547,0.0-19.0-1.12,64778,List1A,white,woman,,,,null,,,,
null,is arguing with,,html-keyboard-response,374,1392550,0.0-19.0-2.12,64778,List1A,white,woman,,,,null,,,,
8179,,,survey-text,375,1400731,0.0-19.0-3.12,64778,List1A,white,woman,,,,,"{""Q0"":""mike is arguing with luke""}","<img src=""stim_listA/argue5.gif""</stim_listA>",is arguing with,
null,"<div style=""font-size:60px;"">+</div>",,html-keyboard-response,376,1401235,0.0-19.0-0.13,64778,List1A,white,woman,,,,null,,,,
null,"<img src=""stim_listA/hug8.gif""</stim_listA>",,html-keyboard-response,377,1403240,0.0-19.0-1.13,64778,List1A,white,woman,,,,null,,,,
null,are hugging each other,,html-keyboard-response,378,1405241,0.0-19.0-2.13,64778,List1A,white,woman,,,,null,,,,
8785,,,survey-text,379,1414026,0.0-19.0-3.13,64778,List1A,white,woman,,,,,"{""Q0"":""jane and kate are hugging each other""}","<img src=""stim_listA/hug8.gif""</stim_listA>",are hugging each other,
null,"<div style=""font-size:60px;"">+</div>",,html-keyboard-response,380,1414531,0.0-19.0-0.14,64778,List1A,white,woman,,,,null,,,,
null,"<img src=""stim_listA/talk1.gif""</stim_listA>",,html-keyboard-response,381,1416533,0.0-19.0-1.14,64778,List1A,white,woman,,,,null,,,,
null,is talking to,,html-keyboard-response,382,1418535,0.0-19.0-2.14,64778,List1A,white,woman,,,,null,,,,
5247,,,survey-text,383,1423783,0.0-19.0-3.14,64778,List1A,white,woman,,,,,"{""Q0"":""kate is talking to fred""}","<img src=""stim_listA/talk1.gif""</stim_listA>",is talking to,
null,"<div style=""font-size:60px;"">+</div>",,html-keyboard-response,384,1424285,0.0-19.0-0.15,64778,List1A,white,woman,,,,null,,,,
null,"<img src=""stim_listA/talk6.gif""</stim_listA>",,html-keyboard-response,385,1426289,0.0-19.0-1.15,64778,List1A,white,woman,,,,null,,,,
null,are talking to each other,,html-keyboard-response,386,1428292,0.0-19.0-2.15,64778,List1A,white,woman,,,,null,,,,
9348,,,survey-text,387,1437640,0.0-19.0-3.15,64778,List1A,white,woman,,,,,"{""Q0"":""luke and mike are talking to each other""}","<img src=""stim_listA/talk6.gif""</stim_listA>",are talking to each other,
null,"<div style=""font-size:60px;"">+</div>",,html-keyboard-response,388,1438143,0.0-19.0-0.16,64778,List1A,white,woman,,,,null,,,,
null,"<img src=""stim_listA/marry8.gif""</stim_listA>",,html-keyboard-response,389,1440145,0.0-19.0-1.16,64778,List1A,white,woman,,,,null,,,,
null,are marrying each other,,html-keyboard-response,390,1442153,0.0-19.0-2.16,64778,List1A,white,woman,,,,null,,,,
8947,,,survey-text,391,1451102,0.0-19.0-3.16,64778,List1A,white,woman,,,,,"{""Q0"":""jane and beth and marrying each other""}","<img src=""stim_listA/marry8.gif""</stim_listA>",are marrying each other,
null,"<div style=""font-size:60px;"">+</div>",,html-keyboard-response,392,1451603,0.0-19.0-0.17,64778,List1A,white,woman,,,,null,,,,
null,"<img src=""stim_listA/dance3.gif""</stim_listA>",,html-keyboard-response,393,1453606,0.0-19.0-1.17,64778,List1A,white,woman,,,,null,,,,
null,is dancing with,,html-keyboard-response,394,1455608,0.0-19.0-2.17,64778,List1A,white,woman,,,,null,,,,
6133,,,survey-text,395,1461742,0.0-19.0-3.17,64778,List1A,white,woman,,,,,"{""Q0"":""luke is dancing with jane""}","<img src=""stim_listA/dance3.gif""</stim_listA>",is dancing with,
null,"<div style=""font-size:60px;"">+</div>",,html-keyboard-response,396,1462245,0.0-19.0-0.18,64778,List1A,white,woman,,,,null,,,,
null,"<img src=""stim_listA/argue8.gif""</stim_listA>",,html-keyboard-response,397,1464249,0.0-19.0-1.18,64778,List1A,white,woman,,,,null,,,,
null,are arguing with each other,,html-keyboard-response,398,1466251,0.0-19.0-2.18,64778,List1A,white,woman,,,,null,,,,
10467,,,survey-text,399,1476718,0.0-19.0-3.18,64778,List1A,white,woman,,,,,"{""Q0"":""jane and beth are arguing with each other""}","<img src=""stim_listA/argue8.gif""</stim_listA>",are arguing with each other,
null,"<div style=""font-size:60px;"">+</div>",,html-keyboard-response,400,1477222,0.0-19.0-0.19,64778,List1A,white,woman,,,,null,,,,
null,"<img src=""stim_listA/meet4.gif""</stim_listA>",,html-keyboard-response,401,1479226,0.0-19.0-1.19,64778,List1A,white,woman,,,,null,,,,
null,are meeting each other,,html-keyboard-response,402,1481227,0.0-19.0-2.19,64778,List1A,white,woman,,,,null,,,,
9792,,,survey-text,403,1491019,0.0-19.0-3.19,64778,List1A,white,woman,,,,,"{""Q0"":""ruth and luke are meeting each other""}","<img src=""stim_listA/meet4.gif""</stim_listA>",are meeting each other,
2500,<p>Thank you for completing that task.</p><p>The final part of this session is a short questionnaire.</p><p>Press Continue.</p>,0,html-button-response,404,1493520,0.0-20.0,64778,List1A,white,woman,,,,,,,,
31094,,,survey-text,405,1525617,0.0-21.0,64778,List1A,white,woman,,,,,"{""Q0"":""22"",""Q1"":""English "",""Q2"":""English "",""Q3"":""England "",""Q4"":""white british "",""Q5"":""female""}",,,demographics
57994,,,survey-likert,406,1583619,0.0-22.0,64778,List1A,white,woman,,,,,"{""Q0"":3,""Q1"":3,""Q2"":3,""Q3"":4,""Q4"":1,""Q5"":3,""Q6"":3,""Q7"":3,""Q8"":1,""Q9"":1,""Q10"":3,""Q11"":4,""Q12"":3,""Q13"":3}",,,likert_race
48018,,,survey-likert,407,1631647,0.0-23.0,64778,List1A,white,woman,,,,,"{""Q0"":5,""Q1"":5,""Q2"":5,""Q3"":2,""Q4"":5,""Q5"":2,""Q6"":4,""Q7"":5,""Q8"":5,""Q9"":3,""Q10"":5,""Q11"":5,""Q12"":3,""Q13"":3}",,,likert_gender
9436,,,survey-text,408,1641084,0.0-24.0,64778,List1A,white,woman,,,,,"{""Q0"":""ccc""}",,,worker_id
30403,,,external-html,409,1671659,0.0-25.0,64778,List1A,white,woman,debrief.html,,,,,,,
