rt,stimulus,button_pressed,trial_type,trial_index,time_elapsed,internal_node_id,subject,list,ppt_race,ppt_gender,url,first_guess,correct,key_press,responses,image_type,phrase_type,test_part
3742,Welcome to the experiment. Press Continue to begin.,0,html-button-response,0,3752,0.0-0.0,65282,List1A,black,woman,,,,,,,,
51609,,,external-html,1,56443,0.0-1.0,65282,List1A,black,woman,consent.html,,,,,,,
39625,"<p>On the next page, you will see portraits of 8 people and their names.</p><p>Your first task is to take a few minutes to memorise the names of these people.</p><p>You will have to recall their names during the rest of the experiment, so it is</p><p>essential that you try to memorise these people and their names as best as you can.</p><br><p><strong>You will then be tested on your memory of these names and portraits.</strong></p><br><p>The experiment will start after you have completed this memory test.</p><br><p>Ready?</p>",0,html-button-response,2,96072,0.0-2.0,65282,List1A,black,woman,,,,,,,,
93889,"<img src='img/portrait_matrix_list1.JPG' style='width:900px;height:500px;''></img><p>If you have memorised all the portraits and names and are ready to start, press Continue.</p><p><strong>Please note: Your memory of these faces will be tested 4 times during this experiment.</strong></p>",0,html-button-response,3,190969,0.0-3.0-0.0,65282,List1A,black,woman,,,,,,,,
7648,"<img src=""portrait/BM2.jpg""style=""width:400px;height:400px;""></img>",5,html-button-response,4,199626,0.0-3.0-1.0,65282,List1A,black,woman,,TRUE,5,,,,,
null,CORRECT,,html-keyboard-response,5,201141,0.0-3.0-2.0-0.0,65282,List1A,black,woman,,,,null,,,,
4323,"<img src=""portrait/WM1.jpg""style=""width:400px;height:400px;""></img>",6,html-button-response,6,205470,0.0-3.0-4.0,65282,List1A,black,woman,,TRUE,6,,,,,
null,CORRECT,,html-keyboard-response,7,206978,0.0-3.0-5.0-0.0,65282,List1A,black,woman,,,,null,,,,
13804,"<img src=""portrait/BW2.jpg""style=""width:400px;height:400px;""></img>",3,html-button-response,8,220787,0.0-3.0-7.0,65282,List1A,black,woman,,TRUE,2,,,,,
4197,"<img src=""portrait/BW2.jpg""style=""width:400px;height:400px;""></img>",2,html-button-response,9,225991,0.0-3.0-9.0-0.0,65282,List1A,black,woman,,FALSE,2,,,,,
null,CORRECT,,html-keyboard-response,10,227500,0.0-3.0-9.0-1.0-0.0,65282,List1A,black,woman,,,,null,,,,
16672,"<img src=""portrait/WM2.jpg""style=""width:400px;height:400px;""></img>",7,html-button-response,11,244176,0.0-3.0-10.0,65282,List1A,black,woman,,TRUE,7,,,,,
null,CORRECT,,html-keyboard-response,12,245684,0.0-3.0-11.0-0.0,65282,List1A,black,woman,,,,null,,,,
5734,"<img src=""portrait/BW1.jpg""style=""width:400px;height:400px;""></img>",0,html-button-response,13,251422,0.0-3.0-13.0,65282,List1A,black,woman,,TRUE,0,,,,,
null,CORRECT,,html-keyboard-response,14,252953,0.0-3.0-14.0-0.0,65282,List1A,black,woman,,,,null,,,,
5471,"<img src=""portrait/WW1.jpg""style=""width:400px;height:400px;""></img>",1,html-button-response,15,258427,0.0-3.0-16.0,65282,List1A,black,woman,,TRUE,1,,,,,
null,CORRECT,,html-keyboard-response,16,259955,0.0-3.0-17.0-0.0,65282,List1A,black,woman,,,,null,,,,
7948,"<img src=""portrait/BM1.jpg""style=""width:400px;height:400px;""></img>",4,html-button-response,17,267907,0.0-3.0-19.0,65282,List1A,black,woman,,TRUE,4,,,,,
null,CORRECT,,html-keyboard-response,18,269416,0.0-3.0-20.0-0.0,65282,List1A,black,woman,,,,null,,,,
3874,"<img src=""portrait/WW2.jpg""style=""width:400px;height:400px;""></img>",3,html-button-response,19,273293,0.0-3.0-22.0,65282,List1A,black,woman,,TRUE,3,,,,,
null,CORRECT,,html-keyboard-response,20,274809,0.0-3.0-23.0-0.0,65282,List1A,black,woman,,,,null,,,,
2260,<p>You got 7 out of 8 right first time. Press Continue.</p>,0,html-button-response,21,277073,0.0-3.0-25.0,65282,List1A,black,woman,,,,,,,,
2856,"As you did not score 100%, the memory game will repeat. Press Continue.",0,html-button-response,22,280933,0.0-3.0-26.0-0.0,65282,List1A,black,woman,,,,,,,,
26254,"<img src='img/portrait_matrix_list1.JPG' style='width:900px;height:500px;''></img><p>If you have memorised all the portraits and names and are ready to start, press Continue.</p><p><strong>Please note: Your memory of these faces will be tested 4 times during this experiment.</strong></p>",0,html-button-response,23,308197,0.0-3.1-0.1,65282,List1A,black,woman,,,,,,,,
2912,"<img src=""portrait/BM2.jpg""style=""width:400px;height:400px;""></img>",5,html-button-response,24,312123,0.0-3.1-1.1,65282,List1A,black,woman,,TRUE,5,,,,,
null,CORRECT,,html-keyboard-response,25,313635,0.0-3.1-2.1-0.1,65282,List1A,black,woman,,,,null,,,,
3931,"<img src=""portrait/WM1.jpg""style=""width:400px;height:400px;""></img>",6,html-button-response,26,317569,0.0-3.1-4.1,65282,List1A,black,woman,,TRUE,6,,,,,
null,CORRECT,,html-keyboard-response,27,319077,0.0-3.1-5.1-0.1,65282,List1A,black,woman,,,,null,,,,
2652,"<img src=""portrait/BW2.jpg""style=""width:400px;height:400px;""></img>",2,html-button-response,28,321732,0.0-3.1-7.1,65282,List1A,black,woman,,TRUE,2,,,,,
null,CORRECT,,html-keyboard-response,29,323240,0.0-3.1-8.1-0.1,65282,List1A,black,woman,,,,null,,,,
5939,"<img src=""portrait/WM2.jpg""style=""width:400px;height:400px;""></img>",7,html-button-response,30,329183,0.0-3.1-10.1,65282,List1A,black,woman,,TRUE,7,,,,,
null,CORRECT,,html-keyboard-response,31,330692,0.0-3.1-11.1-0.1,65282,List1A,black,woman,,,,null,,,,
3305,"<img src=""portrait/BW1.jpg""style=""width:400px;height:400px;""></img>",0,html-button-response,32,334000,0.0-3.1-13.1,65282,List1A,black,woman,,TRUE,0,,,,,
null,CORRECT,,html-keyboard-response,33,335508,0.0-3.1-14.1-0.1,65282,List1A,black,woman,,,,null,,,,
5407,"<img src=""portrait/WW1.jpg""style=""width:400px;height:400px;""></img>",1,html-button-response,34,340920,0.0-3.1-16.1,65282,List1A,black,woman,,TRUE,1,,,,,
null,CORRECT,,html-keyboard-response,35,342441,0.0-3.1-17.1-0.1,65282,List1A,black,woman,,,,null,,,,
4593,"<img src=""portrait/BM1.jpg""style=""width:400px;height:400px;""></img>",4,html-button-response,36,347038,0.0-3.1-19.1,65282,List1A,black,woman,,TRUE,4,,,,,
null,CORRECT,,html-keyboard-response,37,348545,0.0-3.1-20.1-0.1,65282,List1A,black,woman,,,,null,,,,
1962,"<img src=""portrait/WW2.jpg""style=""width:400px;height:400px;""></img>",3,html-button-response,38,350511,0.0-3.1-22.1,65282,List1A,black,woman,,TRUE,3,,,,,
null,CORRECT,,html-keyboard-response,39,352017,0.0-3.1-23.1-0.1,65282,List1A,black,woman,,,,null,,,,
1850,<p>You got 8 out of 8 right first time. Press Continue.</p>,0,html-button-response,40,353870,0.0-3.1-25.1,65282,List1A,black,woman,,,,,,,,
28056,"<p>In this experiment, you will view photographs of the people from the memory game interacting.</p><p>By using the <strong>exact</strong> phrase given <i>after</i> the photograph appears and recalling the correct names of the people in the photographs, form a sentence describing the interaction. You do not need to capitalise names.</p><p>Type your answer in the space provided. Please complete every sentence before moving onto the next trial.</p><p>You will only have a few seconds to memorise each given photograph and phrase before you can respond, so try your best to focus.</p><p>An example is given below. Press 'Continue' when you are ready.</p><img src='img/speaking_example_v2.jpg' style='width:800px;height:460px;''></img>",0,html-button-response,41,382930,0.0-4.0,65282,List1A,black,woman,,,,,,,,
3256,"<p>Before the experiment starts, you will watch two example trials. Press 'Continue'.</p>",0,html-button-response,42,387196,0.0-5.0,65282,List1A,black,woman,,,,,,,,
null,<img src='img/speaking_WW.gif'></img>,,html-keyboard-response,43,390220,0.0-6.0,65282,List1A,black,woman,,,,null,,,,
null,<p>is speaking to</p>,,html-keyboard-response,44,392230,0.0-7.0,65282,List1A,black,woman,,,,null,,,,
4160,<p><b>Answer:</b> kate is speaking to beth</p>,0,html-button-response,45,396392,0.0-8.0,65282,List1A,black,woman,,,,,,,,
null,<img src='img/pointing_BM.gif'></img>,,html-keyboard-response,46,399408,0.0-9.0,65282,List1A,black,woman,,,,null,,,,
null,<p>are pointing at each other</p>,,html-keyboard-response,47,401414,0.0-10.0,65282,List1A,black,woman,,,,null,,,,
4276,<p><b>Answer:</b> luke and dave are pointing at each other</p>,0,html-button-response,48,405693,0.0-11.0,65282,List1A,black,woman,,,,,,,,
8820,"<p>Ready to start the experiment?</p><br><p><strong>Remember to describe the picture using a full sentence,</strong></p><p><strong> that combines the names of the people with the given phrase.</strong></p><p><strong> You do not need to capitalise names or use punctuation.</strong></p><br><p>Press 'Continue' to begin.</p>",0,html-button-response,49,415517,0.0-12.0,65282,List1A,black,woman,,,,,,,,
null,"<div style=""font-size:60px;"">+</div>",,html-keyboard-response,50,417035,0.0-13.0-0.0,65282,List1A,black,woman,,,,null,,,,
null,"<img src=""stim_listA/argue1.gif""</stim_listA>",,html-keyboard-response,51,419043,0.0-13.0-1.0,65282,List1A,black,woman,,,,null,,,,
null,is arguing with,,html-keyboard-response,52,421048,0.0-13.0-2.0,65282,List1A,black,woman,,,,null,,,,
22614,,,survey-text,53,443666,0.0-13.0-3.0,65282,List1A,black,woman,,,,,"{""Q0"":""fred is arguing with beth""}","<img src=""stim_listA/argue1.gif""</stim_listA>",is arguing with,
null,"<div style=""font-size:60px;"">+</div>",,html-keyboard-response,54,444184,0.0-13.0-0.1,65282,List1A,black,woman,,,,null,,,,
null,"<img src=""stim_listA/argue5.gif""</stim_listA>",,html-keyboard-response,55,446188,0.0-13.0-1.1,65282,List1A,black,woman,,,,null,,,,
null,is arguing with,,html-keyboard-response,56,448193,0.0-13.0-2.1,65282,List1A,black,woman,,,,null,,,,
36584,,,survey-text,57,484780,0.0-13.0-3.1,65282,List1A,black,woman,,,,,"{""Q0"":""luke is pointing to mike""}","<img src=""stim_listA/argue5.gif""</stim_listA>",is arguing with,
null,"<div style=""font-size:60px;"">+</div>",,html-keyboard-response,58,485296,0.0-13.0-0.2,65282,List1A,black,woman,,,,null,,,,
null,"<img src=""stim_listA/fight2.gif""</stim_listA>",,html-keyboard-response,59,487307,0.0-13.0-1.2,65282,List1A,black,woman,,,,null,,,,
null,are fighting each other,,html-keyboard-response,60,489318,0.0-13.0-2.2,65282,List1A,black,woman,,,,null,,,,
32798,,,survey-text,61,522119,0.0-13.0-3.2,65282,List1A,black,woman,,,,,"{""Q0"":""fred and beth are fighting each other""}","<img src=""stim_listA/fight2.gif""</stim_listA>",are fighting each other,
null,"<div style=""font-size:60px;"">+</div>",,html-keyboard-response,62,522625,0.0-13.0-0.3,65282,List1A,black,woman,,,,null,,,,
null,"<img src=""stim_listA/fight4.gif""</stim_listA>",,html-keyboard-response,63,524629,0.0-13.0-1.3,65282,List1A,black,woman,,,,null,,,,
null,are fighting each other,,html-keyboard-response,64,526634,0.0-13.0-2.3,65282,List1A,black,woman,,,,null,,,,
20835,,,survey-text,65,547471,0.0-13.0-3.3,65282,List1A,black,woman,,,,,"{""Q0"":""ruth and Luke are fighting each other""}","<img src=""stim_listA/fight4.gif""</stim_listA>",are fighting each other,
null,"<div style=""font-size:60px;"">+</div>",,html-keyboard-response,66,547979,0.0-13.0-0.4,65282,List1A,black,woman,,,,null,,,,
null,"<img src=""stim_listA/fight7.gif""</stim_listA>",,html-keyboard-response,67,549984,0.0-13.0-1.4,65282,List1A,black,woman,,,,null,,,,
null,is fighting,,html-keyboard-response,68,551990,0.0-13.0-2.4,65282,List1A,black,woman,,,,null,,,,
25379,,,survey-text,69,577373,0.0-13.0-3.4,65282,List1A,black,woman,,,,,"{""Q0"":""kate and jane are fighting each other""}","<img src=""stim_listA/fight7.gif""</stim_listA>",is fighting,
null,"<div style=""font-size:60px;"">+</div>",,html-keyboard-response,70,577880,0.0-13.0-0.5,65282,List1A,black,woman,,,,null,,,,
null,"<img src=""stim_listA/argue8.gif""</stim_listA>",,html-keyboard-response,71,579883,0.0-13.0-1.5,65282,List1A,black,woman,,,,null,,,,
null,are arguing with each other,,html-keyboard-response,72,581886,0.0-13.0-2.5,65282,List1A,black,woman,,,,null,,,,
19302,,,survey-text,73,601189,0.0-13.0-3.5,65282,List1A,black,woman,,,,,"{""Q0"":""jane and beth are arguing with each other""}","<img src=""stim_listA/argue8.gif""</stim_listA>",are arguing with each other,
null,"<div style=""font-size:60px;"">+</div>",,html-keyboard-response,74,601700,0.0-13.0-0.6,65282,List1A,black,woman,,,,null,,,,
null,"<img src=""stim_listA/dance5.gif""</stim_listA>",,html-keyboard-response,75,603719,0.0-13.0-1.6,65282,List1A,black,woman,,,,null,,,,
null,is dancing with,,html-keyboard-response,76,605724,0.0-13.0-2.6,65282,List1A,black,woman,,,,null,,,,
18461,,,survey-text,77,624188,0.0-13.0-3.6,65282,List1A,black,woman,,,,,"{""Q0"":""fred and luke are holding each other""}","<img src=""stim_listA/dance5.gif""</stim_listA>",is dancing with,
null,"<div style=""font-size:60px;"">+</div>",,html-keyboard-response,78,624701,0.0-13.0-0.7,65282,List1A,black,woman,,,,null,,,,
null,"<img src=""stim_listA/dance4.gif""</stim_listA>",,html-keyboard-response,79,626708,0.0-13.0-1.7,65282,List1A,black,woman,,,,null,,,,
null,are dancing with each other,,html-keyboard-response,80,628712,0.0-13.0-2.7,65282,List1A,black,woman,,,,null,,,,
19960,,,survey-text,81,648675,0.0-13.0-3.7,65282,List1A,black,woman,,,,,"{""Q0"":""ruth and luke are dancing with each other""}","<img src=""stim_listA/dance4.gif""</stim_listA>",are dancing with each other,
null,"<div style=""font-size:60px;"">+</div>",,html-keyboard-response,82,649180,0.0-13.0-0.8,65282,List1A,black,woman,,,,null,,,,
null,"<img src=""stim_listA/dance1.gif""</stim_listA>",,html-keyboard-response,83,651183,0.0-13.0-1.8,65282,List1A,black,woman,,,,null,,,,
null,is dancing with,,html-keyboard-response,84,653186,0.0-13.0-2.8,65282,List1A,black,woman,,,,null,,,,
21091,,,survey-text,85,674279,0.0-13.0-3.8,65282,List1A,black,woman,,,,,"{""Q0"":""fred and kate are dancing with each other""}","<img src=""stim_listA/dance1.gif""</stim_listA>",is dancing with,
null,"<div style=""font-size:60px;"">+</div>",,html-keyboard-response,86,674785,0.0-13.0-0.9,65282,List1A,black,woman,,,,null,,,,
null,"<img src=""stim_listA/argue6.gif""</stim_listA>",,html-keyboard-response,87,676790,0.0-13.0-1.9,65282,List1A,black,woman,,,,null,,,,
null,are arguing with each other,,html-keyboard-response,88,678793,0.0-13.0-2.9,65282,List1A,black,woman,,,,null,,,,
28472,,,survey-text,89,707268,0.0-13.0-3.9,65282,List1A,black,woman,,,,,"{""Q0"":""fred and Luke are arguing with each other""}","<img src=""stim_listA/argue6.gif""</stim_listA>",are arguing with each other,
null,"<div style=""font-size:60px;"">+</div>",,html-keyboard-response,90,707787,0.0-13.0-0.10,65282,List1A,black,woman,,,,null,,,,
null,"<img src=""stim_listA/marry4.gif""</stim_listA>",,html-keyboard-response,91,709794,0.0-13.0-1.10,65282,List1A,black,woman,,,,null,,,,
null,are marrying each other,,html-keyboard-response,92,711797,0.0-13.0-2.10,65282,List1A,black,woman,,,,null,,,,
20863,,,survey-text,93,732661,0.0-13.0-3.10,65282,List1A,black,woman,,,,,"{""Q0"":""jane and dave are marrying each other""}","<img src=""stim_listA/marry4.gif""</stim_listA>",are marrying each other,
null,"<div style=""font-size:60px;"">+</div>",,html-keyboard-response,94,733164,0.0-13.0-0.11,65282,List1A,black,woman,,,,null,,,,
null,"<img src=""stim_listA/argue7.gif""</stim_listA>",,html-keyboard-response,95,735169,0.0-13.0-1.11,65282,List1A,black,woman,,,,null,,,,
null,is arguing with,,html-keyboard-response,96,737176,0.0-13.0-2.11,65282,List1A,black,woman,,,,null,,,,
13898,,,survey-text,97,751076,0.0-13.0-3.11,65282,List1A,black,woman,,,,,"{""Q0"":""kate is arguing with Ruth""}","<img src=""stim_listA/argue7.gif""</stim_listA>",is arguing with,
null,"<div style=""font-size:60px;"">+</div>",,html-keyboard-response,98,751579,0.0-13.0-0.12,65282,List1A,black,woman,,,,null,,,,
null,"<img src=""stim_listA/marry1.gif""</stim_listA>",,html-keyboard-response,99,753583,0.0-13.0-1.12,65282,List1A,black,woman,,,,null,,,,
null,is marrying,,html-keyboard-response,100,755588,0.0-13.0-2.12,65282,List1A,black,woman,,,,null,,,,
20643,,,survey-text,101,776233,0.0-13.0-3.12,65282,List1A,black,woman,,,,,"{""Q0"":""mike is marrying beth""}","<img src=""stim_listA/marry1.gif""</stim_listA>",is marrying,
null,"<div style=""font-size:60px;"">+</div>",,html-keyboard-response,102,776738,0.0-13.0-0.13,65282,List1A,black,woman,,,,null,,,,
null,"<img src=""stim_listA/marry8.gif""</stim_listA>",,html-keyboard-response,103,778743,0.0-13.0-1.13,65282,List1A,black,woman,,,,null,,,,
null,are marrying each other,,html-keyboard-response,104,780748,0.0-13.0-2.13,65282,List1A,black,woman,,,,null,,,,
16803,,,survey-text,105,797555,0.0-13.0-3.13,65282,List1A,black,woman,,,,,"{""Q0"":""jane and beth are marrying each other""}","<img src=""stim_listA/marry8.gif""</stim_listA>",are marrying each other,
null,"<div style=""font-size:60px;"">+</div>",,html-keyboard-response,106,798071,0.0-13.0-0.14,65282,List1A,black,woman,,,,null,,,,
null,"<img src=""stim_listA/meet6.gif""</stim_listA>",,html-keyboard-response,107,800075,0.0-13.0-1.14,65282,List1A,black,woman,,,,null,,,,
null,are meeting each other,,html-keyboard-response,108,802080,0.0-13.0-2.14,65282,List1A,black,woman,,,,null,,,,
17408,,,survey-text,109,819490,0.0-13.0-3.14,65282,List1A,black,woman,,,,,"{""Q0"":""luke and fred are meeting each other""}","<img src=""stim_listA/meet6.gif""</stim_listA>",are meeting each other,
null,"<div style=""font-size:60px;"">+</div>",,html-keyboard-response,110,819995,0.0-13.0-0.15,65282,List1A,black,woman,,,,null,,,,
null,"<img src=""stim_listA/marry5.gif""</stim_listA>",,html-keyboard-response,111,822002,0.0-13.0-1.15,65282,List1A,black,woman,,,,null,,,,
null,is marrying,,html-keyboard-response,112,824006,0.0-13.0-2.15,65282,List1A,black,woman,,,,null,,,,
24715,,,survey-text,113,848723,0.0-13.0-3.15,65282,List1A,black,woman,,,,,"{""Q0"":""luke is marrying mike""}","<img src=""stim_listA/marry5.gif""</stim_listA>",is marrying,
null,"<div style=""font-size:60px;"">+</div>",,html-keyboard-response,114,849240,0.0-13.0-0.16,65282,List1A,black,woman,,,,null,,,,
null,"<img src=""stim_listA/meet8.gif""</stim_listA>",,html-keyboard-response,115,851245,0.0-13.0-1.16,65282,List1A,black,woman,,,,null,,,,
null,are meeting each other,,html-keyboard-response,116,853247,0.0-13.0-2.16,65282,List1A,black,woman,,,,null,,,,
19996,,,survey-text,117,873246,0.0-13.0-3.16,65282,List1A,black,woman,,,,,"{""Q0"":""ruth and beth are holding each other""}","<img src=""stim_listA/meet8.gif""</stim_listA>",are meeting each other,
null,"<div style=""font-size:60px;"">+</div>",,html-keyboard-response,118,873753,0.0-13.0-0.17,65282,List1A,black,woman,,,,null,,,,
null,"<img src=""stim_listA/talk7.gif""</stim_listA>",,html-keyboard-response,119,875759,0.0-13.0-1.17,65282,List1A,black,woman,,,,null,,,,
null,is talking to,,html-keyboard-response,120,877764,0.0-13.0-2.17,65282,List1A,black,woman,,,,null,,,,
20094,,,survey-text,121,897860,0.0-13.0-3.17,65282,List1A,black,woman,,,,,"{""Q0"":""ruth is talking to beth""}","<img src=""stim_listA/talk7.gif""</stim_listA>",is talking to,
null,"<div style=""font-size:60px;"">+</div>",,html-keyboard-response,122,898366,0.0-13.0-0.18,65282,List1A,black,woman,,,,null,,,,
null,"<img src=""stim_listA/talk5.gif""</stim_listA>",,html-keyboard-response,123,900371,0.0-13.0-1.18,65282,List1A,black,woman,,,,null,,,,
null,is talking to,,html-keyboard-response,124,902376,0.0-13.0-2.18,65282,List1A,black,woman,,,,null,,,,
10388,,,survey-text,125,912767,0.0-13.0-3.18,65282,List1A,black,woman,,,,,"{""Q0"":""dave is talking to fred""}","<img src=""stim_listA/talk5.gif""</stim_listA>",is talking to,
null,"<div style=""font-size:60px;"">+</div>",,html-keyboard-response,126,913273,0.0-13.0-0.19,65282,List1A,black,woman,,,,null,,,,
null,"<img src=""stim_listA/meet1.gif""</stim_listA>",,html-keyboard-response,127,915277,0.0-13.0-1.19,65282,List1A,black,woman,,,,null,,,,
null,is meeting,,html-keyboard-response,128,917286,0.0-13.0-2.19,65282,List1A,black,woman,,,,null,,,,
13010,,,survey-text,129,930299,0.0-13.0-3.19,65282,List1A,black,woman,,,,,"{""Q0"":""mike is holding kate""}","<img src=""stim_listA/meet1.gif""</stim_listA>",is meeting,
28104,"<img src='img/portrait_matrix_list1.JPG' style='width:900px;height:500px;''></img><p>If you have memorised all the portraits and names and are ready to start, press Continue.</p><p><strong>Please note: Your memory of these faces will be tested 4 times during this experiment.</strong></p>",0,html-button-response,130,958406,0.0-14.0-0.0,65282,List1A,black,woman,,,,,,,,
3076,"<img src=""portrait/BW2.jpg""style=""width:400px;height:400px;""></img>",2,html-button-response,131,962489,0.0-14.0-1.0,65282,List1A,black,woman,,TRUE,2,,,,,
null,CORRECT,,html-keyboard-response,132,963998,0.0-14.0-2.0-0.0,65282,List1A,black,woman,,,,null,,,,
3766,"<img src=""portrait/WM1.jpg""style=""width:400px;height:400px;""></img>",6,html-button-response,133,967768,0.0-14.0-4.0,65282,List1A,black,woman,,TRUE,6,,,,,
null,CORRECT,,html-keyboard-response,134,969288,0.0-14.0-5.0-0.0,65282,List1A,black,woman,,,,null,,,,
13728,"<img src=""portrait/BM2.jpg""style=""width:400px;height:400px;""></img>",5,html-button-response,135,983021,0.0-14.0-7.0,65282,List1A,black,woman,,TRUE,5,,,,,
null,CORRECT,,html-keyboard-response,136,984534,0.0-14.0-8.0-0.0,65282,List1A,black,woman,,,,null,,,,
2666,"<img src=""portrait/WM2.jpg""style=""width:400px;height:400px;""></img>",7,html-button-response,137,987206,0.0-14.0-10.0,65282,List1A,black,woman,,TRUE,7,,,,,
null,CORRECT,,html-keyboard-response,138,988722,0.0-14.0-11.0-0.0,65282,List1A,black,woman,,,,null,,,,
1960,"<img src=""portrait/WW2.jpg""style=""width:400px;height:400px;""></img>",3,html-button-response,139,990686,0.0-14.0-13.0,65282,List1A,black,woman,,TRUE,3,,,,,
null,CORRECT,,html-keyboard-response,140,992195,0.0-14.0-14.0-0.0,65282,List1A,black,woman,,,,null,,,,
2227,"<img src=""portrait/BW1.jpg""style=""width:400px;height:400px;""></img>",0,html-button-response,141,994424,0.0-14.0-16.0,65282,List1A,black,woman,,TRUE,0,,,,,
null,CORRECT,,html-keyboard-response,142,995932,0.0-14.0-17.0-0.0,65282,List1A,black,woman,,,,null,,,,
1578,"<img src=""portrait/WW1.jpg""style=""width:400px;height:400px;""></img>",1,html-button-response,143,997515,0.0-14.0-19.0,65282,List1A,black,woman,,TRUE,1,,,,,
null,CORRECT,,html-keyboard-response,144,999022,0.0-14.0-20.0-0.0,65282,List1A,black,woman,,,,null,,,,
1709,"<img src=""portrait/BM1.jpg""style=""width:400px;height:400px;""></img>",4,html-button-response,145,1000735,0.0-14.0-22.0,65282,List1A,black,woman,,TRUE,4,,,,,
null,CORRECT,,html-keyboard-response,146,1002240,0.0-14.0-23.0-0.0,65282,List1A,black,woman,,,,null,,,,
1802,<p>You got 8 out of 8 right first time. Press Continue.</p>,0,html-button-response,147,1004046,0.0-14.0-25.0,65282,List1A,black,woman,,,,,,,,
null,"<div style=""font-size:60px;"">+</div>",,html-keyboard-response,148,1005555,0.0-15.0-0.0,65282,List1A,black,woman,,,,null,,,,
null,"<img src=""stim_listA/talk4.gif""</stim_listA>",,html-keyboard-response,149,1007558,0.0-15.0-1.0,65282,List1A,black,woman,,,,null,,,,
null,are talking to each other,,html-keyboard-response,150,1009561,0.0-15.0-2.0,65282,List1A,black,woman,,,,null,,,,
11438,,,survey-text,151,1021002,0.0-15.0-3.0,65282,List1A,black,woman,,,,,"{""Q0"":""ruth is talking to dave""}","<img src=""stim_listA/talk4.gif""</stim_listA>",are talking to each other,
null,"<div style=""font-size:60px;"">+</div>",,html-keyboard-response,152,1021516,0.0-15.0-0.1,65282,List1A,black,woman,,,,null,,,,
null,"<img src=""stim_listA/kiss5.gif""</stim_listA>",,html-keyboard-response,153,1023534,0.0-15.0-1.1,65282,List1A,black,woman,,,,null,,,,
null,is kissing,,html-keyboard-response,154,1025539,0.0-15.0-2.1,65282,List1A,black,woman,,,,null,,,,
12509,,,survey-text,155,1038050,0.0-15.0-3.1,65282,List1A,black,woman,,,,,"{""Q0"":""fred is kissing luke""}","<img src=""stim_listA/kiss5.gif""</stim_listA>",is kissing,
null,"<div style=""font-size:60px;"">+</div>",,html-keyboard-response,156,1038556,0.0-15.0-0.2,65282,List1A,black,woman,,,,null,,,,
null,"<img src=""stim_listA/hug3.gif""</stim_listA>",,html-keyboard-response,157,1040559,0.0-15.0-1.2,65282,List1A,black,woman,,,,null,,,,
null,is hugging,,html-keyboard-response,158,1042565,0.0-15.0-2.2,65282,List1A,black,woman,,,,null,,,,
12340,,,survey-text,159,1054907,0.0-15.0-3.2,65282,List1A,black,woman,,,,,"{""Q0"":""luke is hugging ruth""}","<img src=""stim_listA/hug3.gif""</stim_listA>",is hugging,
null,"<div style=""font-size:60px;"">+</div>",,html-keyboard-response,160,1055415,0.0-15.0-0.3,65282,List1A,black,woman,,,,null,,,,
null,"<img src=""stim_listA/fight3.gif""</stim_listA>",,html-keyboard-response,161,1057419,0.0-15.0-1.3,65282,List1A,black,woman,,,,null,,,,
null,is fighting,,html-keyboard-response,162,1059422,0.0-15.0-2.3,65282,List1A,black,woman,,,,null,,,,
9499,,,survey-text,163,1068925,0.0-15.0-3.3,65282,List1A,black,woman,,,,,"{""Q0"":""jane is fighting dave""}","<img src=""stim_listA/fight3.gif""</stim_listA>",is fighting,
null,"<div style=""font-size:60px;"">+</div>",,html-keyboard-response,164,1069431,0.0-15.0-0.4,65282,List1A,black,woman,,,,null,,,,
null,"<img src=""stim_listA/hug1.gif""</stim_listA>",,html-keyboard-response,165,1071437,0.0-15.0-1.4,65282,List1A,black,woman,,,,null,,,,
null,is hugging,,html-keyboard-response,166,1073441,0.0-15.0-2.4,65282,List1A,black,woman,,,,null,,,,
11323,,,survey-text,167,1084767,0.0-15.0-3.4,65282,List1A,black,woman,,,,,"{""Q0"":""fred is hugging beth""}","<img src=""stim_listA/hug1.gif""</stim_listA>",is hugging,
null,"<div style=""font-size:60px;"">+</div>",,html-keyboard-response,168,1085273,0.0-15.0-0.5,65282,List1A,black,woman,,,,null,,,,
null,"<img src=""stim_listA/touch1.gif""</stim_listA>",,html-keyboard-response,169,1087277,0.0-15.0-1.5,65282,List1A,black,woman,,,,null,,,,
null,is touching,,html-keyboard-response,170,1089293,0.0-15.0-2.5,65282,List1A,black,woman,,,,null,,,,
9788,,,survey-text,171,1099084,0.0-15.0-3.5,65282,List1A,black,woman,,,,,"{""Q0"":""kate is touching mike""}","<img src=""stim_listA/touch1.gif""</stim_listA>",is touching,
null,"<div style=""font-size:60px;"">+</div>",,html-keyboard-response,172,1099588,0.0-15.0-0.6,65282,List1A,black,woman,,,,null,,,,
null,"<img src=""stim_listA/dance2.gif""</stim_listA>",,html-keyboard-response,173,1101592,0.0-15.0-1.6,65282,List1A,black,woman,,,,null,,,,
null,are dancing with each other,,html-keyboard-response,174,1103597,0.0-15.0-2.6,65282,List1A,black,woman,,,,null,,,,
17708,,,survey-text,175,1121307,0.0-15.0-3.6,65282,List1A,black,woman,,,,,"{""Q0"":""beth and mike are dancing with each other""}","<img src=""stim_listA/dance2.gif""</stim_listA>",are dancing with each other,
null,"<div style=""font-size:60px;"">+</div>",,html-keyboard-response,176,1121814,0.0-15.0-0.7,65282,List1A,black,woman,,,,null,,,,
null,"<img src=""stim_listA/kiss8.gif""</stim_listA>",,html-keyboard-response,177,1123820,0.0-15.0-1.7,65282,List1A,black,woman,,,,null,,,,
null,are kissing each other,,html-keyboard-response,178,1125823,0.0-15.0-2.7,65282,List1A,black,woman,,,,null,,,,
15769,,,survey-text,179,1141594,0.0-15.0-3.7,65282,List1A,black,woman,,,,,"{""Q0"":""jane and kate are kissing each other""}","<img src=""stim_listA/kiss8.gif""</stim_listA>",are kissing each other,
null,"<div style=""font-size:60px;"">+</div>",,html-keyboard-response,180,1142098,0.0-15.0-0.8,65282,List1A,black,woman,,,,null,,,,
null,"<img src=""stim_listA/touch5.gif""</stim_listA>",,html-keyboard-response,181,1144115,0.0-15.0-1.8,65282,List1A,black,woman,,,,null,,,,
null,is touching,,html-keyboard-response,182,1146119,0.0-15.0-2.8,65282,List1A,black,woman,,,,null,,,,
10119,,,survey-text,183,1156241,0.0-15.0-3.8,65282,List1A,black,woman,,,,,"{""Q0"":""dave is touching mike""}","<img src=""stim_listA/touch5.gif""</stim_listA>",is touching,
null,"<div style=""font-size:60px;"">+</div>",,html-keyboard-response,184,1156747,0.0-15.0-0.9,65282,List1A,black,woman,,,,null,,,,
null,"<img src=""stim_listA/argue4.gif""</stim_listA>",,html-keyboard-response,185,1158751,0.0-15.0-1.9,65282,List1A,black,woman,,,,null,,,,
null,are arguing with each other,,html-keyboard-response,186,1160754,0.0-15.0-2.9,65282,List1A,black,woman,,,,null,,,,
17090,,,survey-text,187,1177848,0.0-15.0-3.9,65282,List1A,black,woman,,,,,"{""Q0"":""jane and luke are arguing with each other""}","<img src=""stim_listA/argue4.gif""</stim_listA>",are arguing with each other,
null,"<div style=""font-size:60px;"">+</div>",,html-keyboard-response,188,1178354,0.0-15.0-0.10,65282,List1A,black,woman,,,,null,,,,
null,"<img src=""stim_listA/fight5.gif""</stim_listA>",,html-keyboard-response,189,1180365,0.0-15.0-1.10,65282,List1A,black,woman,,,,null,,,,
null,is fighting,,html-keyboard-response,190,1182367,0.0-15.0-2.10,65282,List1A,black,woman,,,,null,,,,
9328,,,survey-text,191,1191698,0.0-15.0-3.10,65282,List1A,black,woman,,,,,"{""Q0"":""dave is fighting mike""}","<img src=""stim_listA/fight5.gif""</stim_listA>",is fighting,
null,"<div style=""font-size:60px;"">+</div>",,html-keyboard-response,192,1192213,0.0-15.0-0.11,65282,List1A,black,woman,,,,null,,,,
null,"<img src=""stim_listA/shout6.gif""</stim_listA>",,html-keyboard-response,193,1194217,0.0-15.0-1.11,65282,List1A,black,woman,,,,null,,,,
null,are shouting at each other,,html-keyboard-response,194,1196220,0.0-15.0-2.11,65282,List1A,black,woman,,,,null,,,,
18442,,,survey-text,195,1214664,0.0-15.0-3.11,65282,List1A,black,woman,,,,,"{""Q0"":""dave and mike are shouting at each other""}","<img src=""stim_listA/shout6.gif""</stim_listA>",are shouting at each other,
null,"<div style=""font-size:60px;"">+</div>",,html-keyboard-response,196,1215171,0.0-15.0-0.12,65282,List1A,black,woman,,,,null,,,,
null,"<img src=""stim_listA/hug2.gif""</stim_listA>",,html-keyboard-response,197,1217175,0.0-15.0-1.12,65282,List1A,black,woman,,,,null,,,,
null,are hugging each other,,html-keyboard-response,198,1219179,0.0-15.0-2.12,65282,List1A,black,woman,,,,null,,,,
14989,,,survey-text,199,1234171,0.0-15.0-3.12,65282,List1A,black,woman,,,,,"{""Q0"":""kate and mike are hugging each other""}","<img src=""stim_listA/hug2.gif""</stim_listA>",are hugging each other,
null,"<div style=""font-size:60px;"">+</div>",,html-keyboard-response,200,1234689,0.0-15.0-0.13,65282,List1A,black,woman,,,,null,,,,
null,"<img src=""stim_listA/meet7.gif""</stim_listA>",,html-keyboard-response,201,1236700,0.0-15.0-1.13,65282,List1A,black,woman,,,,null,,,,
null,is meeting,,html-keyboard-response,202,1238703,0.0-15.0-2.13,65282,List1A,black,woman,,,,null,,,,
10881,,,survey-text,203,1249586,0.0-15.0-3.13,65282,List1A,black,woman,,,,,"{""Q0"":""jane is meeting kate""}","<img src=""stim_listA/meet7.gif""</stim_listA>",is meeting,
null,"<div style=""font-size:60px;"">+</div>",,html-keyboard-response,204,1250092,0.0-15.0-0.14,65282,List1A,black,woman,,,,null,,,,
null,"<img src=""stim_listA/kiss3.gif""</stim_listA>",,html-keyboard-response,205,1252098,0.0-15.0-1.14,65282,List1A,black,woman,,,,null,,,,
null,is kissing,,html-keyboard-response,206,1254100,0.0-15.0-2.14,65282,List1A,black,woman,,,,null,,,,
16638,,,survey-text,207,1270741,0.0-15.0-3.14,65282,List1A,black,woman,,,,,"{""Q0"":""luke is kissing ruth""}","<img src=""stim_listA/kiss3.gif""</stim_listA>",is kissing,
null,"<div style=""font-size:60px;"">+</div>",,html-keyboard-response,208,1271246,0.0-15.0-0.15,65282,List1A,black,woman,,,,null,,,,
null,"<img src=""stim_listA/talk1.gif""</stim_listA>",,html-keyboard-response,209,1273250,0.0-15.0-1.15,65282,List1A,black,woman,,,,null,,,,
null,is talking to,,html-keyboard-response,210,1275252,0.0-15.0-2.15,65282,List1A,black,woman,,,,null,,,,
11439,,,survey-text,211,1286693,0.0-15.0-3.15,65282,List1A,black,woman,,,,,"{""Q0"":""fred is talking to kate""}","<img src=""stim_listA/talk1.gif""</stim_listA>",is talking to,
null,"<div style=""font-size:60px;"">+</div>",,html-keyboard-response,212,1287196,0.0-15.0-0.16,65282,List1A,black,woman,,,,null,,,,
null,"<img src=""stim_listA/meet2.gif""</stim_listA>",,html-keyboard-response,213,1289202,0.0-15.0-1.16,65282,List1A,black,woman,,,,null,,,,
null,are meeting each other,,html-keyboard-response,214,1291204,0.0-15.0-2.16,65282,List1A,black,woman,,,,null,,,,
17914,,,survey-text,215,1309121,0.0-15.0-3.16,65282,List1A,black,woman,,,,,"{""Q0"":""fred is holding beth""}","<img src=""stim_listA/meet2.gif""</stim_listA>",are meeting each other,
null,"<div style=""font-size:60px;"">+</div>",,html-keyboard-response,216,1309627,0.0-15.0-0.17,65282,List1A,black,woman,,,,null,,,,
null,"<img src=""stim_listA/fight6.gif""</stim_listA>",,html-keyboard-response,217,1311632,0.0-15.0-1.17,65282,List1A,black,woman,,,,null,,,,
null,are fighting each other,,html-keyboard-response,218,1313636,0.0-15.0-2.17,65282,List1A,black,woman,,,,null,,,,
13781,,,survey-text,219,1327419,0.0-15.0-3.17,65282,List1A,black,woman,,,,,"{""Q0"":""fred and luke are fighting each other""}","<img src=""stim_listA/fight6.gif""</stim_listA>",are fighting each other,
null,"<div style=""font-size:60px;"">+</div>",,html-keyboard-response,220,1327936,0.0-15.0-0.18,65282,List1A,black,woman,,,,null,,,,
null,"<img src=""stim_listA/kiss6.gif""</stim_listA>",,html-keyboard-response,221,1329939,0.0-15.0-1.18,65282,List1A,black,woman,,,,null,,,,
null,are kissing each other,,html-keyboard-response,222,1331943,0.0-15.0-2.18,65282,List1A,black,woman,,,,null,,,,
13678,,,survey-text,223,1345624,0.0-15.0-3.18,65282,List1A,black,woman,,,,,"{""Q0"":""mike and dave are kissing each other""}","<img src=""stim_listA/kiss6.gif""</stim_listA>",are kissing each other,
null,"<div style=""font-size:60px;"">+</div>",,html-keyboard-response,224,1346131,0.0-15.0-0.19,65282,List1A,black,woman,,,,null,,,,
null,"<img src=""stim_listA/hug8.gif""</stim_listA>",,html-keyboard-response,225,1348137,0.0-15.0-1.19,65282,List1A,black,woman,,,,null,,,,
null,are hugging each other,,html-keyboard-response,226,1350140,0.0-15.0-2.19,65282,List1A,black,woman,,,,null,,,,
13728,,,survey-text,227,1363870,0.0-15.0-3.19,65282,List1A,black,woman,,,,,"{""Q0"":""jane and kate are hugging each other""}","<img src=""stim_listA/hug8.gif""</stim_listA>",are hugging each other,
9051,"<img src='img/portrait_matrix_list1.JPG' style='width:900px;height:500px;''></img><p>If you have memorised all the portraits and names and are ready to start, press Continue.</p><p><strong>Please note: Your memory of these faces will be tested 4 times during this experiment.</strong></p>",0,html-button-response,228,1372925,0.0-16.0-0.0,65282,List1A,black,woman,,,,,,,,
2580,"<img src=""portrait/BW2.jpg""style=""width:400px;height:400px;""></img>",2,html-button-response,229,1376513,0.0-16.0-1.0,65282,List1A,black,woman,,TRUE,2,,,,,
null,CORRECT,,html-keyboard-response,230,1378026,0.0-16.0-2.0-0.0,65282,List1A,black,woman,,,,null,,,,
2125,"<img src=""portrait/WW2.jpg""style=""width:400px;height:400px;""></img>",3,html-button-response,231,1380155,0.0-16.0-4.0,65282,List1A,black,woman,,TRUE,3,,,,,
null,CORRECT,,html-keyboard-response,232,1381662,0.0-16.0-5.0-0.0,65282,List1A,black,woman,,,,null,,,,
2193,"<img src=""portrait/BM1.jpg""style=""width:400px;height:400px;""></img>",4,html-button-response,233,1383858,0.0-16.0-7.0,65282,List1A,black,woman,,TRUE,4,,,,,
null,CORRECT,,html-keyboard-response,234,1385365,0.0-16.0-8.0-0.0,65282,List1A,black,woman,,,,null,,,,
2185,"<img src=""portrait/BM2.jpg""style=""width:400px;height:400px;""></img>",5,html-button-response,235,1387553,0.0-16.0-10.0,65282,List1A,black,woman,,TRUE,5,,,,,
null,CORRECT,,html-keyboard-response,236,1389061,0.0-16.0-11.0-0.0,65282,List1A,black,woman,,,,null,,,,
3412,"<img src=""portrait/WW1.jpg""style=""width:400px;height:400px;""></img>",1,html-button-response,237,1392477,0.0-16.0-13.0,65282,List1A,black,woman,,TRUE,1,,,,,
null,CORRECT,,html-keyboard-response,238,1394000,0.0-16.0-14.0-0.0,65282,List1A,black,woman,,,,null,,,,
1839,"<img src=""portrait/WM2.jpg""style=""width:400px;height:400px;""></img>",7,html-button-response,239,1395842,0.0-16.0-16.0,65282,List1A,black,woman,,TRUE,7,,,,,
null,CORRECT,,html-keyboard-response,240,1397352,0.0-16.0-17.0-0.0,65282,List1A,black,woman,,,,null,,,,
2177,"<img src=""portrait/BW1.jpg""style=""width:400px;height:400px;""></img>",0,html-button-response,241,1399533,0.0-16.0-19.0,65282,List1A,black,woman,,TRUE,0,,,,,
null,CORRECT,,html-keyboard-response,242,1401041,0.0-16.0-20.0-0.0,65282,List1A,black,woman,,,,null,,,,
3553,"<img src=""portrait/WM1.jpg""style=""width:400px;height:400px;""></img>",6,html-button-response,243,1404598,0.0-16.0-22.0,65282,List1A,black,woman,,TRUE,6,,,,,
null,CORRECT,,html-keyboard-response,244,1406108,0.0-16.0-23.0-0.0,65282,List1A,black,woman,,,,null,,,,
1711,<p>You got 8 out of 8 right first time. Press Continue.</p>,0,html-button-response,245,1407823,0.0-16.0-25.0,65282,List1A,black,woman,,,,,,,,
null,"<div style=""font-size:60px;"">+</div>",,html-keyboard-response,246,1409331,0.0-17.0-0.0,65282,List1A,black,woman,,,,null,,,,
null,"<img src=""stim_listA/shout4.gif""</stim_listA>",,html-keyboard-response,247,1411337,0.0-17.0-1.0,65282,List1A,black,woman,,,,null,,,,
null,are shouting at each other,,html-keyboard-response,248,1413339,0.0-17.0-2.0,65282,List1A,black,woman,,,,null,,,,
15743,,,survey-text,249,1429085,0.0-17.0-3.0,65282,List1A,black,woman,,,,,"{""Q0"":""jane and dave are shouting at each other""}","<img src=""stim_listA/shout4.gif""</stim_listA>",are shouting at each other,
null,"<div style=""font-size:60px;"">+</div>",,html-keyboard-response,250,1429590,0.0-17.0-0.1,65282,List1A,black,woman,,,,null,,,,
null,"<img src=""stim_listA/hug5.gif""</stim_listA>",,html-keyboard-response,251,1431595,0.0-17.0-1.1,65282,List1A,black,woman,,,,null,,,,
null,is hugging,,html-keyboard-response,252,1433600,0.0-17.0-2.1,65282,List1A,black,woman,,,,null,,,,
9438,,,survey-text,253,1443041,0.0-17.0-3.1,65282,List1A,black,woman,,,,,"{""Q0"":""fred is hugging luke""}","<img src=""stim_listA/hug5.gif""</stim_listA>",is hugging,
null,"<div style=""font-size:60px;"">+</div>",,html-keyboard-response,254,1443545,0.0-17.0-0.2,65282,List1A,black,woman,,,,null,,,,
null,"<img src=""stim_listA/kiss7.gif""</stim_listA>",,html-keyboard-response,255,1445553,0.0-17.0-1.2,65282,List1A,black,woman,,,,null,,,,
null,is kissing,,html-keyboard-response,256,1447556,0.0-17.0-2.2,65282,List1A,black,woman,,,,null,,,,
8583,,,survey-text,257,1456141,0.0-17.0-3.2,65282,List1A,black,woman,,,,,"{""Q0"":""ruth is kissing beth""}","<img src=""stim_listA/kiss7.gif""</stim_listA>",is kissing,
null,"<div style=""font-size:60px;"">+</div>",,html-keyboard-response,258,1456647,0.0-17.0-0.3,65282,List1A,black,woman,,,,null,,,,
null,"<img src=""stim_listA/argue2.gif""</stim_listA>",,html-keyboard-response,259,1458653,0.0-17.0-1.3,65282,List1A,black,woman,,,,null,,,,
null,are arguing with each other,,html-keyboard-response,260,1460655,0.0-17.0-2.3,65282,List1A,black,woman,,,,null,,,,
14896,,,survey-text,261,1475555,0.0-17.0-3.3,65282,List1A,black,woman,,,,,"{""Q0"":""kate and fred are arguing with each other""}","<img src=""stim_listA/argue2.gif""</stim_listA>",are arguing with each other,
null,"<div style=""font-size:60px;"">+</div>",,html-keyboard-response,262,1476063,0.0-17.0-0.4,65282,List1A,black,woman,,,,null,,,,
null,"<img src=""stim_listA/talk6.gif""</stim_listA>",,html-keyboard-response,263,1478067,0.0-17.0-1.4,65282,List1A,black,woman,,,,null,,,,
null,are talking to each other,,html-keyboard-response,264,1480077,0.0-17.0-2.4,65282,List1A,black,woman,,,,null,,,,
36123,,,survey-text,265,1516202,0.0-17.0-3.4,65282,List1A,black,woman,,,,,"{""Q0"":""mike and luke are talking to each other""}","<img src=""stim_listA/talk6.gif""</stim_listA>",are talking to each other,
null,"<div style=""font-size:60px;"">+</div>",,html-keyboard-response,266,1516705,0.0-17.0-0.5,65282,List1A,black,woman,,,,null,,,,
null,"<img src=""stim_listA/touch8.gif""</stim_listA>",,html-keyboard-response,267,1518711,0.0-17.0-1.5,65282,List1A,black,woman,,,,null,,,,
null,are touching each other,,html-keyboard-response,268,1520714,0.0-17.0-2.5,65282,List1A,black,woman,,,,null,,,,
14194,,,survey-text,269,1534910,0.0-17.0-3.5,65282,List1A,black,woman,,,,,"{""Q0"":""ruth and beth are touching each other""}","<img src=""stim_listA/touch8.gif""</stim_listA>",are touching each other,
null,"<div style=""font-size:60px;"">+</div>",,html-keyboard-response,270,1535425,0.0-17.0-0.6,65282,List1A,black,woman,,,,null,,,,
null,"<img src=""stim_listA/shout7.gif""</stim_listA>",,html-keyboard-response,271,1537441,0.0-17.0-1.6,65282,List1A,black,woman,,,,null,,,,
null,is shouting at,,html-keyboard-response,272,1539447,0.0-17.0-2.6,65282,List1A,black,woman,,,,null,,,,
12885,,,survey-text,273,1552334,0.0-17.0-3.6,65282,List1A,black,woman,,,,,"{""Q0"":""ruth is shouting at beth""}","<img src=""stim_listA/shout7.gif""</stim_listA>",is shouting at,
null,"<div style=""font-size:60px;"">+</div>",,html-keyboard-response,274,1552851,0.0-17.0-0.7,65282,List1A,black,woman,,,,null,,,,
null,"<img src=""stim_listA/shout8.gif""</stim_listA>",,html-keyboard-response,275,1554870,0.0-17.0-1.7,65282,List1A,black,woman,,,,null,,,,
null,are shouting at each other,,html-keyboard-response,276,1556884,0.0-17.0-2.7,65282,List1A,black,woman,,,,null,,,,
13959,,,survey-text,277,1570846,0.0-17.0-3.7,65282,List1A,black,woman,,,,,"{""Q0"":""jane and kate are shouting at each other""}","<img src=""stim_listA/shout8.gif""</stim_listA>",are shouting at each other,
null,"<div style=""font-size:60px;"">+</div>",,html-keyboard-response,278,1571365,0.0-17.0-0.8,65282,List1A,black,woman,,,,null,,,,
null,"<img src=""stim_listA/meet4.gif""</stim_listA>",,html-keyboard-response,279,1573374,0.0-17.0-1.8,65282,List1A,black,woman,,,,null,,,,
null,are meeting each other,,html-keyboard-response,280,1575391,0.0-17.0-2.8,65282,List1A,black,woman,,,,null,,,,
14115,,,survey-text,281,1589508,0.0-17.0-3.8,65282,List1A,black,woman,,,,,"{""Q0"":""ruth and luke are meeting each other""}","<img src=""stim_listA/meet4.gif""</stim_listA>",are meeting each other,
null,"<div style=""font-size:60px;"">+</div>",,html-keyboard-response,282,1590014,0.0-17.0-0.9,65282,List1A,black,woman,,,,null,,,,
null,"<img src=""stim_listA/touch6.gif""</stim_listA>",,html-keyboard-response,283,1592020,0.0-17.0-1.9,65282,List1A,black,woman,,,,null,,,,
null,are touching each other,,html-keyboard-response,284,1594025,0.0-17.0-2.9,65282,List1A,black,woman,,,,null,,,,
14981,,,survey-text,285,1609009,0.0-17.0-3.9,65282,List1A,black,woman,,,,,"{""Q0"":""fred and luke are touching each other""}","<img src=""stim_listA/touch6.gif""</stim_listA>",are touching each other,
null,"<div style=""font-size:60px;"">+</div>",,html-keyboard-response,286,1609515,0.0-17.0-0.10,65282,List1A,black,woman,,,,null,,,,
null,"<img src=""stim_listA/hug4.gif""</stim_listA>",,html-keyboard-response,287,1611530,0.0-17.0-1.10,65282,List1A,black,woman,,,,null,,,,
null,are hugging each other,,html-keyboard-response,288,1613534,0.0-17.0-2.10,65282,List1A,black,woman,,,,null,,,,
12586,,,survey-text,289,1626123,0.0-17.0-3.10,65282,List1A,black,woman,,,,,"{""Q0"":""jane and dave are hugging each other""}","<img src=""stim_listA/hug4.gif""</stim_listA>",are hugging each other,
null,"<div style=""font-size:60px;"">+</div>",,html-keyboard-response,290,1626625,0.0-17.0-0.11,65282,List1A,black,woman,,,,null,,,,
null,"<img src=""stim_listA/meet3.gif""</stim_listA>",,html-keyboard-response,291,1628636,0.0-17.0-1.11,65282,List1A,black,woman,,,,null,,,,
null,is meeting,,html-keyboard-response,292,1630640,0.0-17.0-2.11,65282,List1A,black,woman,,,,null,,,,
7804,,,survey-text,293,1638446,0.0-17.0-3.11,65282,List1A,black,woman,,,,,"{""Q0"":""jane is meeting dave""}","<img src=""stim_listA/meet3.gif""</stim_listA>",is meeting,
null,"<div style=""font-size:60px;"">+</div>",,html-keyboard-response,294,1638951,0.0-17.0-0.12,65282,List1A,black,woman,,,,null,,,,
null,"<img src=""stim_listA/touch4.gif""</stim_listA>",,html-keyboard-response,295,1640956,0.0-17.0-1.12,65282,List1A,black,woman,,,,null,,,,
null,are touching each other,,html-keyboard-response,296,1642960,0.0-17.0-2.12,65282,List1A,black,woman,,,,null,,,,
13428,,,survey-text,297,1656391,0.0-17.0-3.12,65282,List1A,black,woman,,,,,"{""Q0"":""luke and ruth are touching each other""}","<img src=""stim_listA/touch4.gif""</stim_listA>",are touching each other,
null,"<div style=""font-size:60px;"">+</div>",,html-keyboard-response,298,1656898,0.0-17.0-0.13,65282,List1A,black,woman,,,,null,,,,
null,"<img src=""stim_listA/touch7.gif""</stim_listA>",,html-keyboard-response,299,1658913,0.0-17.0-1.13,65282,List1A,black,woman,,,,null,,,,
null,is touching,,html-keyboard-response,300,1660915,0.0-17.0-2.13,65282,List1A,black,woman,,,,null,,,,
8604,,,survey-text,301,1669521,0.0-17.0-3.13,65282,List1A,black,woman,,,,,"{""Q0"":""jane is touching kate""}","<img src=""stim_listA/touch7.gif""</stim_listA>",is touching,
null,"<div style=""font-size:60px;"">+</div>",,html-keyboard-response,302,1670025,0.0-17.0-0.14,65282,List1A,black,woman,,,,null,,,,
null,"<img src=""stim_listA/shout3.gif""</stim_listA>",,html-keyboard-response,303,1672031,0.0-17.0-1.14,65282,List1A,black,woman,,,,null,,,,
null,is shouting at,,html-keyboard-response,304,1674048,0.0-17.0-2.14,65282,List1A,black,woman,,,,null,,,,
9604,,,survey-text,305,1683654,0.0-17.0-3.14,65282,List1A,black,woman,,,,,"{""Q0"":""luke is shouting at luke""}","<img src=""stim_listA/shout3.gif""</stim_listA>",is shouting at,
null,"<div style=""font-size:60px;"">+</div>",,html-keyboard-response,306,1684158,0.0-17.0-0.15,65282,List1A,black,woman,,,,null,,,,
null,"<img src=""stim_listA/marry2.gif""</stim_listA>",,html-keyboard-response,307,1686162,0.0-17.0-1.15,65282,List1A,black,woman,,,,null,,,,
null,are marrying each other,,html-keyboard-response,308,1688168,0.0-17.0-2.15,65282,List1A,black,woman,,,,null,,,,
17184,,,survey-text,309,1705354,0.0-17.0-3.15,65282,List1A,black,woman,,,,,"{""Q0"":""kate and fred are marrying each other""}","<img src=""stim_listA/marry2.gif""</stim_listA>",are marrying each other,
null,"<div style=""font-size:60px;"">+</div>",,html-keyboard-response,310,1705861,0.0-17.0-0.16,65282,List1A,black,woman,,,,null,,,,
null,"<img src=""stim_listA/touch3.gif""</stim_listA>",,html-keyboard-response,311,1707865,0.0-17.0-1.16,65282,List1A,black,woman,,,,null,,,,
null,is touching,,html-keyboard-response,312,1709867,0.0-17.0-2.16,65282,List1A,black,woman,,,,null,,,,
9306,,,survey-text,313,1719175,0.0-17.0-3.16,65282,List1A,black,woman,,,,,"{""Q0"":""jane is touching dave""}","<img src=""stim_listA/touch3.gif""</stim_listA>",is touching,
null,"<div style=""font-size:60px;"">+</div>",,html-keyboard-response,314,1719678,0.0-17.0-0.17,65282,List1A,black,woman,,,,null,,,,
null,"<img src=""stim_listA/shout2.gif""</stim_listA>",,html-keyboard-response,315,1721683,0.0-17.0-1.17,65282,List1A,black,woman,,,,null,,,,
null,are shouting at each other,,html-keyboard-response,316,1723687,0.0-17.0-2.17,65282,List1A,black,woman,,,,null,,,,
13284,,,survey-text,317,1736973,0.0-17.0-3.17,65282,List1A,black,woman,,,,,"{""Q0"":""kate and mike are shouting at each other""}","<img src=""stim_listA/shout2.gif""</stim_listA>",are shouting at each other,
null,"<div style=""font-size:60px;"">+</div>",,html-keyboard-response,318,1737481,0.0-17.0-0.18,65282,List1A,black,woman,,,,null,,,,
null,"<img src=""stim_listA/marry3.gif""</stim_listA>",,html-keyboard-response,319,1739485,0.0-17.0-1.18,65282,List1A,black,woman,,,,null,,,,
null,is marrying,,html-keyboard-response,320,1741489,0.0-17.0-2.18,65282,List1A,black,woman,,,,null,,,,
9209,,,survey-text,321,1750700,0.0-17.0-3.18,65282,List1A,black,woman,,,,,"{""Q0"":""ruth is marrying dave""}","<img src=""stim_listA/marry3.gif""</stim_listA>",is marrying,
null,"<div style=""font-size:60px;"">+</div>",,html-keyboard-response,322,1751207,0.0-17.0-0.19,65282,List1A,black,woman,,,,null,,,,
null,"<img src=""stim_listA/argue3.gif""</stim_listA>",,html-keyboard-response,323,1753222,0.0-17.0-1.19,65282,List1A,black,woman,,,,null,,,,
null,is arguing with,,html-keyboard-response,324,1755228,0.0-17.0-2.19,65282,List1A,black,woman,,,,null,,,,
9650,,,survey-text,325,1764880,0.0-17.0-3.19,65282,List1A,black,woman,,,,,"{""Q0"":""ruth is arguing with dave""}","<img src=""stim_listA/argue3.gif""</stim_listA>",is arguing with,
7761,"<img src='img/portrait_matrix_list1.JPG' style='width:900px;height:500px;''></img><p>If you have memorised all the portraits and names and are ready to start, press Continue.</p><p><strong>Please note: Your memory of these faces will be tested 4 times during this experiment.</strong></p>",0,html-button-response,326,1772645,0.0-18.0-0.0,65282,List1A,black,woman,,,,,,,,
2702,"<img src=""portrait/BW1.jpg""style=""width:400px;height:400px;""></img>",0,html-button-response,327,1776351,0.0-18.0-1.0,65282,List1A,black,woman,,TRUE,0,,,,,
null,CORRECT,,html-keyboard-response,328,1777856,0.0-18.0-2.0-0.0,65282,List1A,black,woman,,,,null,,,,
4475,"<img src=""portrait/BM2.jpg""style=""width:400px;height:400px;""></img>",5,html-button-response,329,1782335,0.0-18.0-4.0,65282,List1A,black,woman,,TRUE,5,,,,,
null,CORRECT,,html-keyboard-response,330,1783849,0.0-18.0-5.0-0.0,65282,List1A,black,woman,,,,null,,,,
2141,"<img src=""portrait/WW2.jpg""style=""width:400px;height:400px;""></img>",3,html-button-response,331,1785993,0.0-18.0-7.0,65282,List1A,black,woman,,TRUE,3,,,,,
null,CORRECT,,html-keyboard-response,332,1787505,0.0-18.0-8.0-0.0,65282,List1A,black,woman,,,,null,,,,
1888,"<img src=""portrait/BW2.jpg""style=""width:400px;height:400px;""></img>",2,html-button-response,333,1789398,0.0-18.0-10.0,65282,List1A,black,woman,,TRUE,2,,,,,
null,CORRECT,,html-keyboard-response,334,1790905,0.0-18.0-11.0-0.0,65282,List1A,black,woman,,,,null,,,,
2092,"<img src=""portrait/BM1.jpg""style=""width:400px;height:400px;""></img>",4,html-button-response,335,1793001,0.0-18.0-13.0,65282,List1A,black,woman,,TRUE,4,,,,,
null,CORRECT,,html-keyboard-response,336,1794506,0.0-18.0-14.0-0.0,65282,List1A,black,woman,,,,null,,,,
1755,"<img src=""portrait/WM1.jpg""style=""width:400px;height:400px;""></img>",6,html-button-response,337,1796265,0.0-18.0-16.0,65282,List1A,black,woman,,TRUE,6,,,,,
null,CORRECT,,html-keyboard-response,338,1797774,0.0-18.0-17.0-0.0,65282,List1A,black,woman,,,,null,,,,
3420,"<img src=""portrait/WW1.jpg""style=""width:400px;height:400px;""></img>",1,html-button-response,339,1801199,0.0-18.0-19.0,65282,List1A,black,woman,,TRUE,1,,,,,
null,CORRECT,,html-keyboard-response,340,1802720,0.0-18.0-20.0-0.0,65282,List1A,black,woman,,,,null,,,,
3677,"<img src=""portrait/WM2.jpg""style=""width:400px;height:400px;""></img>",7,html-button-response,341,1806401,0.0-18.0-22.0,65282,List1A,black,woman,,TRUE,7,,,,,
null,CORRECT,,html-keyboard-response,342,1807935,0.0-18.0-23.0-0.0,65282,List1A,black,woman,,,,null,,,,
1802,<p>You got 8 out of 8 right first time. Press Continue.</p>,0,html-button-response,343,1809741,0.0-18.0-25.0,65282,List1A,black,woman,,,,,,,,
null,"<div style=""font-size:60px;"">+</div>",,html-keyboard-response,344,1811270,0.0-19.0-0.0,65282,List1A,black,woman,,,,null,,,,
null,"<img src=""stim_listA/touch2.gif""</stim_listA>",,html-keyboard-response,345,1813293,0.0-19.0-1.0,65282,List1A,black,woman,,,,null,,,,
null,are touching each other,,html-keyboard-response,346,1815295,0.0-19.0-2.0,65282,List1A,black,woman,,,,null,,,,
13681,,,survey-text,347,1828979,0.0-19.0-3.0,65282,List1A,black,woman,,,,,"{""Q0"":""fred and beth are touching each other""}","<img src=""stim_listA/touch2.gif""</stim_listA>",are touching each other,
null,"<div style=""font-size:60px;"">+</div>",,html-keyboard-response,348,1829486,0.0-19.0-0.1,65282,List1A,black,woman,,,,null,,,,
null,"<img src=""stim_listA/dance3.gif""</stim_listA>",,html-keyboard-response,349,1831494,0.0-19.0-1.1,65282,List1A,black,woman,,,,null,,,,
null,is dancing with,,html-keyboard-response,350,1833497,0.0-19.0-2.1,65282,List1A,black,woman,,,,null,,,,
10448,,,survey-text,351,1843948,0.0-19.0-3.1,65282,List1A,black,woman,,,,,"{""Q0"":""jane is dancing with luke""}","<img src=""stim_listA/dance3.gif""</stim_listA>",is dancing with,
null,"<div style=""font-size:60px;"">+</div>",,html-keyboard-response,352,1844456,0.0-19.0-0.2,65282,List1A,black,woman,,,,null,,,,
null,"<img src=""stim_listA/fight8.gif""</stim_listA>",,html-keyboard-response,353,1846461,0.0-19.0-1.2,65282,List1A,black,woman,,,,null,,,,
null,are fighting each other,,html-keyboard-response,354,1848466,0.0-19.0-2.2,65282,List1A,black,woman,,,,null,,,,
15663,,,survey-text,355,1864133,0.0-19.0-3.2,65282,List1A,black,woman,,,,,"{""Q0"":""ruth and beth are fighting each other""}","<img src=""stim_listA/fight8.gif""</stim_listA>",are fighting each other,
null,"<div style=""font-size:60px;"">+</div>",,html-keyboard-response,356,1864651,0.0-19.0-0.3,65282,List1A,black,woman,,,,null,,,,
null,"<img src=""stim_listA/hug6.gif""</stim_listA>",,html-keyboard-response,357,1866657,0.0-19.0-1.3,65282,List1A,black,woman,,,,null,,,,
null,are hugging each other,,html-keyboard-response,358,1868661,0.0-19.0-2.3,65282,List1A,black,woman,,,,null,,,,
15147,,,survey-text,359,1883811,0.0-19.0-3.3,65282,List1A,black,woman,,,,,"{""Q0"":""mike and dave are hugging each other""}","<img src=""stim_listA/hug6.gif""</stim_listA>",are hugging each other,
null,"<div style=""font-size:60px;"">+</div>",,html-keyboard-response,360,1884328,0.0-19.0-0.4,65282,List1A,black,woman,,,,null,,,,
null,"<img src=""stim_listA/talk3.gif""</stim_listA>",,html-keyboard-response,361,1886333,0.0-19.0-1.4,65282,List1A,black,woman,,,,null,,,,
null,is talking to,,html-keyboard-response,362,1888343,0.0-19.0-2.4,65282,List1A,black,woman,,,,null,,,,
8816,,,survey-text,363,1897163,0.0-19.0-3.4,65282,List1A,black,woman,,,,,"{""Q0"":""jane is talking to luke""}","<img src=""stim_listA/talk3.gif""</stim_listA>",is talking to,
null,"<div style=""font-size:60px;"">+</div>",,html-keyboard-response,364,1897669,0.0-19.0-0.5,65282,List1A,black,woman,,,,null,,,,
null,"<img src=""stim_listA/shout1.gif""</stim_listA>",,html-keyboard-response,365,1899676,0.0-19.0-1.5,65282,List1A,black,woman,,,,null,,,,
null,is shouting at,,html-keyboard-response,366,1901681,0.0-19.0-2.5,65282,List1A,black,woman,,,,null,,,,
10187,,,survey-text,367,1911870,0.0-19.0-3.5,65282,List1A,black,woman,,,,,"{""Q0"":""fred is shouting at beth""}","<img src=""stim_listA/shout1.gif""</stim_listA>",is shouting at,
null,"<div style=""font-size:60px;"">+</div>",,html-keyboard-response,368,1912374,0.0-19.0-0.6,65282,List1A,black,woman,,,,null,,,,
null,"<img src=""stim_listA/fight1.gif""</stim_listA>",,html-keyboard-response,369,1914379,0.0-19.0-1.6,65282,List1A,black,woman,,,,null,,,,
null,is fighting,,html-keyboard-response,370,1916381,0.0-19.0-2.6,65282,List1A,black,woman,,,,null,,,,
8815,,,survey-text,371,1925198,0.0-19.0-3.6,65282,List1A,black,woman,,,,,"{""Q0"":""mike is fighting kate""}","<img src=""stim_listA/fight1.gif""</stim_listA>",is fighting,
null,"<div style=""font-size:60px;"">+</div>",,html-keyboard-response,372,1925704,0.0-19.0-0.7,65282,List1A,black,woman,,,,null,,,,
null,"<img src=""stim_listA/dance7.gif""</stim_listA>",,html-keyboard-response,373,1927709,0.0-19.0-1.7,65282,List1A,black,woman,,,,null,,,,
null,is dancing with,,html-keyboard-response,374,1929711,0.0-19.0-2.7,65282,List1A,black,woman,,,,null,,,,
15920,,,survey-text,375,1945634,0.0-19.0-3.7,65282,List1A,black,woman,,,,,"{""Q0"":""jane is fighting with beth""}","<img src=""stim_listA/dance7.gif""</stim_listA>",is dancing with,
null,"<div style=""font-size:60px;"">+</div>",,html-keyboard-response,376,1946139,0.0-19.0-0.8,65282,List1A,black,woman,,,,null,,,,
null,"<img src=""stim_listA/kiss2.gif""</stim_listA>",,html-keyboard-response,377,1948153,0.0-19.0-1.8,65282,List1A,black,woman,,,,null,,,,
null,are kissing each other,,html-keyboard-response,378,1950157,0.0-19.0-2.8,65282,List1A,black,woman,,,,null,,,,
17197,,,survey-text,379,1967355,0.0-19.0-3.8,65282,List1A,black,woman,,,,,"{""Q0"":""kate and mike are kissing each other""}","<img src=""stim_listA/kiss2.gif""</stim_listA>",are kissing each other,
null,"<div style=""font-size:60px;"">+</div>",,html-keyboard-response,380,1967871,0.0-19.0-0.9,65282,List1A,black,woman,,,,null,,,,
null,"<img src=""stim_listA/hug7.gif""</stim_listA>",,html-keyboard-response,381,1969882,0.0-19.0-1.9,65282,List1A,black,woman,,,,null,,,,
null,is hugging,,html-keyboard-response,382,1971887,0.0-19.0-2.9,65282,List1A,black,woman,,,,null,,,,
8504,,,survey-text,383,1980393,0.0-19.0-3.9,65282,List1A,black,woman,,,,,"{""Q0"":""beth is hugging ruth""}","<img src=""stim_listA/hug7.gif""</stim_listA>",is hugging,
null,"<div style=""font-size:60px;"">+</div>",,html-keyboard-response,384,1980898,0.0-19.0-0.10,65282,List1A,black,woman,,,,null,,,,
null,"<img src=""stim_listA/talk2.gif""</stim_listA>",,html-keyboard-response,385,1982903,0.0-19.0-1.10,65282,List1A,black,woman,,,,null,,,,
null,are talking to each other,,html-keyboard-response,386,1984906,0.0-19.0-2.10,65282,List1A,black,woman,,,,null,,,,
15970,,,survey-text,387,2000882,0.0-19.0-3.10,65282,List1A,black,woman,,,,,"{""Q0"":""betha nd mike are talking to each other""}","<img src=""stim_listA/talk2.gif""</stim_listA>",are talking to each other,
null,"<div style=""font-size:60px;"">+</div>",,html-keyboard-response,388,2001396,0.0-19.0-0.11,65282,List1A,black,woman,,,,null,,,,
null,"<img src=""stim_listA/talk8.gif""</stim_listA>",,html-keyboard-response,389,2003403,0.0-19.0-1.11,65282,List1A,black,woman,,,,null,,,,
null,are talking to each other,,html-keyboard-response,390,2005406,0.0-19.0-2.11,65282,List1A,black,woman,,,,null,,,,
13100,,,survey-text,391,2018508,0.0-19.0-3.11,65282,List1A,black,woman,,,,,"{""Q0"":""ruth and kate are talking to each other""}","<img src=""stim_listA/talk8.gif""</stim_listA>",are talking to each other,
null,"<div style=""font-size:60px;"">+</div>",,html-keyboard-response,392,2019020,0.0-19.0-0.12,65282,List1A,black,woman,,,,null,,,,
null,"<img src=""stim_listA/dance6.gif""</stim_listA>",,html-keyboard-response,393,2021026,0.0-19.0-1.12,65282,List1A,black,woman,,,,null,,,,
null,are dancing with each other,,html-keyboard-response,394,2023030,0.0-19.0-2.12,65282,List1A,black,woman,,,,null,,,,
17045,,,survey-text,395,2040078,0.0-19.0-3.12,65282,List1A,black,woman,,,,,"{""Q0"":""luke and mike are dancing with each other""}","<img src=""stim_listA/dance6.gif""</stim_listA>",are dancing with each other,
null,"<div style=""font-size:60px;"">+</div>",,html-keyboard-response,396,2040584,0.0-19.0-0.13,65282,List1A,black,woman,,,,null,,,,
null,"<img src=""stim_listA/marry7.gif""</stim_listA>",,html-keyboard-response,397,2042593,0.0-19.0-1.13,65282,List1A,black,woman,,,,null,,,,
null,is marrying,,html-keyboard-response,398,2044598,0.0-19.0-2.13,65282,List1A,black,woman,,,,null,,,,
7912,,,survey-text,399,2052514,0.0-19.0-3.13,65282,List1A,black,woman,,,,,"{""Q0"":""kate is marrying ruth""}","<img src=""stim_listA/marry7.gif""</stim_listA>",is marrying,
null,"<div style=""font-size:60px;"">+</div>",,html-keyboard-response,400,2053020,0.0-19.0-0.14,65282,List1A,black,woman,,,,null,,,,
null,"<img src=""stim_listA/marry6.gif""</stim_listA>",,html-keyboard-response,401,2055023,0.0-19.0-1.14,65282,List1A,black,woman,,,,null,,,,
null,are marrying each other,,html-keyboard-response,402,2057032,0.0-19.0-2.14,65282,List1A,black,woman,,,,null,,,,
14439,,,survey-text,403,2071474,0.0-19.0-3.14,65282,List1A,black,woman,,,,,"{""Q0"":""dave and fred are marrying each other""}","<img src=""stim_listA/marry6.gif""</stim_listA>",are marrying each other,
null,"<div style=""font-size:60px;"">+</div>",,html-keyboard-response,404,2071989,0.0-19.0-0.15,65282,List1A,black,woman,,,,null,,,,
null,"<img src=""stim_listA/kiss1.gif""</stim_listA>",,html-keyboard-response,405,2073996,0.0-19.0-1.15,65282,List1A,black,woman,,,,null,,,,
null,is kissing,,html-keyboard-response,406,2076001,0.0-19.0-2.15,65282,List1A,black,woman,,,,null,,,,
10613,,,survey-text,407,2086617,0.0-19.0-3.15,65282,List1A,black,woman,,,,,"{""Q0"":""fred is kissing beth""}","<img src=""stim_listA/kiss1.gif""</stim_listA>",is kissing,
null,"<div style=""font-size:60px;"">+</div>",,html-keyboard-response,408,2087135,0.0-19.0-0.16,65282,List1A,black,woman,,,,null,,,,
null,"<img src=""stim_listA/dance8.gif""</stim_listA>",,html-keyboard-response,409,2089140,0.0-19.0-1.16,65282,List1A,black,woman,,,,null,,,,
null,are dancing with each other,,html-keyboard-response,410,2091144,0.0-19.0-2.16,65282,List1A,black,woman,,,,null,,,,
14879,,,survey-text,411,2106025,0.0-19.0-3.16,65282,List1A,black,woman,,,,,"{""Q0"":""ruth and kate are dancing with each other""}","<img src=""stim_listA/dance8.gif""</stim_listA>",are dancing with each other,
null,"<div style=""font-size:60px;"">+</div>",,html-keyboard-response,412,2106528,0.0-19.0-0.17,65282,List1A,black,woman,,,,null,,,,
null,"<img src=""stim_listA/meet5.gif""</stim_listA>",,html-keyboard-response,413,2108538,0.0-19.0-1.17,65282,List1A,black,woman,,,,null,,,,
null,is meeting,,html-keyboard-response,414,2110541,0.0-19.0-2.17,65282,List1A,black,woman,,,,null,,,,
7920,,,survey-text,415,2118463,0.0-19.0-3.17,65282,List1A,black,woman,,,,,"{""Q0"":""mike is meeting dave""}","<img src=""stim_listA/meet5.gif""</stim_listA>",is meeting,
null,"<div style=""font-size:60px;"">+</div>",,html-keyboard-response,416,2118968,0.0-19.0-0.18,65282,List1A,black,woman,,,,null,,,,
null,"<img src=""stim_listA/kiss4.gif""</stim_listA>",,html-keyboard-response,417,2120973,0.0-19.0-1.18,65282,List1A,black,woman,,,,null,,,,
null,are kissing each other,,html-keyboard-response,418,2122978,0.0-19.0-2.18,65282,List1A,black,woman,,,,null,,,,
12082,,,survey-text,419,2135062,0.0-19.0-3.18,65282,List1A,black,woman,,,,,"{""Q0"":""jane and dave are kissing each other""}","<img src=""stim_listA/kiss4.gif""</stim_listA>",are kissing each other,
null,"<div style=""font-size:60px;"">+</div>",,html-keyboard-response,420,2135567,0.0-19.0-0.19,65282,List1A,black,woman,,,,null,,,,
null,"<img src=""stim_listA/shout5.gif""</stim_listA>",,html-keyboard-response,421,2137574,0.0-19.0-1.19,65282,List1A,black,woman,,,,null,,,,
null,is shouting at,,html-keyboard-response,422,2139580,0.0-19.0-2.19,65282,List1A,black,woman,,,,null,,,,
10674,,,survey-text,423,2150256,0.0-19.0-3.19,65282,List1A,black,woman,,,,,"{""Q0"":""fred is shouting at luke""}","<img src=""stim_listA/shout5.gif""</stim_listA>",is shouting at,
42039,<p>Thank you for completing that task.</p><p>The final part of this session is a short questionnaire.</p><p>Press Continue.</p>,0,html-button-response,424,2192298,0.0-20.0,65282,List1A,black,woman,,,,,,,,
36715,,,survey-text,425,2230021,0.0-21.0,65282,List1A,black,woman,,,,,"{""Q0"":""33"",""Q1"":""English"",""Q2"":""English"",""Q3"":""United Kingdom"",""Q4"":""African"",""Q5"":""Female""}",,,demographics
130414,,,survey-likert,426,2360461,0.0-22.0,65282,List1A,black,woman,,,,,"{""Q0"":6,""Q1"":6,""Q2"":6,""Q3"":6,""Q4"":6,""Q5"":6,""Q6"":5,""Q7"":5,""Q8"":6,""Q9"":6,""Q10"":4,""Q11"":4,""Q12"":4,""Q13"":4}",,,likert_race
40904,,,survey-likert,427,2401438,0.0-23.0,65282,List1A,black,woman,,,,,"{""Q0"":6,""Q1"":6,""Q2"":6,""Q3"":6,""Q4"":6,""Q5"":6,""Q6"":6,""Q7"":6,""Q8"":6,""Q9"":6,""Q10"":5,""Q11"":5,""Q12"":5,""Q13"":5}",,,likert_gender
25417,,,survey-text,428,2426904,0.0-24.0,65282,List1A,black,woman,,,,,"{""Q0"":""ccc""}",,,worker_id
27162,,,external-html,429,2454219,0.0-25.0,65282,List1A,black,woman,debrief.html,,,,,,,
