rt,stimulus,button_pressed,trial_type,trial_index,time_elapsed,internal_node_id,subject,list,ppt_race,ppt_gender,url,first_guess,correct,key_press,responses,image_type,phrase_type,test_part
2487,Welcome to the experiment. Press Continue to begin.,0,html-button-response,0,2496,0.0-0.0,65950,List2A,white,woman,,,,,,,,
39599,,,external-html,1,43493,0.0-1.0,65950,List2A,white,woman,consent.html,,,,,,,
8020,"<p>On the next page, you will see portraits of 8 people and their names.</p><p>Your first task is to take a few minutes to memorise the names of these people.</p><p>You will have to recall their names during the rest of the experiment, so it is</p><p>essential that you try to memorise these people and their names as best as you can.</p><br><p><strong>You will then be tested on your memory of these names and portraits.</strong></p><br><p>The experiment will start after you have completed this memory test.</p><br><p>Ready?</p>",0,html-button-response,2,51517,0.0-2.0,65950,List2A,white,woman,,,,,,,,
35067,"<img src='img/portrait_matrix_list2.JPG' style='width:900px;height:500px;''></img><p>If you have memorised all the portraits and names and are ready to start, press Continue.</p><p><strong>Please note: Your memory of these faces will be tested 4 times during this experiment.</strong></p>",0,html-button-response,3,87588,0.0-3.0-0.0,65950,List2A,white,woman,,,,,,,,
6218,"<img src=""portrait/WM1.jpg""style=""width:400px;height:400px;""></img>",6,html-button-response,4,94811,0.0-3.0-1.0,65950,List2A,white,woman,,TRUE,6,,,,,
null,CORRECT,,html-keyboard-response,5,96320,0.0-3.0-2.0-0.0,65950,List2A,white,woman,,,,null,,,,
4651,"<img src=""portrait/WW1.jpg""style=""width:400px;height:400px;""></img>",1,html-button-response,6,100974,0.0-3.0-4.0,65950,List2A,white,woman,,TRUE,1,,,,,
null,CORRECT,,html-keyboard-response,7,102480,0.0-3.0-5.0-0.0,65950,List2A,white,woman,,,,null,,,,
5893,"<img src=""portrait/BM2.jpg""style=""width:400px;height:400px;""></img>",5,html-button-response,8,108376,0.0-3.0-7.0,65950,List2A,white,woman,,TRUE,5,,,,,
null,CORRECT,,html-keyboard-response,9,109883,0.0-3.0-8.0-0.0,65950,List2A,white,woman,,,,null,,,,
4220,"<img src=""portrait/BW1.jpg""style=""width:400px;height:400px;""></img>",0,html-button-response,10,114105,0.0-3.0-10.0,65950,List2A,white,woman,,TRUE,0,,,,,
null,CORRECT,,html-keyboard-response,11,115612,0.0-3.0-11.0-0.0,65950,List2A,white,woman,,,,null,,,,
4195,"<img src=""portrait/WM2.jpg""style=""width:400px;height:400px;""></img>",7,html-button-response,12,119808,0.0-3.0-13.0,65950,List2A,white,woman,,TRUE,7,,,,,
null,CORRECT,,html-keyboard-response,13,121316,0.0-3.0-14.0-0.0,65950,List2A,white,woman,,,,null,,,,
4388,"<img src=""portrait/WW2.jpg""style=""width:400px;height:400px;""></img>",3,html-button-response,14,125706,0.0-3.0-16.0,65950,List2A,white,woman,,TRUE,3,,,,,
null,CORRECT,,html-keyboard-response,15,127212,0.0-3.0-17.0-0.0,65950,List2A,white,woman,,,,null,,,,
5673,"<img src=""portrait/BM1.jpg""style=""width:400px;height:400px;""></img>",4,html-button-response,16,132889,0.0-3.0-19.0,65950,List2A,white,woman,,TRUE,4,,,,,
null,CORRECT,,html-keyboard-response,17,134394,0.0-3.0-20.0-0.0,65950,List2A,white,woman,,,,null,,,,
4213,"<img src=""portrait/BW2.jpg""style=""width:400px;height:400px;""></img>",2,html-button-response,18,138609,0.0-3.0-22.0,65950,List2A,white,woman,,TRUE,2,,,,,
null,CORRECT,,html-keyboard-response,19,140115,0.0-3.0-23.0-0.0,65950,List2A,white,woman,,,,null,,,,
2066,<p>You got 8 out of 8 right first time. Press Continue.</p>,0,html-button-response,20,142184,0.0-3.0-25.0,65950,List2A,white,woman,,,,,,,,
8810,"<p>In this experiment, you will view photographs of the people from the memory game interacting.</p><p>By using the <strong>exact</strong> phrase given <i>after</i> the photograph appears and recalling the correct names of the people in the photographs, form a sentence describing the interaction. You do not need to capitalise names.</p><p>Type your answer in the space provided. Please complete every sentence before moving onto the next trial.</p><p>You will only have a few seconds to memorise each given photograph and phrase before you can respond, so try your best to focus.</p><p>An example is given below. Press 'Continue' when you are ready.</p><img src='img/speaking_example_v2.jpg' style='width:800px;height:460px;''></img>",0,html-button-response,21,152000,0.0-4.0,65950,List2A,white,woman,,,,,,,,
3376,"<p>Before the experiment starts, you will watch two example trials. Press 'Continue'.</p>",0,html-button-response,22,156379,0.0-5.0,65950,List2A,white,woman,,,,,,,,
null,<img src='img/speaking_WW.gif'></img>,,html-keyboard-response,23,159389,0.0-6.0,65950,List2A,white,woman,,,,null,,,,
null,<p>is speaking to</p>,,html-keyboard-response,24,161393,0.0-7.0,65950,List2A,white,woman,,,,null,,,,
3589,<p><b>Answer:</b> jane is speaking to ruth</p>,0,html-button-response,25,164984,0.0-8.0,65950,List2A,white,woman,,,,,,,,
null,<img src='img/pointing_BM.gif'></img>,,html-keyboard-response,26,167991,0.0-9.0,65950,List2A,white,woman,,,,null,,,,
null,<p>are pointing at each other</p>,,html-keyboard-response,27,169994,0.0-10.0,65950,List2A,white,woman,,,,null,,,,
10281,<p><b>Answer:</b> fred and mike are pointing at each other</p>,0,html-button-response,28,180277,0.0-11.0,65950,List2A,white,woman,,,,,,,,
10623,"<p>Ready to start the experiment?</p><br><p><strong>Remember to describe the picture using a full sentence,</strong></p><p><strong>that combines the names of the people with the given phrase.</strong></p><p><strong>If you do not do this correctly you will not be paid.</strong></p><p><strong> You do not need to capitalise names or use punctuation.</strong></p><br><p>Press 'Continue' to begin.</p>",0,html-button-response,29,191903,0.0-12.0,65950,List2A,white,woman,,,,,,,,
null,"<div style=""font-size:60px;"">+</div>",,html-keyboard-response,30,193411,0.0-13.0-0.0,65950,List2A,white,woman,,,,null,,,,
null,"<img src=""stim_listA/hug1.gif""</stim_listA>",,html-keyboard-response,31,195418,0.0-13.0-1.0,65950,List2A,white,woman,,,,null,,,,
null,is hugging,,html-keyboard-response,32,197423,0.0-13.0-2.0,65950,List2A,white,woman,,,,null,,,,
16134,,,survey-text,33,213559,0.0-13.0-3.0,65950,List2A,white,woman,,,,,"{""Q0"":""Luke and Ruth are hugging each other""}","<img src=""stim_listA/hug1.gif""</stim_listA>",is hugging,
null,"<div style=""font-size:60px;"">+</div>",,html-keyboard-response,34,214064,0.0-13.0-0.1,65950,List2A,white,woman,,,,null,,,,
null,"<img src=""stim_listA/dance1.gif""</stim_listA>",,html-keyboard-response,35,216070,0.0-13.0-1.1,65950,List2A,white,woman,,,,null,,,,
null,is dancing with,,html-keyboard-response,36,218073,0.0-13.0-2.1,65950,List2A,white,woman,,,,null,,,,
15347,,,survey-text,37,233422,0.0-13.0-3.1,65950,List2A,white,woman,,,,,"{""Q0"":""Luke is dancing with Jane""}","<img src=""stim_listA/dance1.gif""</stim_listA>",is dancing with,
null,"<div style=""font-size:60px;"">+</div>",,html-keyboard-response,38,233925,0.0-13.0-0.2,65950,List2A,white,woman,,,,null,,,,
null,"<img src=""stim_listA/fight4.gif""</stim_listA>",,html-keyboard-response,39,235929,0.0-13.0-1.2,65950,List2A,white,woman,,,,null,,,,
null,are fighting each other,,html-keyboard-response,40,237937,0.0-13.0-2.2,65950,List2A,white,woman,,,,null,,,,
23964,,,survey-text,41,261904,0.0-13.0-3.2,65950,List2A,white,woman,,,,,"{""Q0"":""beth is fighting with luke""}","<img src=""stim_listA/fight4.gif""</stim_listA>",are fighting each other,
null,"<div style=""font-size:60px;"">+</div>",,html-keyboard-response,42,262406,0.0-13.0-0.3,65950,List2A,white,woman,,,,null,,,,
null,"<img src=""stim_listA/argue7.gif""</stim_listA>",,html-keyboard-response,43,264412,0.0-13.0-1.3,65950,List2A,white,woman,,,,null,,,,
null,is arguing with,,html-keyboard-response,44,266416,0.0-13.0-2.3,65950,List2A,white,woman,,,,null,,,,
15381,,,survey-text,45,281800,0.0-13.0-3.3,65950,List2A,white,woman,,,,,"{""Q0"":""Beth is taking with jane""}","<img src=""stim_listA/argue7.gif""</stim_listA>",is arguing with,
null,"<div style=""font-size:60px;"">+</div>",,html-keyboard-response,46,282303,0.0-13.0-0.4,65950,List2A,white,woman,,,,null,,,,
null,"<img src=""stim_listA/fight3.gif""</stim_listA>",,html-keyboard-response,47,284308,0.0-13.0-1.4,65950,List2A,white,woman,,,,null,,,,
null,is fighting,,html-keyboard-response,48,286313,0.0-13.0-2.4,65950,List2A,white,woman,,,,null,,,,
12553,,,survey-text,49,298869,0.0-13.0-3.4,65950,List2A,white,woman,,,,,"{""Q0"":""kate is fighting with mike""}","<img src=""stim_listA/fight3.gif""</stim_listA>",is fighting,
null,"<div style=""font-size:60px;"">+</div>",,html-keyboard-response,50,299373,0.0-13.0-0.5,65950,List2A,white,woman,,,,null,,,,
null,"<img src=""stim_listA/kiss7.gif""</stim_listA>",,html-keyboard-response,51,301378,0.0-13.0-1.5,65950,List2A,white,woman,,,,null,,,,
null,is kissing,,html-keyboard-response,52,303384,0.0-13.0-2.5,65950,List2A,white,woman,,,,null,,,,
16600,,,survey-text,53,319986,0.0-13.0-3.5,65950,List2A,white,woman,,,,,"{""Q0"":""beth is kissing jane""}","<img src=""stim_listA/kiss7.gif""</stim_listA>",is kissing,
null,"<div style=""font-size:60px;"">+</div>",,html-keyboard-response,54,320491,0.0-13.0-0.6,65950,List2A,white,woman,,,,null,,,,
null,"<img src=""stim_listA/touch8.gif""</stim_listA>",,html-keyboard-response,55,322495,0.0-13.0-1.6,65950,List2A,white,woman,,,,null,,,,
null,are touching each other,,html-keyboard-response,56,324500,0.0-13.0-2.6,65950,List2A,white,woman,,,,null,,,,
23533,,,survey-text,57,348035,0.0-13.0-3.6,65950,List2A,white,woman,,,,,"{""Q0"":""beth is highfiving ruth""}","<img src=""stim_listA/touch8.gif""</stim_listA>",are touching each other,
null,"<div style=""font-size:60px;"">+</div>",,html-keyboard-response,58,348539,0.0-13.0-0.7,65950,List2A,white,woman,,,,null,,,,
null,"<img src=""stim_listA/touch4.gif""</stim_listA>",,html-keyboard-response,59,350542,0.0-13.0-1.7,65950,List2A,white,woman,,,,null,,,,
null,are touching each other,,html-keyboard-response,60,352546,0.0-13.0-2.7,65950,List2A,white,woman,,,,null,,,,
16804,,,survey-text,61,369352,0.0-13.0-3.7,65950,List2A,white,woman,,,,,"{""Q0"":""ruth and fred are touching eachother""}","<img src=""stim_listA/touch4.gif""</stim_listA>",are touching each other,
null,"<div style=""font-size:60px;"">+</div>",,html-keyboard-response,62,369856,0.0-13.0-0.8,65950,List2A,white,woman,,,,null,,,,
null,"<img src=""stim_listA/talk1.gif""</stim_listA>",,html-keyboard-response,63,371859,0.0-13.0-1.8,65950,List2A,white,woman,,,,null,,,,
null,is talking to,,html-keyboard-response,64,373862,0.0-13.0-2.8,65950,List2A,white,woman,,,,null,,,,
13344,,,survey-text,65,387208,0.0-13.0-3.8,65950,List2A,white,woman,,,,,"{""Q0"":""Luke and jane are talking to each other""}","<img src=""stim_listA/talk1.gif""</stim_listA>",is talking to,
null,"<div style=""font-size:60px;"">+</div>",,html-keyboard-response,66,387714,0.0-13.0-0.9,65950,List2A,white,woman,,,,null,,,,
null,"<img src=""stim_listA/argue1.gif""</stim_listA>",,html-keyboard-response,67,389718,0.0-13.0-1.9,65950,List2A,white,woman,,,,null,,,,
null,is arguing with,,html-keyboard-response,68,391722,0.0-13.0-2.9,65950,List2A,white,woman,,,,null,,,,
10545,,,survey-text,69,402268,0.0-13.0-3.9,65950,List2A,white,woman,,,,,"{""Q0"":""Dave is arguing with ruth""}","<img src=""stim_listA/argue1.gif""</stim_listA>",is arguing with,
null,"<div style=""font-size:60px;"">+</div>",,html-keyboard-response,70,402774,0.0-13.0-0.10,65950,List2A,white,woman,,,,null,,,,
null,"<img src=""stim_listA/marry2.gif""</stim_listA>",,html-keyboard-response,71,404778,0.0-13.0-1.10,65950,List2A,white,woman,,,,null,,,,
null,are marrying each other,,html-keyboard-response,72,406783,0.0-13.0-2.10,65950,List2A,white,woman,,,,null,,,,
14905,,,survey-text,73,421691,0.0-13.0-3.10,65950,List2A,white,woman,,,,,"{""Q0"":""luke and jane are marrying each other""}","<img src=""stim_listA/marry2.gif""</stim_listA>",are marrying each other,
null,"<div style=""font-size:60px;"">+</div>",,html-keyboard-response,74,422195,0.0-13.0-0.11,65950,List2A,white,woman,,,,null,,,,
null,"<img src=""stim_listA/touch5.gif""</stim_listA>",,html-keyboard-response,75,424201,0.0-13.0-1.11,65950,List2A,white,woman,,,,null,,,,
null,is touching,,html-keyboard-response,76,426204,0.0-13.0-2.11,65950,List2A,white,woman,,,,null,,,,
19984,,,survey-text,77,446190,0.0-13.0-3.11,65950,List2A,white,woman,,,,,"{""Q0"":""mike and dave are high fiving each other""}","<img src=""stim_listA/touch5.gif""</stim_listA>",is touching,
null,"<div style=""font-size:60px;"">+</div>",,html-keyboard-response,78,446695,0.0-13.0-0.12,65950,List2A,white,woman,,,,null,,,,
null,"<img src=""stim_listA/touch2.gif""</stim_listA>",,html-keyboard-response,79,448701,0.0-13.0-1.12,65950,List2A,white,woman,,,,null,,,,
null,are touching each other,,html-keyboard-response,80,450708,0.0-13.0-2.12,65950,List2A,white,woman,,,,null,,,,
13007,,,survey-text,81,463717,0.0-13.0-3.12,65950,List2A,white,woman,,,,,"{""Q0"":""luke and jane are touching each other""}","<img src=""stim_listA/touch2.gif""</stim_listA>",are touching each other,
null,"<div style=""font-size:60px;"">+</div>",,html-keyboard-response,82,464221,0.0-13.0-0.13,65950,List2A,white,woman,,,,null,,,,
null,"<img src=""stim_listA/argue2.gif""</stim_listA>",,html-keyboard-response,83,466226,0.0-13.0-1.13,65950,List2A,white,woman,,,,null,,,,
null,are arguing with each other,,html-keyboard-response,84,468229,0.0-13.0-2.13,65950,List2A,white,woman,,,,null,,,,
14775,,,survey-text,85,483006,0.0-13.0-3.13,65950,List2A,white,woman,,,,,"{""Q0"":""ruth and luke are arguing with each other""}","<img src=""stim_listA/argue2.gif""</stim_listA>",are arguing with each other,
null,"<div style=""font-size:60px;"">+</div>",,html-keyboard-response,86,483508,0.0-13.0-0.14,65950,List2A,white,woman,,,,null,,,,
null,"<img src=""stim_listA/meet3.gif""</stim_listA>",,html-keyboard-response,87,485514,0.0-13.0-1.14,65950,List2A,white,woman,,,,null,,,,
null,is meeting,,html-keyboard-response,88,487516,0.0-13.0-2.14,65950,List2A,white,woman,,,,null,,,,
11531,,,survey-text,89,499049,0.0-13.0-3.14,65950,List2A,white,woman,,,,,"{""Q0"":""kate is meeting mike""}","<img src=""stim_listA/meet3.gif""</stim_listA>",is meeting,
null,"<div style=""font-size:60px;"">+</div>",,html-keyboard-response,90,499552,0.0-13.0-0.15,65950,List2A,white,woman,,,,null,,,,
null,"<img src=""stim_listA/talk4.gif""</stim_listA>",,html-keyboard-response,91,501557,0.0-13.0-1.15,65950,List2A,white,woman,,,,null,,,,
null,are talking to each other,,html-keyboard-response,92,503562,0.0-13.0-2.15,65950,List2A,white,woman,,,,null,,,,
9122,,,survey-text,93,512686,0.0-13.0-3.15,65950,List2A,white,woman,,,,,"{""Q0"":""mike and beth are talking""}","<img src=""stim_listA/talk4.gif""</stim_listA>",are talking to each other,
null,"<div style=""font-size:60px;"">+</div>",,html-keyboard-response,94,513189,0.0-13.0-0.16,65950,List2A,white,woman,,,,null,,,,
null,"<img src=""stim_listA/fight7.gif""</stim_listA>",,html-keyboard-response,95,515194,0.0-13.0-1.16,65950,List2A,white,woman,,,,null,,,,
null,is fighting,,html-keyboard-response,96,517197,0.0-13.0-2.16,65950,List2A,white,woman,,,,null,,,,
7344,,,survey-text,97,524543,0.0-13.0-3.16,65950,List2A,white,woman,,,,,"{""Q0"":""ruth is fighting kate""}","<img src=""stim_listA/fight7.gif""</stim_listA>",is fighting,
null,"<div style=""font-size:60px;"">+</div>",,html-keyboard-response,98,525047,0.0-13.0-0.17,65950,List2A,white,woman,,,,null,,,,
null,"<img src=""stim_listA/talk5.gif""</stim_listA>",,html-keyboard-response,99,527053,0.0-13.0-1.17,65950,List2A,white,woman,,,,null,,,,
null,is talking to,,html-keyboard-response,100,529057,0.0-13.0-2.17,65950,List2A,white,woman,,,,null,,,,
6968,,,survey-text,101,536027,0.0-13.0-3.17,65950,List2A,white,woman,,,,,"{""Q0"":""luke is talking to mike""}","<img src=""stim_listA/talk5.gif""</stim_listA>",is talking to,
null,"<div style=""font-size:60px;"">+</div>",,html-keyboard-response,102,536529,0.0-13.0-0.18,65950,List2A,white,woman,,,,null,,,,
null,"<img src=""stim_listA/dance5.gif""</stim_listA>",,html-keyboard-response,103,538534,0.0-13.0-1.18,65950,List2A,white,woman,,,,null,,,,
null,is dancing with,,html-keyboard-response,104,540538,0.0-13.0-2.18,65950,List2A,white,woman,,,,null,,,,
7637,,,survey-text,105,548178,0.0-13.0-3.18,65950,List2A,white,woman,,,,,"{""Q0"":""luke is dancing with mike""}","<img src=""stim_listA/dance5.gif""</stim_listA>",is dancing with,
null,"<div style=""font-size:60px;"">+</div>",,html-keyboard-response,106,548682,0.0-13.0-0.19,65950,List2A,white,woman,,,,null,,,,
null,"<img src=""stim_listA/fight8.gif""</stim_listA>",,html-keyboard-response,107,550688,0.0-13.0-1.19,65950,List2A,white,woman,,,,null,,,,
null,are fighting each other,,html-keyboard-response,108,552691,0.0-13.0-2.19,65950,List2A,white,woman,,,,null,,,,
7992,,,survey-text,109,560684,0.0-13.0-3.19,65950,List2A,white,woman,,,,,"{""Q0"":""ruth and kate are fighting""}","<img src=""stim_listA/fight8.gif""</stim_listA>",are fighting each other,
12264,"<img src='img/portrait_matrix_list2.JPG' style='width:900px;height:500px;''></img><p>If you have memorised all the portraits and names and are ready to start, press Continue.</p><p><strong>Please note: Your memory of these faces will be tested 4 times during this experiment.</strong></p>",0,html-button-response,110,572950,0.0-14.0-0.0,65950,List2A,white,woman,,,,,,,,
3449,"<img src=""portrait/WW2.jpg""style=""width:400px;height:400px;""></img>",3,html-button-response,111,577405,0.0-14.0-1.0,65950,List2A,white,woman,,TRUE,3,,,,,
null,CORRECT,,html-keyboard-response,112,578909,0.0-14.0-2.0-0.0,65950,List2A,white,woman,,,,null,,,,
2972,"<img src=""portrait/WM1.jpg""style=""width:400px;height:400px;""></img>",6,html-button-response,113,581885,0.0-14.0-4.0,65950,List2A,white,woman,,TRUE,6,,,,,
null,CORRECT,,html-keyboard-response,114,583389,0.0-14.0-5.0-0.0,65950,List2A,white,woman,,,,null,,,,
6767,"<img src=""portrait/WW1.jpg""style=""width:400px;height:400px;""></img>",1,html-button-response,115,590159,0.0-14.0-7.0,65950,List2A,white,woman,,TRUE,1,,,,,
null,CORRECT,,html-keyboard-response,116,591669,0.0-14.0-8.0-0.0,65950,List2A,white,woman,,,,null,,,,
5786,"<img src=""portrait/BM2.jpg""style=""width:400px;height:400px;""></img>",5,html-button-response,117,597457,0.0-14.0-10.0,65950,List2A,white,woman,,TRUE,5,,,,,
null,CORRECT,,html-keyboard-response,118,598963,0.0-14.0-11.0-0.0,65950,List2A,white,woman,,,,null,,,,
3571,"<img src=""portrait/BW1.jpg""style=""width:400px;height:400px;""></img>",0,html-button-response,119,602536,0.0-14.0-13.0,65950,List2A,white,woman,,TRUE,0,,,,,
null,CORRECT,,html-keyboard-response,120,604041,0.0-14.0-14.0-0.0,65950,List2A,white,woman,,,,null,,,,
2400,"<img src=""portrait/BW2.jpg""style=""width:400px;height:400px;""></img>",2,html-button-response,121,606447,0.0-14.0-16.0,65950,List2A,white,woman,,TRUE,2,,,,,
null,CORRECT,,html-keyboard-response,122,607953,0.0-14.0-17.0-0.0,65950,List2A,white,woman,,,,null,,,,
2936,"<img src=""portrait/BM1.jpg""style=""width:400px;height:400px;""></img>",4,html-button-response,123,610893,0.0-14.0-19.0,65950,List2A,white,woman,,TRUE,4,,,,,
null,CORRECT,,html-keyboard-response,124,612401,0.0-14.0-20.0-0.0,65950,List2A,white,woman,,,,null,,,,
2311,"<img src=""portrait/WM2.jpg""style=""width:400px;height:400px;""></img>",7,html-button-response,125,614714,0.0-14.0-22.0,65950,List2A,white,woman,,TRUE,7,,,,,
null,CORRECT,,html-keyboard-response,126,616220,0.0-14.0-23.0-0.0,65950,List2A,white,woman,,,,null,,,,
2531,<p>You got 8 out of 8 right first time. Press Continue.</p>,0,html-button-response,127,618753,0.0-14.0-25.0,65950,List2A,white,woman,,,,,,,,
null,"<div style=""font-size:60px;"">+</div>",,html-keyboard-response,128,620259,0.0-15.0-0.0,65950,List2A,white,woman,,,,null,,,,
null,"<img src=""stim_listA/hug6.gif""</stim_listA>",,html-keyboard-response,129,622264,0.0-15.0-1.0,65950,List2A,white,woman,,,,null,,,,
null,are hugging each other,,html-keyboard-response,130,624267,0.0-15.0-2.0,65950,List2A,white,woman,,,,null,,,,
11612,,,survey-text,131,635881,0.0-15.0-3.0,65950,List2A,white,woman,,,,,"{""Q0"":""mike and dave hugging each other""}","<img src=""stim_listA/hug6.gif""</stim_listA>",are hugging each other,
null,"<div style=""font-size:60px;"">+</div>",,html-keyboard-response,132,636385,0.0-15.0-0.1,65950,List2A,white,woman,,,,null,,,,
null,"<img src=""stim_listA/shout7.gif""</stim_listA>",,html-keyboard-response,133,638391,0.0-15.0-1.1,65950,List2A,white,woman,,,,null,,,,
null,is shouting at,,html-keyboard-response,134,640393,0.0-15.0-2.1,65950,List2A,white,woman,,,,null,,,,
9140,,,survey-text,135,649534,0.0-15.0-3.1,65950,List2A,white,woman,,,,,"{""Q0"":""ruth is shouting at beth""}","<img src=""stim_listA/shout7.gif""</stim_listA>",is shouting at,
null,"<div style=""font-size:60px;"">+</div>",,html-keyboard-response,136,650036,0.0-15.0-0.2,65950,List2A,white,woman,,,,null,,,,
null,"<img src=""stim_listA/fight2.gif""</stim_listA>",,html-keyboard-response,137,652040,0.0-15.0-1.2,65950,List2A,white,woman,,,,null,,,,
null,are fighting each other,,html-keyboard-response,138,654043,0.0-15.0-2.2,65950,List2A,white,woman,,,,null,,,,
9488,,,survey-text,139,663533,0.0-15.0-3.2,65950,List2A,white,woman,,,,,"{""Q0"":""ruth and luke are fighting each other""}","<img src=""stim_listA/fight2.gif""</stim_listA>",are fighting each other,
null,"<div style=""font-size:60px;"">+</div>",,html-keyboard-response,140,664037,0.0-15.0-0.3,65950,List2A,white,woman,,,,null,,,,
null,"<img src=""stim_listA/kiss4.gif""</stim_listA>",,html-keyboard-response,141,666043,0.0-15.0-1.3,65950,List2A,white,woman,,,,null,,,,
null,are kissing each other,,html-keyboard-response,142,668047,0.0-15.0-2.3,65950,List2A,white,woman,,,,null,,,,
5594,,,survey-text,143,673644,0.0-15.0-3.3,65950,List2A,white,woman,,,,,"{""Q0"":""no picture""}","<img src=""stim_listA/kiss4.gif""</stim_listA>",are kissing each other,
null,"<div style=""font-size:60px;"">+</div>",,html-keyboard-response,144,674147,0.0-15.0-0.4,65950,List2A,white,woman,,,,null,,,,
null,"<img src=""stim_listA/shout5.gif""</stim_listA>",,html-keyboard-response,145,676153,0.0-15.0-1.4,65950,List2A,white,woman,,,,null,,,,
null,is shouting at,,html-keyboard-response,146,678158,0.0-15.0-2.4,65950,List2A,white,woman,,,,null,,,,
7750,,,survey-text,147,685910,0.0-15.0-3.4,65950,List2A,white,woman,,,,,"{""Q0"":""luke is shouting at fred""}","<img src=""stim_listA/shout5.gif""</stim_listA>",is shouting at,
null,"<div style=""font-size:60px;"">+</div>",,html-keyboard-response,148,686412,0.0-15.0-0.5,65950,List2A,white,woman,,,,null,,,,
null,"<img src=""stim_listA/kiss6.gif""</stim_listA>",,html-keyboard-response,149,688417,0.0-15.0-1.5,65950,List2A,white,woman,,,,null,,,,
null,are kissing each other,,html-keyboard-response,150,690420,0.0-15.0-2.5,65950,List2A,white,woman,,,,null,,,,
10902,,,survey-text,151,701324,0.0-15.0-3.5,65950,List2A,white,woman,,,,,"{""Q0"":""mike and dave are kissing each other""}","<img src=""stim_listA/kiss6.gif""</stim_listA>",are kissing each other,
null,"<div style=""font-size:60px;"">+</div>",,html-keyboard-response,152,701826,0.0-15.0-0.6,65950,List2A,white,woman,,,,null,,,,
null,"<img src=""stim_listA/fight1.gif""</stim_listA>",,html-keyboard-response,153,703832,0.0-15.0-1.6,65950,List2A,white,woman,,,,null,,,,
null,is fighting,,html-keyboard-response,154,705834,0.0-15.0-2.6,65950,List2A,white,woman,,,,null,,,,
8530,,,survey-text,155,714366,0.0-15.0-3.6,65950,List2A,white,woman,,,,,"{""Q0"":""dave is fighting jane""}","<img src=""stim_listA/fight1.gif""</stim_listA>",is fighting,
null,"<div style=""font-size:60px;"">+</div>",,html-keyboard-response,156,714867,0.0-15.0-0.7,65950,List2A,white,woman,,,,null,,,,
null,"<img src=""stim_listA/shout4.gif""</stim_listA>",,html-keyboard-response,157,716872,0.0-15.0-1.7,65950,List2A,white,woman,,,,null,,,,
null,are shouting at each other,,html-keyboard-response,158,718877,0.0-15.0-2.7,65950,List2A,white,woman,,,,null,,,,
11087,,,survey-text,159,729966,0.0-15.0-3.7,65950,List2A,white,woman,,,,,"{""Q0"":""mike is shouting at kate""}","<img src=""stim_listA/shout4.gif""</stim_listA>",are shouting at each other,
null,"<div style=""font-size:60px;"">+</div>",,html-keyboard-response,160,730469,0.0-15.0-0.8,65950,List2A,white,woman,,,,null,,,,
null,"<img src=""stim_listA/kiss1.gif""</stim_listA>",,html-keyboard-response,161,732472,0.0-15.0-1.8,65950,List2A,white,woman,,,,null,,,,
null,is kissing,,html-keyboard-response,162,734475,0.0-15.0-2.8,65950,List2A,white,woman,,,,null,,,,
5818,,,survey-text,163,740296,0.0-15.0-3.8,65950,List2A,white,woman,,,,,"{""Q0"":""luke is kissing ruth""}","<img src=""stim_listA/kiss1.gif""</stim_listA>",is kissing,
null,"<div style=""font-size:60px;"">+</div>",,html-keyboard-response,164,740798,0.0-15.0-0.9,65950,List2A,white,woman,,,,null,,,,
null,"<img src=""stim_listA/kiss2.gif""</stim_listA>",,html-keyboard-response,165,742802,0.0-15.0-1.9,65950,List2A,white,woman,,,,null,,,,
null,are kissing each other,,html-keyboard-response,166,744809,0.0-15.0-2.9,65950,List2A,white,woman,,,,null,,,,
11145,,,survey-text,167,755957,0.0-15.0-3.9,65950,List2A,white,woman,,,,,"{""Q0"":""jane and dave are kissing each other""}","<img src=""stim_listA/kiss2.gif""</stim_listA>",are kissing each other,
null,"<div style=""font-size:60px;"">+</div>",,html-keyboard-response,168,756461,0.0-15.0-0.10,65950,List2A,white,woman,,,,null,,,,
null,"<img src=""stim_listA/meet7.gif""</stim_listA>",,html-keyboard-response,169,758466,0.0-15.0-1.10,65950,List2A,white,woman,,,,null,,,,
null,is meeting,,html-keyboard-response,170,760468,0.0-15.0-2.10,65950,List2A,white,woman,,,,null,,,,
12633,,,survey-text,171,773103,0.0-15.0-3.10,65950,List2A,white,woman,,,,,"{""Q0"":""jane and kate are shaking hands""}","<img src=""stim_listA/meet7.gif""</stim_listA>",is meeting,
null,"<div style=""font-size:60px;"">+</div>",,html-keyboard-response,172,773604,0.0-15.0-0.11,65950,List2A,white,woman,,,,null,,,,
null,"<img src=""stim_listA/argue3.gif""</stim_listA>",,html-keyboard-response,173,775607,0.0-15.0-1.11,65950,List2A,white,woman,,,,null,,,,
null,is arguing with,,html-keyboard-response,174,777609,0.0-15.0-2.11,65950,List2A,white,woman,,,,null,,,,
12955,,,survey-text,175,790567,0.0-15.0-3.11,65950,List2A,white,woman,,,,,"{""Q0"":""beth is arguing with mike""}","<img src=""stim_listA/argue3.gif""</stim_listA>",is arguing with,
null,"<div style=""font-size:60px;"">+</div>",,html-keyboard-response,176,791069,0.0-15.0-0.12,65950,List2A,white,woman,,,,null,,,,
null,"<img src=""stim_listA/shout8.gif""</stim_listA>",,html-keyboard-response,177,793074,0.0-15.0-1.12,65950,List2A,white,woman,,,,null,,,,
null,are shouting at each other,,html-keyboard-response,178,795078,0.0-15.0-2.12,65950,List2A,white,woman,,,,null,,,,
15616,,,survey-text,179,810696,0.0-15.0-3.12,65950,List2A,white,woman,,,,,"{""Q0"":""jane is yelling at kate""}","<img src=""stim_listA/shout8.gif""</stim_listA>",are shouting at each other,
null,"<div style=""font-size:60px;"">+</div>",,html-keyboard-response,180,811199,0.0-15.0-0.13,65950,List2A,white,woman,,,,null,,,,
null,"<img src=""stim_listA/dance8.gif""</stim_listA>",,html-keyboard-response,181,813205,0.0-15.0-1.13,65950,List2A,white,woman,,,,null,,,,
null,are dancing with each other,,html-keyboard-response,182,815208,0.0-15.0-2.13,65950,List2A,white,woman,,,,null,,,,
22129,,,survey-text,183,837339,0.0-15.0-3.13,65950,List2A,white,woman,,,,,"{""Q0"":""beth is dancing with jane""}","<img src=""stim_listA/dance8.gif""</stim_listA>",are dancing with each other,
null,"<div style=""font-size:60px;"">+</div>",,html-keyboard-response,184,837845,0.0-15.0-0.14,65950,List2A,white,woman,,,,null,,,,
null,"<img src=""stim_listA/meet6.gif""</stim_listA>",,html-keyboard-response,185,839848,0.0-15.0-1.14,65950,List2A,white,woman,,,,null,,,,
null,are meeting each other,,html-keyboard-response,186,841850,0.0-15.0-2.14,65950,List2A,white,woman,,,,null,,,,
16619,,,survey-text,187,858471,0.0-15.0-3.14,65950,List2A,white,woman,,,,,"{""Q0"":""fred and luke are meeting each other""}","<img src=""stim_listA/meet6.gif""</stim_listA>",are meeting each other,
null,"<div style=""font-size:60px;"">+</div>",,html-keyboard-response,188,858974,0.0-15.0-0.15,65950,List2A,white,woman,,,,null,,,,
null,"<img src=""stim_listA/marry4.gif""</stim_listA>",,html-keyboard-response,189,860979,0.0-15.0-1.15,65950,List2A,white,woman,,,,null,,,,
null,are marrying each other,,html-keyboard-response,190,862984,0.0-15.0-2.15,65950,List2A,white,woman,,,,null,,,,
9658,,,survey-text,191,872644,0.0-15.0-3.15,65950,List2A,white,woman,,,,,"{""Q0"":""kate and fred are marrying each other""}","<img src=""stim_listA/marry4.gif""</stim_listA>",are marrying each other,
null,"<div style=""font-size:60px;"">+</div>",,html-keyboard-response,192,873147,0.0-15.0-0.16,65950,List2A,white,woman,,,,null,,,,
null,"<img src=""stim_listA/argue8.gif""</stim_listA>",,html-keyboard-response,193,875153,0.0-15.0-1.16,65950,List2A,white,woman,,,,null,,,,
null,are arguing with each other,,html-keyboard-response,194,877156,0.0-15.0-2.16,65950,List2A,white,woman,,,,null,,,,
11794,,,survey-text,195,888953,0.0-15.0-3.16,65950,List2A,white,woman,,,,,"{""Q0"":""kate and ruth are arguing with each other""}","<img src=""stim_listA/argue8.gif""</stim_listA>",are arguing with each other,
null,"<div style=""font-size:60px;"">+</div>",,html-keyboard-response,196,889457,0.0-15.0-0.17,65950,List2A,white,woman,,,,null,,,,
null,"<img src=""stim_listA/dance3.gif""</stim_listA>",,html-keyboard-response,197,891462,0.0-15.0-1.17,65950,List2A,white,woman,,,,null,,,,
null,is dancing with,,html-keyboard-response,198,893465,0.0-15.0-2.17,65950,List2A,white,woman,,,,null,,,,
8463,,,survey-text,199,901931,0.0-15.0-3.17,65950,List2A,white,woman,,,,,"{""Q0"":""fred is dancing with kate""}","<img src=""stim_listA/dance3.gif""</stim_listA>",is dancing with,
null,"<div style=""font-size:60px;"">+</div>",,html-keyboard-response,200,902435,0.0-15.0-0.18,65950,List2A,white,woman,,,,null,,,,
null,"<img src=""stim_listA/argue6.gif""</stim_listA>",,html-keyboard-response,201,904440,0.0-15.0-1.18,65950,List2A,white,woman,,,,null,,,,
null,are arguing with each other,,html-keyboard-response,202,906442,0.0-15.0-2.18,65950,List2A,white,woman,,,,null,,,,
12791,,,survey-text,203,919235,0.0-15.0-3.18,65950,List2A,white,woman,,,,,"{""Q0"":""mike and luke are arguing with each other""}","<img src=""stim_listA/argue6.gif""</stim_listA>",are arguing with each other,
null,"<div style=""font-size:60px;"">+</div>",,html-keyboard-response,204,919738,0.0-15.0-0.19,65950,List2A,white,woman,,,,null,,,,
null,"<img src=""stim_listA/fight5.gif""</stim_listA>",,html-keyboard-response,205,921744,0.0-15.0-1.19,65950,List2A,white,woman,,,,null,,,,
null,is fighting,,html-keyboard-response,206,923747,0.0-15.0-2.19,65950,List2A,white,woman,,,,null,,,,
8230,,,survey-text,207,931979,0.0-15.0-3.19,65950,List2A,white,woman,,,,,"{""Q0"":""dave is fighting with mike""}","<img src=""stim_listA/fight5.gif""</stim_listA>",is fighting,
3404,"<img src='img/portrait_matrix_list2.JPG' style='width:900px;height:500px;''></img><p>If you have memorised all the portraits and names and are ready to start, press Continue.</p><p><strong>Please note: Your memory of these faces will be tested 4 times during this experiment.</strong></p>",0,html-button-response,208,935385,0.0-16.0-0.0,65950,List2A,white,woman,,,,,,,,
4636,"<img src=""portrait/BM1.jpg""style=""width:400px;height:400px;""></img>",4,html-button-response,209,941025,0.0-16.0-1.0,65950,List2A,white,woman,,TRUE,4,,,,,
null,CORRECT,,html-keyboard-response,210,942529,0.0-16.0-2.0-0.0,65950,List2A,white,woman,,,,null,,,,
2594,"<img src=""portrait/BW2.jpg""style=""width:400px;height:400px;""></img>",2,html-button-response,211,945125,0.0-16.0-4.0,65950,List2A,white,woman,,TRUE,2,,,,,
null,CORRECT,,html-keyboard-response,212,946633,0.0-16.0-5.0-0.0,65950,List2A,white,woman,,,,null,,,,
2182,"<img src=""portrait/BW1.jpg""style=""width:400px;height:400px;""></img>",0,html-button-response,213,948818,0.0-16.0-7.0,65950,List2A,white,woman,,TRUE,0,,,,,
null,CORRECT,,html-keyboard-response,214,950325,0.0-16.0-8.0-0.0,65950,List2A,white,woman,,,,null,,,,
2694,"<img src=""portrait/WW2.jpg""style=""width:400px;height:400px;""></img>",3,html-button-response,215,953023,0.0-16.0-10.0,65950,List2A,white,woman,,TRUE,3,,,,,
null,CORRECT,,html-keyboard-response,216,954530,0.0-16.0-11.0-0.0,65950,List2A,white,woman,,,,null,,,,
2503,"<img src=""portrait/BM2.jpg""style=""width:400px;height:400px;""></img>",5,html-button-response,217,957035,0.0-16.0-13.0,65950,List2A,white,woman,,TRUE,5,,,,,
null,CORRECT,,html-keyboard-response,218,958540,0.0-16.0-14.0-0.0,65950,List2A,white,woman,,,,null,,,,
3299,"<img src=""portrait/WM1.jpg""style=""width:400px;height:400px;""></img>",6,html-button-response,219,961843,0.0-16.0-16.0,65950,List2A,white,woman,,TRUE,6,,,,,
null,CORRECT,,html-keyboard-response,220,963354,0.0-16.0-17.0-0.0,65950,List2A,white,woman,,,,null,,,,
3855,"<img src=""portrait/WW1.jpg""style=""width:400px;height:400px;""></img>",1,html-button-response,221,967213,0.0-16.0-19.0,65950,List2A,white,woman,,TRUE,1,,,,,
null,CORRECT,,html-keyboard-response,222,968719,0.0-16.0-20.0-0.0,65950,List2A,white,woman,,,,null,,,,
2780,"<img src=""portrait/WM2.jpg""style=""width:400px;height:400px;""></img>",7,html-button-response,223,971503,0.0-16.0-22.0,65950,List2A,white,woman,,TRUE,7,,,,,
null,CORRECT,,html-keyboard-response,224,973009,0.0-16.0-23.0-0.0,65950,List2A,white,woman,,,,null,,,,
2152,<p>You got 8 out of 8 right first time. Press Continue.</p>,0,html-button-response,225,975162,0.0-16.0-25.0,65950,List2A,white,woman,,,,,,,,
null,"<div style=""font-size:60px;"">+</div>",,html-keyboard-response,226,976668,0.0-17.0-0.0,65950,List2A,white,woman,,,,null,,,,
null,"<img src=""stim_listA/talk8.gif""</stim_listA>",,html-keyboard-response,227,978671,0.0-17.0-1.0,65950,List2A,white,woman,,,,null,,,,
null,are talking to each other,,html-keyboard-response,228,980673,0.0-17.0-2.0,65950,List2A,white,woman,,,,null,,,,
11786,,,survey-text,229,992461,0.0-17.0-3.0,65950,List2A,white,woman,,,,,"{""Q0"":""beth and jane are talking to each other""}","<img src=""stim_listA/talk8.gif""</stim_listA>",are talking to each other,
null,"<div style=""font-size:60px;"">+</div>",,html-keyboard-response,230,992964,0.0-17.0-0.1,65950,List2A,white,woman,,,,null,,,,
null,"<img src=""stim_listA/meet1.gif""</stim_listA>",,html-keyboard-response,231,994967,0.0-17.0-1.1,65950,List2A,white,woman,,,,null,,,,
null,is meeting,,html-keyboard-response,232,996969,0.0-17.0-2.1,65950,List2A,white,woman,,,,null,,,,
10886,,,survey-text,233,1007856,0.0-17.0-3.1,65950,List2A,white,woman,,,,,"{""Q0"":""dave is meeting jane""}","<img src=""stim_listA/meet1.gif""</stim_listA>",is meeting,
null,"<div style=""font-size:60px;"">+</div>",,html-keyboard-response,234,1008358,0.0-17.0-0.2,65950,List2A,white,woman,,,,null,,,,
null,"<img src=""stim_listA/hug5.gif""</stim_listA>",,html-keyboard-response,235,1010363,0.0-17.0-1.2,65950,List2A,white,woman,,,,null,,,,
null,is hugging,,html-keyboard-response,236,1012365,0.0-17.0-2.2,65950,List2A,white,woman,,,,null,,,,
6322,,,survey-text,237,1018689,0.0-17.0-3.2,65950,List2A,white,woman,,,,,"{""Q0"":""luke is hugging fred""}","<img src=""stim_listA/hug5.gif""</stim_listA>",is hugging,
null,"<div style=""font-size:60px;"">+</div>",,html-keyboard-response,238,1019196,0.0-17.0-0.3,65950,List2A,white,woman,,,,null,,,,
null,"<img src=""stim_listA/hug7.gif""</stim_listA>",,html-keyboard-response,239,1021201,0.0-17.0-1.3,65950,List2A,white,woman,,,,null,,,,
null,is hugging,,html-keyboard-response,240,1023207,0.0-17.0-2.3,65950,List2A,white,woman,,,,null,,,,
6251,,,survey-text,241,1029460,0.0-17.0-3.3,65950,List2A,white,woman,,,,,"{""Q0"":""ruth is hugging beth""}","<img src=""stim_listA/hug7.gif""</stim_listA>",is hugging,
null,"<div style=""font-size:60px;"">+</div>",,html-keyboard-response,242,1029967,0.0-17.0-0.4,65950,List2A,white,woman,,,,null,,,,
null,"<img src=""stim_listA/shout6.gif""</stim_listA>",,html-keyboard-response,243,1031974,0.0-17.0-1.4,65950,List2A,white,woman,,,,null,,,,
null,are shouting at each other,,html-keyboard-response,244,1033981,0.0-17.0-2.4,65950,List2A,white,woman,,,,null,,,,
9865,,,survey-text,245,1043848,0.0-17.0-3.4,65950,List2A,white,woman,,,,,"{""Q0"":""dave and mike are shouting at each other""}","<img src=""stim_listA/shout6.gif""</stim_listA>",are shouting at each other,
null,"<div style=""font-size:60px;"">+</div>",,html-keyboard-response,246,1044352,0.0-17.0-0.5,65950,List2A,white,woman,,,,null,,,,
null,"<img src=""stim_listA/meet4.gif""</stim_listA>",,html-keyboard-response,247,1046358,0.0-17.0-1.5,65950,List2A,white,woman,,,,null,,,,
null,are meeting each other,,html-keyboard-response,248,1048362,0.0-17.0-2.5,65950,List2A,white,woman,,,,null,,,,
9519,,,survey-text,249,1057883,0.0-17.0-3.5,65950,List2A,white,woman,,,,,"{""Q0"":""beth and fred are meeting each other""}","<img src=""stim_listA/meet4.gif""</stim_listA>",are meeting each other,
null,"<div style=""font-size:60px;"">+</div>",,html-keyboard-response,250,1058387,0.0-17.0-0.6,65950,List2A,white,woman,,,,null,,,,
null,"<img src=""stim_listA/dance7.gif""</stim_listA>",,html-keyboard-response,251,1060394,0.0-17.0-1.6,65950,List2A,white,woman,,,,null,,,,
null,is dancing with,,html-keyboard-response,252,1062396,0.0-17.0-2.6,65950,List2A,white,woman,,,,null,,,,
7065,,,survey-text,253,1069463,0.0-17.0-3.6,65950,List2A,white,woman,,,,,"{""Q0"":""ruth is dancing with kate""}","<img src=""stim_listA/dance7.gif""</stim_listA>",is dancing with,
null,"<div style=""font-size:60px;"">+</div>",,html-keyboard-response,254,1069967,0.0-17.0-0.7,65950,List2A,white,woman,,,,null,,,,
null,"<img src=""stim_listA/talk3.gif""</stim_listA>",,html-keyboard-response,255,1071971,0.0-17.0-1.7,65950,List2A,white,woman,,,,null,,,,
null,is talking to,,html-keyboard-response,256,1073977,0.0-17.0-2.7,65950,List2A,white,woman,,,,null,,,,
8155,,,survey-text,257,1082134,0.0-17.0-3.7,65950,List2A,white,woman,,,,,"{""Q0"":""fred is talking to kate""}","<img src=""stim_listA/talk3.gif""</stim_listA>",is talking to,
null,"<div style=""font-size:60px;"">+</div>",,html-keyboard-response,258,1082638,0.0-17.0-0.8,65950,List2A,white,woman,,,,null,,,,
null,"<img src=""stim_listA/touch3.gif""</stim_listA>",,html-keyboard-response,259,1084642,0.0-17.0-1.8,65950,List2A,white,woman,,,,null,,,,
null,is touching,,html-keyboard-response,260,1086647,0.0-17.0-2.8,65950,List2A,white,woman,,,,null,,,,
6757,,,survey-text,261,1093406,0.0-17.0-3.8,65950,List2A,white,woman,,,,,"{""Q0"":""mike is touching kate""}","<img src=""stim_listA/touch3.gif""</stim_listA>",is touching,
null,"<div style=""font-size:60px;"">+</div>",,html-keyboard-response,262,1093908,0.0-17.0-0.9,65950,List2A,white,woman,,,,null,,,,
null,"<img src=""stim_listA/hug4.gif""</stim_listA>",,html-keyboard-response,263,1095912,0.0-17.0-1.9,65950,List2A,white,woman,,,,null,,,,
null,are hugging each other,,html-keyboard-response,264,1097917,0.0-17.0-2.9,65950,List2A,white,woman,,,,null,,,,
10359,,,survey-text,265,1108278,0.0-17.0-3.9,65950,List2A,white,woman,,,,,"{""Q0"":""mike and kate are hugging each other""}","<img src=""stim_listA/hug4.gif""</stim_listA>",are hugging each other,
null,"<div style=""font-size:60px;"">+</div>",,html-keyboard-response,266,1108782,0.0-17.0-0.10,65950,List2A,white,woman,,,,null,,,,
null,"<img src=""stim_listA/dance2.gif""</stim_listA>",,html-keyboard-response,267,1110787,0.0-17.0-1.10,65950,List2A,white,woman,,,,null,,,,
null,are dancing with each other,,html-keyboard-response,268,1112791,0.0-17.0-2.10,65950,List2A,white,woman,,,,null,,,,
12043,,,survey-text,269,1124836,0.0-17.0-3.10,65950,List2A,white,woman,,,,,"{""Q0"":""ruth and dave are dancing with each other""}","<img src=""stim_listA/dance2.gif""</stim_listA>",are dancing with each other,
null,"<div style=""font-size:60px;"">+</div>",,html-keyboard-response,270,1125341,0.0-17.0-0.11,65950,List2A,white,woman,,,,null,,,,
null,"<img src=""stim_listA/marry7.gif""</stim_listA>",,html-keyboard-response,271,1127345,0.0-17.0-1.11,65950,List2A,white,woman,,,,null,,,,
null,is marrying,,html-keyboard-response,272,1129350,0.0-17.0-2.11,65950,List2A,white,woman,,,,null,,,,
10922,,,survey-text,273,1140274,0.0-17.0-3.11,65950,List2A,white,woman,,,,,"{""Q0"":""jane and beth are marrying each other""}","<img src=""stim_listA/marry7.gif""</stim_listA>",is marrying,
null,"<div style=""font-size:60px;"">+</div>",,html-keyboard-response,274,1140779,0.0-17.0-0.12,65950,List2A,white,woman,,,,null,,,,
null,"<img src=""stim_listA/marry8.gif""</stim_listA>",,html-keyboard-response,275,1142783,0.0-17.0-1.12,65950,List2A,white,woman,,,,null,,,,
null,are marrying each other,,html-keyboard-response,276,1144787,0.0-17.0-2.12,65950,List2A,white,woman,,,,null,,,,
9611,,,survey-text,277,1154400,0.0-17.0-3.12,65950,List2A,white,woman,,,,,"{""Q0"":""kate and ruth are marrying each other""}","<img src=""stim_listA/marry8.gif""</stim_listA>",are marrying each other,
null,"<div style=""font-size:60px;"">+</div>",,html-keyboard-response,278,1154902,0.0-17.0-0.13,65950,List2A,white,woman,,,,null,,,,
null,"<img src=""stim_listA/talk7.gif""</stim_listA>",,html-keyboard-response,279,1156908,0.0-17.0-1.13,65950,List2A,white,woman,,,,null,,,,
null,is talking to,,html-keyboard-response,280,1158911,0.0-17.0-2.13,65950,List2A,white,woman,,,,null,,,,
7541,,,survey-text,281,1166454,0.0-17.0-3.13,65950,List2A,white,woman,,,,,"{""Q0"":""kate is talking to ruth""}","<img src=""stim_listA/talk7.gif""</stim_listA>",is talking to,
null,"<div style=""font-size:60px;"">+</div>",,html-keyboard-response,282,1166958,0.0-17.0-0.14,65950,List2A,white,woman,,,,null,,,,
null,"<img src=""stim_listA/meet2.gif""</stim_listA>",,html-keyboard-response,283,1168960,0.0-17.0-1.14,65950,List2A,white,woman,,,,null,,,,
null,are meeting each other,,html-keyboard-response,284,1170965,0.0-17.0-2.14,65950,List2A,white,woman,,,,null,,,,
4297,,,survey-text,285,1175265,0.0-17.0-3.14,65950,List2A,white,woman,,,,,"{""Q0"":""no picture""}","<img src=""stim_listA/meet2.gif""</stim_listA>",are meeting each other,
null,"<div style=""font-size:60px;"">+</div>",,html-keyboard-response,286,1175770,0.0-17.0-0.15,65950,List2A,white,woman,,,,null,,,,
null,"<img src=""stim_listA/marry6.gif""</stim_listA>",,html-keyboard-response,287,1177773,0.0-17.0-1.15,65950,List2A,white,woman,,,,null,,,,
null,are marrying each other,,html-keyboard-response,288,1179776,0.0-17.0-2.15,65950,List2A,white,woman,,,,null,,,,
8826,,,survey-text,289,1188603,0.0-17.0-3.15,65950,List2A,white,woman,,,,,"{""Q0"":""mike and luke are marrying each other""}","<img src=""stim_listA/marry6.gif""</stim_listA>",are marrying each other,
null,"<div style=""font-size:60px;"">+</div>",,html-keyboard-response,290,1189107,0.0-17.0-0.16,65950,List2A,white,woman,,,,null,,,,
null,"<img src=""stim_listA/hug2.gif""</stim_listA>",,html-keyboard-response,291,1191109,0.0-17.0-1.16,65950,List2A,white,woman,,,,null,,,,
null,are hugging each other,,html-keyboard-response,292,1193114,0.0-17.0-2.16,65950,List2A,white,woman,,,,null,,,,
12237,,,survey-text,293,1205353,0.0-17.0-3.16,65950,List2A,white,woman,,,,,"{""Q0"":""jane and dave are hugging each other""}","<img src=""stim_listA/hug2.gif""</stim_listA>",are hugging each other,
null,"<div style=""font-size:60px;"">+</div>",,html-keyboard-response,294,1205859,0.0-17.0-0.17,65950,List2A,white,woman,,,,null,,,,
null,"<img src=""stim_listA/argue5.gif""</stim_listA>",,html-keyboard-response,295,1207863,0.0-17.0-1.17,65950,List2A,white,woman,,,,null,,,,
null,is arguing with,,html-keyboard-response,296,1209866,0.0-17.0-2.17,65950,List2A,white,woman,,,,null,,,,
4471,,,survey-text,297,1214339,0.0-17.0-3.17,65950,List2A,white,woman,,,,,"{""Q0"":""no picture""}","<img src=""stim_listA/argue5.gif""</stim_listA>",is arguing with,
null,"<div style=""font-size:60px;"">+</div>",,html-keyboard-response,298,1214841,0.0-17.0-0.18,65950,List2A,white,woman,,,,null,,,,
null,"<img src=""stim_listA/marry3.gif""</stim_listA>",,html-keyboard-response,299,1216846,0.0-17.0-1.18,65950,List2A,white,woman,,,,null,,,,
null,is marrying,,html-keyboard-response,300,1218849,0.0-17.0-2.18,65950,List2A,white,woman,,,,null,,,,
7020,,,survey-text,301,1225871,0.0-17.0-3.18,65950,List2A,white,woman,,,,,"{""Q0"":""beth is marrying mike""}","<img src=""stim_listA/marry3.gif""</stim_listA>",is marrying,
null,"<div style=""font-size:60px;"">+</div>",,html-keyboard-response,302,1226372,0.0-17.0-0.19,65950,List2A,white,woman,,,,null,,,,
null,"<img src=""stim_listA/marry5.gif""</stim_listA>",,html-keyboard-response,303,1228375,0.0-17.0-1.19,65950,List2A,white,woman,,,,null,,,,
null,is marrying,,html-keyboard-response,304,1230377,0.0-17.0-2.19,65950,List2A,white,woman,,,,null,,,,
7121,,,survey-text,305,1237500,0.0-17.0-3.19,65950,List2A,white,woman,,,,,"{""Q0"":""dave is marrying fred""}","<img src=""stim_listA/marry5.gif""</stim_listA>",is marrying,
6334,"<img src='img/portrait_matrix_list2.JPG' style='width:900px;height:500px;''></img><p>If you have memorised all the portraits and names and are ready to start, press Continue.</p><p><strong>Please note: Your memory of these faces will be tested 4 times during this experiment.</strong></p>",0,html-button-response,306,1243836,0.0-18.0-0.0,65950,List2A,white,woman,,,,,,,,
2826,"<img src=""portrait/BW2.jpg""style=""width:400px;height:400px;""></img>",2,html-button-response,307,1247668,0.0-18.0-1.0,65950,List2A,white,woman,,TRUE,2,,,,,
null,CORRECT,,html-keyboard-response,308,1249176,0.0-18.0-2.0-0.0,65950,List2A,white,woman,,,,null,,,,
2538,"<img src=""portrait/WW2.jpg""style=""width:400px;height:400px;""></img>",3,html-button-response,309,1251717,0.0-18.0-4.0,65950,List2A,white,woman,,TRUE,3,,,,,
null,CORRECT,,html-keyboard-response,310,1253226,0.0-18.0-5.0-0.0,65950,List2A,white,woman,,,,null,,,,
3465,"<img src=""portrait/BM2.jpg""style=""width:400px;height:400px;""></img>",5,html-button-response,311,1256694,0.0-18.0-7.0,65950,List2A,white,woman,,TRUE,5,,,,,
null,CORRECT,,html-keyboard-response,312,1258203,0.0-18.0-8.0-0.0,65950,List2A,white,woman,,,,null,,,,
2843,"<img src=""portrait/BW1.jpg""style=""width:400px;height:400px;""></img>",0,html-button-response,313,1261048,0.0-18.0-10.0,65950,List2A,white,woman,,TRUE,0,,,,,
null,CORRECT,,html-keyboard-response,314,1262557,0.0-18.0-11.0-0.0,65950,List2A,white,woman,,,,null,,,,
3585,"<img src=""portrait/BM1.jpg""style=""width:400px;height:400px;""></img>",4,html-button-response,315,1266145,0.0-18.0-13.0,65950,List2A,white,woman,,TRUE,4,,,,,
null,CORRECT,,html-keyboard-response,316,1267649,0.0-18.0-14.0-0.0,65950,List2A,white,woman,,,,null,,,,
2303,"<img src=""portrait/WM1.jpg""style=""width:400px;height:400px;""></img>",6,html-button-response,317,1269956,0.0-18.0-16.0,65950,List2A,white,woman,,TRUE,6,,,,,
null,CORRECT,,html-keyboard-response,318,1271466,0.0-18.0-17.0-0.0,65950,List2A,white,woman,,,,null,,,,
3794,"<img src=""portrait/WW1.jpg""style=""width:400px;height:400px;""></img>",1,html-button-response,319,1275263,0.0-18.0-19.0,65950,List2A,white,woman,,TRUE,1,,,,,
null,CORRECT,,html-keyboard-response,320,1276769,0.0-18.0-20.0-0.0,65950,List2A,white,woman,,,,null,,,,
1283,"<img src=""portrait/WM2.jpg""style=""width:400px;height:400px;""></img>",7,html-button-response,321,1278056,0.0-18.0-22.0,65950,List2A,white,woman,,TRUE,7,,,,,
null,CORRECT,,html-keyboard-response,322,1279560,0.0-18.0-23.0-0.0,65950,List2A,white,woman,,,,null,,,,
2448,<p>You got 8 out of 8 right first time. Press Continue.</p>,0,html-button-response,323,1282011,0.0-18.0-25.0,65950,List2A,white,woman,,,,,,,,
null,"<div style=""font-size:60px;"">+</div>",,html-keyboard-response,324,1283520,0.0-19.0-0.0,65950,List2A,white,woman,,,,null,,,,
null,"<img src=""stim_listA/kiss3.gif""</stim_listA>",,html-keyboard-response,325,1285526,0.0-19.0-1.0,65950,List2A,white,woman,,,,null,,,,
null,is kissing,,html-keyboard-response,326,1287532,0.0-19.0-2.0,65950,List2A,white,woman,,,,null,,,,
6053,,,survey-text,327,1293589,0.0-19.0-3.0,65950,List2A,white,woman,,,,,"{""Q0"":""fred is kissing beth""}","<img src=""stim_listA/kiss3.gif""</stim_listA>",is kissing,
null,"<div style=""font-size:60px;"">+</div>",,html-keyboard-response,328,1294094,0.0-19.0-0.1,65950,List2A,white,woman,,,,null,,,,
null,"<img src=""stim_listA/hug3.gif""</stim_listA>",,html-keyboard-response,329,1296098,0.0-19.0-1.1,65950,List2A,white,woman,,,,null,,,,
null,is hugging,,html-keyboard-response,330,1298102,0.0-19.0-2.1,65950,List2A,white,woman,,,,null,,,,
5974,,,survey-text,331,1304078,0.0-19.0-3.1,65950,List2A,white,woman,,,,,"{""Q0"":""fred is hugging beth""}","<img src=""stim_listA/hug3.gif""</stim_listA>",is hugging,
null,"<div style=""font-size:60px;"">+</div>",,html-keyboard-response,332,1304582,0.0-19.0-0.2,65950,List2A,white,woman,,,,null,,,,
null,"<img src=""stim_listA/dance4.gif""</stim_listA>",,html-keyboard-response,333,1306587,0.0-19.0-1.2,65950,List2A,white,woman,,,,null,,,,
null,are dancing with each other,,html-keyboard-response,334,1308590,0.0-19.0-2.2,65950,List2A,white,woman,,,,null,,,,
8753,,,survey-text,335,1317345,0.0-19.0-3.2,65950,List2A,white,woman,,,,,"{""Q0"":""beth and mike are dancing with each other""}","<img src=""stim_listA/dance4.gif""</stim_listA>",are dancing with each other,
null,"<div style=""font-size:60px;"">+</div>",,html-keyboard-response,336,1317850,0.0-19.0-0.3,65950,List2A,white,woman,,,,null,,,,
null,"<img src=""stim_listA/talk6.gif""</stim_listA>",,html-keyboard-response,337,1319853,0.0-19.0-1.3,65950,List2A,white,woman,,,,null,,,,
null,are talking to each other,,html-keyboard-response,338,1321859,0.0-19.0-2.3,65950,List2A,white,woman,,,,null,,,,
9357,,,survey-text,339,1331218,0.0-19.0-3.3,65950,List2A,white,woman,,,,,"{""Q0"":""fred and dave are talking to each other""}","<img src=""stim_listA/talk6.gif""</stim_listA>",are talking to each other,
null,"<div style=""font-size:60px;"">+</div>",,html-keyboard-response,340,1331724,0.0-19.0-0.4,65950,List2A,white,woman,,,,null,,,,
null,"<img src=""stim_listA/meet5.gif""</stim_listA>",,html-keyboard-response,341,1333727,0.0-19.0-1.4,65950,List2A,white,woman,,,,null,,,,
null,is meeting,,html-keyboard-response,342,1335731,0.0-19.0-2.4,65950,List2A,white,woman,,,,null,,,,
6625,,,survey-text,343,1342358,0.0-19.0-3.4,65950,List2A,white,woman,,,,,"{""Q0"":""dave is meeting mike""}","<img src=""stim_listA/meet5.gif""</stim_listA>",is meeting,
null,"<div style=""font-size:60px;"">+</div>",,html-keyboard-response,344,1342862,0.0-19.0-0.5,65950,List2A,white,woman,,,,null,,,,
null,"<img src=""stim_listA/shout2.gif""</stim_listA>",,html-keyboard-response,345,1344868,0.0-19.0-1.5,65950,List2A,white,woman,,,,null,,,,
null,are shouting at each other,,html-keyboard-response,346,1346871,0.0-19.0-2.5,65950,List2A,white,woman,,,,null,,,,
10790,,,survey-text,347,1357663,0.0-19.0-3.5,65950,List2A,white,woman,,,,,"{""Q0"":""jane and dave are shouting at each other""}","<img src=""stim_listA/shout2.gif""</stim_listA>",are shouting at each other,
null,"<div style=""font-size:60px;"">+</div>",,html-keyboard-response,348,1358166,0.0-19.0-0.6,65950,List2A,white,woman,,,,null,,,,
null,"<img src=""stim_listA/marry1.gif""</stim_listA>",,html-keyboard-response,349,1360171,0.0-19.0-1.6,65950,List2A,white,woman,,,,null,,,,
null,is marrying,,html-keyboard-response,350,1362178,0.0-19.0-2.6,65950,List2A,white,woman,,,,null,,,,
6607,,,survey-text,351,1368787,0.0-19.0-3.6,65950,List2A,white,woman,,,,,"{""Q0"":""dave is marrying ruth""}","<img src=""stim_listA/marry1.gif""</stim_listA>",is marrying,
null,"<div style=""font-size:60px;"">+</div>",,html-keyboard-response,352,1369289,0.0-19.0-0.7,65950,List2A,white,woman,,,,null,,,,
null,"<img src=""stim_listA/shout1.gif""</stim_listA>",,html-keyboard-response,353,1371293,0.0-19.0-1.7,65950,List2A,white,woman,,,,null,,,,
null,is shouting at,,html-keyboard-response,354,1373297,0.0-19.0-2.7,65950,List2A,white,woman,,,,null,,,,
6696,,,survey-text,355,1379996,0.0-19.0-3.7,65950,List2A,white,woman,,,,,"{""Q0"":""ruth is shouting at luke""}","<img src=""stim_listA/shout1.gif""</stim_listA>",is shouting at,
null,"<div style=""font-size:60px;"">+</div>",,html-keyboard-response,356,1380498,0.0-19.0-0.8,65950,List2A,white,woman,,,,null,,,,
null,"<img src=""stim_listA/touch7.gif""</stim_listA>",,html-keyboard-response,357,1382502,0.0-19.0-1.8,65950,List2A,white,woman,,,,null,,,,
null,is touching,,html-keyboard-response,358,1384507,0.0-19.0-2.8,65950,List2A,white,woman,,,,null,,,,
6624,,,survey-text,359,1391133,0.0-19.0-3.8,65950,List2A,white,woman,,,,,"{""Q0"":""jane is touching kate""}","<img src=""stim_listA/touch7.gif""</stim_listA>",is touching,
null,"<div style=""font-size:60px;"">+</div>",,html-keyboard-response,360,1391638,0.0-19.0-0.9,65950,List2A,white,woman,,,,null,,,,
null,"<img src=""stim_listA/touch1.gif""</stim_listA>",,html-keyboard-response,361,1393643,0.0-19.0-1.9,65950,List2A,white,woman,,,,null,,,,
null,is touching,,html-keyboard-response,362,1395647,0.0-19.0-2.9,65950,List2A,white,woman,,,,null,,,,
6057,,,survey-text,363,1401707,0.0-19.0-3.9,65950,List2A,white,woman,,,,,"{""Q0"":""dave is touching jane""}","<img src=""stim_listA/touch1.gif""</stim_listA>",is touching,
null,"<div style=""font-size:60px;"">+</div>",,html-keyboard-response,364,1402209,0.0-19.0-0.10,65950,List2A,white,woman,,,,null,,,,
null,"<img src=""stim_listA/kiss8.gif""</stim_listA>",,html-keyboard-response,365,1404213,0.0-19.0-1.10,65950,List2A,white,woman,,,,null,,,,
null,are kissing each other,,html-keyboard-response,366,1406215,0.0-19.0-2.10,65950,List2A,white,woman,,,,null,,,,
9319,,,survey-text,367,1415535,0.0-19.0-3.10,65950,List2A,white,woman,,,,,"{""Q0"":""kate and jane are kissing each other""}","<img src=""stim_listA/kiss8.gif""</stim_listA>",are kissing each other,
null,"<div style=""font-size:60px;"">+</div>",,html-keyboard-response,368,1416040,0.0-19.0-0.11,65950,List2A,white,woman,,,,null,,,,
null,"<img src=""stim_listA/shout3.gif""</stim_listA>",,html-keyboard-response,369,1418046,0.0-19.0-1.11,65950,List2A,white,woman,,,,null,,,,
null,is shouting at,,html-keyboard-response,370,1420051,0.0-19.0-2.11,65950,List2A,white,woman,,,,null,,,,
11735,,,survey-text,371,1431789,0.0-19.0-3.11,65950,List2A,white,woman,,,,,"{""Q0"":""fred and beth are yelling at each other""}","<img src=""stim_listA/shout3.gif""</stim_listA>",is shouting at,
null,"<div style=""font-size:60px;"">+</div>",,html-keyboard-response,372,1432293,0.0-19.0-0.12,65950,List2A,white,woman,,,,null,,,,
null,"<img src=""stim_listA/argue4.gif""</stim_listA>",,html-keyboard-response,373,1434299,0.0-19.0-1.12,65950,List2A,white,woman,,,,null,,,,
null,are arguing with each other,,html-keyboard-response,374,1436302,0.0-19.0-2.12,65950,List2A,white,woman,,,,null,,,,
11730,,,survey-text,375,1448035,0.0-19.0-3.12,65950,List2A,white,woman,,,,,"{""Q0"":""kate and fred are arguing with each other""}","<img src=""stim_listA/argue4.gif""</stim_listA>",are arguing with each other,
null,"<div style=""font-size:60px;"">+</div>",,html-keyboard-response,376,1448539,0.0-19.0-0.13,65950,List2A,white,woman,,,,null,,,,
null,"<img src=""stim_listA/fight6.gif""</stim_listA>",,html-keyboard-response,377,1450544,0.0-19.0-1.13,65950,List2A,white,woman,,,,null,,,,
null,are fighting each other,,html-keyboard-response,378,1452549,0.0-19.0-2.13,65950,List2A,white,woman,,,,null,,,,
8737,,,survey-text,379,1461288,0.0-19.0-3.13,65950,List2A,white,woman,,,,,"{""Q0"":""fred and luke are fighting each other""}","<img src=""stim_listA/fight6.gif""</stim_listA>",are fighting each other,
null,"<div style=""font-size:60px;"">+</div>",,html-keyboard-response,380,1461795,0.0-19.0-0.14,65950,List2A,white,woman,,,,null,,,,
null,"<img src=""stim_listA/dance6.gif""</stim_listA>",,html-keyboard-response,381,1463798,0.0-19.0-1.14,65950,List2A,white,woman,,,,null,,,,
null,are dancing with each other,,html-keyboard-response,382,1465805,0.0-19.0-2.14,65950,List2A,white,woman,,,,null,,,,
10015,,,survey-text,383,1475823,0.0-19.0-3.14,65950,List2A,white,woman,,,,,"{""Q0"":""dave and fred are dancing with each other""}","<img src=""stim_listA/dance6.gif""</stim_listA>",are dancing with each other,
null,"<div style=""font-size:60px;"">+</div>",,html-keyboard-response,384,1476327,0.0-19.0-0.15,65950,List2A,white,woman,,,,null,,,,
null,"<img src=""stim_listA/talk2.gif""</stim_listA>",,html-keyboard-response,385,1478333,0.0-19.0-1.15,65950,List2A,white,woman,,,,null,,,,
null,are talking to each other,,html-keyboard-response,386,1480337,0.0-19.0-2.15,65950,List2A,white,woman,,,,null,,,,
10868,,,survey-text,387,1491207,0.0-19.0-3.15,65950,List2A,white,woman,,,,,"{""Q0"":""dave and ruth are talking to each other""}","<img src=""stim_listA/talk2.gif""</stim_listA>",are talking to each other,
null,"<div style=""font-size:60px;"">+</div>",,html-keyboard-response,388,1491709,0.0-19.0-0.16,65950,List2A,white,woman,,,,null,,,,
null,"<img src=""stim_listA/touch6.gif""</stim_listA>",,html-keyboard-response,389,1493718,0.0-19.0-1.16,65950,List2A,white,woman,,,,null,,,,
null,are touching each other,,html-keyboard-response,390,1495723,0.0-19.0-2.16,65950,List2A,white,woman,,,,null,,,,
8644,,,survey-text,391,1504369,0.0-19.0-3.16,65950,List2A,white,woman,,,,,"{""Q0"":""luke and fred are touching each other""}","<img src=""stim_listA/touch6.gif""</stim_listA>",are touching each other,
null,"<div style=""font-size:60px;"">+</div>",,html-keyboard-response,392,1504871,0.0-19.0-0.17,65950,List2A,white,woman,,,,null,,,,
null,"<img src=""stim_listA/meet8.gif""</stim_listA>",,html-keyboard-response,393,1506876,0.0-19.0-1.17,65950,List2A,white,woman,,,,null,,,,
null,are meeting each other,,html-keyboard-response,394,1508880,0.0-19.0-2.17,65950,List2A,white,woman,,,,null,,,,
10890,,,survey-text,395,1519772,0.0-19.0-3.17,65950,List2A,white,woman,,,,,"{""Q0"":""beth and ruth are meeting each other""}","<img src=""stim_listA/meet8.gif""</stim_listA>",are meeting each other,
null,"<div style=""font-size:60px;"">+</div>",,html-keyboard-response,396,1520278,0.0-19.0-0.18,65950,List2A,white,woman,,,,null,,,,
null,"<img src=""stim_listA/kiss5.gif""</stim_listA>",,html-keyboard-response,397,1522281,0.0-19.0-1.18,65950,List2A,white,woman,,,,null,,,,
null,is kissing,,html-keyboard-response,398,1524286,0.0-19.0-2.18,65950,List2A,white,woman,,,,null,,,,
9733,,,survey-text,399,1534023,0.0-19.0-3.18,65950,List2A,white,woman,,,,,"{""Q0"":""luke is kissing fred""}","<img src=""stim_listA/kiss5.gif""</stim_listA>",is kissing,
null,"<div style=""font-size:60px;"">+</div>",,html-keyboard-response,400,1534526,0.0-19.0-0.19,65950,List2A,white,woman,,,,null,,,,
null,"<img src=""stim_listA/hug8.gif""</stim_listA>",,html-keyboard-response,401,1536530,0.0-19.0-1.19,65950,List2A,white,woman,,,,null,,,,
null,are hugging each other,,html-keyboard-response,402,1538533,0.0-19.0-2.19,65950,List2A,white,woman,,,,null,,,,
12370,,,survey-text,403,1550907,0.0-19.0-3.19,65950,List2A,white,woman,,,,,"{""Q0"":""kate and jane are hugging each other""}","<img src=""stim_listA/hug8.gif""</stim_listA>",are hugging each other,
1754,<p>Thank you for completing that task.</p><p>The final part of this session is a short questionnaire.</p><p>Press Continue.</p>,0,html-button-response,404,1552663,0.0-20.0,65950,List2A,white,woman,,,,,,,,
24501,,,survey-text,405,1578172,0.0-21.0,65950,List2A,white,woman,,,,,"{""Q0"":""23"",""Q1"":""english"",""Q2"":""english"",""Q3"":""canada"",""Q4"":""white"",""Q5"":""female""}",,,demographics
65303,,,survey-likert,406,1643494,0.0-22.0,65950,List2A,white,woman,,,,,"{""Q0"":1,""Q1"":1,""Q2"":1,""Q3"":3,""Q4"":1,""Q5"":3,""Q6"":3,""Q7"":3,""Q8"":2,""Q9"":1,""Q10"":3,""Q11"":3,""Q12"":3,""Q13"":3}",,,likert_race
51166,,,survey-likert,407,1694673,0.0-23.0,65950,List2A,white,woman,,,,,"{""Q0"":4,""Q1"":4,""Q2"":6,""Q3"":3,""Q4"":5,""Q5"":2,""Q6"":4,""Q7"":3,""Q8"":5,""Q9"":5,""Q10"":3,""Q11"":3,""Q12"":3,""Q13"":3}",,,likert_gender
9865,,,survey-text,408,1704542,0.0-24.0,65950,List2A,white,woman,,,,,"{""Q0"":""ccc""}",,,worker_id
7739,,,external-html,409,1712624,0.0-25.0,65950,List2A,white,woman,debrief.html,,,,,,,
