rt,stimulus,button_pressed,trial_type,trial_index,time_elapsed,internal_node_id,subject,list,ppt_race,ppt_gender,url,first_guess,correct,key_press,responses,image_type,phrase_type,test_part
4565,Welcome to the experiment. Press Continue to begin.,0,html-button-response,0,4634,0.0-0.0,66175,List2A,white,woman,,,,,,,,
107585,,,external-html,1,113460,0.0-1.0,66175,List2A,white,woman,consent.html,,,,,,,
15055,"<p>On the next page, you will see portraits of 8 people and their names.</p><p>Your first task is to take a few minutes to memorise the names of these people.</p><p>You will have to recall their names during the rest of the experiment, so it is</p><p>essential that you try to memorise these people and their names as best as you can.</p><br><p><strong>You will then be tested on your memory of these names and portraits.</strong></p><br><p>The experiment will start after you have completed this memory test.</p><br><p>Ready?</p>",0,html-button-response,2,128518,0.0-2.0,66175,List2A,white,woman,,,,,,,,
61377,"<img src='img/portrait_matrix_list2.JPG' style='width:900px;height:500px;''></img><p>If you have memorised all the portraits and names and are ready to start, press Continue.</p><p><strong>Please note: Your memory of these faces will be tested 4 times during this experiment.</strong></p>",0,html-button-response,3,190908,0.0-3.0-0.0,66175,List2A,white,woman,,,,,,,,
6717,"<img src=""portrait/BW2.jpg""style=""width:400px;height:400px;""></img>",0,html-button-response,4,198630,0.0-3.0-1.0,66175,List2A,white,woman,,TRUE,2,,,,,
6153,"<img src=""portrait/BW2.jpg""style=""width:400px;height:400px;""></img>",2,html-button-response,5,205797,0.0-3.0-3.0-0.0,66175,List2A,white,woman,,FALSE,2,,,,,
null,CORRECT,,html-keyboard-response,6,207318,0.0-3.0-3.0-1.0-0.0,66175,List2A,white,woman,,,,null,,,,
3715,"<img src=""portrait/BM1.jpg""style=""width:400px;height:400px;""></img>",4,html-button-response,7,211036,0.0-3.0-4.0,66175,List2A,white,woman,,TRUE,4,,,,,
null,CORRECT,,html-keyboard-response,8,212550,0.0-3.0-5.0-0.0,66175,List2A,white,woman,,,,null,,,,
4636,"<img src=""portrait/BW1.jpg""style=""width:400px;height:400px;""></img>",0,html-button-response,9,217188,0.0-3.0-7.0,66175,List2A,white,woman,,TRUE,0,,,,,
null,CORRECT,,html-keyboard-response,10,218697,0.0-3.0-8.0-0.0,66175,List2A,white,woman,,,,null,,,,
3443,"<img src=""portrait/WW2.jpg""style=""width:400px;height:400px;""></img>",1,html-button-response,11,222142,0.0-3.0-10.0,66175,List2A,white,woman,,TRUE,3,,,,,
4170,"<img src=""portrait/WW2.jpg""style=""width:400px;height:400px;""></img>",3,html-button-response,12,227319,0.0-3.0-12.0-0.0,66175,List2A,white,woman,,FALSE,3,,,,,
null,CORRECT,,html-keyboard-response,13,228848,0.0-3.0-12.0-1.0-0.0,66175,List2A,white,woman,,,,null,,,,
5460,"<img src=""portrait/WM1.jpg""style=""width:400px;height:400px;""></img>",6,html-button-response,14,234311,0.0-3.0-13.0,66175,List2A,white,woman,,TRUE,6,,,,,
null,CORRECT,,html-keyboard-response,15,235817,0.0-3.0-14.0-0.0,66175,List2A,white,woman,,,,null,,,,
4264,"<img src=""portrait/WM2.jpg""style=""width:400px;height:400px;""></img>",7,html-button-response,16,240084,0.0-3.0-16.0,66175,List2A,white,woman,,TRUE,7,,,,,
null,CORRECT,,html-keyboard-response,17,241591,0.0-3.0-17.0-0.0,66175,List2A,white,woman,,,,null,,,,
3667,"<img src=""portrait/BM2.jpg""style=""width:400px;height:400px;""></img>",4,html-button-response,18,245261,0.0-3.0-19.0,66175,List2A,white,woman,,TRUE,5,,,,,
3000,"<img src=""portrait/BM2.jpg""style=""width:400px;height:400px;""></img>",5,html-button-response,19,249277,0.0-3.0-21.0-0.0,66175,List2A,white,woman,,FALSE,5,,,,,
null,CORRECT,,html-keyboard-response,20,250790,0.0-3.0-21.0-1.0-0.0,66175,List2A,white,woman,,,,null,,,,
4130,"<img src=""portrait/WW1.jpg""style=""width:400px;height:400px;""></img>",1,html-button-response,21,254922,0.0-3.0-22.0,66175,List2A,white,woman,,TRUE,1,,,,,
null,CORRECT,,html-keyboard-response,22,256434,0.0-3.0-23.0-0.0,66175,List2A,white,woman,,,,null,,,,
3252,<p>You got 5 out of 8 right first time. Press Continue.</p>,0,html-button-response,23,259689,0.0-3.0-25.0,66175,List2A,white,woman,,,,,,,,
5006,"As you did not score 100%, the memory game will repeat. Press Continue.",0,html-button-response,24,265706,0.0-3.0-26.0-0.0,66175,List2A,white,woman,,,,,,,,
48245,"<img src='img/portrait_matrix_list2.JPG' style='width:900px;height:500px;''></img><p>If you have memorised all the portraits and names and are ready to start, press Continue.</p><p><strong>Please note: Your memory of these faces will be tested 4 times during this experiment.</strong></p>",0,html-button-response,25,314964,0.0-3.1-0.1,66175,List2A,white,woman,,,,,,,,
6073,"<img src=""portrait/BW2.jpg""style=""width:400px;height:400px;""></img>",2,html-button-response,26,322045,0.0-3.1-1.1,66175,List2A,white,woman,,TRUE,2,,,,,
null,CORRECT,,html-keyboard-response,27,323562,0.0-3.1-2.1-0.1,66175,List2A,white,woman,,,,null,,,,
9168,"<img src=""portrait/BM1.jpg""style=""width:400px;height:400px;""></img>",4,html-button-response,28,332732,0.0-3.1-4.1,66175,List2A,white,woman,,TRUE,4,,,,,
null,CORRECT,,html-keyboard-response,29,334236,0.0-3.1-5.1-0.1,66175,List2A,white,woman,,,,null,,,,
6512,"<img src=""portrait/BW1.jpg""style=""width:400px;height:400px;""></img>",0,html-button-response,30,340751,0.0-3.1-7.1,66175,List2A,white,woman,,TRUE,0,,,,,
null,CORRECT,,html-keyboard-response,31,342258,0.0-3.1-8.1-0.1,66175,List2A,white,woman,,,,null,,,,
6940,"<img src=""portrait/WW2.jpg""style=""width:400px;height:400px;""></img>",3,html-button-response,32,349200,0.0-3.1-10.1,66175,List2A,white,woman,,TRUE,3,,,,,
null,CORRECT,,html-keyboard-response,33,350719,0.0-3.1-11.1-0.1,66175,List2A,white,woman,,,,null,,,,
4076,"<img src=""portrait/WM1.jpg""style=""width:400px;height:400px;""></img>",6,html-button-response,34,354797,0.0-3.1-13.1,66175,List2A,white,woman,,TRUE,6,,,,,
null,CORRECT,,html-keyboard-response,35,356302,0.0-3.1-14.1-0.1,66175,List2A,white,woman,,,,null,,,,
3892,"<img src=""portrait/WM2.jpg""style=""width:400px;height:400px;""></img>",7,html-button-response,36,360196,0.0-3.1-16.1,66175,List2A,white,woman,,TRUE,7,,,,,
null,CORRECT,,html-keyboard-response,37,361721,0.0-3.1-17.1-0.1,66175,List2A,white,woman,,,,null,,,,
4737,"<img src=""portrait/BM2.jpg""style=""width:400px;height:400px;""></img>",5,html-button-response,38,366461,0.0-3.1-19.1,66175,List2A,white,woman,,TRUE,5,,,,,
null,CORRECT,,html-keyboard-response,39,367968,0.0-3.1-20.1-0.1,66175,List2A,white,woman,,,,null,,,,
5926,"<img src=""portrait/WW1.jpg""style=""width:400px;height:400px;""></img>",3,html-button-response,40,373898,0.0-3.1-22.1,66175,List2A,white,woman,,TRUE,1,,,,,
4903,"<img src=""portrait/WW1.jpg""style=""width:400px;height:400px;""></img>",1,html-button-response,41,379817,0.0-3.1-24.1-0.1,66175,List2A,white,woman,,FALSE,1,,,,,
null,CORRECT,,html-keyboard-response,42,381327,0.0-3.1-24.1-1.1-0.1,66175,List2A,white,woman,,,,null,,,,
2836,<p>You got 7 out of 8 right first time. Press Continue.</p>,0,html-button-response,43,384165,0.0-3.1-25.1,66175,List2A,white,woman,,,,,,,,
2805,"As you did not score 100%, the memory game will repeat. Press Continue.",0,html-button-response,44,387982,0.0-3.1-26.1-0.1,66175,List2A,white,woman,,,,,,,,
16023,"<img src='img/portrait_matrix_list2.JPG' style='width:900px;height:500px;''></img><p>If you have memorised all the portraits and names and are ready to start, press Continue.</p><p><strong>Please note: Your memory of these faces will be tested 4 times during this experiment.</strong></p>",0,html-button-response,45,405018,0.0-3.2-0.2,66175,List2A,white,woman,,,,,,,,
5631,"<img src=""portrait/BW2.jpg""style=""width:400px;height:400px;""></img>",2,html-button-response,46,411654,0.0-3.2-1.2,66175,List2A,white,woman,,TRUE,2,,,,,
null,CORRECT,,html-keyboard-response,47,413172,0.0-3.2-2.2-0.2,66175,List2A,white,woman,,,,null,,,,
7683,"<img src=""portrait/BM1.jpg""style=""width:400px;height:400px;""></img>",4,html-button-response,48,420859,0.0-3.2-4.2,66175,List2A,white,woman,,TRUE,4,,,,,
null,CORRECT,,html-keyboard-response,49,422380,0.0-3.2-5.2-0.2,66175,List2A,white,woman,,,,null,,,,
5817,"<img src=""portrait/BW1.jpg""style=""width:400px;height:400px;""></img>",0,html-button-response,50,428200,0.0-3.2-7.2,66175,List2A,white,woman,,TRUE,0,,,,,
null,CORRECT,,html-keyboard-response,51,429712,0.0-3.2-8.2-0.2,66175,List2A,white,woman,,,,null,,,,
12707,"<img src=""portrait/WW2.jpg""style=""width:400px;height:400px;""></img>",3,html-button-response,52,442423,0.0-3.2-10.2,66175,List2A,white,woman,,TRUE,3,,,,,
null,CORRECT,,html-keyboard-response,53,443927,0.0-3.2-11.2-0.2,66175,List2A,white,woman,,,,null,,,,
3074,"<img src=""portrait/WM1.jpg""style=""width:400px;height:400px;""></img>",6,html-button-response,54,447007,0.0-3.2-13.2,66175,List2A,white,woman,,TRUE,6,,,,,
null,CORRECT,,html-keyboard-response,55,448532,0.0-3.2-14.2-0.2,66175,List2A,white,woman,,,,null,,,,
2784,"<img src=""portrait/WM2.jpg""style=""width:400px;height:400px;""></img>",7,html-button-response,56,451319,0.0-3.2-16.2,66175,List2A,white,woman,,TRUE,7,,,,,
null,CORRECT,,html-keyboard-response,57,452839,0.0-3.2-17.2-0.2,66175,List2A,white,woman,,,,null,,,,
4149,"<img src=""portrait/BM2.jpg""style=""width:400px;height:400px;""></img>",5,html-button-response,58,456990,0.0-3.2-19.2,66175,List2A,white,woman,,TRUE,5,,,,,
null,CORRECT,,html-keyboard-response,59,458512,0.0-3.2-20.2-0.2,66175,List2A,white,woman,,,,null,,,,
4974,"<img src=""portrait/WW1.jpg""style=""width:400px;height:400px;""></img>",1,html-button-response,60,463489,0.0-3.2-22.2,66175,List2A,white,woman,,TRUE,1,,,,,
null,CORRECT,,html-keyboard-response,61,465021,0.0-3.2-23.2-0.2,66175,List2A,white,woman,,,,null,,,,
2890,<p>You got 8 out of 8 right first time. Press Continue.</p>,0,html-button-response,62,467913,0.0-3.2-25.2,66175,List2A,white,woman,,,,,,,,
47231,"<p>In this experiment, you will view photographs of the people from the memory game interacting.</p><p>By using the <strong>exact</strong> phrase given <i>after</i> the photograph appears and recalling the correct names of the people in the photographs, form a sentence describing the interaction. You do not need to capitalise names.</p><p>Type your answer in the space provided. Please complete every sentence before moving onto the next trial.</p><p>You will only have a few seconds to memorise each given photograph and phrase before you can respond, so try your best to focus.</p><p>An example is given below. Press 'Continue' when you are ready.</p><img src='img/speaking_example_v2.jpg' style='width:800px;height:460px;''></img>",0,html-button-response,63,516148,0.0-4.0,66175,List2A,white,woman,,,,,,,,
3022,"<p>Before the experiment starts, you will watch two example trials. Press 'Continue'.</p>",0,html-button-response,64,520175,0.0-5.0,66175,List2A,white,woman,,,,,,,,
null,<img src='img/speaking_WW.gif'></img>,,html-keyboard-response,65,523188,0.0-6.0,66175,List2A,white,woman,,,,null,,,,
null,<p>is speaking to</p>,,html-keyboard-response,66,525203,0.0-7.0,66175,List2A,white,woman,,,,null,,,,
7894,<p><b>Answer:</b> jane is speaking to ruth</p>,0,html-button-response,67,533099,0.0-8.0,66175,List2A,white,woman,,,,,,,,
null,<img src='img/pointing_BM.gif'></img>,,html-keyboard-response,68,536105,0.0-9.0,66175,List2A,white,woman,,,,null,,,,
null,<p>are pointing at each other</p>,,html-keyboard-response,69,538118,0.0-10.0,66175,List2A,white,woman,,,,null,,,,
9680,<p><b>Answer:</b> fred and mike are pointing at each other</p>,0,html-button-response,70,547800,0.0-11.0,66175,List2A,white,woman,,,,,,,,
7520,"<p>Ready to start the experiment?</p><br><p><strong>Remember to describe the picture using a full sentence,</strong></p><p><strong>that combines the names of the people with the given phrase.</strong></p><p><strong>If you do not do this correctly you will not be paid.</strong></p><p><strong> You do not need to capitalise names or use punctuation.</strong></p><br><p>Press 'Continue' to begin.</p>",0,html-button-response,71,556326,0.0-12.0,66175,List2A,white,woman,,,,,,,,
null,"<div style=""font-size:60px;"">+</div>",,html-keyboard-response,72,557844,0.0-13.0-0.0,66175,List2A,white,woman,,,,null,,,,
null,"<img src=""stim_listA/touch6.gif""</stim_listA>",,html-keyboard-response,73,559862,0.0-13.0-1.0,66175,List2A,white,woman,,,,null,,,,
null,are touching each other,,html-keyboard-response,74,561865,0.0-13.0-2.0,66175,List2A,white,woman,,,,null,,,,
21010,,,survey-text,75,582878,0.0-13.0-3.0,66175,List2A,white,woman,,,,,"{""Q0"":""Luke is speaking to fred""}","<img src=""stim_listA/touch6.gif""</stim_listA>",are touching each other,
null,"<div style=""font-size:60px;"">+</div>",,html-keyboard-response,76,583380,0.0-13.0-0.1,66175,List2A,white,woman,,,,null,,,,
null,"<img src=""stim_listA/touch1.gif""</stim_listA>",,html-keyboard-response,77,585392,0.0-13.0-1.1,66175,List2A,white,woman,,,,null,,,,
null,is touching,,html-keyboard-response,78,587403,0.0-13.0-2.1,66175,List2A,white,woman,,,,null,,,,
30591,,,survey-text,79,617996,0.0-13.0-3.1,66175,List2A,white,woman,,,,,"{""Q0"":""jane is touching dave""}","<img src=""stim_listA/touch1.gif""</stim_listA>",is touching,
null,"<div style=""font-size:60px;"">+</div>",,html-keyboard-response,80,618505,0.0-13.0-0.2,66175,List2A,white,woman,,,,null,,,,
null,"<img src=""stim_listA/marry5.gif""</stim_listA>",,html-keyboard-response,81,620519,0.0-13.0-1.2,66175,List2A,white,woman,,,,null,,,,
null,is marrying,,html-keyboard-response,82,622534,0.0-13.0-2.2,66175,List2A,white,woman,,,,null,,,,
37985,,,survey-text,83,660521,0.0-13.0-3.2,66175,List2A,white,woman,,,,,"{""Q0"":""luke is touching fred""}","<img src=""stim_listA/marry5.gif""</stim_listA>",is marrying,
null,"<div style=""font-size:60px;"">+</div>",,html-keyboard-response,84,661025,0.0-13.0-0.3,66175,List2A,white,woman,,,,null,,,,
null,"<img src=""stim_listA/argue1.gif""</stim_listA>",,html-keyboard-response,85,663049,0.0-13.0-1.3,66175,List2A,white,woman,,,,null,,,,
null,is arguing with,,html-keyboard-response,86,665061,0.0-13.0-2.3,66175,List2A,white,woman,,,,null,,,,
15617,,,survey-text,87,680680,0.0-13.0-3.3,66175,List2A,white,woman,,,,,"{""Q0"":""dave is argueing with ruth""}","<img src=""stim_listA/argue1.gif""</stim_listA>",is arguing with,
null,"<div style=""font-size:60px;"">+</div>",,html-keyboard-response,88,681193,0.0-13.0-0.4,66175,List2A,white,woman,,,,null,,,,
null,"<img src=""stim_listA/argue5.gif""</stim_listA>",,html-keyboard-response,89,683205,0.0-13.0-1.4,66175,List2A,white,woman,,,,null,,,,
null,is arguing with,,html-keyboard-response,90,685216,0.0-13.0-2.4,66175,List2A,white,woman,,,,null,,,,
22681,,,survey-text,91,707899,0.0-13.0-3.4,66175,List2A,white,woman,,,,,"{""Q0"":""dave is argueing with fred""}","<img src=""stim_listA/argue5.gif""</stim_listA>",is arguing with,
null,"<div style=""font-size:60px;"">+</div>",,html-keyboard-response,92,708406,0.0-13.0-0.5,66175,List2A,white,woman,,,,null,,,,
null,"<img src=""stim_listA/argue2.gif""</stim_listA>",,html-keyboard-response,93,710411,0.0-13.0-1.5,66175,List2A,white,woman,,,,null,,,,
null,are arguing with each other,,html-keyboard-response,94,712423,0.0-13.0-2.5,66175,List2A,white,woman,,,,null,,,,
52100,,,survey-text,95,764525,0.0-13.0-3.5,66175,List2A,white,woman,,,,,"{""Q0"":""dave and jane are arguing with each other""}","<img src=""stim_listA/argue2.gif""</stim_listA>",are arguing with each other,
null,"<div style=""font-size:60px;"">+</div>",,html-keyboard-response,96,765036,0.0-13.0-0.6,66175,List2A,white,woman,,,,null,,,,
null,"<img src=""stim_listA/shout8.gif""</stim_listA>",,html-keyboard-response,97,767040,0.0-13.0-1.6,66175,List2A,white,woman,,,,null,,,,
null,are shouting at each other,,html-keyboard-response,98,769049,0.0-13.0-2.6,66175,List2A,white,woman,,,,null,,,,
34608,,,survey-text,99,803659,0.0-13.0-3.6,66175,List2A,white,woman,,,,,"{""Q0"":""luke and jane are shouting at each other""}","<img src=""stim_listA/shout8.gif""</stim_listA>",are shouting at each other,
null,"<div style=""font-size:60px;"">+</div>",,html-keyboard-response,100,804169,0.0-13.0-0.7,66175,List2A,white,woman,,,,null,,,,
null,"<img src=""stim_listA/touch7.gif""</stim_listA>",,html-keyboard-response,101,806186,0.0-13.0-1.7,66175,List2A,white,woman,,,,null,,,,
null,is touching,,html-keyboard-response,102,808199,0.0-13.0-2.7,66175,List2A,white,woman,,,,null,,,,
22566,,,survey-text,103,830767,0.0-13.0-3.7,66175,List2A,white,woman,,,,,"{""Q0"":""kate is touching jane""}","<img src=""stim_listA/touch7.gif""</stim_listA>",is touching,
null,"<div style=""font-size:60px;"">+</div>",,html-keyboard-response,104,831279,0.0-13.0-0.8,66175,List2A,white,woman,,,,null,,,,
null,"<img src=""stim_listA/marry8.gif""</stim_listA>",,html-keyboard-response,105,833283,0.0-13.0-1.8,66175,List2A,white,woman,,,,null,,,,
null,are marrying each other,,html-keyboard-response,106,835290,0.0-13.0-2.8,66175,List2A,white,woman,,,,null,,,,
46063,,,survey-text,107,881355,0.0-13.0-3.8,66175,List2A,white,woman,,,,,"{""Q0"":""ruth and kate are marrying each other""}","<img src=""stim_listA/marry8.gif""</stim_listA>",are marrying each other,
null,"<div style=""font-size:60px;"">+</div>",,html-keyboard-response,108,881860,0.0-13.0-0.9,66175,List2A,white,woman,,,,null,,,,
null,"<img src=""stim_listA/marry2.gif""</stim_listA>",,html-keyboard-response,109,883871,0.0-13.0-1.9,66175,List2A,white,woman,,,,null,,,,
null,are marrying each other,,html-keyboard-response,110,885888,0.0-13.0-2.9,66175,List2A,white,woman,,,,null,,,,
20597,,,survey-text,111,906487,0.0-13.0-3.9,66175,List2A,white,woman,,,,,"{""Q0"":""luke and jane are marrying each other""}","<img src=""stim_listA/marry2.gif""</stim_listA>",are marrying each other,
null,"<div style=""font-size:60px;"">+</div>",,html-keyboard-response,112,906992,0.0-13.0-0.10,66175,List2A,white,woman,,,,null,,,,
null,"<img src=""stim_listA/hug3.gif""</stim_listA>",,html-keyboard-response,113,908996,0.0-13.0-1.10,66175,List2A,white,woman,,,,null,,,,
null,is hugging,,html-keyboard-response,114,911009,0.0-13.0-2.10,66175,List2A,white,woman,,,,null,,,,
30013,,,survey-text,115,941024,0.0-13.0-3.10,66175,List2A,white,woman,,,,,"{""Q0"":""fred and beth are hugging""}","<img src=""stim_listA/hug3.gif""</stim_listA>",is hugging,
null,"<div style=""font-size:60px;"">+</div>",,html-keyboard-response,116,941526,0.0-13.0-0.11,66175,List2A,white,woman,,,,null,,,,
null,"<img src=""stim_listA/talk3.gif""</stim_listA>",,html-keyboard-response,117,943542,0.0-13.0-1.11,66175,List2A,white,woman,,,,null,,,,
null,is talking to,,html-keyboard-response,118,945557,0.0-13.0-2.11,66175,List2A,white,woman,,,,null,,,,
14803,,,survey-text,119,960362,0.0-13.0-3.11,66175,List2A,white,woman,,,,,"{""Q0"":""fred is talking to kate""}","<img src=""stim_listA/talk3.gif""</stim_listA>",is talking to,
null,"<div style=""font-size:60px;"">+</div>",,html-keyboard-response,120,960876,0.0-13.0-0.12,66175,List2A,white,woman,,,,null,,,,
null,"<img src=""stim_listA/kiss6.gif""</stim_listA>",,html-keyboard-response,121,962881,0.0-13.0-1.12,66175,List2A,white,woman,,,,null,,,,
null,are kissing each other,,html-keyboard-response,122,964896,0.0-13.0-2.12,66175,List2A,white,woman,,,,null,,,,
20129,,,survey-text,123,985028,0.0-13.0-3.12,66175,List2A,white,woman,,,,,"{""Q0"":""dave and mike are kissing each other""}","<img src=""stim_listA/kiss6.gif""</stim_listA>",are kissing each other,
null,"<div style=""font-size:60px;"">+</div>",,html-keyboard-response,124,985530,0.0-13.0-0.13,66175,List2A,white,woman,,,,null,,,,
null,"<img src=""stim_listA/fight1.gif""</stim_listA>",,html-keyboard-response,125,987539,0.0-13.0-1.13,66175,List2A,white,woman,,,,null,,,,
null,is fighting,,html-keyboard-response,126,989552,0.0-13.0-2.13,66175,List2A,white,woman,,,,null,,,,
27059,,,survey-text,127,1016613,0.0-13.0-3.13,66175,List2A,white,woman,,,,,"{""Q0"":""dave is fighting jane""}","<img src=""stim_listA/fight1.gif""</stim_listA>",is fighting,
null,"<div style=""font-size:60px;"">+</div>",,html-keyboard-response,128,1017129,0.0-13.0-0.14,66175,List2A,white,woman,,,,null,,,,
null,"<img src=""stim_listA/argue4.gif""</stim_listA>",,html-keyboard-response,129,1019134,0.0-13.0-1.14,66175,List2A,white,woman,,,,null,,,,
null,are arguing with each other,,html-keyboard-response,130,1021151,0.0-13.0-2.14,66175,List2A,white,woman,,,,null,,,,
26910,,,survey-text,131,1048063,0.0-13.0-3.14,66175,List2A,white,woman,,,,,"{""Q0"":""fred and kate are arguing with each other""}","<img src=""stim_listA/argue4.gif""</stim_listA>",are arguing with each other,
null,"<div style=""font-size:60px;"">+</div>",,html-keyboard-response,132,1048575,0.0-13.0-0.15,66175,List2A,white,woman,,,,null,,,,
null,"<img src=""stim_listA/talk2.gif""</stim_listA>",,html-keyboard-response,133,1050579,0.0-13.0-1.15,66175,List2A,white,woman,,,,null,,,,
null,are talking to each other,,html-keyboard-response,134,1052588,0.0-13.0-2.15,66175,List2A,white,woman,,,,null,,,,
26788,,,survey-text,135,1079378,0.0-13.0-3.15,66175,List2A,white,woman,,,,,"{""Q0"":""ruth and dave are talking to each other""}","<img src=""stim_listA/talk2.gif""</stim_listA>",are talking to each other,
null,"<div style=""font-size:60px;"">+</div>",,html-keyboard-response,136,1079881,0.0-13.0-0.16,66175,List2A,white,woman,,,,null,,,,
null,"<img src=""stim_listA/fight3.gif""</stim_listA>",,html-keyboard-response,137,1081891,0.0-13.0-1.16,66175,List2A,white,woman,,,,null,,,,
null,is fighting,,html-keyboard-response,138,1083902,0.0-13.0-2.16,66175,List2A,white,woman,,,,null,,,,
24133,,,survey-text,139,1108037,0.0-13.0-3.16,66175,List2A,white,woman,,,,,"{""Q0"":""mike is fighting with kate""}","<img src=""stim_listA/fight3.gif""</stim_listA>",is fighting,
null,"<div style=""font-size:60px;"">+</div>",,html-keyboard-response,140,1108540,0.0-13.0-0.17,66175,List2A,white,woman,,,,null,,,,
null,"<img src=""stim_listA/talk1.gif""</stim_listA>",,html-keyboard-response,141,1110546,0.0-13.0-1.17,66175,List2A,white,woman,,,,null,,,,
null,is talking to,,html-keyboard-response,142,1112558,0.0-13.0-2.17,66175,List2A,white,woman,,,,null,,,,
28113,,,survey-text,143,1140674,0.0-13.0-3.17,66175,List2A,white,woman,,,,,"{""Q0"":""luke is talking to jane""}","<img src=""stim_listA/talk1.gif""</stim_listA>",is talking to,
null,"<div style=""font-size:60px;"">+</div>",,html-keyboard-response,144,1141178,0.0-13.0-0.18,66175,List2A,white,woman,,,,null,,,,
null,"<img src=""stim_listA/marry3.gif""</stim_listA>",,html-keyboard-response,145,1143182,0.0-13.0-1.18,66175,List2A,white,woman,,,,null,,,,
null,is marrying,,html-keyboard-response,146,1145185,0.0-13.0-2.18,66175,List2A,white,woman,,,,null,,,,
15577,,,survey-text,147,1160763,0.0-13.0-3.18,66175,List2A,white,woman,,,,,"{""Q0"":""mike is marrying beth""}","<img src=""stim_listA/marry3.gif""</stim_listA>",is marrying,
null,"<div style=""font-size:60px;"">+</div>",,html-keyboard-response,148,1161266,0.0-13.0-0.19,66175,List2A,white,woman,,,,null,,,,
null,"<img src=""stim_listA/meet1.gif""</stim_listA>",,html-keyboard-response,149,1163271,0.0-13.0-1.19,66175,List2A,white,woman,,,,null,,,,
null,is meeting,,html-keyboard-response,150,1165274,0.0-13.0-2.19,66175,List2A,white,woman,,,,null,,,,
14754,,,survey-text,151,1180030,0.0-13.0-3.19,66175,List2A,white,woman,,,,,"{""Q0"":""dave is meeting jane""}","<img src=""stim_listA/meet1.gif""</stim_listA>",is meeting,
20461,"<img src='img/portrait_matrix_list2.JPG' style='width:900px;height:500px;''></img><p>If you have memorised all the portraits and names and are ready to start, press Continue.</p><p><strong>Please note: Your memory of these faces will be tested 4 times during this experiment.</strong></p>",0,html-button-response,152,1200494,0.0-14.0-0.0,66175,List2A,white,woman,,,,,,,,
4476,"<img src=""portrait/WM1.jpg""style=""width:400px;height:400px;""></img>",6,html-button-response,153,1205982,0.0-14.0-1.0,66175,List2A,white,woman,,TRUE,6,,,,,
null,CORRECT,,html-keyboard-response,154,1207507,0.0-14.0-2.0-0.0,66175,List2A,white,woman,,,,null,,,,
4519,"<img src=""portrait/BW2.jpg""style=""width:400px;height:400px;""></img>",2,html-button-response,155,1212029,0.0-14.0-4.0,66175,List2A,white,woman,,TRUE,2,,,,,
null,CORRECT,,html-keyboard-response,156,1213536,0.0-14.0-5.0-0.0,66175,List2A,white,woman,,,,null,,,,
3137,"<img src=""portrait/WW2.jpg""style=""width:400px;height:400px;""></img>",3,html-button-response,157,1216676,0.0-14.0-7.0,66175,List2A,white,woman,,TRUE,3,,,,,
null,CORRECT,,html-keyboard-response,158,1218184,0.0-14.0-8.0-0.0,66175,List2A,white,woman,,,,null,,,,
2754,"<img src=""portrait/BM2.jpg""style=""width:400px;height:400px;""></img>",5,html-button-response,159,1220940,0.0-14.0-10.0,66175,List2A,white,woman,,TRUE,5,,,,,
null,CORRECT,,html-keyboard-response,160,1222457,0.0-14.0-11.0-0.0,66175,List2A,white,woman,,,,null,,,,
4685,"<img src=""portrait/BM1.jpg""style=""width:400px;height:400px;""></img>",4,html-button-response,161,1227145,0.0-14.0-13.0,66175,List2A,white,woman,,TRUE,4,,,,,
null,CORRECT,,html-keyboard-response,162,1228664,0.0-14.0-14.0-0.0,66175,List2A,white,woman,,,,null,,,,
4301,"<img src=""portrait/BW1.jpg""style=""width:400px;height:400px;""></img>",0,html-button-response,163,1232967,0.0-14.0-16.0,66175,List2A,white,woman,,TRUE,0,,,,,
null,CORRECT,,html-keyboard-response,164,1234489,0.0-14.0-17.0-0.0,66175,List2A,white,woman,,,,null,,,,
5137,"<img src=""portrait/WW1.jpg""style=""width:400px;height:400px;""></img>",1,html-button-response,165,1239629,0.0-14.0-19.0,66175,List2A,white,woman,,TRUE,1,,,,,
null,CORRECT,,html-keyboard-response,166,1241137,0.0-14.0-20.0-0.0,66175,List2A,white,woman,,,,null,,,,
4406,"<img src=""portrait/WM2.jpg""style=""width:400px;height:400px;""></img>",7,html-button-response,167,1245549,0.0-14.0-22.0,66175,List2A,white,woman,,TRUE,7,,,,,
null,CORRECT,,html-keyboard-response,168,1247053,0.0-14.0-23.0-0.0,66175,List2A,white,woman,,,,null,,,,
3288,<p>You got 8 out of 8 right first time. Press Continue.</p>,0,html-button-response,169,1250344,0.0-14.0-25.0,66175,List2A,white,woman,,,,,,,,
null,"<div style=""font-size:60px;"">+</div>",,html-keyboard-response,170,1251869,0.0-15.0-0.0,66175,List2A,white,woman,,,,null,,,,
null,"<img src=""stim_listA/hug8.gif""</stim_listA>",,html-keyboard-response,171,1253872,0.0-15.0-1.0,66175,List2A,white,woman,,,,null,,,,
null,are hugging each other,,html-keyboard-response,172,1255881,0.0-15.0-2.0,66175,List2A,white,woman,,,,null,,,,
21294,,,survey-text,173,1277177,0.0-15.0-3.0,66175,List2A,white,woman,,,,,"{""Q0"":""jane and kate are hugging each other""}","<img src=""stim_listA/hug8.gif""</stim_listA>",are hugging each other,
null,"<div style=""font-size:60px;"">+</div>",,html-keyboard-response,174,1277687,0.0-15.0-0.1,66175,List2A,white,woman,,,,null,,,,
null,"<img src=""stim_listA/argue3.gif""</stim_listA>",,html-keyboard-response,175,1279695,0.0-15.0-1.1,66175,List2A,white,woman,,,,null,,,,
null,is arguing with,,html-keyboard-response,176,1281708,0.0-15.0-2.1,66175,List2A,white,woman,,,,null,,,,
14277,,,survey-text,177,1295987,0.0-15.0-3.1,66175,List2A,white,woman,,,,,"{""Q0"":""mike is arguing with beth""}","<img src=""stim_listA/argue3.gif""</stim_listA>",is arguing with,
null,"<div style=""font-size:60px;"">+</div>",,html-keyboard-response,178,1296495,0.0-15.0-0.2,66175,List2A,white,woman,,,,null,,,,
null,"<img src=""stim_listA/shout4.gif""</stim_listA>",,html-keyboard-response,179,1298504,0.0-15.0-1.2,66175,List2A,white,woman,,,,null,,,,
null,are shouting at each other,,html-keyboard-response,180,1300520,0.0-15.0-2.2,66175,List2A,white,woman,,,,null,,,,
24868,,,survey-text,181,1325390,0.0-15.0-3.2,66175,List2A,white,woman,,,,,"{""Q0"":""kate and mike are arguing with each other""}","<img src=""stim_listA/shout4.gif""</stim_listA>",are shouting at each other,
null,"<div style=""font-size:60px;"">+</div>",,html-keyboard-response,182,1325908,0.0-15.0-0.3,66175,List2A,white,woman,,,,null,,,,
null,"<img src=""stim_listA/meet7.gif""</stim_listA>",,html-keyboard-response,183,1327915,0.0-15.0-1.3,66175,List2A,white,woman,,,,null,,,,
null,is meeting,,html-keyboard-response,184,1329920,0.0-15.0-2.3,66175,List2A,white,woman,,,,null,,,,
17672,,,survey-text,185,1347594,0.0-15.0-3.3,66175,List2A,white,woman,,,,,"{""Q0"":""kate is meeting jane""}","<img src=""stim_listA/meet7.gif""</stim_listA>",is meeting,
null,"<div style=""font-size:60px;"">+</div>",,html-keyboard-response,186,1348107,0.0-15.0-0.4,66175,List2A,white,woman,,,,null,,,,
null,"<img src=""stim_listA/dance4.gif""</stim_listA>",,html-keyboard-response,187,1350117,0.0-15.0-1.4,66175,List2A,white,woman,,,,null,,,,
null,are dancing with each other,,html-keyboard-response,188,1352129,0.0-15.0-2.4,66175,List2A,white,woman,,,,null,,,,
20812,,,survey-text,189,1372942,0.0-15.0-3.4,66175,List2A,white,woman,,,,,"{""Q0"":""mike and beth are dancing with each other""}","<img src=""stim_listA/dance4.gif""</stim_listA>",are dancing with each other,
null,"<div style=""font-size:60px;"">+</div>",,html-keyboard-response,190,1373448,0.0-15.0-0.5,66175,List2A,white,woman,,,,null,,,,
null,"<img src=""stim_listA/kiss1.gif""</stim_listA>",,html-keyboard-response,191,1375451,0.0-15.0-1.5,66175,List2A,white,woman,,,,null,,,,
null,is kissing,,html-keyboard-response,192,1377458,0.0-15.0-2.5,66175,List2A,white,woman,,,,null,,,,
13218,,,survey-text,193,1390678,0.0-15.0-3.5,66175,List2A,white,woman,,,,,"{""Q0"":""luke is kissing ruth""}","<img src=""stim_listA/kiss1.gif""</stim_listA>",is kissing,
null,"<div style=""font-size:60px;"">+</div>",,html-keyboard-response,194,1391198,0.0-15.0-0.6,66175,List2A,white,woman,,,,null,,,,
null,"<img src=""stim_listA/touch2.gif""</stim_listA>",,html-keyboard-response,195,1393200,0.0-15.0-1.6,66175,List2A,white,woman,,,,null,,,,
null,are touching each other,,html-keyboard-response,196,1395208,0.0-15.0-2.6,66175,List2A,white,woman,,,,null,,,,
20906,,,survey-text,197,1416116,0.0-15.0-3.6,66175,List2A,white,woman,,,,,"{""Q0"":""luke and ruth are touching each other""}","<img src=""stim_listA/touch2.gif""</stim_listA>",are touching each other,
null,"<div style=""font-size:60px;"">+</div>",,html-keyboard-response,198,1416622,0.0-15.0-0.7,66175,List2A,white,woman,,,,null,,,,
null,"<img src=""stim_listA/touch5.gif""</stim_listA>",,html-keyboard-response,199,1418636,0.0-15.0-1.7,66175,List2A,white,woman,,,,null,,,,
null,is touching,,html-keyboard-response,200,1420639,0.0-15.0-2.7,66175,List2A,white,woman,,,,null,,,,
15523,,,survey-text,201,1436164,0.0-15.0-3.7,66175,List2A,white,woman,,,,,"{""Q0"":""mike is touching dave""}","<img src=""stim_listA/touch5.gif""</stim_listA>",is touching,
null,"<div style=""font-size:60px;"">+</div>",,html-keyboard-response,202,1436681,0.0-15.0-0.8,66175,List2A,white,woman,,,,null,,,,
null,"<img src=""stim_listA/hug1.gif""</stim_listA>",,html-keyboard-response,203,1438687,0.0-15.0-1.8,66175,List2A,white,woman,,,,null,,,,
null,is hugging,,html-keyboard-response,204,1440689,0.0-15.0-2.8,66175,List2A,white,woman,,,,null,,,,
13231,,,survey-text,205,1453922,0.0-15.0-3.8,66175,List2A,white,woman,,,,,"{""Q0"":""luke is hugging ruth""}","<img src=""stim_listA/hug1.gif""</stim_listA>",is hugging,
null,"<div style=""font-size:60px;"">+</div>",,html-keyboard-response,206,1454425,0.0-15.0-0.9,66175,List2A,white,woman,,,,null,,,,
null,"<img src=""stim_listA/marry6.gif""</stim_listA>",,html-keyboard-response,207,1456429,0.0-15.0-1.9,66175,List2A,white,woman,,,,null,,,,
null,are marrying each other,,html-keyboard-response,208,1458431,0.0-15.0-2.9,66175,List2A,white,woman,,,,null,,,,
18761,,,survey-text,209,1477194,0.0-15.0-3.9,66175,List2A,white,woman,,,,,"{""Q0"":""luke and mike are marrying each other""}","<img src=""stim_listA/marry6.gif""</stim_listA>",are marrying each other,
null,"<div style=""font-size:60px;"">+</div>",,html-keyboard-response,210,1477696,0.0-15.0-0.10,66175,List2A,white,woman,,,,null,,,,
null,"<img src=""stim_listA/dance1.gif""</stim_listA>",,html-keyboard-response,211,1479698,0.0-15.0-1.10,66175,List2A,white,woman,,,,null,,,,
null,is dancing with,,html-keyboard-response,212,1481702,0.0-15.0-2.10,66175,List2A,white,woman,,,,null,,,,
14772,,,survey-text,213,1496476,0.0-15.0-3.10,66175,List2A,white,woman,,,,,"{""Q0"":""luke is dancing with jane""}","<img src=""stim_listA/dance1.gif""</stim_listA>",is dancing with,
null,"<div style=""font-size:60px;"">+</div>",,html-keyboard-response,214,1496981,0.0-15.0-0.11,66175,List2A,white,woman,,,,null,,,,
null,"<img src=""stim_listA/shout1.gif""</stim_listA>",,html-keyboard-response,215,1498995,0.0-15.0-1.11,66175,List2A,white,woman,,,,null,,,,
null,is shouting at,,html-keyboard-response,216,1501009,0.0-15.0-2.11,66175,List2A,white,woman,,,,null,,,,
14648,,,survey-text,217,1515658,0.0-15.0-3.11,66175,List2A,white,woman,,,,,"{""Q0"":""luke is shouting at ruth""}","<img src=""stim_listA/shout1.gif""</stim_listA>",is shouting at,
null,"<div style=""font-size:60px;"">+</div>",,html-keyboard-response,218,1516164,0.0-15.0-0.12,66175,List2A,white,woman,,,,null,,,,
null,"<img src=""stim_listA/dance6.gif""</stim_listA>",,html-keyboard-response,219,1518177,0.0-15.0-1.12,66175,List2A,white,woman,,,,null,,,,
null,are dancing with each other,,html-keyboard-response,220,1520180,0.0-15.0-2.12,66175,List2A,white,woman,,,,null,,,,
19366,,,survey-text,221,1539548,0.0-15.0-3.12,66175,List2A,white,woman,,,,,"{""Q0"":""fred and mike are dancing with each other""}","<img src=""stim_listA/dance6.gif""</stim_listA>",are dancing with each other,
null,"<div style=""font-size:60px;"">+</div>",,html-keyboard-response,222,1540064,0.0-15.0-0.13,66175,List2A,white,woman,,,,null,,,,
null,"<img src=""stim_listA/shout6.gif""</stim_listA>",,html-keyboard-response,223,1542077,0.0-15.0-1.13,66175,List2A,white,woman,,,,null,,,,
null,are shouting at each other,,html-keyboard-response,224,1544089,0.0-15.0-2.13,66175,List2A,white,woman,,,,null,,,,
18866,,,survey-text,225,1562957,0.0-15.0-3.13,66175,List2A,white,woman,,,,,"{""Q0"":""mike and dave are shouting at each other""}","<img src=""stim_listA/shout6.gif""</stim_listA>",are shouting at each other,
null,"<div style=""font-size:60px;"">+</div>",,html-keyboard-response,226,1563466,0.0-15.0-0.14,66175,List2A,white,woman,,,,null,,,,
null,"<img src=""stim_listA/shout7.gif""</stim_listA>",,html-keyboard-response,227,1565483,0.0-15.0-1.14,66175,List2A,white,woman,,,,null,,,,
null,is shouting at,,html-keyboard-response,228,1567488,0.0-15.0-2.14,66175,List2A,white,woman,,,,null,,,,
20568,,,survey-text,229,1588058,0.0-15.0-3.14,66175,List2A,white,woman,,,,,"{""Q0"":""ruth is shouting at beth""}","<img src=""stim_listA/shout7.gif""</stim_listA>",is shouting at,
null,"<div style=""font-size:60px;"">+</div>",,html-keyboard-response,230,1588575,0.0-15.0-0.15,66175,List2A,white,woman,,,,null,,,,
null,"<img src=""stim_listA/hug4.gif""</stim_listA>",,html-keyboard-response,231,1590580,0.0-15.0-1.15,66175,List2A,white,woman,,,,null,,,,
null,are hugging each other,,html-keyboard-response,232,1592588,0.0-15.0-2.15,66175,List2A,white,woman,,,,null,,,,
20880,,,survey-text,233,1613469,0.0-15.0-3.15,66175,List2A,white,woman,,,,,"{""Q0"":""mike and kate are hugging each other""}","<img src=""stim_listA/hug4.gif""</stim_listA>",are hugging each other,
null,"<div style=""font-size:60px;"">+</div>",,html-keyboard-response,234,1613984,0.0-15.0-0.16,66175,List2A,white,woman,,,,null,,,,
null,"<img src=""stim_listA/meet4.gif""</stim_listA>",,html-keyboard-response,235,1616000,0.0-15.0-1.16,66175,List2A,white,woman,,,,null,,,,
null,are meeting each other,,html-keyboard-response,236,1618002,0.0-15.0-2.16,66175,List2A,white,woman,,,,null,,,,
48586,,,survey-text,237,1666590,0.0-15.0-3.16,66175,List2A,white,woman,,,,,"{""Q0"":""beth and ruth are meeting each other""}","<img src=""stim_listA/meet4.gif""</stim_listA>",are meeting each other,
null,"<div style=""font-size:60px;"">+</div>",,html-keyboard-response,238,1667093,0.0-15.0-0.17,66175,List2A,white,woman,,,,null,,,,
null,"<img src=""stim_listA/dance7.gif""</stim_listA>",,html-keyboard-response,239,1669099,0.0-15.0-1.17,66175,List2A,white,woman,,,,null,,,,
null,is dancing with,,html-keyboard-response,240,1671112,0.0-15.0-2.17,66175,List2A,white,woman,,,,null,,,,
15685,,,survey-text,241,1686799,0.0-15.0-3.17,66175,List2A,white,woman,,,,,"{""Q0"":""kate is dancing with ruth""}","<img src=""stim_listA/dance7.gif""</stim_listA>",is dancing with,
null,"<div style=""font-size:60px;"">+</div>",,html-keyboard-response,242,1687304,0.0-15.0-0.18,66175,List2A,white,woman,,,,null,,,,
null,"<img src=""stim_listA/talk8.gif""</stim_listA>",,html-keyboard-response,243,1689307,0.0-15.0-1.18,66175,List2A,white,woman,,,,null,,,,
null,are talking to each other,,html-keyboard-response,244,1691317,0.0-15.0-2.18,66175,List2A,white,woman,,,,null,,,,
19375,,,survey-text,245,1710694,0.0-15.0-3.18,66175,List2A,white,woman,,,,,"{""Q0"":""jane and beth are talking to each other""}","<img src=""stim_listA/talk8.gif""</stim_listA>",are talking to each other,
null,"<div style=""font-size:60px;"">+</div>",,html-keyboard-response,246,1711211,0.0-15.0-0.19,66175,List2A,white,woman,,,,null,,,,
null,"<img src=""stim_listA/argue6.gif""</stim_listA>",,html-keyboard-response,247,1713217,0.0-15.0-1.19,66175,List2A,white,woman,,,,null,,,,
null,are arguing with each other,,html-keyboard-response,248,1715221,0.0-15.0-2.19,66175,List2A,white,woman,,,,null,,,,
17669,,,survey-text,249,1732892,0.0-15.0-3.19,66175,List2A,white,woman,,,,,"{""Q0"":""mike and luke are arguing with each other""}","<img src=""stim_listA/argue6.gif""</stim_listA>",are arguing with each other,
9676,"<img src='img/portrait_matrix_list2.JPG' style='width:900px;height:500px;''></img><p>If you have memorised all the portraits and names and are ready to start, press Continue.</p><p><strong>Please note: Your memory of these faces will be tested 4 times during this experiment.</strong></p>",0,html-button-response,250,1742570,0.0-16.0-0.0,66175,List2A,white,woman,,,,,,,,
4728,"<img src=""portrait/WM2.jpg""style=""width:400px;height:400px;""></img>",7,html-button-response,251,1748316,0.0-16.0-1.0,66175,List2A,white,woman,,TRUE,7,,,,,
null,CORRECT,,html-keyboard-response,252,1749839,0.0-16.0-2.0-0.0,66175,List2A,white,woman,,,,null,,,,
3649,"<img src=""portrait/BW2.jpg""style=""width:400px;height:400px;""></img>",2,html-button-response,253,1753492,0.0-16.0-4.0,66175,List2A,white,woman,,TRUE,2,,,,,
null,CORRECT,,html-keyboard-response,254,1755010,0.0-16.0-5.0-0.0,66175,List2A,white,woman,,,,null,,,,
2681,"<img src=""portrait/BM2.jpg""style=""width:400px;height:400px;""></img>",5,html-button-response,255,1757694,0.0-16.0-7.0,66175,List2A,white,woman,,TRUE,5,,,,,
null,CORRECT,,html-keyboard-response,256,1759209,0.0-16.0-8.0-0.0,66175,List2A,white,woman,,,,null,,,,
2388,"<img src=""portrait/BW1.jpg""style=""width:400px;height:400px;""></img>",0,html-button-response,257,1761600,0.0-16.0-10.0,66175,List2A,white,woman,,TRUE,0,,,,,
null,CORRECT,,html-keyboard-response,258,1763118,0.0-16.0-11.0-0.0,66175,List2A,white,woman,,,,null,,,,
2349,"<img src=""portrait/BM1.jpg""style=""width:400px;height:400px;""></img>",4,html-button-response,259,1765470,0.0-16.0-13.0,66175,List2A,white,woman,,TRUE,4,,,,,
null,CORRECT,,html-keyboard-response,260,1766979,0.0-16.0-14.0-0.0,66175,List2A,white,woman,,,,null,,,,
2356,"<img src=""portrait/WW1.jpg""style=""width:400px;height:400px;""></img>",1,html-button-response,261,1769338,0.0-16.0-16.0,66175,List2A,white,woman,,TRUE,1,,,,,
null,CORRECT,,html-keyboard-response,262,1770853,0.0-16.0-17.0-0.0,66175,List2A,white,woman,,,,null,,,,
2784,"<img src=""portrait/WM1.jpg""style=""width:400px;height:400px;""></img>",6,html-button-response,263,1773640,0.0-16.0-19.0,66175,List2A,white,woman,,TRUE,6,,,,,
null,CORRECT,,html-keyboard-response,264,1775161,0.0-16.0-20.0-0.0,66175,List2A,white,woman,,,,null,,,,
6597,"<img src=""portrait/WW2.jpg""style=""width:400px;height:400px;""></img>",3,html-button-response,265,1781760,0.0-16.0-22.0,66175,List2A,white,woman,,TRUE,3,,,,,
null,CORRECT,,html-keyboard-response,266,1783282,0.0-16.0-23.0-0.0,66175,List2A,white,woman,,,,null,,,,
2517,<p>You got 8 out of 8 right first time. Press Continue.</p>,0,html-button-response,267,1785802,0.0-16.0-25.0,66175,List2A,white,woman,,,,,,,,
null,"<div style=""font-size:60px;"">+</div>",,html-keyboard-response,268,1787331,0.0-17.0-0.0,66175,List2A,white,woman,,,,null,,,,
null,"<img src=""stim_listA/fight6.gif""</stim_listA>",,html-keyboard-response,269,1789337,0.0-17.0-1.0,66175,List2A,white,woman,,,,null,,,,
null,are fighting each other,,html-keyboard-response,270,1791340,0.0-17.0-2.0,66175,List2A,white,woman,,,,null,,,,
17401,,,survey-text,271,1808744,0.0-17.0-3.0,66175,List2A,white,woman,,,,,"{""Q0"":""fred and luke are fighting each other""}","<img src=""stim_listA/fight6.gif""</stim_listA>",are fighting each other,
null,"<div style=""font-size:60px;"">+</div>",,html-keyboard-response,272,1809248,0.0-17.0-0.1,66175,List2A,white,woman,,,,null,,,,
null,"<img src=""stim_listA/dance8.gif""</stim_listA>",,html-keyboard-response,273,1811252,0.0-17.0-1.1,66175,List2A,white,woman,,,,null,,,,
null,are dancing with each other,,html-keyboard-response,274,1813254,0.0-17.0-2.1,66175,List2A,white,woman,,,,null,,,,
25251,,,survey-text,275,1838507,0.0-17.0-3.1,66175,List2A,white,woman,,,,,"{""Q0"":""beth and jane are dancing with each other""}","<img src=""stim_listA/dance8.gif""</stim_listA>",are dancing with each other,
null,"<div style=""font-size:60px;"">+</div>",,html-keyboard-response,276,1839023,0.0-17.0-0.2,66175,List2A,white,woman,,,,null,,,,
null,"<img src=""stim_listA/fight5.gif""</stim_listA>",,html-keyboard-response,277,1841027,0.0-17.0-1.2,66175,List2A,white,woman,,,,null,,,,
null,is fighting,,html-keyboard-response,278,1843041,0.0-17.0-2.2,66175,List2A,white,woman,,,,null,,,,
23361,,,survey-text,279,1866404,0.0-17.0-3.2,66175,List2A,white,woman,,,,,"{""Q0"":""dave is fighting mike""}","<img src=""stim_listA/fight5.gif""</stim_listA>",is fighting,
null,"<div style=""font-size:60px;"">+</div>",,html-keyboard-response,280,1866907,0.0-17.0-0.3,66175,List2A,white,woman,,,,null,,,,
null,"<img src=""stim_listA/meet5.gif""</stim_listA>",,html-keyboard-response,281,1868914,0.0-17.0-1.3,66175,List2A,white,woman,,,,null,,,,
null,is meeting,,html-keyboard-response,282,1870930,0.0-17.0-2.3,66175,List2A,white,woman,,,,null,,,,
10829,,,survey-text,283,1881761,0.0-17.0-3.3,66175,List2A,white,woman,,,,,"{""Q0"":""dave is meeting mike""}","<img src=""stim_listA/meet5.gif""</stim_listA>",is meeting,
null,"<div style=""font-size:60px;"">+</div>",,html-keyboard-response,284,1882264,0.0-17.0-0.4,66175,List2A,white,woman,,,,null,,,,
null,"<img src=""stim_listA/fight8.gif""</stim_listA>",,html-keyboard-response,285,1884275,0.0-17.0-1.4,66175,List2A,white,woman,,,,null,,,,
null,are fighting each other,,html-keyboard-response,286,1886281,0.0-17.0-2.4,66175,List2A,white,woman,,,,null,,,,
17987,,,survey-text,287,1904270,0.0-17.0-3.4,66175,List2A,white,woman,,,,,"{""Q0"":""beth and ruth are fighting each other""}","<img src=""stim_listA/fight8.gif""</stim_listA>",are fighting each other,
null,"<div style=""font-size:60px;"">+</div>",,html-keyboard-response,288,1904775,0.0-17.0-0.5,66175,List2A,white,woman,,,,null,,,,
null,"<img src=""stim_listA/talk6.gif""</stim_listA>",,html-keyboard-response,289,1906782,0.0-17.0-1.5,66175,List2A,white,woman,,,,null,,,,
null,are talking to each other,,html-keyboard-response,290,1908785,0.0-17.0-2.5,66175,List2A,white,woman,,,,null,,,,
17363,,,survey-text,291,1926150,0.0-17.0-3.5,66175,List2A,white,woman,,,,,"{""Q0"":""dave and fred are talking to each other""}","<img src=""stim_listA/talk6.gif""</stim_listA>",are talking to each other,
null,"<div style=""font-size:60px;"">+</div>",,html-keyboard-response,292,1926659,0.0-17.0-0.6,66175,List2A,white,woman,,,,null,,,,
null,"<img src=""stim_listA/fight7.gif""</stim_listA>",,html-keyboard-response,293,1928674,0.0-17.0-1.6,66175,List2A,white,woman,,,,null,,,,
null,is fighting,,html-keyboard-response,294,1930677,0.0-17.0-2.6,66175,List2A,white,woman,,,,null,,,,
14899,,,survey-text,295,1945577,0.0-17.0-3.6,66175,List2A,white,woman,,,,,"{""Q0"":""jane is fighting kate""}","<img src=""stim_listA/fight7.gif""</stim_listA>",is fighting,
null,"<div style=""font-size:60px;"">+</div>",,html-keyboard-response,296,1946081,0.0-17.0-0.7,66175,List2A,white,woman,,,,null,,,,
null,"<img src=""stim_listA/hug5.gif""</stim_listA>",,html-keyboard-response,297,1948083,0.0-17.0-1.7,66175,List2A,white,woman,,,,null,,,,
null,is hugging,,html-keyboard-response,298,1950085,0.0-17.0-2.7,66175,List2A,white,woman,,,,null,,,,
9483,,,survey-text,299,1959570,0.0-17.0-3.7,66175,List2A,white,woman,,,,,"{""Q0"":""fred is hugging luke""}","<img src=""stim_listA/hug5.gif""</stim_listA>",is hugging,
null,"<div style=""font-size:60px;"">+</div>",,html-keyboard-response,300,1960073,0.0-17.0-0.8,66175,List2A,white,woman,,,,null,,,,
null,"<img src=""stim_listA/kiss7.gif""</stim_listA>",,html-keyboard-response,301,1962078,0.0-17.0-1.8,66175,List2A,white,woman,,,,null,,,,
null,is kissing,,html-keyboard-response,302,1964092,0.0-17.0-2.8,66175,List2A,white,woman,,,,null,,,,
11486,,,survey-text,303,1975580,0.0-17.0-3.8,66175,List2A,white,woman,,,,,"{""Q0"":""beth is kissing ruth""}","<img src=""stim_listA/kiss7.gif""</stim_listA>",is kissing,
null,"<div style=""font-size:60px;"">+</div>",,html-keyboard-response,304,1976085,0.0-17.0-0.9,66175,List2A,white,woman,,,,null,,,,
null,"<img src=""stim_listA/dance5.gif""</stim_listA>",,html-keyboard-response,305,1978088,0.0-17.0-1.9,66175,List2A,white,woman,,,,null,,,,
null,is dancing with,,html-keyboard-response,306,1980092,0.0-17.0-2.9,66175,List2A,white,woman,,,,null,,,,
14376,,,survey-text,307,1994470,0.0-17.0-3.9,66175,List2A,white,woman,,,,,"{""Q0"":""luke is dancing with mike""}","<img src=""stim_listA/dance5.gif""</stim_listA>",is dancing with,
null,"<div style=""font-size:60px;"">+</div>",,html-keyboard-response,308,1994987,0.0-17.0-0.10,66175,List2A,white,woman,,,,null,,,,
null,"<img src=""stim_listA/shout5.gif""</stim_listA>",,html-keyboard-response,309,1996998,0.0-17.0-1.10,66175,List2A,white,woman,,,,null,,,,
null,is shouting at,,html-keyboard-response,310,1999008,0.0-17.0-2.10,66175,List2A,white,woman,,,,null,,,,
12660,,,survey-text,311,2011669,0.0-17.0-3.10,66175,List2A,white,woman,,,,,"{""Q0"":""luke is shouting at fred""}","<img src=""stim_listA/shout5.gif""</stim_listA>",is shouting at,
null,"<div style=""font-size:60px;"">+</div>",,html-keyboard-response,312,2012181,0.0-17.0-0.11,66175,List2A,white,woman,,,,null,,,,
null,"<img src=""stim_listA/marry4.gif""</stim_listA>",,html-keyboard-response,313,2014192,0.0-17.0-1.11,66175,List2A,white,woman,,,,null,,,,
null,are marrying each other,,html-keyboard-response,314,2016207,0.0-17.0-2.11,66175,List2A,white,woman,,,,null,,,,
19235,,,survey-text,315,2035444,0.0-17.0-3.11,66175,List2A,white,woman,,,,,"{""Q0"":""fred and kate are marrying each other""}","<img src=""stim_listA/marry4.gif""</stim_listA>",are marrying each other,
null,"<div style=""font-size:60px;"">+</div>",,html-keyboard-response,316,2035954,0.0-17.0-0.12,66175,List2A,white,woman,,,,null,,,,
null,"<img src=""stim_listA/fight4.gif""</stim_listA>",,html-keyboard-response,317,2037965,0.0-17.0-1.12,66175,List2A,white,woman,,,,null,,,,
null,are fighting each other,,html-keyboard-response,318,2039967,0.0-17.0-2.12,66175,List2A,white,woman,,,,null,,,,
17064,,,survey-text,319,2057033,0.0-17.0-3.12,66175,List2A,white,woman,,,,,"{""Q0"":""fred and beth are fighting each other""}","<img src=""stim_listA/fight4.gif""</stim_listA>",are fighting each other,
null,"<div style=""font-size:60px;"">+</div>",,html-keyboard-response,320,2057550,0.0-17.0-0.13,66175,List2A,white,woman,,,,null,,,,
null,"<img src=""stim_listA/meet2.gif""</stim_listA>",,html-keyboard-response,321,2059555,0.0-17.0-1.13,66175,List2A,white,woman,,,,null,,,,
null,are meeting each other,,html-keyboard-response,322,2061565,0.0-17.0-2.13,66175,List2A,white,woman,,,,null,,,,
18351,,,survey-text,323,2079918,0.0-17.0-3.13,66175,List2A,white,woman,,,,,"{""Q0"":""luke and ruth are meeting each other""}","<img src=""stim_listA/meet2.gif""</stim_listA>",are meeting each other,
null,"<div style=""font-size:60px;"">+</div>",,html-keyboard-response,324,2080432,0.0-17.0-0.14,66175,List2A,white,woman,,,,null,,,,
null,"<img src=""stim_listA/hug2.gif""</stim_listA>",,html-keyboard-response,325,2082437,0.0-17.0-1.14,66175,List2A,white,woman,,,,null,,,,
null,are hugging each other,,html-keyboard-response,326,2084446,0.0-17.0-2.14,66175,List2A,white,woman,,,,null,,,,
18514,,,survey-text,327,2102962,0.0-17.0-3.14,66175,List2A,white,woman,,,,,"{""Q0"":""dave and jane are hugging each other""}","<img src=""stim_listA/hug2.gif""</stim_listA>",are hugging each other,
null,"<div style=""font-size:60px;"">+</div>",,html-keyboard-response,328,2103469,0.0-17.0-0.15,66175,List2A,white,woman,,,,null,,,,
null,"<img src=""stim_listA/kiss5.gif""</stim_listA>",,html-keyboard-response,329,2105472,0.0-17.0-1.15,66175,List2A,white,woman,,,,null,,,,
null,is kissing,,html-keyboard-response,330,2107474,0.0-17.0-2.15,66175,List2A,white,woman,,,,null,,,,
11145,,,survey-text,331,2118621,0.0-17.0-3.15,66175,List2A,white,woman,,,,,"{""Q0"":""fred is kissing luke""}","<img src=""stim_listA/kiss5.gif""</stim_listA>",is kissing,
null,"<div style=""font-size:60px;"">+</div>",,html-keyboard-response,332,2119125,0.0-17.0-0.16,66175,List2A,white,woman,,,,null,,,,
null,"<img src=""stim_listA/meet6.gif""</stim_listA>",,html-keyboard-response,333,2121130,0.0-17.0-1.16,66175,List2A,white,woman,,,,null,,,,
null,are meeting each other,,html-keyboard-response,334,2123132,0.0-17.0-2.16,66175,List2A,white,woman,,,,null,,,,
15307,,,survey-text,335,2138441,0.0-17.0-3.16,66175,List2A,white,woman,,,,,"{""Q0"":""luke and fred are meeting each other""}","<img src=""stim_listA/meet6.gif""</stim_listA>",are meeting each other,
null,"<div style=""font-size:60px;"">+</div>",,html-keyboard-response,336,2138945,0.0-17.0-0.17,66175,List2A,white,woman,,,,null,,,,
null,"<img src=""stim_listA/shout3.gif""</stim_listA>",,html-keyboard-response,337,2140953,0.0-17.0-1.17,66175,List2A,white,woman,,,,null,,,,
null,is shouting at,,html-keyboard-response,338,2142955,0.0-17.0-2.17,66175,List2A,white,woman,,,,null,,,,
23522,,,survey-text,339,2166479,0.0-17.0-3.17,66175,List2A,white,woman,,,,,"{""Q0"":""fred and beth are shouting at each other""}","<img src=""stim_listA/shout3.gif""</stim_listA>",is shouting at,
null,"<div style=""font-size:60px;"">+</div>",,html-keyboard-response,340,2166990,0.0-17.0-0.18,66175,List2A,white,woman,,,,null,,,,
null,"<img src=""stim_listA/meet8.gif""</stim_listA>",,html-keyboard-response,341,2168992,0.0-17.0-1.18,66175,List2A,white,woman,,,,null,,,,
null,are meeting each other,,html-keyboard-response,342,2170997,0.0-17.0-2.18,66175,List2A,white,woman,,,,null,,,,
16722,,,survey-text,343,2187721,0.0-17.0-3.18,66175,List2A,white,woman,,,,,"{""Q0"":""beth and ruth are meeting each other""}","<img src=""stim_listA/meet8.gif""</stim_listA>",are meeting each other,
null,"<div style=""font-size:60px;"">+</div>",,html-keyboard-response,344,2188227,0.0-17.0-0.19,66175,List2A,white,woman,,,,null,,,,
null,"<img src=""stim_listA/fight2.gif""</stim_listA>",,html-keyboard-response,345,2190240,0.0-17.0-1.19,66175,List2A,white,woman,,,,null,,,,
null,are fighting each other,,html-keyboard-response,346,2192243,0.0-17.0-2.19,66175,List2A,white,woman,,,,null,,,,
16517,,,survey-text,347,2208762,0.0-17.0-3.19,66175,List2A,white,woman,,,,,"{""Q0"":""luke and ruth are fighting each other""}","<img src=""stim_listA/fight2.gif""</stim_listA>",are fighting each other,
6700,"<img src='img/portrait_matrix_list2.JPG' style='width:900px;height:500px;''></img><p>If you have memorised all the portraits and names and are ready to start, press Continue.</p><p><strong>Please note: Your memory of these faces will be tested 4 times during this experiment.</strong></p>",0,html-button-response,348,2215463,0.0-18.0-0.0,66175,List2A,white,woman,,,,,,,,
4621,"<img src=""portrait/BW1.jpg""style=""width:400px;height:400px;""></img>",0,html-button-response,349,2221101,0.0-18.0-1.0,66175,List2A,white,woman,,TRUE,0,,,,,
null,CORRECT,,html-keyboard-response,350,2222614,0.0-18.0-2.0-0.0,66175,List2A,white,woman,,,,null,,,,
2948,"<img src=""portrait/WW1.jpg""style=""width:400px;height:400px;""></img>",1,html-button-response,351,2225564,0.0-18.0-4.0,66175,List2A,white,woman,,TRUE,1,,,,,
null,CORRECT,,html-keyboard-response,352,2227087,0.0-18.0-5.0-0.0,66175,List2A,white,woman,,,,null,,,,
1874,"<img src=""portrait/BM1.jpg""style=""width:400px;height:400px;""></img>",4,html-button-response,353,2228964,0.0-18.0-7.0,66175,List2A,white,woman,,TRUE,4,,,,,
null,CORRECT,,html-keyboard-response,354,2230482,0.0-18.0-8.0-0.0,66175,List2A,white,woman,,,,null,,,,
1447,"<img src=""portrait/BM2.jpg""style=""width:400px;height:400px;""></img>",5,html-button-response,355,2231931,0.0-18.0-10.0,66175,List2A,white,woman,,TRUE,5,,,,,
null,CORRECT,,html-keyboard-response,356,2233456,0.0-18.0-11.0-0.0,66175,List2A,white,woman,,,,null,,,,
2324,"<img src=""portrait/WW2.jpg""style=""width:400px;height:400px;""></img>",3,html-button-response,357,2235782,0.0-18.0-13.0,66175,List2A,white,woman,,TRUE,3,,,,,
null,CORRECT,,html-keyboard-response,358,2237297,0.0-18.0-14.0-0.0,66175,List2A,white,woman,,,,null,,,,
2128,"<img src=""portrait/WM1.jpg""style=""width:400px;height:400px;""></img>",6,html-button-response,359,2239430,0.0-18.0-16.0,66175,List2A,white,woman,,TRUE,6,,,,,
null,CORRECT,,html-keyboard-response,360,2240951,0.0-18.0-17.0-0.0,66175,List2A,white,woman,,,,null,,,,
2679,"<img src=""portrait/WM2.jpg""style=""width:400px;height:400px;""></img>",7,html-button-response,361,2243633,0.0-18.0-19.0,66175,List2A,white,woman,,TRUE,7,,,,,
null,CORRECT,,html-keyboard-response,362,2245150,0.0-18.0-20.0-0.0,66175,List2A,white,woman,,,,null,,,,
2511,"<img src=""portrait/BW2.jpg""style=""width:400px;height:400px;""></img>",2,html-button-response,363,2247663,0.0-18.0-22.0,66175,List2A,white,woman,,TRUE,2,,,,,
null,CORRECT,,html-keyboard-response,364,2249192,0.0-18.0-23.0-0.0,66175,List2A,white,woman,,,,null,,,,
1769,<p>You got 8 out of 8 right first time. Press Continue.</p>,0,html-button-response,365,2250964,0.0-18.0-25.0,66175,List2A,white,woman,,,,,,,,
null,"<div style=""font-size:60px;"">+</div>",,html-keyboard-response,366,2252490,0.0-19.0-0.0,66175,List2A,white,woman,,,,null,,,,
null,"<img src=""stim_listA/kiss4.gif""</stim_listA>",,html-keyboard-response,367,2254495,0.0-19.0-1.0,66175,List2A,white,woman,,,,null,,,,
null,are kissing each other,,html-keyboard-response,368,2256503,0.0-19.0-2.0,66175,List2A,white,woman,,,,null,,,,
21706,,,survey-text,369,2278211,0.0-19.0-3.0,66175,List2A,white,woman,,,,,"{""Q0"":""kate and mike are kissing each other""}","<img src=""stim_listA/kiss4.gif""</stim_listA>",are kissing each other,
null,"<div style=""font-size:60px;"">+</div>",,html-keyboard-response,370,2278713,0.0-19.0-0.1,66175,List2A,white,woman,,,,null,,,,
null,"<img src=""stim_listA/hug6.gif""</stim_listA>",,html-keyboard-response,371,2280718,0.0-19.0-1.1,66175,List2A,white,woman,,,,null,,,,
null,are hugging each other,,html-keyboard-response,372,2282723,0.0-19.0-2.1,66175,List2A,white,woman,,,,null,,,,
17694,,,survey-text,373,2300419,0.0-19.0-3.1,66175,List2A,white,woman,,,,,"{""Q0"":""mike and dave are hugging each other""}","<img src=""stim_listA/hug6.gif""</stim_listA>",are hugging each other,
null,"<div style=""font-size:60px;"">+</div>",,html-keyboard-response,374,2300932,0.0-19.0-0.2,66175,List2A,white,woman,,,,null,,,,
null,"<img src=""stim_listA/argue8.gif""</stim_listA>",,html-keyboard-response,375,2302938,0.0-19.0-1.2,66175,List2A,white,woman,,,,null,,,,
null,are arguing with each other,,html-keyboard-response,376,2304941,0.0-19.0-2.2,66175,List2A,white,woman,,,,null,,,,
20434,,,survey-text,377,2325376,0.0-19.0-3.2,66175,List2A,white,woman,,,,,"{""Q0"":""kate and ruth are arguing with each other""}","<img src=""stim_listA/argue8.gif""</stim_listA>",are arguing with each other,
null,"<div style=""font-size:60px;"">+</div>",,html-keyboard-response,378,2325884,0.0-19.0-0.3,66175,List2A,white,woman,,,,null,,,,
null,"<img src=""stim_listA/kiss8.gif""</stim_listA>",,html-keyboard-response,379,2327887,0.0-19.0-1.3,66175,List2A,white,woman,,,,null,,,,
null,are kissing each other,,html-keyboard-response,380,2329900,0.0-19.0-2.3,66175,List2A,white,woman,,,,null,,,,
27788,,,survey-text,381,2357691,0.0-19.0-3.3,66175,List2A,white,woman,,,,,"{""Q0"":""kate and jane are kissing each other""}","<img src=""stim_listA/kiss8.gif""</stim_listA>",are kissing each other,
null,"<div style=""font-size:60px;"">+</div>",,html-keyboard-response,382,2358206,0.0-19.0-0.4,66175,List2A,white,woman,,,,null,,,,
null,"<img src=""stim_listA/argue7.gif""</stim_listA>",,html-keyboard-response,383,2360210,0.0-19.0-1.4,66175,List2A,white,woman,,,,null,,,,
null,is arguing with,,html-keyboard-response,384,2362212,0.0-19.0-2.4,66175,List2A,white,woman,,,,null,,,,
36001,,,survey-text,385,2398214,0.0-19.0-3.4,66175,List2A,white,woman,,,,,"{""Q0"":""jane and beth are arguing with each other""}","<img src=""stim_listA/argue7.gif""</stim_listA>",is arguing with,
null,"<div style=""font-size:60px;"">+</div>",,html-keyboard-response,386,2398720,0.0-19.0-0.5,66175,List2A,white,woman,,,,null,,,,
null,"<img src=""stim_listA/hug7.gif""</stim_listA>",,html-keyboard-response,387,2400723,0.0-19.0-1.5,66175,List2A,white,woman,,,,null,,,,
null,is hugging,,html-keyboard-response,388,2402727,0.0-19.0-2.5,66175,List2A,white,woman,,,,null,,,,
13437,,,survey-text,389,2416165,0.0-19.0-3.5,66175,List2A,white,woman,,,,,"{""Q0"":""jane is hugging beth""}","<img src=""stim_listA/hug7.gif""</stim_listA>",is hugging,
null,"<div style=""font-size:60px;"">+</div>",,html-keyboard-response,390,2416672,0.0-19.0-0.6,66175,List2A,white,woman,,,,null,,,,
null,"<img src=""stim_listA/talk7.gif""</stim_listA>",,html-keyboard-response,391,2418676,0.0-19.0-1.6,66175,List2A,white,woman,,,,null,,,,
null,is talking to,,html-keyboard-response,392,2420692,0.0-19.0-2.6,66175,List2A,white,woman,,,,null,,,,
18727,,,survey-text,393,2439421,0.0-19.0-3.6,66175,List2A,white,woman,,,,,"{""Q0"":""ruth is taking to beth""}","<img src=""stim_listA/talk7.gif""</stim_listA>",is talking to,
null,"<div style=""font-size:60px;"">+</div>",,html-keyboard-response,394,2439927,0.0-19.0-0.7,66175,List2A,white,woman,,,,null,,,,
null,"<img src=""stim_listA/touch3.gif""</stim_listA>",,html-keyboard-response,395,2441940,0.0-19.0-1.7,66175,List2A,white,woman,,,,null,,,,
null,is touching,,html-keyboard-response,396,2443941,0.0-19.0-2.7,66175,List2A,white,woman,,,,null,,,,
11240,,,survey-text,397,2455184,0.0-19.0-3.7,66175,List2A,white,woman,,,,,"{""Q0"":""mike is touching kate""}","<img src=""stim_listA/touch3.gif""</stim_listA>",is touching,
null,"<div style=""font-size:60px;"">+</div>",,html-keyboard-response,398,2455687,0.0-19.0-0.8,66175,List2A,white,woman,,,,null,,,,
null,"<img src=""stim_listA/dance3.gif""</stim_listA>",,html-keyboard-response,399,2457702,0.0-19.0-1.8,66175,List2A,white,woman,,,,null,,,,
null,is dancing with,,html-keyboard-response,400,2459706,0.0-19.0-2.8,66175,List2A,white,woman,,,,null,,,,
12993,,,survey-text,401,2472701,0.0-19.0-3.8,66175,List2A,white,woman,,,,,"{""Q0"":""fred is dancing with kate""}","<img src=""stim_listA/dance3.gif""</stim_listA>",is dancing with,
null,"<div style=""font-size:60px;"">+</div>",,html-keyboard-response,402,2473204,0.0-19.0-0.9,66175,List2A,white,woman,,,,null,,,,
null,"<img src=""stim_listA/talk4.gif""</stim_listA>",,html-keyboard-response,403,2475209,0.0-19.0-1.9,66175,List2A,white,woman,,,,null,,,,
null,are talking to each other,,html-keyboard-response,404,2477215,0.0-19.0-2.9,66175,List2A,white,woman,,,,null,,,,
16391,,,survey-text,405,2493608,0.0-19.0-3.9,66175,List2A,white,woman,,,,,"{""Q0"":""beth and mike are talking to each other""}","<img src=""stim_listA/talk4.gif""</stim_listA>",are talking to each other,
null,"<div style=""font-size:60px;"">+</div>",,html-keyboard-response,406,2494113,0.0-19.0-0.10,66175,List2A,white,woman,,,,null,,,,
null,"<img src=""stim_listA/shout2.gif""</stim_listA>",,html-keyboard-response,407,2496119,0.0-19.0-1.10,66175,List2A,white,woman,,,,null,,,,
null,are shouting at each other,,html-keyboard-response,408,2498127,0.0-19.0-2.10,66175,List2A,white,woman,,,,null,,,,
19883,,,survey-text,409,2518012,0.0-19.0-3.10,66175,List2A,white,woman,,,,,"{""Q0"":""jane and dave are shouting at each other""}","<img src=""stim_listA/shout2.gif""</stim_listA>",are shouting at each other,
null,"<div style=""font-size:60px;"">+</div>",,html-keyboard-response,410,2518526,0.0-19.0-0.11,66175,List2A,white,woman,,,,null,,,,
null,"<img src=""stim_listA/dance2.gif""</stim_listA>",,html-keyboard-response,411,2520539,0.0-19.0-1.11,66175,List2A,white,woman,,,,null,,,,
null,are dancing with each other,,html-keyboard-response,412,2522541,0.0-19.0-2.11,66175,List2A,white,woman,,,,null,,,,
21088,,,survey-text,413,2543631,0.0-19.0-3.11,66175,List2A,white,woman,,,,,"{""Q0"":""ruth and dave are dancing with each other""}","<img src=""stim_listA/dance2.gif""</stim_listA>",are dancing with each other,
null,"<div style=""font-size:60px;"">+</div>",,html-keyboard-response,414,2544136,0.0-19.0-0.12,66175,List2A,white,woman,,,,null,,,,
null,"<img src=""stim_listA/touch4.gif""</stim_listA>",,html-keyboard-response,415,2546152,0.0-19.0-1.12,66175,List2A,white,woman,,,,null,,,,
null,are touching each other,,html-keyboard-response,416,2548156,0.0-19.0-2.12,66175,List2A,white,woman,,,,null,,,,
15821,,,survey-text,417,2563979,0.0-19.0-3.12,66175,List2A,white,woman,,,,,"{""Q0"":""beth and fred are touching each otherf""}","<img src=""stim_listA/touch4.gif""</stim_listA>",are touching each other,
null,"<div style=""font-size:60px;"">+</div>",,html-keyboard-response,418,2564481,0.0-19.0-0.13,66175,List2A,white,woman,,,,null,,,,
null,"<img src=""stim_listA/meet3.gif""</stim_listA>",,html-keyboard-response,419,2566499,0.0-19.0-1.13,66175,List2A,white,woman,,,,null,,,,
null,is meeting,,html-keyboard-response,420,2568512,0.0-19.0-2.13,66175,List2A,white,woman,,,,null,,,,
10942,,,survey-text,421,2579458,0.0-19.0-3.13,66175,List2A,white,woman,,,,,"{""Q0"":""mike is meeting kate""}","<img src=""stim_listA/meet3.gif""</stim_listA>",is meeting,
null,"<div style=""font-size:60px;"">+</div>",,html-keyboard-response,422,2579960,0.0-19.0-0.14,66175,List2A,white,woman,,,,null,,,,
null,"<img src=""stim_listA/kiss3.gif""</stim_listA>",,html-keyboard-response,423,2581966,0.0-19.0-1.14,66175,List2A,white,woman,,,,null,,,,
null,is kissing,,html-keyboard-response,424,2583969,0.0-19.0-2.14,66175,List2A,white,woman,,,,null,,,,
11843,,,survey-text,425,2595814,0.0-19.0-3.14,66175,List2A,white,woman,,,,,"{""Q0"":""fred is kissing beth""}","<img src=""stim_listA/kiss3.gif""</stim_listA>",is kissing,
null,"<div style=""font-size:60px;"">+</div>",,html-keyboard-response,426,2596317,0.0-19.0-0.15,66175,List2A,white,woman,,,,null,,,,
null,"<img src=""stim_listA/marry1.gif""</stim_listA>",,html-keyboard-response,427,2598317,0.0-19.0-1.15,66175,List2A,white,woman,,,,null,,,,
null,is marrying,,html-keyboard-response,428,2600322,0.0-19.0-2.15,66175,List2A,white,woman,,,,null,,,,
12769,,,survey-text,429,2613093,0.0-19.0-3.15,66175,List2A,white,woman,,,,,"{""Q0"":""dave is marrying ruth""}","<img src=""stim_listA/marry1.gif""</stim_listA>",is marrying,
null,"<div style=""font-size:60px;"">+</div>",,html-keyboard-response,430,2613601,0.0-19.0-0.16,66175,List2A,white,woman,,,,null,,,,
null,"<img src=""stim_listA/talk5.gif""</stim_listA>",,html-keyboard-response,431,2615609,0.0-19.0-1.16,66175,List2A,white,woman,,,,null,,,,
null,is talking to,,html-keyboard-response,432,2617616,0.0-19.0-2.16,66175,List2A,white,woman,,,,null,,,,
10323,,,survey-text,433,2627940,0.0-19.0-3.16,66175,List2A,white,woman,,,,,"{""Q0"":""luke is talking to mike""}","<img src=""stim_listA/talk5.gif""</stim_listA>",is talking to,
null,"<div style=""font-size:60px;"">+</div>",,html-keyboard-response,434,2628450,0.0-19.0-0.17,66175,List2A,white,woman,,,,null,,,,
null,"<img src=""stim_listA/marry7.gif""</stim_listA>",,html-keyboard-response,435,2630456,0.0-19.0-1.17,66175,List2A,white,woman,,,,null,,,,
null,is marrying,,html-keyboard-response,436,2632460,0.0-19.0-2.17,66175,List2A,white,woman,,,,null,,,,
12192,,,survey-text,437,2644654,0.0-19.0-3.17,66175,List2A,white,woman,,,,,"{""Q0"":""jane is marrying beth""}","<img src=""stim_listA/marry7.gif""</stim_listA>",is marrying,
null,"<div style=""font-size:60px;"">+</div>",,html-keyboard-response,438,2645157,0.0-19.0-0.18,66175,List2A,white,woman,,,,null,,,,
null,"<img src=""stim_listA/touch8.gif""</stim_listA>",,html-keyboard-response,439,2647166,0.0-19.0-1.18,66175,List2A,white,woman,,,,null,,,,
null,are touching each other,,html-keyboard-response,440,2649168,0.0-19.0-2.18,66175,List2A,white,woman,,,,null,,,,
24533,,,survey-text,441,2673703,0.0-19.0-3.18,66175,List2A,white,woman,,,,,"{""Q0"":""beth and ruth are touching each other""}","<img src=""stim_listA/touch8.gif""</stim_listA>",are touching each other,
null,"<div style=""font-size:60px;"">+</div>",,html-keyboard-response,442,2674219,0.0-19.0-0.19,66175,List2A,white,woman,,,,null,,,,
null,"<img src=""stim_listA/kiss2.gif""</stim_listA>",,html-keyboard-response,443,2676233,0.0-19.0-1.19,66175,List2A,white,woman,,,,null,,,,
null,are kissing each other,,html-keyboard-response,444,2678243,0.0-19.0-2.19,66175,List2A,white,woman,,,,null,,,,
24214,,,survey-text,445,2702459,0.0-19.0-3.19,66175,List2A,white,woman,,,,,"{""Q0"":""jane and dave are kissing each other""}","<img src=""stim_listA/kiss2.gif""</stim_listA>",are kissing each other,
4808,<p>Thank you for completing that task.</p><p>The final part of this session is a short questionnaire.</p><p>Press Continue.</p>,0,html-button-response,446,2707269,0.0-20.0,66175,List2A,white,woman,,,,,,,,
40229,,,survey-text,447,2748503,0.0-21.0,66175,List2A,white,woman,,,,,"{""Q0"":""59"",""Q1"":""english"",""Q2"":""english"",""Q3"":""wales"",""Q4"":""white british"",""Q5"":""female""}",,,demographics
84179,,,survey-likert,448,2832690,0.0-22.0,66175,List2A,white,woman,,,,,"{""Q0"":4,""Q1"":4,""Q2"":5,""Q3"":3,""Q4"":4,""Q5"":3,""Q6"":3,""Q7"":3,""Q8"":3,""Q9"":3,""Q10"":3,""Q11"":3,""Q12"":3,""Q13"":2}",,,likert_race
88760,,,survey-likert,449,2921461,0.0-23.0,66175,List2A,white,woman,,,,,"{""Q0"":4,""Q1"":5,""Q2"":5,""Q3"":5,""Q4"":5,""Q5"":5,""Q6"":5,""Q7"":4,""Q8"":5,""Q9"":5,""Q10"":4,""Q11"":3,""Q12"":4,""Q13"":3}",,,likert_gender
7480,,,survey-text,450,2928948,0.0-24.0,66175,List2A,white,woman,,,,,"{""Q0"":""ccc""}",,,worker_id
29416,,,external-html,451,2958864,0.0-25.0,66175,List2A,white,woman,debrief.html,,,,,,,
