rt,stimulus,button_pressed,trial_type,trial_index,time_elapsed,internal_node_id,subject,list,ppt_race,ppt_gender,url,first_guess,correct,key_press,responses,image_type,phrase_type,test_part
2005,Welcome to the experiment. Press Continue to begin.,0,html-button-response,0,2025,0.0-0.0,66250,List1B,white,woman,,,,,,,,
27742,,,external-html,1,30798,0.0-1.0,66250,List1B,white,woman,consent.html,,,,,,,
7241,"<p>On the next page, you will see portraits of 8 people and their names.</p><p>Your first task is to take a few minutes to memorise the names of these people.</p><p>You will have to recall their names during the rest of the experiment, so it is</p><p>essential that you try to memorise these people and their names as best as you can.</p><br><p><strong>You will then be tested on your memory of these names and portraits.</strong></p><br><p>The experiment will start after you have completed this memory test.</p><br><p>Ready?</p>",0,html-button-response,2,38041,0.0-2.0,66250,List1B,white,woman,,,,,,,,
18219,"<img src='img/portrait_matrix_list1.JPG' style='width:900px;height:500px;''></img><p>If you have memorised all the portraits and names and are ready to start, press Continue.</p><p><strong>Please note: Your memory of these faces will be tested 4 times during this experiment.</strong></p>",0,html-button-response,3,57273,0.0-3.0-0.0,66250,List1B,white,woman,,,,,,,,
6119,"<img src=""portrait/BM1.jpg""style=""width:400px;height:400px;""></img>",4,html-button-response,4,64393,0.0-3.0-1.0,66250,List1B,white,woman,,TRUE,4,,,,,
null,CORRECT,,html-keyboard-response,5,65897,0.0-3.0-2.0-0.0,66250,List1B,white,woman,,,,null,,,,
4558,"<img src=""portrait/BM2.jpg""style=""width:400px;height:400px;""></img>",5,html-button-response,6,70457,0.0-3.0-4.0,66250,List1B,white,woman,,TRUE,5,,,,,
null,CORRECT,,html-keyboard-response,7,71973,0.0-3.0-5.0-0.0,66250,List1B,white,woman,,,,null,,,,
3398,"<img src=""portrait/BW2.jpg""style=""width:400px;height:400px;""></img>",2,html-button-response,8,75373,0.0-3.0-7.0,66250,List1B,white,woman,,TRUE,2,,,,,
null,CORRECT,,html-keyboard-response,9,76875,0.0-3.0-8.0-0.0,66250,List1B,white,woman,,,,null,,,,
3362,"<img src=""portrait/WM2.jpg""style=""width:400px;height:400px;""></img>",7,html-button-response,10,80238,0.0-3.0-10.0,66250,List1B,white,woman,,TRUE,7,,,,,
null,CORRECT,,html-keyboard-response,11,81740,0.0-3.0-11.0-0.0,66250,List1B,white,woman,,,,null,,,,
3987,"<img src=""portrait/BW1.jpg""style=""width:400px;height:400px;""></img>",0,html-button-response,12,85727,0.0-3.0-13.0,66250,List1B,white,woman,,TRUE,0,,,,,
null,CORRECT,,html-keyboard-response,13,87239,0.0-3.0-14.0-0.0,66250,List1B,white,woman,,,,null,,,,
6146,"<img src=""portrait/WW2.jpg""style=""width:400px;height:400px;""></img>",3,html-button-response,14,93387,0.0-3.0-16.0,66250,List1B,white,woman,,TRUE,3,,,,,
null,CORRECT,,html-keyboard-response,15,94900,0.0-3.0-17.0-0.0,66250,List1B,white,woman,,,,null,,,,
5092,"<img src=""portrait/WM1.jpg""style=""width:400px;height:400px;""></img>",6,html-button-response,16,99994,0.0-3.0-19.0,66250,List1B,white,woman,,TRUE,6,,,,,
null,CORRECT,,html-keyboard-response,17,101497,0.0-3.0-20.0-0.0,66250,List1B,white,woman,,,,null,,,,
5305,"<img src=""portrait/WW1.jpg""style=""width:400px;height:400px;""></img>",1,html-button-response,18,106803,0.0-3.0-22.0,66250,List1B,white,woman,,TRUE,1,,,,,
null,CORRECT,,html-keyboard-response,19,108316,0.0-3.0-23.0-0.0,66250,List1B,white,woman,,,,null,,,,
1819,<p>You got 8 out of 8 right first time. Press Continue.</p>,0,html-button-response,20,110137,0.0-3.0-25.0,66250,List1B,white,woman,,,,,,,,
18392,"<p>In this experiment, you will view photographs of the people from the memory game interacting.</p><p>By using the <strong>exact</strong> phrase given <i>after</i> the photograph appears and recalling the correct names of the people in the photographs, form a sentence describing the interaction. You do not need to capitalise names.</p><p>Type your answer in the space provided. Please complete every sentence before moving onto the next trial.</p><p>You will only have a few seconds to memorise each given photograph and phrase before you can respond, so try your best to focus.</p><p>An example is given below. Press 'Continue' when you are ready.</p><img src='img/speaking_example_v2.jpg' style='width:800px;height:460px;''></img>",0,html-button-response,21,129542,0.0-4.0,66250,List1B,white,woman,,,,,,,,
2171,"<p>Before the experiment starts, you will watch two example trials. Press 'Continue'.</p>",0,html-button-response,22,132715,0.0-5.0,66250,List1B,white,woman,,,,,,,,
null,<img src='img/speaking_WW.gif'></img>,,html-keyboard-response,23,135719,0.0-6.0,66250,List1B,white,woman,,,,null,,,,
null,<p>is speaking to</p>,,html-keyboard-response,24,137734,0.0-7.0,66250,List1B,white,woman,,,,null,,,,
1713,<p><b>Answer:</b> kate is speaking to beth</p>,0,html-button-response,25,139448,0.0-8.0,66250,List1B,white,woman,,,,,,,,
null,<img src='img/pointing_BM.gif'></img>,,html-keyboard-response,26,142472,0.0-9.0,66250,List1B,white,woman,,,,null,,,,
null,<p>are pointing at each other</p>,,html-keyboard-response,27,144482,0.0-10.0,66250,List1B,white,woman,,,,null,,,,
1422,<p><b>Answer:</b> luke and dave are pointing at each other</p>,0,html-button-response,28,145904,0.0-11.0,66250,List1B,white,woman,,,,,,,,
2038,"<p>Ready to start the experiment?</p><br><p><strong>Remember to describe the picture using a full sentence,</strong></p><p><strong>that combines the names of the people with the given phrase.</strong></p><p><strong>If you do not do this correctly you will not be paid.</strong></p><p><strong> You do not need to capitalise names or use punctuation.</strong></p><br><p>Press 'Continue' to begin.</p>",0,html-button-response,29,148956,0.0-12.0,66250,List1B,white,woman,,,,,,,,
null,"<div style=""font-size:60px;"">+</div>",,html-keyboard-response,30,150485,0.0-13.0-0.0,66250,List1B,white,woman,,,,null,,,,
null,"<img src=""stim_listB/hug5.gif""</stim_listB>",,html-keyboard-response,31,152497,0.0-13.0-1.0,66250,List1B,white,woman,,,,null,,,,
null,is hugging,,html-keyboard-response,32,154505,0.0-13.0-2.0,66250,List1B,white,woman,,,,null,,,,
13336,,,survey-text,33,167842,0.0-13.0-3.0,66250,List1B,white,woman,,,,,"{""Q0"":""Fred is hugging Luke""}","<img src=""stim_listB/hug5.gif""</stim_listB>",is hugging,
null,"<div style=""font-size:60px;"">+</div>",,html-keyboard-response,34,168349,0.0-13.0-0.1,66250,List1B,white,woman,,,,null,,,,
null,"<img src=""stim_listB/dance3.gif""</stim_listB>",,html-keyboard-response,35,170355,0.0-13.0-1.1,66250,List1B,white,woman,,,,null,,,,
null,is dancing with,,html-keyboard-response,36,172359,0.0-13.0-2.1,66250,List1B,white,woman,,,,null,,,,
3757,,,survey-text,37,176116,0.0-13.0-3.1,66250,List1B,white,woman,,,,,"{""Q0"":""""}","<img src=""stim_listB/dance3.gif""</stim_listB>",is dancing with,
null,"<div style=""font-size:60px;"">+</div>",,html-keyboard-response,38,176624,0.0-13.0-0.2,66250,List1B,white,woman,,,,null,,,,
null,"<img src=""stim_listB/dance1.gif""</stim_listB>",,html-keyboard-response,39,178625,0.0-13.0-1.2,66250,List1B,white,woman,,,,null,,,,
null,is dancing with,,html-keyboard-response,40,180640,0.0-13.0-2.2,66250,List1B,white,woman,,,,null,,,,
8794,,,survey-text,41,189436,0.0-13.0-3.2,66250,List1B,white,woman,,,,,"{""Q0"":""Fred is dancing with Kate""}","<img src=""stim_listB/dance1.gif""</stim_listB>",is dancing with,
null,"<div style=""font-size:60px;"">+</div>",,html-keyboard-response,42,189945,0.0-13.0-0.3,66250,List1B,white,woman,,,,null,,,,
null,"<img src=""stim_listB/meet3.gif""</stim_listB>",,html-keyboard-response,43,191960,0.0-13.0-1.3,66250,List1B,white,woman,,,,null,,,,
null,is meeting,,html-keyboard-response,44,193974,0.0-13.0-2.3,66250,List1B,white,woman,,,,null,,,,
7843,,,survey-text,45,201818,0.0-13.0-3.3,66250,List1B,white,woman,,,,,"{""Q0"":""Dave is meeting Jane""}","<img src=""stim_listB/meet3.gif""</stim_listB>",is meeting,
null,"<div style=""font-size:60px;"">+</div>",,html-keyboard-response,46,202320,0.0-13.0-0.4,66250,List1B,white,woman,,,,null,,,,
null,"<img src=""stim_listB/marry3.gif""</stim_listB>",,html-keyboard-response,47,204330,0.0-13.0-1.4,66250,List1B,white,woman,,,,null,,,,
null,is marrying,,html-keyboard-response,48,206339,0.0-13.0-2.4,66250,List1B,white,woman,,,,null,,,,
10054,,,survey-text,49,216394,0.0-13.0-3.4,66250,List1B,white,woman,,,,,"{""Q0"":""Dave is marrying Ruth""}","<img src=""stim_listB/marry3.gif""</stim_listB>",is marrying,
null,"<div style=""font-size:60px;"">+</div>",,html-keyboard-response,50,216901,0.0-13.0-0.5,66250,List1B,white,woman,,,,null,,,,
null,"<img src=""stim_listB/kiss7.gif""</stim_listB>",,html-keyboard-response,51,218904,0.0-13.0-1.5,66250,List1B,white,woman,,,,null,,,,
null,is kissing,,html-keyboard-response,52,220914,0.0-13.0-2.5,66250,List1B,white,woman,,,,null,,,,
10265,,,survey-text,53,231181,0.0-13.0-3.5,66250,List1B,white,woman,,,,,"{""Q0"":""Ruth is kissing Beth""}","<img src=""stim_listB/kiss7.gif""</stim_listB>",is kissing,
null,"<div style=""font-size:60px;"">+</div>",,html-keyboard-response,54,231691,0.0-13.0-0.6,66250,List1B,white,woman,,,,null,,,,
null,"<img src=""stim_listB/touch1.gif""</stim_listB>",,html-keyboard-response,55,233697,0.0-13.0-1.6,66250,List1B,white,woman,,,,null,,,,
null,is touching,,html-keyboard-response,56,235713,0.0-13.0-2.6,66250,List1B,white,woman,,,,null,,,,
6885,,,survey-text,57,242599,0.0-13.0-3.6,66250,List1B,white,woman,,,,,"{""Q0"":""Kate is touching Mike""}","<img src=""stim_listB/touch1.gif""</stim_listB>",is touching,
null,"<div style=""font-size:60px;"">+</div>",,html-keyboard-response,58,243105,0.0-13.0-0.7,66250,List1B,white,woman,,,,null,,,,
null,"<img src=""stim_listB/talk4.gif""</stim_listB>",,html-keyboard-response,59,245107,0.0-13.0-1.7,66250,List1B,white,woman,,,,null,,,,
null,are talking to each other,,html-keyboard-response,60,247116,0.0-13.0-2.7,66250,List1B,white,woman,,,,null,,,,
10742,,,survey-text,61,257858,0.0-13.0-3.7,66250,List1B,white,woman,,,,,"{""Q0"":""Dave and Ruth are talking to each other""}","<img src=""stim_listB/talk4.gif""</stim_listB>",are talking to each other,
null,"<div style=""font-size:60px;"">+</div>",,html-keyboard-response,62,258365,0.0-13.0-0.8,66250,List1B,white,woman,,,,null,,,,
null,"<img src=""stim_listB/argue7.gif""</stim_listB>",,html-keyboard-response,63,260375,0.0-13.0-1.8,66250,List1B,white,woman,,,,null,,,,
null,is arguing with,,html-keyboard-response,64,262391,0.0-13.0-2.8,66250,List1B,white,woman,,,,null,,,,
8500,,,survey-text,65,270892,0.0-13.0-3.8,66250,List1B,white,woman,,,,,"{""Q0"":""Ruth is arguing with Kate""}","<img src=""stim_listB/argue7.gif""</stim_listB>",is arguing with,
null,"<div style=""font-size:60px;"">+</div>",,html-keyboard-response,66,271407,0.0-13.0-0.9,66250,List1B,white,woman,,,,null,,,,
null,"<img src=""stim_listB/hug3.gif""</stim_listB>",,html-keyboard-response,67,273410,0.0-13.0-1.9,66250,List1B,white,woman,,,,null,,,,
null,is hugging,,html-keyboard-response,68,275423,0.0-13.0-2.9,66250,List1B,white,woman,,,,null,,,,
8260,,,survey-text,69,283684,0.0-13.0-3.9,66250,List1B,white,woman,,,,,"{""Q0"":""Ruth is hugging Luke""}","<img src=""stim_listB/hug3.gif""</stim_listB>",is hugging,
null,"<div style=""font-size:60px;"">+</div>",,html-keyboard-response,70,284190,0.0-13.0-0.10,66250,List1B,white,woman,,,,null,,,,
null,"<img src=""stim_listB/shout1.gif""</stim_listB>",,html-keyboard-response,71,286205,0.0-13.0-1.10,66250,List1B,white,woman,,,,null,,,,
null,is shouting at,,html-keyboard-response,72,288206,0.0-13.0-2.10,66250,List1B,white,woman,,,,null,,,,
9709,,,survey-text,73,297915,0.0-13.0-3.10,66250,List1B,white,woman,,,,,"{""Q0"":""Fred is shouting at Beth""}","<img src=""stim_listB/shout1.gif""</stim_listB>",is shouting at,
null,"<div style=""font-size:60px;"">+</div>",,html-keyboard-response,74,298430,0.0-13.0-0.11,66250,List1B,white,woman,,,,null,,,,
null,"<img src=""stim_listB/meet8.gif""</stim_listB>",,html-keyboard-response,75,300437,0.0-13.0-1.11,66250,List1B,white,woman,,,,null,,,,
null,are meeting each other,,html-keyboard-response,76,302438,0.0-13.0-2.11,66250,List1B,white,woman,,,,null,,,,
10726,,,survey-text,77,313165,0.0-13.0-3.11,66250,List1B,white,woman,,,,,"{""Q0"":""Ruth and Beth are meeting each other""}","<img src=""stim_listB/meet8.gif""</stim_listB>",are meeting each other,
null,"<div style=""font-size:60px;"">+</div>",,html-keyboard-response,78,313671,0.0-13.0-0.12,66250,List1B,white,woman,,,,null,,,,
null,"<img src=""stim_listB/kiss8.gif""</stim_listB>",,html-keyboard-response,79,315677,0.0-13.0-1.12,66250,List1B,white,woman,,,,null,,,,
null,are kissing each other,,html-keyboard-response,80,317679,0.0-13.0-2.12,66250,List1B,white,woman,,,,null,,,,
10200,,,survey-text,81,327880,0.0-13.0-3.12,66250,List1B,white,woman,,,,,"{""Q0"":""Jane and Kate are kissing each other""}","<img src=""stim_listB/kiss8.gif""</stim_listB>",are kissing each other,
null,"<div style=""font-size:60px;"">+</div>",,html-keyboard-response,82,328395,0.0-13.0-0.13,66250,List1B,white,woman,,,,null,,,,
null,"<img src=""stim_listB/dance5.gif""</stim_listB>",,html-keyboard-response,83,330401,0.0-13.0-1.13,66250,List1B,white,woman,,,,null,,,,
null,is dancing with,,html-keyboard-response,84,332417,0.0-13.0-2.13,66250,List1B,white,woman,,,,null,,,,
9299,,,survey-text,85,341717,0.0-13.0-3.13,66250,List1B,white,woman,,,,,"{""Q0"":""Dave is dancing with Fred""}","<img src=""stim_listB/dance5.gif""</stim_listB>",is dancing with,
null,"<div style=""font-size:60px;"">+</div>",,html-keyboard-response,86,342228,0.0-13.0-0.14,66250,List1B,white,woman,,,,null,,,,
null,"<img src=""stim_listB/meet5.gif""</stim_listB>",,html-keyboard-response,87,344242,0.0-13.0-1.14,66250,List1B,white,woman,,,,null,,,,
null,is meeting,,html-keyboard-response,88,346249,0.0-13.0-2.14,66250,List1B,white,woman,,,,null,,,,
5878,,,survey-text,89,352127,0.0-13.0-3.14,66250,List1B,white,woman,,,,,"{""Q0"":""Dave is meeting Mike""}","<img src=""stim_listB/meet5.gif""</stim_listB>",is meeting,
null,"<div style=""font-size:60px;"">+</div>",,html-keyboard-response,90,352642,0.0-13.0-0.15,66250,List1B,white,woman,,,,null,,,,
null,"<img src=""stim_listB/kiss1.gif""</stim_listB>",,html-keyboard-response,91,354649,0.0-13.0-1.15,66250,List1B,white,woman,,,,null,,,,
null,is kissing,,html-keyboard-response,92,356665,0.0-13.0-2.15,66250,List1B,white,woman,,,,null,,,,
7971,,,survey-text,93,364636,0.0-13.0-3.15,66250,List1B,white,woman,,,,,"{""Q0"":""Beth is kissing Fred""}","<img src=""stim_listB/kiss1.gif""</stim_listB>",is kissing,
null,"<div style=""font-size:60px;"">+</div>",,html-keyboard-response,94,365139,0.0-13.0-0.16,66250,List1B,white,woman,,,,null,,,,
null,"<img src=""stim_listB/talk3.gif""</stim_listB>",,html-keyboard-response,95,367148,0.0-13.0-1.16,66250,List1B,white,woman,,,,null,,,,
null,is talking to,,html-keyboard-response,96,369164,0.0-13.0-2.16,66250,List1B,white,woman,,,,null,,,,
11258,,,survey-text,97,380423,0.0-13.0-3.16,66250,List1B,white,woman,,,,,"{""Q0"":""Jane is talking to Luke""}","<img src=""stim_listB/talk3.gif""</stim_listB>",is talking to,
null,"<div style=""font-size:60px;"">+</div>",,html-keyboard-response,98,380930,0.0-13.0-0.17,66250,List1B,white,woman,,,,null,,,,
null,"<img src=""stim_listB/argue6.gif""</stim_listB>",,html-keyboard-response,99,382932,0.0-13.0-1.17,66250,List1B,white,woman,,,,null,,,,
null,are arguing with each other,,html-keyboard-response,100,384936,0.0-13.0-2.17,66250,List1B,white,woman,,,,null,,,,
12272,,,survey-text,101,397209,0.0-13.0-3.17,66250,List1B,white,woman,,,,,"{""Q0"":""Fred and Dave are arguing with each other""}","<img src=""stim_listB/argue6.gif""</stim_listB>",are arguing with each other,
null,"<div style=""font-size:60px;"">+</div>",,html-keyboard-response,102,397719,0.0-13.0-0.18,66250,List1B,white,woman,,,,null,,,,
null,"<img src=""stim_listB/touch7.gif""</stim_listB>",,html-keyboard-response,103,399721,0.0-13.0-1.18,66250,List1B,white,woman,,,,null,,,,
null,is touching,,html-keyboard-response,104,401735,0.0-13.0-2.18,66250,List1B,white,woman,,,,null,,,,
6094,,,survey-text,105,407831,0.0-13.0-3.18,66250,List1B,white,woman,,,,,"{""Q0"":""Kate is touching Jane""}","<img src=""stim_listB/touch7.gif""</stim_listB>",is touching,
null,"<div style=""font-size:60px;"">+</div>",,html-keyboard-response,106,408344,0.0-13.0-0.19,66250,List1B,white,woman,,,,null,,,,
null,"<img src=""stim_listB/dance2.gif""</stim_listB>",,html-keyboard-response,107,410351,0.0-13.0-1.19,66250,List1B,white,woman,,,,null,,,,
null,are dancing with each other,,html-keyboard-response,108,412357,0.0-13.0-2.19,66250,List1B,white,woman,,,,null,,,,
10734,,,survey-text,109,423092,0.0-13.0-3.19,66250,List1B,white,woman,,,,,"{""Q0"":""Beth and Mike are dancing with each other""}","<img src=""stim_listB/dance2.gif""</stim_listB>",are dancing with each other,
7369,"<img src='img/portrait_matrix_list1.JPG' style='width:900px;height:500px;''></img><p>If you have memorised all the portraits and names and are ready to start, press Continue.</p><p><strong>Please note: Your memory of these faces will be tested 4 times during this experiment.</strong></p>",0,html-button-response,110,430462,0.0-14.0-0.0,66250,List1B,white,woman,,,,,,,,
4895,"<img src=""portrait/BM1.jpg""style=""width:400px;height:400px;""></img>",4,html-button-response,111,436365,0.0-14.0-1.0,66250,List1B,white,woman,,TRUE,4,,,,,
null,CORRECT,,html-keyboard-response,112,437869,0.0-14.0-2.0-0.0,66250,List1B,white,woman,,,,null,,,,
3971,"<img src=""portrait/BW1.jpg""style=""width:400px;height:400px;""></img>",0,html-button-response,113,441841,0.0-14.0-4.0,66250,List1B,white,woman,,TRUE,0,,,,,
null,CORRECT,,html-keyboard-response,114,443361,0.0-14.0-5.0-0.0,66250,List1B,white,woman,,,,null,,,,
4359,"<img src=""portrait/BM2.jpg""style=""width:400px;height:400px;""></img>",5,html-button-response,115,447721,0.0-14.0-7.0,66250,List1B,white,woman,,TRUE,5,,,,,
null,CORRECT,,html-keyboard-response,116,449227,0.0-14.0-8.0-0.0,66250,List1B,white,woman,,,,null,,,,
2640,"<img src=""portrait/WM2.jpg""style=""width:400px;height:400px;""></img>",7,html-button-response,117,451868,0.0-14.0-10.0,66250,List1B,white,woman,,TRUE,7,,,,,
null,CORRECT,,html-keyboard-response,118,453399,0.0-14.0-11.0-0.0,66250,List1B,white,woman,,,,null,,,,
3522,"<img src=""portrait/WM1.jpg""style=""width:400px;height:400px;""></img>",6,html-button-response,119,456922,0.0-14.0-13.0,66250,List1B,white,woman,,TRUE,6,,,,,
null,CORRECT,,html-keyboard-response,120,458450,0.0-14.0-14.0-0.0,66250,List1B,white,woman,,,,null,,,,
2972,"<img src=""portrait/BW2.jpg""style=""width:400px;height:400px;""></img>",2,html-button-response,121,461422,0.0-14.0-16.0,66250,List1B,white,woman,,TRUE,2,,,,,
null,CORRECT,,html-keyboard-response,122,462949,0.0-14.0-17.0-0.0,66250,List1B,white,woman,,,,null,,,,
3365,"<img src=""portrait/WW1.jpg""style=""width:400px;height:400px;""></img>",1,html-button-response,123,466315,0.0-14.0-19.0,66250,List1B,white,woman,,TRUE,1,,,,,
null,CORRECT,,html-keyboard-response,124,467833,0.0-14.0-20.0-0.0,66250,List1B,white,woman,,,,null,,,,
2819,"<img src=""portrait/WW2.jpg""style=""width:400px;height:400px;""></img>",3,html-button-response,125,470654,0.0-14.0-22.0,66250,List1B,white,woman,,TRUE,3,,,,,
null,CORRECT,,html-keyboard-response,126,472178,0.0-14.0-23.0-0.0,66250,List1B,white,woman,,,,null,,,,
1666,<p>You got 8 out of 8 right first time. Press Continue.</p>,0,html-button-response,127,473845,0.0-14.0-25.0,66250,List1B,white,woman,,,,,,,,
null,"<div style=""font-size:60px;"">+</div>",,html-keyboard-response,128,475372,0.0-15.0-0.0,66250,List1B,white,woman,,,,null,,,,
null,"<img src=""stim_listB/argue3.gif""</stim_listB>",,html-keyboard-response,129,477375,0.0-15.0-1.0,66250,List1B,white,woman,,,,null,,,,
null,is arguing with,,html-keyboard-response,130,479385,0.0-15.0-2.0,66250,List1B,white,woman,,,,null,,,,
8911,,,survey-text,131,488297,0.0-15.0-3.0,66250,List1B,white,woman,,,,,"{""Q0"":""Dave is arguing with Ruth""}","<img src=""stim_listB/argue3.gif""</stim_listB>",is arguing with,
null,"<div style=""font-size:60px;"">+</div>",,html-keyboard-response,132,488806,0.0-15.0-0.1,66250,List1B,white,woman,,,,null,,,,
null,"<img src=""stim_listB/argue4.gif""</stim_listB>",,html-keyboard-response,133,490813,0.0-15.0-1.1,66250,List1B,white,woman,,,,null,,,,
null,are arguing with each other,,html-keyboard-response,134,492821,0.0-15.0-2.1,66250,List1B,white,woman,,,,null,,,,
11882,,,survey-text,135,504705,0.0-15.0-3.1,66250,List1B,white,woman,,,,,"{""Q0"":""Jane and Luke are arguing with each other""}","<img src=""stim_listB/argue4.gif""</stim_listB>",are arguing with each other,
null,"<div style=""font-size:60px;"">+</div>",,html-keyboard-response,136,505206,0.0-15.0-0.2,66250,List1B,white,woman,,,,null,,,,
null,"<img src=""stim_listB/meet1.gif""</stim_listB>",,html-keyboard-response,137,507208,0.0-15.0-1.2,66250,List1B,white,woman,,,,null,,,,
null,is meeting,,html-keyboard-response,138,509223,0.0-15.0-2.2,66250,List1B,white,woman,,,,null,,,,
8574,,,survey-text,139,517799,0.0-15.0-3.2,66250,List1B,white,woman,,,,,"{""Q0"":""Kate is meeting Mike""}","<img src=""stim_listB/meet1.gif""</stim_listB>",is meeting,
null,"<div style=""font-size:60px;"">+</div>",,html-keyboard-response,140,518303,0.0-15.0-0.3,66250,List1B,white,woman,,,,null,,,,
null,"<img src=""stim_listB/touch5.gif""</stim_listB>",,html-keyboard-response,141,520310,0.0-15.0-1.3,66250,List1B,white,woman,,,,null,,,,
null,is touching,,html-keyboard-response,142,522318,0.0-15.0-2.3,66250,List1B,white,woman,,,,null,,,,
5829,,,survey-text,143,528148,0.0-15.0-3.3,66250,List1B,white,woman,,,,,"{""Q0"":""Dave is touching Mike""}","<img src=""stim_listB/touch5.gif""</stim_listB>",is touching,
null,"<div style=""font-size:60px;"">+</div>",,html-keyboard-response,144,528658,0.0-15.0-0.4,66250,List1B,white,woman,,,,null,,,,
null,"<img src=""stim_listB/dance8.gif""</stim_listB>",,html-keyboard-response,145,530664,0.0-15.0-1.4,66250,List1B,white,woman,,,,null,,,,
null,are dancing with each other,,html-keyboard-response,146,532665,0.0-15.0-2.4,66250,List1B,white,woman,,,,null,,,,
16721,,,survey-text,147,549387,0.0-15.0-3.4,66250,List1B,white,woman,,,,,"{""Q0"":""Ruth and Beth are dancing with each other""}","<img src=""stim_listB/dance8.gif""</stim_listB>",are dancing with each other,
null,"<div style=""font-size:60px;"">+</div>",,html-keyboard-response,148,549900,0.0-15.0-0.5,66250,List1B,white,woman,,,,null,,,,
null,"<img src=""stim_listB/shout8.gif""</stim_listB>",,html-keyboard-response,149,551901,0.0-15.0-1.5,66250,List1B,white,woman,,,,null,,,,
null,are shouting at each other,,html-keyboard-response,150,553917,0.0-15.0-2.5,66250,List1B,white,woman,,,,null,,,,
7919,,,survey-text,151,561837,0.0-15.0-3.5,66250,List1B,white,woman,,,,,"{""Q0"":""Kate and Jane are shouting at each other""}","<img src=""stim_listB/shout8.gif""</stim_listB>",are shouting at each other,
null,"<div style=""font-size:60px;"">+</div>",,html-keyboard-response,152,562340,0.0-15.0-0.6,66250,List1B,white,woman,,,,null,,,,
null,"<img src=""stim_listB/touch8.gif""</stim_listB>",,html-keyboard-response,153,564353,0.0-15.0-1.6,66250,List1B,white,woman,,,,null,,,,
null,are touching each other,,html-keyboard-response,154,566369,0.0-15.0-2.6,66250,List1B,white,woman,,,,null,,,,
8460,,,survey-text,155,574829,0.0-15.0-3.6,66250,List1B,white,woman,,,,,"{""Q0"":""Ruth and Beth are touching each other""}","<img src=""stim_listB/touch8.gif""</stim_listB>",are touching each other,
null,"<div style=""font-size:60px;"">+</div>",,html-keyboard-response,156,575345,0.0-15.0-0.7,66250,List1B,white,woman,,,,null,,,,
null,"<img src=""stim_listB/talk5.gif""</stim_listB>",,html-keyboard-response,157,577347,0.0-15.0-1.7,66250,List1B,white,woman,,,,null,,,,
null,is talking to,,html-keyboard-response,158,579356,0.0-15.0-2.7,66250,List1B,white,woman,,,,null,,,,
9380,,,survey-text,159,588737,0.0-15.0-3.7,66250,List1B,white,woman,,,,,"{""Q0"":""Fred is talking to Dave""}","<img src=""stim_listB/talk5.gif""</stim_listB>",is talking to,
null,"<div style=""font-size:60px;"">+</div>",,html-keyboard-response,160,589238,0.0-15.0-0.8,66250,List1B,white,woman,,,,null,,,,
null,"<img src=""stim_listB/talk6.gif""</stim_listB>",,html-keyboard-response,161,591248,0.0-15.0-1.8,66250,List1B,white,woman,,,,null,,,,
null,are talking to each other,,html-keyboard-response,162,593263,0.0-15.0-2.8,66250,List1B,white,woman,,,,null,,,,
14967,,,survey-text,163,608232,0.0-15.0-3.8,66250,List1B,white,woman,,,,,"{""Q0"":""Luke and Mike are talking to each other""}","<img src=""stim_listB/talk6.gif""</stim_listB>",are talking to each other,
null,"<div style=""font-size:60px;"">+</div>",,html-keyboard-response,164,608736,0.0-15.0-0.9,66250,List1B,white,woman,,,,null,,,,
null,"<img src=""stim_listB/kiss2.gif""</stim_listB>",,html-keyboard-response,165,610752,0.0-15.0-1.9,66250,List1B,white,woman,,,,null,,,,
null,are kissing each other,,html-keyboard-response,166,612767,0.0-15.0-2.9,66250,List1B,white,woman,,,,null,,,,
7774,,,survey-text,167,620542,0.0-15.0-3.9,66250,List1B,white,woman,,,,,"{""Q0"":""Kate and Mike are kissing each other""}","<img src=""stim_listB/kiss2.gif""</stim_listB>",are kissing each other,
null,"<div style=""font-size:60px;"">+</div>",,html-keyboard-response,168,621044,0.0-15.0-0.10,66250,List1B,white,woman,,,,null,,,,
null,"<img src=""stim_listB/fight4.gif""</stim_listB>",,html-keyboard-response,169,623046,0.0-15.0-1.10,66250,List1B,white,woman,,,,null,,,,
null,are fighting each other,,html-keyboard-response,170,625054,0.0-15.0-2.10,66250,List1B,white,woman,,,,null,,,,
8574,,,survey-text,171,633628,0.0-15.0-3.10,66250,List1B,white,woman,,,,,"{""Q0"":""Luke and Ruth are fighting each other""}","<img src=""stim_listB/fight4.gif""</stim_listB>",are fighting each other,
null,"<div style=""font-size:60px;"">+</div>",,html-keyboard-response,172,634134,0.0-15.0-0.11,66250,List1B,white,woman,,,,null,,,,
null,"<img src=""stim_listB/marry6.gif""</stim_listB>",,html-keyboard-response,173,636147,0.0-15.0-1.11,66250,List1B,white,woman,,,,null,,,,
null,are marrying each other,,html-keyboard-response,174,638150,0.0-15.0-2.11,66250,List1B,white,woman,,,,null,,,,
10228,,,survey-text,175,648380,0.0-15.0-3.11,66250,List1B,white,woman,,,,,"{""Q0"":""Fred and Dave are marrying each other""}","<img src=""stim_listB/marry6.gif""</stim_listB>",are marrying each other,
null,"<div style=""font-size:60px;"">+</div>",,html-keyboard-response,176,648883,0.0-15.0-0.12,66250,List1B,white,woman,,,,null,,,,
null,"<img src=""stim_listB/dance6.gif""</stim_listB>",,html-keyboard-response,177,650885,0.0-15.0-1.12,66250,List1B,white,woman,,,,null,,,,
null,are dancing with each other,,html-keyboard-response,178,652887,0.0-15.0-2.12,66250,List1B,white,woman,,,,null,,,,
7909,,,survey-text,179,660797,0.0-15.0-3.12,66250,List1B,white,woman,,,,,"{""Q0"":""Luke and Mike are dancing with each other""}","<img src=""stim_listB/dance6.gif""</stim_listB>",are dancing with each other,
null,"<div style=""font-size:60px;"">+</div>",,html-keyboard-response,180,661298,0.0-15.0-0.13,66250,List1B,white,woman,,,,null,,,,
null,"<img src=""stim_listB/fight2.gif""</stim_listB>",,html-keyboard-response,181,663300,0.0-15.0-1.13,66250,List1B,white,woman,,,,null,,,,
null,are fighting each other,,html-keyboard-response,182,665303,0.0-15.0-2.13,66250,List1B,white,woman,,,,null,,,,
8972,,,survey-text,183,674276,0.0-15.0-3.13,66250,List1B,white,woman,,,,,"{""Q0"":""Beth and Fred are fighting each other""}","<img src=""stim_listB/fight2.gif""</stim_listB>",are fighting each other,
null,"<div style=""font-size:60px;"">+</div>",,html-keyboard-response,184,674782,0.0-15.0-0.14,66250,List1B,white,woman,,,,null,,,,
null,"<img src=""stim_listB/hug2.gif""</stim_listB>",,html-keyboard-response,185,676789,0.0-15.0-1.14,66250,List1B,white,woman,,,,null,,,,
null,are hugging each other,,html-keyboard-response,186,678805,0.0-15.0-2.14,66250,List1B,white,woman,,,,null,,,,
6765,,,survey-text,187,685571,0.0-15.0-3.14,66250,List1B,white,woman,,,,,"{""Q0"":""Mike and Kate are hugging each other""}","<img src=""stim_listB/hug2.gif""</stim_listB>",are hugging each other,
null,"<div style=""font-size:60px;"">+</div>",,html-keyboard-response,188,686072,0.0-15.0-0.15,66250,List1B,white,woman,,,,null,,,,
null,"<img src=""stim_listB/talk8.gif""</stim_listB>",,html-keyboard-response,189,688086,0.0-15.0-1.15,66250,List1B,white,woman,,,,null,,,,
null,are talking to each other,,html-keyboard-response,190,690103,0.0-15.0-2.15,66250,List1B,white,woman,,,,null,,,,
9111,,,survey-text,191,699215,0.0-15.0-3.15,66250,List1B,white,woman,,,,,"{""Q0"":""Ruth and Kate are talking to each other""}","<img src=""stim_listB/talk8.gif""</stim_listB>",are talking to each other,
null,"<div style=""font-size:60px;"">+</div>",,html-keyboard-response,192,699730,0.0-15.0-0.16,66250,List1B,white,woman,,,,null,,,,
null,"<img src=""stim_listB/meet6.gif""</stim_listB>",,html-keyboard-response,193,701732,0.0-15.0-1.16,66250,List1B,white,woman,,,,null,,,,
null,are meeting each other,,html-keyboard-response,194,703741,0.0-15.0-2.16,66250,List1B,white,woman,,,,null,,,,
7907,,,survey-text,195,711649,0.0-15.0-3.16,66250,List1B,white,woman,,,,,"{""Q0"":""Luke and Fred are meeting each other""}","<img src=""stim_listB/meet6.gif""</stim_listB>",are meeting each other,
null,"<div style=""font-size:60px;"">+</div>",,html-keyboard-response,196,712154,0.0-15.0-0.17,66250,List1B,white,woman,,,,null,,,,
null,"<img src=""stim_listB/hug8.gif""</stim_listB>",,html-keyboard-response,197,714156,0.0-15.0-1.17,66250,List1B,white,woman,,,,null,,,,
null,are hugging each other,,html-keyboard-response,198,716164,0.0-15.0-2.17,66250,List1B,white,woman,,,,null,,,,
8782,,,survey-text,199,724946,0.0-15.0-3.17,66250,List1B,white,woman,,,,,"{""Q0"":""Jane and Beth are hugging each other""}","<img src=""stim_listB/hug8.gif""</stim_listB>",are hugging each other,
null,"<div style=""font-size:60px;"">+</div>",,html-keyboard-response,200,725452,0.0-15.0-0.18,66250,List1B,white,woman,,,,null,,,,
null,"<img src=""stim_listB/shout6.gif""</stim_listB>",,html-keyboard-response,201,727454,0.0-15.0-1.18,66250,List1B,white,woman,,,,null,,,,
null,are shouting at each other,,html-keyboard-response,202,729456,0.0-15.0-2.18,66250,List1B,white,woman,,,,null,,,,
8213,,,survey-text,203,737670,0.0-15.0-3.18,66250,List1B,white,woman,,,,,"{""Q0"":""Mike and Dave are shouting at each other""}","<img src=""stim_listB/shout6.gif""</stim_listB>",are shouting at each other,
null,"<div style=""font-size:60px;"">+</div>",,html-keyboard-response,204,738172,0.0-15.0-0.19,66250,List1B,white,woman,,,,null,,,,
null,"<img src=""stim_listB/shout4.gif""</stim_listB>",,html-keyboard-response,205,740182,0.0-15.0-1.19,66250,List1B,white,woman,,,,null,,,,
null,are shouting at each other,,html-keyboard-response,206,742193,0.0-15.0-2.19,66250,List1B,white,woman,,,,null,,,,
9031,,,survey-text,207,751225,0.0-15.0-3.19,66250,List1B,white,woman,,,,,"{""Q0"":""Dave and Jane are shouting at each other""}","<img src=""stim_listB/shout4.gif""</stim_listB>",are shouting at each other,
2767,"<img src='img/portrait_matrix_list1.JPG' style='width:900px;height:500px;''></img><p>If you have memorised all the portraits and names and are ready to start, press Continue.</p><p><strong>Please note: Your memory of these faces will be tested 4 times during this experiment.</strong></p>",0,html-button-response,208,753993,0.0-16.0-0.0,66250,List1B,white,woman,,,,,,,,
2883,"<img src=""portrait/WW2.jpg""style=""width:400px;height:400px;""></img>",3,html-button-response,209,757878,0.0-16.0-1.0,66250,List1B,white,woman,,TRUE,3,,,,,
null,CORRECT,,html-keyboard-response,210,759389,0.0-16.0-2.0-0.0,66250,List1B,white,woman,,,,null,,,,
3038,"<img src=""portrait/WW1.jpg""style=""width:400px;height:400px;""></img>",1,html-button-response,211,762428,0.0-16.0-4.0,66250,List1B,white,woman,,TRUE,1,,,,,
null,CORRECT,,html-keyboard-response,212,763943,0.0-16.0-5.0-0.0,66250,List1B,white,woman,,,,null,,,,
2702,"<img src=""portrait/WM1.jpg""style=""width:400px;height:400px;""></img>",6,html-button-response,213,766646,0.0-16.0-7.0,66250,List1B,white,woman,,TRUE,6,,,,,
null,CORRECT,,html-keyboard-response,214,768162,0.0-16.0-8.0-0.0,66250,List1B,white,woman,,,,null,,,,
3264,"<img src=""portrait/BW1.jpg""style=""width:400px;height:400px;""></img>",0,html-button-response,215,771428,0.0-16.0-10.0,66250,List1B,white,woman,,TRUE,0,,,,,
null,CORRECT,,html-keyboard-response,216,772940,0.0-16.0-11.0-0.0,66250,List1B,white,woman,,,,null,,,,
3388,"<img src=""portrait/BW2.jpg""style=""width:400px;height:400px;""></img>",2,html-button-response,217,776330,0.0-16.0-13.0,66250,List1B,white,woman,,TRUE,2,,,,,
null,CORRECT,,html-keyboard-response,218,777834,0.0-16.0-14.0-0.0,66250,List1B,white,woman,,,,null,,,,
3034,"<img src=""portrait/BM2.jpg""style=""width:400px;height:400px;""></img>",5,html-button-response,219,780870,0.0-16.0-16.0,66250,List1B,white,woman,,TRUE,5,,,,,
null,CORRECT,,html-keyboard-response,220,782388,0.0-16.0-17.0-0.0,66250,List1B,white,woman,,,,null,,,,
2164,"<img src=""portrait/BM1.jpg""style=""width:400px;height:400px;""></img>",4,html-button-response,221,784554,0.0-16.0-19.0,66250,List1B,white,woman,,TRUE,4,,,,,
null,CORRECT,,html-keyboard-response,222,786057,0.0-16.0-20.0-0.0,66250,List1B,white,woman,,,,null,,,,
2794,"<img src=""portrait/WM2.jpg""style=""width:400px;height:400px;""></img>",7,html-button-response,223,788853,0.0-16.0-22.0,66250,List1B,white,woman,,TRUE,7,,,,,
null,CORRECT,,html-keyboard-response,224,790357,0.0-16.0-23.0-0.0,66250,List1B,white,woman,,,,null,,,,
1524,<p>You got 8 out of 8 right first time. Press Continue.</p>,0,html-button-response,225,791883,0.0-16.0-25.0,66250,List1B,white,woman,,,,,,,,
null,"<div style=""font-size:60px;"">+</div>",,html-keyboard-response,226,793396,0.0-17.0-0.0,66250,List1B,white,woman,,,,null,,,,
null,"<img src=""stim_listB/marry7.gif""</stim_listB>",,html-keyboard-response,227,795402,0.0-17.0-1.0,66250,List1B,white,woman,,,,null,,,,
null,is marrying,,html-keyboard-response,228,797403,0.0-17.0-2.0,66250,List1B,white,woman,,,,null,,,,
11854,,,survey-text,229,809258,0.0-17.0-3.0,66250,List1B,white,woman,,,,,"{""Q0"":""Kate is marrying Ruth""}","<img src=""stim_listB/marry7.gif""</stim_listB>",is marrying,
null,"<div style=""font-size:60px;"">+</div>",,html-keyboard-response,230,809771,0.0-17.0-0.1,66250,List1B,white,woman,,,,null,,,,
null,"<img src=""stim_listB/hug1.gif""</stim_listB>",,html-keyboard-response,231,811777,0.0-17.0-1.1,66250,List1B,white,woman,,,,null,,,,
null,is hugging,,html-keyboard-response,232,813793,0.0-17.0-2.1,66250,List1B,white,woman,,,,null,,,,
10997,,,survey-text,233,824790,0.0-17.0-3.1,66250,List1B,white,woman,,,,,"{""Q0"":""Fred is hugging Beth""}","<img src=""stim_listB/hug1.gif""</stim_listB>",is hugging,
null,"<div style=""font-size:60px;"">+</div>",,html-keyboard-response,234,825294,0.0-17.0-0.2,66250,List1B,white,woman,,,,null,,,,
null,"<img src=""stim_listB/argue2.gif""</stim_listB>",,html-keyboard-response,235,827295,0.0-17.0-1.2,66250,List1B,white,woman,,,,null,,,,
null,are arguing with each other,,html-keyboard-response,236,829303,0.0-17.0-2.2,66250,List1B,white,woman,,,,null,,,,
9444,,,survey-text,237,838748,0.0-17.0-3.2,66250,List1B,white,woman,,,,,"{""Q0"":""Fred and Kate are arguing with each other""}","<img src=""stim_listB/argue2.gif""</stim_listB>",are arguing with each other,
null,"<div style=""font-size:60px;"">+</div>",,html-keyboard-response,238,839249,0.0-17.0-0.3,66250,List1B,white,woman,,,,null,,,,
null,"<img src=""stim_listB/marry8.gif""</stim_listB>",,html-keyboard-response,239,841265,0.0-17.0-1.3,66250,List1B,white,woman,,,,null,,,,
null,are marrying each other,,html-keyboard-response,240,843273,0.0-17.0-2.3,66250,List1B,white,woman,,,,null,,,,
7619,,,survey-text,241,850892,0.0-17.0-3.3,66250,List1B,white,woman,,,,,"{""Q0"":""jane and beth are marrying each other""}","<img src=""stim_listB/marry8.gif""</stim_listB>",are marrying each other,
null,"<div style=""font-size:60px;"">+</div>",,html-keyboard-response,242,851401,0.0-17.0-0.4,66250,List1B,white,woman,,,,null,,,,
null,"<img src=""stim_listB/marry1.gif""</stim_listB>",,html-keyboard-response,243,853415,0.0-17.0-1.4,66250,List1B,white,woman,,,,null,,,,
null,is marrying,,html-keyboard-response,244,855428,0.0-17.0-2.4,66250,List1B,white,woman,,,,null,,,,
7760,,,survey-text,245,863190,0.0-17.0-3.4,66250,List1B,white,woman,,,,,"{""Q0"":""Beth is marrying mike""}","<img src=""stim_listB/marry1.gif""</stim_listB>",is marrying,
null,"<div style=""font-size:60px;"">+</div>",,html-keyboard-response,246,863701,0.0-17.0-0.5,66250,List1B,white,woman,,,,null,,,,
null,"<img src=""stim_listB/meet2.gif""</stim_listB>",,html-keyboard-response,247,865704,0.0-17.0-1.5,66250,List1B,white,woman,,,,null,,,,
null,are meeting each other,,html-keyboard-response,248,867711,0.0-17.0-2.5,66250,List1B,white,woman,,,,null,,,,
7727,,,survey-text,249,875440,0.0-17.0-3.5,66250,List1B,white,woman,,,,,"{""Q0"":""fred and beth are meeting each other""}","<img src=""stim_listB/meet2.gif""</stim_listB>",are meeting each other,
null,"<div style=""font-size:60px;"">+</div>",,html-keyboard-response,250,875941,0.0-17.0-0.6,66250,List1B,white,woman,,,,null,,,,
null,"<img src=""stim_listB/shout3.gif""</stim_listB>",,html-keyboard-response,251,877947,0.0-17.0-1.6,66250,List1B,white,woman,,,,null,,,,
null,is shouting at,,html-keyboard-response,252,879963,0.0-17.0-2.6,66250,List1B,white,woman,,,,null,,,,
6971,,,survey-text,253,886935,0.0-17.0-3.6,66250,List1B,white,woman,,,,,"{""Q0"":""ruth is shouting at luke""}","<img src=""stim_listB/shout3.gif""</stim_listB>",is shouting at,
null,"<div style=""font-size:60px;"">+</div>",,html-keyboard-response,254,887449,0.0-17.0-0.7,66250,List1B,white,woman,,,,null,,,,
null,"<img src=""stim_listB/marry5.gif""</stim_listB>",,html-keyboard-response,255,889455,0.0-17.0-1.7,66250,List1B,white,woman,,,,null,,,,
null,is marrying,,html-keyboard-response,256,891465,0.0-17.0-2.7,66250,List1B,white,woman,,,,null,,,,
9894,,,survey-text,257,901360,0.0-17.0-3.7,66250,List1B,white,woman,,,,,"{""Q0"":""luke is marrying mike""}","<img src=""stim_listB/marry5.gif""</stim_listB>",is marrying,
null,"<div style=""font-size:60px;"">+</div>",,html-keyboard-response,258,901873,0.0-17.0-0.8,66250,List1B,white,woman,,,,null,,,,
null,"<img src=""stim_listB/talk7.gif""</stim_listB>",,html-keyboard-response,259,903875,0.0-17.0-1.8,66250,List1B,white,woman,,,,null,,,,
null,is talking to,,html-keyboard-response,260,905880,0.0-17.0-2.8,66250,List1B,white,woman,,,,null,,,,
7065,,,survey-text,261,912946,0.0-17.0-3.8,66250,List1B,white,woman,,,,,"{""Q0"":""jane is talking to beth""}","<img src=""stim_listB/talk7.gif""</stim_listB>",is talking to,
null,"<div style=""font-size:60px;"">+</div>",,html-keyboard-response,262,913447,0.0-17.0-0.9,66250,List1B,white,woman,,,,null,,,,
null,"<img src=""stim_listB/kiss5.gif""</stim_listB>",,html-keyboard-response,263,915460,0.0-17.0-1.9,66250,List1B,white,woman,,,,null,,,,
null,is kissing,,html-keyboard-response,264,917476,0.0-17.0-2.9,66250,List1B,white,woman,,,,null,,,,
7162,,,survey-text,265,924638,0.0-17.0-3.9,66250,List1B,white,woman,,,,,"{""Q0"":""fred is kissing luke""}","<img src=""stim_listB/kiss5.gif""</stim_listB>",is kissing,
null,"<div style=""font-size:60px;"">+</div>",,html-keyboard-response,266,925140,0.0-17.0-0.10,66250,List1B,white,woman,,,,null,,,,
null,"<img src=""stim_listB/talk2.gif""</stim_listB>",,html-keyboard-response,267,927142,0.0-17.0-1.10,66250,List1B,white,woman,,,,null,,,,
null,are talking to each other,,html-keyboard-response,268,929147,0.0-17.0-2.10,66250,List1B,white,woman,,,,null,,,,
11782,,,survey-text,269,940930,0.0-17.0-3.10,66250,List1B,white,woman,,,,,"{""Q0"":""mike and beth are talking to each other""}","<img src=""stim_listB/talk2.gif""</stim_listB>",are talking to each other,
null,"<div style=""font-size:60px;"">+</div>",,html-keyboard-response,270,941446,0.0-17.0-0.11,66250,List1B,white,woman,,,,null,,,,
null,"<img src=""stim_listB/dance7.gif""</stim_listB>",,html-keyboard-response,271,943448,0.0-17.0-1.11,66250,List1B,white,woman,,,,null,,,,
null,is dancing with,,html-keyboard-response,272,945460,0.0-17.0-2.11,66250,List1B,white,woman,,,,null,,,,
5202,,,survey-text,273,950663,0.0-17.0-3.11,66250,List1B,white,woman,,,,,"{""Q0"":""jane is dancing with beth""}","<img src=""stim_listB/dance7.gif""</stim_listB>",is dancing with,
null,"<div style=""font-size:60px;"">+</div>",,html-keyboard-response,274,951166,0.0-17.0-0.12,66250,List1B,white,woman,,,,null,,,,
null,"<img src=""stim_listB/kiss6.gif""</stim_listB>",,html-keyboard-response,275,953168,0.0-17.0-1.12,66250,List1B,white,woman,,,,null,,,,
null,are kissing each other,,html-keyboard-response,276,955180,0.0-17.0-2.12,66250,List1B,white,woman,,,,null,,,,
7542,,,survey-text,277,962723,0.0-17.0-3.12,66250,List1B,white,woman,,,,,"{""Q0"":""dave and mike are kissing each other""}","<img src=""stim_listB/kiss6.gif""</stim_listB>",are kissing each other,
null,"<div style=""font-size:60px;"">+</div>",,html-keyboard-response,278,963229,0.0-17.0-0.13,66250,List1B,white,woman,,,,null,,,,
null,"<img src=""stim_listB/meet4.gif""</stim_listB>",,html-keyboard-response,279,965242,0.0-17.0-1.13,66250,List1B,white,woman,,,,null,,,,
null,are meeting each other,,html-keyboard-response,280,967258,0.0-17.0-2.13,66250,List1B,white,woman,,,,null,,,,
10217,,,survey-text,281,977475,0.0-17.0-3.13,66250,List1B,white,woman,,,,,"{""Q0"":""luke and ruth are meeting each other""}","<img src=""stim_listB/meet4.gif""</stim_listB>",are meeting each other,
null,"<div style=""font-size:60px;"">+</div>",,html-keyboard-response,282,977977,0.0-17.0-0.14,66250,List1B,white,woman,,,,null,,,,
null,"<img src=""stim_listB/hug6.gif""</stim_listB>",,html-keyboard-response,283,980007,0.0-17.0-1.14,66250,List1B,white,woman,,,,null,,,,
null,are hugging each other,,html-keyboard-response,284,982023,0.0-17.0-2.14,66250,List1B,white,woman,,,,null,,,,
7837,,,survey-text,285,989861,0.0-17.0-3.14,66250,List1B,white,woman,,,,,"{""Q0"":""mike and dave are hugging each other""}","<img src=""stim_listB/hug6.gif""</stim_listB>",are hugging each other,
null,"<div style=""font-size:60px;"">+</div>",,html-keyboard-response,286,990367,0.0-17.0-0.15,66250,List1B,white,woman,,,,null,,,,
null,"<img src=""stim_listB/argue8.gif""</stim_listB>",,html-keyboard-response,287,992372,0.0-17.0-1.15,66250,List1B,white,woman,,,,null,,,,
null,are arguing with each other,,html-keyboard-response,288,994373,0.0-17.0-2.15,66250,List1B,white,woman,,,,null,,,,
8891,,,survey-text,289,1003264,0.0-17.0-3.15,66250,List1B,white,woman,,,,,"{""Q0"":""jane and beth are arguing with each other""}","<img src=""stim_listB/argue8.gif""</stim_listB>",are arguing with each other,
null,"<div style=""font-size:60px;"">+</div>",,html-keyboard-response,290,1003766,0.0-17.0-0.16,66250,List1B,white,woman,,,,null,,,,
null,"<img src=""stim_listB/touch6.gif""</stim_listB>",,html-keyboard-response,291,1005768,0.0-17.0-1.16,66250,List1B,white,woman,,,,null,,,,
null,are touching each other,,html-keyboard-response,292,1007769,0.0-17.0-2.16,66250,List1B,white,woman,,,,null,,,,
9682,,,survey-text,293,1017453,0.0-17.0-3.16,66250,List1B,white,woman,,,,,"{""Q0"":""fred and luke are touching each other""}","<img src=""stim_listB/touch6.gif""</stim_listB>",are touching each other,
null,"<div style=""font-size:60px;"">+</div>",,html-keyboard-response,294,1017954,0.0-17.0-0.17,66250,List1B,white,woman,,,,null,,,,
null,"<img src=""stim_listB/fight6.gif""</stim_listB>",,html-keyboard-response,295,1019961,0.0-17.0-1.17,66250,List1B,white,woman,,,,null,,,,
null,are fighting each other,,html-keyboard-response,296,1021977,0.0-17.0-2.17,66250,List1B,white,woman,,,,null,,,,
7252,,,survey-text,297,1029231,0.0-17.0-3.17,66250,List1B,white,woman,,,,,"{""Q0"":""fred and luke are fighting each other""}","<img src=""stim_listB/fight6.gif""</stim_listB>",are fighting each other,
null,"<div style=""font-size:60px;"">+</div>",,html-keyboard-response,298,1029737,0.0-17.0-0.18,66250,List1B,white,woman,,,,null,,,,
null,"<img src=""stim_listB/fight5.gif""</stim_listB>",,html-keyboard-response,299,1031744,0.0-17.0-1.18,66250,List1B,white,woman,,,,null,,,,
null,is fighting,,html-keyboard-response,300,1033759,0.0-17.0-2.18,66250,List1B,white,woman,,,,null,,,,
6230,,,survey-text,301,1039991,0.0-17.0-3.18,66250,List1B,white,woman,,,,,"{""Q0"":""dave is fighting mike""}","<img src=""stim_listB/fight5.gif""</stim_listB>",is fighting,
null,"<div style=""font-size:60px;"">+</div>",,html-keyboard-response,302,1040503,0.0-17.0-0.19,66250,List1B,white,woman,,,,null,,,,
null,"<img src=""stim_listB/talk1.gif""</stim_listB>",,html-keyboard-response,303,1042518,0.0-17.0-1.19,66250,List1B,white,woman,,,,null,,,,
null,is talking to,,html-keyboard-response,304,1044524,0.0-17.0-2.19,66250,List1B,white,woman,,,,null,,,,
6136,,,survey-text,305,1050661,0.0-17.0-3.19,66250,List1B,white,woman,,,,,"{""Q0"":""kate is talking to fred""}","<img src=""stim_listB/talk1.gif""</stim_listB>",is talking to,
2394,"<img src='img/portrait_matrix_list1.JPG' style='width:900px;height:500px;''></img><p>If you have memorised all the portraits and names and are ready to start, press Continue.</p><p><strong>Please note: Your memory of these faces will be tested 4 times during this experiment.</strong></p>",0,html-button-response,306,1053057,0.0-18.0-0.0,66250,List1B,white,woman,,,,,,,,
2429,"<img src=""portrait/WW2.jpg""style=""width:400px;height:400px;""></img>",3,html-button-response,307,1056489,0.0-18.0-1.0,66250,List1B,white,woman,,TRUE,3,,,,,
null,CORRECT,,html-keyboard-response,308,1057991,0.0-18.0-2.0-0.0,66250,List1B,white,woman,,,,null,,,,
2946,"<img src=""portrait/BM2.jpg""style=""width:400px;height:400px;""></img>",5,html-button-response,309,1060939,0.0-18.0-4.0,66250,List1B,white,woman,,TRUE,5,,,,,
null,CORRECT,,html-keyboard-response,310,1062442,0.0-18.0-5.0-0.0,66250,List1B,white,woman,,,,null,,,,
3427,"<img src=""portrait/WM1.jpg""style=""width:400px;height:400px;""></img>",6,html-button-response,311,1065871,0.0-18.0-7.0,66250,List1B,white,woman,,TRUE,6,,,,,
null,CORRECT,,html-keyboard-response,312,1067391,0.0-18.0-8.0-0.0,66250,List1B,white,woman,,,,null,,,,
2595,"<img src=""portrait/BW2.jpg""style=""width:400px;height:400px;""></img>",2,html-button-response,313,1069988,0.0-18.0-10.0,66250,List1B,white,woman,,TRUE,2,,,,,
null,CORRECT,,html-keyboard-response,314,1071500,0.0-18.0-11.0-0.0,66250,List1B,white,woman,,,,null,,,,
2714,"<img src=""portrait/WM2.jpg""style=""width:400px;height:400px;""></img>",7,html-button-response,315,1074215,0.0-18.0-13.0,66250,List1B,white,woman,,TRUE,7,,,,,
null,CORRECT,,html-keyboard-response,316,1075741,0.0-18.0-14.0-0.0,66250,List1B,white,woman,,,,null,,,,
4523,"<img src=""portrait/WW1.jpg""style=""width:400px;height:400px;""></img>",1,html-button-response,317,1080265,0.0-18.0-16.0,66250,List1B,white,woman,,TRUE,1,,,,,
null,CORRECT,,html-keyboard-response,318,1081768,0.0-18.0-17.0-0.0,66250,List1B,white,woman,,,,null,,,,
4214,"<img src=""portrait/BW1.jpg""style=""width:400px;height:400px;""></img>",0,html-button-response,319,1085984,0.0-18.0-19.0,66250,List1B,white,woman,,TRUE,0,,,,,
null,CORRECT,,html-keyboard-response,320,1087499,0.0-18.0-20.0-0.0,66250,List1B,white,woman,,,,null,,,,
3194,"<img src=""portrait/BM1.jpg""style=""width:400px;height:400px;""></img>",4,html-button-response,321,1090694,0.0-18.0-22.0,66250,List1B,white,woman,,TRUE,4,,,,,
null,CORRECT,,html-keyboard-response,322,1092224,0.0-18.0-23.0-0.0,66250,List1B,white,woman,,,,null,,,,
1237,<p>You got 8 out of 8 right first time. Press Continue.</p>,0,html-button-response,323,1093462,0.0-18.0-25.0,66250,List1B,white,woman,,,,,,,,
null,"<div style=""font-size:60px;"">+</div>",,html-keyboard-response,324,1094975,0.0-19.0-0.0,66250,List1B,white,woman,,,,null,,,,
null,"<img src=""stim_listB/fight8.gif""</stim_listB>",,html-keyboard-response,325,1096977,0.0-19.0-1.0,66250,List1B,white,woman,,,,null,,,,
null,are fighting each other,,html-keyboard-response,326,1098992,0.0-19.0-2.0,66250,List1B,white,woman,,,,null,,,,
9505,,,survey-text,327,1108498,0.0-19.0-3.0,66250,List1B,white,woman,,,,,"{""Q0"":""ruth and kate are fighting each other""}","<img src=""stim_listB/fight8.gif""</stim_listB>",are fighting each other,
null,"<div style=""font-size:60px;"">+</div>",,html-keyboard-response,328,1109002,0.0-19.0-0.1,66250,List1B,white,woman,,,,null,,,,
null,"<img src=""stim_listB/kiss4.gif""</stim_listB>",,html-keyboard-response,329,1111019,0.0-19.0-1.1,66250,List1B,white,woman,,,,null,,,,
null,are kissing each other,,html-keyboard-response,330,1113034,0.0-19.0-2.1,66250,List1B,white,woman,,,,null,,,,
6264,,,survey-text,331,1119299,0.0-19.0-3.1,66250,List1B,white,woman,,,,,"{""Q0"":""dave and jane are kissing each other""}","<img src=""stim_listB/kiss4.gif""</stim_listB>",are kissing each other,
null,"<div style=""font-size:60px;"">+</div>",,html-keyboard-response,332,1119801,0.0-19.0-0.2,66250,List1B,white,woman,,,,null,,,,
null,"<img src=""stim_listB/shout2.gif""</stim_listB>",,html-keyboard-response,333,1121809,0.0-19.0-1.2,66250,List1B,white,woman,,,,null,,,,
null,are shouting at each other,,html-keyboard-response,334,1123810,0.0-19.0-2.2,66250,List1B,white,woman,,,,null,,,,
7216,,,survey-text,335,1131027,0.0-19.0-3.2,66250,List1B,white,woman,,,,,"{""Q0"":""kate and mike are shouting at each other""}","<img src=""stim_listB/shout2.gif""</stim_listB>",are shouting at each other,
null,"<div style=""font-size:60px;"">+</div>",,html-keyboard-response,336,1131542,0.0-19.0-0.3,66250,List1B,white,woman,,,,null,,,,
null,"<img src=""stim_listB/dance4.gif""</stim_listB>",,html-keyboard-response,337,1133543,0.0-19.0-1.3,66250,List1B,white,woman,,,,null,,,,
null,are dancing with each other,,html-keyboard-response,338,1135549,0.0-19.0-2.3,66250,List1B,white,woman,,,,null,,,,
8479,,,survey-text,339,1144028,0.0-19.0-3.3,66250,List1B,white,woman,,,,,"{""Q0"":""ruth and dave are dancing with each other""}","<img src=""stim_listB/dance4.gif""</stim_listB>",are dancing with each other,
null,"<div style=""font-size:60px;"">+</div>",,html-keyboard-response,340,1144541,0.0-19.0-0.4,66250,List1B,white,woman,,,,null,,,,
null,"<img src=""stim_listB/fight3.gif""</stim_listB>",,html-keyboard-response,341,1146556,0.0-19.0-1.4,66250,List1B,white,woman,,,,null,,,,
null,is fighting,,html-keyboard-response,342,1148566,0.0-19.0-2.4,66250,List1B,white,woman,,,,null,,,,
5670,,,survey-text,343,1154236,0.0-19.0-3.4,66250,List1B,white,woman,,,,,"{""Q0"":""jane is fighting dave""}","<img src=""stim_listB/fight3.gif""</stim_listB>",is fighting,
null,"<div style=""font-size:60px;"">+</div>",,html-keyboard-response,344,1154749,0.0-19.0-0.5,66250,List1B,white,woman,,,,null,,,,
null,"<img src=""stim_listB/hug7.gif""</stim_listB>",,html-keyboard-response,345,1156756,0.0-19.0-1.5,66250,List1B,white,woman,,,,null,,,,
null,is hugging,,html-keyboard-response,346,1158767,0.0-19.0-2.5,66250,List1B,white,woman,,,,null,,,,
7937,,,survey-text,347,1166705,0.0-19.0-3.5,66250,List1B,white,woman,,,,,"{""Q0"":""ruth is hugging beth""}","<img src=""stim_listB/hug7.gif""</stim_listB>",is hugging,
null,"<div style=""font-size:60px;"">+</div>",,html-keyboard-response,348,1167206,0.0-19.0-0.6,66250,List1B,white,woman,,,,null,,,,
null,"<img src=""stim_listB/shout5.gif""</stim_listB>",,html-keyboard-response,349,1169207,0.0-19.0-1.6,66250,List1B,white,woman,,,,null,,,,
null,is shouting at,,html-keyboard-response,350,1171208,0.0-19.0-2.6,66250,List1B,white,woman,,,,null,,,,
7304,,,survey-text,351,1178513,0.0-19.0-3.6,66250,List1B,white,woman,,,,,"{""Q0"":""fred is shouting at luke""}","<img src=""stim_listB/shout5.gif""</stim_listB>",is shouting at,
null,"<div style=""font-size:60px;"">+</div>",,html-keyboard-response,352,1179018,0.0-19.0-0.7,66250,List1B,white,woman,,,,null,,,,
null,"<img src=""stim_listB/marry2.gif""</stim_listB>",,html-keyboard-response,353,1181020,0.0-19.0-1.7,66250,List1B,white,woman,,,,null,,,,
null,are marrying each other,,html-keyboard-response,354,1183029,0.0-19.0-2.7,66250,List1B,white,woman,,,,null,,,,
9772,,,survey-text,355,1192802,0.0-19.0-3.7,66250,List1B,white,woman,,,,,"{""Q0"":""fred and kate are marrying each other""}","<img src=""stim_listB/marry2.gif""</stim_listB>",are marrying each other,
null,"<div style=""font-size:60px;"">+</div>",,html-keyboard-response,356,1193318,0.0-19.0-0.8,66250,List1B,white,woman,,,,null,,,,
null,"<img src=""stim_listB/touch3.gif""</stim_listB>",,html-keyboard-response,357,1195324,0.0-19.0-1.8,66250,List1B,white,woman,,,,null,,,,
null,is touching,,html-keyboard-response,358,1197333,0.0-19.0-2.8,66250,List1B,white,woman,,,,null,,,,
7376,,,survey-text,359,1204711,0.0-19.0-3.8,66250,List1B,white,woman,,,,,"{""Q0"":""jane is touching dave""}","<img src=""stim_listB/touch3.gif""</stim_listB>",is touching,
null,"<div style=""font-size:60px;"">+</div>",,html-keyboard-response,360,1205222,0.0-19.0-0.9,66250,List1B,white,woman,,,,null,,,,
null,"<img src=""stim_listB/fight1.gif""</stim_listB>",,html-keyboard-response,361,1207238,0.0-19.0-1.9,66250,List1B,white,woman,,,,null,,,,
null,is fighting,,html-keyboard-response,362,1209240,0.0-19.0-2.9,66250,List1B,white,woman,,,,null,,,,
6019,,,survey-text,363,1215260,0.0-19.0-3.9,66250,List1B,white,woman,,,,,"{""Q0"":""mike is fighting kate""}","<img src=""stim_listB/fight1.gif""</stim_listB>",is fighting,
null,"<div style=""font-size:60px;"">+</div>",,html-keyboard-response,364,1215766,0.0-19.0-0.10,66250,List1B,white,woman,,,,null,,,,
null,"<img src=""stim_listB/touch4.gif""</stim_listB>",,html-keyboard-response,365,1217772,0.0-19.0-1.10,66250,List1B,white,woman,,,,null,,,,
null,are touching each other,,html-keyboard-response,366,1219774,0.0-19.0-2.10,66250,List1B,white,woman,,,,null,,,,
9477,,,survey-text,367,1229252,0.0-19.0-3.10,66250,List1B,white,woman,,,,,"{""Q0"":""ruth and luke are touching each other""}","<img src=""stim_listB/touch4.gif""</stim_listB>",are touching each other,
null,"<div style=""font-size:60px;"">+</div>",,html-keyboard-response,368,1229764,0.0-19.0-0.11,66250,List1B,white,woman,,,,null,,,,
null,"<img src=""stim_listB/meet7.gif""</stim_listB>",,html-keyboard-response,369,1231770,0.0-19.0-1.11,66250,List1B,white,woman,,,,null,,,,
null,is meeting,,html-keyboard-response,370,1233771,0.0-19.0-2.11,66250,List1B,white,woman,,,,null,,,,
5565,,,survey-text,371,1239337,0.0-19.0-3.11,66250,List1B,white,woman,,,,,"{""Q0"":""kate is meeting jane""}","<img src=""stim_listB/meet7.gif""</stim_listB>",is meeting,
null,"<div style=""font-size:60px;"">+</div>",,html-keyboard-response,372,1239849,0.0-19.0-0.12,66250,List1B,white,woman,,,,null,,,,
null,"<img src=""stim_listB/argue5.gif""</stim_listB>",,html-keyboard-response,373,1241860,0.0-19.0-1.12,66250,List1B,white,woman,,,,null,,,,
null,is arguing with,,html-keyboard-response,374,1243862,0.0-19.0-2.12,66250,List1B,white,woman,,,,null,,,,
7962,,,survey-text,375,1251825,0.0-19.0-3.12,66250,List1B,white,woman,,,,,"{""Q0"":""luke is arguing with mike""}","<img src=""stim_listB/argue5.gif""</stim_listB>",is arguing with,
null,"<div style=""font-size:60px;"">+</div>",,html-keyboard-response,376,1252327,0.0-19.0-0.13,66250,List1B,white,woman,,,,null,,,,
null,"<img src=""stim_listB/marry4.gif""</stim_listB>",,html-keyboard-response,377,1254332,0.0-19.0-1.13,66250,List1B,white,woman,,,,null,,,,
null,are marrying each other,,html-keyboard-response,378,1256337,0.0-19.0-2.13,66250,List1B,white,woman,,,,null,,,,
6741,,,survey-text,379,1263079,0.0-19.0-3.13,66250,List1B,white,woman,,,,,"{""Q0"":""jane and luke are marrying each other""}","<img src=""stim_listB/marry4.gif""</stim_listB>",are marrying each other,
null,"<div style=""font-size:60px;"">+</div>",,html-keyboard-response,380,1263581,0.0-19.0-0.14,66250,List1B,white,woman,,,,null,,,,
null,"<img src=""stim_listB/shout7.gif""</stim_listB>",,html-keyboard-response,381,1265593,0.0-19.0-1.14,66250,List1B,white,woman,,,,null,,,,
null,is shouting at,,html-keyboard-response,382,1267601,0.0-19.0-2.14,66250,List1B,white,woman,,,,null,,,,
5664,,,survey-text,383,1273267,0.0-19.0-3.14,66250,List1B,white,woman,,,,,"{""Q0"":""ruth is shouting at beth""}","<img src=""stim_listB/shout7.gif""</stim_listB>",is shouting at,
null,"<div style=""font-size:60px;"">+</div>",,html-keyboard-response,384,1273771,0.0-19.0-0.15,66250,List1B,white,woman,,,,null,,,,
null,"<img src=""stim_listB/touch2.gif""</stim_listB>",,html-keyboard-response,385,1275783,0.0-19.0-1.15,66250,List1B,white,woman,,,,null,,,,
null,are touching each other,,html-keyboard-response,386,1277792,0.0-19.0-2.15,66250,List1B,white,woman,,,,null,,,,
7858,,,survey-text,387,1285652,0.0-19.0-3.15,66250,List1B,white,woman,,,,,"{""Q0"":""fred and beth are touching each other""}","<img src=""stim_listB/touch2.gif""</stim_listB>",are touching each other,
null,"<div style=""font-size:60px;"">+</div>",,html-keyboard-response,388,1286159,0.0-19.0-0.16,66250,List1B,white,woman,,,,null,,,,
null,"<img src=""stim_listB/hug4.gif""</stim_listB>",,html-keyboard-response,389,1288160,0.0-19.0-1.16,66250,List1B,white,woman,,,,null,,,,
null,are hugging each other,,html-keyboard-response,390,1290168,0.0-19.0-2.16,66250,List1B,white,woman,,,,null,,,,
8341,,,survey-text,391,1298511,0.0-19.0-3.16,66250,List1B,white,woman,,,,,"{""Q0"":""dave and jane are hugging each other""}","<img src=""stim_listB/hug4.gif""</stim_listB>",are hugging each other,
null,"<div style=""font-size:60px;"">+</div>",,html-keyboard-response,392,1299013,0.0-19.0-0.17,66250,List1B,white,woman,,,,null,,,,
null,"<img src=""stim_listB/kiss3.gif""</stim_listB>",,html-keyboard-response,393,1301015,0.0-19.0-1.17,66250,List1B,white,woman,,,,null,,,,
null,is kissing,,html-keyboard-response,394,1303028,0.0-19.0-2.17,66250,List1B,white,woman,,,,null,,,,
6727,,,survey-text,395,1309755,0.0-19.0-3.17,66250,List1B,white,woman,,,,,"{""Q0"":""ruth is kissing luke""}","<img src=""stim_listB/kiss3.gif""</stim_listB>",is kissing,
null,"<div style=""font-size:60px;"">+</div>",,html-keyboard-response,396,1310257,0.0-19.0-0.18,66250,List1B,white,woman,,,,null,,,,
null,"<img src=""stim_listB/argue1.gif""</stim_listB>",,html-keyboard-response,397,1312263,0.0-19.0-1.18,66250,List1B,white,woman,,,,null,,,,
null,is arguing with,,html-keyboard-response,398,1314278,0.0-19.0-2.18,66250,List1B,white,woman,,,,null,,,,
8536,,,survey-text,399,1322816,0.0-19.0-3.18,66250,List1B,white,woman,,,,,"{""Q0"":""beth is arguing with mike""}","<img src=""stim_listB/argue1.gif""</stim_listB>",is arguing with,
null,"<div style=""font-size:60px;"">+</div>",,html-keyboard-response,400,1323330,0.0-19.0-0.19,66250,List1B,white,woman,,,,null,,,,
null,"<img src=""stim_listB/fight7.gif""</stim_listB>",,html-keyboard-response,401,1325336,0.0-19.0-1.19,66250,List1B,white,woman,,,,null,,,,
null,is fighting,,html-keyboard-response,402,1327349,0.0-19.0-2.19,66250,List1B,white,woman,,,,null,,,,
6318,,,survey-text,403,1333667,0.0-19.0-3.19,66250,List1B,white,woman,,,,,"{""Q0"":""jane is fighting kate""}","<img src=""stim_listB/fight7.gif""</stim_listB>",is fighting,
2516,<p>Thank you for completing that task.</p><p>The final part of this session is a short questionnaire.</p><p>Press Continue.</p>,0,html-button-response,404,1336184,0.0-20.0,66250,List1B,white,woman,,,,,,,,
22528,,,survey-text,405,1359718,0.0-21.0,66250,List1B,white,woman,,,,,"{""Q0"":""21"",""Q1"":""English"",""Q2"":""English"",""Q3"":""England"",""Q4"":""White British"",""Q5"":""Female""}",,,demographics
39237,,,survey-likert,406,1398960,0.0-22.0,66250,List1B,white,woman,,,,,"{""Q0"":0,""Q1"":0,""Q2"":0,""Q3"":6,""Q4"":0,""Q5"":6,""Q6"":0,""Q7"":0,""Q8"":0,""Q9"":0,""Q10"":4,""Q11"":4,""Q12"":4,""Q13"":4}",,,likert_race
41165,,,survey-likert,407,1440133,0.0-23.0,66250,List1B,white,woman,,,,,"{""Q0"":6,""Q1"":6,""Q2"":6,""Q3"":5,""Q4"":6,""Q5"":1,""Q6"":6,""Q7"":5,""Q8"":5,""Q9"":5,""Q10"":2,""Q11"":2,""Q12"":1,""Q13"":1}",,,likert_gender
32182,,,survey-text,408,1472321,0.0-24.0,66250,List1B,white,woman,,,,,"{""Q0"":""ccc""}",,,worker_id
18746,,,external-html,409,1491115,0.0-25.0,66250,List1B,white,woman,debrief.html,,,,,,,
