rt,stimulus,button_pressed,trial_type,trial_index,time_elapsed,internal_node_id,subject,list,ppt_race,ppt_gender,url,first_guess,correct,key_press,responses,image_type,phrase_type,test_part
3425,Welcome to the experiment. Press Continue to begin.,0,html-button-response,0,3430,0.0-0.0,66300,List1B,white,woman,,,,,,,,
19330,,,external-html,1,23925,0.0-1.0,66300,List1B,white,woman,consent.html,,,,,,,
10957,"<p>On the next page, you will see portraits of 8 people and their names.</p><p>Your first task is to take a few minutes to memorise the names of these people.</p><p>You will have to recall their names during the rest of the experiment, so it is</p><p>essential that you try to memorise these people and their names as best as you can.</p><br><p><strong>You will then be tested on your memory of these names and portraits.</strong></p><br><p>The experiment will start after you have completed this memory test.</p><br><p>Ready?</p>",0,html-button-response,2,34884,0.0-2.0,66300,List1B,white,woman,,,,,,,,
49677,"<img src='img/portrait_matrix_list1.JPG' style='width:900px;height:500px;''></img><p>If you have memorised all the portraits and names and are ready to start, press Continue.</p><p><strong>Please note: Your memory of these faces will be tested 4 times during this experiment.</strong></p>",0,html-button-response,3,85567,0.0-3.0-0.0,66300,List1B,white,woman,,,,,,,,
5853,"<img src=""portrait/BW1.jpg""style=""width:400px;height:400px;""></img>",0,html-button-response,4,92428,0.0-3.0-1.0,66300,List1B,white,woman,,TRUE,0,,,,,
null,CORRECT,,html-keyboard-response,5,93937,0.0-3.0-2.0-0.0,66300,List1B,white,woman,,,,null,,,,
21993,"<img src=""portrait/WW1.jpg""style=""width:400px;height:400px;""></img>",1,html-button-response,6,115937,0.0-3.0-4.0,66300,List1B,white,woman,,TRUE,1,,,,,
null,CORRECT,,html-keyboard-response,7,117442,0.0-3.0-5.0-0.0,66300,List1B,white,woman,,,,null,,,,
3937,"<img src=""portrait/WM2.jpg""style=""width:400px;height:400px;""></img>",7,html-button-response,8,121387,0.0-3.0-7.0,66300,List1B,white,woman,,TRUE,7,,,,,
null,CORRECT,,html-keyboard-response,9,122892,0.0-3.0-8.0-0.0,66300,List1B,white,woman,,,,null,,,,
5488,"<img src=""portrait/WM1.jpg""style=""width:400px;height:400px;""></img>",6,html-button-response,10,128386,0.0-3.0-10.0,66300,List1B,white,woman,,TRUE,6,,,,,
null,CORRECT,,html-keyboard-response,11,129892,0.0-3.0-11.0-0.0,66300,List1B,white,woman,,,,null,,,,
4735,"<img src=""portrait/BM1.jpg""style=""width:400px;height:400px;""></img>",4,html-button-response,12,134636,0.0-3.0-13.0,66300,List1B,white,woman,,TRUE,4,,,,,
null,CORRECT,,html-keyboard-response,13,136143,0.0-3.0-14.0-0.0,66300,List1B,white,woman,,,,null,,,,
7940,"<img src=""portrait/WW2.jpg""style=""width:400px;height:400px;""></img>",3,html-button-response,14,144091,0.0-3.0-16.0,66300,List1B,white,woman,,TRUE,3,,,,,
null,CORRECT,,html-keyboard-response,15,145596,0.0-3.0-17.0-0.0,66300,List1B,white,woman,,,,null,,,,
9948,"<img src=""portrait/BM2.jpg""style=""width:400px;height:400px;""></img>",5,html-button-response,16,155549,0.0-3.0-19.0,66300,List1B,white,woman,,TRUE,5,,,,,
null,CORRECT,,html-keyboard-response,17,157054,0.0-3.0-20.0-0.0,66300,List1B,white,woman,,,,null,,,,
4810,"<img src=""portrait/BW2.jpg""style=""width:400px;height:400px;""></img>",2,html-button-response,18,161870,0.0-3.0-22.0,66300,List1B,white,woman,,TRUE,2,,,,,
null,CORRECT,,html-keyboard-response,19,163374,0.0-3.0-23.0-0.0,66300,List1B,white,woman,,,,null,,,,
2040,<p>You got 8 out of 8 right first time. Press Continue.</p>,0,html-button-response,20,165420,0.0-3.0-25.0,66300,List1B,white,woman,,,,,,,,
151973,"<p>In this experiment, you will view photographs of the people from the memory game interacting.</p><p>By using the <strong>exact</strong> phrase given <i>after</i> the photograph appears and recalling the correct names of the people in the photographs, form a sentence describing the interaction. You do not need to capitalise names.</p><p>Type your answer in the space provided. Please complete every sentence before moving onto the next trial.</p><p>You will only have a few seconds to memorise each given photograph and phrase before you can respond, so try your best to focus.</p><p>An example is given below. Press 'Continue' when you are ready.</p><img src='img/speaking_example_v2.jpg' style='width:800px;height:460px;''></img>",0,html-button-response,21,318403,0.0-4.0,66300,List1B,white,woman,,,,,,,,
4021,"<p>Before the experiment starts, you will watch two example trials. Press 'Continue'.</p>",0,html-button-response,22,323433,0.0-5.0,66300,List1B,white,woman,,,,,,,,
null,<img src='img/speaking_WW.gif'></img>,,html-keyboard-response,23,326440,0.0-6.0,66300,List1B,white,woman,,,,null,,,,
null,<p>is speaking to</p>,,html-keyboard-response,24,328444,0.0-7.0,66300,List1B,white,woman,,,,null,,,,
2487,<p><b>Answer:</b> kate is speaking to beth</p>,0,html-button-response,25,330935,0.0-8.0,66300,List1B,white,woman,,,,,,,,
null,<img src='img/pointing_BM.gif'></img>,,html-keyboard-response,26,333940,0.0-9.0,66300,List1B,white,woman,,,,null,,,,
null,<p>are pointing at each other</p>,,html-keyboard-response,27,335944,0.0-10.0,66300,List1B,white,woman,,,,null,,,,
2153,<p><b>Answer:</b> luke and dave are pointing at each other</p>,0,html-button-response,28,338102,0.0-11.0,66300,List1B,white,woman,,,,,,,,
8013,"<p>Ready to start the experiment?</p><br><p><strong>Remember to describe the picture using a full sentence,</strong></p><p><strong>that combines the names of the people with the given phrase.</strong></p><p><strong>If you do not do this correctly you will not be paid.</strong></p><p><strong> You do not need to capitalise names or use punctuation.</strong></p><br><p>Press 'Continue' to begin.</p>",0,html-button-response,29,347120,0.0-12.0,66300,List1B,white,woman,,,,,,,,
null,"<div style=""font-size:60px;"">+</div>",,html-keyboard-response,30,348624,0.0-13.0-0.0,66300,List1B,white,woman,,,,null,,,,
null,"<img src=""stim_listB/kiss4.gif""</stim_listB>",,html-keyboard-response,31,350630,0.0-13.0-1.0,66300,List1B,white,woman,,,,null,,,,
null,are kissing each other,,html-keyboard-response,32,352634,0.0-13.0-2.0,66300,List1B,white,woman,,,,null,,,,
22755,,,survey-text,33,375395,0.0-13.0-3.0,66300,List1B,white,woman,,,,,"{""Q0"":""Jane is leaning into dave""}","<img src=""stim_listB/kiss4.gif""</stim_listB>",are kissing each other,
null,"<div style=""font-size:60px;"">+</div>",,html-keyboard-response,34,375899,0.0-13.0-0.1,66300,List1B,white,woman,,,,null,,,,
null,"<img src=""stim_listB/argue5.gif""</stim_listB>",,html-keyboard-response,35,377903,0.0-13.0-1.1,66300,List1B,white,woman,,,,null,,,,
null,is arguing with,,html-keyboard-response,36,379907,0.0-13.0-2.1,66300,List1B,white,woman,,,,null,,,,
11717,,,survey-text,37,391627,0.0-13.0-3.1,66300,List1B,white,woman,,,,,"{""Q0"":""Mike is pointing at luke""}","<img src=""stim_listB/argue5.gif""</stim_listB>",is arguing with,
null,"<div style=""font-size:60px;"">+</div>",,html-keyboard-response,38,392131,0.0-13.0-0.2,66300,List1B,white,woman,,,,null,,,,
null,"<img src=""stim_listB/dance3.gif""</stim_listB>",,html-keyboard-response,39,394136,0.0-13.0-1.2,66300,List1B,white,woman,,,,null,,,,
null,is dancing with,,html-keyboard-response,40,396139,0.0-13.0-2.2,66300,List1B,white,woman,,,,null,,,,
7896,,,survey-text,41,404040,0.0-13.0-3.2,66300,List1B,white,woman,,,,,"{""Q0"":""Jane and like are dancing""}","<img src=""stim_listB/dance3.gif""</stim_listB>",is dancing with,
null,"<div style=""font-size:60px;"">+</div>",,html-keyboard-response,42,404545,0.0-13.0-0.3,66300,List1B,white,woman,,,,null,,,,
null,"<img src=""stim_listB/talk7.gif""</stim_listB>",,html-keyboard-response,43,406551,0.0-13.0-1.3,66300,List1B,white,woman,,,,null,,,,
null,is talking to,,html-keyboard-response,44,408555,0.0-13.0-2.3,66300,List1B,white,woman,,,,null,,,,
12082,,,survey-text,45,420641,0.0-13.0-3.3,66300,List1B,white,woman,,,,,"{""Q0"":""Kate and Jane are dancing""}","<img src=""stim_listB/talk7.gif""</stim_listB>",is talking to,
null,"<div style=""font-size:60px;"">+</div>",,html-keyboard-response,46,421145,0.0-13.0-0.4,66300,List1B,white,woman,,,,null,,,,
null,"<img src=""stim_listB/shout1.gif""</stim_listB>",,html-keyboard-response,47,423151,0.0-13.0-1.4,66300,List1B,white,woman,,,,null,,,,
null,is shouting at,,html-keyboard-response,48,425155,0.0-13.0-2.4,66300,List1B,white,woman,,,,null,,,,
24986,,,survey-text,49,450145,0.0-13.0-3.4,66300,List1B,white,woman,,,,,"{""Q0"":""Fred is shouting at kate""}","<img src=""stim_listB/shout1.gif""</stim_listB>",is shouting at,
null,"<div style=""font-size:60px;"">+</div>",,html-keyboard-response,50,450648,0.0-13.0-0.5,66300,List1B,white,woman,,,,null,,,,
null,"<img src=""stim_listB/argue3.gif""</stim_listB>",,html-keyboard-response,51,452652,0.0-13.0-1.5,66300,List1B,white,woman,,,,null,,,,
null,is arguing with,,html-keyboard-response,52,454655,0.0-13.0-2.5,66300,List1B,white,woman,,,,null,,,,
22838,,,survey-text,53,477496,0.0-13.0-3.5,66300,List1B,white,woman,,,,,"{""Q0"":""Dave is shouting at beth""}","<img src=""stim_listB/argue3.gif""</stim_listB>",is arguing with,
null,"<div style=""font-size:60px;"">+</div>",,html-keyboard-response,54,478000,0.0-13.0-0.6,66300,List1B,white,woman,,,,null,,,,
null,"<img src=""stim_listB/marry2.gif""</stim_listB>",,html-keyboard-response,55,480004,0.0-13.0-1.6,66300,List1B,white,woman,,,,null,,,,
null,are marrying each other,,html-keyboard-response,56,482008,0.0-13.0-2.6,66300,List1B,white,woman,,,,null,,,,
18879,,,survey-text,57,500891,0.0-13.0-3.6,66300,List1B,white,woman,,,,,"{""Q0"":""Kate and Fred are marrying each other""}","<img src=""stim_listB/marry2.gif""</stim_listB>",are marrying each other,
null,"<div style=""font-size:60px;"">+</div>",,html-keyboard-response,58,501394,0.0-13.0-0.7,66300,List1B,white,woman,,,,null,,,,
null,"<img src=""stim_listB/hug7.gif""</stim_listB>",,html-keyboard-response,59,503398,0.0-13.0-1.7,66300,List1B,white,woman,,,,null,,,,
null,is hugging,,html-keyboard-response,60,505402,0.0-13.0-2.7,66300,List1B,white,woman,,,,null,,,,
29177,,,survey-text,61,534582,0.0-13.0-3.7,66300,List1B,white,woman,,,,,"{""Q0"":""Mike and Jane are shouting""}","<img src=""stim_listB/hug7.gif""</stim_listB>",is hugging,
null,"<div style=""font-size:60px;"">+</div>",,html-keyboard-response,62,535086,0.0-13.0-0.8,66300,List1B,white,woman,,,,null,,,,
null,"<img src=""stim_listB/marry1.gif""</stim_listB>",,html-keyboard-response,63,537090,0.0-13.0-1.8,66300,List1B,white,woman,,,,null,,,,
null,is marrying,,html-keyboard-response,64,539095,0.0-13.0-2.8,66300,List1B,white,woman,,,,null,,,,
16560,,,survey-text,65,555659,0.0-13.0-3.8,66300,List1B,white,woman,,,,,"{""Q0"":""Beth is marrying mike""}","<img src=""stim_listB/marry1.gif""</stim_listB>",is marrying,
null,"<div style=""font-size:60px;"">+</div>",,html-keyboard-response,66,556160,0.0-13.0-0.9,66300,List1B,white,woman,,,,null,,,,
null,"<img src=""stim_listB/kiss7.gif""</stim_listB>",,html-keyboard-response,67,558158,0.0-13.0-1.9,66300,List1B,white,woman,,,,null,,,,
null,is kissing,,html-keyboard-response,68,560158,0.0-13.0-2.9,66300,List1B,white,woman,,,,null,,,,
27148,,,survey-text,69,587314,0.0-13.0-3.9,66300,List1B,white,woman,,,,,"{""Q0"":""Beth is kissing luke""}","<img src=""stim_listB/kiss7.gif""</stim_listB>",is kissing,
null,"<div style=""font-size:60px;"">+</div>",,html-keyboard-response,70,587820,0.0-13.0-0.10,66300,List1B,white,woman,,,,null,,,,
null,"<img src=""stim_listB/hug6.gif""</stim_listB>",,html-keyboard-response,71,589824,0.0-13.0-1.10,66300,List1B,white,woman,,,,null,,,,
null,are hugging each other,,html-keyboard-response,72,591828,0.0-13.0-2.10,66300,List1B,white,woman,,,,null,,,,
14504,,,survey-text,73,606337,0.0-13.0-3.10,66300,List1B,white,woman,,,,,"{""Q0"":""Mike is hugging dave""}","<img src=""stim_listB/hug6.gif""</stim_listB>",are hugging each other,
null,"<div style=""font-size:60px;"">+</div>",,html-keyboard-response,74,606840,0.0-13.0-0.11,66300,List1B,white,woman,,,,null,,,,
null,"<img src=""stim_listB/dance6.gif""</stim_listB>",,html-keyboard-response,75,608844,0.0-13.0-1.11,66300,List1B,white,woman,,,,null,,,,
null,are dancing with each other,,html-keyboard-response,76,610848,0.0-13.0-2.11,66300,List1B,white,woman,,,,null,,,,
11108,,,survey-text,77,621960,0.0-13.0-3.11,66300,List1B,white,woman,,,,,"{""Q0"":""Luke is dancing with mike""}","<img src=""stim_listB/dance6.gif""</stim_listB>",are dancing with each other,
null,"<div style=""font-size:60px;"">+</div>",,html-keyboard-response,78,622463,0.0-13.0-0.12,66300,List1B,white,woman,,,,null,,,,
null,"<img src=""stim_listB/kiss5.gif""</stim_listB>",,html-keyboard-response,79,624467,0.0-13.0-1.12,66300,List1B,white,woman,,,,null,,,,
null,is kissing,,html-keyboard-response,80,626471,0.0-13.0-2.12,66300,List1B,white,woman,,,,null,,,,
13756,,,survey-text,81,640231,0.0-13.0-3.12,66300,List1B,white,woman,,,,,"{""Q0"":""Fred is kissing luke""}","<img src=""stim_listB/kiss5.gif""</stim_listB>",is kissing,
null,"<div style=""font-size:60px;"">+</div>",,html-keyboard-response,82,640734,0.0-13.0-0.13,66300,List1B,white,woman,,,,null,,,,
null,"<img src=""stim_listB/kiss8.gif""</stim_listB>",,html-keyboard-response,83,642738,0.0-13.0-1.13,66300,List1B,white,woman,,,,null,,,,
null,are kissing each other,,html-keyboard-response,84,644743,0.0-13.0-2.13,66300,List1B,white,woman,,,,null,,,,
9866,,,survey-text,85,654613,0.0-13.0-3.13,66300,List1B,white,woman,,,,,"{""Q0"":""Kate is kissing jane""}","<img src=""stim_listB/kiss8.gif""</stim_listB>",are kissing each other,
null,"<div style=""font-size:60px;"">+</div>",,html-keyboard-response,86,655116,0.0-13.0-0.14,66300,List1B,white,woman,,,,null,,,,
null,"<img src=""stim_listB/meet6.gif""</stim_listB>",,html-keyboard-response,87,657120,0.0-13.0-1.14,66300,List1B,white,woman,,,,null,,,,
null,are meeting each other,,html-keyboard-response,88,659124,0.0-13.0-2.14,66300,List1B,white,woman,,,,null,,,,
8399,,,survey-text,89,667527,0.0-13.0-3.14,66300,List1B,white,woman,,,,,"{""Q0"":""Fred is meeting luke""}","<img src=""stim_listB/meet6.gif""</stim_listB>",are meeting each other,
null,"<div style=""font-size:60px;"">+</div>",,html-keyboard-response,90,668030,0.0-13.0-0.15,66300,List1B,white,woman,,,,null,,,,
null,"<img src=""stim_listB/touch2.gif""</stim_listB>",,html-keyboard-response,91,670033,0.0-13.0-1.15,66300,List1B,white,woman,,,,null,,,,
null,are touching each other,,html-keyboard-response,92,672037,0.0-13.0-2.15,66300,List1B,white,woman,,,,null,,,,
8548,,,survey-text,93,680589,0.0-13.0-3.15,66300,List1B,white,woman,,,,,"{""Q0"":""Fred is touching beth""}","<img src=""stim_listB/touch2.gif""</stim_listB>",are touching each other,
null,"<div style=""font-size:60px;"">+</div>",,html-keyboard-response,94,681091,0.0-13.0-0.16,66300,List1B,white,woman,,,,null,,,,
null,"<img src=""stim_listB/touch5.gif""</stim_listB>",,html-keyboard-response,95,683095,0.0-13.0-1.16,66300,List1B,white,woman,,,,null,,,,
null,is touching,,html-keyboard-response,96,685100,0.0-13.0-2.16,66300,List1B,white,woman,,,,null,,,,
8122,,,survey-text,97,693226,0.0-13.0-3.16,66300,List1B,white,woman,,,,,"{""Q0"":""Mike is touching fred""}","<img src=""stim_listB/touch5.gif""</stim_listB>",is touching,
null,"<div style=""font-size:60px;"">+</div>",,html-keyboard-response,98,693728,0.0-13.0-0.17,66300,List1B,white,woman,,,,null,,,,
null,"<img src=""stim_listB/fight1.gif""</stim_listB>",,html-keyboard-response,99,695732,0.0-13.0-1.17,66300,List1B,white,woman,,,,null,,,,
null,is fighting,,html-keyboard-response,100,697737,0.0-13.0-2.17,66300,List1B,white,woman,,,,null,,,,
7036,,,survey-text,101,704777,0.0-13.0-3.17,66300,List1B,white,woman,,,,,"{""Q0"":""Mike is fighting beth""}","<img src=""stim_listB/fight1.gif""</stim_listB>",is fighting,
null,"<div style=""font-size:60px;"">+</div>",,html-keyboard-response,102,705279,0.0-13.0-0.18,66300,List1B,white,woman,,,,null,,,,
null,"<img src=""stim_listB/fight4.gif""</stim_listB>",,html-keyboard-response,103,707283,0.0-13.0-1.18,66300,List1B,white,woman,,,,null,,,,
null,are fighting each other,,html-keyboard-response,104,709288,0.0-13.0-2.18,66300,List1B,white,woman,,,,null,,,,
14220,,,survey-text,105,723512,0.0-13.0-3.18,66300,List1B,white,woman,,,,,"{""Q0"":""Luke is fighting ruth""}","<img src=""stim_listB/fight4.gif""</stim_listB>",are fighting each other,
null,"<div style=""font-size:60px;"">+</div>",,html-keyboard-response,106,724015,0.0-13.0-0.19,66300,List1B,white,woman,,,,null,,,,
null,"<img src=""stim_listB/touch1.gif""</stim_listB>",,html-keyboard-response,107,726019,0.0-13.0-1.19,66300,List1B,white,woman,,,,null,,,,
null,is touching,,html-keyboard-response,108,728026,0.0-13.0-2.19,66300,List1B,white,woman,,,,null,,,,
10385,,,survey-text,109,738414,0.0-13.0-3.19,66300,List1B,white,woman,,,,,"{""Q0"":""Mike is touching kate""}","<img src=""stim_listB/touch1.gif""</stim_listB>",is touching,
9056,"<img src='img/portrait_matrix_list1.JPG' style='width:900px;height:500px;''></img><p>If you have memorised all the portraits and names and are ready to start, press Continue.</p><p><strong>Please note: Your memory of these faces will be tested 4 times during this experiment.</strong></p>",0,html-button-response,110,747486,0.0-14.0-0.0,66300,List1B,white,woman,,,,,,,,
6821,"<img src=""portrait/BW1.jpg""style=""width:400px;height:400px;""></img>",0,html-button-response,111,755317,0.0-14.0-1.0,66300,List1B,white,woman,,TRUE,0,,,,,
null,CORRECT,,html-keyboard-response,112,756826,0.0-14.0-2.0-0.0,66300,List1B,white,woman,,,,null,,,,
6471,"<img src=""portrait/BM2.jpg""style=""width:400px;height:400px;""></img>",5,html-button-response,113,763306,0.0-14.0-4.0,66300,List1B,white,woman,,TRUE,5,,,,,
null,CORRECT,,html-keyboard-response,114,764812,0.0-14.0-5.0-0.0,66300,List1B,white,woman,,,,null,,,,
4098,"<img src=""portrait/WW2.jpg""style=""width:400px;height:400px;""></img>",3,html-button-response,115,768919,0.0-14.0-7.0,66300,List1B,white,woman,,TRUE,3,,,,,
null,CORRECT,,html-keyboard-response,116,770423,0.0-14.0-8.0-0.0,66300,List1B,white,woman,,,,null,,,,
5294,"<img src=""portrait/WW1.jpg""style=""width:400px;height:400px;""></img>",0,html-button-response,117,775723,0.0-14.0-10.0,66300,List1B,white,woman,,TRUE,1,,,,,
3341,"<img src=""portrait/WW1.jpg""style=""width:400px;height:400px;""></img>",1,html-button-response,118,780070,0.0-14.0-12.0-0.0,66300,List1B,white,woman,,FALSE,1,,,,,
null,CORRECT,,html-keyboard-response,119,781593,0.0-14.0-12.0-1.0-0.0,66300,List1B,white,woman,,,,null,,,,
3149,"<img src=""portrait/BW2.jpg""style=""width:400px;height:400px;""></img>",2,html-button-response,120,784756,0.0-14.0-13.0,66300,List1B,white,woman,,TRUE,2,,,,,
null,CORRECT,,html-keyboard-response,121,786260,0.0-14.0-14.0-0.0,66300,List1B,white,woman,,,,null,,,,
5253,"<img src=""portrait/WM2.jpg""style=""width:400px;height:400px;""></img>",7,html-button-response,122,791521,0.0-14.0-16.0,66300,List1B,white,woman,,TRUE,7,,,,,
null,CORRECT,,html-keyboard-response,123,793026,0.0-14.0-17.0-0.0,66300,List1B,white,woman,,,,null,,,,
13906,"<img src=""portrait/WM1.jpg""style=""width:400px;height:400px;""></img>",6,html-button-response,124,806940,0.0-14.0-19.0,66300,List1B,white,woman,,TRUE,6,,,,,
null,CORRECT,,html-keyboard-response,125,808445,0.0-14.0-20.0-0.0,66300,List1B,white,woman,,,,null,,,,
3753,"<img src=""portrait/BM1.jpg""style=""width:400px;height:400px;""></img>",4,html-button-response,126,812208,0.0-14.0-22.0,66300,List1B,white,woman,,TRUE,4,,,,,
null,CORRECT,,html-keyboard-response,127,813712,0.0-14.0-23.0-0.0,66300,List1B,white,woman,,,,null,,,,
2969,<p>You got 7 out of 8 right first time. Press Continue.</p>,0,html-button-response,128,816690,0.0-14.0-25.0,66300,List1B,white,woman,,,,,,,,
3713,"As you did not score 100%, the memory game will repeat. Press Continue.",0,html-button-response,129,821406,0.0-14.0-26.0-0.0,66300,List1B,white,woman,,,,,,,,
4176,"<img src='img/portrait_matrix_list1.JPG' style='width:900px;height:500px;''></img><p>If you have memorised all the portraits and names and are ready to start, press Continue.</p><p><strong>Please note: Your memory of these faces will be tested 4 times during this experiment.</strong></p>",0,html-button-response,130,826591,0.0-14.1-0.1,66300,List1B,white,woman,,,,,,,,
8194,"<img src=""portrait/BW1.jpg""style=""width:400px;height:400px;""></img>",0,html-button-response,131,835793,0.0-14.1-1.1,66300,List1B,white,woman,,TRUE,0,,,,,
null,CORRECT,,html-keyboard-response,132,837298,0.0-14.1-2.1-0.1,66300,List1B,white,woman,,,,null,,,,
4719,"<img src=""portrait/BM2.jpg""style=""width:400px;height:400px;""></img>",5,html-button-response,133,842026,0.0-14.1-4.1,66300,List1B,white,woman,,TRUE,5,,,,,
null,CORRECT,,html-keyboard-response,134,843531,0.0-14.1-5.1-0.1,66300,List1B,white,woman,,,,null,,,,
2805,"<img src=""portrait/WW2.jpg""style=""width:400px;height:400px;""></img>",3,html-button-response,135,846341,0.0-14.1-7.1,66300,List1B,white,woman,,TRUE,3,,,,,
null,CORRECT,,html-keyboard-response,136,847846,0.0-14.1-8.1-0.1,66300,List1B,white,woman,,,,null,,,,
5441,"<img src=""portrait/WW1.jpg""style=""width:400px;height:400px;""></img>",1,html-button-response,137,853292,0.0-14.1-10.1,66300,List1B,white,woman,,TRUE,1,,,,,
null,CORRECT,,html-keyboard-response,138,854796,0.0-14.1-11.1-0.1,66300,List1B,white,woman,,,,null,,,,
1718,"<img src=""portrait/BW2.jpg""style=""width:400px;height:400px;""></img>",2,html-button-response,139,856519,0.0-14.1-13.1,66300,List1B,white,woman,,TRUE,2,,,,,
null,CORRECT,,html-keyboard-response,140,858024,0.0-14.1-14.1-0.1,66300,List1B,white,woman,,,,null,,,,
1829,"<img src=""portrait/WM2.jpg""style=""width:400px;height:400px;""></img>",7,html-button-response,141,859860,0.0-14.1-16.1,66300,List1B,white,woman,,TRUE,7,,,,,
null,CORRECT,,html-keyboard-response,142,861364,0.0-14.1-17.1-0.1,66300,List1B,white,woman,,,,null,,,,
3751,"<img src=""portrait/WM1.jpg""style=""width:400px;height:400px;""></img>",6,html-button-response,143,865121,0.0-14.1-19.1,66300,List1B,white,woman,,TRUE,6,,,,,
null,CORRECT,,html-keyboard-response,144,866624,0.0-14.1-20.1-0.1,66300,List1B,white,woman,,,,null,,,,
3347,"<img src=""portrait/BM1.jpg""style=""width:400px;height:400px;""></img>",4,html-button-response,145,869977,0.0-14.1-22.1,66300,List1B,white,woman,,TRUE,4,,,,,
null,CORRECT,,html-keyboard-response,146,871482,0.0-14.1-23.1-0.1,66300,List1B,white,woman,,,,null,,,,
1689,<p>You got 8 out of 8 right first time. Press Continue.</p>,0,html-button-response,147,873176,0.0-14.1-25.1,66300,List1B,white,woman,,,,,,,,
null,"<div style=""font-size:60px;"">+</div>",,html-keyboard-response,148,874684,0.0-15.0-0.0,66300,List1B,white,woman,,,,null,,,,
null,"<img src=""stim_listB/kiss1.gif""</stim_listB>",,html-keyboard-response,149,876690,0.0-15.0-1.0,66300,List1B,white,woman,,,,null,,,,
null,is kissing,,html-keyboard-response,150,878694,0.0-15.0-2.0,66300,List1B,white,woman,,,,null,,,,
13201,,,survey-text,151,891899,0.0-15.0-3.0,66300,List1B,white,woman,,,,,"{""Q0"":""Fred is kissing beth""}","<img src=""stim_listB/kiss1.gif""</stim_listB>",is kissing,
null,"<div style=""font-size:60px;"">+</div>",,html-keyboard-response,152,892402,0.0-15.0-0.1,66300,List1B,white,woman,,,,null,,,,
null,"<img src=""stim_listB/shout2.gif""</stim_listB>",,html-keyboard-response,153,894406,0.0-15.0-1.1,66300,List1B,white,woman,,,,null,,,,
null,are shouting at each other,,html-keyboard-response,154,896411,0.0-15.0-2.1,66300,List1B,white,woman,,,,null,,,,
9677,,,survey-text,155,906092,0.0-15.0-3.1,66300,List1B,white,woman,,,,,"{""Q0"":""Mike is shouting at kate""}","<img src=""stim_listB/shout2.gif""</stim_listB>",are shouting at each other,
null,"<div style=""font-size:60px;"">+</div>",,html-keyboard-response,156,906596,0.0-15.0-0.2,66300,List1B,white,woman,,,,null,,,,
null,"<img src=""stim_listB/shout4.gif""</stim_listB>",,html-keyboard-response,157,908601,0.0-15.0-1.2,66300,List1B,white,woman,,,,null,,,,
null,are shouting at each other,,html-keyboard-response,158,910606,0.0-15.0-2.2,66300,List1B,white,woman,,,,null,,,,
9816,,,survey-text,159,920425,0.0-15.0-3.2,66300,List1B,white,woman,,,,,"{""Q0"":""Jane is shouting at dave""}","<img src=""stim_listB/shout4.gif""</stim_listB>",are shouting at each other,
null,"<div style=""font-size:60px;"">+</div>",,html-keyboard-response,160,920926,0.0-15.0-0.3,66300,List1B,white,woman,,,,null,,,,
null,"<img src=""stim_listB/meet1.gif""</stim_listB>",,html-keyboard-response,161,922930,0.0-15.0-1.3,66300,List1B,white,woman,,,,null,,,,
null,is meeting,,html-keyboard-response,162,924936,0.0-15.0-2.3,66300,List1B,white,woman,,,,null,,,,
8476,,,survey-text,163,933416,0.0-15.0-3.3,66300,List1B,white,woman,,,,,"{""Q0"":""Kate is meeting mike""}","<img src=""stim_listB/meet1.gif""</stim_listB>",is meeting,
null,"<div style=""font-size:60px;"">+</div>",,html-keyboard-response,164,933919,0.0-15.0-0.4,66300,List1B,white,woman,,,,null,,,,
null,"<img src=""stim_listB/dance4.gif""</stim_listB>",,html-keyboard-response,165,935922,0.0-15.0-1.4,66300,List1B,white,woman,,,,null,,,,
null,are dancing with each other,,html-keyboard-response,166,937925,0.0-15.0-2.4,66300,List1B,white,woman,,,,null,,,,
13727,,,survey-text,167,951656,0.0-15.0-3.4,66300,List1B,white,woman,,,,,"{""Q0"":""Dave is dancing with ruth""}","<img src=""stim_listB/dance4.gif""</stim_listB>",are dancing with each other,
null,"<div style=""font-size:60px;"">+</div>",,html-keyboard-response,168,952159,0.0-15.0-0.5,66300,List1B,white,woman,,,,null,,,,
null,"<img src=""stim_listB/hug1.gif""</stim_listB>",,html-keyboard-response,169,954163,0.0-15.0-1.5,66300,List1B,white,woman,,,,null,,,,
null,is hugging,,html-keyboard-response,170,956167,0.0-15.0-2.5,66300,List1B,white,woman,,,,null,,,,
8428,,,survey-text,171,964597,0.0-15.0-3.5,66300,List1B,white,woman,,,,,"{""Q0"":""Fred is hugging beth""}","<img src=""stim_listB/hug1.gif""</stim_listB>",is hugging,
null,"<div style=""font-size:60px;"">+</div>",,html-keyboard-response,172,965100,0.0-15.0-0.6,66300,List1B,white,woman,,,,null,,,,
null,"<img src=""stim_listB/hug8.gif""</stim_listB>",,html-keyboard-response,173,967108,0.0-15.0-1.6,66300,List1B,white,woman,,,,null,,,,
null,are hugging each other,,html-keyboard-response,174,969117,0.0-15.0-2.6,66300,List1B,white,woman,,,,null,,,,
6965,,,survey-text,175,976086,0.0-15.0-3.6,66300,List1B,white,woman,,,,,"{""Q0"":""Jane is hugging kate""}","<img src=""stim_listB/hug8.gif""</stim_listB>",are hugging each other,
null,"<div style=""font-size:60px;"">+</div>",,html-keyboard-response,176,976589,0.0-15.0-0.7,66300,List1B,white,woman,,,,null,,,,
null,"<img src=""stim_listB/dance7.gif""</stim_listB>",,html-keyboard-response,177,978594,0.0-15.0-1.7,66300,List1B,white,woman,,,,null,,,,
null,is dancing with,,html-keyboard-response,178,980597,0.0-15.0-2.7,66300,List1B,white,woman,,,,null,,,,
13267,,,survey-text,179,993866,0.0-15.0-3.7,66300,List1B,white,woman,,,,,"{""Q0"":""Jane is dancing with beth""}","<img src=""stim_listB/dance7.gif""</stim_listB>",is dancing with,
null,"<div style=""font-size:60px;"">+</div>",,html-keyboard-response,180,994368,0.0-15.0-0.8,66300,List1B,white,woman,,,,null,,,,
null,"<img src=""stim_listB/meet4.gif""</stim_listB>",,html-keyboard-response,181,996372,0.0-15.0-1.8,66300,List1B,white,woman,,,,null,,,,
null,are meeting each other,,html-keyboard-response,182,998376,0.0-15.0-2.8,66300,List1B,white,woman,,,,null,,,,
8355,,,survey-text,183,1006735,0.0-15.0-3.8,66300,List1B,white,woman,,,,,"{""Q0"":""Ruth is meeting luke""}","<img src=""stim_listB/meet4.gif""</stim_listB>",are meeting each other,
null,"<div style=""font-size:60px;"">+</div>",,html-keyboard-response,184,1007238,0.0-15.0-0.9,66300,List1B,white,woman,,,,null,,,,
null,"<img src=""stim_listB/argue6.gif""</stim_listB>",,html-keyboard-response,185,1009243,0.0-15.0-1.9,66300,List1B,white,woman,,,,null,,,,
null,are arguing with each other,,html-keyboard-response,186,1011248,0.0-15.0-2.9,66300,List1B,white,woman,,,,null,,,,
8252,,,survey-text,187,1019503,0.0-15.0-3.9,66300,List1B,white,woman,,,,,"{""Q0"":""Fred is arguing with dave""}","<img src=""stim_listB/argue6.gif""</stim_listB>",are arguing with each other,
null,"<div style=""font-size:60px;"">+</div>",,html-keyboard-response,188,1020006,0.0-15.0-0.10,66300,List1B,white,woman,,,,null,,,,
null,"<img src=""stim_listB/meet5.gif""</stim_listB>",,html-keyboard-response,189,1022010,0.0-15.0-1.10,66300,List1B,white,woman,,,,null,,,,
null,is meeting,,html-keyboard-response,190,1024015,0.0-15.0-2.10,66300,List1B,white,woman,,,,null,,,,
6529,,,survey-text,191,1030546,0.0-15.0-3.10,66300,List1B,white,woman,,,,,"{""Q0"":""Dave is meeting mike""}","<img src=""stim_listB/meet5.gif""</stim_listB>",is meeting,
null,"<div style=""font-size:60px;"">+</div>",,html-keyboard-response,192,1031048,0.0-15.0-0.11,66300,List1B,white,woman,,,,null,,,,
null,"<img src=""stim_listB/hug5.gif""</stim_listB>",,html-keyboard-response,193,1033052,0.0-15.0-1.11,66300,List1B,white,woman,,,,null,,,,
null,is hugging,,html-keyboard-response,194,1035057,0.0-15.0-2.11,66300,List1B,white,woman,,,,null,,,,
6514,,,survey-text,195,1041574,0.0-15.0-3.11,66300,List1B,white,woman,,,,,"{""Q0"":""Fred is hugging luke""}","<img src=""stim_listB/hug5.gif""</stim_listB>",is hugging,
null,"<div style=""font-size:60px;"">+</div>",,html-keyboard-response,196,1042078,0.0-15.0-0.12,66300,List1B,white,woman,,,,null,,,,
null,"<img src=""stim_listB/argue1.gif""</stim_listB>",,html-keyboard-response,197,1044082,0.0-15.0-1.12,66300,List1B,white,woman,,,,null,,,,
null,is arguing with,,html-keyboard-response,198,1046086,0.0-15.0-2.12,66300,List1B,white,woman,,,,null,,,,
7383,,,survey-text,199,1053471,0.0-15.0-3.12,66300,List1B,white,woman,,,,,"{""Q0"":""Beth is arguing with mike""}","<img src=""stim_listB/argue1.gif""</stim_listB>",is arguing with,
null,"<div style=""font-size:60px;"">+</div>",,html-keyboard-response,200,1053974,0.0-15.0-0.13,66300,List1B,white,woman,,,,null,,,,
null,"<img src=""stim_listB/dance5.gif""</stim_listB>",,html-keyboard-response,201,1055979,0.0-15.0-1.13,66300,List1B,white,woman,,,,null,,,,
null,is dancing with,,html-keyboard-response,202,1057983,0.0-15.0-2.13,66300,List1B,white,woman,,,,null,,,,
8867,,,survey-text,203,1066853,0.0-15.0-3.13,66300,List1B,white,woman,,,,,"{""Q0"":""Fred is dancing with dave""}","<img src=""stim_listB/dance5.gif""</stim_listB>",is dancing with,
null,"<div style=""font-size:60px;"">+</div>",,html-keyboard-response,204,1067356,0.0-15.0-0.14,66300,List1B,white,woman,,,,null,,,,
null,"<img src=""stim_listB/hug2.gif""</stim_listB>",,html-keyboard-response,205,1069361,0.0-15.0-1.14,66300,List1B,white,woman,,,,null,,,,
null,are hugging each other,,html-keyboard-response,206,1071365,0.0-15.0-2.14,66300,List1B,white,woman,,,,null,,,,
8538,,,survey-text,207,1079906,0.0-15.0-3.14,66300,List1B,white,woman,,,,,"{""Q0"":""Kate is hugging mike""}","<img src=""stim_listB/hug2.gif""</stim_listB>",are hugging each other,
null,"<div style=""font-size:60px;"">+</div>",,html-keyboard-response,208,1080408,0.0-15.0-0.15,66300,List1B,white,woman,,,,null,,,,
null,"<img src=""stim_listB/kiss3.gif""</stim_listB>",,html-keyboard-response,209,1082413,0.0-15.0-1.15,66300,List1B,white,woman,,,,null,,,,
null,is kissing,,html-keyboard-response,210,1084417,0.0-15.0-2.15,66300,List1B,white,woman,,,,null,,,,
7608,,,survey-text,211,1092028,0.0-15.0-3.15,66300,List1B,white,woman,,,,,"{""Q0"":""Jane is kissing luke""}","<img src=""stim_listB/kiss3.gif""</stim_listB>",is kissing,
null,"<div style=""font-size:60px;"">+</div>",,html-keyboard-response,212,1092531,0.0-15.0-0.16,66300,List1B,white,woman,,,,null,,,,
null,"<img src=""stim_listB/talk5.gif""</stim_listB>",,html-keyboard-response,213,1094535,0.0-15.0-1.16,66300,List1B,white,woman,,,,null,,,,
null,is talking to,,html-keyboard-response,214,1096538,0.0-15.0-2.16,66300,List1B,white,woman,,,,null,,,,
9502,,,survey-text,215,1106044,0.0-15.0-3.16,66300,List1B,white,woman,,,,,"{""Q0"":""Fred is talking to dave""}","<img src=""stim_listB/talk5.gif""</stim_listB>",is talking to,
null,"<div style=""font-size:60px;"">+</div>",,html-keyboard-response,216,1106548,0.0-15.0-0.17,66300,List1B,white,woman,,,,null,,,,
null,"<img src=""stim_listB/talk3.gif""</stim_listB>",,html-keyboard-response,217,1108552,0.0-15.0-1.17,66300,List1B,white,woman,,,,null,,,,
null,is talking to,,html-keyboard-response,218,1110556,0.0-15.0-2.17,66300,List1B,white,woman,,,,null,,,,
7987,,,survey-text,219,1118546,0.0-15.0-3.17,66300,List1B,white,woman,,,,,"{""Q0"":""Jane is talking to luke""}","<img src=""stim_listB/talk3.gif""</stim_listB>",is talking to,
null,"<div style=""font-size:60px;"">+</div>",,html-keyboard-response,220,1119050,0.0-15.0-0.18,66300,List1B,white,woman,,,,null,,,,
null,"<img src=""stim_listB/fight8.gif""</stim_listB>",,html-keyboard-response,221,1121054,0.0-15.0-1.18,66300,List1B,white,woman,,,,null,,,,
null,are fighting each other,,html-keyboard-response,222,1123058,0.0-15.0-2.18,66300,List1B,white,woman,,,,null,,,,
10880,,,survey-text,223,1133942,0.0-15.0-3.18,66300,List1B,white,woman,,,,,"{""Q0"":""Ruth is fighting with beth""}","<img src=""stim_listB/fight8.gif""</stim_listB>",are fighting each other,
null,"<div style=""font-size:60px;"">+</div>",,html-keyboard-response,224,1134444,0.0-15.0-0.19,66300,List1B,white,woman,,,,null,,,,
null,"<img src=""stim_listB/meet7.gif""</stim_listB>",,html-keyboard-response,225,1136447,0.0-15.0-1.19,66300,List1B,white,woman,,,,null,,,,
null,is meeting,,html-keyboard-response,226,1138451,0.0-15.0-2.19,66300,List1B,white,woman,,,,null,,,,
8476,,,survey-text,227,1146930,0.0-15.0-3.19,66300,List1B,white,woman,,,,,"{""Q0"":""Jane is meeting kate""}","<img src=""stim_listB/meet7.gif""</stim_listB>",is meeting,
122502,"<img src='img/portrait_matrix_list1.JPG' style='width:900px;height:500px;''></img><p>If you have memorised all the portraits and names and are ready to start, press Continue.</p><p><strong>Please note: Your memory of these faces will be tested 4 times during this experiment.</strong></p>",0,html-button-response,228,1269435,0.0-16.0-0.0,66300,List1B,white,woman,,,,,,,,
4333,"<img src=""portrait/BW2.jpg""style=""width:400px;height:400px;""></img>",2,html-button-response,229,1274773,0.0-16.0-1.0,66300,List1B,white,woman,,TRUE,2,,,,,
null,CORRECT,,html-keyboard-response,230,1276278,0.0-16.0-2.0-0.0,66300,List1B,white,woman,,,,null,,,,
4616,"<img src=""portrait/WM1.jpg""style=""width:400px;height:400px;""></img>",6,html-button-response,231,1280899,0.0-16.0-4.0,66300,List1B,white,woman,,TRUE,6,,,,,
null,CORRECT,,html-keyboard-response,232,1282404,0.0-16.0-5.0-0.0,66300,List1B,white,woman,,,,null,,,,
4990,"<img src=""portrait/BW1.jpg""style=""width:400px;height:400px;""></img>",0,html-button-response,233,1287399,0.0-16.0-7.0,66300,List1B,white,woman,,TRUE,0,,,,,
null,CORRECT,,html-keyboard-response,234,1288904,0.0-16.0-8.0-0.0,66300,List1B,white,woman,,,,null,,,,
1853,"<img src=""portrait/WM2.jpg""style=""width:400px;height:400px;""></img>",7,html-button-response,235,1290762,0.0-16.0-10.0,66300,List1B,white,woman,,TRUE,7,,,,,
null,CORRECT,,html-keyboard-response,236,1292266,0.0-16.0-11.0-0.0,66300,List1B,white,woman,,,,null,,,,
7186,"<img src=""portrait/WW2.jpg""style=""width:400px;height:400px;""></img>",3,html-button-response,237,1299458,0.0-16.0-13.0,66300,List1B,white,woman,,TRUE,3,,,,,
null,CORRECT,,html-keyboard-response,238,1300962,0.0-16.0-14.0-0.0,66300,List1B,white,woman,,,,null,,,,
2557,"<img src=""portrait/BM2.jpg""style=""width:400px;height:400px;""></img>",5,html-button-response,239,1303525,0.0-16.0-16.0,66300,List1B,white,woman,,TRUE,5,,,,,
null,CORRECT,,html-keyboard-response,240,1305030,0.0-16.0-17.0-0.0,66300,List1B,white,woman,,,,null,,,,
4542,"<img src=""portrait/WW1.jpg""style=""width:400px;height:400px;""></img>",1,html-button-response,241,1309578,0.0-16.0-19.0,66300,List1B,white,woman,,TRUE,1,,,,,
null,CORRECT,,html-keyboard-response,242,1311082,0.0-16.0-20.0-0.0,66300,List1B,white,woman,,,,null,,,,
2054,"<img src=""portrait/BM1.jpg""style=""width:400px;height:400px;""></img>",4,html-button-response,243,1313143,0.0-16.0-22.0,66300,List1B,white,woman,,TRUE,4,,,,,
null,CORRECT,,html-keyboard-response,244,1314648,0.0-16.0-23.0-0.0,66300,List1B,white,woman,,,,null,,,,
1566,<p>You got 8 out of 8 right first time. Press Continue.</p>,0,html-button-response,245,1316218,0.0-16.0-25.0,66300,List1B,white,woman,,,,,,,,
null,"<div style=""font-size:60px;"">+</div>",,html-keyboard-response,246,1317734,0.0-17.0-0.0,66300,List1B,white,woman,,,,null,,,,
null,"<img src=""stim_listB/fight3.gif""</stim_listB>",,html-keyboard-response,247,1319742,0.0-17.0-1.0,66300,List1B,white,woman,,,,null,,,,
null,is fighting,,html-keyboard-response,248,1321747,0.0-17.0-2.0,66300,List1B,white,woman,,,,null,,,,
7888,,,survey-text,249,1329639,0.0-17.0-3.0,66300,List1B,white,woman,,,,,"{""Q0"":""Jane and Dave are fighting""}","<img src=""stim_listB/fight3.gif""</stim_listB>",is fighting,
null,"<div style=""font-size:60px;"">+</div>",,html-keyboard-response,250,1330143,0.0-17.0-0.1,66300,List1B,white,woman,,,,null,,,,
null,"<img src=""stim_listB/touch6.gif""</stim_listB>",,html-keyboard-response,251,1332147,0.0-17.0-1.1,66300,List1B,white,woman,,,,null,,,,
null,are touching each other,,html-keyboard-response,252,1334151,0.0-17.0-2.1,66300,List1B,white,woman,,,,null,,,,
14303,,,survey-text,253,1348457,0.0-17.0-3.1,66300,List1B,white,woman,,,,,"{""Q0"":""Luke touches fred""}","<img src=""stim_listB/touch6.gif""</stim_listB>",are touching each other,
null,"<div style=""font-size:60px;"">+</div>",,html-keyboard-response,254,1348960,0.0-17.0-0.2,66300,List1B,white,woman,,,,null,,,,
null,"<img src=""stim_listB/shout5.gif""</stim_listB>",,html-keyboard-response,255,1350965,0.0-17.0-1.2,66300,List1B,white,woman,,,,null,,,,
null,is shouting at,,html-keyboard-response,256,1352969,0.0-17.0-2.2,66300,List1B,white,woman,,,,null,,,,
7427,,,survey-text,257,1360399,0.0-17.0-3.2,66300,List1B,white,woman,,,,,"{""Q0"":""Fred shouts at luke""}","<img src=""stim_listB/shout5.gif""</stim_listB>",is shouting at,
null,"<div style=""font-size:60px;"">+</div>",,html-keyboard-response,258,1360903,0.0-17.0-0.3,66300,List1B,white,woman,,,,null,,,,
null,"<img src=""stim_listB/meet2.gif""</stim_listB>",,html-keyboard-response,259,1362907,0.0-17.0-1.3,66300,List1B,white,woman,,,,null,,,,
null,are meeting each other,,html-keyboard-response,260,1364912,0.0-17.0-2.3,66300,List1B,white,woman,,,,null,,,,
6525,,,survey-text,261,1371441,0.0-17.0-3.3,66300,List1B,white,woman,,,,,"{""Q0"":""Fred meets beth""}","<img src=""stim_listB/meet2.gif""</stim_listB>",are meeting each other,
null,"<div style=""font-size:60px;"">+</div>",,html-keyboard-response,262,1371943,0.0-17.0-0.4,66300,List1B,white,woman,,,,null,,,,
null,"<img src=""stim_listB/argue7.gif""</stim_listB>",,html-keyboard-response,263,1373947,0.0-17.0-1.4,66300,List1B,white,woman,,,,null,,,,
null,is arguing with,,html-keyboard-response,264,1375951,0.0-17.0-2.4,66300,List1B,white,woman,,,,null,,,,
16617,,,survey-text,265,1392571,0.0-17.0-3.4,66300,List1B,white,woman,,,,,"{""Q0"":""Kate shouts at mik""}","<img src=""stim_listB/argue7.gif""</stim_listB>",is arguing with,
null,"<div style=""font-size:60px;"">+</div>",,html-keyboard-response,266,1393074,0.0-17.0-0.5,66300,List1B,white,woman,,,,null,,,,
null,"<img src=""stim_listB/argue8.gif""</stim_listB>",,html-keyboard-response,267,1395078,0.0-17.0-1.5,66300,List1B,white,woman,,,,null,,,,
null,are arguing with each other,,html-keyboard-response,268,1397083,0.0-17.0-2.5,66300,List1B,white,woman,,,,null,,,,
7629,,,survey-text,269,1404716,0.0-17.0-3.5,66300,List1B,white,woman,,,,,"{""Q0"":""Jane argues with beth""}","<img src=""stim_listB/argue8.gif""</stim_listB>",are arguing with each other,
null,"<div style=""font-size:60px;"">+</div>",,html-keyboard-response,270,1405219,0.0-17.0-0.6,66300,List1B,white,woman,,,,null,,,,
null,"<img src=""stim_listB/fight2.gif""</stim_listB>",,html-keyboard-response,271,1407223,0.0-17.0-1.6,66300,List1B,white,woman,,,,null,,,,
null,are fighting each other,,html-keyboard-response,272,1409227,0.0-17.0-2.6,66300,List1B,white,woman,,,,null,,,,
7018,,,survey-text,273,1416249,0.0-17.0-3.6,66300,List1B,white,woman,,,,,"{""Q0"":""Fred fights beth""}","<img src=""stim_listB/fight2.gif""</stim_listB>",are fighting each other,
null,"<div style=""font-size:60px;"">+</div>",,html-keyboard-response,274,1416753,0.0-17.0-0.7,66300,List1B,white,woman,,,,null,,,,
null,"<img src=""stim_listB/talk2.gif""</stim_listB>",,html-keyboard-response,275,1418758,0.0-17.0-1.7,66300,List1B,white,woman,,,,null,,,,
null,are talking to each other,,html-keyboard-response,276,1420761,0.0-17.0-2.7,66300,List1B,white,woman,,,,null,,,,
6893,,,survey-text,277,1427658,0.0-17.0-3.7,66300,List1B,white,woman,,,,,"{""Q0"":""Mike talks to beth""}","<img src=""stim_listB/talk2.gif""</stim_listB>",are talking to each other,
null,"<div style=""font-size:60px;"">+</div>",,html-keyboard-response,278,1428161,0.0-17.0-0.8,66300,List1B,white,woman,,,,null,,,,
null,"<img src=""stim_listB/dance1.gif""</stim_listB>",,html-keyboard-response,279,1430166,0.0-17.0-1.8,66300,List1B,white,woman,,,,null,,,,
null,is dancing with,,html-keyboard-response,280,1432171,0.0-17.0-2.8,66300,List1B,white,woman,,,,null,,,,
7810,,,survey-text,281,1439983,0.0-17.0-3.8,66300,List1B,white,woman,,,,,"{""Q0"":""Fred dances with kate""}","<img src=""stim_listB/dance1.gif""</stim_listB>",is dancing with,
null,"<div style=""font-size:60px;"">+</div>",,html-keyboard-response,282,1440486,0.0-17.0-0.9,66300,List1B,white,woman,,,,null,,,,
null,"<img src=""stim_listB/marry4.gif""</stim_listB>",,html-keyboard-response,283,1442493,0.0-17.0-1.9,66300,List1B,white,woman,,,,null,,,,
null,are marrying each other,,html-keyboard-response,284,1444498,0.0-17.0-2.9,66300,List1B,white,woman,,,,null,,,,
9988,,,survey-text,285,1454489,0.0-17.0-3.9,66300,List1B,white,woman,,,,,"{""Q0"":""Jane married luke""}","<img src=""stim_listB/marry4.gif""</stim_listB>",are marrying each other,
null,"<div style=""font-size:60px;"">+</div>",,html-keyboard-response,286,1454995,0.0-17.0-0.10,66300,List1B,white,woman,,,,null,,,,
null,"<img src=""stim_listB/talk6.gif""</stim_listB>",,html-keyboard-response,287,1456999,0.0-17.0-1.10,66300,List1B,white,woman,,,,null,,,,
null,are talking to each other,,html-keyboard-response,288,1459003,0.0-17.0-2.10,66300,List1B,white,woman,,,,null,,,,
7195,,,survey-text,289,1466202,0.0-17.0-3.10,66300,List1B,white,woman,,,,,"{""Q0"":""Mike talks to luke""}","<img src=""stim_listB/talk6.gif""</stim_listB>",are talking to each other,
null,"<div style=""font-size:60px;"">+</div>",,html-keyboard-response,290,1466705,0.0-17.0-0.11,66300,List1B,white,woman,,,,null,,,,
null,"<img src=""stim_listB/meet3.gif""</stim_listB>",,html-keyboard-response,291,1468709,0.0-17.0-1.11,66300,List1B,white,woman,,,,null,,,,
null,is meeting,,html-keyboard-response,292,1470712,0.0-17.0-2.11,66300,List1B,white,woman,,,,null,,,,
6056,,,survey-text,293,1476772,0.0-17.0-3.11,66300,List1B,white,woman,,,,,"{""Q0"":""Jane meets dave""}","<img src=""stim_listB/meet3.gif""</stim_listB>",is meeting,
null,"<div style=""font-size:60px;"">+</div>",,html-keyboard-response,294,1477274,0.0-17.0-0.12,66300,List1B,white,woman,,,,null,,,,
null,"<img src=""stim_listB/marry8.gif""</stim_listB>",,html-keyboard-response,295,1479278,0.0-17.0-1.12,66300,List1B,white,woman,,,,null,,,,
null,are marrying each other,,html-keyboard-response,296,1481282,0.0-17.0-2.12,66300,List1B,white,woman,,,,null,,,,
6435,,,survey-text,297,1487720,0.0-17.0-3.12,66300,List1B,white,woman,,,,,"{""Q0"":""Jane married beth""}","<img src=""stim_listB/marry8.gif""</stim_listB>",are marrying each other,
null,"<div style=""font-size:60px;"">+</div>",,html-keyboard-response,298,1488225,0.0-17.0-0.13,66300,List1B,white,woman,,,,null,,,,
null,"<img src=""stim_listB/touch7.gif""</stim_listB>",,html-keyboard-response,299,1490229,0.0-17.0-1.13,66300,List1B,white,woman,,,,null,,,,
null,is touching,,html-keyboard-response,300,1492235,0.0-17.0-2.13,66300,List1B,white,woman,,,,null,,,,
6765,,,survey-text,301,1499004,0.0-17.0-3.13,66300,List1B,white,woman,,,,,"{""Q0"":""Jane touches kate""}","<img src=""stim_listB/touch7.gif""</stim_listB>",is touching,
null,"<div style=""font-size:60px;"">+</div>",,html-keyboard-response,302,1499506,0.0-17.0-0.14,66300,List1B,white,woman,,,,null,,,,
null,"<img src=""stim_listB/shout8.gif""</stim_listB>",,html-keyboard-response,303,1501509,0.0-17.0-1.14,66300,List1B,white,woman,,,,null,,,,
null,are shouting at each other,,html-keyboard-response,304,1503513,0.0-17.0-2.14,66300,List1B,white,woman,,,,null,,,,
9837,,,survey-text,305,1513353,0.0-17.0-3.14,66300,List1B,white,woman,,,,,"{""Q0"":""Jane shouts at kate""}","<img src=""stim_listB/shout8.gif""</stim_listB>",are shouting at each other,
null,"<div style=""font-size:60px;"">+</div>",,html-keyboard-response,306,1513855,0.0-17.0-0.15,66300,List1B,white,woman,,,,null,,,,
null,"<img src=""stim_listB/dance8.gif""</stim_listB>",,html-keyboard-response,307,1515859,0.0-17.0-1.15,66300,List1B,white,woman,,,,null,,,,
null,are dancing with each other,,html-keyboard-response,308,1517862,0.0-17.0-2.15,66300,List1B,white,woman,,,,null,,,,
9631,,,survey-text,309,1527495,0.0-17.0-3.15,66300,List1B,white,woman,,,,,"{""Q0"":""Ruth dances with kate""}","<img src=""stim_listB/dance8.gif""</stim_listB>",are dancing with each other,
null,"<div style=""font-size:60px;"">+</div>",,html-keyboard-response,310,1527998,0.0-17.0-0.16,66300,List1B,white,woman,,,,null,,,,
null,"<img src=""stim_listB/marry7.gif""</stim_listB>",,html-keyboard-response,311,1530003,0.0-17.0-1.16,66300,List1B,white,woman,,,,null,,,,
null,is marrying,,html-keyboard-response,312,1532007,0.0-17.0-2.16,66300,List1B,white,woman,,,,null,,,,
8948,,,survey-text,313,1540958,0.0-17.0-3.16,66300,List1B,white,woman,,,,,"{""Q0"":""Ruth married kate""}","<img src=""stim_listB/marry7.gif""</stim_listB>",is marrying,
null,"<div style=""font-size:60px;"">+</div>",,html-keyboard-response,314,1541461,0.0-17.0-0.17,66300,List1B,white,woman,,,,null,,,,
null,"<img src=""stim_listB/marry5.gif""</stim_listB>",,html-keyboard-response,315,1543467,0.0-17.0-1.17,66300,List1B,white,woman,,,,null,,,,
null,is marrying,,html-keyboard-response,316,1545471,0.0-17.0-2.17,66300,List1B,white,woman,,,,null,,,,
7836,,,survey-text,317,1553312,0.0-17.0-3.17,66300,List1B,white,woman,,,,,"{""Q0"":""Luke married mike""}","<img src=""stim_listB/marry5.gif""</stim_listB>",is marrying,
null,"<div style=""font-size:60px;"">+</div>",,html-keyboard-response,318,1553816,0.0-17.0-0.18,66300,List1B,white,woman,,,,null,,,,
null,"<img src=""stim_listB/fight7.gif""</stim_listB>",,html-keyboard-response,319,1555819,0.0-17.0-1.18,66300,List1B,white,woman,,,,null,,,,
null,is fighting,,html-keyboard-response,320,1557822,0.0-17.0-2.18,66300,List1B,white,woman,,,,null,,,,
69992,,,survey-text,321,1627818,0.0-17.0-3.18,66300,List1B,white,woman,,,,,"{""Q0"":""Jane fights kate""}","<img src=""stim_listB/fight7.gif""</stim_listB>",is fighting,
null,"<div style=""font-size:60px;"">+</div>",,html-keyboard-response,322,1628321,0.0-17.0-0.19,66300,List1B,white,woman,,,,null,,,,
null,"<img src=""stim_listB/kiss6.gif""</stim_listB>",,html-keyboard-response,323,1630324,0.0-17.0-1.19,66300,List1B,white,woman,,,,null,,,,
null,are kissing each other,,html-keyboard-response,324,1632329,0.0-17.0-2.19,66300,List1B,white,woman,,,,null,,,,
6399,,,survey-text,325,1638731,0.0-17.0-3.19,66300,List1B,white,woman,,,,,"{""Q0"":""Mike kisses dave""}","<img src=""stim_listB/kiss6.gif""</stim_listB>",are kissing each other,
3064,"<img src='img/portrait_matrix_list1.JPG' style='width:900px;height:500px;''></img><p>If you have memorised all the portraits and names and are ready to start, press Continue.</p><p><strong>Please note: Your memory of these faces will be tested 4 times during this experiment.</strong></p>",0,html-button-response,326,1641801,0.0-18.0-0.0,66300,List1B,white,woman,,,,,,,,
2574,"<img src=""portrait/WM2.jpg""style=""width:400px;height:400px;""></img>",7,html-button-response,327,1645384,0.0-18.0-1.0,66300,List1B,white,woman,,TRUE,7,,,,,
null,CORRECT,,html-keyboard-response,328,1646889,0.0-18.0-2.0-0.0,66300,List1B,white,woman,,,,null,,,,
2517,"<img src=""portrait/WW1.jpg""style=""width:400px;height:400px;""></img>",1,html-button-response,329,1649418,0.0-18.0-4.0,66300,List1B,white,woman,,TRUE,1,,,,,
null,CORRECT,,html-keyboard-response,330,1650923,0.0-18.0-5.0-0.0,66300,List1B,white,woman,,,,null,,,,
2208,"<img src=""portrait/BW2.jpg""style=""width:400px;height:400px;""></img>",2,html-button-response,331,1653139,0.0-18.0-7.0,66300,List1B,white,woman,,TRUE,2,,,,,
null,CORRECT,,html-keyboard-response,332,1654643,0.0-18.0-8.0-0.0,66300,List1B,white,woman,,,,null,,,,
4942,"<img src=""portrait/WW2.jpg""style=""width:400px;height:400px;""></img>",3,html-button-response,333,1659594,0.0-18.0-10.0,66300,List1B,white,woman,,TRUE,3,,,,,
null,CORRECT,,html-keyboard-response,334,1661097,0.0-18.0-11.0-0.0,66300,List1B,white,woman,,,,null,,,,
1894,"<img src=""portrait/BM2.jpg""style=""width:400px;height:400px;""></img>",5,html-button-response,335,1663001,0.0-18.0-13.0,66300,List1B,white,woman,,TRUE,5,,,,,
null,CORRECT,,html-keyboard-response,336,1664506,0.0-18.0-14.0-0.0,66300,List1B,white,woman,,,,null,,,,
1968,"<img src=""portrait/BM1.jpg""style=""width:400px;height:400px;""></img>",4,html-button-response,337,1666482,0.0-18.0-16.0,66300,List1B,white,woman,,TRUE,4,,,,,
null,CORRECT,,html-keyboard-response,338,1667987,0.0-18.0-17.0-0.0,66300,List1B,white,woman,,,,null,,,,
2957,"<img src=""portrait/BW1.jpg""style=""width:400px;height:400px;""></img>",0,html-button-response,339,1670953,0.0-18.0-19.0,66300,List1B,white,woman,,TRUE,0,,,,,
null,CORRECT,,html-keyboard-response,340,1672457,0.0-18.0-20.0-0.0,66300,List1B,white,woman,,,,null,,,,
2485,"<img src=""portrait/WM1.jpg""style=""width:400px;height:400px;""></img>",6,html-button-response,341,1674951,0.0-18.0-22.0,66300,List1B,white,woman,,TRUE,6,,,,,
null,CORRECT,,html-keyboard-response,342,1676455,0.0-18.0-23.0-0.0,66300,List1B,white,woman,,,,null,,,,
1574,<p>You got 8 out of 8 right first time. Press Continue.</p>,0,html-button-response,343,1678034,0.0-18.0-25.0,66300,List1B,white,woman,,,,,,,,
null,"<div style=""font-size:60px;"">+</div>",,html-keyboard-response,344,1679543,0.0-19.0-0.0,66300,List1B,white,woman,,,,null,,,,
null,"<img src=""stim_listB/fight6.gif""</stim_listB>",,html-keyboard-response,345,1681549,0.0-19.0-1.0,66300,List1B,white,woman,,,,null,,,,
null,are fighting each other,,html-keyboard-response,346,1683553,0.0-19.0-2.0,66300,List1B,white,woman,,,,null,,,,
5884,,,survey-text,347,1689442,0.0-19.0-3.0,66300,List1B,white,woman,,,,,"{""Q0"":""Fred fights luke""}","<img src=""stim_listB/fight6.gif""</stim_listB>",are fighting each other,
null,"<div style=""font-size:60px;"">+</div>",,html-keyboard-response,348,1689945,0.0-19.0-0.1,66300,List1B,white,woman,,,,null,,,,
null,"<img src=""stim_listB/touch4.gif""</stim_listB>",,html-keyboard-response,349,1691949,0.0-19.0-1.1,66300,List1B,white,woman,,,,null,,,,
null,are touching each other,,html-keyboard-response,350,1693953,0.0-19.0-2.1,66300,List1B,white,woman,,,,null,,,,
10877,,,survey-text,351,1704834,0.0-19.0-3.1,66300,List1B,white,woman,,,,,"{""Q0"":""Luke touches ruth""}","<img src=""stim_listB/touch4.gif""</stim_listB>",are touching each other,
null,"<div style=""font-size:60px;"">+</div>",,html-keyboard-response,352,1705338,0.0-19.0-0.2,66300,List1B,white,woman,,,,null,,,,
null,"<img src=""stim_listB/argue2.gif""</stim_listB>",,html-keyboard-response,353,1707342,0.0-19.0-1.2,66300,List1B,white,woman,,,,null,,,,
null,are arguing with each other,,html-keyboard-response,354,1709346,0.0-19.0-2.2,66300,List1B,white,woman,,,,null,,,,
8035,,,survey-text,355,1717384,0.0-19.0-3.2,66300,List1B,white,woman,,,,,"{""Q0"":""Fred argues kate""}","<img src=""stim_listB/argue2.gif""</stim_listB>",are arguing with each other,
null,"<div style=""font-size:60px;"">+</div>",,html-keyboard-response,356,1717887,0.0-19.0-0.3,66300,List1B,white,woman,,,,null,,,,
null,"<img src=""stim_listB/shout6.gif""</stim_listB>",,html-keyboard-response,357,1719890,0.0-19.0-1.3,66300,List1B,white,woman,,,,null,,,,
null,are shouting at each other,,html-keyboard-response,358,1721894,0.0-19.0-2.3,66300,List1B,white,woman,,,,null,,,,
6507,,,survey-text,359,1728405,0.0-19.0-3.3,66300,List1B,white,woman,,,,,"{""Q0"":""Mike shouts at dave""}","<img src=""stim_listB/shout6.gif""</stim_listB>",are shouting at each other,
null,"<div style=""font-size:60px;"">+</div>",,html-keyboard-response,360,1728909,0.0-19.0-0.4,66300,List1B,white,woman,,,,null,,,,
null,"<img src=""stim_listB/hug4.gif""</stim_listB>",,html-keyboard-response,361,1730913,0.0-19.0-1.4,66300,List1B,white,woman,,,,null,,,,
null,are hugging each other,,html-keyboard-response,362,1732917,0.0-19.0-2.4,66300,List1B,white,woman,,,,null,,,,
5643,,,survey-text,363,1738563,0.0-19.0-3.4,66300,List1B,white,woman,,,,,"{""Q0"":""Jane hugs dave""}","<img src=""stim_listB/hug4.gif""</stim_listB>",are hugging each other,
null,"<div style=""font-size:60px;"">+</div>",,html-keyboard-response,364,1739067,0.0-19.0-0.5,66300,List1B,white,woman,,,,null,,,,
null,"<img src=""stim_listB/talk1.gif""</stim_listB>",,html-keyboard-response,365,1741072,0.0-19.0-1.5,66300,List1B,white,woman,,,,null,,,,
null,is talking to,,html-keyboard-response,366,1743077,0.0-19.0-2.5,66300,List1B,white,woman,,,,null,,,,
7492,,,survey-text,367,1750571,0.0-19.0-3.5,66300,List1B,white,woman,,,,,"{""Q0"":""Fred talks with kate""}","<img src=""stim_listB/talk1.gif""</stim_listB>",is talking to,
null,"<div style=""font-size:60px;"">+</div>",,html-keyboard-response,368,1751074,0.0-19.0-0.6,66300,List1B,white,woman,,,,null,,,,
null,"<img src=""stim_listB/dance2.gif""</stim_listB>",,html-keyboard-response,369,1753077,0.0-19.0-1.6,66300,List1B,white,woman,,,,null,,,,
null,are dancing with each other,,html-keyboard-response,370,1755082,0.0-19.0-2.6,66300,List1B,white,woman,,,,null,,,,
7222,,,survey-text,371,1762307,0.0-19.0-3.6,66300,List1B,white,woman,,,,,"{""Q0"":""Mike dances with beth""}","<img src=""stim_listB/dance2.gif""</stim_listB>",are dancing with each other,
null,"<div style=""font-size:60px;"">+</div>",,html-keyboard-response,372,1762810,0.0-19.0-0.7,66300,List1B,white,woman,,,,null,,,,
null,"<img src=""stim_listB/talk4.gif""</stim_listB>",,html-keyboard-response,373,1764814,0.0-19.0-1.7,66300,List1B,white,woman,,,,null,,,,
null,are talking to each other,,html-keyboard-response,374,1766819,0.0-19.0-2.7,66300,List1B,white,woman,,,,null,,,,
9535,,,survey-text,375,1776358,0.0-19.0-3.7,66300,List1B,white,woman,,,,,"{""Q0"":""Dave talks with ruth""}","<img src=""stim_listB/talk4.gif""</stim_listB>",are talking to each other,
null,"<div style=""font-size:60px;"">+</div>",,html-keyboard-response,376,1776861,0.0-19.0-0.8,66300,List1B,white,woman,,,,null,,,,
null,"<img src=""stim_listB/shout3.gif""</stim_listB>",,html-keyboard-response,377,1778866,0.0-19.0-1.8,66300,List1B,white,woman,,,,null,,,,
null,is shouting at,,html-keyboard-response,378,1780870,0.0-19.0-2.8,66300,List1B,white,woman,,,,null,,,,
8001,,,survey-text,379,1788875,0.0-19.0-3.8,66300,List1B,white,woman,,,,,"{""Q0"":""Ruth shouts luke""}","<img src=""stim_listB/shout3.gif""</stim_listB>",is shouting at,
null,"<div style=""font-size:60px;"">+</div>",,html-keyboard-response,380,1789381,0.0-19.0-0.9,66300,List1B,white,woman,,,,null,,,,
null,"<img src=""stim_listB/kiss2.gif""</stim_listB>",,html-keyboard-response,381,1791385,0.0-19.0-1.9,66300,List1B,white,woman,,,,null,,,,
null,are kissing each other,,html-keyboard-response,382,1793390,0.0-19.0-2.9,66300,List1B,white,woman,,,,null,,,,
6032,,,survey-text,383,1799425,0.0-19.0-3.9,66300,List1B,white,woman,,,,,"{""Q0"":""Mike kisses kate""}","<img src=""stim_listB/kiss2.gif""</stim_listB>",are kissing each other,
null,"<div style=""font-size:60px;"">+</div>",,html-keyboard-response,384,1799928,0.0-19.0-0.10,66300,List1B,white,woman,,,,null,,,,
null,"<img src=""stim_listB/touch3.gif""</stim_listB>",,html-keyboard-response,385,1801933,0.0-19.0-1.10,66300,List1B,white,woman,,,,null,,,,
null,is touching,,html-keyboard-response,386,1803938,0.0-19.0-2.10,66300,List1B,white,woman,,,,null,,,,
7240,,,survey-text,387,1811183,0.0-19.0-3.10,66300,List1B,white,woman,,,,,"{""Q0"":""Jane touches dave""}","<img src=""stim_listB/touch3.gif""</stim_listB>",is touching,
null,"<div style=""font-size:60px;"">+</div>",,html-keyboard-response,388,1811686,0.0-19.0-0.11,66300,List1B,white,woman,,,,null,,,,
null,"<img src=""stim_listB/hug3.gif""</stim_listB>",,html-keyboard-response,389,1813689,0.0-19.0-1.11,66300,List1B,white,woman,,,,null,,,,
null,is hugging,,html-keyboard-response,390,1815693,0.0-19.0-2.11,66300,List1B,white,woman,,,,null,,,,
9665,,,survey-text,391,1825362,0.0-19.0-3.11,66300,List1B,white,woman,,,,,"{""Q0"":""Like hugs ruth""}","<img src=""stim_listB/hug3.gif""</stim_listB>",is hugging,
null,"<div style=""font-size:60px;"">+</div>",,html-keyboard-response,392,1825866,0.0-19.0-0.12,66300,List1B,white,woman,,,,null,,,,
null,"<img src=""stim_listB/argue4.gif""</stim_listB>",,html-keyboard-response,393,1827870,0.0-19.0-1.12,66300,List1B,white,woman,,,,null,,,,
null,are arguing with each other,,html-keyboard-response,394,1829875,0.0-19.0-2.12,66300,List1B,white,woman,,,,null,,,,
6524,,,survey-text,395,1836403,0.0-19.0-3.12,66300,List1B,white,woman,,,,,"{""Q0"":""Jane argues luke""}","<img src=""stim_listB/argue4.gif""</stim_listB>",are arguing with each other,
null,"<div style=""font-size:60px;"">+</div>",,html-keyboard-response,396,1836906,0.0-19.0-0.13,66300,List1B,white,woman,,,,null,,,,
null,"<img src=""stim_listB/marry6.gif""</stim_listB>",,html-keyboard-response,397,1838910,0.0-19.0-1.13,66300,List1B,white,woman,,,,null,,,,
null,are marrying each other,,html-keyboard-response,398,1840914,0.0-19.0-2.13,66300,List1B,white,woman,,,,null,,,,
8727,,,survey-text,399,1849645,0.0-19.0-3.13,66300,List1B,white,woman,,,,,"{""Q0"":""Fred married dave""}","<img src=""stim_listB/marry6.gif""</stim_listB>",are marrying each other,
null,"<div style=""font-size:60px;"">+</div>",,html-keyboard-response,400,1850148,0.0-19.0-0.14,66300,List1B,white,woman,,,,null,,,,
null,"<img src=""stim_listB/touch8.gif""</stim_listB>",,html-keyboard-response,401,1852154,0.0-19.0-1.14,66300,List1B,white,woman,,,,null,,,,
null,are touching each other,,html-keyboard-response,402,1854158,0.0-19.0-2.14,66300,List1B,white,woman,,,,null,,,,
6451,,,survey-text,403,1860611,0.0-19.0-3.14,66300,List1B,white,woman,,,,,"{""Q0"":""Ruth touches beth""}","<img src=""stim_listB/touch8.gif""</stim_listB>",are touching each other,
null,"<div style=""font-size:60px;"">+</div>",,html-keyboard-response,404,1861116,0.0-19.0-0.15,66300,List1B,white,woman,,,,null,,,,
null,"<img src=""stim_listB/shout7.gif""</stim_listB>",,html-keyboard-response,405,1863121,0.0-19.0-1.15,66300,List1B,white,woman,,,,null,,,,
null,is shouting at,,html-keyboard-response,406,1865125,0.0-19.0-2.15,66300,List1B,white,woman,,,,null,,,,
5950,,,survey-text,407,1871079,0.0-19.0-3.15,66300,List1B,white,woman,,,,,"{""Q0"":""Beth shouts ruth""}","<img src=""stim_listB/shout7.gif""</stim_listB>",is shouting at,
null,"<div style=""font-size:60px;"">+</div>",,html-keyboard-response,408,1871582,0.0-19.0-0.16,66300,List1B,white,woman,,,,null,,,,
null,"<img src=""stim_listB/fight5.gif""</stim_listB>",,html-keyboard-response,409,1873586,0.0-19.0-1.16,66300,List1B,white,woman,,,,null,,,,
null,is fighting,,html-keyboard-response,410,1875590,0.0-19.0-2.16,66300,List1B,white,woman,,,,null,,,,
5485,,,survey-text,411,1881078,0.0-19.0-3.16,66300,List1B,white,woman,,,,,"{""Q0"":""Mike fights dave""}","<img src=""stim_listB/fight5.gif""</stim_listB>",is fighting,
null,"<div style=""font-size:60px;"">+</div>",,html-keyboard-response,412,1881581,0.0-19.0-0.17,66300,List1B,white,woman,,,,null,,,,
null,"<img src=""stim_listB/talk8.gif""</stim_listB>",,html-keyboard-response,413,1883584,0.0-19.0-1.17,66300,List1B,white,woman,,,,null,,,,
null,are talking to each other,,html-keyboard-response,414,1885587,0.0-19.0-2.17,66300,List1B,white,woman,,,,null,,,,
8040,,,survey-text,415,1893631,0.0-19.0-3.17,66300,List1B,white,woman,,,,,"{""Q0"":""Ruth talks with kate""}","<img src=""stim_listB/talk8.gif""</stim_listB>",are talking to each other,
null,"<div style=""font-size:60px;"">+</div>",,html-keyboard-response,416,1894134,0.0-19.0-0.18,66300,List1B,white,woman,,,,null,,,,
null,"<img src=""stim_listB/marry3.gif""</stim_listB>",,html-keyboard-response,417,1896138,0.0-19.0-1.18,66300,List1B,white,woman,,,,null,,,,
null,is marrying,,html-keyboard-response,418,1898142,0.0-19.0-2.18,66300,List1B,white,woman,,,,null,,,,
7889,,,survey-text,419,1906035,0.0-19.0-3.18,66300,List1B,white,woman,,,,,"{""Q0"":""Ruth married dave""}","<img src=""stim_listB/marry3.gif""</stim_listB>",is marrying,
null,"<div style=""font-size:60px;"">+</div>",,html-keyboard-response,420,1906538,0.0-19.0-0.19,66300,List1B,white,woman,,,,null,,,,
null,"<img src=""stim_listB/meet8.gif""</stim_listB>",,html-keyboard-response,421,1908543,0.0-19.0-1.19,66300,List1B,white,woman,,,,null,,,,
null,are meeting each other,,html-keyboard-response,422,1910547,0.0-19.0-2.19,66300,List1B,white,woman,,,,null,,,,
5320,,,survey-text,423,1915869,0.0-19.0-3.19,66300,List1B,white,woman,,,,,"{""Q0"":""Ruth meets beth""}","<img src=""stim_listB/meet8.gif""</stim_listB>",are meeting each other,
3111,<p>Thank you for completing that task.</p><p>The final part of this session is a short questionnaire.</p><p>Press Continue.</p>,0,html-button-response,424,1918983,0.0-20.0,66300,List1B,white,woman,,,,,,,,
27740,,,survey-text,425,1947726,0.0-21.0,66300,List1B,white,woman,,,,,"{""Q0"":""39"",""Q1"":""English"",""Q2"":""English"",""Q3"":""Uk"",""Q4"":""British"",""Q5"":""Female""}",,,demographics
45223,,,survey-likert,426,1992978,0.0-22.0,66300,List1B,white,woman,,,,,"{""Q0"":"""",""Q1"":"""",""Q2"":3,""Q3"":4,""Q4"":4,""Q5"":4,""Q6"":4,""Q7"":2,""Q8"":2,""Q9"":3,""Q10"":4,""Q11"":4,""Q12"":3,""Q13"":3}",,,likert_race
44013,,,survey-likert,427,2036997,0.0-23.0,66300,List1B,white,woman,,,,,"{""Q0"":3,""Q1"":3,""Q2"":3,""Q3"":4,""Q4"":4,""Q5"":4,""Q6"":3,""Q7"":4,""Q8"":4,""Q9"":4,""Q10"":4,""Q11"":4,""Q12"":4,""Q13"":3}",,,likert_gender
9411,,,survey-text,428,2046411,0.0-24.0,66300,List1B,white,woman,,,,,"{""Q0"":""ccc""}",,,worker_id
20155,,,external-html,429,2066869,0.0-25.0,66300,List1B,white,woman,debrief.html,,,,,,,
