rt,stimulus,button_pressed,trial_type,trial_index,time_elapsed,internal_node_id,subject,list,ppt_race,ppt_gender,url,first_guess,correct,key_press,responses,image_type,phrase_type,test_part
7799,Welcome to the experiment. Press Continue to begin.,0,html-button-response,0,7833,0.0-0.0,66497,List1B,black,man,,,,,,,,
9310,,,external-html,1,18303,0.0-1.0,66497,List1B,black,man,consent.html,,,,,,,
1117,"<p>On the next page, you will see portraits of 8 people and their names.</p><p>Your first task is to take a few minutes to memorise the names of these people.</p><p>You will have to recall their names during the rest of the experiment, so it is</p><p>essential that you try to memorise these people and their names as best as you can.</p><br><p><strong>You will then be tested on your memory of these names and portraits.</strong></p><br><p>The experiment will start after you have completed this memory test.</p><br><p>Ready?</p>",0,html-button-response,2,19433,0.0-2.0,66497,List1B,black,man,,,,,,,,
41709,"<img src='img/portrait_matrix_list1.JPG' style='width:900px;height:500px;''></img><p>If you have memorised all the portraits and names and are ready to start, press Continue.</p><p><strong>Please note: Your memory of these faces will be tested 4 times during this experiment.</strong></p>",0,html-button-response,3,62149,0.0-3.0-0.0,66497,List1B,black,man,,,,,,,,
3232,"<img src=""portrait/WM2.jpg""style=""width:400px;height:400px;""></img>",7,html-button-response,4,66390,0.0-3.0-1.0,66497,List1B,black,man,,TRUE,7,,,,,
null,CORRECT,,html-keyboard-response,5,67897,0.0-3.0-2.0-0.0,66497,List1B,black,man,,,,null,,,,
5317,"<img src=""portrait/BW1.jpg""style=""width:400px;height:400px;""></img>",0,html-button-response,6,73221,0.0-3.0-4.0,66497,List1B,black,man,,TRUE,0,,,,,
null,CORRECT,,html-keyboard-response,7,74753,0.0-3.0-5.0-0.0,66497,List1B,black,man,,,,null,,,,
2619,"<img src=""portrait/BM1.jpg""style=""width:400px;height:400px;""></img>",4,html-button-response,8,77381,0.0-3.0-7.0,66497,List1B,black,man,,TRUE,4,,,,,
null,CORRECT,,html-keyboard-response,9,78886,0.0-3.0-8.0-0.0,66497,List1B,black,man,,,,null,,,,
2808,"<img src=""portrait/BM2.jpg""style=""width:400px;height:400px;""></img>",5,html-button-response,10,81703,0.0-3.0-10.0,66497,List1B,black,man,,TRUE,5,,,,,
null,CORRECT,,html-keyboard-response,11,83208,0.0-3.0-11.0-0.0,66497,List1B,black,man,,,,null,,,,
6743,"<img src=""portrait/WW1.jpg""style=""width:400px;height:400px;""></img>",3,html-button-response,12,89960,0.0-3.0-13.0,66497,List1B,black,man,,TRUE,1,,,,,
5036,"<img src=""portrait/WW1.jpg""style=""width:400px;height:400px;""></img>",1,html-button-response,13,96004,0.0-3.0-15.0-0.0,66497,List1B,black,man,,FALSE,1,,,,,
null,CORRECT,,html-keyboard-response,14,97510,0.0-3.0-15.0-1.0-0.0,66497,List1B,black,man,,,,null,,,,
2394,"<img src=""portrait/BW2.jpg""style=""width:400px;height:400px;""></img>",2,html-button-response,15,99911,0.0-3.0-16.0,66497,List1B,black,man,,TRUE,2,,,,,
null,CORRECT,,html-keyboard-response,16,101416,0.0-3.0-17.0-0.0,66497,List1B,black,man,,,,null,,,,
9576,"<img src=""portrait/WM1.jpg""style=""width:400px;height:400px;""></img>",6,html-button-response,17,111000,0.0-3.0-19.0,66497,List1B,black,man,,TRUE,6,,,,,
null,CORRECT,,html-keyboard-response,18,112504,0.0-3.0-20.0-0.0,66497,List1B,black,man,,,,null,,,,
2824,"<img src=""portrait/WW2.jpg""style=""width:400px;height:400px;""></img>",3,html-button-response,19,115336,0.0-3.0-22.0,66497,List1B,black,man,,TRUE,3,,,,,
null,CORRECT,,html-keyboard-response,20,116842,0.0-3.0-23.0-0.0,66497,List1B,black,man,,,,null,,,,
1317,<p>You got 7 out of 8 right first time. Press Continue.</p>,0,html-button-response,21,118166,0.0-3.0-25.0,66497,List1B,black,man,,,,,,,,
4591,"As you did not score 100%, the memory game will repeat. Press Continue.",0,html-button-response,22,123766,0.0-3.0-26.0-0.0,66497,List1B,black,man,,,,,,,,
2075,"<img src='img/portrait_matrix_list1.JPG' style='width:900px;height:500px;''></img><p>If you have memorised all the portraits and names and are ready to start, press Continue.</p><p><strong>Please note: Your memory of these faces will be tested 4 times during this experiment.</strong></p>",0,html-button-response,23,126851,0.0-3.1-0.1,66497,List1B,black,man,,,,,,,,
4639,"<img src=""portrait/WM2.jpg""style=""width:400px;height:400px;""></img>",7,html-button-response,24,132500,0.0-3.1-1.1,66497,List1B,black,man,,TRUE,7,,,,,
null,CORRECT,,html-keyboard-response,25,134005,0.0-3.1-2.1-0.1,66497,List1B,black,man,,,,null,,,,
13609,"<img src=""portrait/BW1.jpg""style=""width:400px;height:400px;""></img>",0,html-button-response,26,147620,0.0-3.1-4.1,66497,List1B,black,man,,TRUE,0,,,,,
null,CORRECT,,html-keyboard-response,27,149125,0.0-3.1-5.1-0.1,66497,List1B,black,man,,,,null,,,,
4024,"<img src=""portrait/BM1.jpg""style=""width:400px;height:400px;""></img>",4,html-button-response,28,153159,0.0-3.1-7.1,66497,List1B,black,man,,TRUE,4,,,,,
null,CORRECT,,html-keyboard-response,29,154666,0.0-3.1-8.1-0.1,66497,List1B,black,man,,,,null,,,,
12306,"<img src=""portrait/BM2.jpg""style=""width:400px;height:400px;""></img>",6,html-button-response,30,166984,0.0-3.1-10.1,66497,List1B,black,man,,TRUE,5,,,,,
1592,"<img src=""portrait/BM2.jpg""style=""width:400px;height:400px;""></img>",5,html-button-response,31,169591,0.0-3.1-12.1-0.1,66497,List1B,black,man,,FALSE,5,,,,,
null,CORRECT,,html-keyboard-response,32,171096,0.0-3.1-12.1-1.1-0.1,66497,List1B,black,man,,,,null,,,,
4811,"<img src=""portrait/WW1.jpg""style=""width:400px;height:400px;""></img>",1,html-button-response,33,175918,0.0-3.1-13.1,66497,List1B,black,man,,TRUE,1,,,,,
null,CORRECT,,html-keyboard-response,34,177422,0.0-3.1-14.1-0.1,66497,List1B,black,man,,,,null,,,,
2849,"<img src=""portrait/BW2.jpg""style=""width:400px;height:400px;""></img>",2,html-button-response,35,180279,0.0-3.1-16.1,66497,List1B,black,man,,TRUE,2,,,,,
null,CORRECT,,html-keyboard-response,36,181783,0.0-3.1-17.1-0.1,66497,List1B,black,man,,,,null,,,,
23571,"<img src=""portrait/WM1.jpg""style=""width:400px;height:400px;""></img>",7,html-button-response,37,205364,0.0-3.1-19.1,66497,List1B,black,man,,TRUE,6,,,,,
1343,"<img src=""portrait/WM1.jpg""style=""width:400px;height:400px;""></img>",6,html-button-response,38,207719,0.0-3.1-21.1-0.1,66497,List1B,black,man,,FALSE,6,,,,,
null,CORRECT,,html-keyboard-response,39,209225,0.0-3.1-21.1-1.1-0.1,66497,List1B,black,man,,,,null,,,,
20543,"<img src=""portrait/WW2.jpg""style=""width:400px;height:400px;""></img>",0,html-button-response,40,229778,0.0-3.1-22.1,66497,List1B,black,man,,TRUE,3,,,,,
1697,"<img src=""portrait/WW2.jpg""style=""width:400px;height:400px;""></img>",3,html-button-response,41,232486,0.0-3.1-24.1-0.1,66497,List1B,black,man,,FALSE,3,,,,,
null,CORRECT,,html-keyboard-response,42,233991,0.0-3.1-24.1-1.1-0.1,66497,List1B,black,man,,,,null,,,,
744,<p>You got 5 out of 8 right first time. Press Continue.</p>,0,html-button-response,43,234742,0.0-3.1-25.1,66497,List1B,black,man,,,,,,,,
741,"As you did not score 100%, the memory game will repeat. Press Continue.",0,html-button-response,44,236490,0.0-3.1-26.1-0.1,66497,List1B,black,man,,,,,,,,
1269,"<img src='img/portrait_matrix_list1.JPG' style='width:900px;height:500px;''></img><p>If you have memorised all the portraits and names and are ready to start, press Continue.</p><p><strong>Please note: Your memory of these faces will be tested 4 times during this experiment.</strong></p>",0,html-button-response,45,238773,0.0-3.2-0.2,66497,List1B,black,man,,,,,,,,
2208,"<img src=""portrait/WM2.jpg""style=""width:400px;height:400px;""></img>",7,html-button-response,46,241990,0.0-3.2-1.2,66497,List1B,black,man,,TRUE,7,,,,,
null,CORRECT,,html-keyboard-response,47,243495,0.0-3.2-2.2-0.2,66497,List1B,black,man,,,,null,,,,
38664,"<img src=""portrait/BW1.jpg""style=""width:400px;height:400px;""></img>",0,html-button-response,48,282166,0.0-3.2-4.2,66497,List1B,black,man,,TRUE,0,,,,,
null,CORRECT,,html-keyboard-response,49,283670,0.0-3.2-5.2-0.2,66497,List1B,black,man,,,,null,,,,
7510,"<img src=""portrait/BM1.jpg""style=""width:400px;height:400px;""></img>",5,html-button-response,50,291190,0.0-3.2-7.2,66497,List1B,black,man,,TRUE,4,,,,,
3358,"<img src=""portrait/BM1.jpg""style=""width:400px;height:400px;""></img>",4,html-button-response,51,295555,0.0-3.2-9.2-0.2,66497,List1B,black,man,,FALSE,4,,,,,
null,CORRECT,,html-keyboard-response,52,297065,0.0-3.2-9.2-1.2-0.2,66497,List1B,black,man,,,,null,,,,
1811,"<img src=""portrait/BM2.jpg""style=""width:400px;height:400px;""></img>",6,html-button-response,53,298884,0.0-3.2-10.2,66497,List1B,black,man,,TRUE,5,,,,,
1438,"<img src=""portrait/BM2.jpg""style=""width:400px;height:400px;""></img>",5,html-button-response,54,301334,0.0-3.2-12.2-0.2,66497,List1B,black,man,,FALSE,5,,,,,
null,CORRECT,,html-keyboard-response,55,302841,0.0-3.2-12.2-1.2-0.2,66497,List1B,black,man,,,,null,,,,
2872,"<img src=""portrait/WW1.jpg""style=""width:400px;height:400px;""></img>",1,html-button-response,56,305726,0.0-3.2-13.2,66497,List1B,black,man,,TRUE,1,,,,,
null,CORRECT,,html-keyboard-response,57,307231,0.0-3.2-14.2-0.2,66497,List1B,black,man,,,,null,,,,
1440,"<img src=""portrait/BW2.jpg""style=""width:400px;height:400px;""></img>",2,html-button-response,58,308679,0.0-3.2-16.2,66497,List1B,black,man,,TRUE,2,,,,,
null,CORRECT,,html-keyboard-response,59,310184,0.0-3.2-17.2-0.2,66497,List1B,black,man,,,,null,,,,
5430,"<img src=""portrait/WM1.jpg""style=""width:400px;height:400px;""></img>",7,html-button-response,60,315620,0.0-3.2-19.2,66497,List1B,black,man,,TRUE,6,,,,,
1372,"<img src=""portrait/WM1.jpg""style=""width:400px;height:400px;""></img>",6,html-button-response,61,318003,0.0-3.2-21.2-0.2,66497,List1B,black,man,,FALSE,6,,,,,
null,CORRECT,,html-keyboard-response,62,319508,0.0-3.2-21.2-1.2-0.2,66497,List1B,black,man,,,,null,,,,
9892,"<img src=""portrait/WW2.jpg""style=""width:400px;height:400px;""></img>",1,html-button-response,63,329414,0.0-3.2-22.2,66497,List1B,black,man,,TRUE,3,,,,,
1886,"<img src=""portrait/WW2.jpg""style=""width:400px;height:400px;""></img>",3,html-button-response,64,332310,0.0-3.2-24.2-0.2,66497,List1B,black,man,,FALSE,3,,,,,
null,CORRECT,,html-keyboard-response,65,333814,0.0-3.2-24.2-1.2-0.2,66497,List1B,black,man,,,,null,,,,
855,<p>You got 4 out of 8 right first time. Press Continue.</p>,0,html-button-response,66,334674,0.0-3.2-25.2,66497,List1B,black,man,,,,,,,,
916,"As you did not score 100%, the memory game will repeat. Press Continue.",0,html-button-response,67,336596,0.0-3.2-26.2-0.2,66497,List1B,black,man,,,,,,,,
4736,"<img src='img/portrait_matrix_list1.JPG' style='width:900px;height:500px;''></img><p>If you have memorised all the portraits and names and are ready to start, press Continue.</p><p><strong>Please note: Your memory of these faces will be tested 4 times during this experiment.</strong></p>",0,html-button-response,68,342338,0.0-3.3-0.3,66497,List1B,black,man,,,,,,,,
6928,"<img src=""portrait/WM2.jpg""style=""width:400px;height:400px;""></img>",7,html-button-response,69,350275,0.0-3.3-1.3,66497,List1B,black,man,,TRUE,7,,,,,
null,CORRECT,,html-keyboard-response,70,351780,0.0-3.3-2.3-0.3,66497,List1B,black,man,,,,null,,,,
37274,"<img src=""portrait/BW1.jpg""style=""width:400px;height:400px;""></img>",0,html-button-response,71,389062,0.0-3.3-4.3,66497,List1B,black,man,,TRUE,0,,,,,
null,CORRECT,,html-keyboard-response,72,390566,0.0-3.3-5.3-0.3,66497,List1B,black,man,,,,null,,,,
4470,"<img src=""portrait/BM1.jpg""style=""width:400px;height:400px;""></img>",4,html-button-response,73,395043,0.0-3.3-7.3,66497,List1B,black,man,,TRUE,4,,,,,
null,CORRECT,,html-keyboard-response,74,396547,0.0-3.3-8.3-0.3,66497,List1B,black,man,,,,null,,,,
11196,"<img src=""portrait/BM2.jpg""style=""width:400px;height:400px;""></img>",6,html-button-response,75,407751,0.0-3.3-10.3,66497,List1B,black,man,,TRUE,5,,,,,
845,"<img src=""portrait/BM2.jpg""style=""width:400px;height:400px;""></img>",5,html-button-response,76,409606,0.0-3.3-12.3-0.3,66497,List1B,black,man,,FALSE,5,,,,,
null,CORRECT,,html-keyboard-response,77,411122,0.0-3.3-12.3-1.3-0.3,66497,List1B,black,man,,,,null,,,,
3739,"<img src=""portrait/WW1.jpg""style=""width:400px;height:400px;""></img>",1,html-button-response,78,414869,0.0-3.3-13.3,66497,List1B,black,man,,TRUE,1,,,,,
null,CORRECT,,html-keyboard-response,79,416374,0.0-3.3-14.3-0.3,66497,List1B,black,man,,,,null,,,,
1078,"<img src=""portrait/BW2.jpg""style=""width:400px;height:400px;""></img>",2,html-button-response,80,417461,0.0-3.3-16.3,66497,List1B,black,man,,TRUE,2,,,,,
null,CORRECT,,html-keyboard-response,81,418965,0.0-3.3-17.3-0.3,66497,List1B,black,man,,,,null,,,,
10246,"<img src=""portrait/WM1.jpg""style=""width:400px;height:400px;""></img>",6,html-button-response,82,429219,0.0-3.3-19.3,66497,List1B,black,man,,TRUE,6,,,,,
null,CORRECT,,html-keyboard-response,83,430725,0.0-3.3-20.3-0.3,66497,List1B,black,man,,,,null,,,,
1593,"<img src=""portrait/WW2.jpg""style=""width:400px;height:400px;""></img>",1,html-button-response,84,432327,0.0-3.3-22.3,66497,List1B,black,man,,TRUE,3,,,,,
1292,"<img src=""portrait/WW2.jpg""style=""width:400px;height:400px;""></img>",3,html-button-response,85,434626,0.0-3.3-24.3-0.3,66497,List1B,black,man,,FALSE,3,,,,,
null,CORRECT,,html-keyboard-response,86,436131,0.0-3.3-24.3-1.3-0.3,66497,List1B,black,man,,,,null,,,,
834,<p>You got 6 out of 8 right first time. Press Continue.</p>,0,html-button-response,87,436970,0.0-3.3-25.3,66497,List1B,black,man,,,,,,,,
429,"As you did not score 100%, the memory game will repeat. Press Continue.",0,html-button-response,88,438404,0.0-3.3-26.3-0.3,66497,List1B,black,man,,,,,,,,
1054,"<img src='img/portrait_matrix_list1.JPG' style='width:900px;height:500px;''></img><p>If you have memorised all the portraits and names and are ready to start, press Continue.</p><p><strong>Please note: Your memory of these faces will be tested 4 times during this experiment.</strong></p>",0,html-button-response,89,440467,0.0-3.4-0.4,66497,List1B,black,man,,,,,,,,
2193,"<img src=""portrait/WM2.jpg""style=""width:400px;height:400px;""></img>",7,html-button-response,90,443670,0.0-3.4-1.4,66497,List1B,black,man,,TRUE,7,,,,,
null,CORRECT,,html-keyboard-response,91,445175,0.0-3.4-2.4-0.4,66497,List1B,black,man,,,,null,,,,
15784,"<img src=""portrait/BW1.jpg""style=""width:400px;height:400px;""></img>",0,html-button-response,92,460965,0.0-3.4-4.4,66497,List1B,black,man,,TRUE,0,,,,,
null,CORRECT,,html-keyboard-response,93,462470,0.0-3.4-5.4-0.4,66497,List1B,black,man,,,,null,,,,
1596,"<img src=""portrait/BM1.jpg""style=""width:400px;height:400px;""></img>",4,html-button-response,94,464085,0.0-3.4-7.4,66497,List1B,black,man,,TRUE,4,,,,,
null,CORRECT,,html-keyboard-response,95,465590,0.0-3.4-8.4-0.4,66497,List1B,black,man,,,,null,,,,
3799,"<img src=""portrait/BM2.jpg""style=""width:400px;height:400px;""></img>",5,html-button-response,96,469397,0.0-3.4-10.4,66497,List1B,black,man,,TRUE,5,,,,,
null,CORRECT,,html-keyboard-response,97,470904,0.0-3.4-11.4-0.4,66497,List1B,black,man,,,,null,,,,
8019,"<img src=""portrait/WW1.jpg""style=""width:400px;height:400px;""></img>",1,html-button-response,98,478932,0.0-3.4-13.4,66497,List1B,black,man,,TRUE,1,,,,,
null,CORRECT,,html-keyboard-response,99,480437,0.0-3.4-14.4-0.4,66497,List1B,black,man,,,,null,,,,
1749,"<img src=""portrait/BW2.jpg""style=""width:400px;height:400px;""></img>",2,html-button-response,100,482194,0.0-3.4-16.4,66497,List1B,black,man,,TRUE,2,,,,,
null,CORRECT,,html-keyboard-response,101,483699,0.0-3.4-17.4-0.4,66497,List1B,black,man,,,,null,,,,
11582,"<img src=""portrait/WM1.jpg""style=""width:400px;height:400px;""></img>",6,html-button-response,102,495292,0.0-3.4-19.4,66497,List1B,black,man,,TRUE,6,,,,,
null,CORRECT,,html-keyboard-response,103,496798,0.0-3.4-20.4-0.4,66497,List1B,black,man,,,,null,,,,
3036,"<img src=""portrait/WW2.jpg""style=""width:400px;height:400px;""></img>",3,html-button-response,104,499842,0.0-3.4-22.4,66497,List1B,black,man,,TRUE,3,,,,,
null,CORRECT,,html-keyboard-response,105,501345,0.0-3.4-23.4-0.4,66497,List1B,black,man,,,,null,,,,
1725,<p>You got 8 out of 8 right first time. Press Continue.</p>,0,html-button-response,106,503075,0.0-3.4-25.4,66497,List1B,black,man,,,,,,,,
31025,"<p>In this experiment, you will view photographs of the people from the memory game interacting.</p><p>By using the <strong>exact</strong> phrase given <i>after</i> the photograph appears and recalling the correct names of the people in the photographs, form a sentence describing the interaction. You do not need to capitalise names.</p><p>Type your answer in the space provided. Please complete every sentence before moving onto the next trial.</p><p>You will only have a few seconds to memorise each given photograph and phrase before you can respond, so try your best to focus.</p><p>An example is given below. Press 'Continue' when you are ready.</p><img src='img/speaking_example_v2.jpg' style='width:800px;height:460px;''></img>",0,html-button-response,107,535107,0.0-4.0,66497,List1B,black,man,,,,,,,,
1777,"<p>Before the experiment starts, you will watch two example trials. Press 'Continue'.</p>",0,html-button-response,108,537889,0.0-5.0,66497,List1B,black,man,,,,,,,,
null,<img src='img/speaking_WW.gif'></img>,,html-keyboard-response,109,540895,0.0-6.0,66497,List1B,black,man,,,,null,,,,
null,<p>is speaking to</p>,,html-keyboard-response,110,542899,0.0-7.0,66497,List1B,black,man,,,,null,,,,
2154,<p><b>Answer:</b> kate is speaking to beth</p>,0,html-button-response,111,545059,0.0-8.0,66497,List1B,black,man,,,,,,,,
null,<img src='img/pointing_BM.gif'></img>,,html-keyboard-response,112,548065,0.0-9.0,66497,List1B,black,man,,,,null,,,,
null,<p>are pointing at each other</p>,,html-keyboard-response,113,550068,0.0-10.0,66497,List1B,black,man,,,,null,,,,
2362,<p><b>Answer:</b> luke and dave are pointing at each other</p>,0,html-button-response,114,552433,0.0-11.0,66497,List1B,black,man,,,,,,,,
7123,"<p>Ready to start the experiment?</p><br><p><strong>Remember to describe the picture using a full sentence,</strong></p><p><strong>that combines the names of the people with the given phrase.</strong></p><p><strong>If you do not do this correctly you will not be paid.</strong></p><p><strong> You do not need to capitalise names or use punctuation.</strong></p><br><p>Press 'Continue' to begin.</p>",0,html-button-response,115,560561,0.0-12.0,66497,List1B,black,man,,,,,,,,
null,"<div style=""font-size:60px;"">+</div>",,html-keyboard-response,116,562067,0.0-13.0-0.0,66497,List1B,black,man,,,,null,,,,
null,"<img src=""stim_listB/marry5.gif""</stim_listB>",,html-keyboard-response,117,564071,0.0-13.0-1.0,66497,List1B,black,man,,,,null,,,,
null,is marrying,,html-keyboard-response,118,566075,0.0-13.0-2.0,66497,List1B,black,man,,,,null,,,,
14926,,,survey-text,119,581012,0.0-13.0-3.0,66497,List1B,black,man,,,,,"{""Q0"":""Luke is marrying Mike""}","<img src=""stim_listB/marry5.gif""</stim_listB>",is marrying,
null,"<div style=""font-size:60px;"">+</div>",,html-keyboard-response,120,581520,0.0-13.0-0.1,66497,List1B,black,man,,,,null,,,,
null,"<img src=""stim_listB/touch8.gif""</stim_listB>",,html-keyboard-response,121,583524,0.0-13.0-1.1,66497,List1B,black,man,,,,null,,,,
null,are touching each other,,html-keyboard-response,122,585528,0.0-13.0-2.1,66497,List1B,black,man,,,,null,,,,
50979,,,survey-text,123,636512,0.0-13.0-3.1,66497,List1B,black,man,,,,,"{""Q0"":""Beth is touching Ruth""}","<img src=""stim_listB/touch8.gif""</stim_listB>",are touching each other,
null,"<div style=""font-size:60px;"">+</div>",,html-keyboard-response,124,637016,0.0-13.0-0.2,66497,List1B,black,man,,,,null,,,,
null,"<img src=""stim_listB/argue3.gif""</stim_listB>",,html-keyboard-response,125,639019,0.0-13.0-1.2,66497,List1B,black,man,,,,null,,,,
null,is arguing with,,html-keyboard-response,126,641023,0.0-13.0-2.2,66497,List1B,black,man,,,,null,,,,
10973,,,survey-text,127,652002,0.0-13.0-3.2,66497,List1B,black,man,,,,,"{""Q0"":""Ruth is arguing with Dave""}","<img src=""stim_listB/argue3.gif""</stim_listB>",is arguing with,
null,"<div style=""font-size:60px;"">+</div>",,html-keyboard-response,128,652506,0.0-13.0-0.3,66497,List1B,black,man,,,,null,,,,
null,"<img src=""stim_listB/argue6.gif""</stim_listB>",,html-keyboard-response,129,654509,0.0-13.0-1.3,66497,List1B,black,man,,,,null,,,,
null,are arguing with each other,,html-keyboard-response,130,656513,0.0-13.0-2.3,66497,List1B,black,man,,,,null,,,,
51483,,,survey-text,131,708002,0.0-13.0-3.3,66497,List1B,black,man,,,,,"{""Q0"":""Fred is arguing with Ruth""}","<img src=""stim_listB/argue6.gif""</stim_listB>",are arguing with each other,
null,"<div style=""font-size:60px;"">+</div>",,html-keyboard-response,132,708506,0.0-13.0-0.4,66497,List1B,black,man,,,,null,,,,
null,"<img src=""stim_listB/shout1.gif""</stim_listB>",,html-keyboard-response,133,710509,0.0-13.0-1.4,66497,List1B,black,man,,,,null,,,,
null,is shouting at,,html-keyboard-response,134,712512,0.0-13.0-2.4,66497,List1B,black,man,,,,null,,,,
14907,,,survey-text,135,727424,0.0-13.0-3.4,66497,List1B,black,man,,,,,"{""Q0"":""Fred is shouting at Beth""}","<img src=""stim_listB/shout1.gif""</stim_listB>",is shouting at,
null,"<div style=""font-size:60px;"">+</div>",,html-keyboard-response,136,727929,0.0-13.0-0.5,66497,List1B,black,man,,,,null,,,,
null,"<img src=""stim_listB/touch3.gif""</stim_listB>",,html-keyboard-response,137,729934,0.0-13.0-1.5,66497,List1B,black,man,,,,null,,,,
null,is touching,,html-keyboard-response,138,731938,0.0-13.0-2.5,66497,List1B,black,man,,,,null,,,,
7450,,,survey-text,139,739394,0.0-13.0-3.5,66497,List1B,black,man,,,,,"{""Q0"":""Jane is touching Dave""}","<img src=""stim_listB/touch3.gif""</stim_listB>",is touching,
null,"<div style=""font-size:60px;"">+</div>",,html-keyboard-response,140,739901,0.0-13.0-0.6,66497,List1B,black,man,,,,null,,,,
null,"<img src=""stim_listB/shout6.gif""</stim_listB>",,html-keyboard-response,141,741905,0.0-13.0-1.6,66497,List1B,black,man,,,,null,,,,
null,are shouting at each other,,html-keyboard-response,142,743910,0.0-13.0-2.6,66497,List1B,black,man,,,,null,,,,
32356,,,survey-text,143,776270,0.0-13.0-3.6,66497,List1B,black,man,,,,,"{""Q0"":""Jane is shouting at Luke""}","<img src=""stim_listB/shout6.gif""</stim_listB>",are shouting at each other,
null,"<div style=""font-size:60px;"">+</div>",,html-keyboard-response,144,776775,0.0-13.0-0.7,66497,List1B,black,man,,,,null,,,,
null,"<img src=""stim_listB/marry8.gif""</stim_listB>",,html-keyboard-response,145,778780,0.0-13.0-1.7,66497,List1B,black,man,,,,null,,,,
null,are marrying each other,,html-keyboard-response,146,780784,0.0-13.0-2.7,66497,List1B,black,man,,,,null,,,,
18748,,,survey-text,147,799537,0.0-13.0-3.7,66497,List1B,black,man,,,,,"{""Q0"":""Jane is marrying Kate.""}","<img src=""stim_listB/marry8.gif""</stim_listB>",are marrying each other,
null,"<div style=""font-size:60px;"">+</div>",,html-keyboard-response,148,800041,0.0-13.0-0.8,66497,List1B,black,man,,,,null,,,,
null,"<img src=""stim_listB/fight7.gif""</stim_listB>",,html-keyboard-response,149,802044,0.0-13.0-1.8,66497,List1B,black,man,,,,null,,,,
null,is fighting,,html-keyboard-response,150,804047,0.0-13.0-2.8,66497,List1B,black,man,,,,null,,,,
10924,,,survey-text,151,814976,0.0-13.0-3.8,66497,List1B,black,man,,,,,"{""Q0"":""Jane is fighting Kate.""}","<img src=""stim_listB/fight7.gif""</stim_listB>",is fighting,
null,"<div style=""font-size:60px;"">+</div>",,html-keyboard-response,152,815481,0.0-13.0-0.9,66497,List1B,black,man,,,,null,,,,
null,"<img src=""stim_listB/hug5.gif""</stim_listB>",,html-keyboard-response,153,817484,0.0-13.0-1.9,66497,List1B,black,man,,,,null,,,,
null,is hugging,,html-keyboard-response,154,819489,0.0-13.0-2.9,66497,List1B,black,man,,,,null,,,,
12473,,,survey-text,155,831966,0.0-13.0-3.9,66497,List1B,black,man,,,,,"{""Q0"":""Luke is hugging Fred. ""}","<img src=""stim_listB/hug5.gif""</stim_listB>",is hugging,
null,"<div style=""font-size:60px;"">+</div>",,html-keyboard-response,156,832471,0.0-13.0-0.10,66497,List1B,black,man,,,,null,,,,
null,"<img src=""stim_listB/dance3.gif""</stim_listB>",,html-keyboard-response,157,834474,0.0-13.0-1.10,66497,List1B,black,man,,,,null,,,,
null,is dancing with,,html-keyboard-response,158,836484,0.0-13.0-2.10,66497,List1B,black,man,,,,null,,,,
9279,,,survey-text,159,845769,0.0-13.0-3.10,66497,List1B,black,man,,,,,"{""Q0"":""Jane is dancing with Luke. ""}","<img src=""stim_listB/dance3.gif""</stim_listB>",is dancing with,
null,"<div style=""font-size:60px;"">+</div>",,html-keyboard-response,160,846274,0.0-13.0-0.11,66497,List1B,black,man,,,,null,,,,
null,"<img src=""stim_listB/marry2.gif""</stim_listB>",,html-keyboard-response,161,848277,0.0-13.0-1.11,66497,List1B,black,man,,,,null,,,,
null,are marrying each other,,html-keyboard-response,162,850280,0.0-13.0-2.11,66497,List1B,black,man,,,,null,,,,
17059,,,survey-text,163,867345,0.0-13.0-3.11,66497,List1B,black,man,,,,,"{""Q0"":""Fred is marrying Kate. ""}","<img src=""stim_listB/marry2.gif""</stim_listB>",are marrying each other,
null,"<div style=""font-size:60px;"">+</div>",,html-keyboard-response,164,867851,0.0-13.0-0.12,66497,List1B,black,man,,,,null,,,,
null,"<img src=""stim_listB/fight1.gif""</stim_listB>",,html-keyboard-response,165,869857,0.0-13.0-1.12,66497,List1B,black,man,,,,null,,,,
null,is fighting,,html-keyboard-response,166,871861,0.0-13.0-2.12,66497,List1B,black,man,,,,null,,,,
10215,,,survey-text,167,882080,0.0-13.0-3.12,66497,List1B,black,man,,,,,"{""Q0"":""Mike is fighting with Kate.""}","<img src=""stim_listB/fight1.gif""</stim_listB>",is fighting,
null,"<div style=""font-size:60px;"">+</div>",,html-keyboard-response,168,882586,0.0-13.0-0.13,66497,List1B,black,man,,,,null,,,,
null,"<img src=""stim_listB/shout3.gif""</stim_listB>",,html-keyboard-response,169,884590,0.0-13.0-1.13,66497,List1B,black,man,,,,null,,,,
null,is shouting at,,html-keyboard-response,170,886593,0.0-13.0-2.13,66497,List1B,black,man,,,,null,,,,
15210,,,survey-text,171,901805,0.0-13.0-3.13,66497,List1B,black,man,,,,,"{""Q0"":""Luke is yelling at Ruth. ""}","<img src=""stim_listB/shout3.gif""</stim_listB>",is shouting at,
null,"<div style=""font-size:60px;"">+</div>",,html-keyboard-response,172,902309,0.0-13.0-0.14,66497,List1B,black,man,,,,null,,,,
null,"<img src=""stim_listB/hug8.gif""</stim_listB>",,html-keyboard-response,173,904313,0.0-13.0-1.14,66497,List1B,black,man,,,,null,,,,
null,are hugging each other,,html-keyboard-response,174,906316,0.0-13.0-2.14,66497,List1B,black,man,,,,null,,,,
15503,,,survey-text,175,921823,0.0-13.0-3.14,66497,List1B,black,man,,,,,"{""Q0"":""Jane and Kate are hugging each other. ""}","<img src=""stim_listB/hug8.gif""</stim_listB>",are hugging each other,
null,"<div style=""font-size:60px;"">+</div>",,html-keyboard-response,176,922334,0.0-13.0-0.15,66497,List1B,black,man,,,,null,,,,
null,"<img src=""stim_listB/meet1.gif""</stim_listB>",,html-keyboard-response,177,924338,0.0-13.0-1.15,66497,List1B,black,man,,,,null,,,,
null,is meeting,,html-keyboard-response,178,926342,0.0-13.0-2.15,66497,List1B,black,man,,,,null,,,,
11700,,,survey-text,179,938045,0.0-13.0-3.15,66497,List1B,black,man,,,,,"{""Q0"":""Mike and Kate are meeting. ""}","<img src=""stim_listB/meet1.gif""</stim_listB>",is meeting,
null,"<div style=""font-size:60px;"">+</div>",,html-keyboard-response,180,938549,0.0-13.0-0.16,66497,List1B,black,man,,,,null,,,,
null,"<img src=""stim_listB/marry1.gif""</stim_listB>",,html-keyboard-response,181,940552,0.0-13.0-1.16,66497,List1B,black,man,,,,null,,,,
null,is marrying,,html-keyboard-response,182,942554,0.0-13.0-2.16,66497,List1B,black,man,,,,null,,,,
8656,,,survey-text,183,951215,0.0-13.0-3.16,66497,List1B,black,man,,,,,"{""Q0"":""Mike and Beth are marrying. ""}","<img src=""stim_listB/marry1.gif""</stim_listB>",is marrying,
null,"<div style=""font-size:60px;"">+</div>",,html-keyboard-response,184,951721,0.0-13.0-0.17,66497,List1B,black,man,,,,null,,,,
null,"<img src=""stim_listB/hug7.gif""</stim_listB>",,html-keyboard-response,185,953724,0.0-13.0-1.17,66497,List1B,black,man,,,,null,,,,
null,is hugging,,html-keyboard-response,186,955728,0.0-13.0-2.17,66497,List1B,black,man,,,,null,,,,
12588,,,survey-text,187,968320,0.0-13.0-3.17,66497,List1B,black,man,,,,,"{""Q0"":""Ruth and Kate are hugging. ""}","<img src=""stim_listB/hug7.gif""</stim_listB>",is hugging,
null,"<div style=""font-size:60px;"">+</div>",,html-keyboard-response,188,968826,0.0-13.0-0.18,66497,List1B,black,man,,,,null,,,,
null,"<img src=""stim_listB/hug4.gif""</stim_listB>",,html-keyboard-response,189,970830,0.0-13.0-1.18,66497,List1B,black,man,,,,null,,,,
null,are hugging each other,,html-keyboard-response,190,972833,0.0-13.0-2.18,66497,List1B,black,man,,,,null,,,,
17499,,,survey-text,191,990337,0.0-13.0-3.18,66497,List1B,black,man,,,,,"{""Q0"":""Jane and Dave are hugging each other. ""}","<img src=""stim_listB/hug4.gif""</stim_listB>",are hugging each other,
null,"<div style=""font-size:60px;"">+</div>",,html-keyboard-response,192,990841,0.0-13.0-0.19,66497,List1B,black,man,,,,null,,,,
null,"<img src=""stim_listB/dance6.gif""</stim_listB>",,html-keyboard-response,193,992844,0.0-13.0-1.19,66497,List1B,black,man,,,,null,,,,
null,are dancing with each other,,html-keyboard-response,194,994848,0.0-13.0-2.19,66497,List1B,black,man,,,,null,,,,
10588,,,survey-text,195,1005441,0.0-13.0-3.19,66497,List1B,black,man,,,,,"{""Q0"":""Mike and Luke are dancing with each other.""}","<img src=""stim_listB/dance6.gif""</stim_listB>",are dancing with each other,
4952,"<img src='img/portrait_matrix_list1.JPG' style='width:900px;height:500px;''></img><p>If you have memorised all the portraits and names and are ready to start, press Continue.</p><p><strong>Please note: Your memory of these faces will be tested 4 times during this experiment.</strong></p>",0,html-button-response,196,1010399,0.0-14.0-0.0,66497,List1B,black,man,,,,,,,,
18592,"<img src=""portrait/WW2.jpg""style=""width:400px;height:400px;""></img>",3,html-button-response,197,1029998,0.0-14.0-1.0,66497,List1B,black,man,,TRUE,3,,,,,
null,CORRECT,,html-keyboard-response,198,1031503,0.0-14.0-2.0-0.0,66497,List1B,black,man,,,,null,,,,
1882,"<img src=""portrait/WM2.jpg""style=""width:400px;height:400px;""></img>",7,html-button-response,199,1033393,0.0-14.0-4.0,66497,List1B,black,man,,TRUE,7,,,,,
null,CORRECT,,html-keyboard-response,200,1034898,0.0-14.0-5.0-0.0,66497,List1B,black,man,,,,null,,,,
3411,"<img src=""portrait/WW1.jpg""style=""width:400px;height:400px;""></img>",1,html-button-response,201,1038318,0.0-14.0-7.0,66497,List1B,black,man,,TRUE,1,,,,,
null,CORRECT,,html-keyboard-response,202,1039822,0.0-14.0-8.0-0.0,66497,List1B,black,man,,,,null,,,,
4827,"<img src=""portrait/BW1.jpg""style=""width:400px;height:400px;""></img>",0,html-button-response,203,1044656,0.0-14.0-10.0,66497,List1B,black,man,,TRUE,0,,,,,
null,CORRECT,,html-keyboard-response,204,1046161,0.0-14.0-11.0-0.0,66497,List1B,black,man,,,,null,,,,
13544,"<img src=""portrait/WM1.jpg""style=""width:400px;height:400px;""></img>",6,html-button-response,205,1059713,0.0-14.0-13.0,66497,List1B,black,man,,TRUE,6,,,,,
null,CORRECT,,html-keyboard-response,206,1061219,0.0-14.0-14.0-0.0,66497,List1B,black,man,,,,null,,,,
2486,"<img src=""portrait/BW2.jpg""style=""width:400px;height:400px;""></img>",2,html-button-response,207,1063712,0.0-14.0-16.0,66497,List1B,black,man,,TRUE,2,,,,,
null,CORRECT,,html-keyboard-response,208,1065217,0.0-14.0-17.0-0.0,66497,List1B,black,man,,,,null,,,,
1939,"<img src=""portrait/BM2.jpg""style=""width:400px;height:400px;""></img>",5,html-button-response,209,1067170,0.0-14.0-19.0,66497,List1B,black,man,,TRUE,5,,,,,
null,CORRECT,,html-keyboard-response,210,1068675,0.0-14.0-20.0-0.0,66497,List1B,black,man,,,,null,,,,
3505,"<img src=""portrait/BM1.jpg""style=""width:400px;height:400px;""></img>",4,html-button-response,211,1072189,0.0-14.0-22.0,66497,List1B,black,man,,TRUE,4,,,,,
null,CORRECT,,html-keyboard-response,212,1073695,0.0-14.0-23.0-0.0,66497,List1B,black,man,,,,null,,,,
1368,<p>You got 8 out of 8 right first time. Press Continue.</p>,0,html-button-response,213,1075068,0.0-14.0-25.0,66497,List1B,black,man,,,,,,,,
null,"<div style=""font-size:60px;"">+</div>",,html-keyboard-response,214,1076578,0.0-15.0-0.0,66497,List1B,black,man,,,,null,,,,
null,"<img src=""stim_listB/marry3.gif""</stim_listB>",,html-keyboard-response,215,1078583,0.0-15.0-1.0,66497,List1B,black,man,,,,null,,,,
null,is marrying,,html-keyboard-response,216,1080586,0.0-15.0-2.0,66497,List1B,black,man,,,,null,,,,
13438,,,survey-text,217,1094028,0.0-15.0-3.0,66497,List1B,black,man,,,,,"{""Q0"":""Ruth is marring Dave.""}","<img src=""stim_listB/marry3.gif""</stim_listB>",is marrying,
null,"<div style=""font-size:60px;"">+</div>",,html-keyboard-response,218,1094532,0.0-15.0-0.1,66497,List1B,black,man,,,,null,,,,
null,"<img src=""stim_listB/talk2.gif""</stim_listB>",,html-keyboard-response,219,1096537,0.0-15.0-1.1,66497,List1B,black,man,,,,null,,,,
null,are talking to each other,,html-keyboard-response,220,1098541,0.0-15.0-2.1,66497,List1B,black,man,,,,null,,,,
11787,,,survey-text,221,1110332,0.0-15.0-3.1,66497,List1B,black,man,,,,,"{""Q0"":""Mike is talking with Beth. ""}","<img src=""stim_listB/talk2.gif""</stim_listB>",are talking to each other,
null,"<div style=""font-size:60px;"">+</div>",,html-keyboard-response,222,1110836,0.0-15.0-0.2,66497,List1B,black,man,,,,null,,,,
null,"<img src=""stim_listB/shout4.gif""</stim_listB>",,html-keyboard-response,223,1112840,0.0-15.0-1.2,66497,List1B,black,man,,,,null,,,,
null,are shouting at each other,,html-keyboard-response,224,1114844,0.0-15.0-2.2,66497,List1B,black,man,,,,null,,,,
19549,,,survey-text,225,1134400,0.0-15.0-3.2,66497,List1B,black,man,,,,,"{""Q0"":""Dave and Jane are shouting at each other. ""}","<img src=""stim_listB/shout4.gif""</stim_listB>",are shouting at each other,
null,"<div style=""font-size:60px;"">+</div>",,html-keyboard-response,226,1134903,0.0-15.0-0.3,66497,List1B,black,man,,,,null,,,,
null,"<img src=""stim_listB/argue4.gif""</stim_listB>",,html-keyboard-response,227,1136906,0.0-15.0-1.3,66497,List1B,black,man,,,,null,,,,
null,are arguing with each other,,html-keyboard-response,228,1138910,0.0-15.0-2.3,66497,List1B,black,man,,,,null,,,,
13738,,,survey-text,229,1152652,0.0-15.0-3.3,66497,List1B,black,man,,,,,"{""Q0"":""Ruth and Luke are pointing at each other. ""}","<img src=""stim_listB/argue4.gif""</stim_listB>",are arguing with each other,
null,"<div style=""font-size:60px;"">+</div>",,html-keyboard-response,230,1153155,0.0-15.0-0.4,66497,List1B,black,man,,,,null,,,,
null,"<img src=""stim_listB/touch1.gif""</stim_listB>",,html-keyboard-response,231,1155159,0.0-15.0-1.4,66497,List1B,black,man,,,,null,,,,
null,is touching,,html-keyboard-response,232,1157162,0.0-15.0-2.4,66497,List1B,black,man,,,,null,,,,
9182,,,survey-text,233,1166350,0.0-15.0-3.4,66497,List1B,black,man,,,,,"{""Q0"":""Mike is touching Kate. ""}","<img src=""stim_listB/touch1.gif""</stim_listB>",is touching,
null,"<div style=""font-size:60px;"">+</div>",,html-keyboard-response,234,1166855,0.0-15.0-0.5,66497,List1B,black,man,,,,null,,,,
null,"<img src=""stim_listB/fight8.gif""</stim_listB>",,html-keyboard-response,235,1168862,0.0-15.0-1.5,66497,List1B,black,man,,,,null,,,,
null,are fighting each other,,html-keyboard-response,236,1170867,0.0-15.0-2.5,66497,List1B,black,man,,,,null,,,,
22339,,,survey-text,237,1193211,0.0-15.0-3.5,66497,List1B,black,man,,,,,"{""Q0"":""Ruth is fighting Beth.""}","<img src=""stim_listB/fight8.gif""</stim_listB>",are fighting each other,
null,"<div style=""font-size:60px;"">+</div>",,html-keyboard-response,238,1193715,0.0-15.0-0.6,66497,List1B,black,man,,,,null,,,,
null,"<img src=""stim_listB/kiss7.gif""</stim_listB>",,html-keyboard-response,239,1195719,0.0-15.0-1.6,66497,List1B,black,man,,,,null,,,,
null,is kissing,,html-keyboard-response,240,1197723,0.0-15.0-2.6,66497,List1B,black,man,,,,null,,,,
9132,,,survey-text,241,1206859,0.0-15.0-3.6,66497,List1B,black,man,,,,,"{""Q0"":""Ruth is kissing Beth.""}","<img src=""stim_listB/kiss7.gif""</stim_listB>",is kissing,
null,"<div style=""font-size:60px;"">+</div>",,html-keyboard-response,242,1207365,0.0-15.0-0.7,66497,List1B,black,man,,,,null,,,,
null,"<img src=""stim_listB/kiss6.gif""</stim_listB>",,html-keyboard-response,243,1209369,0.0-15.0-1.7,66497,List1B,black,man,,,,null,,,,
null,are kissing each other,,html-keyboard-response,244,1211373,0.0-15.0-2.7,66497,List1B,black,man,,,,null,,,,
15497,,,survey-text,245,1226875,0.0-15.0-3.7,66497,List1B,black,man,,,,,"{""Q0"":""Mike and Dave are kissing each other. ""}","<img src=""stim_listB/kiss6.gif""</stim_listB>",are kissing each other,
null,"<div style=""font-size:60px;"">+</div>",,html-keyboard-response,246,1227380,0.0-15.0-0.8,66497,List1B,black,man,,,,null,,,,
null,"<img src=""stim_listB/fight4.gif""</stim_listB>",,html-keyboard-response,247,1229383,0.0-15.0-1.8,66497,List1B,black,man,,,,null,,,,
null,are fighting each other,,html-keyboard-response,248,1231387,0.0-15.0-2.8,66497,List1B,black,man,,,,null,,,,
32554,,,survey-text,249,1263946,0.0-15.0-3.8,66497,List1B,black,man,,,,,"{""Q0"":""Ruth and Beth are fighting each other.""}","<img src=""stim_listB/fight4.gif""</stim_listB>",are fighting each other,
null,"<div style=""font-size:60px;"">+</div>",,html-keyboard-response,250,1264451,0.0-15.0-0.9,66497,List1B,black,man,,,,null,,,,
null,"<img src=""stim_listB/argue2.gif""</stim_listB>",,html-keyboard-response,251,1266455,0.0-15.0-1.9,66497,List1B,black,man,,,,null,,,,
null,are arguing with each other,,html-keyboard-response,252,1268458,0.0-15.0-2.9,66497,List1B,black,man,,,,null,,,,
13693,,,survey-text,253,1282157,0.0-15.0-3.9,66497,List1B,black,man,,,,,"{""Q0"":""Kate and Fred are arguing with each other. ""}","<img src=""stim_listB/argue2.gif""</stim_listB>",are arguing with each other,
null,"<div style=""font-size:60px;"">+</div>",,html-keyboard-response,254,1282663,0.0-15.0-0.10,66497,List1B,black,man,,,,null,,,,
null,"<img src=""stim_listB/dance2.gif""</stim_listB>",,html-keyboard-response,255,1284666,0.0-15.0-1.10,66497,List1B,black,man,,,,null,,,,
null,are dancing with each other,,html-keyboard-response,256,1286670,0.0-15.0-2.10,66497,List1B,black,man,,,,null,,,,
17978,,,survey-text,257,1304651,0.0-15.0-3.10,66497,List1B,black,man,,,,,"{""Q0"":""Mike and Beth are dancing with each other. ""}","<img src=""stim_listB/dance2.gif""</stim_listB>",are dancing with each other,
null,"<div style=""font-size:60px;"">+</div>",,html-keyboard-response,258,1305156,0.0-15.0-0.11,66497,List1B,black,man,,,,null,,,,
null,"<img src=""stim_listB/talk3.gif""</stim_listB>",,html-keyboard-response,259,1307161,0.0-15.0-1.11,66497,List1B,black,man,,,,null,,,,
null,is talking to,,html-keyboard-response,260,1309164,0.0-15.0-2.11,66497,List1B,black,man,,,,null,,,,
7242,,,survey-text,261,1316410,0.0-15.0-3.11,66497,List1B,black,man,,,,,"{""Q0"":""Jane is talking with Luke.""}","<img src=""stim_listB/talk3.gif""</stim_listB>",is talking to,
null,"<div style=""font-size:60px;"">+</div>",,html-keyboard-response,262,1316914,0.0-15.0-0.12,66497,List1B,black,man,,,,null,,,,
null,"<img src=""stim_listB/fight6.gif""</stim_listB>",,html-keyboard-response,263,1318919,0.0-15.0-1.12,66497,List1B,black,man,,,,null,,,,
null,are fighting each other,,html-keyboard-response,264,1320922,0.0-15.0-2.12,66497,List1B,black,man,,,,null,,,,
13709,,,survey-text,265,1334636,0.0-15.0-3.12,66497,List1B,black,man,,,,,"{""Q0"":""Luke and Fred are fighting with each other. ""}","<img src=""stim_listB/fight6.gif""</stim_listB>",are fighting each other,
null,"<div style=""font-size:60px;"">+</div>",,html-keyboard-response,266,1335142,0.0-15.0-0.13,66497,List1B,black,man,,,,null,,,,
null,"<img src=""stim_listB/talk1.gif""</stim_listB>",,html-keyboard-response,267,1337146,0.0-15.0-1.13,66497,List1B,black,man,,,,null,,,,
null,is talking to,,html-keyboard-response,268,1339150,0.0-15.0-2.13,66497,List1B,black,man,,,,null,,,,
18263,,,survey-text,269,1357418,0.0-15.0-3.13,66497,List1B,black,man,,,,,"{""Q0"":""Kate is fighting with Beth.""}","<img src=""stim_listB/talk1.gif""</stim_listB>",is talking to,
null,"<div style=""font-size:60px;"">+</div>",,html-keyboard-response,270,1357922,0.0-15.0-0.14,66497,List1B,black,man,,,,null,,,,
null,"<img src=""stim_listB/fight5.gif""</stim_listB>",,html-keyboard-response,271,1359927,0.0-15.0-1.14,66497,List1B,black,man,,,,null,,,,
null,is fighting,,html-keyboard-response,272,1361931,0.0-15.0-2.14,66497,List1B,black,man,,,,null,,,,
12524,,,survey-text,273,1374461,0.0-15.0-3.14,66497,List1B,black,man,,,,,"{""Q0"":""Mike is fighting Dave. ""}","<img src=""stim_listB/fight5.gif""</stim_listB>",is fighting,
null,"<div style=""font-size:60px;"">+</div>",,html-keyboard-response,274,1374966,0.0-15.0-0.15,66497,List1B,black,man,,,,null,,,,
null,"<img src=""stim_listB/touch4.gif""</stim_listB>",,html-keyboard-response,275,1376969,0.0-15.0-1.15,66497,List1B,black,man,,,,null,,,,
null,are touching each other,,html-keyboard-response,276,1378974,0.0-15.0-2.15,66497,List1B,black,man,,,,null,,,,
10935,,,survey-text,277,1389914,0.0-15.0-3.15,66497,List1B,black,man,,,,,"{""Q0"":""Ruth is touching Dave.""}","<img src=""stim_listB/touch4.gif""</stim_listB>",are touching each other,
null,"<div style=""font-size:60px;"">+</div>",,html-keyboard-response,278,1390419,0.0-15.0-0.16,66497,List1B,black,man,,,,null,,,,
null,"<img src=""stim_listB/marry7.gif""</stim_listB>",,html-keyboard-response,279,1392424,0.0-15.0-1.16,66497,List1B,black,man,,,,null,,,,
null,is marrying,,html-keyboard-response,280,1394428,0.0-15.0-2.16,66497,List1B,black,man,,,,null,,,,
13978,,,survey-text,281,1408412,0.0-15.0-3.16,66497,List1B,black,man,,,,,"{""Q0"":""Ruth is marrying Kate. ""}","<img src=""stim_listB/marry7.gif""</stim_listB>",is marrying,
null,"<div style=""font-size:60px;"">+</div>",,html-keyboard-response,282,1408917,0.0-15.0-0.17,66497,List1B,black,man,,,,null,,,,
null,"<img src=""stim_listB/shout8.gif""</stim_listB>",,html-keyboard-response,283,1410922,0.0-15.0-1.17,66497,List1B,black,man,,,,null,,,,
null,are shouting at each other,,html-keyboard-response,284,1412926,0.0-15.0-2.17,66497,List1B,black,man,,,,null,,,,
15769,,,survey-text,285,1428700,0.0-15.0-3.17,66497,List1B,black,man,,,,,"{""Q0"":""Jane and Kate are shouting at each other. ""}","<img src=""stim_listB/shout8.gif""</stim_listB>",are shouting at each other,
null,"<div style=""font-size:60px;"">+</div>",,html-keyboard-response,286,1429205,0.0-15.0-0.18,66497,List1B,black,man,,,,null,,,,
null,"<img src=""stim_listB/meet2.gif""</stim_listB>",,html-keyboard-response,287,1431209,0.0-15.0-1.18,66497,List1B,black,man,,,,null,,,,
null,are meeting each other,,html-keyboard-response,288,1433212,0.0-15.0-2.18,66497,List1B,black,man,,,,null,,,,
18507,,,survey-text,289,1451724,0.0-15.0-3.18,66497,List1B,black,man,,,,,"{""Q0"":""Fred and Kate are meeting. ""}","<img src=""stim_listB/meet2.gif""</stim_listB>",are meeting each other,
null,"<div style=""font-size:60px;"">+</div>",,html-keyboard-response,290,1452230,0.0-15.0-0.19,66497,List1B,black,man,,,,null,,,,
null,"<img src=""stim_listB/kiss3.gif""</stim_listB>",,html-keyboard-response,291,1454254,0.0-15.0-1.19,66497,List1B,black,man,,,,null,,,,
null,is kissing,,html-keyboard-response,292,1456257,0.0-15.0-2.19,66497,List1B,black,man,,,,null,,,,
11494,,,survey-text,293,1467756,0.0-15.0-3.19,66497,List1B,black,man,,,,,"{""Q0"":""Ruth is kissing Dave.""}","<img src=""stim_listB/kiss3.gif""</stim_listB>",is kissing,
2184,"<img src='img/portrait_matrix_list1.JPG' style='width:900px;height:500px;''></img><p>If you have memorised all the portraits and names and are ready to start, press Continue.</p><p><strong>Please note: Your memory of these faces will be tested 4 times during this experiment.</strong></p>",0,html-button-response,294,1469948,0.0-16.0-0.0,66497,List1B,black,man,,,,,,,,
3345,"<img src=""portrait/BM2.jpg""style=""width:400px;height:400px;""></img>",5,html-button-response,295,1474302,0.0-16.0-1.0,66497,List1B,black,man,,TRUE,5,,,,,
null,CORRECT,,html-keyboard-response,296,1475807,0.0-16.0-2.0-0.0,66497,List1B,black,man,,,,null,,,,
2933,"<img src=""portrait/WM1.jpg""style=""width:400px;height:400px;""></img>",6,html-button-response,297,1478751,0.0-16.0-4.0,66497,List1B,black,man,,TRUE,6,,,,,
null,CORRECT,,html-keyboard-response,298,1480256,0.0-16.0-5.0-0.0,66497,List1B,black,man,,,,null,,,,
2821,"<img src=""portrait/BW2.jpg""style=""width:400px;height:400px;""></img>",2,html-button-response,299,1483082,0.0-16.0-7.0,66497,List1B,black,man,,TRUE,2,,,,,
null,CORRECT,,html-keyboard-response,300,1484588,0.0-16.0-8.0-0.0,66497,List1B,black,man,,,,null,,,,
1353,"<img src=""portrait/WM2.jpg""style=""width:400px;height:400px;""></img>",7,html-button-response,301,1485947,0.0-16.0-10.0,66497,List1B,black,man,,TRUE,7,,,,,
null,CORRECT,,html-keyboard-response,302,1487453,0.0-16.0-11.0-0.0,66497,List1B,black,man,,,,null,,,,
2730,"<img src=""portrait/WW2.jpg""style=""width:400px;height:400px;""></img>",3,html-button-response,303,1490191,0.0-16.0-13.0,66497,List1B,black,man,,TRUE,3,,,,,
null,CORRECT,,html-keyboard-response,304,1491697,0.0-16.0-14.0-0.0,66497,List1B,black,man,,,,null,,,,
6655,"<img src=""portrait/BM1.jpg""style=""width:400px;height:400px;""></img>",4,html-button-response,305,1498363,0.0-16.0-16.0,66497,List1B,black,man,,TRUE,4,,,,,
null,CORRECT,,html-keyboard-response,306,1499870,0.0-16.0-17.0-0.0,66497,List1B,black,man,,,,null,,,,
2726,"<img src=""portrait/WW1.jpg""style=""width:400px;height:400px;""></img>",3,html-button-response,307,1502606,0.0-16.0-19.0,66497,List1B,black,man,,TRUE,1,,,,,
1691,"<img src=""portrait/WW1.jpg""style=""width:400px;height:400px;""></img>",1,html-button-response,308,1505309,0.0-16.0-21.0-0.0,66497,List1B,black,man,,FALSE,1,,,,,
null,CORRECT,,html-keyboard-response,309,1506815,0.0-16.0-21.0-1.0-0.0,66497,List1B,black,man,,,,null,,,,
5715,"<img src=""portrait/BW1.jpg""style=""width:400px;height:400px;""></img>",0,html-button-response,310,1512541,0.0-16.0-22.0,66497,List1B,black,man,,TRUE,0,,,,,
null,CORRECT,,html-keyboard-response,311,1514047,0.0-16.0-23.0-0.0,66497,List1B,black,man,,,,null,,,,
1853,<p>You got 7 out of 8 right first time. Press Continue.</p>,0,html-button-response,312,1515907,0.0-16.0-25.0,66497,List1B,black,man,,,,,,,,
1495,"As you did not score 100%, the memory game will repeat. Press Continue.",0,html-button-response,313,1518409,0.0-16.0-26.0-0.0,66497,List1B,black,man,,,,,,,,
1308,"<img src='img/portrait_matrix_list1.JPG' style='width:900px;height:500px;''></img><p>If you have memorised all the portraits and names and are ready to start, press Continue.</p><p><strong>Please note: Your memory of these faces will be tested 4 times during this experiment.</strong></p>",0,html-button-response,314,1520729,0.0-16.1-0.1,66497,List1B,black,man,,,,,,,,
2960,"<img src=""portrait/BM2.jpg""style=""width:400px;height:400px;""></img>",5,html-button-response,315,1524702,0.0-16.1-1.1,66497,List1B,black,man,,TRUE,5,,,,,
null,CORRECT,,html-keyboard-response,316,1526206,0.0-16.1-2.1-0.1,66497,List1B,black,man,,,,null,,,,
4033,"<img src=""portrait/WM1.jpg""style=""width:400px;height:400px;""></img>",6,html-button-response,317,1530245,0.0-16.1-4.1,66497,List1B,black,man,,TRUE,6,,,,,
null,CORRECT,,html-keyboard-response,318,1531752,0.0-16.1-5.1-0.1,66497,List1B,black,man,,,,null,,,,
3374,"<img src=""portrait/BW2.jpg""style=""width:400px;height:400px;""></img>",2,html-button-response,319,1535135,0.0-16.1-7.1,66497,List1B,black,man,,TRUE,2,,,,,
null,CORRECT,,html-keyboard-response,320,1536641,0.0-16.1-8.1-0.1,66497,List1B,black,man,,,,null,,,,
2658,"<img src=""portrait/WM2.jpg""style=""width:400px;height:400px;""></img>",7,html-button-response,321,1539309,0.0-16.1-10.1,66497,List1B,black,man,,TRUE,7,,,,,
null,CORRECT,,html-keyboard-response,322,1540814,0.0-16.1-11.1-0.1,66497,List1B,black,man,,,,null,,,,
2437,"<img src=""portrait/WW2.jpg""style=""width:400px;height:400px;""></img>",3,html-button-response,323,1543261,0.0-16.1-13.1,66497,List1B,black,man,,TRUE,3,,,,,
null,CORRECT,,html-keyboard-response,324,1544767,0.0-16.1-14.1-0.1,66497,List1B,black,man,,,,null,,,,
2606,"<img src=""portrait/BM1.jpg""style=""width:400px;height:400px;""></img>",4,html-button-response,325,1547389,0.0-16.1-16.1,66497,List1B,black,man,,TRUE,4,,,,,
null,CORRECT,,html-keyboard-response,326,1548893,0.0-16.1-17.1-0.1,66497,List1B,black,man,,,,null,,,,
3032,"<img src=""portrait/WW1.jpg""style=""width:400px;height:400px;""></img>",1,html-button-response,327,1551935,0.0-16.1-19.1,66497,List1B,black,man,,TRUE,1,,,,,
null,CORRECT,,html-keyboard-response,328,1553441,0.0-16.1-20.1-0.1,66497,List1B,black,man,,,,null,,,,
4528,"<img src=""portrait/BW1.jpg""style=""width:400px;height:400px;""></img>",0,html-button-response,329,1557977,0.0-16.1-22.1,66497,List1B,black,man,,TRUE,0,,,,,
null,CORRECT,,html-keyboard-response,330,1559482,0.0-16.1-23.1-0.1,66497,List1B,black,man,,,,null,,,,
940,<p>You got 8 out of 8 right first time. Press Continue.</p>,0,html-button-response,331,1560428,0.0-16.1-25.1,66497,List1B,black,man,,,,,,,,
null,"<div style=""font-size:60px;"">+</div>",,html-keyboard-response,332,1561936,0.0-17.0-0.0,66497,List1B,black,man,,,,null,,,,
null,"<img src=""stim_listB/talk7.gif""</stim_listB>",,html-keyboard-response,333,1563940,0.0-17.0-1.0,66497,List1B,black,man,,,,null,,,,
null,is talking to,,html-keyboard-response,334,1565943,0.0-17.0-2.0,66497,List1B,black,man,,,,null,,,,
23343,,,survey-text,335,1589292,0.0-17.0-3.0,66497,List1B,black,man,,,,,"{""Q0"":""Ruth is talking with Beth""}","<img src=""stim_listB/talk7.gif""</stim_listB>",is talking to,
null,"<div style=""font-size:60px;"">+</div>",,html-keyboard-response,336,1589798,0.0-17.0-0.1,66497,List1B,black,man,,,,null,,,,
null,"<img src=""stim_listB/shout2.gif""</stim_listB>",,html-keyboard-response,337,1591801,0.0-17.0-1.1,66497,List1B,black,man,,,,null,,,,
null,are shouting at each other,,html-keyboard-response,338,1593804,0.0-17.0-2.1,66497,List1B,black,man,,,,null,,,,
11001,,,survey-text,339,1604808,0.0-17.0-3.1,66497,List1B,black,man,,,,,"{""Q0"":""Mike is shouting with Beth.""}","<img src=""stim_listB/shout2.gif""</stim_listB>",are shouting at each other,
null,"<div style=""font-size:60px;"">+</div>",,html-keyboard-response,340,1605312,0.0-17.0-0.2,66497,List1B,black,man,,,,null,,,,
null,"<img src=""stim_listB/argue1.gif""</stim_listB>",,html-keyboard-response,341,1607315,0.0-17.0-1.2,66497,List1B,black,man,,,,null,,,,
null,is arguing with,,html-keyboard-response,342,1609319,0.0-17.0-2.2,66497,List1B,black,man,,,,null,,,,
16655,,,survey-text,343,1625979,0.0-17.0-3.2,66497,List1B,black,man,,,,,"{""Q0"":""Luke is arguing with Kate.""}","<img src=""stim_listB/argue1.gif""</stim_listB>",is arguing with,
null,"<div style=""font-size:60px;"">+</div>",,html-keyboard-response,344,1626485,0.0-17.0-0.3,66497,List1B,black,man,,,,null,,,,
null,"<img src=""stim_listB/kiss4.gif""</stim_listB>",,html-keyboard-response,345,1628490,0.0-17.0-1.3,66497,List1B,black,man,,,,null,,,,
null,are kissing each other,,html-keyboard-response,346,1630493,0.0-17.0-2.3,66497,List1B,black,man,,,,null,,,,
13272,,,survey-text,347,1643770,0.0-17.0-3.3,66497,List1B,black,man,,,,,"{""Q0"":""Jane and Dave are kissing each other. ""}","<img src=""stim_listB/kiss4.gif""</stim_listB>",are kissing each other,
null,"<div style=""font-size:60px;"">+</div>",,html-keyboard-response,348,1644274,0.0-17.0-0.4,66497,List1B,black,man,,,,null,,,,
null,"<img src=""stim_listB/meet3.gif""</stim_listB>",,html-keyboard-response,349,1646278,0.0-17.0-1.4,66497,List1B,black,man,,,,null,,,,
null,is meeting,,html-keyboard-response,350,1648282,0.0-17.0-2.4,66497,List1B,black,man,,,,null,,,,
17941,,,survey-text,351,1666232,0.0-17.0-3.4,66497,List1B,black,man,,,,,"{""Q0"":""Dave is meeting with Jane.""}","<img src=""stim_listB/meet3.gif""</stim_listB>",is meeting,
null,"<div style=""font-size:60px;"">+</div>",,html-keyboard-response,352,1666736,0.0-17.0-0.5,66497,List1B,black,man,,,,null,,,,
null,"<img src=""stim_listB/hug6.gif""</stim_listB>",,html-keyboard-response,353,1668741,0.0-17.0-1.5,66497,List1B,black,man,,,,null,,,,
null,are hugging each other,,html-keyboard-response,354,1670746,0.0-17.0-2.5,66497,List1B,black,man,,,,null,,,,
9417,,,survey-text,355,1680171,0.0-17.0-3.5,66497,List1B,black,man,,,,,"{""Q0"":""Dave is hugging Mike.""}","<img src=""stim_listB/hug6.gif""</stim_listB>",are hugging each other,
null,"<div style=""font-size:60px;"">+</div>",,html-keyboard-response,356,1680677,0.0-17.0-0.6,66497,List1B,black,man,,,,null,,,,
null,"<img src=""stim_listB/argue5.gif""</stim_listB>",,html-keyboard-response,357,1682682,0.0-17.0-1.6,66497,List1B,black,man,,,,null,,,,
null,is arguing with,,html-keyboard-response,358,1684686,0.0-17.0-2.6,66497,List1B,black,man,,,,null,,,,
15622,,,survey-text,359,1700312,0.0-17.0-3.6,66497,List1B,black,man,,,,,"{""Q0"":""Luke is arguing with Fred.""}","<img src=""stim_listB/argue5.gif""</stim_listB>",is arguing with,
null,"<div style=""font-size:60px;"">+</div>",,html-keyboard-response,360,1700816,0.0-17.0-0.7,66497,List1B,black,man,,,,null,,,,
null,"<img src=""stim_listB/meet7.gif""</stim_listB>",,html-keyboard-response,361,1702820,0.0-17.0-1.7,66497,List1B,black,man,,,,null,,,,
null,is meeting,,html-keyboard-response,362,1704823,0.0-17.0-2.7,66497,List1B,black,man,,,,null,,,,
20971,,,survey-text,363,1725800,0.0-17.0-3.7,66497,List1B,black,man,,,,,"{""Q0"":""Jane is meeting Beth.""}","<img src=""stim_listB/meet7.gif""</stim_listB>",is meeting,
null,"<div style=""font-size:60px;"">+</div>",,html-keyboard-response,364,1726305,0.0-17.0-0.8,66497,List1B,black,man,,,,null,,,,
null,"<img src=""stim_listB/talk4.gif""</stim_listB>",,html-keyboard-response,365,1728309,0.0-17.0-1.8,66497,List1B,black,man,,,,null,,,,
null,are talking to each other,,html-keyboard-response,366,1730313,0.0-17.0-2.8,66497,List1B,black,man,,,,null,,,,
13561,,,survey-text,367,1743879,0.0-17.0-3.8,66497,List1B,black,man,,,,,"{""Q0"":""Dave is arguing with Kate.""}","<img src=""stim_listB/talk4.gif""</stim_listB>",are talking to each other,
null,"<div style=""font-size:60px;"">+</div>",,html-keyboard-response,368,1744383,0.0-17.0-0.9,66497,List1B,black,man,,,,null,,,,
null,"<img src=""stim_listB/dance8.gif""</stim_listB>",,html-keyboard-response,369,1746387,0.0-17.0-1.9,66497,List1B,black,man,,,,null,,,,
null,are dancing with each other,,html-keyboard-response,370,1748391,0.0-17.0-2.9,66497,List1B,black,man,,,,null,,,,
24652,,,survey-text,371,1773049,0.0-17.0-3.9,66497,List1B,black,man,,,,,"{""Q0"":""Ruth and Kate are dancing with each other. ""}","<img src=""stim_listB/dance8.gif""</stim_listB>",are dancing with each other,
null,"<div style=""font-size:60px;"">+</div>",,html-keyboard-response,372,1773554,0.0-17.0-0.10,66497,List1B,black,man,,,,null,,,,
null,"<img src=""stim_listB/hug1.gif""</stim_listB>",,html-keyboard-response,373,1775558,0.0-17.0-1.10,66497,List1B,black,man,,,,null,,,,
null,is hugging,,html-keyboard-response,374,1777562,0.0-17.0-2.10,66497,List1B,black,man,,,,null,,,,
9386,,,survey-text,375,1786952,0.0-17.0-3.10,66497,List1B,black,man,,,,,"{""Q0"":""Fred and Beth are hugging.""}","<img src=""stim_listB/hug1.gif""</stim_listB>",is hugging,
null,"<div style=""font-size:60px;"">+</div>",,html-keyboard-response,376,1787458,0.0-17.0-0.11,66497,List1B,black,man,,,,null,,,,
null,"<img src=""stim_listB/dance1.gif""</stim_listB>",,html-keyboard-response,377,1789462,0.0-17.0-1.11,66497,List1B,black,man,,,,null,,,,
null,is dancing with,,html-keyboard-response,378,1791466,0.0-17.0-2.11,66497,List1B,black,man,,,,null,,,,
9986,,,survey-text,379,1801459,0.0-17.0-3.11,66497,List1B,black,man,,,,,"{""Q0"":""Fred is dancing with Beth.""}","<img src=""stim_listB/dance1.gif""</stim_listB>",is dancing with,
null,"<div style=""font-size:60px;"">+</div>",,html-keyboard-response,380,1801965,0.0-17.0-0.12,66497,List1B,black,man,,,,null,,,,
null,"<img src=""stim_listB/meet5.gif""</stim_listB>",,html-keyboard-response,381,1803972,0.0-17.0-1.12,66497,List1B,black,man,,,,null,,,,
null,is meeting,,html-keyboard-response,382,1805975,0.0-17.0-2.12,66497,List1B,black,man,,,,null,,,,
11755,,,survey-text,383,1817737,0.0-17.0-3.12,66497,List1B,black,man,,,,,"{""Q0"":""Dave is meeting Fred.""}","<img src=""stim_listB/meet5.gif""</stim_listB>",is meeting,
null,"<div style=""font-size:60px;"">+</div>",,html-keyboard-response,384,1818242,0.0-17.0-0.13,66497,List1B,black,man,,,,null,,,,
null,"<img src=""stim_listB/meet6.gif""</stim_listB>",,html-keyboard-response,385,1820247,0.0-17.0-1.13,66497,List1B,black,man,,,,null,,,,
null,are meeting each other,,html-keyboard-response,386,1822251,0.0-17.0-2.13,66497,List1B,black,man,,,,null,,,,
8424,,,survey-text,387,1830679,0.0-17.0-3.13,66497,List1B,black,man,,,,,"{""Q0"":""Luke is meeting Fred.""}","<img src=""stim_listB/meet6.gif""</stim_listB>",are meeting each other,
null,"<div style=""font-size:60px;"">+</div>",,html-keyboard-response,388,1831183,0.0-17.0-0.14,66497,List1B,black,man,,,,null,,,,
null,"<img src=""stim_listB/hug3.gif""</stim_listB>",,html-keyboard-response,389,1833188,0.0-17.0-1.14,66497,List1B,black,man,,,,null,,,,
null,is hugging,,html-keyboard-response,390,1835192,0.0-17.0-2.14,66497,List1B,black,man,,,,null,,,,
10313,,,survey-text,391,1845510,0.0-17.0-3.14,66497,List1B,black,man,,,,,"{""Q0"":""Ruth is hugging Luke.""}","<img src=""stim_listB/hug3.gif""</stim_listB>",is hugging,
null,"<div style=""font-size:60px;"">+</div>",,html-keyboard-response,392,1846014,0.0-17.0-0.15,66497,List1B,black,man,,,,null,,,,
null,"<img src=""stim_listB/argue7.gif""</stim_listB>",,html-keyboard-response,393,1848019,0.0-17.0-1.15,66497,List1B,black,man,,,,null,,,,
null,is arguing with,,html-keyboard-response,394,1850023,0.0-17.0-2.15,66497,List1B,black,man,,,,null,,,,
10875,,,survey-text,395,1860904,0.0-17.0-3.15,66497,List1B,black,man,,,,,"{""Q0"":""Kate is arguing with Beth.""}","<img src=""stim_listB/argue7.gif""</stim_listB>",is arguing with,
null,"<div style=""font-size:60px;"">+</div>",,html-keyboard-response,396,1861409,0.0-17.0-0.16,66497,List1B,black,man,,,,null,,,,
null,"<img src=""stim_listB/touch2.gif""</stim_listB>",,html-keyboard-response,397,1863413,0.0-17.0-1.16,66497,List1B,black,man,,,,null,,,,
null,are touching each other,,html-keyboard-response,398,1865418,0.0-17.0-2.16,66497,List1B,black,man,,,,null,,,,
12165,,,survey-text,399,1877588,0.0-17.0-3.16,66497,List1B,black,man,,,,,"{""Q0"":""Fred and Kate are touching each other.""}","<img src=""stim_listB/touch2.gif""</stim_listB>",are touching each other,
null,"<div style=""font-size:60px;"">+</div>",,html-keyboard-response,400,1878093,0.0-17.0-0.17,66497,List1B,black,man,,,,null,,,,
null,"<img src=""stim_listB/kiss2.gif""</stim_listB>",,html-keyboard-response,401,1880095,0.0-17.0-1.17,66497,List1B,black,man,,,,null,,,,
null,are kissing each other,,html-keyboard-response,402,1882098,0.0-17.0-2.17,66497,List1B,black,man,,,,null,,,,
17264,,,survey-text,403,1899366,0.0-17.0-3.17,66497,List1B,black,man,,,,,"{""Q0"":""Mike and Beth are kissing each other.""}","<img src=""stim_listB/kiss2.gif""</stim_listB>",are kissing each other,
null,"<div style=""font-size:60px;"">+</div>",,html-keyboard-response,404,1899870,0.0-17.0-0.18,66497,List1B,black,man,,,,null,,,,
null,"<img src=""stim_listB/talk5.gif""</stim_listB>",,html-keyboard-response,405,1901875,0.0-17.0-1.18,66497,List1B,black,man,,,,null,,,,
null,is talking to,,html-keyboard-response,406,1903879,0.0-17.0-2.18,66497,List1B,black,man,,,,null,,,,
13611,,,survey-text,407,1917493,0.0-17.0-3.18,66497,List1B,black,man,,,,,"{""Q0"":""Dave and Fred are talking to each other. ""}","<img src=""stim_listB/talk5.gif""</stim_listB>",is talking to,
null,"<div style=""font-size:60px;"">+</div>",,html-keyboard-response,408,1918017,0.0-17.0-0.19,66497,List1B,black,man,,,,null,,,,
null,"<img src=""stim_listB/kiss5.gif""</stim_listB>",,html-keyboard-response,409,1920021,0.0-17.0-1.19,66497,List1B,black,man,,,,null,,,,
null,is kissing,,html-keyboard-response,410,1922026,0.0-17.0-2.19,66497,List1B,black,man,,,,null,,,,
13008,,,survey-text,411,1935039,0.0-17.0-3.19,66497,List1B,black,man,,,,,"{""Q0"":""Luke and Fred are kissing. ""}","<img src=""stim_listB/kiss5.gif""</stim_listB>",is kissing,
1472,"<img src='img/portrait_matrix_list1.JPG' style='width:900px;height:500px;''></img><p>If you have memorised all the portraits and names and are ready to start, press Continue.</p><p><strong>Please note: Your memory of these faces will be tested 4 times during this experiment.</strong></p>",0,html-button-response,412,1936520,0.0-18.0-0.0,66497,List1B,black,man,,,,,,,,
4742,"<img src=""portrait/BW1.jpg""style=""width:400px;height:400px;""></img>",0,html-button-response,413,1942274,0.0-18.0-1.0,66497,List1B,black,man,,TRUE,0,,,,,
null,CORRECT,,html-keyboard-response,414,1943780,0.0-18.0-2.0-0.0,66497,List1B,black,man,,,,null,,,,
11242,"<img src=""portrait/WM1.jpg""style=""width:400px;height:400px;""></img>",6,html-button-response,415,1955030,0.0-18.0-4.0,66497,List1B,black,man,,TRUE,6,,,,,
null,CORRECT,,html-keyboard-response,416,1956537,0.0-18.0-5.0-0.0,66497,List1B,black,man,,,,null,,,,
2118,"<img src=""portrait/WM2.jpg""style=""width:400px;height:400px;""></img>",7,html-button-response,417,1958666,0.0-18.0-7.0,66497,List1B,black,man,,TRUE,7,,,,,
null,CORRECT,,html-keyboard-response,418,1960174,0.0-18.0-8.0-0.0,66497,List1B,black,man,,,,null,,,,
3604,"<img src=""portrait/WW1.jpg""style=""width:400px;height:400px;""></img>",1,html-button-response,419,1963785,0.0-18.0-10.0,66497,List1B,black,man,,TRUE,1,,,,,
null,CORRECT,,html-keyboard-response,420,1965291,0.0-18.0-11.0-0.0,66497,List1B,black,man,,,,null,,,,
4420,"<img src=""portrait/BM1.jpg""style=""width:400px;height:400px;""></img>",4,html-button-response,421,1969722,0.0-18.0-13.0,66497,List1B,black,man,,TRUE,4,,,,,
null,CORRECT,,html-keyboard-response,422,1971231,0.0-18.0-14.0-0.0,66497,List1B,black,man,,,,null,,,,
1919,"<img src=""portrait/WW2.jpg""style=""width:400px;height:400px;""></img>",3,html-button-response,423,1973161,0.0-18.0-16.0,66497,List1B,black,man,,TRUE,3,,,,,
null,CORRECT,,html-keyboard-response,424,1974667,0.0-18.0-17.0-0.0,66497,List1B,black,man,,,,null,,,,
2917,"<img src=""portrait/BM2.jpg""style=""width:400px;height:400px;""></img>",5,html-button-response,425,1977594,0.0-18.0-19.0,66497,List1B,black,man,,TRUE,5,,,,,
null,CORRECT,,html-keyboard-response,426,1979100,0.0-18.0-20.0-0.0,66497,List1B,black,man,,,,null,,,,
3621,"<img src=""portrait/BW2.jpg""style=""width:400px;height:400px;""></img>",2,html-button-response,427,1982729,0.0-18.0-22.0,66497,List1B,black,man,,TRUE,2,,,,,
null,CORRECT,,html-keyboard-response,428,1984234,0.0-18.0-23.0-0.0,66497,List1B,black,man,,,,null,,,,
1056,<p>You got 8 out of 8 right first time. Press Continue.</p>,0,html-button-response,429,1985303,0.0-18.0-25.0,66497,List1B,black,man,,,,,,,,
null,"<div style=""font-size:60px;"">+</div>",,html-keyboard-response,430,1986811,0.0-19.0-0.0,66497,List1B,black,man,,,,null,,,,
null,"<img src=""stim_listB/dance5.gif""</stim_listB>",,html-keyboard-response,431,1988817,0.0-19.0-1.0,66497,List1B,black,man,,,,null,,,,
null,is dancing with,,html-keyboard-response,432,1991778,0.0-19.0-2.0,66497,List1B,black,man,,,,null,,,,
20640,,,survey-text,433,2012423,0.0-19.0-3.0,66497,List1B,black,man,,,,,"{""Q0"":""Jane is dancing with Beth.""}","<img src=""stim_listB/dance5.gif""</stim_listB>",is dancing with,
null,"<div style=""font-size:60px;"">+</div>",,html-keyboard-response,434,2012930,0.0-19.0-0.1,66497,List1B,black,man,,,,null,,,,
null,"<img src=""stim_listB/shout5.gif""</stim_listB>",,html-keyboard-response,435,2014933,0.0-19.0-1.1,66497,List1B,black,man,,,,null,,,,
null,is shouting at,,html-keyboard-response,436,2016937,0.0-19.0-2.1,66497,List1B,black,man,,,,null,,,,
10536,,,survey-text,437,2027477,0.0-19.0-3.1,66497,List1B,black,man,,,,,"{""Q0"":""Luke is shouting at Fred.""}","<img src=""stim_listB/shout5.gif""</stim_listB>",is shouting at,
null,"<div style=""font-size:60px;"">+</div>",,html-keyboard-response,438,2027981,0.0-19.0-0.2,66497,List1B,black,man,,,,null,,,,
null,"<img src=""stim_listB/fight3.gif""</stim_listB>",,html-keyboard-response,439,2029986,0.0-19.0-1.2,66497,List1B,black,man,,,,null,,,,
null,is fighting,,html-keyboard-response,440,2031991,0.0-19.0-2.2,66497,List1B,black,man,,,,null,,,,
10377,,,survey-text,441,2042373,0.0-19.0-3.2,66497,List1B,black,man,,,,,"{""Q0"":""Jane is fighting at Dave.""}","<img src=""stim_listB/fight3.gif""</stim_listB>",is fighting,
null,"<div style=""font-size:60px;"">+</div>",,html-keyboard-response,442,2042877,0.0-19.0-0.3,66497,List1B,black,man,,,,null,,,,
null,"<img src=""stim_listB/shout7.gif""</stim_listB>",,html-keyboard-response,443,2044885,0.0-19.0-1.3,66497,List1B,black,man,,,,null,,,,
null,is shouting at,,html-keyboard-response,444,2046889,0.0-19.0-2.3,66497,List1B,black,man,,,,null,,,,
9224,,,survey-text,445,2056119,0.0-19.0-3.3,66497,List1B,black,man,,,,,"{""Q0"":""Dave is shouting at Beth.""}","<img src=""stim_listB/shout7.gif""</stim_listB>",is shouting at,
null,"<div style=""font-size:60px;"">+</div>",,html-keyboard-response,446,2056625,0.0-19.0-0.4,66497,List1B,black,man,,,,null,,,,
null,"<img src=""stim_listB/touch7.gif""</stim_listB>",,html-keyboard-response,447,2058632,0.0-19.0-1.4,66497,List1B,black,man,,,,null,,,,
null,is touching,,html-keyboard-response,448,2060636,0.0-19.0-2.4,66497,List1B,black,man,,,,null,,,,
25203,,,survey-text,449,2085844,0.0-19.0-3.4,66497,List1B,black,man,,,,,"{""Q0"":""Jane is touching Ruth.""}","<img src=""stim_listB/touch7.gif""</stim_listB>",is touching,
null,"<div style=""font-size:60px;"">+</div>",,html-keyboard-response,450,2086349,0.0-19.0-0.5,66497,List1B,black,man,,,,null,,,,
null,"<img src=""stim_listB/hug2.gif""</stim_listB>",,html-keyboard-response,451,2088353,0.0-19.0-1.5,66497,List1B,black,man,,,,null,,,,
null,are hugging each other,,html-keyboard-response,452,2090357,0.0-19.0-2.5,66497,List1B,black,man,,,,null,,,,
11349,,,survey-text,453,2101716,0.0-19.0-3.5,66497,List1B,black,man,,,,,"{""Q0"":""Mike and Beth are hugging each other.""}","<img src=""stim_listB/hug2.gif""</stim_listB>",are hugging each other,
null,"<div style=""font-size:60px;"">+</div>",,html-keyboard-response,454,2102220,0.0-19.0-0.6,66497,List1B,black,man,,,,null,,,,
null,"<img src=""stim_listB/touch6.gif""</stim_listB>",,html-keyboard-response,455,2104224,0.0-19.0-1.6,66497,List1B,black,man,,,,null,,,,
null,are touching each other,,html-keyboard-response,456,2106228,0.0-19.0-2.6,66497,List1B,black,man,,,,null,,,,
13196,,,survey-text,457,2119428,0.0-19.0-3.6,66497,List1B,black,man,,,,,"{""Q0"":""Luke is touching Beth.""}","<img src=""stim_listB/touch6.gif""</stim_listB>",are touching each other,
null,"<div style=""font-size:60px;"">+</div>",,html-keyboard-response,458,2119931,0.0-19.0-0.7,66497,List1B,black,man,,,,null,,,,
null,"<img src=""stim_listB/kiss8.gif""</stim_listB>",,html-keyboard-response,459,2121934,0.0-19.0-1.7,66497,List1B,black,man,,,,null,,,,
null,are kissing each other,,html-keyboard-response,460,2123938,0.0-19.0-2.7,66497,List1B,black,man,,,,null,,,,
21722,,,survey-text,461,2145664,0.0-19.0-3.7,66497,List1B,black,man,,,,,"{""Q0"":""Jane is kissing Beth.""}","<img src=""stim_listB/kiss8.gif""</stim_listB>",are kissing each other,
null,"<div style=""font-size:60px;"">+</div>",,html-keyboard-response,462,2146169,0.0-19.0-0.8,66497,List1B,black,man,,,,null,,,,
null,"<img src=""stim_listB/dance4.gif""</stim_listB>",,html-keyboard-response,463,2148173,0.0-19.0-1.8,66497,List1B,black,man,,,,null,,,,
null,are dancing with each other,,html-keyboard-response,464,2150176,0.0-19.0-2.8,66497,List1B,black,man,,,,null,,,,
14030,,,survey-text,465,2164212,0.0-19.0-3.8,66497,List1B,black,man,,,,,"{""Q0"":""Dave and Ruth are dancing with each other.""}","<img src=""stim_listB/dance4.gif""</stim_listB>",are dancing with each other,
null,"<div style=""font-size:60px;"">+</div>",,html-keyboard-response,466,2164715,0.0-19.0-0.9,66497,List1B,black,man,,,,null,,,,
null,"<img src=""stim_listB/argue8.gif""</stim_listB>",,html-keyboard-response,467,2166721,0.0-19.0-1.9,66497,List1B,black,man,,,,null,,,,
null,are arguing with each other,,html-keyboard-response,468,2168725,0.0-19.0-2.9,66497,List1B,black,man,,,,null,,,,
14013,,,survey-text,469,2182742,0.0-19.0-3.9,66497,List1B,black,man,,,,,"{""Q0"":""Jane and Ruth are pointing at each other.""}","<img src=""stim_listB/argue8.gif""</stim_listB>",are arguing with each other,
null,"<div style=""font-size:60px;"">+</div>",,html-keyboard-response,470,2183248,0.0-19.0-0.10,66497,List1B,black,man,,,,null,,,,
null,"<img src=""stim_listB/talk6.gif""</stim_listB>",,html-keyboard-response,471,2185252,0.0-19.0-1.10,66497,List1B,black,man,,,,null,,,,
null,are talking to each other,,html-keyboard-response,472,2187256,0.0-19.0-2.10,66497,List1B,black,man,,,,null,,,,
11192,,,survey-text,473,2198452,0.0-19.0-3.10,66497,List1B,black,man,,,,,"{""Q0"":""Mike and Luke are talking with each other.""}","<img src=""stim_listB/talk6.gif""</stim_listB>",are talking to each other,
null,"<div style=""font-size:60px;"">+</div>",,html-keyboard-response,474,2198957,0.0-19.0-0.11,66497,List1B,black,man,,,,null,,,,
null,"<img src=""stim_listB/marry4.gif""</stim_listB>",,html-keyboard-response,475,2200962,0.0-19.0-1.11,66497,List1B,black,man,,,,null,,,,
null,are marrying each other,,html-keyboard-response,476,2202965,0.0-19.0-2.11,66497,List1B,black,man,,,,null,,,,
12696,,,survey-text,477,2215667,0.0-19.0-3.11,66497,List1B,black,man,,,,,"{""Q0"":""Jane and Luke are marrying each other.""}","<img src=""stim_listB/marry4.gif""</stim_listB>",are marrying each other,
null,"<div style=""font-size:60px;"">+</div>",,html-keyboard-response,478,2216173,0.0-19.0-0.12,66497,List1B,black,man,,,,null,,,,
null,"<img src=""stim_listB/marry6.gif""</stim_listB>",,html-keyboard-response,479,2218177,0.0-19.0-1.12,66497,List1B,black,man,,,,null,,,,
null,are marrying each other,,html-keyboard-response,480,2220181,0.0-19.0-2.12,66497,List1B,black,man,,,,null,,,,
19323,,,survey-text,481,2239509,0.0-19.0-3.12,66497,List1B,black,man,,,,,"{""Q0"":""Dave and Fred are marrying each other.""}","<img src=""stim_listB/marry6.gif""</stim_listB>",are marrying each other,
null,"<div style=""font-size:60px;"">+</div>",,html-keyboard-response,482,2240014,0.0-19.0-0.13,66497,List1B,black,man,,,,null,,,,
null,"<img src=""stim_listB/meet4.gif""</stim_listB>",,html-keyboard-response,483,2242020,0.0-19.0-1.13,66497,List1B,black,man,,,,null,,,,
null,are meeting each other,,html-keyboard-response,484,2244024,0.0-19.0-2.13,66497,List1B,black,man,,,,null,,,,
18631,,,survey-text,485,2262661,0.0-19.0-3.13,66497,List1B,black,man,,,,,"{""Q0"":""Luke and Ruth are meeting each other. ""}","<img src=""stim_listB/meet4.gif""</stim_listB>",are meeting each other,
null,"<div style=""font-size:60px;"">+</div>",,html-keyboard-response,486,2263166,0.0-19.0-0.14,66497,List1B,black,man,,,,null,,,,
null,"<img src=""stim_listB/talk8.gif""</stim_listB>",,html-keyboard-response,487,2265171,0.0-19.0-1.14,66497,List1B,black,man,,,,null,,,,
null,are talking to each other,,html-keyboard-response,488,2267176,0.0-19.0-2.14,66497,List1B,black,man,,,,null,,,,
11238,,,survey-text,489,2278420,0.0-19.0-3.14,66497,List1B,black,man,,,,,"{""Q0"":""Kate and Ruth are talking to each other.""}","<img src=""stim_listB/talk8.gif""</stim_listB>",are talking to each other,
null,"<div style=""font-size:60px;"">+</div>",,html-keyboard-response,490,2278925,0.0-19.0-0.15,66497,List1B,black,man,,,,null,,,,
null,"<img src=""stim_listB/touch5.gif""</stim_listB>",,html-keyboard-response,491,2280930,0.0-19.0-1.15,66497,List1B,black,man,,,,null,,,,
null,is touching,,html-keyboard-response,492,2282933,0.0-19.0-2.15,66497,List1B,black,man,,,,null,,,,
12281,,,survey-text,493,2295220,0.0-19.0-3.15,66497,List1B,black,man,,,,,"{""Q0"":""Dave and Mike are touching.""}","<img src=""stim_listB/touch5.gif""</stim_listB>",is touching,
null,"<div style=""font-size:60px;"">+</div>",,html-keyboard-response,494,2295726,0.0-19.0-0.16,66497,List1B,black,man,,,,null,,,,
null,"<img src=""stim_listB/fight2.gif""</stim_listB>",,html-keyboard-response,495,2297731,0.0-19.0-1.16,66497,List1B,black,man,,,,null,,,,
null,are fighting each other,,html-keyboard-response,496,2299735,0.0-19.0-2.16,66497,List1B,black,man,,,,null,,,,
22582,,,survey-text,497,2322322,0.0-19.0-3.16,66497,List1B,black,man,,,,,"{""Q0"":""Ruth and Fred are fighting each other.""}","<img src=""stim_listB/fight2.gif""</stim_listB>",are fighting each other,
null,"<div style=""font-size:60px;"">+</div>",,html-keyboard-response,498,2322826,0.0-19.0-0.17,66497,List1B,black,man,,,,null,,,,
null,"<img src=""stim_listB/dance7.gif""</stim_listB>",,html-keyboard-response,499,2324831,0.0-19.0-1.17,66497,List1B,black,man,,,,null,,,,
null,is dancing with,,html-keyboard-response,500,2326834,0.0-19.0-2.17,66497,List1B,black,man,,,,null,,,,
47275,,,survey-text,501,2374116,0.0-19.0-3.17,66497,List1B,black,man,,,,,"{""Q0"":""Fred and Luke are dancing with each other.""}","<img src=""stim_listB/dance7.gif""</stim_listB>",is dancing with,
null,"<div style=""font-size:60px;"">+</div>",,html-keyboard-response,502,2374621,0.0-19.0-0.18,66497,List1B,black,man,,,,null,,,,
null,"<img src=""stim_listB/kiss1.gif""</stim_listB>",,html-keyboard-response,503,2376628,0.0-19.0-1.18,66497,List1B,black,man,,,,null,,,,
null,is kissing,,html-keyboard-response,504,2378632,0.0-19.0-2.18,66497,List1B,black,man,,,,null,,,,
16328,,,survey-text,505,2394978,0.0-19.0-3.18,66497,List1B,black,man,,,,,"{""Q0"":""Fred is kissing Ruth.""}","<img src=""stim_listB/kiss1.gif""</stim_listB>",is kissing,
null,"<div style=""font-size:60px;"">+</div>",,html-keyboard-response,506,2395481,0.0-19.0-0.19,66497,List1B,black,man,,,,null,,,,
null,"<img src=""stim_listB/meet8.gif""</stim_listB>",,html-keyboard-response,507,2397484,0.0-19.0-1.19,66497,List1B,black,man,,,,null,,,,
null,are meeting each other,,html-keyboard-response,508,2399487,0.0-19.0-2.19,66497,List1B,black,man,,,,null,,,,
11237,,,survey-text,509,2410732,0.0-19.0-3.19,66497,List1B,black,man,,,,,"{""Q0"":""Ruth and Beth are meeting each other.""}","<img src=""stim_listB/meet8.gif""</stim_listB>",are meeting each other,
1533,<p>Thank you for completing that task.</p><p>The final part of this session is a short questionnaire.</p><p>Press Continue.</p>,0,html-button-response,510,2412276,0.0-20.0,66497,List1B,black,man,,,,,,,,
24094,,,survey-text,511,2437381,0.0-21.0,66497,List1B,black,man,,,,,"{""Q0"":""30"",""Q1"":""English"",""Q2"":""English"",""Q3"":""United States"",""Q4"":""Black"",""Q5"":""Male""}",,,demographics
40996,,,survey-likert,512,2478429,0.0-22.0,66497,List1B,black,man,,,,,"{""Q0"":3,""Q1"":3,""Q2"":3,""Q3"":3,""Q4"":"""",""Q5"":1,""Q6"":5,""Q7"":3,""Q8"":3,""Q9"":5,""Q10"":5,""Q11"":3,""Q12"":3,""Q13"":5}",,,likert_race
22454,,,survey-likert,513,2500935,0.0-23.0,66497,List1B,black,man,,,,,"{""Q0"":3,""Q1"":3,""Q2"":3,""Q3"":5,""Q4"":5,""Q5"":"""",""Q6"":"""",""Q7"":5,""Q8"":5,""Q9"":5,""Q10"":3,""Q11"":3,""Q12"":3,""Q13"":4}",,,likert_gender
9185,,,survey-text,514,2510133,0.0-24.0,66497,List1B,black,man,,,,,"{""Q0"":""ccc""}",,,worker_id
3795,,,external-html,515,2514212,0.0-25.0,66497,List1B,black,man,debrief.html,,,,,,,
