rt,stimulus,button_pressed,trial_type,trial_index,time_elapsed,internal_node_id,subject,list,ppt_race,ppt_gender,url,first_guess,correct,key_press,responses,image_type,phrase_type,test_part
2613,Welcome to the experiment. Press Continue to begin.,0,html-button-response,0,2616,0.0-0.0,66909,List2A,black,woman,,,,,,,,
13935,,,external-html,1,17720,0.0-1.0,66909,List2A,black,woman,consent.html,,,,,,,
8314,"<p>On the next page, you will see portraits of 8 people and their names.</p><p>Your first task is to take a few minutes to memorise the names of these people.</p><p>You will have to recall their names during the rest of the experiment, so it is</p><p>essential that you try to memorise these people and their names as best as you can.</p><br><p><strong>You will then be tested on your memory of these names and portraits.</strong></p><br><p>The experiment will start after you have completed this memory test.</p><br><p>Ready?</p>",0,html-button-response,2,26038,0.0-2.0,66909,List2A,black,woman,,,,,,,,
61495,"<img src='img/portrait_matrix_list2.JPG' style='width:900px;height:500px;''></img><p>If you have memorised all the portraits and names and are ready to start, press Continue.</p><p><strong>Please note: Your memory of these faces will be tested 4 times during this experiment.</strong></p>",0,html-button-response,3,88540,0.0-3.0-0.0,66909,List2A,black,woman,,,,,,,,
6886,"<img src=""portrait/WM1.jpg""style=""width:400px;height:400px;""></img>",6,html-button-response,4,96434,0.0-3.0-1.0,66909,List2A,black,woman,,TRUE,6,,,,,
null,CORRECT,,html-keyboard-response,5,97944,0.0-3.0-2.0-0.0,66909,List2A,black,woman,,,,null,,,,
2345,"<img src=""portrait/BM2.jpg""style=""width:400px;height:400px;""></img>",5,html-button-response,6,100296,0.0-3.0-4.0,66909,List2A,black,woman,,TRUE,5,,,,,
null,CORRECT,,html-keyboard-response,7,101799,0.0-3.0-5.0-0.0,66909,List2A,black,woman,,,,null,,,,
7434,"<img src=""portrait/BM1.jpg""style=""width:400px;height:400px;""></img>",4,html-button-response,8,109240,0.0-3.0-7.0,66909,List2A,black,woman,,TRUE,4,,,,,
null,CORRECT,,html-keyboard-response,9,110743,0.0-3.0-8.0-0.0,66909,List2A,black,woman,,,,null,,,,
4145,"<img src=""portrait/WW1.jpg""style=""width:400px;height:400px;""></img>",1,html-button-response,10,114891,0.0-3.0-10.0,66909,List2A,black,woman,,TRUE,1,,,,,
null,CORRECT,,html-keyboard-response,11,116396,0.0-3.0-11.0-0.0,66909,List2A,black,woman,,,,null,,,,
3243,"<img src=""portrait/WW2.jpg""style=""width:400px;height:400px;""></img>",3,html-button-response,12,119644,0.0-3.0-13.0,66909,List2A,black,woman,,TRUE,3,,,,,
null,CORRECT,,html-keyboard-response,13,121149,0.0-3.0-14.0-0.0,66909,List2A,black,woman,,,,null,,,,
3772,"<img src=""portrait/BW2.jpg""style=""width:400px;height:400px;""></img>",2,html-button-response,14,124927,0.0-3.0-16.0,66909,List2A,black,woman,,TRUE,2,,,,,
null,CORRECT,,html-keyboard-response,15,126432,0.0-3.0-17.0-0.0,66909,List2A,black,woman,,,,null,,,,
1554,"<img src=""portrait/BW1.jpg""style=""width:400px;height:400px;""></img>",0,html-button-response,16,127992,0.0-3.0-19.0,66909,List2A,black,woman,,TRUE,0,,,,,
null,CORRECT,,html-keyboard-response,17,129496,0.0-3.0-20.0-0.0,66909,List2A,black,woman,,,,null,,,,
5377,"<img src=""portrait/WM2.jpg""style=""width:400px;height:400px;""></img>",7,html-button-response,18,134877,0.0-3.0-22.0,66909,List2A,black,woman,,TRUE,7,,,,,
null,CORRECT,,html-keyboard-response,19,136382,0.0-3.0-23.0-0.0,66909,List2A,black,woman,,,,null,,,,
1825,<p>You got 8 out of 8 right first time. Press Continue.</p>,0,html-button-response,20,138212,0.0-3.0-25.0,66909,List2A,black,woman,,,,,,,,
24308,"<p>In this experiment, you will view photographs of the people from the memory game interacting.</p><p>By using the <strong>exact</strong> phrase given <i>after</i> the photograph appears and recalling the correct names of the people in the photographs, form a sentence describing the interaction. You do not need to capitalise names.</p><p>Type your answer in the space provided. Please complete every sentence before moving onto the next trial.</p><p>You will only have a few seconds to memorise each given photograph and phrase before you can respond, so try your best to focus.</p><p>An example is given below. Press 'Continue' when you are ready.</p><img src='img/speaking_example_v2.jpg' style='width:800px;height:460px;''></img>",0,html-button-response,21,163527,0.0-4.0,66909,List2A,black,woman,,,,,,,,
1632,"<p>Before the experiment starts, you will watch two example trials. Press 'Continue'.</p>",0,html-button-response,22,166163,0.0-5.0,66909,List2A,black,woman,,,,,,,,
null,<img src='img/speaking_WW.gif'></img>,,html-keyboard-response,23,169173,0.0-6.0,66909,List2A,black,woman,,,,null,,,,
null,<p>is speaking to</p>,,html-keyboard-response,24,171178,0.0-7.0,66909,List2A,black,woman,,,,null,,,,
4728,<p><b>Answer:</b> jane is speaking to ruth</p>,0,html-button-response,25,175910,0.0-8.0,66909,List2A,black,woman,,,,,,,,
null,<img src='img/pointing_BM.gif'></img>,,html-keyboard-response,26,178915,0.0-9.0,66909,List2A,black,woman,,,,null,,,,
null,<p>are pointing at each other</p>,,html-keyboard-response,27,180919,0.0-10.0,66909,List2A,black,woman,,,,null,,,,
13260,<p><b>Answer:</b> fred and mike are pointing at each other</p>,0,html-button-response,28,194184,0.0-11.0,66909,List2A,black,woman,,,,,,,,
3725,"<p>Ready to start the experiment?</p><br><p><strong>Remember to describe the picture using a full sentence,</strong></p><p><strong> that combines the names of the people with the given phrase.</strong></p><p><strong> You do not need to capitalise names or use punctuation.</strong></p><br><p>Press 'Continue' to begin.</p>",0,html-button-response,29,198916,0.0-12.0,66909,List2A,black,woman,,,,,,,,
null,"<div style=""font-size:60px;"">+</div>",,html-keyboard-response,30,200421,0.0-13.0-0.0,66909,List2A,black,woman,,,,null,,,,
null,"<img src=""stim_listA/marry3.gif""</stim_listA>",,html-keyboard-response,31,202428,0.0-13.0-1.0,66909,List2A,black,woman,,,,null,,,,
null,is marrying,,html-keyboard-response,32,204432,0.0-13.0-2.0,66909,List2A,black,woman,,,,null,,,,
18569,,,survey-text,33,223009,0.0-13.0-3.0,66909,List2A,black,woman,,,,,"{""Q0"":""Mike is marrying Beth ""}","<img src=""stim_listA/marry3.gif""</stim_listA>",is marrying,
null,"<div style=""font-size:60px;"">+</div>",,html-keyboard-response,34,223513,0.0-13.0-0.1,66909,List2A,black,woman,,,,null,,,,
null,"<img src=""stim_listA/touch1.gif""</stim_listA>",,html-keyboard-response,35,225518,0.0-13.0-1.1,66909,List2A,black,woman,,,,null,,,,
null,is touching,,html-keyboard-response,36,227521,0.0-13.0-2.1,66909,List2A,black,woman,,,,null,,,,
11061,,,survey-text,37,238586,0.0-13.0-3.1,66909,List2A,black,woman,,,,,"{""Q0"":""Dave is touching Jane""}","<img src=""stim_listA/touch1.gif""</stim_listA>",is touching,
null,"<div style=""font-size:60px;"">+</div>",,html-keyboard-response,38,239093,0.0-13.0-0.2,66909,List2A,black,woman,,,,null,,,,
null,"<img src=""stim_listA/hug8.gif""</stim_listA>",,html-keyboard-response,39,241099,0.0-13.0-1.2,66909,List2A,black,woman,,,,null,,,,
null,are hugging each other,,html-keyboard-response,40,243107,0.0-13.0-2.2,66909,List2A,black,woman,,,,null,,,,
10376,,,survey-text,41,253488,0.0-13.0-3.2,66909,List2A,black,woman,,,,,"{""Q0"":""Katie is hugging Jane ""}","<img src=""stim_listA/hug8.gif""</stim_listA>",are hugging each other,
null,"<div style=""font-size:60px;"">+</div>",,html-keyboard-response,42,253992,0.0-13.0-0.3,66909,List2A,black,woman,,,,null,,,,
null,"<img src=""stim_listA/argue8.gif""</stim_listA>",,html-keyboard-response,43,255997,0.0-13.0-1.3,66909,List2A,black,woman,,,,null,,,,
null,are arguing with each other,,html-keyboard-response,44,258001,0.0-13.0-2.3,66909,List2A,black,woman,,,,null,,,,
17599,,,survey-text,45,275605,0.0-13.0-3.3,66909,List2A,black,woman,,,,,"{""Q0"":""Jane and Ruth are arguing with each other ""}","<img src=""stim_listA/argue8.gif""</stim_listA>",are arguing with each other,
null,"<div style=""font-size:60px;"">+</div>",,html-keyboard-response,46,276113,0.0-13.0-0.4,66909,List2A,black,woman,,,,null,,,,
null,"<img src=""stim_listA/touch8.gif""</stim_listA>",,html-keyboard-response,47,278117,0.0-13.0-1.4,66909,List2A,black,woman,,,,null,,,,
null,are touching each other,,html-keyboard-response,48,280121,0.0-13.0-2.4,66909,List2A,black,woman,,,,null,,,,
25949,,,survey-text,49,306082,0.0-13.0-3.4,66909,List2A,black,woman,,,,,"{""Q0"":""Beth and Jane ""}","<img src=""stim_listA/touch8.gif""</stim_listA>",are touching each other,
null,"<div style=""font-size:60px;"">+</div>",,html-keyboard-response,50,306586,0.0-13.0-0.5,66909,List2A,black,woman,,,,null,,,,
null,"<img src=""stim_listA/argue7.gif""</stim_listA>",,html-keyboard-response,51,308591,0.0-13.0-1.5,66909,List2A,black,woman,,,,null,,,,
null,is arguing with,,html-keyboard-response,52,310597,0.0-13.0-2.5,66909,List2A,black,woman,,,,null,,,,
24012,,,survey-text,53,334613,0.0-13.0-3.5,66909,List2A,black,woman,,,,,"{""Q0"":""Beth is arguing with Katie ""}","<img src=""stim_listA/argue7.gif""</stim_listA>",is arguing with,
null,"<div style=""font-size:60px;"">+</div>",,html-keyboard-response,54,335118,0.0-13.0-0.6,66909,List2A,black,woman,,,,null,,,,
null,"<img src=""stim_listA/meet8.gif""</stim_listA>",,html-keyboard-response,55,337123,0.0-13.0-1.6,66909,List2A,black,woman,,,,null,,,,
null,are meeting each other,,html-keyboard-response,56,339127,0.0-13.0-2.6,66909,List2A,black,woman,,,,null,,,,
18712,,,survey-text,57,357844,0.0-13.0-3.6,66909,List2A,black,woman,,,,,"{""Q0"":""Beth and Katie are meeting each other""}","<img src=""stim_listA/meet8.gif""</stim_listA>",are meeting each other,
null,"<div style=""font-size:60px;"">+</div>",,html-keyboard-response,58,358351,0.0-13.0-0.7,66909,List2A,black,woman,,,,null,,,,
null,"<img src=""stim_listA/fight2.gif""</stim_listA>",,html-keyboard-response,59,360354,0.0-13.0-1.7,66909,List2A,black,woman,,,,null,,,,
null,are fighting each other,,html-keyboard-response,60,362358,0.0-13.0-2.7,66909,List2A,black,woman,,,,null,,,,
16135,,,survey-text,61,378495,0.0-13.0-3.7,66909,List2A,black,woman,,,,,"{""Q0"":""Luke and Jane are fighting each other ""}","<img src=""stim_listA/fight2.gif""</stim_listA>",are fighting each other,
null,"<div style=""font-size:60px;"">+</div>",,html-keyboard-response,62,378998,0.0-13.0-0.8,66909,List2A,black,woman,,,,null,,,,
null,"<img src=""stim_listA/kiss4.gif""</stim_listA>",,html-keyboard-response,63,381003,0.0-13.0-1.8,66909,List2A,black,woman,,,,null,,,,
null,are kissing each other,,html-keyboard-response,64,383007,0.0-13.0-2.8,66909,List2A,black,woman,,,,null,,,,
15849,,,survey-text,65,398861,0.0-13.0-3.8,66909,List2A,black,woman,,,,,"{""Q0"":""Mike and Kate are kissing each other ""}","<img src=""stim_listA/kiss4.gif""</stim_listA>",are kissing each other,
null,"<div style=""font-size:60px;"">+</div>",,html-keyboard-response,66,399366,0.0-13.0-0.9,66909,List2A,black,woman,,,,null,,,,
null,"<img src=""stim_listA/fight3.gif""</stim_listA>",,html-keyboard-response,67,401369,0.0-13.0-1.9,66909,List2A,black,woman,,,,null,,,,
null,is fighting,,html-keyboard-response,68,403372,0.0-13.0-2.9,66909,List2A,black,woman,,,,null,,,,
9046,,,survey-text,69,412422,0.0-13.0-3.9,66909,List2A,black,woman,,,,,"{""Q0"":""I don’t know ""}","<img src=""stim_listA/fight3.gif""</stim_listA>",is fighting,
null,"<div style=""font-size:60px;"">+</div>",,html-keyboard-response,70,412928,0.0-13.0-0.10,66909,List2A,black,woman,,,,null,,,,
null,"<img src=""stim_listA/shout5.gif""</stim_listA>",,html-keyboard-response,71,414934,0.0-13.0-1.10,66909,List2A,black,woman,,,,null,,,,
null,is shouting at,,html-keyboard-response,72,416938,0.0-13.0-2.10,66909,List2A,black,woman,,,,null,,,,
11862,,,survey-text,73,428804,0.0-13.0-3.10,66909,List2A,black,woman,,,,,"{""Q0"":""Fred and Luke are shouting at each other ""}","<img src=""stim_listA/shout5.gif""</stim_listA>",is shouting at,
null,"<div style=""font-size:60px;"">+</div>",,html-keyboard-response,74,429308,0.0-13.0-0.11,66909,List2A,black,woman,,,,null,,,,
null,"<img src=""stim_listA/argue1.gif""</stim_listA>",,html-keyboard-response,75,431312,0.0-13.0-1.11,66909,List2A,black,woman,,,,null,,,,
null,is arguing with,,html-keyboard-response,76,433314,0.0-13.0-2.11,66909,List2A,black,woman,,,,null,,,,
17484,,,survey-text,77,450803,0.0-13.0-3.11,66909,List2A,black,woman,,,,,"{""Q0"":""Luke is arguing with Beth""}","<img src=""stim_listA/argue1.gif""</stim_listA>",is arguing with,
null,"<div style=""font-size:60px;"">+</div>",,html-keyboard-response,78,451306,0.0-13.0-0.12,66909,List2A,black,woman,,,,null,,,,
null,"<img src=""stim_listA/hug7.gif""</stim_listA>",,html-keyboard-response,79,453310,0.0-13.0-1.12,66909,List2A,black,woman,,,,null,,,,
null,is hugging,,html-keyboard-response,80,455314,0.0-13.0-2.12,66909,List2A,black,woman,,,,null,,,,
20819,,,survey-text,81,476137,0.0-13.0-3.12,66909,List2A,black,woman,,,,,"{""Q0"":""Jane and Beth are hugging ""}","<img src=""stim_listA/hug7.gif""</stim_listA>",is hugging,
null,"<div style=""font-size:60px;"">+</div>",,html-keyboard-response,82,476641,0.0-13.0-0.13,66909,List2A,black,woman,,,,null,,,,
null,"<img src=""stim_listA/meet3.gif""</stim_listA>",,html-keyboard-response,83,478645,0.0-13.0-1.13,66909,List2A,black,woman,,,,null,,,,
null,is meeting,,html-keyboard-response,84,480648,0.0-13.0-2.13,66909,List2A,black,woman,,,,null,,,,
7655,,,survey-text,85,488307,0.0-13.0-3.13,66909,List2A,black,woman,,,,,"{""Q0"":""Mike is meeting Kate ""}","<img src=""stim_listA/meet3.gif""</stim_listA>",is meeting,
null,"<div style=""font-size:60px;"">+</div>",,html-keyboard-response,86,488811,0.0-13.0-0.14,66909,List2A,black,woman,,,,null,,,,
null,"<img src=""stim_listA/hug4.gif""</stim_listA>",,html-keyboard-response,87,490816,0.0-13.0-1.14,66909,List2A,black,woman,,,,null,,,,
null,are hugging each other,,html-keyboard-response,88,492820,0.0-13.0-2.14,66909,List2A,black,woman,,,,null,,,,
8417,,,survey-text,89,501241,0.0-13.0-3.14,66909,List2A,black,woman,,,,,"{""Q0"":""Mike and Kate are hugging each other ""}","<img src=""stim_listA/hug4.gif""</stim_listA>",are hugging each other,
null,"<div style=""font-size:60px;"">+</div>",,html-keyboard-response,90,501743,0.0-13.0-0.15,66909,List2A,black,woman,,,,null,,,,
null,"<img src=""stim_listA/meet2.gif""</stim_listA>",,html-keyboard-response,91,503747,0.0-13.0-1.15,66909,List2A,black,woman,,,,null,,,,
null,are meeting each other,,html-keyboard-response,92,505751,0.0-13.0-2.15,66909,List2A,black,woman,,,,null,,,,
14328,,,survey-text,93,520084,0.0-13.0-3.15,66909,List2A,black,woman,,,,,"{""Q0"":""Jane and Dave are meeting each other ""}","<img src=""stim_listA/meet2.gif""</stim_listA>",are meeting each other,
null,"<div style=""font-size:60px;"">+</div>",,html-keyboard-response,94,520586,0.0-13.0-0.16,66909,List2A,black,woman,,,,null,,,,
null,"<img src=""stim_listA/dance8.gif""</stim_listA>",,html-keyboard-response,95,522590,0.0-13.0-1.16,66909,List2A,black,woman,,,,null,,,,
null,are dancing with each other,,html-keyboard-response,96,524594,0.0-13.0-2.16,66909,List2A,black,woman,,,,null,,,,
42399,,,survey-text,97,566997,0.0-13.0-3.16,66909,List2A,black,woman,,,,,"{""Q0"":""I don’t know ""}","<img src=""stim_listA/dance8.gif""</stim_listA>",are dancing with each other,
null,"<div style=""font-size:60px;"">+</div>",,html-keyboard-response,98,567500,0.0-13.0-0.17,66909,List2A,black,woman,,,,null,,,,
null,"<img src=""stim_listA/hug6.gif""</stim_listA>",,html-keyboard-response,99,569504,0.0-13.0-1.17,66909,List2A,black,woman,,,,null,,,,
null,are hugging each other,,html-keyboard-response,100,571508,0.0-13.0-2.17,66909,List2A,black,woman,,,,null,,,,
10298,,,survey-text,101,581810,0.0-13.0-3.17,66909,List2A,black,woman,,,,,"{""Q0"":""Mike and Luke are hugging each other""}","<img src=""stim_listA/hug6.gif""</stim_listA>",are hugging each other,
null,"<div style=""font-size:60px;"">+</div>",,html-keyboard-response,102,582314,0.0-13.0-0.18,66909,List2A,black,woman,,,,null,,,,
null,"<img src=""stim_listA/touch4.gif""</stim_listA>",,html-keyboard-response,103,584317,0.0-13.0-1.18,66909,List2A,black,woman,,,,null,,,,
null,are touching each other,,html-keyboard-response,104,586322,0.0-13.0-2.18,66909,List2A,black,woman,,,,null,,,,
29116,,,survey-text,105,615443,0.0-13.0-3.18,66909,List2A,black,woman,,,,,"{""Q0"":""Beth and Fred are touching each other ""}","<img src=""stim_listA/touch4.gif""</stim_listA>",are touching each other,
null,"<div style=""font-size:60px;"">+</div>",,html-keyboard-response,106,615945,0.0-13.0-0.19,66909,List2A,black,woman,,,,null,,,,
null,"<img src=""stim_listA/shout2.gif""</stim_listA>",,html-keyboard-response,107,617948,0.0-13.0-1.19,66909,List2A,black,woman,,,,null,,,,
null,are shouting at each other,,html-keyboard-response,108,619952,0.0-13.0-2.19,66909,List2A,black,woman,,,,null,,,,
13683,,,survey-text,109,633639,0.0-13.0-3.19,66909,List2A,black,woman,,,,,"{""Q0"":""Jane and Luke are shouting at each other ""}","<img src=""stim_listA/shout2.gif""</stim_listA>",are shouting at each other,
53189,"<img src='img/portrait_matrix_list2.JPG' style='width:900px;height:500px;''></img><p>If you have memorised all the portraits and names and are ready to start, press Continue.</p><p><strong>Please note: Your memory of these faces will be tested 4 times during this experiment.</strong></p>",0,html-button-response,110,686831,0.0-14.0-0.0,66909,List2A,black,woman,,,,,,,,
35216,"<img src=""portrait/BW1.jpg""style=""width:400px;height:400px;""></img>",0,html-button-response,111,723056,0.0-14.0-1.0,66909,List2A,black,woman,,TRUE,0,,,,,
null,CORRECT,,html-keyboard-response,112,724560,0.0-14.0-2.0-0.0,66909,List2A,black,woman,,,,null,,,,
3065,"<img src=""portrait/BW2.jpg""style=""width:400px;height:400px;""></img>",2,html-button-response,113,727633,0.0-14.0-4.0,66909,List2A,black,woman,,TRUE,2,,,,,
null,CORRECT,,html-keyboard-response,114,729137,0.0-14.0-5.0-0.0,66909,List2A,black,woman,,,,null,,,,
12102,"<img src=""portrait/BM1.jpg""style=""width:400px;height:400px;""></img>",4,html-button-response,115,741247,0.0-14.0-7.0,66909,List2A,black,woman,,TRUE,4,,,,,
null,CORRECT,,html-keyboard-response,116,742752,0.0-14.0-8.0-0.0,66909,List2A,black,woman,,,,null,,,,
2252,"<img src=""portrait/BM2.jpg""style=""width:400px;height:400px;""></img>",5,html-button-response,117,745013,0.0-14.0-10.0,66909,List2A,black,woman,,TRUE,5,,,,,
null,CORRECT,,html-keyboard-response,118,746517,0.0-14.0-11.0-0.0,66909,List2A,black,woman,,,,null,,,,
6159,"<img src=""portrait/WW2.jpg""style=""width:400px;height:400px;""></img>",3,html-button-response,119,752684,0.0-14.0-13.0,66909,List2A,black,woman,,TRUE,3,,,,,
null,CORRECT,,html-keyboard-response,120,754187,0.0-14.0-14.0-0.0,66909,List2A,black,woman,,,,null,,,,
9907,"<img src=""portrait/WM1.jpg""style=""width:400px;height:400px;""></img>",6,html-button-response,121,764103,0.0-14.0-16.0,66909,List2A,black,woman,,TRUE,6,,,,,
null,CORRECT,,html-keyboard-response,122,765607,0.0-14.0-17.0-0.0,66909,List2A,black,woman,,,,null,,,,
4901,"<img src=""portrait/WW1.jpg""style=""width:400px;height:400px;""></img>",1,html-button-response,123,770517,0.0-14.0-19.0,66909,List2A,black,woman,,TRUE,1,,,,,
null,CORRECT,,html-keyboard-response,124,772021,0.0-14.0-20.0-0.0,66909,List2A,black,woman,,,,null,,,,
1549,"<img src=""portrait/WM2.jpg""style=""width:400px;height:400px;""></img>",7,html-button-response,125,773577,0.0-14.0-22.0,66909,List2A,black,woman,,TRUE,7,,,,,
null,CORRECT,,html-keyboard-response,126,775081,0.0-14.0-23.0-0.0,66909,List2A,black,woman,,,,null,,,,
1534,<p>You got 8 out of 8 right first time. Press Continue.</p>,0,html-button-response,127,776621,0.0-14.0-25.0,66909,List2A,black,woman,,,,,,,,
null,"<div style=""font-size:60px;"">+</div>",,html-keyboard-response,128,778128,0.0-15.0-0.0,66909,List2A,black,woman,,,,null,,,,
null,"<img src=""stim_listA/touch2.gif""</stim_listA>",,html-keyboard-response,129,780132,0.0-15.0-1.0,66909,List2A,black,woman,,,,null,,,,
null,are touching each other,,html-keyboard-response,130,782137,0.0-15.0-2.0,66909,List2A,black,woman,,,,null,,,,
39471,,,survey-text,131,821612,0.0-15.0-3.0,66909,List2A,black,woman,,,,,"{""Q0"":""Luke is touching Ruth ""}","<img src=""stim_listA/touch2.gif""</stim_listA>",are touching each other,
null,"<div style=""font-size:60px;"">+</div>",,html-keyboard-response,132,822116,0.0-15.0-0.1,66909,List2A,black,woman,,,,null,,,,
null,"<img src=""stim_listA/dance3.gif""</stim_listA>",,html-keyboard-response,133,824121,0.0-15.0-1.1,66909,List2A,black,woman,,,,null,,,,
null,is dancing with,,html-keyboard-response,134,826124,0.0-15.0-2.1,66909,List2A,black,woman,,,,null,,,,
10137,,,survey-text,135,836265,0.0-15.0-3.1,66909,List2A,black,woman,,,,,"{""Q0"":""Kate is dancing with Fred ""}","<img src=""stim_listA/dance3.gif""</stim_listA>",is dancing with,
null,"<div style=""font-size:60px;"">+</div>",,html-keyboard-response,136,836769,0.0-15.0-0.2,66909,List2A,black,woman,,,,null,,,,
null,"<img src=""stim_listA/kiss2.gif""</stim_listA>",,html-keyboard-response,137,838773,0.0-15.0-1.2,66909,List2A,black,woman,,,,null,,,,
null,are kissing each other,,html-keyboard-response,138,840777,0.0-15.0-2.2,66909,List2A,black,woman,,,,null,,,,
15427,,,survey-text,139,856208,0.0-15.0-3.2,66909,List2A,black,woman,,,,,"{""Q0"":""Jane is kissing Dave ""}","<img src=""stim_listA/kiss2.gif""</stim_listA>",are kissing each other,
null,"<div style=""font-size:60px;"">+</div>",,html-keyboard-response,140,856712,0.0-15.0-0.3,66909,List2A,black,woman,,,,null,,,,
null,"<img src=""stim_listA/hug3.gif""</stim_listA>",,html-keyboard-response,141,858717,0.0-15.0-1.3,66909,List2A,black,woman,,,,null,,,,
null,is hugging,,html-keyboard-response,142,860719,0.0-15.0-2.3,66909,List2A,black,woman,,,,null,,,,
32712,,,survey-text,143,893435,0.0-15.0-3.3,66909,List2A,black,woman,,,,,"{""Q0"":""Jane is hugging Luke""}","<img src=""stim_listA/hug3.gif""</stim_listA>",is hugging,
null,"<div style=""font-size:60px;"">+</div>",,html-keyboard-response,144,893938,0.0-15.0-0.4,66909,List2A,black,woman,,,,null,,,,
null,"<img src=""stim_listA/marry4.gif""</stim_listA>",,html-keyboard-response,145,895942,0.0-15.0-1.4,66909,List2A,black,woman,,,,null,,,,
null,are marrying each other,,html-keyboard-response,146,897946,0.0-15.0-2.4,66909,List2A,black,woman,,,,null,,,,
19013,,,survey-text,147,916963,0.0-15.0-3.4,66909,List2A,black,woman,,,,,"{""Q0"":""Kate and Dave are marrying each other ""}","<img src=""stim_listA/marry4.gif""</stim_listA>",are marrying each other,
null,"<div style=""font-size:60px;"">+</div>",,html-keyboard-response,148,917468,0.0-15.0-0.5,66909,List2A,black,woman,,,,null,,,,
null,"<img src=""stim_listA/argue2.gif""</stim_listA>",,html-keyboard-response,149,919473,0.0-15.0-1.5,66909,List2A,black,woman,,,,null,,,,
null,are arguing with each other,,html-keyboard-response,150,921477,0.0-15.0-2.5,66909,List2A,black,woman,,,,null,,,,
24169,,,survey-text,151,945650,0.0-15.0-3.5,66909,List2A,black,woman,,,,,"{""Q0"":""Jane and Luke are arguing with each other ""}","<img src=""stim_listA/argue2.gif""</stim_listA>",are arguing with each other,
null,"<div style=""font-size:60px;"">+</div>",,html-keyboard-response,152,946154,0.0-15.0-0.6,66909,List2A,black,woman,,,,null,,,,
null,"<img src=""stim_listA/talk7.gif""</stim_listA>",,html-keyboard-response,153,948160,0.0-15.0-1.6,66909,List2A,black,woman,,,,null,,,,
null,is talking to,,html-keyboard-response,154,950163,0.0-15.0-2.6,66909,List2A,black,woman,,,,null,,,,
7816,,,survey-text,155,957982,0.0-15.0-3.6,66909,List2A,black,woman,,,,,"{""Q0"":""Don’t know ""}","<img src=""stim_listA/talk7.gif""</stim_listA>",is talking to,
null,"<div style=""font-size:60px;"">+</div>",,html-keyboard-response,156,958489,0.0-15.0-0.7,66909,List2A,black,woman,,,,null,,,,
null,"<img src=""stim_listA/talk6.gif""</stim_listA>",,html-keyboard-response,157,960492,0.0-15.0-1.7,66909,List2A,black,woman,,,,null,,,,
null,are talking to each other,,html-keyboard-response,158,962496,0.0-15.0-2.7,66909,List2A,black,woman,,,,null,,,,
10865,,,survey-text,159,973365,0.0-15.0-3.7,66909,List2A,black,woman,,,,,"{""Q0"":""Mike and Dave are talking to each other ""}","<img src=""stim_listA/talk6.gif""</stim_listA>",are talking to each other,
null,"<div style=""font-size:60px;"">+</div>",,html-keyboard-response,160,973869,0.0-15.0-0.8,66909,List2A,black,woman,,,,null,,,,
null,"<img src=""stim_listA/marry8.gif""</stim_listA>",,html-keyboard-response,161,975874,0.0-15.0-1.8,66909,List2A,black,woman,,,,null,,,,
null,are marrying each other,,html-keyboard-response,162,977879,0.0-15.0-2.8,66909,List2A,black,woman,,,,null,,,,
9352,,,survey-text,163,987234,0.0-15.0-3.8,66909,List2A,black,woman,,,,,"{""Q0"":""Kate and Ruth are marrying each other ""}","<img src=""stim_listA/marry8.gif""</stim_listA>",are marrying each other,
null,"<div style=""font-size:60px;"">+</div>",,html-keyboard-response,164,987738,0.0-15.0-0.9,66909,List2A,black,woman,,,,null,,,,
null,"<img src=""stim_listA/talk8.gif""</stim_listA>",,html-keyboard-response,165,989743,0.0-15.0-1.9,66909,List2A,black,woman,,,,null,,,,
null,are talking to each other,,html-keyboard-response,166,991747,0.0-15.0-2.9,66909,List2A,black,woman,,,,null,,,,
8783,,,survey-text,167,1000534,0.0-15.0-3.9,66909,List2A,black,woman,,,,,"{""Q0"":""Beth and Jane are talking to each other ""}","<img src=""stim_listA/talk8.gif""</stim_listA>",are talking to each other,
null,"<div style=""font-size:60px;"">+</div>",,html-keyboard-response,168,1001038,0.0-15.0-0.10,66909,List2A,black,woman,,,,null,,,,
null,"<img src=""stim_listA/dance1.gif""</stim_listA>",,html-keyboard-response,169,1003043,0.0-15.0-1.10,66909,List2A,black,woman,,,,null,,,,
null,is dancing with,,html-keyboard-response,170,1005047,0.0-15.0-2.10,66909,List2A,black,woman,,,,null,,,,
75821,,,survey-text,171,1080871,0.0-15.0-3.10,66909,List2A,black,woman,,,,,"{""Q0"":""Jane is dancing with Luke ""}","<img src=""stim_listA/dance1.gif""</stim_listA>",is dancing with,
null,"<div style=""font-size:60px;"">+</div>",,html-keyboard-response,172,1081382,0.0-15.0-0.11,66909,List2A,black,woman,,,,null,,,,
null,"<img src=""stim_listA/talk1.gif""</stim_listA>",,html-keyboard-response,173,1083385,0.0-15.0-1.11,66909,List2A,black,woman,,,,null,,,,
null,is talking to,,html-keyboard-response,174,1085387,0.0-15.0-2.11,66909,List2A,black,woman,,,,null,,,,
33073,,,survey-text,175,1118463,0.0-15.0-3.11,66909,List2A,black,woman,,,,,"{""Q0"":""Luke is talking to Jane ""}","<img src=""stim_listA/talk1.gif""</stim_listA>",is talking to,
null,"<div style=""font-size:60px;"">+</div>",,html-keyboard-response,176,1118969,0.0-15.0-0.12,66909,List2A,black,woman,,,,null,,,,
null,"<img src=""stim_listA/touch6.gif""</stim_listA>",,html-keyboard-response,177,1120975,0.0-15.0-1.12,66909,List2A,black,woman,,,,null,,,,
null,are touching each other,,html-keyboard-response,178,1122979,0.0-15.0-2.12,66909,List2A,black,woman,,,,null,,,,
8980,,,survey-text,179,1131964,0.0-15.0-3.12,66909,List2A,black,woman,,,,,"{""Q0"":""Fred and Luke are touching each other ""}","<img src=""stim_listA/touch6.gif""</stim_listA>",are touching each other,
null,"<div style=""font-size:60px;"">+</div>",,html-keyboard-response,180,1132476,0.0-15.0-0.13,66909,List2A,black,woman,,,,null,,,,
null,"<img src=""stim_listA/argue6.gif""</stim_listA>",,html-keyboard-response,181,1134479,0.0-15.0-1.13,66909,List2A,black,woman,,,,null,,,,
null,are arguing with each other,,html-keyboard-response,182,1136483,0.0-15.0-2.13,66909,List2A,black,woman,,,,null,,,,
10210,,,survey-text,183,1146697,0.0-15.0-3.13,66909,List2A,black,woman,,,,,"{""Q0"":""Mike and Luke are arguing with each other ""}","<img src=""stim_listA/argue6.gif""</stim_listA>",are arguing with each other,
null,"<div style=""font-size:60px;"">+</div>",,html-keyboard-response,184,1147202,0.0-15.0-0.14,66909,List2A,black,woman,,,,null,,,,
null,"<img src=""stim_listA/touch7.gif""</stim_listA>",,html-keyboard-response,185,1149208,0.0-15.0-1.14,66909,List2A,black,woman,,,,null,,,,
null,is touching,,html-keyboard-response,186,1151213,0.0-15.0-2.14,66909,List2A,black,woman,,,,null,,,,
26680,,,survey-text,187,1177897,0.0-15.0-3.14,66909,List2A,black,woman,,,,,"{""Q0"":""Kate and Jane are touching each other ""}","<img src=""stim_listA/touch7.gif""</stim_listA>",is touching,
null,"<div style=""font-size:60px;"">+</div>",,html-keyboard-response,188,1178402,0.0-15.0-0.15,66909,List2A,black,woman,,,,null,,,,
null,"<img src=""stim_listA/shout4.gif""</stim_listA>",,html-keyboard-response,189,1180408,0.0-15.0-1.15,66909,List2A,black,woman,,,,null,,,,
null,are shouting at each other,,html-keyboard-response,190,1182412,0.0-15.0-2.15,66909,List2A,black,woman,,,,null,,,,
10641,,,survey-text,191,1193057,0.0-15.0-3.15,66909,List2A,black,woman,,,,,"{""Q0"":""Mike and Kate are shouting at each other ""}","<img src=""stim_listA/shout4.gif""</stim_listA>",are shouting at each other,
null,"<div style=""font-size:60px;"">+</div>",,html-keyboard-response,192,1193561,0.0-15.0-0.16,66909,List2A,black,woman,,,,null,,,,
null,"<img src=""stim_listA/kiss6.gif""</stim_listA>",,html-keyboard-response,193,1195565,0.0-15.0-1.16,66909,List2A,black,woman,,,,null,,,,
null,are kissing each other,,html-keyboard-response,194,1197570,0.0-15.0-2.16,66909,List2A,black,woman,,,,null,,,,
8261,,,survey-text,195,1205835,0.0-15.0-3.16,66909,List2A,black,woman,,,,,"{""Q0"":""Mike and Dave are kissing each other ""}","<img src=""stim_listA/kiss6.gif""</stim_listA>",are kissing each other,
null,"<div style=""font-size:60px;"">+</div>",,html-keyboard-response,196,1206339,0.0-15.0-0.17,66909,List2A,black,woman,,,,null,,,,
null,"<img src=""stim_listA/fight7.gif""</stim_listA>",,html-keyboard-response,197,1208345,0.0-15.0-1.17,66909,List2A,black,woman,,,,null,,,,
null,is fighting,,html-keyboard-response,198,1210349,0.0-15.0-2.17,66909,List2A,black,woman,,,,null,,,,
7424,,,survey-text,199,1217777,0.0-15.0-3.17,66909,List2A,black,woman,,,,,"{""Q0"":""Kate is fighting Jane ""}","<img src=""stim_listA/fight7.gif""</stim_listA>",is fighting,
null,"<div style=""font-size:60px;"">+</div>",,html-keyboard-response,200,1218280,0.0-15.0-0.18,66909,List2A,black,woman,,,,null,,,,
null,"<img src=""stim_listA/marry5.gif""</stim_listA>",,html-keyboard-response,201,1220285,0.0-15.0-1.18,66909,List2A,black,woman,,,,null,,,,
null,is marrying,,html-keyboard-response,202,1222290,0.0-15.0-2.18,66909,List2A,black,woman,,,,null,,,,
8143,,,survey-text,203,1230436,0.0-15.0-3.18,66909,List2A,black,woman,,,,,"{""Q0"":""Mike is touching Luke ""}","<img src=""stim_listA/marry5.gif""</stim_listA>",is marrying,
null,"<div style=""font-size:60px;"">+</div>",,html-keyboard-response,204,1230943,0.0-15.0-0.19,66909,List2A,black,woman,,,,null,,,,
null,"<img src=""stim_listA/hug1.gif""</stim_listA>",,html-keyboard-response,205,1232950,0.0-15.0-1.19,66909,List2A,black,woman,,,,null,,,,
null,is hugging,,html-keyboard-response,206,1234955,0.0-15.0-2.19,66909,List2A,black,woman,,,,null,,,,
24248,,,survey-text,207,1259206,0.0-15.0-3.19,66909,List2A,black,woman,,,,,"{""Q0"":""Ruth is hugging Luke""}","<img src=""stim_listA/hug1.gif""</stim_listA>",is hugging,
11511,"<img src='img/portrait_matrix_list2.JPG' style='width:900px;height:500px;''></img><p>If you have memorised all the portraits and names and are ready to start, press Continue.</p><p><strong>Please note: Your memory of these faces will be tested 4 times during this experiment.</strong></p>",0,html-button-response,208,1270725,0.0-16.0-0.0,66909,List2A,black,woman,,,,,,,,
10027,"<img src=""portrait/BW1.jpg""style=""width:400px;height:400px;""></img>",0,html-button-response,209,1281762,0.0-16.0-1.0,66909,List2A,black,woman,,TRUE,0,,,,,
null,CORRECT,,html-keyboard-response,210,1283271,0.0-16.0-2.0-0.0,66909,List2A,black,woman,,,,null,,,,
3095,"<img src=""portrait/WM2.jpg""style=""width:400px;height:400px;""></img>",7,html-button-response,211,1286376,0.0-16.0-4.0,66909,List2A,black,woman,,TRUE,7,,,,,
null,CORRECT,,html-keyboard-response,212,1287881,0.0-16.0-5.0-0.0,66909,List2A,black,woman,,,,null,,,,
6104,"<img src=""portrait/WM1.jpg""style=""width:400px;height:400px;""></img>",6,html-button-response,213,1293993,0.0-16.0-7.0,66909,List2A,black,woman,,TRUE,6,,,,,
null,CORRECT,,html-keyboard-response,214,1295498,0.0-16.0-8.0-0.0,66909,List2A,black,woman,,,,null,,,,
2838,"<img src=""portrait/WW1.jpg""style=""width:400px;height:400px;""></img>",1,html-button-response,215,1298345,0.0-16.0-10.0,66909,List2A,black,woman,,TRUE,1,,,,,
null,CORRECT,,html-keyboard-response,216,1299849,0.0-16.0-11.0-0.0,66909,List2A,black,woman,,,,null,,,,
1623,"<img src=""portrait/BM2.jpg""style=""width:400px;height:400px;""></img>",5,html-button-response,217,1301478,0.0-16.0-13.0,66909,List2A,black,woman,,TRUE,5,,,,,
null,CORRECT,,html-keyboard-response,218,1302983,0.0-16.0-14.0-0.0,66909,List2A,black,woman,,,,null,,,,
2987,"<img src=""portrait/BM1.jpg""style=""width:400px;height:400px;""></img>",4,html-button-response,219,1305977,0.0-16.0-16.0,66909,List2A,black,woman,,TRUE,4,,,,,
null,CORRECT,,html-keyboard-response,220,1307482,0.0-16.0-17.0-0.0,66909,List2A,black,woman,,,,null,,,,
2671,"<img src=""portrait/BW2.jpg""style=""width:400px;height:400px;""></img>",2,html-button-response,221,1310160,0.0-16.0-19.0,66909,List2A,black,woman,,TRUE,2,,,,,
null,CORRECT,,html-keyboard-response,222,1311666,0.0-16.0-20.0-0.0,66909,List2A,black,woman,,,,null,,,,
3588,"<img src=""portrait/WW2.jpg""style=""width:400px;height:400px;""></img>",3,html-button-response,223,1315261,0.0-16.0-22.0,66909,List2A,black,woman,,TRUE,3,,,,,
null,CORRECT,,html-keyboard-response,224,1316767,0.0-16.0-23.0-0.0,66909,List2A,black,woman,,,,null,,,,
1684,<p>You got 8 out of 8 right first time. Press Continue.</p>,0,html-button-response,225,1318458,0.0-16.0-25.0,66909,List2A,black,woman,,,,,,,,
null,"<div style=""font-size:60px;"">+</div>",,html-keyboard-response,226,1319967,0.0-17.0-0.0,66909,List2A,black,woman,,,,null,,,,
null,"<img src=""stim_listA/shout8.gif""</stim_listA>",,html-keyboard-response,227,1321973,0.0-17.0-1.0,66909,List2A,black,woman,,,,null,,,,
null,are shouting at each other,,html-keyboard-response,228,1323977,0.0-17.0-2.0,66909,List2A,black,woman,,,,null,,,,
28447,,,survey-text,229,1352429,0.0-17.0-3.0,66909,List2A,black,woman,,,,,"{""Q0"":""Kate and Jane are shouting at each other ""}","<img src=""stim_listA/shout8.gif""</stim_listA>",are shouting at each other,
null,"<div style=""font-size:60px;"">+</div>",,html-keyboard-response,230,1352934,0.0-17.0-0.1,66909,List2A,black,woman,,,,null,,,,
null,"<img src=""stim_listA/fight1.gif""</stim_listA>",,html-keyboard-response,231,1354938,0.0-17.0-1.1,66909,List2A,black,woman,,,,null,,,,
null,is fighting,,html-keyboard-response,232,1356941,0.0-17.0-2.1,66909,List2A,black,woman,,,,null,,,,
16238,,,survey-text,233,1373182,0.0-17.0-3.1,66909,List2A,black,woman,,,,,"{""Q0"":""Dave is fighting Beth. ""}","<img src=""stim_listA/fight1.gif""</stim_listA>",is fighting,
null,"<div style=""font-size:60px;"">+</div>",,html-keyboard-response,234,1373687,0.0-17.0-0.2,66909,List2A,black,woman,,,,null,,,,
null,"<img src=""stim_listA/marry7.gif""</stim_listA>",,html-keyboard-response,235,1375691,0.0-17.0-1.2,66909,List2A,black,woman,,,,null,,,,
null,is marrying,,html-keyboard-response,236,1377695,0.0-17.0-2.2,66909,List2A,black,woman,,,,null,,,,
30494,,,survey-text,237,1408192,0.0-17.0-3.2,66909,List2A,black,woman,,,,,"{""Q0"":""Jane is marrying Beth ""}","<img src=""stim_listA/marry7.gif""</stim_listA>",is marrying,
null,"<div style=""font-size:60px;"">+</div>",,html-keyboard-response,238,1408695,0.0-17.0-0.3,66909,List2A,black,woman,,,,null,,,,
null,"<img src=""stim_listA/dance6.gif""</stim_listA>",,html-keyboard-response,239,1410699,0.0-17.0-1.3,66909,List2A,black,woman,,,,null,,,,
null,are dancing with each other,,html-keyboard-response,240,1412703,0.0-17.0-2.3,66909,List2A,black,woman,,,,null,,,,
11729,,,survey-text,241,1424436,0.0-17.0-3.3,66909,List2A,black,woman,,,,,"{""Q0"":""Mike and Dave are dancing with each other ""}","<img src=""stim_listA/dance6.gif""</stim_listA>",are dancing with each other,
null,"<div style=""font-size:60px;"">+</div>",,html-keyboard-response,242,1424941,0.0-17.0-0.4,66909,List2A,black,woman,,,,null,,,,
null,"<img src=""stim_listA/kiss7.gif""</stim_listA>",,html-keyboard-response,243,1426945,0.0-17.0-1.4,66909,List2A,black,woman,,,,null,,,,
null,is kissing,,html-keyboard-response,244,1428950,0.0-17.0-2.4,66909,List2A,black,woman,,,,null,,,,
14207,,,survey-text,245,1443161,0.0-17.0-3.4,66909,List2A,black,woman,,,,,"{""Q0"":""Beth is kissing Ruth ""}","<img src=""stim_listA/kiss7.gif""</stim_listA>",is kissing,
null,"<div style=""font-size:60px;"">+</div>",,html-keyboard-response,246,1443662,0.0-17.0-0.5,66909,List2A,black,woman,,,,null,,,,
null,"<img src=""stim_listA/fight6.gif""</stim_listA>",,html-keyboard-response,247,1445665,0.0-17.0-1.5,66909,List2A,black,woman,,,,null,,,,
null,are fighting each other,,html-keyboard-response,248,1447669,0.0-17.0-2.5,66909,List2A,black,woman,,,,null,,,,
8674,,,survey-text,249,1456347,0.0-17.0-3.5,66909,List2A,black,woman,,,,,"{""Q0"":""Luke and Fred are fighting each other ""}","<img src=""stim_listA/fight6.gif""</stim_listA>",are fighting each other,
null,"<div style=""font-size:60px;"">+</div>",,html-keyboard-response,250,1456851,0.0-17.0-0.6,66909,List2A,black,woman,,,,null,,,,
null,"<img src=""stim_listA/talk4.gif""</stim_listA>",,html-keyboard-response,251,1458854,0.0-17.0-1.6,66909,List2A,black,woman,,,,null,,,,
null,are talking to each other,,html-keyboard-response,252,1460858,0.0-17.0-2.6,66909,List2A,black,woman,,,,null,,,,
30768,,,survey-text,253,1491628,0.0-17.0-3.6,66909,List2A,black,woman,,,,,"{""Q0"":""Mike and Beth are talking to each other""}","<img src=""stim_listA/talk4.gif""</stim_listA>",are talking to each other,
null,"<div style=""font-size:60px;"">+</div>",,html-keyboard-response,254,1492132,0.0-17.0-0.7,66909,List2A,black,woman,,,,null,,,,
null,"<img src=""stim_listA/touch3.gif""</stim_listA>",,html-keyboard-response,255,1494138,0.0-17.0-1.7,66909,List2A,black,woman,,,,null,,,,
null,is touching,,html-keyboard-response,256,1496141,0.0-17.0-2.7,66909,List2A,black,woman,,,,null,,,,
6140,,,survey-text,257,1502283,0.0-17.0-3.7,66909,List2A,black,woman,,,,,"{""Q0"":""Kate is touching Mike""}","<img src=""stim_listA/touch3.gif""</stim_listA>",is touching,
null,"<div style=""font-size:60px;"">+</div>",,html-keyboard-response,258,1502786,0.0-17.0-0.8,66909,List2A,black,woman,,,,null,,,,
null,"<img src=""stim_listA/dance5.gif""</stim_listA>",,html-keyboard-response,259,1504795,0.0-17.0-1.8,66909,List2A,black,woman,,,,null,,,,
null,is dancing with,,html-keyboard-response,260,1506797,0.0-17.0-2.8,66909,List2A,black,woman,,,,null,,,,
34786,,,survey-text,261,1541588,0.0-17.0-3.8,66909,List2A,black,woman,,,,,"{""Q0"":""Mike is dancing with fred ""}","<img src=""stim_listA/dance5.gif""</stim_listA>",is dancing with,
null,"<div style=""font-size:60px;"">+</div>",,html-keyboard-response,262,1542091,0.0-17.0-0.9,66909,List2A,black,woman,,,,null,,,,
null,"<img src=""stim_listA/argue5.gif""</stim_listA>",,html-keyboard-response,263,1544094,0.0-17.0-1.9,66909,List2A,black,woman,,,,null,,,,
null,is arguing with,,html-keyboard-response,264,1546097,0.0-17.0-2.9,66909,List2A,black,woman,,,,null,,,,
9751,,,survey-text,265,1555852,0.0-17.0-3.9,66909,List2A,black,woman,,,,,"{""Q0"":""Fred is arguing with Luke ""}","<img src=""stim_listA/argue5.gif""</stim_listA>",is arguing with,
null,"<div style=""font-size:60px;"">+</div>",,html-keyboard-response,266,1556356,0.0-17.0-0.10,66909,List2A,black,woman,,,,null,,,,
null,"<img src=""stim_listA/shout3.gif""</stim_listA>",,html-keyboard-response,267,1558360,0.0-17.0-1.10,66909,List2A,black,woman,,,,null,,,,
null,is shouting at,,html-keyboard-response,268,1560362,0.0-17.0-2.10,66909,List2A,black,woman,,,,null,,,,
26353,,,survey-text,269,1586719,0.0-17.0-3.10,66909,List2A,black,woman,,,,,"{""Q0"":""Luke is shouting at Beth""}","<img src=""stim_listA/shout3.gif""</stim_listA>",is shouting at,
null,"<div style=""font-size:60px;"">+</div>",,html-keyboard-response,270,1587222,0.0-17.0-0.11,66909,List2A,black,woman,,,,null,,,,
null,"<img src=""stim_listA/dance4.gif""</stim_listA>",,html-keyboard-response,271,1589226,0.0-17.0-1.11,66909,List2A,black,woman,,,,null,,,,
null,are dancing with each other,,html-keyboard-response,272,1591229,0.0-17.0-2.11,66909,List2A,black,woman,,,,null,,,,
9677,,,survey-text,273,1600909,0.0-17.0-3.11,66909,List2A,black,woman,,,,,"{""Q0"":""Mike and Beth are dancing with each other""}","<img src=""stim_listA/dance4.gif""</stim_listA>",are dancing with each other,
null,"<div style=""font-size:60px;"">+</div>",,html-keyboard-response,274,1601412,0.0-17.0-0.12,66909,List2A,black,woman,,,,null,,,,
null,"<img src=""stim_listA/argue3.gif""</stim_listA>",,html-keyboard-response,275,1603416,0.0-17.0-1.12,66909,List2A,black,woman,,,,null,,,,
null,is arguing with,,html-keyboard-response,276,1605419,0.0-17.0-2.12,66909,List2A,black,woman,,,,null,,,,
30592,,,survey-text,277,1636013,0.0-17.0-3.12,66909,List2A,black,woman,,,,,"{""Q0"":""Mike is arguing with Beth""}","<img src=""stim_listA/argue3.gif""</stim_listA>",is arguing with,
null,"<div style=""font-size:60px;"">+</div>",,html-keyboard-response,278,1636517,0.0-17.0-0.13,66909,List2A,black,woman,,,,null,,,,
null,"<img src=""stim_listA/fight8.gif""</stim_listA>",,html-keyboard-response,279,1638520,0.0-17.0-1.13,66909,List2A,black,woman,,,,null,,,,
null,are fighting each other,,html-keyboard-response,280,1640525,0.0-17.0-2.13,66909,List2A,black,woman,,,,null,,,,
41731,,,survey-text,281,1682260,0.0-17.0-3.13,66909,List2A,black,woman,,,,,"{""Q0"":""Ruth and Beth are fighting each other""}","<img src=""stim_listA/fight8.gif""</stim_listA>",are fighting each other,
null,"<div style=""font-size:60px;"">+</div>",,html-keyboard-response,282,1682764,0.0-17.0-0.14,66909,List2A,black,woman,,,,null,,,,
null,"<img src=""stim_listA/meet7.gif""</stim_listA>",,html-keyboard-response,283,1684769,0.0-17.0-1.14,66909,List2A,black,woman,,,,null,,,,
null,is meeting,,html-keyboard-response,284,1686773,0.0-17.0-2.14,66909,List2A,black,woman,,,,null,,,,
11582,,,survey-text,285,1698359,0.0-17.0-3.14,66909,List2A,black,woman,,,,,"{""Q0"":""Kate and Jane are touching each other ""}","<img src=""stim_listA/meet7.gif""</stim_listA>",is meeting,
null,"<div style=""font-size:60px;"">+</div>",,html-keyboard-response,286,1698863,0.0-17.0-0.15,66909,List2A,black,woman,,,,null,,,,
null,"<img src=""stim_listA/dance7.gif""</stim_listA>",,html-keyboard-response,287,1700868,0.0-17.0-1.15,66909,List2A,black,woman,,,,null,,,,
null,is dancing with,,html-keyboard-response,288,1702872,0.0-17.0-2.15,66909,List2A,black,woman,,,,null,,,,
10154,,,survey-text,289,1713030,0.0-17.0-3.15,66909,List2A,black,woman,,,,,"{""Q0"":""Kate is dancing with Ruth""}","<img src=""stim_listA/dance7.gif""</stim_listA>",is dancing with,
null,"<div style=""font-size:60px;"">+</div>",,html-keyboard-response,290,1713533,0.0-17.0-0.16,66909,List2A,black,woman,,,,null,,,,
null,"<img src=""stim_listA/shout6.gif""</stim_listA>",,html-keyboard-response,291,1715537,0.0-17.0-1.16,66909,List2A,black,woman,,,,null,,,,
null,are shouting at each other,,html-keyboard-response,292,1717541,0.0-17.0-2.16,66909,List2A,black,woman,,,,null,,,,
58327,,,survey-text,293,1775870,0.0-17.0-3.16,66909,List2A,black,woman,,,,,"{""Q0"":""Luke and Dave are shouting at each other ""}","<img src=""stim_listA/shout6.gif""</stim_listA>",are shouting at each other,
null,"<div style=""font-size:60px;"">+</div>",,html-keyboard-response,294,1776376,0.0-17.0-0.17,66909,List2A,black,woman,,,,null,,,,
null,"<img src=""stim_listA/fight4.gif""</stim_listA>",,html-keyboard-response,295,1778379,0.0-17.0-1.17,66909,List2A,black,woman,,,,null,,,,
null,are fighting each other,,html-keyboard-response,296,1780381,0.0-17.0-2.17,66909,List2A,black,woman,,,,null,,,,
90122,,,survey-text,297,1870506,0.0-17.0-3.17,66909,List2A,black,woman,,,,,"{""Q0"":""Don’t know ""}","<img src=""stim_listA/fight4.gif""</stim_listA>",are fighting each other,
null,"<div style=""font-size:60px;"">+</div>",,html-keyboard-response,298,1871012,0.0-17.0-0.18,66909,List2A,black,woman,,,,null,,,,
null,"<img src=""stim_listA/talk3.gif""</stim_listA>",,html-keyboard-response,299,1873017,0.0-17.0-1.18,66909,List2A,black,woman,,,,null,,,,
null,is talking to,,html-keyboard-response,300,1875023,0.0-17.0-2.18,66909,List2A,black,woman,,,,null,,,,
7130,,,survey-text,301,1882159,0.0-17.0-3.18,66909,List2A,black,woman,,,,,"{""Q0"":""Kate is talking to Luke ""}","<img src=""stim_listA/talk3.gif""</stim_listA>",is talking to,
null,"<div style=""font-size:60px;"">+</div>",,html-keyboard-response,302,1882664,0.0-17.0-0.19,66909,List2A,black,woman,,,,null,,,,
null,"<img src=""stim_listA/shout7.gif""</stim_listA>",,html-keyboard-response,303,1884669,0.0-17.0-1.19,66909,List2A,black,woman,,,,null,,,,
null,is shouting at,,html-keyboard-response,304,1886674,0.0-17.0-2.19,66909,List2A,black,woman,,,,null,,,,
15128,,,survey-text,305,1901807,0.0-17.0-3.19,66909,List2A,black,woman,,,,,"{""Q0"":""Jane is talking to Ruth ""}","<img src=""stim_listA/shout7.gif""</stim_listA>",is shouting at,
3147,"<img src='img/portrait_matrix_list2.JPG' style='width:900px;height:500px;''></img><p>If you have memorised all the portraits and names and are ready to start, press Continue.</p><p><strong>Please note: Your memory of these faces will be tested 4 times during this experiment.</strong></p>",0,html-button-response,306,1904962,0.0-18.0-0.0,66909,List2A,black,woman,,,,,,,,
1792,"<img src=""portrait/BM2.jpg""style=""width:400px;height:400px;""></img>",5,html-button-response,307,1907762,0.0-18.0-1.0,66909,List2A,black,woman,,TRUE,5,,,,,
null,CORRECT,,html-keyboard-response,308,1909269,0.0-18.0-2.0-0.0,66909,List2A,black,woman,,,,null,,,,
1756,"<img src=""portrait/WM2.jpg""style=""width:400px;height:400px;""></img>",7,html-button-response,309,1911031,0.0-18.0-4.0,66909,List2A,black,woman,,TRUE,7,,,,,
null,CORRECT,,html-keyboard-response,310,1912536,0.0-18.0-5.0-0.0,66909,List2A,black,woman,,,,null,,,,
3382,"<img src=""portrait/BW1.jpg""style=""width:400px;height:400px;""></img>",0,html-button-response,311,1915926,0.0-18.0-7.0,66909,List2A,black,woman,,TRUE,0,,,,,
null,CORRECT,,html-keyboard-response,312,1917431,0.0-18.0-8.0-0.0,66909,List2A,black,woman,,,,null,,,,
1139,"<img src=""portrait/BW2.jpg""style=""width:400px;height:400px;""></img>",2,html-button-response,313,1918577,0.0-18.0-10.0,66909,List2A,black,woman,,TRUE,2,,,,,
null,CORRECT,,html-keyboard-response,314,1920081,0.0-18.0-11.0-0.0,66909,List2A,black,woman,,,,null,,,,
7274,"<img src=""portrait/BM1.jpg""style=""width:400px;height:400px;""></img>",4,html-button-response,315,1927362,0.0-18.0-13.0,66909,List2A,black,woman,,TRUE,4,,,,,
null,CORRECT,,html-keyboard-response,316,1928866,0.0-18.0-14.0-0.0,66909,List2A,black,woman,,,,null,,,,
2045,"<img src=""portrait/WM1.jpg""style=""width:400px;height:400px;""></img>",6,html-button-response,317,1930914,0.0-18.0-16.0,66909,List2A,black,woman,,TRUE,6,,,,,
null,CORRECT,,html-keyboard-response,318,1932419,0.0-18.0-17.0-0.0,66909,List2A,black,woman,,,,null,,,,
3238,"<img src=""portrait/WW2.jpg""style=""width:400px;height:400px;""></img>",3,html-button-response,319,1935663,0.0-18.0-19.0,66909,List2A,black,woman,,TRUE,3,,,,,
null,CORRECT,,html-keyboard-response,320,1937168,0.0-18.0-20.0-0.0,66909,List2A,black,woman,,,,null,,,,
1657,"<img src=""portrait/WW1.jpg""style=""width:400px;height:400px;""></img>",1,html-button-response,321,1938833,0.0-18.0-22.0,66909,List2A,black,woman,,TRUE,1,,,,,
null,CORRECT,,html-keyboard-response,322,1940338,0.0-18.0-23.0-0.0,66909,List2A,black,woman,,,,null,,,,
1785,<p>You got 8 out of 8 right first time. Press Continue.</p>,0,html-button-response,323,1942132,0.0-18.0-25.0,66909,List2A,black,woman,,,,,,,,
null,"<div style=""font-size:60px;"">+</div>",,html-keyboard-response,324,1943643,0.0-19.0-0.0,66909,List2A,black,woman,,,,null,,,,
null,"<img src=""stim_listA/argue4.gif""</stim_listA>",,html-keyboard-response,325,1945649,0.0-19.0-1.0,66909,List2A,black,woman,,,,null,,,,
null,are arguing with each other,,html-keyboard-response,326,1947654,0.0-19.0-2.0,66909,List2A,black,woman,,,,null,,,,
64659,,,survey-text,327,2012318,0.0-19.0-3.0,66909,List2A,black,woman,,,,,"{""Q0"":""Kate and Fred are fighting with each other ""}","<img src=""stim_listA/argue4.gif""</stim_listA>",are arguing with each other,
null,"<div style=""font-size:60px;"">+</div>",,html-keyboard-response,328,2012823,0.0-19.0-0.1,66909,List2A,black,woman,,,,null,,,,
null,"<img src=""stim_listA/hug5.gif""</stim_listA>",,html-keyboard-response,329,2014828,0.0-19.0-1.1,66909,List2A,black,woman,,,,null,,,,
null,is hugging,,html-keyboard-response,330,2016831,0.0-19.0-2.1,66909,List2A,black,woman,,,,null,,,,
105587,,,survey-text,331,2122423,0.0-19.0-3.1,66909,List2A,black,woman,,,,,"{""Q0"":""Fred is hugging Luke ""}","<img src=""stim_listA/hug5.gif""</stim_listA>",is hugging,
null,"<div style=""font-size:60px;"">+</div>",,html-keyboard-response,332,2122928,0.0-19.0-0.2,66909,List2A,black,woman,,,,null,,,,
null,"<img src=""stim_listA/marry2.gif""</stim_listA>",,html-keyboard-response,333,2124935,0.0-19.0-1.2,66909,List2A,black,woman,,,,null,,,,
null,are marrying each other,,html-keyboard-response,334,2126939,0.0-19.0-2.2,66909,List2A,black,woman,,,,null,,,,
6096,,,survey-text,335,2133040,0.0-19.0-3.2,66909,List2A,black,woman,,,,,"{""Q0"":""Don’t know ""}","<img src=""stim_listA/marry2.gif""</stim_listA>",are marrying each other,
null,"<div style=""font-size:60px;"">+</div>",,html-keyboard-response,336,2133544,0.0-19.0-0.3,66909,List2A,black,woman,,,,null,,,,
null,"<img src=""stim_listA/meet5.gif""</stim_listA>",,html-keyboard-response,337,2135550,0.0-19.0-1.3,66909,List2A,black,woman,,,,null,,,,
null,is meeting,,html-keyboard-response,338,2137554,0.0-19.0-2.3,66909,List2A,black,woman,,,,null,,,,
59641,,,survey-text,339,2197199,0.0-19.0-3.3,66909,List2A,black,woman,,,,,"{""Q0"":""Mike is meeting dave""}","<img src=""stim_listA/meet5.gif""</stim_listA>",is meeting,
null,"<div style=""font-size:60px;"">+</div>",,html-keyboard-response,340,2197703,0.0-19.0-0.4,66909,List2A,black,woman,,,,null,,,,
null,"<img src=""stim_listA/talk2.gif""</stim_listA>",,html-keyboard-response,341,2199709,0.0-19.0-1.4,66909,List2A,black,woman,,,,null,,,,
null,are talking to each other,,html-keyboard-response,342,2201714,0.0-19.0-2.4,66909,List2A,black,woman,,,,null,,,,
80418,,,survey-text,343,2282136,0.0-19.0-3.4,66909,List2A,black,woman,,,,,"{""Q0"":""Dave and Ruth are talking to each other ""}","<img src=""stim_listA/talk2.gif""</stim_listA>",are talking to each other,
null,"<div style=""font-size:60px;"">+</div>",,html-keyboard-response,344,2282641,0.0-19.0-0.5,66909,List2A,black,woman,,,,null,,,,
null,"<img src=""stim_listA/kiss3.gif""</stim_listA>",,html-keyboard-response,345,2284645,0.0-19.0-1.5,66909,List2A,black,woman,,,,null,,,,
null,is kissing,,html-keyboard-response,346,2286650,0.0-19.0-2.5,66909,List2A,black,woman,,,,null,,,,
54683,,,survey-text,347,2341338,0.0-19.0-3.5,66909,List2A,black,woman,,,,,"{""Q0"":""Don’t know ""}","<img src=""stim_listA/kiss3.gif""</stim_listA>",is kissing,
null,"<div style=""font-size:60px;"">+</div>",,html-keyboard-response,348,2341844,0.0-19.0-0.6,66909,List2A,black,woman,,,,null,,,,
null,"<img src=""stim_listA/marry1.gif""</stim_listA>",,html-keyboard-response,349,2343848,0.0-19.0-1.6,66909,List2A,black,woman,,,,null,,,,
null,is marrying,,html-keyboard-response,350,2345854,0.0-19.0-2.6,66909,List2A,black,woman,,,,null,,,,
6245,,,survey-text,351,2352105,0.0-19.0-3.6,66909,List2A,black,woman,,,,,"{""Q0"":""Dave is marrying Ruth ""}","<img src=""stim_listA/marry1.gif""</stim_listA>",is marrying,
null,"<div style=""font-size:60px;"">+</div>",,html-keyboard-response,352,2352608,0.0-19.0-0.7,66909,List2A,black,woman,,,,null,,,,
null,"<img src=""stim_listA/meet4.gif""</stim_listA>",,html-keyboard-response,353,2354614,0.0-19.0-1.7,66909,List2A,black,woman,,,,null,,,,
null,are meeting each other,,html-keyboard-response,354,2356620,0.0-19.0-2.7,66909,List2A,black,woman,,,,null,,,,
13902,,,survey-text,355,2370528,0.0-19.0-3.7,66909,List2A,black,woman,,,,,"{""Q0"":""Beth and Fred are meeting each other ""}","<img src=""stim_listA/meet4.gif""</stim_listA>",are meeting each other,
null,"<div style=""font-size:60px;"">+</div>",,html-keyboard-response,356,2371032,0.0-19.0-0.8,66909,List2A,black,woman,,,,null,,,,
null,"<img src=""stim_listA/shout1.gif""</stim_listA>",,html-keyboard-response,357,2373037,0.0-19.0-1.8,66909,List2A,black,woman,,,,null,,,,
null,is shouting at,,html-keyboard-response,358,2375042,0.0-19.0-2.8,66909,List2A,black,woman,,,,null,,,,
6650,,,survey-text,359,2381697,0.0-19.0-3.8,66909,List2A,black,woman,,,,,"{""Q0"":""Ruth is shouting at Luke ""}","<img src=""stim_listA/shout1.gif""</stim_listA>",is shouting at,
null,"<div style=""font-size:60px;"">+</div>",,html-keyboard-response,360,2382204,0.0-19.0-0.9,66909,List2A,black,woman,,,,null,,,,
null,"<img src=""stim_listA/kiss1.gif""</stim_listA>",,html-keyboard-response,361,2384209,0.0-19.0-1.9,66909,List2A,black,woman,,,,null,,,,
null,is kissing,,html-keyboard-response,362,2386213,0.0-19.0-2.9,66909,List2A,black,woman,,,,null,,,,
8028,,,survey-text,363,2394245,0.0-19.0-3.9,66909,List2A,black,woman,,,,,"{""Q0"":""Ruth is kissing Luke ""}","<img src=""stim_listA/kiss1.gif""</stim_listA>",is kissing,
null,"<div style=""font-size:60px;"">+</div>",,html-keyboard-response,364,2394753,0.0-19.0-0.10,66909,List2A,black,woman,,,,null,,,,
null,"<img src=""stim_listA/marry6.gif""</stim_listA>",,html-keyboard-response,365,2396758,0.0-19.0-1.10,66909,List2A,black,woman,,,,null,,,,
null,are marrying each other,,html-keyboard-response,366,2398763,0.0-19.0-2.10,66909,List2A,black,woman,,,,null,,,,
53732,,,survey-text,367,2452499,0.0-19.0-3.10,66909,List2A,black,woman,,,,,"{""Q0"":""Don’t know ""}","<img src=""stim_listA/marry6.gif""</stim_listA>",are marrying each other,
null,"<div style=""font-size:60px;"">+</div>",,html-keyboard-response,368,2453004,0.0-19.0-0.11,66909,List2A,black,woman,,,,null,,,,
null,"<img src=""stim_listA/kiss5.gif""</stim_listA>",,html-keyboard-response,369,2455008,0.0-19.0-1.11,66909,List2A,black,woman,,,,null,,,,
null,is kissing,,html-keyboard-response,370,2457012,0.0-19.0-2.11,66909,List2A,black,woman,,,,null,,,,
6082,,,survey-text,371,2463098,0.0-19.0-3.11,66909,List2A,black,woman,,,,,"{""Q0"":""Luke is kissing Fred ""}","<img src=""stim_listA/kiss5.gif""</stim_listA>",is kissing,
null,"<div style=""font-size:60px;"">+</div>",,html-keyboard-response,372,2463603,0.0-19.0-0.12,66909,List2A,black,woman,,,,null,,,,
null,"<img src=""stim_listA/fight5.gif""</stim_listA>",,html-keyboard-response,373,2465608,0.0-19.0-1.12,66909,List2A,black,woman,,,,null,,,,
null,is fighting,,html-keyboard-response,374,2467613,0.0-19.0-2.12,66909,List2A,black,woman,,,,null,,,,
59547,,,survey-text,375,2527164,0.0-19.0-3.12,66909,List2A,black,woman,,,,,"{""Q0"":""Don’t know ""}","<img src=""stim_listA/fight5.gif""</stim_listA>",is fighting,
null,"<div style=""font-size:60px;"">+</div>",,html-keyboard-response,376,2527671,0.0-19.0-0.13,66909,List2A,black,woman,,,,null,,,,
null,"<img src=""stim_listA/talk5.gif""</stim_listA>",,html-keyboard-response,377,2529675,0.0-19.0-1.13,66909,List2A,black,woman,,,,null,,,,
null,is talking to,,html-keyboard-response,378,2531679,0.0-19.0-2.13,66909,List2A,black,woman,,,,null,,,,
8093,,,survey-text,379,2539775,0.0-19.0-3.13,66909,List2A,black,woman,,,,,"{""Q0"":""Mike is talking to Luke ""}","<img src=""stim_listA/talk5.gif""</stim_listA>",is talking to,
null,"<div style=""font-size:60px;"">+</div>",,html-keyboard-response,380,2540281,0.0-19.0-0.14,66909,List2A,black,woman,,,,null,,,,
null,"<img src=""stim_listA/kiss8.gif""</stim_listA>",,html-keyboard-response,381,2542287,0.0-19.0-1.14,66909,List2A,black,woman,,,,null,,,,
null,are kissing each other,,html-keyboard-response,382,2544292,0.0-19.0-2.14,66909,List2A,black,woman,,,,null,,,,
8129,,,survey-text,383,2552425,0.0-19.0-3.14,66909,List2A,black,woman,,,,,"{""Q0"":""Kate and Jane are kissing each other ""}","<img src=""stim_listA/kiss8.gif""</stim_listA>",are kissing each other,
null,"<div style=""font-size:60px;"">+</div>",,html-keyboard-response,384,2552929,0.0-19.0-0.15,66909,List2A,black,woman,,,,null,,,,
null,"<img src=""stim_listA/meet6.gif""</stim_listA>",,html-keyboard-response,385,2554935,0.0-19.0-1.15,66909,List2A,black,woman,,,,null,,,,
null,are meeting each other,,html-keyboard-response,386,2556939,0.0-19.0-2.15,66909,List2A,black,woman,,,,null,,,,
7764,,,survey-text,387,2564709,0.0-19.0-3.15,66909,List2A,black,woman,,,,,"{""Q0"":""Fred and Luke are meeting each other ""}","<img src=""stim_listA/meet6.gif""</stim_listA>",are meeting each other,
null,"<div style=""font-size:60px;"">+</div>",,html-keyboard-response,388,2565214,0.0-19.0-0.16,66909,List2A,black,woman,,,,null,,,,
null,"<img src=""stim_listA/hug2.gif""</stim_listA>",,html-keyboard-response,389,2567216,0.0-19.0-1.16,66909,List2A,black,woman,,,,null,,,,
null,are hugging each other,,html-keyboard-response,390,2569219,0.0-19.0-2.16,66909,List2A,black,woman,,,,null,,,,
9820,,,survey-text,391,2579043,0.0-19.0-3.16,66909,List2A,black,woman,,,,,"{""Q0"":""Dave and Jane are hugging each other ""}","<img src=""stim_listA/hug2.gif""</stim_listA>",are hugging each other,
null,"<div style=""font-size:60px;"">+</div>",,html-keyboard-response,392,2579547,0.0-19.0-0.17,66909,List2A,black,woman,,,,null,,,,
null,"<img src=""stim_listA/touch5.gif""</stim_listA>",,html-keyboard-response,393,2581553,0.0-19.0-1.17,66909,List2A,black,woman,,,,null,,,,
null,is touching,,html-keyboard-response,394,2583557,0.0-19.0-2.17,66909,List2A,black,woman,,,,null,,,,
6613,,,survey-text,395,2590174,0.0-19.0-3.17,66909,List2A,black,woman,,,,,"{""Q0"":""Mike is touching Dave ""}","<img src=""stim_listA/touch5.gif""</stim_listA>",is touching,
null,"<div style=""font-size:60px;"">+</div>",,html-keyboard-response,396,2590677,0.0-19.0-0.18,66909,List2A,black,woman,,,,null,,,,
null,"<img src=""stim_listA/dance2.gif""</stim_listA>",,html-keyboard-response,397,2592680,0.0-19.0-1.18,66909,List2A,black,woman,,,,null,,,,
null,are dancing with each other,,html-keyboard-response,398,2594683,0.0-19.0-2.18,66909,List2A,black,woman,,,,null,,,,
11394,,,survey-text,399,2606082,0.0-19.0-3.18,66909,List2A,black,woman,,,,,"{""Q0"":""Dave and Ruth are dancing with each other ""}","<img src=""stim_listA/dance2.gif""</stim_listA>",are dancing with each other,
null,"<div style=""font-size:60px;"">+</div>",,html-keyboard-response,400,2606588,0.0-19.0-0.19,66909,List2A,black,woman,,,,null,,,,
null,"<img src=""stim_listA/meet1.gif""</stim_listA>",,html-keyboard-response,401,2608594,0.0-19.0-1.19,66909,List2A,black,woman,,,,null,,,,
null,is meeting,,html-keyboard-response,402,2610599,0.0-19.0-2.19,66909,List2A,black,woman,,,,null,,,,
13393,,,survey-text,403,2623996,0.0-19.0-3.19,66909,List2A,black,woman,,,,,"{""Q0"":""Dave is touching jane ""}","<img src=""stim_listA/meet1.gif""</stim_listA>",is meeting,
1796,<p>Thank you for completing that task.</p><p>The final part of this session is a short questionnaire.</p><p>Press Continue.</p>,0,html-button-response,404,2625801,0.0-20.0,66909,List2A,black,woman,,,,,,,,
22279,,,survey-text,405,2649087,0.0-21.0,66909,List2A,black,woman,,,,,"{""Q0"":""26"",""Q1"":""English "",""Q2"":""English "",""Q3"":""England "",""Q4"":""Black British "",""Q5"":""Female ""}",,,demographics
30738,,,survey-likert,406,2679844,0.0-22.0,66909,List2A,black,woman,,,,,"{""Q0"":6,""Q1"":5,""Q2"":6,""Q3"":6,""Q4"":6,""Q5"":5,""Q6"":6,""Q7"":5,""Q8"":6,""Q9"":5,""Q10"":4,""Q11"":4,""Q12"":3,""Q13"":3}",,,likert_race
27077,,,survey-likert,407,2706929,0.0-23.0,66909,List2A,black,woman,,,,,"{""Q0"":"""",""Q1"":"""",""Q2"":"""",""Q3"":"""",""Q4"":"""",""Q5"":"""",""Q6"":6,""Q7"":5,""Q8"":6,""Q9"":5,""Q10"":5,""Q11"":4,""Q12"":5,""Q13"":4}",,,likert_gender
60007,,,survey-text,408,2766942,0.0-24.0,66909,List2A,black,woman,,,,,"{""Q0"":""ccc""}",,,worker_id
17019,,,external-html,409,2784138,0.0-25.0,66909,List2A,black,woman,debrief.html,,,,,,,
