rt,stimulus,button_pressed,trial_type,trial_index,time_elapsed,internal_node_id,subject,list,ppt_race,ppt_gender,url,first_guess,correct,key_press,responses,image_type,phrase_type,test_part
2235,Welcome to the experiment. Press Continue to begin.,0,html-button-response,0,2238,0.0-0.0,67128,List1A,black,woman,,,,,,,,
6654,,,external-html,1,9906,0.0-1.0,67128,List1A,black,woman,consent.html,,,,,,,
1426,"<p>On the next page, you will see portraits of 8 people and their names.</p><p>Your first task is to take a few minutes to memorise the names of these people.</p><p>You will have to recall their names during the rest of the experiment, so it is</p><p>essential that you try to memorise these people and their names as best as you can.</p><br><p><strong>You will then be tested on your memory of these names and portraits.</strong></p><br><p>The experiment will start after you have completed this memory test.</p><br><p>Ready?</p>",0,html-button-response,2,11335,0.0-2.0,67128,List1A,black,woman,,,,,,,,
4007,"<img src='img/portrait_matrix_list1.JPG' style='width:900px;height:500px;''></img><p>If you have memorised all the portraits and names and are ready to start, press Continue.</p><p><strong>Please note: Your memory of these faces will be tested 4 times during this experiment.</strong></p>",0,html-button-response,3,16346,0.0-3.0-0.0,67128,List1A,black,woman,,,,,,,,
3442,"<img src=""portrait/BW2.jpg""style=""width:400px;height:400px;""></img>",2,html-button-response,4,20793,0.0-3.0-1.0,67128,List1A,black,woman,,TRUE,2,,,,,
null,CORRECT,,html-keyboard-response,5,22299,0.0-3.0-2.0-0.0,67128,List1A,black,woman,,,,null,,,,
5592,"<img src=""portrait/BW1.jpg""style=""width:400px;height:400px;""></img>",0,html-button-response,6,27895,0.0-3.0-4.0,67128,List1A,black,woman,,TRUE,0,,,,,
null,CORRECT,,html-keyboard-response,7,29399,0.0-3.0-5.0-0.0,67128,List1A,black,woman,,,,null,,,,
2881,"<img src=""portrait/WM2.jpg""style=""width:400px;height:400px;""></img>",7,html-button-response,8,32283,0.0-3.0-7.0,67128,List1A,black,woman,,TRUE,7,,,,,
null,CORRECT,,html-keyboard-response,9,33786,0.0-3.0-8.0-0.0,67128,List1A,black,woman,,,,null,,,,
3076,"<img src=""portrait/WW1.jpg""style=""width:400px;height:400px;""></img>",1,html-button-response,10,36864,0.0-3.0-10.0,67128,List1A,black,woman,,TRUE,1,,,,,
null,CORRECT,,html-keyboard-response,11,38366,0.0-3.0-11.0-0.0,67128,List1A,black,woman,,,,null,,,,
3456,"<img src=""portrait/BM2.jpg""style=""width:400px;height:400px;""></img>",5,html-button-response,12,41824,0.0-3.0-13.0,67128,List1A,black,woman,,TRUE,5,,,,,
null,CORRECT,,html-keyboard-response,13,43326,0.0-3.0-14.0-0.0,67128,List1A,black,woman,,,,null,,,,
2961,"<img src=""portrait/WM1.jpg""style=""width:400px;height:400px;""></img>",6,html-button-response,14,46289,0.0-3.0-16.0,67128,List1A,black,woman,,TRUE,6,,,,,
null,CORRECT,,html-keyboard-response,15,47791,0.0-3.0-17.0-0.0,67128,List1A,black,woman,,,,null,,,,
3495,"<img src=""portrait/BM1.jpg""style=""width:400px;height:400px;""></img>",4,html-button-response,16,51289,0.0-3.0-19.0,67128,List1A,black,woman,,TRUE,4,,,,,
null,CORRECT,,html-keyboard-response,17,52791,0.0-3.0-20.0-0.0,67128,List1A,black,woman,,,,null,,,,
2796,"<img src=""portrait/WW2.jpg""style=""width:400px;height:400px;""></img>",3,html-button-response,18,55590,0.0-3.0-22.0,67128,List1A,black,woman,,TRUE,3,,,,,
null,CORRECT,,html-keyboard-response,19,57092,0.0-3.0-23.0-0.0,67128,List1A,black,woman,,,,null,,,,
1760,<p>You got 8 out of 8 right first time. Press Continue.</p>,0,html-button-response,20,58855,0.0-3.0-25.0,67128,List1A,black,woman,,,,,,,,
9314,"<p>In this experiment, you will view photographs of the people from the memory game interacting.</p><p>By using the <strong>exact</strong> phrase given <i>after</i> the photograph appears and recalling the correct names of the people in the photographs, form a sentence describing the interaction. You do not need to capitalise names.</p><p>Type your answer in the space provided. Please complete every sentence before moving onto the next trial.</p><p>You will only have a few seconds to memorise each given photograph and phrase before you can respond, so try your best to focus.</p><p>An example is given below. Press 'Continue' when you are ready.</p><img src='img/speaking_example_v2.jpg' style='width:800px;height:460px;''></img>",0,html-button-response,21,69174,0.0-4.0,67128,List1A,black,woman,,,,,,,,
1927,"<p>Before the experiment starts, you will watch two example trials. Press 'Continue'.</p>",0,html-button-response,22,72103,0.0-5.0,67128,List1A,black,woman,,,,,,,,
null,<img src='img/speaking_WW.gif'></img>,,html-keyboard-response,23,75105,0.0-6.0,67128,List1A,black,woman,,,,null,,,,
null,<p>is speaking to</p>,,html-keyboard-response,24,77107,0.0-7.0,67128,List1A,black,woman,,,,null,,,,
1698,<p><b>Answer:</b> kate is speaking to beth</p>,0,html-button-response,25,78807,0.0-8.0,67128,List1A,black,woman,,,,,,,,
null,<img src='img/pointing_BM.gif'></img>,,html-keyboard-response,26,81809,0.0-9.0,67128,List1A,black,woman,,,,null,,,,
null,<p>are pointing at each other</p>,,html-keyboard-response,27,83810,0.0-10.0,67128,List1A,black,woman,,,,null,,,,
3909,<p><b>Answer:</b> luke and dave are pointing at each other</p>,0,html-button-response,28,87721,0.0-11.0,67128,List1A,black,woman,,,,,,,,
2897,"<p>Ready to start the experiment?</p><br><p><strong>Remember to describe the picture using a full sentence,</strong></p><p><strong> that combines the names of the people with the given phrase.</strong></p><p><strong> You do not need to capitalise names or use punctuation.</strong></p><br><p>Press 'Continue' to begin.</p>",0,html-button-response,29,91619,0.0-12.0,67128,List1A,black,woman,,,,,,,,
null,"<div style=""font-size:60px;"">+</div>",,html-keyboard-response,30,93122,0.0-13.0-0.0,67128,List1A,black,woman,,,,null,,,,
null,"<img src=""stim_listA/hug8.gif""</stim_listA>",,html-keyboard-response,31,95125,0.0-13.0-1.0,67128,List1A,black,woman,,,,null,,,,
null,are hugging each other,,html-keyboard-response,32,97127,0.0-13.0-2.0,67128,List1A,black,woman,,,,null,,,,
17745,,,survey-text,33,114875,0.0-13.0-3.0,67128,List1A,black,woman,,,,,"{""Q0"":""kate and jane are hugging each other""}","<img src=""stim_listA/hug8.gif""</stim_listA>",are hugging each other,
null,"<div style=""font-size:60px;"">+</div>",,html-keyboard-response,34,115378,0.0-13.0-0.1,67128,List1A,black,woman,,,,null,,,,
null,"<img src=""stim_listA/fight7.gif""</stim_listA>",,html-keyboard-response,35,117381,0.0-13.0-1.1,67128,List1A,black,woman,,,,null,,,,
null,is fighting,,html-keyboard-response,36,119383,0.0-13.0-2.1,67128,List1A,black,woman,,,,null,,,,
10658,,,survey-text,37,130041,0.0-13.0-3.1,67128,List1A,black,woman,,,,,"{""Q0"":""jane is fighting kate""}","<img src=""stim_listA/fight7.gif""</stim_listA>",is fighting,
null,"<div style=""font-size:60px;"">+</div>",,html-keyboard-response,38,130544,0.0-13.0-0.2,67128,List1A,black,woman,,,,null,,,,
null,"<img src=""stim_listA/shout1.gif""</stim_listA>",,html-keyboard-response,39,132549,0.0-13.0-1.2,67128,List1A,black,woman,,,,null,,,,
null,is shouting at,,html-keyboard-response,40,134551,0.0-13.0-2.2,67128,List1A,black,woman,,,,null,,,,
31558,,,survey-text,41,166111,0.0-13.0-3.2,67128,List1A,black,woman,,,,,"{""Q0"":""beth is shouting at fred""}","<img src=""stim_listA/shout1.gif""</stim_listA>",is shouting at,
null,"<div style=""font-size:60px;"">+</div>",,html-keyboard-response,42,166613,0.0-13.0-0.3,67128,List1A,black,woman,,,,null,,,,
null,"<img src=""stim_listA/touch1.gif""</stim_listA>",,html-keyboard-response,43,168615,0.0-13.0-1.3,67128,List1A,black,woman,,,,null,,,,
null,is touching,,html-keyboard-response,44,170617,0.0-13.0-2.3,67128,List1A,black,woman,,,,null,,,,
14103,,,survey-text,45,184721,0.0-13.0-3.3,67128,List1A,black,woman,,,,,"{""Q0"":""mike is touching kate""}","<img src=""stim_listA/touch1.gif""</stim_listA>",is touching,
null,"<div style=""font-size:60px;"">+</div>",,html-keyboard-response,46,185231,0.0-13.0-0.4,67128,List1A,black,woman,,,,null,,,,
null,"<img src=""stim_listA/meet7.gif""</stim_listA>",,html-keyboard-response,47,187233,0.0-13.0-1.4,67128,List1A,black,woman,,,,null,,,,
null,is meeting,,html-keyboard-response,48,189235,0.0-13.0-2.4,67128,List1A,black,woman,,,,null,,,,
8189,,,survey-text,49,197425,0.0-13.0-3.4,67128,List1A,black,woman,,,,,"{""Q0"":""jane is meeting kate""}","<img src=""stim_listA/meet7.gif""</stim_listA>",is meeting,
null,"<div style=""font-size:60px;"">+</div>",,html-keyboard-response,50,197937,0.0-13.0-0.5,67128,List1A,black,woman,,,,null,,,,
null,"<img src=""stim_listA/kiss4.gif""</stim_listA>",,html-keyboard-response,51,199942,0.0-13.0-1.5,67128,List1A,black,woman,,,,null,,,,
null,are kissing each other,,html-keyboard-response,52,201944,0.0-13.0-2.5,67128,List1A,black,woman,,,,null,,,,
15531,,,survey-text,53,217475,0.0-13.0-3.5,67128,List1A,black,woman,,,,,"{""Q0"":""jane and dave are kissing each other""}","<img src=""stim_listA/kiss4.gif""</stim_listA>",are kissing each other,
null,"<div style=""font-size:60px;"">+</div>",,html-keyboard-response,54,217978,0.0-13.0-0.6,67128,List1A,black,woman,,,,null,,,,
null,"<img src=""stim_listA/argue3.gif""</stim_listA>",,html-keyboard-response,55,219981,0.0-13.0-1.6,67128,List1A,black,woman,,,,null,,,,
null,is arguing with,,html-keyboard-response,56,221982,0.0-13.0-2.6,67128,List1A,black,woman,,,,null,,,,
10124,,,survey-text,57,232108,0.0-13.0-3.6,67128,List1A,black,woman,,,,,"{""Q0"":""dave is arguing with ruth""}","<img src=""stim_listA/argue3.gif""</stim_listA>",is arguing with,
null,"<div style=""font-size:60px;"">+</div>",,html-keyboard-response,58,232617,0.0-13.0-0.7,67128,List1A,black,woman,,,,null,,,,
null,"<img src=""stim_listA/shout5.gif""</stim_listA>",,html-keyboard-response,59,234620,0.0-13.0-1.7,67128,List1A,black,woman,,,,null,,,,
null,is shouting at,,html-keyboard-response,60,236622,0.0-13.0-2.7,67128,List1A,black,woman,,,,null,,,,
7969,,,survey-text,61,244593,0.0-13.0-3.7,67128,List1A,black,woman,,,,,"{""Q0"":""fred is shouting at luke""}","<img src=""stim_listA/shout5.gif""</stim_listA>",is shouting at,
null,"<div style=""font-size:60px;"">+</div>",,html-keyboard-response,62,245096,0.0-13.0-0.8,67128,List1A,black,woman,,,,null,,,,
null,"<img src=""stim_listA/kiss2.gif""</stim_listA>",,html-keyboard-response,63,247099,0.0-13.0-1.8,67128,List1A,black,woman,,,,null,,,,
null,are kissing each other,,html-keyboard-response,64,249100,0.0-13.0-2.8,67128,List1A,black,woman,,,,null,,,,
13323,,,survey-text,65,262425,0.0-13.0-3.8,67128,List1A,black,woman,,,,,"{""Q0"":""kate and mike are kissing each other""}","<img src=""stim_listA/kiss2.gif""</stim_listA>",are kissing each other,
null,"<div style=""font-size:60px;"">+</div>",,html-keyboard-response,66,262938,0.0-13.0-0.9,67128,List1A,black,woman,,,,null,,,,
null,"<img src=""stim_listA/meet2.gif""</stim_listA>",,html-keyboard-response,67,264943,0.0-13.0-1.9,67128,List1A,black,woman,,,,null,,,,
null,are meeting each other,,html-keyboard-response,68,266944,0.0-13.0-2.9,67128,List1A,black,woman,,,,null,,,,
13172,,,survey-text,69,280119,0.0-13.0-3.9,67128,List1A,black,woman,,,,,"{""Q0"":""fred and beth are meeting each other""}","<img src=""stim_listA/meet2.gif""</stim_listA>",are meeting each other,
null,"<div style=""font-size:60px;"">+</div>",,html-keyboard-response,70,280620,0.0-13.0-0.10,67128,List1A,black,woman,,,,null,,,,
null,"<img src=""stim_listA/marry7.gif""</stim_listA>",,html-keyboard-response,71,282624,0.0-13.0-1.10,67128,List1A,black,woman,,,,null,,,,
null,is marrying,,html-keyboard-response,72,284626,0.0-13.0-2.10,67128,List1A,black,woman,,,,null,,,,
11711,,,survey-text,73,296338,0.0-13.0-3.10,67128,List1A,black,woman,,,,,"{""Q0"":""ruth is marrying kate""}","<img src=""stim_listA/marry7.gif""</stim_listA>",is marrying,
null,"<div style=""font-size:60px;"">+</div>",,html-keyboard-response,74,296849,0.0-13.0-0.11,67128,List1A,black,woman,,,,null,,,,
null,"<img src=""stim_listA/dance1.gif""</stim_listA>",,html-keyboard-response,75,298852,0.0-13.0-1.11,67128,List1A,black,woman,,,,null,,,,
null,is dancing with,,html-keyboard-response,76,300853,0.0-13.0-2.11,67128,List1A,black,woman,,,,null,,,,
10443,,,survey-text,77,311298,0.0-13.0-3.11,67128,List1A,black,woman,,,,,"{""Q0"":""fred is dancing with kate""}","<img src=""stim_listA/dance1.gif""</stim_listA>",is dancing with,
null,"<div style=""font-size:60px;"">+</div>",,html-keyboard-response,78,311807,0.0-13.0-0.12,67128,List1A,black,woman,,,,null,,,,
null,"<img src=""stim_listA/fight1.gif""</stim_listA>",,html-keyboard-response,79,313809,0.0-13.0-1.12,67128,List1A,black,woman,,,,null,,,,
null,is fighting,,html-keyboard-response,80,315811,0.0-13.0-2.12,67128,List1A,black,woman,,,,null,,,,
7686,,,survey-text,81,323498,0.0-13.0-3.12,67128,List1A,black,woman,,,,,"{""Q0"":""mike is fighting kate""}","<img src=""stim_listA/fight1.gif""</stim_listA>",is fighting,
null,"<div style=""font-size:60px;"">+</div>",,html-keyboard-response,82,324005,0.0-13.0-0.13,67128,List1A,black,woman,,,,null,,,,
null,"<img src=""stim_listA/fight4.gif""</stim_listA>",,html-keyboard-response,83,326008,0.0-13.0-1.13,67128,List1A,black,woman,,,,null,,,,
null,are fighting each other,,html-keyboard-response,84,328017,0.0-13.0-2.13,67128,List1A,black,woman,,,,null,,,,
12218,,,survey-text,85,340237,0.0-13.0-3.13,67128,List1A,black,woman,,,,,"{""Q0"":""luke and ruth are fighting each other""}","<img src=""stim_listA/fight4.gif""</stim_listA>",are fighting each other,
null,"<div style=""font-size:60px;"">+</div>",,html-keyboard-response,86,340738,0.0-13.0-0.14,67128,List1A,black,woman,,,,null,,,,
null,"<img src=""stim_listA/hug2.gif""</stim_listA>",,html-keyboard-response,87,342742,0.0-13.0-1.14,67128,List1A,black,woman,,,,null,,,,
null,are hugging each other,,html-keyboard-response,88,344746,0.0-13.0-2.14,67128,List1A,black,woman,,,,null,,,,
12079,,,survey-text,89,356826,0.0-13.0-3.14,67128,List1A,black,woman,,,,,"{""Q0"":""kate and mike are hugging each other""}","<img src=""stim_listA/hug2.gif""</stim_listA>",are hugging each other,
null,"<div style=""font-size:60px;"">+</div>",,html-keyboard-response,90,357328,0.0-13.0-0.15,67128,List1A,black,woman,,,,null,,,,
null,"<img src=""stim_listA/marry8.gif""</stim_listA>",,html-keyboard-response,91,359330,0.0-13.0-1.15,67128,List1A,black,woman,,,,null,,,,
null,are marrying each other,,html-keyboard-response,92,361332,0.0-13.0-2.15,67128,List1A,black,woman,,,,null,,,,
10740,,,survey-text,93,372074,0.0-13.0-3.15,67128,List1A,black,woman,,,,,"{""Q0"":""ruth and beth are marrying each other""}","<img src=""stim_listA/marry8.gif""</stim_listA>",are marrying each other,
null,"<div style=""font-size:60px;"">+</div>",,html-keyboard-response,94,372576,0.0-13.0-0.16,67128,List1A,black,woman,,,,null,,,,
null,"<img src=""stim_listA/kiss7.gif""</stim_listA>",,html-keyboard-response,95,374579,0.0-13.0-1.16,67128,List1A,black,woman,,,,null,,,,
null,is kissing,,html-keyboard-response,96,376581,0.0-13.0-2.16,67128,List1A,black,woman,,,,null,,,,
8431,,,survey-text,97,385014,0.0-13.0-3.16,67128,List1A,black,woman,,,,,"{""Q0"":""ruth is kissing beth""}","<img src=""stim_listA/kiss7.gif""</stim_listA>",is kissing,
null,"<div style=""font-size:60px;"">+</div>",,html-keyboard-response,98,385517,0.0-13.0-0.17,67128,List1A,black,woman,,,,null,,,,
null,"<img src=""stim_listA/argue6.gif""</stim_listA>",,html-keyboard-response,99,387520,0.0-13.0-1.17,67128,List1A,black,woman,,,,null,,,,
null,are arguing with each other,,html-keyboard-response,100,389522,0.0-13.0-2.17,67128,List1A,black,woman,,,,null,,,,
12322,,,survey-text,101,401845,0.0-13.0-3.17,67128,List1A,black,woman,,,,,"{""Q0"":""dave and fred are arguing with each other""}","<img src=""stim_listA/argue6.gif""</stim_listA>",are arguing with each other,
null,"<div style=""font-size:60px;"">+</div>",,html-keyboard-response,102,402346,0.0-13.0-0.18,67128,List1A,black,woman,,,,null,,,,
null,"<img src=""stim_listA/kiss5.gif""</stim_listA>",,html-keyboard-response,103,404351,0.0-13.0-1.18,67128,List1A,black,woman,,,,null,,,,
null,is kissing,,html-keyboard-response,104,406354,0.0-13.0-2.18,67128,List1A,black,woman,,,,null,,,,
6412,,,survey-text,105,412767,0.0-13.0-3.18,67128,List1A,black,woman,,,,,"{""Q0"":""fred is kissing luke""}","<img src=""stim_listA/kiss5.gif""</stim_listA>",is kissing,
null,"<div style=""font-size:60px;"">+</div>",,html-keyboard-response,106,413275,0.0-13.0-0.19,67128,List1A,black,woman,,,,null,,,,
null,"<img src=""stim_listA/fight8.gif""</stim_listA>",,html-keyboard-response,107,415286,0.0-13.0-1.19,67128,List1A,black,woman,,,,null,,,,
null,are fighting each other,,html-keyboard-response,108,417300,0.0-13.0-2.19,67128,List1A,black,woman,,,,null,,,,
10243,,,survey-text,109,427545,0.0-13.0-3.19,67128,List1A,black,woman,,,,,"{""Q0"":""ruth and beth are fighting each other""}","<img src=""stim_listA/fight8.gif""</stim_listA>",are fighting each other,
4821,"<img src='img/portrait_matrix_list1.JPG' style='width:900px;height:500px;''></img><p>If you have memorised all the portraits and names and are ready to start, press Continue.</p><p><strong>Please note: Your memory of these faces will be tested 4 times during this experiment.</strong></p>",0,html-button-response,110,432369,0.0-14.0-0.0,67128,List1A,black,woman,,,,,,,,
2493,"<img src=""portrait/BM2.jpg""style=""width:400px;height:400px;""></img>",5,html-button-response,111,435865,0.0-14.0-1.0,67128,List1A,black,woman,,TRUE,5,,,,,
null,CORRECT,,html-keyboard-response,112,437367,0.0-14.0-2.0-0.0,67128,List1A,black,woman,,,,null,,,,
1790,"<img src=""portrait/WM1.jpg""style=""width:400px;height:400px;""></img>",6,html-button-response,113,439161,0.0-14.0-4.0,67128,List1A,black,woman,,TRUE,6,,,,,
null,CORRECT,,html-keyboard-response,114,440663,0.0-14.0-5.0-0.0,67128,List1A,black,woman,,,,null,,,,
2207,"<img src=""portrait/BW1.jpg""style=""width:400px;height:400px;""></img>",0,html-button-response,115,442872,0.0-14.0-7.0,67128,List1A,black,woman,,TRUE,0,,,,,
null,CORRECT,,html-keyboard-response,116,444375,0.0-14.0-8.0-0.0,67128,List1A,black,woman,,,,null,,,,
1723,"<img src=""portrait/WW1.jpg""style=""width:400px;height:400px;""></img>",1,html-button-response,117,446100,0.0-14.0-10.0,67128,List1A,black,woman,,TRUE,1,,,,,
null,CORRECT,,html-keyboard-response,118,447602,0.0-14.0-11.0-0.0,67128,List1A,black,woman,,,,null,,,,
1475,"<img src=""portrait/WW2.jpg""style=""width:400px;height:400px;""></img>",3,html-button-response,119,449079,0.0-14.0-13.0,67128,List1A,black,woman,,TRUE,3,,,,,
null,CORRECT,,html-keyboard-response,120,450581,0.0-14.0-14.0-0.0,67128,List1A,black,woman,,,,null,,,,
1760,"<img src=""portrait/WM2.jpg""style=""width:400px;height:400px;""></img>",7,html-button-response,121,452343,0.0-14.0-16.0,67128,List1A,black,woman,,TRUE,7,,,,,
null,CORRECT,,html-keyboard-response,122,453845,0.0-14.0-17.0-0.0,67128,List1A,black,woman,,,,null,,,,
2507,"<img src=""portrait/BM1.jpg""style=""width:400px;height:400px;""></img>",4,html-button-response,123,456355,0.0-14.0-19.0,67128,List1A,black,woman,,TRUE,4,,,,,
null,CORRECT,,html-keyboard-response,124,457857,0.0-14.0-20.0-0.0,67128,List1A,black,woman,,,,null,,,,
4442,"<img src=""portrait/BW2.jpg""style=""width:400px;height:400px;""></img>",2,html-button-response,125,462301,0.0-14.0-22.0,67128,List1A,black,woman,,TRUE,2,,,,,
null,CORRECT,,html-keyboard-response,126,463804,0.0-14.0-23.0-0.0,67128,List1A,black,woman,,,,null,,,,
1600,<p>You got 8 out of 8 right first time. Press Continue.</p>,0,html-button-response,127,465405,0.0-14.0-25.0,67128,List1A,black,woman,,,,,,,,
null,"<div style=""font-size:60px;"">+</div>",,html-keyboard-response,128,466910,0.0-15.0-0.0,67128,List1A,black,woman,,,,null,,,,
null,"<img src=""stim_listA/talk1.gif""</stim_listA>",,html-keyboard-response,129,468914,0.0-15.0-1.0,67128,List1A,black,woman,,,,null,,,,
null,is talking to,,html-keyboard-response,130,470915,0.0-15.0-2.0,67128,List1A,black,woman,,,,null,,,,
6970,,,survey-text,131,477886,0.0-15.0-3.0,67128,List1A,black,woman,,,,,"{""Q0"":""fred is talking to kate""}","<img src=""stim_listA/talk1.gif""</stim_listA>",is talking to,
null,"<div style=""font-size:60px;"">+</div>",,html-keyboard-response,132,478387,0.0-15.0-0.1,67128,List1A,black,woman,,,,null,,,,
null,"<img src=""stim_listA/touch3.gif""</stim_listA>",,html-keyboard-response,133,480402,0.0-15.0-1.1,67128,List1A,black,woman,,,,null,,,,
null,is touching,,html-keyboard-response,134,482404,0.0-15.0-2.1,67128,List1A,black,woman,,,,null,,,,
8967,,,survey-text,135,491373,0.0-15.0-3.1,67128,List1A,black,woman,,,,,"{""Q0"":""dave is touching jane""}","<img src=""stim_listA/touch3.gif""</stim_listA>",is touching,
null,"<div style=""font-size:60px;"">+</div>",,html-keyboard-response,136,491884,0.0-15.0-0.2,67128,List1A,black,woman,,,,null,,,,
null,"<img src=""stim_listA/marry5.gif""</stim_listA>",,html-keyboard-response,137,493889,0.0-15.0-1.2,67128,List1A,black,woman,,,,null,,,,
null,is marrying,,html-keyboard-response,138,495895,0.0-15.0-2.2,67128,List1A,black,woman,,,,null,,,,
7079,,,survey-text,139,502976,0.0-15.0-3.2,67128,List1A,black,woman,,,,,"{""Q0"":""luke is marrying mike""}","<img src=""stim_listA/marry5.gif""</stim_listA>",is marrying,
null,"<div style=""font-size:60px;"">+</div>",,html-keyboard-response,140,503482,0.0-15.0-0.3,67128,List1A,black,woman,,,,null,,,,
null,"<img src=""stim_listA/touch6.gif""</stim_listA>",,html-keyboard-response,141,505487,0.0-15.0-1.3,67128,List1A,black,woman,,,,null,,,,
null,are touching each other,,html-keyboard-response,142,507492,0.0-15.0-2.3,67128,List1A,black,woman,,,,null,,,,
11199,,,survey-text,143,518692,0.0-15.0-3.3,67128,List1A,black,woman,,,,,"{""Q0"":""luke and fred are touching each other""}","<img src=""stim_listA/touch6.gif""</stim_listA>",are touching each other,
null,"<div style=""font-size:60px;"">+</div>",,html-keyboard-response,144,519194,0.0-15.0-0.4,67128,List1A,black,woman,,,,null,,,,
null,"<img src=""stim_listA/meet8.gif""</stim_listA>",,html-keyboard-response,145,521197,0.0-15.0-1.4,67128,List1A,black,woman,,,,null,,,,
null,are meeting each other,,html-keyboard-response,146,523198,0.0-15.0-2.4,67128,List1A,black,woman,,,,null,,,,
12264,,,survey-text,147,535464,0.0-15.0-3.4,67128,List1A,black,woman,,,,,"{""Q0"":""ruth and beth are meeting each other""}","<img src=""stim_listA/meet8.gif""</stim_listA>",are meeting each other,
null,"<div style=""font-size:60px;"">+</div>",,html-keyboard-response,148,535965,0.0-15.0-0.5,67128,List1A,black,woman,,,,null,,,,
null,"<img src=""stim_listA/meet6.gif""</stim_listA>",,html-keyboard-response,149,537969,0.0-15.0-1.5,67128,List1A,black,woman,,,,null,,,,
null,are meeting each other,,html-keyboard-response,150,539971,0.0-15.0-2.5,67128,List1A,black,woman,,,,null,,,,
9279,,,survey-text,151,549251,0.0-15.0-3.5,67128,List1A,black,woman,,,,,"{""Q0"":""luke and fred are meeting each other""}","<img src=""stim_listA/meet6.gif""</stim_listA>",are meeting each other,
null,"<div style=""font-size:60px;"">+</div>",,html-keyboard-response,152,549752,0.0-15.0-0.6,67128,List1A,black,woman,,,,null,,,,
null,"<img src=""stim_listA/dance7.gif""</stim_listA>",,html-keyboard-response,153,551756,0.0-15.0-1.6,67128,List1A,black,woman,,,,null,,,,
null,is dancing with,,html-keyboard-response,154,553758,0.0-15.0-2.6,67128,List1A,black,woman,,,,null,,,,
8580,,,survey-text,155,562339,0.0-15.0-3.6,67128,List1A,black,woman,,,,,"{""Q0"":""jane is dancing with beth""}","<img src=""stim_listA/dance7.gif""</stim_listA>",is dancing with,
null,"<div style=""font-size:60px;"">+</div>",,html-keyboard-response,156,562850,0.0-15.0-0.7,67128,List1A,black,woman,,,,null,,,,
null,"<img src=""stim_listA/kiss8.gif""</stim_listA>",,html-keyboard-response,157,564855,0.0-15.0-1.7,67128,List1A,black,woman,,,,null,,,,
null,are kissing each other,,html-keyboard-response,158,566856,0.0-15.0-2.7,67128,List1A,black,woman,,,,null,,,,
11167,,,survey-text,159,578025,0.0-15.0-3.7,67128,List1A,black,woman,,,,,"{""Q0"":""jane and kate are kissing each other""}","<img src=""stim_listA/kiss8.gif""</stim_listA>",are kissing each other,
null,"<div style=""font-size:60px;"">+</div>",,html-keyboard-response,160,578527,0.0-15.0-0.8,67128,List1A,black,woman,,,,null,,,,
null,"<img src=""stim_listA/shout4.gif""</stim_listA>",,html-keyboard-response,161,580530,0.0-15.0-1.8,67128,List1A,black,woman,,,,null,,,,
null,are shouting at each other,,html-keyboard-response,162,582532,0.0-15.0-2.8,67128,List1A,black,woman,,,,null,,,,
11987,,,survey-text,163,594521,0.0-15.0-3.8,67128,List1A,black,woman,,,,,"{""Q0"":""jane and dave are shouting at each other""}","<img src=""stim_listA/shout4.gif""</stim_listA>",are shouting at each other,
null,"<div style=""font-size:60px;"">+</div>",,html-keyboard-response,164,595023,0.0-15.0-0.9,67128,List1A,black,woman,,,,null,,,,
null,"<img src=""stim_listA/touch2.gif""</stim_listA>",,html-keyboard-response,165,597026,0.0-15.0-1.9,67128,List1A,black,woman,,,,null,,,,
null,are touching each other,,html-keyboard-response,166,599029,0.0-15.0-2.9,67128,List1A,black,woman,,,,null,,,,
11898,,,survey-text,167,610928,0.0-15.0-3.9,67128,List1A,black,woman,,,,,"{""Q0"":""beth and fred are touching each other""}","<img src=""stim_listA/touch2.gif""</stim_listA>",are touching each other,
null,"<div style=""font-size:60px;"">+</div>",,html-keyboard-response,168,611430,0.0-15.0-0.10,67128,List1A,black,woman,,,,null,,,,
null,"<img src=""stim_listA/touch7.gif""</stim_listA>",,html-keyboard-response,169,613434,0.0-15.0-1.10,67128,List1A,black,woman,,,,null,,,,
null,is touching,,html-keyboard-response,170,615435,0.0-15.0-2.10,67128,List1A,black,woman,,,,null,,,,
9997,,,survey-text,171,625434,0.0-15.0-3.10,67128,List1A,black,woman,,,,,"{""Q0"":""kate is touching jane""}","<img src=""stim_listA/touch7.gif""</stim_listA>",is touching,
null,"<div style=""font-size:60px;"">+</div>",,html-keyboard-response,172,625944,0.0-15.0-0.11,67128,List1A,black,woman,,,,null,,,,
null,"<img src=""stim_listA/hug4.gif""</stim_listA>",,html-keyboard-response,173,627947,0.0-15.0-1.11,67128,List1A,black,woman,,,,null,,,,
null,are hugging each other,,html-keyboard-response,174,629949,0.0-15.0-2.11,67128,List1A,black,woman,,,,null,,,,
10799,,,survey-text,175,640749,0.0-15.0-3.11,67128,List1A,black,woman,,,,,"{""Q0"":""jane and dave are hugging each other""}","<img src=""stim_listA/hug4.gif""</stim_listA>",are hugging each other,
null,"<div style=""font-size:60px;"">+</div>",,html-keyboard-response,176,641252,0.0-15.0-0.12,67128,List1A,black,woman,,,,null,,,,
null,"<img src=""stim_listA/argue4.gif""</stim_listA>",,html-keyboard-response,177,643256,0.0-15.0-1.12,67128,List1A,black,woman,,,,null,,,,
null,are arguing with each other,,html-keyboard-response,178,645258,0.0-15.0-2.12,67128,List1A,black,woman,,,,null,,,,
11442,,,survey-text,179,656701,0.0-15.0-3.12,67128,List1A,black,woman,,,,,"{""Q0"":""jane and luke are arguing with each other""}","<img src=""stim_listA/argue4.gif""</stim_listA>",are arguing with each other,
null,"<div style=""font-size:60px;"">+</div>",,html-keyboard-response,180,657204,0.0-15.0-0.13,67128,List1A,black,woman,,,,null,,,,
null,"<img src=""stim_listA/kiss1.gif""</stim_listA>",,html-keyboard-response,181,659206,0.0-15.0-1.13,67128,List1A,black,woman,,,,null,,,,
null,is kissing,,html-keyboard-response,182,661207,0.0-15.0-2.13,67128,List1A,black,woman,,,,null,,,,
5317,,,survey-text,183,666525,0.0-15.0-3.13,67128,List1A,black,woman,,,,,"{""Q0"":""fred is kissing beth""}","<img src=""stim_listA/kiss1.gif""</stim_listA>",is kissing,
null,"<div style=""font-size:60px;"">+</div>",,html-keyboard-response,184,667034,0.0-15.0-0.14,67128,List1A,black,woman,,,,null,,,,
null,"<img src=""stim_listA/marry1.gif""</stim_listA>",,html-keyboard-response,185,669036,0.0-15.0-1.14,67128,List1A,black,woman,,,,null,,,,
null,is marrying,,html-keyboard-response,186,671043,0.0-15.0-2.14,67128,List1A,black,woman,,,,null,,,,
7083,,,survey-text,187,678126,0.0-15.0-3.14,67128,List1A,black,woman,,,,,"{""Q0"":""mike is marrying beth""}","<img src=""stim_listA/marry1.gif""</stim_listA>",is marrying,
null,"<div style=""font-size:60px;"">+</div>",,html-keyboard-response,188,678641,0.0-15.0-0.15,67128,List1A,black,woman,,,,null,,,,
null,"<img src=""stim_listA/shout7.gif""</stim_listA>",,html-keyboard-response,189,680658,0.0-15.0-1.15,67128,List1A,black,woman,,,,null,,,,
null,is shouting at,,html-keyboard-response,190,682660,0.0-15.0-2.15,67128,List1A,black,woman,,,,null,,,,
7431,,,survey-text,191,690093,0.0-15.0-3.15,67128,List1A,black,woman,,,,,"{""Q0"":""beth is shouting at ruth""}","<img src=""stim_listA/shout7.gif""</stim_listA>",is shouting at,
null,"<div style=""font-size:60px;"">+</div>",,html-keyboard-response,192,690595,0.0-15.0-0.16,67128,List1A,black,woman,,,,null,,,,
null,"<img src=""stim_listA/shout6.gif""</stim_listA>",,html-keyboard-response,193,692605,0.0-15.0-1.16,67128,List1A,black,woman,,,,null,,,,
null,are shouting at each other,,html-keyboard-response,194,694613,0.0-15.0-2.16,67128,List1A,black,woman,,,,null,,,,
10648,,,survey-text,195,705263,0.0-15.0-3.16,67128,List1A,black,woman,,,,,"{""Q0"":""dave and mike are shouting at each other""}","<img src=""stim_listA/shout6.gif""</stim_listA>",are shouting at each other,
null,"<div style=""font-size:60px;"">+</div>",,html-keyboard-response,196,705764,0.0-15.0-0.17,67128,List1A,black,woman,,,,null,,,,
null,"<img src=""stim_listA/marry3.gif""</stim_listA>",,html-keyboard-response,197,707778,0.0-15.0-1.17,67128,List1A,black,woman,,,,null,,,,
null,is marrying,,html-keyboard-response,198,709780,0.0-15.0-2.17,67128,List1A,black,woman,,,,null,,,,
10071,,,survey-text,199,719852,0.0-15.0-3.17,67128,List1A,black,woman,,,,,"{""Q0"":""dave is marrying ruth""}","<img src=""stim_listA/marry3.gif""</stim_listA>",is marrying,
null,"<div style=""font-size:60px;"">+</div>",,html-keyboard-response,200,720369,0.0-15.0-0.18,67128,List1A,black,woman,,,,null,,,,
null,"<img src=""stim_listA/fight5.gif""</stim_listA>",,html-keyboard-response,201,722373,0.0-15.0-1.18,67128,List1A,black,woman,,,,null,,,,
null,is fighting,,html-keyboard-response,202,724375,0.0-15.0-2.18,67128,List1A,black,woman,,,,null,,,,
6002,,,survey-text,203,730384,0.0-15.0-3.18,67128,List1A,black,woman,,,,,"{""Q0"":""mike is fighting dave""}","<img src=""stim_listA/fight5.gif""</stim_listA>",is fighting,
null,"<div style=""font-size:60px;"">+</div>",,html-keyboard-response,204,730892,0.0-15.0-0.19,67128,List1A,black,woman,,,,null,,,,
null,"<img src=""stim_listA/fight6.gif""</stim_listA>",,html-keyboard-response,205,732897,0.0-15.0-1.19,67128,List1A,black,woman,,,,null,,,,
null,are fighting each other,,html-keyboard-response,206,734907,0.0-15.0-2.19,67128,List1A,black,woman,,,,null,,,,
9462,,,survey-text,207,744371,0.0-15.0-3.19,67128,List1A,black,woman,,,,,"{""Q0"":""luke and fred are fighting each other""}","<img src=""stim_listA/fight6.gif""</stim_listA>",are fighting each other,
3683,"<img src='img/portrait_matrix_list1.JPG' style='width:900px;height:500px;''></img><p>If you have memorised all the portraits and names and are ready to start, press Continue.</p><p><strong>Please note: Your memory of these faces will be tested 4 times during this experiment.</strong></p>",0,html-button-response,208,748055,0.0-16.0-0.0,67128,List1A,black,woman,,,,,,,,
1574,"<img src=""portrait/BM2.jpg""style=""width:400px;height:400px;""></img>",5,html-button-response,209,750633,0.0-16.0-1.0,67128,List1A,black,woman,,TRUE,5,,,,,
null,CORRECT,,html-keyboard-response,210,752136,0.0-16.0-2.0-0.0,67128,List1A,black,woman,,,,null,,,,
1537,"<img src=""portrait/BW2.jpg""style=""width:400px;height:400px;""></img>",2,html-button-response,211,753676,0.0-16.0-4.0,67128,List1A,black,woman,,TRUE,2,,,,,
null,CORRECT,,html-keyboard-response,212,755180,0.0-16.0-5.0-0.0,67128,List1A,black,woman,,,,null,,,,
1680,"<img src=""portrait/WM1.jpg""style=""width:400px;height:400px;""></img>",6,html-button-response,213,756862,0.0-16.0-7.0,67128,List1A,black,woman,,TRUE,6,,,,,
null,CORRECT,,html-keyboard-response,214,758365,0.0-16.0-8.0-0.0,67128,List1A,black,woman,,,,null,,,,
1747,"<img src=""portrait/WW1.jpg""style=""width:400px;height:400px;""></img>",1,html-button-response,215,760115,0.0-16.0-10.0,67128,List1A,black,woman,,TRUE,1,,,,,
null,CORRECT,,html-keyboard-response,216,761617,0.0-16.0-11.0-0.0,67128,List1A,black,woman,,,,null,,,,
1318,"<img src=""portrait/WW2.jpg""style=""width:400px;height:400px;""></img>",3,html-button-response,217,762937,0.0-16.0-13.0,67128,List1A,black,woman,,TRUE,3,,,,,
null,CORRECT,,html-keyboard-response,218,764439,0.0-16.0-14.0-0.0,67128,List1A,black,woman,,,,null,,,,
3072,"<img src=""portrait/BW1.jpg""style=""width:400px;height:400px;""></img>",0,html-button-response,219,767514,0.0-16.0-16.0,67128,List1A,black,woman,,TRUE,0,,,,,
null,CORRECT,,html-keyboard-response,220,769016,0.0-16.0-17.0-0.0,67128,List1A,black,woman,,,,null,,,,
1684,"<img src=""portrait/WM2.jpg""style=""width:400px;height:400px;""></img>",7,html-button-response,221,770704,0.0-16.0-19.0,67128,List1A,black,woman,,TRUE,7,,,,,
null,CORRECT,,html-keyboard-response,222,772206,0.0-16.0-20.0-0.0,67128,List1A,black,woman,,,,null,,,,
1267,"<img src=""portrait/BM1.jpg""style=""width:400px;height:400px;""></img>",4,html-button-response,223,773476,0.0-16.0-22.0,67128,List1A,black,woman,,TRUE,4,,,,,
null,CORRECT,,html-keyboard-response,224,774978,0.0-16.0-23.0-0.0,67128,List1A,black,woman,,,,null,,,,
1523,<p>You got 8 out of 8 right first time. Press Continue.</p>,0,html-button-response,225,776502,0.0-16.0-25.0,67128,List1A,black,woman,,,,,,,,
null,"<div style=""font-size:60px;"">+</div>",,html-keyboard-response,226,778005,0.0-17.0-0.0,67128,List1A,black,woman,,,,null,,,,
null,"<img src=""stim_listA/dance3.gif""</stim_listA>",,html-keyboard-response,227,780008,0.0-17.0-1.0,67128,List1A,black,woman,,,,null,,,,
null,is dancing with,,html-keyboard-response,228,782010,0.0-17.0-2.0,67128,List1A,black,woman,,,,null,,,,
7353,,,survey-text,229,789365,0.0-17.0-3.0,67128,List1A,black,woman,,,,,"{""Q0"":""luke is dancing with jane""}","<img src=""stim_listA/dance3.gif""</stim_listA>",is dancing with,
null,"<div style=""font-size:60px;"">+</div>",,html-keyboard-response,230,789876,0.0-17.0-0.1,67128,List1A,black,woman,,,,null,,,,
null,"<img src=""stim_listA/argue8.gif""</stim_listA>",,html-keyboard-response,231,791888,0.0-17.0-1.1,67128,List1A,black,woman,,,,null,,,,
null,are arguing with each other,,html-keyboard-response,232,793890,0.0-17.0-2.1,67128,List1A,black,woman,,,,null,,,,
11049,,,survey-text,233,804941,0.0-17.0-3.1,67128,List1A,black,woman,,,,,"{""Q0"":""jane and beth are arguing with each other""}","<img src=""stim_listA/argue8.gif""</stim_listA>",are arguing with each other,
null,"<div style=""font-size:60px;"">+</div>",,html-keyboard-response,234,805443,0.0-17.0-0.2,67128,List1A,black,woman,,,,null,,,,
null,"<img src=""stim_listA/argue7.gif""</stim_listA>",,html-keyboard-response,235,807446,0.0-17.0-1.2,67128,List1A,black,woman,,,,null,,,,
null,is arguing with,,html-keyboard-response,236,809448,0.0-17.0-2.2,67128,List1A,black,woman,,,,null,,,,
7961,,,survey-text,237,817411,0.0-17.0-3.2,67128,List1A,black,woman,,,,,"{""Q0"":""kate is arguing with ruth""}","<img src=""stim_listA/argue7.gif""</stim_listA>",is arguing with,
null,"<div style=""font-size:60px;"">+</div>",,html-keyboard-response,238,818178,0.0-17.0-0.3,67128,List1A,black,woman,,,,null,,,,
null,"<img src=""stim_listA/marry2.gif""</stim_listA>",,html-keyboard-response,239,821174,0.0-17.0-1.3,67128,List1A,black,woman,,,,null,,,,
null,are marrying each other,,html-keyboard-response,240,823176,0.0-17.0-2.3,67128,List1A,black,woman,,,,null,,,,
34090,,,survey-text,241,857267,0.0-17.0-3.3,67128,List1A,black,woman,,,,,"{""Q0"":""""}","<img src=""stim_listA/marry2.gif""</stim_listA>",are marrying each other,
null,"<div style=""font-size:60px;"">+</div>",,html-keyboard-response,242,857769,0.0-17.0-0.4,67128,List1A,black,woman,,,,null,,,,
null,"<img src=""stim_listA/dance6.gif""</stim_listA>",,html-keyboard-response,243,859772,0.0-17.0-1.4,67128,List1A,black,woman,,,,null,,,,
null,are dancing with each other,,html-keyboard-response,244,861774,0.0-17.0-2.4,67128,List1A,black,woman,,,,null,,,,
28542,,,survey-text,245,890318,0.0-17.0-3.4,67128,List1A,black,woman,,,,,"{""Q0"":""luke and mike are dancing with each other""}","<img src=""stim_listA/dance6.gif""</stim_listA>",are dancing with each other,
null,"<div style=""font-size:60px;"">+</div>",,html-keyboard-response,246,890820,0.0-17.0-0.5,67128,List1A,black,woman,,,,null,,,,
null,"<img src=""stim_listA/talk5.gif""</stim_listA>",,html-keyboard-response,247,892822,0.0-17.0-1.5,67128,List1A,black,woman,,,,null,,,,
null,is talking to,,html-keyboard-response,248,894823,0.0-17.0-2.5,67128,List1A,black,woman,,,,null,,,,
7125,,,survey-text,249,901951,0.0-17.0-3.5,67128,List1A,black,woman,,,,,"{""Q0"":""fred is talking to dave""}","<img src=""stim_listA/talk5.gif""</stim_listA>",is talking to,
null,"<div style=""font-size:60px;"">+</div>",,html-keyboard-response,250,902455,0.0-17.0-0.6,67128,List1A,black,woman,,,,null,,,,
null,"<img src=""stim_listA/kiss3.gif""</stim_listA>",,html-keyboard-response,251,904462,0.0-17.0-1.6,67128,List1A,black,woman,,,,null,,,,
null,is kissing,,html-keyboard-response,252,906463,0.0-17.0-2.6,67128,List1A,black,woman,,,,null,,,,
6333,,,survey-text,253,912798,0.0-17.0-3.6,67128,List1A,black,woman,,,,,"{""Q0"":""luke is kissing ruth""}","<img src=""stim_listA/kiss3.gif""</stim_listA>",is kissing,
null,"<div style=""font-size:60px;"">+</div>",,html-keyboard-response,254,913303,0.0-17.0-0.7,67128,List1A,black,woman,,,,null,,,,
null,"<img src=""stim_listA/argue1.gif""</stim_listA>",,html-keyboard-response,255,915301,0.0-17.0-1.7,67128,List1A,black,woman,,,,null,,,,
null,is arguing with,,html-keyboard-response,256,917317,0.0-17.0-2.7,67128,List1A,black,woman,,,,null,,,,
6852,,,survey-text,257,924170,0.0-17.0-3.7,67128,List1A,black,woman,,,,,"{""Q0"":""mike is arguing with beth""}","<img src=""stim_listA/argue1.gif""</stim_listA>",is arguing with,
null,"<div style=""font-size:60px;"">+</div>",,html-keyboard-response,258,924679,0.0-17.0-0.8,67128,List1A,black,woman,,,,null,,,,
null,"<img src=""stim_listA/fight2.gif""</stim_listA>",,html-keyboard-response,259,926682,0.0-17.0-1.8,67128,List1A,black,woman,,,,null,,,,
null,are fighting each other,,html-keyboard-response,260,928687,0.0-17.0-2.8,67128,List1A,black,woman,,,,null,,,,
11797,,,survey-text,261,940486,0.0-17.0-3.8,67128,List1A,black,woman,,,,,"{""Q0"":""beth and fred are arguing with each other""}","<img src=""stim_listA/fight2.gif""</stim_listA>",are fighting each other,
null,"<div style=""font-size:60px;"">+</div>",,html-keyboard-response,262,940988,0.0-17.0-0.9,67128,List1A,black,woman,,,,null,,,,
null,"<img src=""stim_listA/dance4.gif""</stim_listA>",,html-keyboard-response,263,942990,0.0-17.0-1.9,67128,List1A,black,woman,,,,null,,,,
null,are dancing with each other,,html-keyboard-response,264,944992,0.0-17.0-2.9,67128,List1A,black,woman,,,,null,,,,
11174,,,survey-text,265,956168,0.0-17.0-3.9,67128,List1A,black,woman,,,,,"{""Q0"":""ruth and dave are dancing with each other""}","<img src=""stim_listA/dance4.gif""</stim_listA>",are dancing with each other,
null,"<div style=""font-size:60px;"">+</div>",,html-keyboard-response,266,956670,0.0-17.0-0.10,67128,List1A,black,woman,,,,null,,,,
null,"<img src=""stim_listA/kiss6.gif""</stim_listA>",,html-keyboard-response,267,958672,0.0-17.0-1.10,67128,List1A,black,woman,,,,null,,,,
null,are kissing each other,,html-keyboard-response,268,960674,0.0-17.0-2.10,67128,List1A,black,woman,,,,null,,,,
6433,,,survey-text,269,967109,0.0-17.0-3.10,67128,List1A,black,woman,,,,,"{""Q0"":""dave and mike are kissing each other""}","<img src=""stim_listA/kiss6.gif""</stim_listA>",are kissing each other,
null,"<div style=""font-size:60px;"">+</div>",,html-keyboard-response,270,967618,0.0-17.0-0.11,67128,List1A,black,woman,,,,null,,,,
null,"<img src=""stim_listA/talk8.gif""</stim_listA>",,html-keyboard-response,271,969620,0.0-17.0-1.11,67128,List1A,black,woman,,,,null,,,,
null,are talking to each other,,html-keyboard-response,272,971622,0.0-17.0-2.11,67128,List1A,black,woman,,,,null,,,,
6230,,,survey-text,273,977854,0.0-17.0-3.11,67128,List1A,black,woman,,,,,"{""Q0"":""ruth and kate are talking to each other""}","<img src=""stim_listA/talk8.gif""</stim_listA>",are talking to each other,
null,"<div style=""font-size:60px;"">+</div>",,html-keyboard-response,274,978371,0.0-17.0-0.12,67128,List1A,black,woman,,,,null,,,,
null,"<img src=""stim_listA/shout2.gif""</stim_listA>",,html-keyboard-response,275,980374,0.0-17.0-1.12,67128,List1A,black,woman,,,,null,,,,
null,are shouting at each other,,html-keyboard-response,276,982376,0.0-17.0-2.12,67128,List1A,black,woman,,,,null,,,,
7702,,,survey-text,277,990079,0.0-17.0-3.12,67128,List1A,black,woman,,,,,"{""Q0"":""kate and mike are shouting at each other""}","<img src=""stim_listA/shout2.gif""</stim_listA>",are shouting at each other,
null,"<div style=""font-size:60px;"">+</div>",,html-keyboard-response,278,990581,0.0-17.0-0.13,67128,List1A,black,woman,,,,null,,,,
null,"<img src=""stim_listA/fight3.gif""</stim_listA>",,html-keyboard-response,279,992583,0.0-17.0-1.13,67128,List1A,black,woman,,,,null,,,,
null,is fighting,,html-keyboard-response,280,994584,0.0-17.0-2.13,67128,List1A,black,woman,,,,null,,,,
4161,,,survey-text,281,998747,0.0-17.0-3.13,67128,List1A,black,woman,,,,,"{""Q0"":""dave is fighting jane""}","<img src=""stim_listA/fight3.gif""</stim_listA>",is fighting,
null,"<div style=""font-size:60px;"">+</div>",,html-keyboard-response,282,999253,0.0-17.0-0.14,67128,List1A,black,woman,,,,null,,,,
null,"<img src=""stim_listA/hug7.gif""</stim_listA>",,html-keyboard-response,283,1001263,0.0-17.0-1.14,67128,List1A,black,woman,,,,null,,,,
null,is hugging,,html-keyboard-response,284,1003264,0.0-17.0-2.14,67128,List1A,black,woman,,,,null,,,,
5564,,,survey-text,285,1008831,0.0-17.0-3.14,67128,List1A,black,woman,,,,,"{""Q0"":""beth is hugging ruth""}","<img src=""stim_listA/hug7.gif""</stim_listA>",is hugging,
null,"<div style=""font-size:60px;"">+</div>",,html-keyboard-response,286,1009343,0.0-17.0-0.15,67128,List1A,black,woman,,,,null,,,,
null,"<img src=""stim_listA/talk4.gif""</stim_listA>",,html-keyboard-response,287,1011346,0.0-17.0-1.15,67128,List1A,black,woman,,,,null,,,,
null,are talking to each other,,html-keyboard-response,288,1013347,0.0-17.0-2.15,67128,List1A,black,woman,,,,null,,,,
7115,,,survey-text,289,1020463,0.0-17.0-3.15,67128,List1A,black,woman,,,,,"{""Q0"":""ruth and dave are talking to each other""}","<img src=""stim_listA/talk4.gif""</stim_listA>",are talking to each other,
null,"<div style=""font-size:60px;"">+</div>",,html-keyboard-response,290,1020965,0.0-17.0-0.16,67128,List1A,black,woman,,,,null,,,,
null,"<img src=""stim_listA/meet4.gif""</stim_listA>",,html-keyboard-response,291,1022968,0.0-17.0-1.16,67128,List1A,black,woman,,,,null,,,,
null,are meeting each other,,html-keyboard-response,292,1024970,0.0-17.0-2.16,67128,List1A,black,woman,,,,null,,,,
5933,,,survey-text,293,1030904,0.0-17.0-3.16,67128,List1A,black,woman,,,,,"{""Q0"":""ruth and luke are meeting each other""}","<img src=""stim_listA/meet4.gif""</stim_listA>",are meeting each other,
null,"<div style=""font-size:60px;"">+</div>",,html-keyboard-response,294,1031416,0.0-17.0-0.17,67128,List1A,black,woman,,,,null,,,,
null,"<img src=""stim_listA/dance2.gif""</stim_listA>",,html-keyboard-response,295,1033419,0.0-17.0-1.17,67128,List1A,black,woman,,,,null,,,,
null,are dancing with each other,,html-keyboard-response,296,1035433,0.0-17.0-2.17,67128,List1A,black,woman,,,,null,,,,
6178,,,survey-text,297,1041613,0.0-17.0-3.17,67128,List1A,black,woman,,,,,"{""Q0"":""beth and mike are dancing with each other""}","<img src=""stim_listA/dance2.gif""</stim_listA>",are dancing with each other,
null,"<div style=""font-size:60px;"">+</div>",,html-keyboard-response,298,1042115,0.0-17.0-0.18,67128,List1A,black,woman,,,,null,,,,
null,"<img src=""stim_listA/touch4.gif""</stim_listA>",,html-keyboard-response,299,1044118,0.0-17.0-1.18,67128,List1A,black,woman,,,,null,,,,
null,are touching each other,,html-keyboard-response,300,1046120,0.0-17.0-2.18,67128,List1A,black,woman,,,,null,,,,
6057,,,survey-text,301,1052178,0.0-17.0-3.18,67128,List1A,black,woman,,,,,"{""Q0"":""ruth and luke are touching each other""}","<img src=""stim_listA/touch4.gif""</stim_listA>",are touching each other,
null,"<div style=""font-size:60px;"">+</div>",,html-keyboard-response,302,1052688,0.0-17.0-0.19,67128,List1A,black,woman,,,,null,,,,
null,"<img src=""stim_listA/shout3.gif""</stim_listA>",,html-keyboard-response,303,1054690,0.0-17.0-1.19,67128,List1A,black,woman,,,,null,,,,
null,is shouting at,,html-keyboard-response,304,1056692,0.0-17.0-2.19,67128,List1A,black,woman,,,,null,,,,
4393,,,survey-text,305,1061086,0.0-17.0-3.19,67128,List1A,black,woman,,,,,"{""Q0"":""ruth is shouting at luke""}","<img src=""stim_listA/shout3.gif""</stim_listA>",is shouting at,
1768,"<img src='img/portrait_matrix_list1.JPG' style='width:900px;height:500px;''></img><p>If you have memorised all the portraits and names and are ready to start, press Continue.</p><p><strong>Please note: Your memory of these faces will be tested 4 times during this experiment.</strong></p>",0,html-button-response,306,1062857,0.0-18.0-0.0,67128,List1A,black,woman,,,,,,,,
1590,"<img src=""portrait/BW1.jpg""style=""width:400px;height:400px;""></img>",0,html-button-response,307,1065463,0.0-18.0-1.0,67128,List1A,black,woman,,TRUE,0,,,,,
null,CORRECT,,html-keyboard-response,308,1066975,0.0-18.0-2.0-0.0,67128,List1A,black,woman,,,,null,,,,
1547,"<img src=""portrait/WW2.jpg""style=""width:400px;height:400px;""></img>",3,html-button-response,309,1068524,0.0-18.0-4.0,67128,List1A,black,woman,,TRUE,3,,,,,
null,CORRECT,,html-keyboard-response,310,1070028,0.0-18.0-5.0-0.0,67128,List1A,black,woman,,,,null,,,,
1706,"<img src=""portrait/WM1.jpg""style=""width:400px;height:400px;""></img>",6,html-button-response,311,1071736,0.0-18.0-7.0,67128,List1A,black,woman,,TRUE,6,,,,,
null,CORRECT,,html-keyboard-response,312,1073238,0.0-18.0-8.0-0.0,67128,List1A,black,woman,,,,null,,,,
3470,"<img src=""portrait/WW1.jpg""style=""width:400px;height:400px;""></img>",1,html-button-response,313,1076710,0.0-18.0-10.0,67128,List1A,black,woman,,TRUE,1,,,,,
null,CORRECT,,html-keyboard-response,314,1078212,0.0-18.0-11.0-0.0,67128,List1A,black,woman,,,,null,,,,
1431,"<img src=""portrait/BM2.jpg""style=""width:400px;height:400px;""></img>",5,html-button-response,315,1079645,0.0-18.0-13.0,67128,List1A,black,woman,,TRUE,5,,,,,
null,CORRECT,,html-keyboard-response,316,1081148,0.0-18.0-14.0-0.0,67128,List1A,black,woman,,,,null,,,,
1611,"<img src=""portrait/WM2.jpg""style=""width:400px;height:400px;""></img>",7,html-button-response,317,1082762,0.0-18.0-16.0,67128,List1A,black,woman,,TRUE,7,,,,,
null,CORRECT,,html-keyboard-response,318,1084264,0.0-18.0-17.0-0.0,67128,List1A,black,woman,,,,null,,,,
2242,"<img src=""portrait/BW2.jpg""style=""width:400px;height:400px;""></img>",2,html-button-response,319,1086508,0.0-18.0-19.0,67128,List1A,black,woman,,TRUE,2,,,,,
null,CORRECT,,html-keyboard-response,320,1088010,0.0-18.0-20.0-0.0,67128,List1A,black,woman,,,,null,,,,
1379,"<img src=""portrait/BM1.jpg""style=""width:400px;height:400px;""></img>",4,html-button-response,321,1089393,0.0-18.0-22.0,67128,List1A,black,woman,,TRUE,4,,,,,
null,CORRECT,,html-keyboard-response,322,1090895,0.0-18.0-23.0-0.0,67128,List1A,black,woman,,,,null,,,,
1652,<p>You got 8 out of 8 right first time. Press Continue.</p>,0,html-button-response,323,1092550,0.0-18.0-25.0,67128,List1A,black,woman,,,,,,,,
null,"<div style=""font-size:60px;"">+</div>",,html-keyboard-response,324,1094054,0.0-19.0-0.0,67128,List1A,black,woman,,,,null,,,,
null,"<img src=""stim_listA/talk2.gif""</stim_listA>",,html-keyboard-response,325,1096058,0.0-19.0-1.0,67128,List1A,black,woman,,,,null,,,,
null,are talking to each other,,html-keyboard-response,326,1098060,0.0-19.0-2.0,67128,List1A,black,woman,,,,null,,,,
7002,,,survey-text,327,1105063,0.0-19.0-3.0,67128,List1A,black,woman,,,,,"{""Q0"":""mike and beth are talking to each other""}","<img src=""stim_listA/talk2.gif""</stim_listA>",are talking to each other,
null,"<div style=""font-size:60px;"">+</div>",,html-keyboard-response,328,1105586,0.0-19.0-0.1,67128,List1A,black,woman,,,,null,,,,
null,"<img src=""stim_listA/marry4.gif""</stim_listA>",,html-keyboard-response,329,1107591,0.0-19.0-1.1,67128,List1A,black,woman,,,,null,,,,
null,are marrying each other,,html-keyboard-response,330,1109593,0.0-19.0-2.1,67128,List1A,black,woman,,,,null,,,,
5827,,,survey-text,331,1115424,0.0-19.0-3.1,67128,List1A,black,woman,,,,,"{""Q0"":""jane and luke are marrying each other""}","<img src=""stim_listA/marry4.gif""</stim_listA>",are marrying each other,
null,"<div style=""font-size:60px;"">+</div>",,html-keyboard-response,332,1115932,0.0-19.0-0.2,67128,List1A,black,woman,,,,null,,,,
null,"<img src=""stim_listA/marry6.gif""</stim_listA>",,html-keyboard-response,333,1117937,0.0-19.0-1.2,67128,List1A,black,woman,,,,null,,,,
null,are marrying each other,,html-keyboard-response,334,1119939,0.0-19.0-2.2,67128,List1A,black,woman,,,,null,,,,
5860,,,survey-text,335,1125801,0.0-19.0-3.2,67128,List1A,black,woman,,,,,"{""Q0"":""dave and fred are marrying each other""}","<img src=""stim_listA/marry6.gif""</stim_listA>",are marrying each other,
null,"<div style=""font-size:60px;"">+</div>",,html-keyboard-response,336,1126304,0.0-19.0-0.3,67128,List1A,black,woman,,,,null,,,,
null,"<img src=""stim_listA/touch5.gif""</stim_listA>",,html-keyboard-response,337,1128307,0.0-19.0-1.3,67128,List1A,black,woman,,,,null,,,,
null,is touching,,html-keyboard-response,338,1130309,0.0-19.0-2.3,67128,List1A,black,woman,,,,null,,,,
4449,,,survey-text,339,1134760,0.0-19.0-3.3,67128,List1A,black,woman,,,,,"{""Q0"":""mike is touching dave""}","<img src=""stim_listA/touch5.gif""</stim_listA>",is touching,
null,"<div style=""font-size:60px;"">+</div>",,html-keyboard-response,340,1135265,0.0-19.0-0.4,67128,List1A,black,woman,,,,null,,,,
null,"<img src=""stim_listA/dance8.gif""</stim_listA>",,html-keyboard-response,341,1137276,0.0-19.0-1.4,67128,List1A,black,woman,,,,null,,,,
null,are dancing with each other,,html-keyboard-response,342,1139278,0.0-19.0-2.4,67128,List1A,black,woman,,,,null,,,,
6477,,,survey-text,343,1145757,0.0-19.0-3.4,67128,List1A,black,woman,,,,,"{""Q0"":""ruth and kate are dancing with each other""}","<img src=""stim_listA/dance8.gif""</stim_listA>",are dancing with each other,
null,"<div style=""font-size:60px;"">+</div>",,html-keyboard-response,344,1146263,0.0-19.0-0.5,67128,List1A,black,woman,,,,null,,,,
null,"<img src=""stim_listA/hug3.gif""</stim_listA>",,html-keyboard-response,345,1148265,0.0-19.0-1.5,67128,List1A,black,woman,,,,null,,,,
null,is hugging,,html-keyboard-response,346,1150266,0.0-19.0-2.5,67128,List1A,black,woman,,,,null,,,,
3947,,,survey-text,347,1154215,0.0-19.0-3.5,67128,List1A,black,woman,,,,,"{""Q0"":""luke is hugging ruth""}","<img src=""stim_listA/hug3.gif""</stim_listA>",is hugging,
null,"<div style=""font-size:60px;"">+</div>",,html-keyboard-response,348,1154724,0.0-19.0-0.6,67128,List1A,black,woman,,,,null,,,,
null,"<img src=""stim_listA/dance5.gif""</stim_listA>",,html-keyboard-response,349,1156739,0.0-19.0-1.6,67128,List1A,black,woman,,,,null,,,,
null,is dancing with,,html-keyboard-response,350,1158740,0.0-19.0-2.6,67128,List1A,black,woman,,,,null,,,,
4498,,,survey-text,351,1163239,0.0-19.0-3.6,67128,List1A,black,woman,,,,,"{""Q0"":""fred is dancing with dave""}","<img src=""stim_listA/dance5.gif""</stim_listA>",is dancing with,
null,"<div style=""font-size:60px;"">+</div>",,html-keyboard-response,352,1163749,0.0-19.0-0.7,67128,List1A,black,woman,,,,null,,,,
null,"<img src=""stim_listA/talk6.gif""</stim_listA>",,html-keyboard-response,353,1165756,0.0-19.0-1.7,67128,List1A,black,woman,,,,null,,,,
null,are talking to each other,,html-keyboard-response,354,1167758,0.0-19.0-2.7,67128,List1A,black,woman,,,,null,,,,
7606,,,survey-text,355,1175366,0.0-19.0-3.7,67128,List1A,black,woman,,,,,"{""Q0"":""luke and mike are talking to each other""}","<img src=""stim_listA/talk6.gif""</stim_listA>",are talking to each other,
null,"<div style=""font-size:60px;"">+</div>",,html-keyboard-response,356,1175868,0.0-19.0-0.8,67128,List1A,black,woman,,,,null,,,,
null,"<img src=""stim_listA/touch8.gif""</stim_listA>",,html-keyboard-response,357,1177871,0.0-19.0-1.8,67128,List1A,black,woman,,,,null,,,,
null,are touching each other,,html-keyboard-response,358,1179872,0.0-19.0-2.8,67128,List1A,black,woman,,,,null,,,,
6781,,,survey-text,359,1186655,0.0-19.0-3.8,67128,List1A,black,woman,,,,,"{""Q0"":""ruth and beth are touching each other""}","<img src=""stim_listA/touch8.gif""</stim_listA>",are touching each other,
null,"<div style=""font-size:60px;"">+</div>",,html-keyboard-response,360,1187168,0.0-19.0-0.9,67128,List1A,black,woman,,,,null,,,,
null,"<img src=""stim_listA/meet5.gif""</stim_listA>",,html-keyboard-response,361,1189170,0.0-19.0-1.9,67128,List1A,black,woman,,,,null,,,,
null,is meeting,,html-keyboard-response,362,1191172,0.0-19.0-2.9,67128,List1A,black,woman,,,,null,,,,
3955,,,survey-text,363,1195128,0.0-19.0-3.9,67128,List1A,black,woman,,,,,"{""Q0"":""mike is meeting dave""}","<img src=""stim_listA/meet5.gif""</stim_listA>",is meeting,
null,"<div style=""font-size:60px;"">+</div>",,html-keyboard-response,364,1195638,0.0-19.0-0.10,67128,List1A,black,woman,,,,null,,,,
null,"<img src=""stim_listA/argue2.gif""</stim_listA>",,html-keyboard-response,365,1197645,0.0-19.0-1.10,67128,List1A,black,woman,,,,null,,,,
null,are arguing with each other,,html-keyboard-response,366,1199648,0.0-19.0-2.10,67128,List1A,black,woman,,,,null,,,,
6310,,,survey-text,367,1205961,0.0-19.0-3.10,67128,List1A,black,woman,,,,,"{""Q0"":""kate and fred are arguing with each other""}","<img src=""stim_listA/argue2.gif""</stim_listA>",are arguing with each other,
null,"<div style=""font-size:60px;"">+</div>",,html-keyboard-response,368,1206464,0.0-19.0-0.11,67128,List1A,black,woman,,,,null,,,,
null,"<img src=""stim_listA/talk3.gif""</stim_listA>",,html-keyboard-response,369,1208467,0.0-19.0-1.11,67128,List1A,black,woman,,,,null,,,,
null,is talking to,,html-keyboard-response,370,1210469,0.0-19.0-2.11,67128,List1A,black,woman,,,,null,,,,
4429,,,survey-text,371,1214900,0.0-19.0-3.11,67128,List1A,black,woman,,,,,"{""Q0"":""luke is talking to jane""}","<img src=""stim_listA/talk3.gif""</stim_listA>",is talking to,
null,"<div style=""font-size:60px;"">+</div>",,html-keyboard-response,372,1215415,0.0-19.0-0.12,67128,List1A,black,woman,,,,null,,,,
null,"<img src=""stim_listA/meet1.gif""</stim_listA>",,html-keyboard-response,373,1217429,0.0-19.0-1.12,67128,List1A,black,woman,,,,null,,,,
null,is meeting,,html-keyboard-response,374,1219442,0.0-19.0-2.12,67128,List1A,black,woman,,,,null,,,,
4127,,,survey-text,375,1223571,0.0-19.0-3.12,67128,List1A,black,woman,,,,,"{""Q0"":""mike is meeting kate""}","<img src=""stim_listA/meet1.gif""</stim_listA>",is meeting,
null,"<div style=""font-size:60px;"">+</div>",,html-keyboard-response,376,1224077,0.0-19.0-0.13,67128,List1A,black,woman,,,,null,,,,
null,"<img src=""stim_listA/shout8.gif""</stim_listA>",,html-keyboard-response,377,1226083,0.0-19.0-1.13,67128,List1A,black,woman,,,,null,,,,
null,are shouting at each other,,html-keyboard-response,378,1228090,0.0-19.0-2.13,67128,List1A,black,woman,,,,null,,,,
6852,,,survey-text,379,1234944,0.0-19.0-3.13,67128,List1A,black,woman,,,,,"{""Q0"":""jane and kate are shouting at each other""}","<img src=""stim_listA/shout8.gif""</stim_listA>",are shouting at each other,
null,"<div style=""font-size:60px;"">+</div>",,html-keyboard-response,380,1235446,0.0-19.0-0.14,67128,List1A,black,woman,,,,null,,,,
null,"<img src=""stim_listA/hug5.gif""</stim_listA>",,html-keyboard-response,381,1237450,0.0-19.0-1.14,67128,List1A,black,woman,,,,null,,,,
null,is hugging,,html-keyboard-response,382,1239452,0.0-19.0-2.14,67128,List1A,black,woman,,,,null,,,,
4093,,,survey-text,383,1243546,0.0-19.0-3.14,67128,List1A,black,woman,,,,,"{""Q0"":""fred is hugging luke""}","<img src=""stim_listA/hug5.gif""</stim_listA>",is hugging,
null,"<div style=""font-size:60px;"">+</div>",,html-keyboard-response,384,1244053,0.0-19.0-0.15,67128,List1A,black,woman,,,,null,,,,
null,"<img src=""stim_listA/talk7.gif""</stim_listA>",,html-keyboard-response,385,1246058,0.0-19.0-1.15,67128,List1A,black,woman,,,,null,,,,
null,is talking to,,html-keyboard-response,386,1248062,0.0-19.0-2.15,67128,List1A,black,woman,,,,null,,,,
4358,,,survey-text,387,1252421,0.0-19.0-3.15,67128,List1A,black,woman,,,,,"{""Q0"":""beth is talking to jane""}","<img src=""stim_listA/talk7.gif""</stim_listA>",is talking to,
null,"<div style=""font-size:60px;"">+</div>",,html-keyboard-response,388,1252932,0.0-19.0-0.16,67128,List1A,black,woman,,,,null,,,,
null,"<img src=""stim_listA/hug6.gif""</stim_listA>",,html-keyboard-response,389,1254936,0.0-19.0-1.16,67128,List1A,black,woman,,,,null,,,,
null,are hugging each other,,html-keyboard-response,390,1256938,0.0-19.0-2.16,67128,List1A,black,woman,,,,null,,,,
6134,,,survey-text,391,1263074,0.0-19.0-3.16,67128,List1A,black,woman,,,,,"{""Q0"":""dave and mike are hugging each other""}","<img src=""stim_listA/hug6.gif""</stim_listA>",are hugging each other,
null,"<div style=""font-size:60px;"">+</div>",,html-keyboard-response,392,1263577,0.0-19.0-0.17,67128,List1A,black,woman,,,,null,,,,
null,"<img src=""stim_listA/meet3.gif""</stim_listA>",,html-keyboard-response,393,1265580,0.0-19.0-1.17,67128,List1A,black,woman,,,,null,,,,
null,is meeting,,html-keyboard-response,394,1267582,0.0-19.0-2.17,67128,List1A,black,woman,,,,null,,,,
3857,,,survey-text,395,1271441,0.0-19.0-3.17,67128,List1A,black,woman,,,,,"{""Q0"":""dave is meeting jane""}","<img src=""stim_listA/meet3.gif""</stim_listA>",is meeting,
null,"<div style=""font-size:60px;"">+</div>",,html-keyboard-response,396,1271952,0.0-19.0-0.18,67128,List1A,black,woman,,,,null,,,,
null,"<img src=""stim_listA/argue5.gif""</stim_listA>",,html-keyboard-response,397,1273955,0.0-19.0-1.18,67128,List1A,black,woman,,,,null,,,,
null,is arguing with,,html-keyboard-response,398,1275957,0.0-19.0-2.18,67128,List1A,black,woman,,,,null,,,,
4650,,,survey-text,399,1280608,0.0-19.0-3.18,67128,List1A,black,woman,,,,,"{""Q0"":""mike is arguing with luke""}","<img src=""stim_listA/argue5.gif""</stim_listA>",is arguing with,
null,"<div style=""font-size:60px;"">+</div>",,html-keyboard-response,400,1281111,0.0-19.0-0.19,67128,List1A,black,woman,,,,null,,,,
null,"<img src=""stim_listA/hug1.gif""</stim_listA>",,html-keyboard-response,401,1283116,0.0-19.0-1.19,67128,List1A,black,woman,,,,null,,,,
null,is hugging,,html-keyboard-response,402,1285118,0.0-19.0-2.19,67128,List1A,black,woman,,,,null,,,,
4515,,,survey-text,403,1289635,0.0-19.0-3.19,67128,List1A,black,woman,,,,,"{""Q0"":""fred is hugging beth""}","<img src=""stim_listA/hug1.gif""</stim_listA>",is hugging,
3656,<p>Thank you for completing that task.</p><p>The final part of this session is a short questionnaire.</p><p>Press Continue.</p>,0,html-button-response,404,1293293,0.0-20.0,67128,List1A,black,woman,,,,,,,,
24407,,,survey-text,405,1318710,0.0-21.0,67128,List1A,black,woman,,,,,"{""Q0"":""28"",""Q1"":""English"",""Q2"":""English"",""Q3"":""United Kingdom"",""Q4"":""Black"",""Q5"":""female""}",,,demographics
48622,,,survey-likert,406,1367345,0.0-22.0,67128,List1A,black,woman,,,,,"{""Q0"":5,""Q1"":1,""Q2"":5,""Q3"":6,""Q4"":5,""Q5"":1,""Q6"":4,""Q7"":5,""Q8"":5,""Q9"":5,""Q10"":2,""Q11"":1,""Q12"":4,""Q13"":3}",,,likert_race
43815,,,survey-likert,407,1411172,0.0-23.0,67128,List1A,black,woman,,,,,"{""Q0"":5,""Q1"":2,""Q2"":6,""Q3"":4,""Q4"":6,""Q5"":1,""Q6"":4,""Q7"":6,""Q8"":5,""Q9"":5,""Q10"":3,""Q11"":1,""Q12"":3,""Q13"":3}",,,likert_gender
8220,,,survey-text,408,1419398,0.0-24.0,67128,List1A,black,woman,,,,,"{""Q0"":""ccc""}",,,worker_id
12778,,,external-html,409,1432301,0.0-25.0,67128,List1A,black,woman,debrief.html,,,,,,,
