rt,stimulus,button_pressed,trial_type,trial_index,time_elapsed,internal_node_id,subject,list,ppt_race,ppt_gender,url,first_guess,correct,key_press,responses,image_type,phrase_type,test_part
14288,Welcome to the experiment. Press Continue to begin.,0,html-button-response,0,14293,0.0-0.0,68311,List2B,black,man,,,,,,,,
63969,,,external-html,1,79589,0.0-1.0,68311,List2B,black,man,consent.html,,,,,,,
7584,"<p>On the next page, you will see portraits of 8 people and their names.</p><p>Your first task is to take a few minutes to memorise the names of these people.</p><p>You will have to recall their names during the rest of the experiment, so it is</p><p>essential that you try to memorise these people and their names as best as you can.</p><br><p><strong>You will then be tested on your memory of these names and portraits.</strong></p><br><p>The experiment will start after you have completed this memory test.</p><br><p>Ready?</p>",0,html-button-response,2,87175,0.0-2.0,68311,List2B,black,man,,,,,,,,
93473,"<img src='img/portrait_matrix_list2.JPG' style='width:900px;height:500px;''></img><p>If you have memorised all the portraits and names and are ready to start, press Continue.</p><p><strong>Please note: Your memory of these faces will be tested 4 times during this experiment.</strong></p>",0,html-button-response,3,181649,0.0-3.0-0.0,68311,List2B,black,man,,,,,,,,
6943,"<img src=""portrait/BW2.jpg""style=""width:400px;height:400px;""></img>",2,html-button-response,4,189596,0.0-3.0-1.0,68311,List2B,black,man,,TRUE,2,,,,,
null,CORRECT,,html-keyboard-response,5,191101,0.0-3.0-2.0-0.0,68311,List2B,black,man,,,,null,,,,
2017,"<img src=""portrait/BM2.jpg""style=""width:400px;height:400px;""></img>",5,html-button-response,6,193120,0.0-3.0-4.0,68311,List2B,black,man,,TRUE,5,,,,,
null,CORRECT,,html-keyboard-response,7,194622,0.0-3.0-5.0-0.0,68311,List2B,black,man,,,,null,,,,
2230,"<img src=""portrait/WM2.jpg""style=""width:400px;height:400px;""></img>",7,html-button-response,8,196853,0.0-3.0-7.0,68311,List2B,black,man,,TRUE,7,,,,,
null,CORRECT,,html-keyboard-response,9,198355,0.0-3.0-8.0-0.0,68311,List2B,black,man,,,,null,,,,
2815,"<img src=""portrait/WW2.jpg""style=""width:400px;height:400px;""></img>",3,html-button-response,10,201172,0.0-3.0-10.0,68311,List2B,black,man,,TRUE,3,,,,,
null,CORRECT,,html-keyboard-response,11,202674,0.0-3.0-11.0-0.0,68311,List2B,black,man,,,,null,,,,
1972,"<img src=""portrait/BW1.jpg""style=""width:400px;height:400px;""></img>",0,html-button-response,12,204648,0.0-3.0-13.0,68311,List2B,black,man,,TRUE,0,,,,,
null,CORRECT,,html-keyboard-response,13,206150,0.0-3.0-14.0-0.0,68311,List2B,black,man,,,,null,,,,
3207,"<img src=""portrait/WW1.jpg""style=""width:400px;height:400px;""></img>",1,html-button-response,14,209359,0.0-3.0-16.0,68311,List2B,black,man,,TRUE,1,,,,,
null,CORRECT,,html-keyboard-response,15,210861,0.0-3.0-17.0-0.0,68311,List2B,black,man,,,,null,,,,
2799,"<img src=""portrait/WM1.jpg""style=""width:400px;height:400px;""></img>",7,html-button-response,16,213662,0.0-3.0-19.0,68311,List2B,black,man,,TRUE,6,,,,,
1409,"<img src=""portrait/WM1.jpg""style=""width:400px;height:400px;""></img>",6,html-button-response,17,216074,0.0-3.0-21.0-0.0,68311,List2B,black,man,,FALSE,6,,,,,
null,CORRECT,,html-keyboard-response,18,217576,0.0-3.0-21.0-1.0-0.0,68311,List2B,black,man,,,,null,,,,
2094,"<img src=""portrait/BM1.jpg""style=""width:400px;height:400px;""></img>",4,html-button-response,19,219671,0.0-3.0-22.0,68311,List2B,black,man,,TRUE,4,,,,,
null,CORRECT,,html-keyboard-response,20,221173,0.0-3.0-23.0-0.0,68311,List2B,black,man,,,,null,,,,
1444,<p>You got 7 out of 8 right first time. Press Continue.</p>,0,html-button-response,21,222618,0.0-3.0-25.0,68311,List2B,black,man,,,,,,,,
3413,"As you did not score 100%, the memory game will repeat. Press Continue.",0,html-button-response,22,227034,0.0-3.0-26.0-0.0,68311,List2B,black,man,,,,,,,,
1441,"<img src='img/portrait_matrix_list2.JPG' style='width:900px;height:500px;''></img><p>If you have memorised all the portraits and names and are ready to start, press Continue.</p><p><strong>Please note: Your memory of these faces will be tested 4 times during this experiment.</strong></p>",0,html-button-response,23,229477,0.0-3.1-0.1,68311,List2B,black,man,,,,,,,,
2555,"<img src=""portrait/BW2.jpg""style=""width:400px;height:400px;""></img>",2,html-button-response,24,233035,0.0-3.1-1.1,68311,List2B,black,man,,TRUE,2,,,,,
null,CORRECT,,html-keyboard-response,25,234537,0.0-3.1-2.1-0.1,68311,List2B,black,man,,,,null,,,,
1412,"<img src=""portrait/BM2.jpg""style=""width:400px;height:400px;""></img>",5,html-button-response,26,235951,0.0-3.1-4.1,68311,List2B,black,man,,TRUE,5,,,,,
null,CORRECT,,html-keyboard-response,27,237453,0.0-3.1-5.1-0.1,68311,List2B,black,man,,,,null,,,,
1587,"<img src=""portrait/WM2.jpg""style=""width:400px;height:400px;""></img>",7,html-button-response,28,239042,0.0-3.1-7.1,68311,List2B,black,man,,TRUE,7,,,,,
null,CORRECT,,html-keyboard-response,29,240544,0.0-3.1-8.1-0.1,68311,List2B,black,man,,,,null,,,,
1824,"<img src=""portrait/WW2.jpg""style=""width:400px;height:400px;""></img>",3,html-button-response,30,242369,0.0-3.1-10.1,68311,List2B,black,man,,TRUE,3,,,,,
null,CORRECT,,html-keyboard-response,31,243871,0.0-3.1-11.1-0.1,68311,List2B,black,man,,,,null,,,,
1556,"<img src=""portrait/BW1.jpg""style=""width:400px;height:400px;""></img>",0,html-button-response,32,245429,0.0-3.1-13.1,68311,List2B,black,man,,TRUE,0,,,,,
null,CORRECT,,html-keyboard-response,33,246931,0.0-3.1-14.1-0.1,68311,List2B,black,man,,,,null,,,,
1813,"<img src=""portrait/WW1.jpg""style=""width:400px;height:400px;""></img>",1,html-button-response,34,248746,0.0-3.1-16.1,68311,List2B,black,man,,TRUE,1,,,,,
null,CORRECT,,html-keyboard-response,35,250248,0.0-3.1-17.1-0.1,68311,List2B,black,man,,,,null,,,,
1718,"<img src=""portrait/WM1.jpg""style=""width:400px;height:400px;""></img>",6,html-button-response,36,251968,0.0-3.1-19.1,68311,List2B,black,man,,TRUE,6,,,,,
null,CORRECT,,html-keyboard-response,37,253470,0.0-3.1-20.1-0.1,68311,List2B,black,man,,,,null,,,,
2573,"<img src=""portrait/BM1.jpg""style=""width:400px;height:400px;""></img>",4,html-button-response,38,256045,0.0-3.1-22.1,68311,List2B,black,man,,TRUE,4,,,,,
null,CORRECT,,html-keyboard-response,39,257547,0.0-3.1-23.1-0.1,68311,List2B,black,man,,,,null,,,,
1478,<p>You got 8 out of 8 right first time. Press Continue.</p>,0,html-button-response,40,259026,0.0-3.1-25.1,68311,List2B,black,man,,,,,,,,
55937,"<p>In this experiment, you will view photographs of the people from the memory game interacting.</p><p>By using the <strong>exact</strong> phrase given <i>after</i> the photograph appears and recalling the correct names of the people in the photographs, form a sentence describing the interaction. You do not need to capitalise names.</p><p>Type your answer in the space provided. Please complete every sentence before moving onto the next trial.</p><p>You will only have a few seconds to memorise each given photograph and phrase before you can respond, so try your best to focus.</p><p>An example is given below. Press 'Continue' when you are ready.</p><img src='img/speaking_example_v2.jpg' style='width:800px;height:460px;''></img>",0,html-button-response,41,315965,0.0-4.0,68311,List2B,black,man,,,,,,,,
1570,"<p>Before the experiment starts, you will watch two example trials. Press 'Continue'.</p>",0,html-button-response,42,318537,0.0-5.0,68311,List2B,black,man,,,,,,,,
null,<img src='img/speaking_WW.gif'></img>,,html-keyboard-response,43,321539,0.0-6.0,68311,List2B,black,man,,,,null,,,,
null,<p>is speaking to</p>,,html-keyboard-response,44,323540,0.0-7.0,68311,List2B,black,man,,,,null,,,,
4544,<p><b>Answer:</b> jane is speaking to ruth</p>,0,html-button-response,45,328085,0.0-8.0,68311,List2B,black,man,,,,,,,,
null,<img src='img/pointing_BM.gif'></img>,,html-keyboard-response,46,331087,0.0-9.0,68311,List2B,black,man,,,,null,,,,
null,<p>are pointing at each other</p>,,html-keyboard-response,47,333088,0.0-10.0,68311,List2B,black,man,,,,null,,,,
4528,<p><b>Answer:</b> fred and mike are pointing at each other</p>,0,html-button-response,48,337618,0.0-11.0,68311,List2B,black,man,,,,,,,,
11678,"<p>Ready to start the experiment?</p><br><p><strong>Remember to describe the picture using a full sentence,</strong></p><p><strong>that combines the names of the people with the given phrase.</strong></p><p><strong>If you do not do this correctly you will not be paid.</strong></p><p><strong> You do not need to capitalise names or use punctuation.</strong></p><br><p>Press 'Continue' to begin.</p>",0,html-button-response,49,350298,0.0-12.0,68311,List2B,black,man,,,,,,,,
null,"<div style=""font-size:60px;"">+</div>",,html-keyboard-response,50,351800,0.0-13.0-0.0,68311,List2B,black,man,,,,null,,,,
null,"<img src=""stim_listB/shout5.gif""</stim_listB>",,html-keyboard-response,51,353802,0.0-13.0-1.0,68311,List2B,black,man,,,,null,,,,
null,is shouting at,,html-keyboard-response,52,355803,0.0-13.0-2.0,68311,List2B,black,man,,,,null,,,,
13754,,,survey-text,53,369559,0.0-13.0-3.0,68311,List2B,black,man,,,,,"{""Q0"":""luke is shouting at fred""}","<img src=""stim_listB/shout5.gif""</stim_listB>",is shouting at,
null,"<div style=""font-size:60px;"">+</div>",,html-keyboard-response,54,370060,0.0-13.0-0.1,68311,List2B,black,man,,,,null,,,,
null,"<img src=""stim_listB/kiss6.gif""</stim_listB>",,html-keyboard-response,55,372061,0.0-13.0-1.1,68311,List2B,black,man,,,,null,,,,
null,are kissing each other,,html-keyboard-response,56,374064,0.0-13.0-2.1,68311,List2B,black,man,,,,null,,,,
8673,,,survey-text,57,382738,0.0-13.0-3.1,68311,List2B,black,man,,,,,"{""Q0"":""mike and dave are kissing each other""}","<img src=""stim_listB/kiss6.gif""</stim_listB>",are kissing each other,
null,"<div style=""font-size:60px;"">+</div>",,html-keyboard-response,58,383240,0.0-13.0-0.2,68311,List2B,black,man,,,,null,,,,
null,"<img src=""stim_listB/dance2.gif""</stim_listB>",,html-keyboard-response,59,385244,0.0-13.0-1.2,68311,List2B,black,man,,,,null,,,,
null,are dancing with each other,,html-keyboard-response,60,387245,0.0-13.0-2.2,68311,List2B,black,man,,,,null,,,,
10436,,,survey-text,61,397682,0.0-13.0-3.2,68311,List2B,black,man,,,,,"{""Q0"":""dave and ruth are dancing with each other""}","<img src=""stim_listB/dance2.gif""</stim_listB>",are dancing with each other,
null,"<div style=""font-size:60px;"">+</div>",,html-keyboard-response,62,398183,0.0-13.0-0.3,68311,List2B,black,man,,,,null,,,,
null,"<img src=""stim_listB/talk7.gif""</stim_listB>",,html-keyboard-response,63,400185,0.0-13.0-1.3,68311,List2B,black,man,,,,null,,,,
null,is talking to,,html-keyboard-response,64,402186,0.0-13.0-2.3,68311,List2B,black,man,,,,null,,,,
7157,,,survey-text,65,409344,0.0-13.0-3.3,68311,List2B,black,man,,,,,"{""Q0"":""kate is talking to ruth""}","<img src=""stim_listB/talk7.gif""</stim_listB>",is talking to,
null,"<div style=""font-size:60px;"">+</div>",,html-keyboard-response,66,409845,0.0-13.0-0.4,68311,List2B,black,man,,,,null,,,,
null,"<img src=""stim_listB/meet4.gif""</stim_listB>",,html-keyboard-response,67,411847,0.0-13.0-1.4,68311,List2B,black,man,,,,null,,,,
null,are meeting each other,,html-keyboard-response,68,413848,0.0-13.0-2.4,68311,List2B,black,man,,,,null,,,,
8803,,,survey-text,69,422652,0.0-13.0-3.4,68311,List2B,black,man,,,,,"{""Q0"":""fred and beth are meeting each other""}","<img src=""stim_listB/meet4.gif""</stim_listB>",are meeting each other,
null,"<div style=""font-size:60px;"">+</div>",,html-keyboard-response,70,423154,0.0-13.0-0.5,68311,List2B,black,man,,,,null,,,,
null,"<img src=""stim_listB/argue6.gif""</stim_listB>",,html-keyboard-response,71,425156,0.0-13.0-1.5,68311,List2B,black,man,,,,null,,,,
null,are arguing with each other,,html-keyboard-response,72,427157,0.0-13.0-2.5,68311,List2B,black,man,,,,null,,,,
10680,,,survey-text,73,437837,0.0-13.0-3.5,68311,List2B,black,man,,,,,"{""Q0"":""luke and mike are arguing with each other""}","<img src=""stim_listB/argue6.gif""</stim_listB>",are arguing with each other,
null,"<div style=""font-size:60px;"">+</div>",,html-keyboard-response,74,438338,0.0-13.0-0.6,68311,List2B,black,man,,,,null,,,,
null,"<img src=""stim_listB/touch1.gif""</stim_listB>",,html-keyboard-response,75,440340,0.0-13.0-1.6,68311,List2B,black,man,,,,null,,,,
null,is touching,,html-keyboard-response,76,442341,0.0-13.0-2.6,68311,List2B,black,man,,,,null,,,,
9135,,,survey-text,77,451477,0.0-13.0-3.6,68311,List2B,black,man,,,,,"{""Q0"":""jane is touching dave""}","<img src=""stim_listB/touch1.gif""</stim_listB>",is touching,
null,"<div style=""font-size:60px;"">+</div>",,html-keyboard-response,78,451979,0.0-13.0-0.7,68311,List2B,black,man,,,,null,,,,
null,"<img src=""stim_listB/dance4.gif""</stim_listB>",,html-keyboard-response,79,453981,0.0-13.0-1.7,68311,List2B,black,man,,,,null,,,,
null,are dancing with each other,,html-keyboard-response,80,455982,0.0-13.0-2.7,68311,List2B,black,man,,,,null,,,,
7863,,,survey-text,81,463845,0.0-13.0-3.7,68311,List2B,black,man,,,,,"{""Q0"":""mike and beth are dancing with each other""}","<img src=""stim_listB/dance4.gif""</stim_listB>",are dancing with each other,
null,"<div style=""font-size:60px;"">+</div>",,html-keyboard-response,82,464347,0.0-13.0-0.8,68311,List2B,black,man,,,,null,,,,
null,"<img src=""stim_listB/kiss5.gif""</stim_listB>",,html-keyboard-response,83,466349,0.0-13.0-1.8,68311,List2B,black,man,,,,null,,,,
null,is kissing,,html-keyboard-response,84,468350,0.0-13.0-2.8,68311,List2B,black,man,,,,null,,,,
7486,,,survey-text,85,475837,0.0-13.0-3.8,68311,List2B,black,man,,,,,"{""Q0"":""fred is kissing luke""}","<img src=""stim_listB/kiss5.gif""</stim_listB>",is kissing,
null,"<div style=""font-size:60px;"">+</div>",,html-keyboard-response,86,476338,0.0-13.0-0.9,68311,List2B,black,man,,,,null,,,,
null,"<img src=""stim_listB/fight1.gif""</stim_listB>",,html-keyboard-response,87,478340,0.0-13.0-1.9,68311,List2B,black,man,,,,null,,,,
null,is fighting,,html-keyboard-response,88,480341,0.0-13.0-2.9,68311,List2B,black,man,,,,null,,,,
6855,,,survey-text,89,487197,0.0-13.0-3.9,68311,List2B,black,man,,,,,"{""Q0"":""jane is fighting dave""}","<img src=""stim_listB/fight1.gif""</stim_listB>",is fighting,
null,"<div style=""font-size:60px;"">+</div>",,html-keyboard-response,90,487699,0.0-13.0-0.10,68311,List2B,black,man,,,,null,,,,
null,"<img src=""stim_listB/talk2.gif""</stim_listB>",,html-keyboard-response,91,489701,0.0-13.0-1.10,68311,List2B,black,man,,,,null,,,,
null,are talking to each other,,html-keyboard-response,92,491702,0.0-13.0-2.10,68311,List2B,black,man,,,,null,,,,
9865,,,survey-text,93,501568,0.0-13.0-3.10,68311,List2B,black,man,,,,,"{""Q0"":""ruth and dave are talking to each other""}","<img src=""stim_listB/talk2.gif""</stim_listB>",are talking to each other,
null,"<div style=""font-size:60px;"">+</div>",,html-keyboard-response,94,502069,0.0-13.0-0.11,68311,List2B,black,man,,,,null,,,,
null,"<img src=""stim_listB/argue3.gif""</stim_listB>",,html-keyboard-response,95,504071,0.0-13.0-1.11,68311,List2B,black,man,,,,null,,,,
null,is arguing with,,html-keyboard-response,96,506073,0.0-13.0-2.11,68311,List2B,black,man,,,,null,,,,
8118,,,survey-text,97,514191,0.0-13.0-3.11,68311,List2B,black,man,,,,,"{""Q0"":""beth is arguing with mike""}","<img src=""stim_listB/argue3.gif""</stim_listB>",is arguing with,
null,"<div style=""font-size:60px;"">+</div>",,html-keyboard-response,98,514693,0.0-13.0-0.12,68311,List2B,black,man,,,,null,,,,
null,"<img src=""stim_listB/kiss2.gif""</stim_listB>",,html-keyboard-response,99,516695,0.0-13.0-1.12,68311,List2B,black,man,,,,null,,,,
null,are kissing each other,,html-keyboard-response,100,518696,0.0-13.0-2.12,68311,List2B,black,man,,,,null,,,,
10462,,,survey-text,101,529159,0.0-13.0-3.12,68311,List2B,black,man,,,,,"{""Q0"":""dave and jane are kissing each other""}","<img src=""stim_listB/kiss2.gif""</stim_listB>",are kissing each other,
null,"<div style=""font-size:60px;"">+</div>",,html-keyboard-response,102,529660,0.0-13.0-0.13,68311,List2B,black,man,,,,null,,,,
null,"<img src=""stim_listB/marry8.gif""</stim_listB>",,html-keyboard-response,103,531662,0.0-13.0-1.13,68311,List2B,black,man,,,,null,,,,
null,are marrying each other,,html-keyboard-response,104,533663,0.0-13.0-2.13,68311,List2B,black,man,,,,null,,,,
7206,,,survey-text,105,540871,0.0-13.0-3.13,68311,List2B,black,man,,,,,"{""Q0"":""ruth and kate are marrying each other""}","<img src=""stim_listB/marry8.gif""</stim_listB>",are marrying each other,
null,"<div style=""font-size:60px;"">+</div>",,html-keyboard-response,106,541372,0.0-13.0-0.14,68311,List2B,black,man,,,,null,,,,
null,"<img src=""stim_listB/argue1.gif""</stim_listB>",,html-keyboard-response,107,543374,0.0-13.0-1.14,68311,List2B,black,man,,,,null,,,,
null,is arguing with,,html-keyboard-response,108,545375,0.0-13.0-2.14,68311,List2B,black,man,,,,null,,,,
4702,,,survey-text,109,550079,0.0-13.0-3.14,68311,List2B,black,man,,,,,"{""Q0"":""ruth is arguing with dave""}","<img src=""stim_listB/argue1.gif""</stim_listB>",is arguing with,
null,"<div style=""font-size:60px;"">+</div>",,html-keyboard-response,110,550580,0.0-13.0-0.15,68311,List2B,black,man,,,,null,,,,
null,"<img src=""stim_listB/dance6.gif""</stim_listB>",,html-keyboard-response,111,552583,0.0-13.0-1.15,68311,List2B,black,man,,,,null,,,,
null,are dancing with each other,,html-keyboard-response,112,554586,0.0-13.0-2.15,68311,List2B,black,man,,,,null,,,,
11062,,,survey-text,113,565649,0.0-13.0-3.15,68311,List2B,black,man,,,,,"{""Q0"":""dave and fred are dancing with each other""}","<img src=""stim_listB/dance6.gif""</stim_listB>",are dancing with each other,
null,"<div style=""font-size:60px;"">+</div>",,html-keyboard-response,114,566150,0.0-13.0-0.16,68311,List2B,black,man,,,,null,,,,
null,"<img src=""stim_listB/shout1.gif""</stim_listB>",,html-keyboard-response,115,568152,0.0-13.0-1.16,68311,List2B,black,man,,,,null,,,,
null,is shouting at,,html-keyboard-response,116,570153,0.0-13.0-2.16,68311,List2B,black,man,,,,null,,,,
6502,,,survey-text,117,576657,0.0-13.0-3.16,68311,List2B,black,man,,,,,"{""Q0"":""ruth is shouting at luke""}","<img src=""stim_listB/shout1.gif""</stim_listB>",is shouting at,
null,"<div style=""font-size:60px;"">+</div>",,html-keyboard-response,118,577158,0.0-13.0-0.17,68311,List2B,black,man,,,,null,,,,
null,"<img src=""stim_listB/hug5.gif""</stim_listB>",,html-keyboard-response,119,579160,0.0-13.0-1.17,68311,List2B,black,man,,,,null,,,,
null,is hugging,,html-keyboard-response,120,581161,0.0-13.0-2.17,68311,List2B,black,man,,,,null,,,,
6350,,,survey-text,121,587512,0.0-13.0-3.17,68311,List2B,black,man,,,,,"{""Q0"":""luke is hugging fred""}","<img src=""stim_listB/hug5.gif""</stim_listB>",is hugging,
null,"<div style=""font-size:60px;"">+</div>",,html-keyboard-response,122,588013,0.0-13.0-0.18,68311,List2B,black,man,,,,null,,,,
null,"<img src=""stim_listB/touch5.gif""</stim_listB>",,html-keyboard-response,123,590015,0.0-13.0-1.18,68311,List2B,black,man,,,,null,,,,
null,is touching,,html-keyboard-response,124,592017,0.0-13.0-2.18,68311,List2B,black,man,,,,null,,,,
4863,,,survey-text,125,596880,0.0-13.0-3.18,68311,List2B,black,man,,,,,"{""Q0"":""mike is touching dave""}","<img src=""stim_listB/touch5.gif""</stim_listB>",is touching,
null,"<div style=""font-size:60px;"">+</div>",,html-keyboard-response,126,597382,0.0-13.0-0.19,68311,List2B,black,man,,,,null,,,,
null,"<img src=""stim_listB/touch7.gif""</stim_listB>",,html-keyboard-response,127,599384,0.0-13.0-1.19,68311,List2B,black,man,,,,null,,,,
null,is touching,,html-keyboard-response,128,601385,0.0-13.0-2.19,68311,List2B,black,man,,,,null,,,,
4255,,,survey-text,129,605640,0.0-13.0-3.19,68311,List2B,black,man,,,,,"{""Q0"":""kate is touching jane""}","<img src=""stim_listB/touch7.gif""</stim_listB>",is touching,
5107,"<img src='img/portrait_matrix_list2.JPG' style='width:900px;height:500px;''></img><p>If you have memorised all the portraits and names and are ready to start, press Continue.</p><p><strong>Please note: Your memory of these faces will be tested 4 times during this experiment.</strong></p>",0,html-button-response,130,610748,0.0-14.0-0.0,68311,List2B,black,man,,,,,,,,
2307,"<img src=""portrait/BM1.jpg""style=""width:400px;height:400px;""></img>",4,html-button-response,131,614058,0.0-14.0-1.0,68311,List2B,black,man,,TRUE,4,,,,,
null,CORRECT,,html-keyboard-response,132,615562,0.0-14.0-2.0-0.0,68311,List2B,black,man,,,,null,,,,
1837,"<img src=""portrait/BW1.jpg""style=""width:400px;height:400px;""></img>",0,html-button-response,133,617401,0.0-14.0-4.0,68311,List2B,black,man,,TRUE,0,,,,,
null,CORRECT,,html-keyboard-response,134,618903,0.0-14.0-5.0-0.0,68311,List2B,black,man,,,,null,,,,
2678,"<img src=""portrait/WW1.jpg""style=""width:400px;height:400px;""></img>",1,html-button-response,135,621583,0.0-14.0-7.0,68311,List2B,black,man,,TRUE,1,,,,,
null,CORRECT,,html-keyboard-response,136,623085,0.0-14.0-8.0-0.0,68311,List2B,black,man,,,,null,,,,
1869,"<img src=""portrait/BW2.jpg""style=""width:400px;height:400px;""></img>",2,html-button-response,137,624956,0.0-14.0-10.0,68311,List2B,black,man,,TRUE,2,,,,,
null,CORRECT,,html-keyboard-response,138,626458,0.0-14.0-11.0-0.0,68311,List2B,black,man,,,,null,,,,
1877,"<img src=""portrait/WM2.jpg""style=""width:400px;height:400px;""></img>",7,html-button-response,139,628337,0.0-14.0-13.0,68311,List2B,black,man,,TRUE,7,,,,,
null,CORRECT,,html-keyboard-response,140,629839,0.0-14.0-14.0-0.0,68311,List2B,black,man,,,,null,,,,
3240,"<img src=""portrait/WW2.jpg""style=""width:400px;height:400px;""></img>",3,html-button-response,141,633080,0.0-14.0-16.0,68311,List2B,black,man,,TRUE,3,,,,,
null,CORRECT,,html-keyboard-response,142,634582,0.0-14.0-17.0-0.0,68311,List2B,black,man,,,,null,,,,
1710,"<img src=""portrait/WM1.jpg""style=""width:400px;height:400px;""></img>",6,html-button-response,143,636294,0.0-14.0-19.0,68311,List2B,black,man,,TRUE,6,,,,,
null,CORRECT,,html-keyboard-response,144,637796,0.0-14.0-20.0-0.0,68311,List2B,black,man,,,,null,,,,
1276,"<img src=""portrait/BM2.jpg""style=""width:400px;height:400px;""></img>",5,html-button-response,145,639074,0.0-14.0-22.0,68311,List2B,black,man,,TRUE,5,,,,,
null,CORRECT,,html-keyboard-response,146,640575,0.0-14.0-23.0-0.0,68311,List2B,black,man,,,,null,,,,
1279,<p>You got 8 out of 8 right first time. Press Continue.</p>,0,html-button-response,147,641855,0.0-14.0-25.0,68311,List2B,black,man,,,,,,,,
null,"<div style=""font-size:60px;"">+</div>",,html-keyboard-response,148,643357,0.0-15.0-0.0,68311,List2B,black,man,,,,null,,,,
null,"<img src=""stim_listB/dance3.gif""</stim_listB>",,html-keyboard-response,149,645359,0.0-15.0-1.0,68311,List2B,black,man,,,,null,,,,
null,is dancing with,,html-keyboard-response,150,647361,0.0-15.0-2.0,68311,List2B,black,man,,,,null,,,,
4824,,,survey-text,151,652186,0.0-15.0-3.0,68311,List2B,black,man,,,,,"{""Q0"":""kate is dancing with fred""}","<img src=""stim_listB/dance3.gif""</stim_listB>",is dancing with,
null,"<div style=""font-size:60px;"">+</div>",,html-keyboard-response,152,652687,0.0-15.0-0.1,68311,List2B,black,man,,,,null,,,,
null,"<img src=""stim_listB/marry5.gif""</stim_listB>",,html-keyboard-response,153,654689,0.0-15.0-1.1,68311,List2B,black,man,,,,null,,,,
null,is marrying,,html-keyboard-response,154,656690,0.0-15.0-2.1,68311,List2B,black,man,,,,null,,,,
6039,,,survey-text,155,662730,0.0-15.0-3.1,68311,List2B,black,man,,,,,"{""Q0"":""fred is marrying dave""}","<img src=""stim_listB/marry5.gif""</stim_listB>",is marrying,
null,"<div style=""font-size:60px;"">+</div>",,html-keyboard-response,156,663231,0.0-15.0-0.2,68311,List2B,black,man,,,,null,,,,
null,"<img src=""stim_listB/meet7.gif""</stim_listB>",,html-keyboard-response,157,665233,0.0-15.0-1.2,68311,List2B,black,man,,,,null,,,,
null,is meeting,,html-keyboard-response,158,667234,0.0-15.0-2.2,68311,List2B,black,man,,,,null,,,,
5774,,,survey-text,159,673009,0.0-15.0-3.2,68311,List2B,black,man,,,,,"{""Q0"":""kate is marrying jane""}","<img src=""stim_listB/meet7.gif""</stim_listB>",is meeting,
null,"<div style=""font-size:60px;"">+</div>",,html-keyboard-response,160,673511,0.0-15.0-0.3,68311,List2B,black,man,,,,null,,,,
null,"<img src=""stim_listB/marry2.gif""</stim_listB>",,html-keyboard-response,161,675515,0.0-15.0-1.3,68311,List2B,black,man,,,,null,,,,
null,are marrying each other,,html-keyboard-response,162,677516,0.0-15.0-2.3,68311,List2B,black,man,,,,null,,,,
10054,,,survey-text,163,687572,0.0-15.0-3.3,68311,List2B,black,man,,,,,"{""Q0"":""luke and jane are marrying each other""}","<img src=""stim_listB/marry2.gif""</stim_listB>",are marrying each other,
null,"<div style=""font-size:60px;"">+</div>",,html-keyboard-response,164,688073,0.0-15.0-0.4,68311,List2B,black,man,,,,null,,,,
null,"<img src=""stim_listB/meet8.gif""</stim_listB>",,html-keyboard-response,165,690075,0.0-15.0-1.4,68311,List2B,black,man,,,,null,,,,
null,are meeting each other,,html-keyboard-response,166,692076,0.0-15.0-2.4,68311,List2B,black,man,,,,null,,,,
7015,,,survey-text,167,699091,0.0-15.0-3.4,68311,List2B,black,man,,,,,"{""Q0"":""ruth and beth are meeting each other""}","<img src=""stim_listB/meet8.gif""</stim_listB>",are meeting each other,
null,"<div style=""font-size:60px;"">+</div>",,html-keyboard-response,168,699593,0.0-15.0-0.5,68311,List2B,black,man,,,,null,,,,
null,"<img src=""stim_listB/fight5.gif""</stim_listB>",,html-keyboard-response,169,701595,0.0-15.0-1.5,68311,List2B,black,man,,,,null,,,,
null,is fighting,,html-keyboard-response,170,703596,0.0-15.0-2.5,68311,List2B,black,man,,,,null,,,,
4703,,,survey-text,171,708300,0.0-15.0-3.5,68311,List2B,black,man,,,,,"{""Q0"":""mike is fighting dave""}","<img src=""stim_listB/fight5.gif""</stim_listB>",is fighting,
null,"<div style=""font-size:60px;"">+</div>",,html-keyboard-response,172,708802,0.0-15.0-0.6,68311,List2B,black,man,,,,null,,,,
null,"<img src=""stim_listB/dance7.gif""</stim_listB>",,html-keyboard-response,173,710804,0.0-15.0-1.6,68311,List2B,black,man,,,,null,,,,
null,is dancing with,,html-keyboard-response,174,712805,0.0-15.0-2.6,68311,List2B,black,man,,,,null,,,,
7045,,,survey-text,175,719851,0.0-15.0-3.6,68311,List2B,black,man,,,,,"{""Q0"":""ruth is dancing with kate""}","<img src=""stim_listB/dance7.gif""</stim_listB>",is dancing with,
null,"<div style=""font-size:60px;"">+</div>",,html-keyboard-response,176,720352,0.0-15.0-0.7,68311,List2B,black,man,,,,null,,,,
null,"<img src=""stim_listB/talk8.gif""</stim_listB>",,html-keyboard-response,177,722355,0.0-15.0-1.7,68311,List2B,black,man,,,,null,,,,
null,are talking to each other,,html-keyboard-response,178,724356,0.0-15.0-2.7,68311,List2B,black,man,,,,null,,,,
10111,,,survey-text,179,734467,0.0-15.0-3.7,68311,List2B,black,man,,,,,"{""Q0"":""jane and beth are talking to each other""}","<img src=""stim_listB/talk8.gif""</stim_listB>",are talking to each other,
null,"<div style=""font-size:60px;"">+</div>",,html-keyboard-response,180,734969,0.0-15.0-0.8,68311,List2B,black,man,,,,null,,,,
null,"<img src=""stim_listB/shout4.gif""</stim_listB>",,html-keyboard-response,181,736972,0.0-15.0-1.8,68311,List2B,black,man,,,,null,,,,
null,are shouting at each other,,html-keyboard-response,182,738974,0.0-15.0-2.8,68311,List2B,black,man,,,,null,,,,
8918,,,survey-text,183,747893,0.0-15.0-3.8,68311,List2B,black,man,,,,,"{""Q0"":""mike and kate are shouting at each other""}","<img src=""stim_listB/shout4.gif""</stim_listB>",are shouting at each other,
null,"<div style=""font-size:60px;"">+</div>",,html-keyboard-response,184,748395,0.0-15.0-0.9,68311,List2B,black,man,,,,null,,,,
null,"<img src=""stim_listB/touch8.gif""</stim_listB>",,html-keyboard-response,185,750397,0.0-15.0-1.9,68311,List2B,black,man,,,,null,,,,
null,are touching each other,,html-keyboard-response,186,752398,0.0-15.0-2.9,68311,List2B,black,man,,,,null,,,,
8686,,,survey-text,187,761085,0.0-15.0-3.9,68311,List2B,black,man,,,,,"{""Q0"":""ruth and beth are touching each other""}","<img src=""stim_listB/touch8.gif""</stim_listB>",are touching each other,
null,"<div style=""font-size:60px;"">+</div>",,html-keyboard-response,188,761586,0.0-15.0-0.10,68311,List2B,black,man,,,,null,,,,
null,"<img src=""stim_listB/dance1.gif""</stim_listB>",,html-keyboard-response,189,763588,0.0-15.0-1.10,68311,List2B,black,man,,,,null,,,,
null,is dancing with,,html-keyboard-response,190,765588,0.0-15.0-2.10,68311,List2B,black,man,,,,null,,,,
4863,,,survey-text,191,770452,0.0-15.0-3.10,68311,List2B,black,man,,,,,"{""Q0"":""jane is dancing with luke""}","<img src=""stim_listB/dance1.gif""</stim_listB>",is dancing with,
null,"<div style=""font-size:60px;"">+</div>",,html-keyboard-response,192,770953,0.0-15.0-0.11,68311,List2B,black,man,,,,null,,,,
null,"<img src=""stim_listB/marry3.gif""</stim_listB>",,html-keyboard-response,193,772955,0.0-15.0-1.11,68311,List2B,black,man,,,,null,,,,
null,is marrying,,html-keyboard-response,194,774957,0.0-15.0-2.11,68311,List2B,black,man,,,,null,,,,
4959,,,survey-text,195,779916,0.0-15.0-3.11,68311,List2B,black,man,,,,,"{""Q0"":""beth is marrying mike""}","<img src=""stim_listB/marry3.gif""</stim_listB>",is marrying,
null,"<div style=""font-size:60px;"">+</div>",,html-keyboard-response,196,780418,0.0-15.0-0.12,68311,List2B,black,man,,,,null,,,,
null,"<img src=""stim_listB/marry7.gif""</stim_listB>",,html-keyboard-response,197,782420,0.0-15.0-1.12,68311,List2B,black,man,,,,null,,,,
null,is marrying,,html-keyboard-response,198,784421,0.0-15.0-2.12,68311,List2B,black,man,,,,null,,,,
4702,,,survey-text,199,789124,0.0-15.0-3.12,68311,List2B,black,man,,,,,"{""Q0"":""beth is marrying jane""}","<img src=""stim_listB/marry7.gif""</stim_listB>",is marrying,
null,"<div style=""font-size:60px;"">+</div>",,html-keyboard-response,200,789626,0.0-15.0-0.13,68311,List2B,black,man,,,,null,,,,
null,"<img src=""stim_listB/marry1.gif""</stim_listB>",,html-keyboard-response,201,791628,0.0-15.0-1.13,68311,List2B,black,man,,,,null,,,,
null,is marrying,,html-keyboard-response,202,793629,0.0-15.0-2.13,68311,List2B,black,man,,,,null,,,,
5208,,,survey-text,203,798838,0.0-15.0-3.13,68311,List2B,black,man,,,,,"{""Q0"":""dave is marrying ruth""}","<img src=""stim_listB/marry1.gif""</stim_listB>",is marrying,
null,"<div style=""font-size:60px;"">+</div>",,html-keyboard-response,204,799340,0.0-15.0-0.14,68311,List2B,black,man,,,,null,,,,
null,"<img src=""stim_listB/kiss8.gif""</stim_listB>",,html-keyboard-response,205,801342,0.0-15.0-1.14,68311,List2B,black,man,,,,null,,,,
null,are kissing each other,,html-keyboard-response,206,803343,0.0-15.0-2.14,68311,List2B,black,man,,,,null,,,,
8494,,,survey-text,207,811839,0.0-15.0-3.14,68311,List2B,black,man,,,,,"{""Q0"":""jane and kate are kissing each other""}","<img src=""stim_listB/kiss8.gif""</stim_listB>",are kissing each other,
null,"<div style=""font-size:60px;"">+</div>",,html-keyboard-response,208,812340,0.0-15.0-0.15,68311,List2B,black,man,,,,null,,,,
null,"<img src=""stim_listB/marry4.gif""</stim_listB>",,html-keyboard-response,209,814342,0.0-15.0-1.15,68311,List2B,black,man,,,,null,,,,
null,are marrying each other,,html-keyboard-response,210,816343,0.0-15.0-2.15,68311,List2B,black,man,,,,null,,,,
6981,,,survey-text,211,823326,0.0-15.0-3.15,68311,List2B,black,man,,,,,"{""Q0"":""fred and kate are marrying each other""}","<img src=""stim_listB/marry4.gif""</stim_listB>",are marrying each other,
null,"<div style=""font-size:60px;"">+</div>",,html-keyboard-response,212,823827,0.0-15.0-0.16,68311,List2B,black,man,,,,null,,,,
null,"<img src=""stim_listB/talk4.gif""</stim_listB>",,html-keyboard-response,213,825830,0.0-15.0-1.16,68311,List2B,black,man,,,,null,,,,
null,are talking to each other,,html-keyboard-response,214,827831,0.0-15.0-2.16,68311,List2B,black,man,,,,null,,,,
7294,,,survey-text,215,835126,0.0-15.0-3.16,68311,List2B,black,man,,,,,"{""Q0"":""mike and beth are talking to each other""}","<img src=""stim_listB/talk4.gif""</stim_listB>",are talking to each other,
null,"<div style=""font-size:60px;"">+</div>",,html-keyboard-response,216,835628,0.0-15.0-0.17,68311,List2B,black,man,,,,null,,,,
null,"<img src=""stim_listB/shout7.gif""</stim_listB>",,html-keyboard-response,217,837630,0.0-15.0-1.17,68311,List2B,black,man,,,,null,,,,
null,is shouting at,,html-keyboard-response,218,839632,0.0-15.0-2.17,68311,List2B,black,man,,,,null,,,,
7013,,,survey-text,219,846646,0.0-15.0-3.17,68311,List2B,black,man,,,,,"{""Q0"":""beth is shouting at ruth""}","<img src=""stim_listB/shout7.gif""</stim_listB>",is shouting at,
null,"<div style=""font-size:60px;"">+</div>",,html-keyboard-response,220,847147,0.0-15.0-0.18,68311,List2B,black,man,,,,null,,,,
null,"<img src=""stim_listB/touch3.gif""</stim_listB>",,html-keyboard-response,221,849149,0.0-15.0-1.18,68311,List2B,black,man,,,,null,,,,
null,is touching,,html-keyboard-response,222,851150,0.0-15.0-2.18,68311,List2B,black,man,,,,null,,,,
4992,,,survey-text,223,856143,0.0-15.0-3.18,68311,List2B,black,man,,,,,"{""Q0"":""kate is touching mike""}","<img src=""stim_listB/touch3.gif""</stim_listB>",is touching,
null,"<div style=""font-size:60px;"">+</div>",,html-keyboard-response,224,856645,0.0-15.0-0.19,68311,List2B,black,man,,,,null,,,,
null,"<img src=""stim_listB/talk3.gif""</stim_listB>",,html-keyboard-response,225,858647,0.0-15.0-1.19,68311,List2B,black,man,,,,null,,,,
null,is talking to,,html-keyboard-response,226,860648,0.0-15.0-2.19,68311,List2B,black,man,,,,null,,,,
8214,,,survey-text,227,868863,0.0-15.0-3.19,68311,List2B,black,man,,,,,"{""Q0"":""kate is talking to fred""}","<img src=""stim_listB/talk3.gif""</stim_listB>",is talking to,
309697,"<img src='img/portrait_matrix_list2.JPG' style='width:900px;height:500px;''></img><p>If you have memorised all the portraits and names and are ready to start, press Continue.</p><p><strong>Please note: Your memory of these faces will be tested 4 times during this experiment.</strong></p>",0,html-button-response,228,1178563,0.0-16.0-0.0,68311,List2B,black,man,,,,,,,,
1173,"<img src=""portrait/WW2.jpg""style=""width:400px;height:400px;""></img>",3,html-button-response,229,1180740,0.0-16.0-1.0,68311,List2B,black,man,,TRUE,3,,,,,
null,CORRECT,,html-keyboard-response,230,1182243,0.0-16.0-2.0-0.0,68311,List2B,black,man,,,,null,,,,
1228,"<img src=""portrait/WM1.jpg""style=""width:400px;height:400px;""></img>",6,html-button-response,231,1183473,0.0-16.0-4.0,68311,List2B,black,man,,TRUE,6,,,,,
null,CORRECT,,html-keyboard-response,232,1184975,0.0-16.0-5.0-0.0,68311,List2B,black,man,,,,null,,,,
3552,"<img src=""portrait/WW1.jpg""style=""width:400px;height:400px;""></img>",1,html-button-response,233,1188528,0.0-16.0-7.0,68311,List2B,black,man,,TRUE,1,,,,,
null,CORRECT,,html-keyboard-response,234,1190030,0.0-16.0-8.0-0.0,68311,List2B,black,man,,,,null,,,,
1324,"<img src=""portrait/WM2.jpg""style=""width:400px;height:400px;""></img>",7,html-button-response,235,1191356,0.0-16.0-10.0,68311,List2B,black,man,,TRUE,7,,,,,
null,CORRECT,,html-keyboard-response,236,1192857,0.0-16.0-11.0-0.0,68311,List2B,black,man,,,,null,,,,
1711,"<img src=""portrait/BW2.jpg""style=""width:400px;height:400px;""></img>",2,html-button-response,237,1194570,0.0-16.0-13.0,68311,List2B,black,man,,TRUE,2,,,,,
null,CORRECT,,html-keyboard-response,238,1196072,0.0-16.0-14.0-0.0,68311,List2B,black,man,,,,null,,,,
1902,"<img src=""portrait/BW1.jpg""style=""width:400px;height:400px;""></img>",0,html-button-response,239,1197974,0.0-16.0-16.0,68311,List2B,black,man,,TRUE,0,,,,,
null,CORRECT,,html-keyboard-response,240,1199477,0.0-16.0-17.0-0.0,68311,List2B,black,man,,,,null,,,,
1608,"<img src=""portrait/BM2.jpg""style=""width:400px;height:400px;""></img>",5,html-button-response,241,1201086,0.0-16.0-19.0,68311,List2B,black,man,,TRUE,5,,,,,
null,CORRECT,,html-keyboard-response,242,1202588,0.0-16.0-20.0-0.0,68311,List2B,black,man,,,,null,,,,
1743,"<img src=""portrait/BM1.jpg""style=""width:400px;height:400px;""></img>",4,html-button-response,243,1204332,0.0-16.0-22.0,68311,List2B,black,man,,TRUE,4,,,,,
null,CORRECT,,html-keyboard-response,244,1205834,0.0-16.0-23.0-0.0,68311,List2B,black,man,,,,null,,,,
1179,<p>You got 8 out of 8 right first time. Press Continue.</p>,0,html-button-response,245,1207015,0.0-16.0-25.0,68311,List2B,black,man,,,,,,,,
null,"<div style=""font-size:60px;"">+</div>",,html-keyboard-response,246,1208518,0.0-17.0-0.0,68311,List2B,black,man,,,,null,,,,
null,"<img src=""stim_listB/argue5.gif""</stim_listB>",,html-keyboard-response,247,1210520,0.0-17.0-1.0,68311,List2B,black,man,,,,null,,,,
null,is arguing with,,html-keyboard-response,248,1212521,0.0-17.0-2.0,68311,List2B,black,man,,,,null,,,,
6310,,,survey-text,249,1218832,0.0-17.0-3.0,68311,List2B,black,man,,,,,"{""Q0"":""fred is arguing with dave""}","<img src=""stim_listB/argue5.gif""</stim_listB>",is arguing with,
null,"<div style=""font-size:60px;"">+</div>",,html-keyboard-response,250,1219335,0.0-17.0-0.1,68311,List2B,black,man,,,,null,,,,
null,"<img src=""stim_listB/meet1.gif""</stim_listB>",,html-keyboard-response,251,1221336,0.0-17.0-1.1,68311,List2B,black,man,,,,null,,,,
null,is meeting,,html-keyboard-response,252,1223337,0.0-17.0-2.1,68311,List2B,black,man,,,,null,,,,
5846,,,survey-text,253,1229184,0.0-17.0-3.1,68311,List2B,black,man,,,,,"{""Q0"":""jane is meeting dave""}","<img src=""stim_listB/meet1.gif""</stim_listB>",is meeting,
null,"<div style=""font-size:60px;"">+</div>",,html-keyboard-response,254,1229685,0.0-17.0-0.2,68311,List2B,black,man,,,,null,,,,
null,"<img src=""stim_listB/meet5.gif""</stim_listB>",,html-keyboard-response,255,1231687,0.0-17.0-1.2,68311,List2B,black,man,,,,null,,,,
null,is meeting,,html-keyboard-response,256,1233688,0.0-17.0-2.2,68311,List2B,black,man,,,,null,,,,
3911,,,survey-text,257,1237600,0.0-17.0-3.2,68311,List2B,black,man,,,,,"{""Q0"":""mike is meeting dave""}","<img src=""stim_listB/meet5.gif""</stim_listB>",is meeting,
null,"<div style=""font-size:60px;"">+</div>",,html-keyboard-response,258,1238101,0.0-17.0-0.3,68311,List2B,black,man,,,,null,,,,
null,"<img src=""stim_listB/fight2.gif""</stim_listB>",,html-keyboard-response,259,1240104,0.0-17.0-1.3,68311,List2B,black,man,,,,null,,,,
null,are fighting each other,,html-keyboard-response,260,1242105,0.0-17.0-2.3,68311,List2B,black,man,,,,null,,,,
7014,,,survey-text,261,1249120,0.0-17.0-3.3,68311,List2B,black,man,,,,,"{""Q0"":""luke and ruth are fighting each other""}","<img src=""stim_listB/fight2.gif""</stim_listB>",are fighting each other,
null,"<div style=""font-size:60px;"">+</div>",,html-keyboard-response,262,1249622,0.0-17.0-0.4,68311,List2B,black,man,,,,null,,,,
null,"<img src=""stim_listB/kiss7.gif""</stim_listB>",,html-keyboard-response,263,1251624,0.0-17.0-1.4,68311,List2B,black,man,,,,null,,,,
null,is kissing,,html-keyboard-response,264,1253625,0.0-17.0-2.4,68311,List2B,black,man,,,,null,,,,
4638,,,survey-text,265,1258264,0.0-17.0-3.4,68311,List2B,black,man,,,,,"{""Q0"":""beth is kissing ruth""}","<img src=""stim_listB/kiss7.gif""</stim_listB>",is kissing,
null,"<div style=""font-size:60px;"">+</div>",,html-keyboard-response,266,1258765,0.0-17.0-0.5,68311,List2B,black,man,,,,null,,,,
null,"<img src=""stim_listB/hug3.gif""</stim_listB>",,html-keyboard-response,267,1260767,0.0-17.0-1.5,68311,List2B,black,man,,,,null,,,,
null,is hugging,,html-keyboard-response,268,1262770,0.0-17.0-2.5,68311,List2B,black,man,,,,null,,,,
5046,,,survey-text,269,1267818,0.0-17.0-3.5,68311,List2B,black,man,,,,,"{""Q0"":""beth is hugging fred""}","<img src=""stim_listB/hug3.gif""</stim_listB>",is hugging,
null,"<div style=""font-size:60px;"">+</div>",,html-keyboard-response,270,1268319,0.0-17.0-0.6,68311,List2B,black,man,,,,null,,,,
null,"<img src=""stim_listB/touch6.gif""</stim_listB>",,html-keyboard-response,271,1270321,0.0-17.0-1.6,68311,List2B,black,man,,,,null,,,,
null,are touching each other,,html-keyboard-response,272,1272322,0.0-17.0-2.6,68311,List2B,black,man,,,,null,,,,
8470,,,survey-text,273,1280794,0.0-17.0-3.6,68311,List2B,black,man,,,,,"{""Q0"":""luke and fred are touching each other""}","<img src=""stim_listB/touch6.gif""</stim_listB>",are touching each other,
null,"<div style=""font-size:60px;"">+</div>",,html-keyboard-response,274,1281296,0.0-17.0-0.7,68311,List2B,black,man,,,,null,,,,
null,"<img src=""stim_listB/dance8.gif""</stim_listB>",,html-keyboard-response,275,1283298,0.0-17.0-1.7,68311,List2B,black,man,,,,null,,,,
null,are dancing with each other,,html-keyboard-response,276,1285299,0.0-17.0-2.7,68311,List2B,black,man,,,,null,,,,
8846,,,survey-text,277,1294146,0.0-17.0-3.7,68311,List2B,black,man,,,,,"{""Q0"":""jane and beth are dancing with each other""}","<img src=""stim_listB/dance8.gif""</stim_listB>",are dancing with each other,
null,"<div style=""font-size:60px;"">+</div>",,html-keyboard-response,278,1294647,0.0-17.0-0.8,68311,List2B,black,man,,,,null,,,,
null,"<img src=""stim_listB/shout8.gif""</stim_listB>",,html-keyboard-response,279,1296649,0.0-17.0-1.8,68311,List2B,black,man,,,,null,,,,
null,are shouting at each other,,html-keyboard-response,280,1298650,0.0-17.0-2.8,68311,List2B,black,man,,,,null,,,,
8911,,,survey-text,281,1307562,0.0-17.0-3.8,68311,List2B,black,man,,,,,"{""Q0"":""jane and kate are shouting at each other""}","<img src=""stim_listB/shout8.gif""</stim_listB>",are shouting at each other,
null,"<div style=""font-size:60px;"">+</div>",,html-keyboard-response,282,1308063,0.0-17.0-0.9,68311,List2B,black,man,,,,null,,,,
null,"<img src=""stim_listB/kiss4.gif""</stim_listB>",,html-keyboard-response,283,1310065,0.0-17.0-1.9,68311,List2B,black,man,,,,null,,,,
null,are kissing each other,,html-keyboard-response,284,1312066,0.0-17.0-2.9,68311,List2B,black,man,,,,null,,,,
7798,,,survey-text,285,1319866,0.0-17.0-3.9,68311,List2B,black,man,,,,,"{""Q0"":""mike and kate are kissing each other""}","<img src=""stim_listB/kiss4.gif""</stim_listB>",are kissing each other,
null,"<div style=""font-size:60px;"">+</div>",,html-keyboard-response,286,1320367,0.0-17.0-0.10,68311,List2B,black,man,,,,null,,,,
null,"<img src=""stim_listB/talk6.gif""</stim_listB>",,html-keyboard-response,287,1322370,0.0-17.0-1.10,68311,List2B,black,man,,,,null,,,,
null,are talking to each other,,html-keyboard-response,288,1324373,0.0-17.0-2.10,68311,List2B,black,man,,,,null,,,,
8374,,,survey-text,289,1332747,0.0-17.0-3.10,68311,List2B,black,man,,,,,"{""Q0"":""dave and fred are talking to each other""}","<img src=""stim_listB/talk6.gif""</stim_listB>",are talking to each other,
null,"<div style=""font-size:60px;"">+</div>",,html-keyboard-response,290,1333249,0.0-17.0-0.11,68311,List2B,black,man,,,,null,,,,
null,"<img src=""stim_listB/shout2.gif""</stim_listB>",,html-keyboard-response,291,1335251,0.0-17.0-1.11,68311,List2B,black,man,,,,null,,,,
null,are shouting at each other,,html-keyboard-response,292,1337252,0.0-17.0-2.11,68311,List2B,black,man,,,,null,,,,
8935,,,survey-text,293,1346187,0.0-17.0-3.11,68311,List2B,black,man,,,,,"{""Q0"":""dave and jane are shouting at each other""}","<img src=""stim_listB/shout2.gif""</stim_listB>",are shouting at each other,
null,"<div style=""font-size:60px;"">+</div>",,html-keyboard-response,294,1346689,0.0-17.0-0.12,68311,List2B,black,man,,,,null,,,,
null,"<img src=""stim_listB/hug6.gif""</stim_listB>",,html-keyboard-response,295,1348691,0.0-17.0-1.12,68311,List2B,black,man,,,,null,,,,
null,are hugging each other,,html-keyboard-response,296,1350692,0.0-17.0-2.12,68311,List2B,black,man,,,,null,,,,
6918,,,survey-text,297,1357611,0.0-17.0-3.12,68311,List2B,black,man,,,,,"{""Q0"":""dave and mike are hugging each other""}","<img src=""stim_listB/hug6.gif""</stim_listB>",are hugging each other,
null,"<div style=""font-size:60px;"">+</div>",,html-keyboard-response,298,1358112,0.0-17.0-0.13,68311,List2B,black,man,,,,null,,,,
null,"<img src=""stim_listB/touch2.gif""</stim_listB>",,html-keyboard-response,299,1360114,0.0-17.0-1.13,68311,List2B,black,man,,,,null,,,,
null,are touching each other,,html-keyboard-response,300,1362115,0.0-17.0-2.13,68311,List2B,black,man,,,,null,,,,
7110,,,survey-text,301,1369227,0.0-17.0-3.13,68311,List2B,black,man,,,,,"{""Q0"":""luke and ruth are touching each other""}","<img src=""stim_listB/touch2.gif""</stim_listB>",are touching each other,
null,"<div style=""font-size:60px;"">+</div>",,html-keyboard-response,302,1369729,0.0-17.0-0.14,68311,List2B,black,man,,,,null,,,,
null,"<img src=""stim_listB/fight6.gif""</stim_listB>",,html-keyboard-response,303,1371731,0.0-17.0-1.14,68311,List2B,black,man,,,,null,,,,
null,are fighting each other,,html-keyboard-response,304,1373732,0.0-17.0-2.14,68311,List2B,black,man,,,,null,,,,
9093,,,survey-text,305,1382827,0.0-17.0-3.14,68311,List2B,black,man,,,,,"{""Q0"":""luke and fred are fighting each other""}","<img src=""stim_listB/fight6.gif""</stim_listB>",are fighting each other,
null,"<div style=""font-size:60px;"">+</div>",,html-keyboard-response,306,1383328,0.0-17.0-0.15,68311,List2B,black,man,,,,null,,,,
null,"<img src=""stim_listB/fight7.gif""</stim_listB>",,html-keyboard-response,307,1385331,0.0-17.0-1.15,68311,List2B,black,man,,,,null,,,,
null,is fighting,,html-keyboard-response,308,1387332,0.0-17.0-2.15,68311,List2B,black,man,,,,null,,,,
7015,,,survey-text,309,1394349,0.0-17.0-3.15,68311,List2B,black,man,,,,,"{""Q0"":""kate is fighting jane""}","<img src=""stim_listB/fight7.gif""</stim_listB>",is fighting,
null,"<div style=""font-size:60px;"">+</div>",,html-keyboard-response,310,1394850,0.0-17.0-0.16,68311,List2B,black,man,,,,null,,,,
null,"<img src=""stim_listB/shout3.gif""</stim_listB>",,html-keyboard-response,311,1396852,0.0-17.0-1.16,68311,List2B,black,man,,,,null,,,,
null,is shouting at,,html-keyboard-response,312,1398853,0.0-17.0-2.16,68311,List2B,black,man,,,,null,,,,
5526,,,survey-text,313,1404381,0.0-17.0-3.16,68311,List2B,black,man,,,,,"{""Q0"":""beth is shouting at fred""}","<img src=""stim_listB/shout3.gif""</stim_listB>",is shouting at,
null,"<div style=""font-size:60px;"">+</div>",,html-keyboard-response,314,1404883,0.0-17.0-0.17,68311,List2B,black,man,,,,null,,,,
null,"<img src=""stim_listB/hug8.gif""</stim_listB>",,html-keyboard-response,315,1406885,0.0-17.0-1.17,68311,List2B,black,man,,,,null,,,,
null,are hugging each other,,html-keyboard-response,316,1408886,0.0-17.0-2.17,68311,List2B,black,man,,,,null,,,,
7614,,,survey-text,317,1416501,0.0-17.0-3.17,68311,List2B,black,man,,,,,"{""Q0"":""kate and jane are hugging each other""}","<img src=""stim_listB/hug8.gif""</stim_listB>",are hugging each other,
null,"<div style=""font-size:60px;"">+</div>",,html-keyboard-response,318,1417002,0.0-17.0-0.18,68311,List2B,black,man,,,,null,,,,
null,"<img src=""stim_listB/meet2.gif""</stim_listB>",,html-keyboard-response,319,1419004,0.0-17.0-1.18,68311,List2B,black,man,,,,null,,,,
null,are meeting each other,,html-keyboard-response,320,1421005,0.0-17.0-2.18,68311,List2B,black,man,,,,null,,,,
7359,,,survey-text,321,1428364,0.0-17.0-3.18,68311,List2B,black,man,,,,,"{""Q0"":""luke and ruth are meeting each other""}","<img src=""stim_listB/meet2.gif""</stim_listB>",are meeting each other,
null,"<div style=""font-size:60px;"">+</div>",,html-keyboard-response,322,1428865,0.0-17.0-0.19,68311,List2B,black,man,,,,null,,,,
null,"<img src=""stim_listB/hug4.gif""</stim_listB>",,html-keyboard-response,323,1430867,0.0-17.0-1.19,68311,List2B,black,man,,,,null,,,,
null,are hugging each other,,html-keyboard-response,324,1432868,0.0-17.0-2.19,68311,List2B,black,man,,,,null,,,,
8783,,,survey-text,325,1441653,0.0-17.0-3.19,68311,List2B,black,man,,,,,"{""Q0"":""mike and kate are hugging each other""}","<img src=""stim_listB/hug4.gif""</stim_listB>",are hugging each other,
4293,"<img src='img/portrait_matrix_list2.JPG' style='width:900px;height:500px;''></img><p>If you have memorised all the portraits and names and are ready to start, press Continue.</p><p><strong>Please note: Your memory of these faces will be tested 4 times during this experiment.</strong></p>",0,html-button-response,326,1445947,0.0-18.0-0.0,68311,List2B,black,man,,,,,,,,
1995,"<img src=""portrait/WW1.jpg""style=""width:400px;height:400px;""></img>",1,html-button-response,327,1448945,0.0-18.0-1.0,68311,List2B,black,man,,TRUE,1,,,,,
null,CORRECT,,html-keyboard-response,328,1450446,0.0-18.0-2.0-0.0,68311,List2B,black,man,,,,null,,,,
1175,"<img src=""portrait/WW2.jpg""style=""width:400px;height:400px;""></img>",3,html-button-response,329,1451622,0.0-18.0-4.0,68311,List2B,black,man,,TRUE,3,,,,,
null,CORRECT,,html-keyboard-response,330,1453124,0.0-18.0-5.0-0.0,68311,List2B,black,man,,,,null,,,,
1396,"<img src=""portrait/WM2.jpg""style=""width:400px;height:400px;""></img>",7,html-button-response,331,1454522,0.0-18.0-7.0,68311,List2B,black,man,,TRUE,7,,,,,
null,CORRECT,,html-keyboard-response,332,1456023,0.0-18.0-8.0-0.0,68311,List2B,black,man,,,,null,,,,
1574,"<img src=""portrait/BW2.jpg""style=""width:400px;height:400px;""></img>",2,html-button-response,333,1457599,0.0-18.0-10.0,68311,List2B,black,man,,TRUE,2,,,,,
null,CORRECT,,html-keyboard-response,334,1459101,0.0-18.0-11.0-0.0,68311,List2B,black,man,,,,null,,,,
2278,"<img src=""portrait/WM1.jpg""style=""width:400px;height:400px;""></img>",6,html-button-response,335,1461381,0.0-18.0-13.0,68311,List2B,black,man,,TRUE,6,,,,,
null,CORRECT,,html-keyboard-response,336,1462883,0.0-18.0-14.0-0.0,68311,List2B,black,man,,,,null,,,,
1342,"<img src=""portrait/BM1.jpg""style=""width:400px;height:400px;""></img>",4,html-button-response,337,1464226,0.0-18.0-16.0,68311,List2B,black,man,,TRUE,4,,,,,
null,CORRECT,,html-keyboard-response,338,1465729,0.0-18.0-17.0-0.0,68311,List2B,black,man,,,,null,,,,
1686,"<img src=""portrait/BM2.jpg""style=""width:400px;height:400px;""></img>",5,html-button-response,339,1467416,0.0-18.0-19.0,68311,List2B,black,man,,TRUE,5,,,,,
null,CORRECT,,html-keyboard-response,340,1468919,0.0-18.0-20.0-0.0,68311,List2B,black,man,,,,null,,,,
2976,"<img src=""portrait/BW1.jpg""style=""width:400px;height:400px;""></img>",0,html-button-response,341,1471897,0.0-18.0-22.0,68311,List2B,black,man,,TRUE,0,,,,,
null,CORRECT,,html-keyboard-response,342,1473399,0.0-18.0-23.0-0.0,68311,List2B,black,man,,,,null,,,,
1172,<p>You got 8 out of 8 right first time. Press Continue.</p>,0,html-button-response,343,1474572,0.0-18.0-25.0,68311,List2B,black,man,,,,,,,,
null,"<div style=""font-size:60px;"">+</div>",,html-keyboard-response,344,1476074,0.0-19.0-0.0,68311,List2B,black,man,,,,null,,,,
null,"<img src=""stim_listB/argue4.gif""</stim_listB>",,html-keyboard-response,345,1478076,0.0-19.0-1.0,68311,List2B,black,man,,,,null,,,,
null,are arguing with each other,,html-keyboard-response,346,1480077,0.0-19.0-2.0,68311,List2B,black,man,,,,null,,,,
7991,,,survey-text,347,1488069,0.0-19.0-3.0,68311,List2B,black,man,,,,,"{""Q0"":""fred and kate are arguing with each other""}","<img src=""stim_listB/argue4.gif""</stim_listB>",are arguing with each other,
null,"<div style=""font-size:60px;"">+</div>",,html-keyboard-response,348,1488571,0.0-19.0-0.1,68311,List2B,black,man,,,,null,,,,
null,"<img src=""stim_listB/meet3.gif""</stim_listB>",,html-keyboard-response,349,1490573,0.0-19.0-1.1,68311,List2B,black,man,,,,null,,,,
null,is meeting,,html-keyboard-response,350,1492574,0.0-19.0-2.1,68311,List2B,black,man,,,,null,,,,
6382,,,survey-text,351,1498958,0.0-19.0-3.1,68311,List2B,black,man,,,,,"{""Q0"":""kate is meeting mike""}","<img src=""stim_listB/meet3.gif""</stim_listB>",is meeting,
null,"<div style=""font-size:60px;"">+</div>",,html-keyboard-response,352,1499459,0.0-19.0-0.2,68311,List2B,black,man,,,,null,,,,
null,"<img src=""stim_listB/argue7.gif""</stim_listB>",,html-keyboard-response,353,1501461,0.0-19.0-1.2,68311,List2B,black,man,,,,null,,,,
null,is arguing with,,html-keyboard-response,354,1503463,0.0-19.0-2.2,68311,List2B,black,man,,,,null,,,,
5424,,,survey-text,355,1508888,0.0-19.0-3.2,68311,List2B,black,man,,,,,"{""Q0"":""beth is arguing with jane""}","<img src=""stim_listB/argue7.gif""</stim_listB>",is arguing with,
null,"<div style=""font-size:60px;"">+</div>",,html-keyboard-response,356,1509389,0.0-19.0-0.3,68311,List2B,black,man,,,,null,,,,
null,"<img src=""stim_listB/fight3.gif""</stim_listB>",,html-keyboard-response,357,1511391,0.0-19.0-1.3,68311,List2B,black,man,,,,null,,,,
null,is fighting,,html-keyboard-response,358,1513392,0.0-19.0-2.3,68311,List2B,black,man,,,,null,,,,
4926,,,survey-text,359,1518320,0.0-19.0-3.3,68311,List2B,black,man,,,,,"{""Q0"":""kate is fighting mike""}","<img src=""stim_listB/fight3.gif""</stim_listB>",is fighting,
null,"<div style=""font-size:60px;"">+</div>",,html-keyboard-response,360,1518821,0.0-19.0-0.4,68311,List2B,black,man,,,,null,,,,
null,"<img src=""stim_listB/fight4.gif""</stim_listB>",,html-keyboard-response,361,1520823,0.0-19.0-1.4,68311,List2B,black,man,,,,null,,,,
null,are fighting each other,,html-keyboard-response,362,1522824,0.0-19.0-2.4,68311,List2B,black,man,,,,null,,,,
7326,,,survey-text,363,1530151,0.0-19.0-3.4,68311,List2B,black,man,,,,,"{""Q0"":""fred and beth are fighting each other""}","<img src=""stim_listB/fight4.gif""</stim_listB>",are fighting each other,
null,"<div style=""font-size:60px;"">+</div>",,html-keyboard-response,364,1530653,0.0-19.0-0.5,68311,List2B,black,man,,,,null,,,,
null,"<img src=""stim_listB/hug1.gif""</stim_listB>",,html-keyboard-response,365,1532655,0.0-19.0-1.5,68311,List2B,black,man,,,,null,,,,
null,is hugging,,html-keyboard-response,366,1534656,0.0-19.0-2.5,68311,List2B,black,man,,,,null,,,,
4895,,,survey-text,367,1539552,0.0-19.0-3.5,68311,List2B,black,man,,,,,"{""Q0"":""ruth is hugging luke""}","<img src=""stim_listB/hug1.gif""</stim_listB>",is hugging,
null,"<div style=""font-size:60px;"">+</div>",,html-keyboard-response,368,1540053,0.0-19.0-0.6,68311,List2B,black,man,,,,null,,,,
null,"<img src=""stim_listB/shout6.gif""</stim_listB>",,html-keyboard-response,369,1542055,0.0-19.0-1.6,68311,List2B,black,man,,,,null,,,,
null,are shouting at each other,,html-keyboard-response,370,1544057,0.0-19.0-2.6,68311,List2B,black,man,,,,null,,,,
9350,,,survey-text,371,1553407,0.0-19.0-3.6,68311,List2B,black,man,,,,,"{""Q0"":""dave and mike are shouting at each other""}","<img src=""stim_listB/shout6.gif""</stim_listB>",are shouting at each other,
null,"<div style=""font-size:60px;"">+</div>",,html-keyboard-response,372,1553909,0.0-19.0-0.7,68311,List2B,black,man,,,,null,,,,
null,"<img src=""stim_listB/hug7.gif""</stim_listB>",,html-keyboard-response,373,1555911,0.0-19.0-1.7,68311,List2B,black,man,,,,null,,,,
null,is hugging,,html-keyboard-response,374,1557912,0.0-19.0-2.7,68311,List2B,black,man,,,,null,,,,
6702,,,survey-text,375,1564615,0.0-19.0-3.7,68311,List2B,black,man,,,,,"{""Q0"":""beth is hugging ruth""}","<img src=""stim_listB/hug7.gif""</stim_listB>",is hugging,
null,"<div style=""font-size:60px;"">+</div>",,html-keyboard-response,376,1565116,0.0-19.0-0.8,68311,List2B,black,man,,,,null,,,,
null,"<img src=""stim_listB/hug2.gif""</stim_listB>",,html-keyboard-response,377,1567120,0.0-19.0-1.8,68311,List2B,black,man,,,,null,,,,
null,are hugging each other,,html-keyboard-response,378,1569122,0.0-19.0-2.8,68311,List2B,black,man,,,,null,,,,
11031,,,survey-text,379,1580153,0.0-19.0-3.8,68311,List2B,black,man,,,,,"{""Q0"":""dave and jane are hugging each other""}","<img src=""stim_listB/hug2.gif""</stim_listB>",are hugging each other,
null,"<div style=""font-size:60px;"">+</div>",,html-keyboard-response,380,1580655,0.0-19.0-0.9,68311,List2B,black,man,,,,null,,,,
null,"<img src=""stim_listB/meet6.gif""</stim_listB>",,html-keyboard-response,381,1582657,0.0-19.0-1.9,68311,List2B,black,man,,,,null,,,,
null,are meeting each other,,html-keyboard-response,382,1584658,0.0-19.0-2.9,68311,List2B,black,man,,,,null,,,,
6975,,,survey-text,383,1591633,0.0-19.0-3.9,68311,List2B,black,man,,,,,"{""Q0"":""luke and fred are meeting each other""}","<img src=""stim_listB/meet6.gif""</stim_listB>",are meeting each other,
null,"<div style=""font-size:60px;"">+</div>",,html-keyboard-response,384,1592134,0.0-19.0-0.10,68311,List2B,black,man,,,,null,,,,
null,"<img src=""stim_listB/argue2.gif""</stim_listB>",,html-keyboard-response,385,1594136,0.0-19.0-1.10,68311,List2B,black,man,,,,null,,,,
null,are arguing with each other,,html-keyboard-response,386,1596137,0.0-19.0-2.10,68311,List2B,black,man,,,,null,,,,
9550,,,survey-text,387,1605689,0.0-19.0-3.10,68311,List2B,black,man,,,,,"{""Q0"":""luke and jane are arguing with each other""}","<img src=""stim_listB/argue2.gif""</stim_listB>",are arguing with each other,
null,"<div style=""font-size:60px;"">+</div>",,html-keyboard-response,388,1606190,0.0-19.0-0.11,68311,List2B,black,man,,,,null,,,,
null,"<img src=""stim_listB/marry6.gif""</stim_listB>",,html-keyboard-response,389,1608192,0.0-19.0-1.11,68311,List2B,black,man,,,,null,,,,
null,are marrying each other,,html-keyboard-response,390,1610193,0.0-19.0-2.11,68311,List2B,black,man,,,,null,,,,
10206,,,survey-text,391,1620401,0.0-19.0-3.11,68311,List2B,black,man,,,,,"{""Q0"":""luke and mike are marrying each other""}","<img src=""stim_listB/marry6.gif""</stim_listB>",are marrying each other,
null,"<div style=""font-size:60px;"">+</div>",,html-keyboard-response,392,1620902,0.0-19.0-0.12,68311,List2B,black,man,,,,null,,,,
null,"<img src=""stim_listB/argue8.gif""</stim_listB>",,html-keyboard-response,393,1622904,0.0-19.0-1.12,68311,List2B,black,man,,,,null,,,,
null,are arguing with each other,,html-keyboard-response,394,1624905,0.0-19.0-2.12,68311,List2B,black,man,,,,null,,,,
10745,,,survey-text,395,1635650,0.0-19.0-3.12,68311,List2B,black,man,,,,,"{""Q0"":""ruth and kate are arguing with each other""}","<img src=""stim_listB/argue8.gif""</stim_listB>",are arguing with each other,
null,"<div style=""font-size:60px;"">+</div>",,html-keyboard-response,396,1636152,0.0-19.0-0.13,68311,List2B,black,man,,,,null,,,,
null,"<img src=""stim_listB/kiss1.gif""</stim_listB>",,html-keyboard-response,397,1638154,0.0-19.0-1.13,68311,List2B,black,man,,,,null,,,,
null,is kissing,,html-keyboard-response,398,1640155,0.0-19.0-2.13,68311,List2B,black,man,,,,null,,,,
5464,,,survey-text,399,1645620,0.0-19.0-3.13,68311,List2B,black,man,,,,,"{""Q0"":""ruth is kissing luke""}","<img src=""stim_listB/kiss1.gif""</stim_listB>",is kissing,
null,"<div style=""font-size:60px;"">+</div>",,html-keyboard-response,400,1646121,0.0-19.0-0.14,68311,List2B,black,man,,,,null,,,,
null,"<img src=""stim_listB/touch4.gif""</stim_listB>",,html-keyboard-response,401,1648123,0.0-19.0-1.14,68311,List2B,black,man,,,,null,,,,
null,are touching each other,,html-keyboard-response,402,1650124,0.0-19.0-2.14,68311,List2B,black,man,,,,null,,,,
7989,,,survey-text,403,1658114,0.0-19.0-3.14,68311,List2B,black,man,,,,,"{""Q0"":""fred and beth are touching each other""}","<img src=""stim_listB/touch4.gif""</stim_listB>",are touching each other,
null,"<div style=""font-size:60px;"">+</div>",,html-keyboard-response,404,1658615,0.0-19.0-0.15,68311,List2B,black,man,,,,null,,,,
null,"<img src=""stim_listB/fight8.gif""</stim_listB>",,html-keyboard-response,405,1660617,0.0-19.0-1.15,68311,List2B,black,man,,,,null,,,,
null,are fighting each other,,html-keyboard-response,406,1662618,0.0-19.0-2.15,68311,List2B,black,man,,,,null,,,,
6476,,,survey-text,407,1669098,0.0-19.0-3.15,68311,List2B,black,man,,,,,"{""Q0"":""ruth and beth are fighting each other""}","<img src=""stim_listB/fight8.gif""</stim_listB>",are fighting each other,
null,"<div style=""font-size:60px;"">+</div>",,html-keyboard-response,408,1669600,0.0-19.0-0.16,68311,List2B,black,man,,,,null,,,,
null,"<img src=""stim_listB/kiss3.gif""</stim_listB>",,html-keyboard-response,409,1671602,0.0-19.0-1.16,68311,List2B,black,man,,,,null,,,,
null,is kissing,,html-keyboard-response,410,1673603,0.0-19.0-2.16,68311,List2B,black,man,,,,null,,,,
6982,,,survey-text,411,1680586,0.0-19.0-3.16,68311,List2B,black,man,,,,,"{""Q0"":""beth is kissing fred""}","<img src=""stim_listB/kiss3.gif""</stim_listB>",is kissing,
null,"<div style=""font-size:60px;"">+</div>",,html-keyboard-response,412,1681087,0.0-19.0-0.17,68311,List2B,black,man,,,,null,,,,
null,"<img src=""stim_listB/talk1.gif""</stim_listB>",,html-keyboard-response,413,1683089,0.0-19.0-1.17,68311,List2B,black,man,,,,null,,,,
null,is talking to,,html-keyboard-response,414,1685090,0.0-19.0-2.17,68311,List2B,black,man,,,,null,,,,
7328,,,survey-text,415,1692420,0.0-19.0-3.17,68311,List2B,black,man,,,,,"{""Q0"":""jane is talking to luke""}","<img src=""stim_listB/talk1.gif""</stim_listB>",is talking to,
null,"<div style=""font-size:60px;"">+</div>",,html-keyboard-response,416,1692921,0.0-19.0-0.18,68311,List2B,black,man,,,,null,,,,
null,"<img src=""stim_listB/dance5.gif""</stim_listB>",,html-keyboard-response,417,1694924,0.0-19.0-1.18,68311,List2B,black,man,,,,null,,,,
null,is dancing with,,html-keyboard-response,418,1696925,0.0-19.0-2.18,68311,List2B,black,man,,,,null,,,,
5397,,,survey-text,419,1702324,0.0-19.0-3.18,68311,List2B,black,man,,,,,"{""Q0"":""mike is dancing with luke""}","<img src=""stim_listB/dance5.gif""</stim_listB>",is dancing with,
null,"<div style=""font-size:60px;"">+</div>",,html-keyboard-response,420,1702825,0.0-19.0-0.19,68311,List2B,black,man,,,,null,,,,
null,"<img src=""stim_listB/talk5.gif""</stim_listB>",,html-keyboard-response,421,1704828,0.0-19.0-1.19,68311,List2B,black,man,,,,null,,,,
null,is talking to,,html-keyboard-response,422,1706829,0.0-19.0-2.19,68311,List2B,black,man,,,,null,,,,
5366,,,survey-text,423,1712196,0.0-19.0-3.19,68311,List2B,black,man,,,,,"{""Q0"":""mike is talking to luke""}","<img src=""stim_listB/talk5.gif""</stim_listB>",is talking to,
4598,<p>Thank you for completing that task.</p><p>The final part of this session is a short questionnaire.</p><p>Press Continue.</p>,0,html-button-response,424,1716794,0.0-20.0,68311,List2B,black,man,,,,,,,,
23412,,,survey-text,425,1741208,0.0-21.0,68311,List2B,black,man,,,,,"{""Q0"":""34"",""Q1"":""english"",""Q2"":""english"",""Q3"":""US"",""Q4"":""black"",""Q5"":""male""}",,,demographics
33068,,,survey-likert,426,1774285,0.0-22.0,68311,List2B,black,man,,,,,"{""Q0"":5,""Q1"":5,""Q2"":5,""Q3"":5,""Q4"":5,""Q5"":5,""Q6"":5,""Q7"":5,""Q8"":5,""Q9"":5,""Q10"":5,""Q11"":5,""Q12"":5,""Q13"":5}",,,likert_race
26633,,,survey-likert,427,1800926,0.0-23.0,68311,List2B,black,man,,,,,"{""Q0"":5,""Q1"":5,""Q2"":5,""Q3"":5,""Q4"":5,""Q5"":5,""Q6"":5,""Q7"":5,""Q8"":5,""Q9"":5,""Q10"":5,""Q11"":5,""Q12"":5,""Q13"":5}",,,likert_gender
8942,,,survey-text,428,1809871,0.0-24.0,68311,List2B,black,man,,,,,"{""Q0"":""ccc""}",,,worker_id
2292,,,external-html,429,1812611,0.0-25.0,68311,List2B,black,man,debrief.html,,,,,,,
