rt,stimulus,button_pressed,trial_type,trial_index,time_elapsed,internal_node_id,subject,list,ppt_race,ppt_gender,url,first_guess,correct,key_press,responses,image_type,phrase_type,test_part
3417,Welcome to the experiment. Press Continue to begin.,0,html-button-response,0,3448,0.0-0.0,6844,List1B,black,woman,,,,,,,,
20573,,,external-html,1,25135,0.0-1.0,6844,List1B,black,woman,consent.html,,,,,,,
18238,"<p>On the next page, you will see portraits of 8 people and their names.</p><p>Your first task is to take a few minutes to memorise the names of these people.</p><p>You will have to recall their names during the rest of the experiment, so it is</p><p>essential that you try to memorise these people and their names as best as you can.</p><br><p><strong>You will then be tested on your memory of these names and portraits.</strong></p><br><p>The experiment will start after you have completed this memory test.</p><br><p>Ready?</p>",0,html-button-response,2,43375,0.0-2.0,6844,List1B,black,woman,,,,,,,,
125478,"<img src='img/portrait_matrix_list1.JPG' style='width:900px;height:500px;''></img><p>If you have memorised all the portraits and names and are ready to start, press Continue.</p><p><strong>Please note: Your memory of these faces will be tested 4 times during this experiment.</strong></p>",0,html-button-response,3,169854,0.0-3.0-0.0,6844,List1B,black,woman,,,,,,,,
4741,"<img src=""portrait/BM2.jpg""style=""width:400px;height:400px;""></img>",5,html-button-response,4,175598,0.0-3.0-1.0,6844,List1B,black,woman,,TRUE,5,,,,,
null,CORRECT,,html-keyboard-response,5,177106,0.0-3.0-2.0-0.0,6844,List1B,black,woman,,,,null,,,,
4730,"<img src=""portrait/BW1.jpg""style=""width:400px;height:400px;""></img>",0,html-button-response,6,181838,0.0-3.0-4.0,6844,List1B,black,woman,,TRUE,0,,,,,
null,CORRECT,,html-keyboard-response,7,183341,0.0-3.0-5.0-0.0,6844,List1B,black,woman,,,,null,,,,
3416,"<img src=""portrait/WM1.jpg""style=""width:400px;height:400px;""></img>",6,html-button-response,8,186758,0.0-3.0-7.0,6844,List1B,black,woman,,TRUE,6,,,,,
null,CORRECT,,html-keyboard-response,9,188261,0.0-3.0-8.0-0.0,6844,List1B,black,woman,,,,null,,,,
6008,"<img src=""portrait/WW2.jpg""style=""width:400px;height:400px;""></img>",3,html-button-response,10,194270,0.0-3.0-10.0,6844,List1B,black,woman,,TRUE,3,,,,,
null,CORRECT,,html-keyboard-response,11,195773,0.0-3.0-11.0-0.0,6844,List1B,black,woman,,,,null,,,,
5143,"<img src=""portrait/WW1.jpg""style=""width:400px;height:400px;""></img>",1,html-button-response,12,200918,0.0-3.0-13.0,6844,List1B,black,woman,,TRUE,1,,,,,
null,CORRECT,,html-keyboard-response,13,202422,0.0-3.0-14.0-0.0,6844,List1B,black,woman,,,,null,,,,
2143,"<img src=""portrait/BW2.jpg""style=""width:400px;height:400px;""></img>",2,html-button-response,14,204566,0.0-3.0-16.0,6844,List1B,black,woman,,TRUE,2,,,,,
null,CORRECT,,html-keyboard-response,15,206070,0.0-3.0-17.0-0.0,6844,List1B,black,woman,,,,null,,,,
3830,"<img src=""portrait/BM1.jpg""style=""width:400px;height:400px;""></img>",4,html-button-response,16,209902,0.0-3.0-19.0,6844,List1B,black,woman,,TRUE,4,,,,,
null,CORRECT,,html-keyboard-response,17,211406,0.0-3.0-20.0-0.0,6844,List1B,black,woman,,,,null,,,,
1647,"<img src=""portrait/WM2.jpg""style=""width:400px;height:400px;""></img>",7,html-button-response,18,213054,0.0-3.0-22.0,6844,List1B,black,woman,,TRUE,7,,,,,
null,CORRECT,,html-keyboard-response,19,214557,0.0-3.0-23.0-0.0,6844,List1B,black,woman,,,,null,,,,
1957,<p>You got 8 out of 8 right first time. Press Continue.</p>,0,html-button-response,20,216518,0.0-3.0-25.0,6844,List1B,black,woman,,,,,,,,
38149,"<p>In this experiment, you will view photographs of the people from the memory game interacting.</p><p>By using the <strong>exact</strong> phrase given <i>after</i> the photograph appears and recalling the correct names of the people in the photographs, form a sentence describing the interaction. You do not need to capitalise names.</p><p>Type your answer in the space provided. Please complete every sentence before moving onto the next trial.</p><p>You will only have a few seconds to memorise each given photograph and phrase before you can respond, so try your best to focus.</p><p>An example is given below. Press 'Continue' when you are ready.</p><img src='img/speaking_example_v2.jpg' style='width:800px;height:460px;''></img>",0,html-button-response,21,255670,0.0-4.0,6844,List1B,black,woman,,,,,,,,
3335,"<p>Before the experiment starts, you will watch two example trials. Press 'Continue'.</p>",0,html-button-response,22,260006,0.0-5.0,6844,List1B,black,woman,,,,,,,,
null,<img src='img/speaking_WW.gif'></img>,,html-keyboard-response,23,263009,0.0-6.0,6844,List1B,black,woman,,,,null,,,,
null,<p>is speaking to</p>,,html-keyboard-response,24,265011,0.0-7.0,6844,List1B,black,woman,,,,null,,,,
10586,<p><b>Answer:</b> kate is speaking to beth</p>,0,html-button-response,25,275598,0.0-8.0,6844,List1B,black,woman,,,,,,,,
null,<img src='img/pointing_BM.gif'></img>,,html-keyboard-response,26,278600,0.0-9.0,6844,List1B,black,woman,,,,null,,,,
null,<p>are pointing at each other</p>,,html-keyboard-response,27,280601,0.0-10.0,6844,List1B,black,woman,,,,null,,,,
5523,<p><b>Answer:</b> luke and dave are pointing at each other</p>,0,html-button-response,28,286126,0.0-11.0,6844,List1B,black,woman,,,,,,,,
13573,"<p>Ready to start the experiment?</p><br><p><strong>Remember to describe the picture using a full sentence,</strong></p><p><strong>that combines the names of the people with the given phrase.</strong></p><p><strong>If you do not do this correctly you will not be paid.</strong></p><p><strong> You do not need to capitalise names or use punctuation.</strong></p><br><p>Press 'Continue' to begin.</p>",0,html-button-response,29,300702,0.0-12.0,6844,List1B,black,woman,,,,,,,,
null,"<div style=""font-size:60px;"">+</div>",,html-keyboard-response,30,302204,0.0-13.0-0.0,6844,List1B,black,woman,,,,null,,,,
null,"<img src=""stim_listB/marry2.gif""</stim_listB>",,html-keyboard-response,31,304208,0.0-13.0-1.0,6844,List1B,black,woman,,,,null,,,,
null,are marrying each other,,html-keyboard-response,32,306209,0.0-13.0-2.0,6844,List1B,black,woman,,,,null,,,,
16043,,,survey-text,33,322254,0.0-13.0-3.0,6844,List1B,black,woman,,,,,"{""Q0"":""Fred and Kate are marrying each other.""}","<img src=""stim_listB/marry2.gif""</stim_listB>",are marrying each other,
null,"<div style=""font-size:60px;"">+</div>",,html-keyboard-response,34,322757,0.0-13.0-0.1,6844,List1B,black,woman,,,,null,,,,
null,"<img src=""stim_listB/meet1.gif""</stim_listB>",,html-keyboard-response,35,324758,0.0-13.0-1.1,6844,List1B,black,woman,,,,null,,,,
null,is meeting,,html-keyboard-response,36,326759,0.0-13.0-2.1,6844,List1B,black,woman,,,,null,,,,
22757,,,survey-text,37,349517,0.0-13.0-3.1,6844,List1B,black,woman,,,,,"{""Q0"":""Mike and Kate are shaking hands.""}","<img src=""stim_listB/meet1.gif""</stim_listB>",is meeting,
null,"<div style=""font-size:60px;"">+</div>",,html-keyboard-response,38,350019,0.0-13.0-0.2,6844,List1B,black,woman,,,,null,,,,
null,"<img src=""stim_listB/argue3.gif""</stim_listB>",,html-keyboard-response,39,352022,0.0-13.0-1.2,6844,List1B,black,woman,,,,null,,,,
null,is arguing with,,html-keyboard-response,40,354023,0.0-13.0-2.2,6844,List1B,black,woman,,,,null,,,,
19614,,,survey-text,41,373637,0.0-13.0-3.2,6844,List1B,black,woman,,,,,"{""Q0"":""Dave is arguing with Ruth.""}","<img src=""stim_listB/argue3.gif""</stim_listB>",is arguing with,
null,"<div style=""font-size:60px;"">+</div>",,html-keyboard-response,42,374139,0.0-13.0-0.3,6844,List1B,black,woman,,,,null,,,,
null,"<img src=""stim_listB/dance5.gif""</stim_listB>",,html-keyboard-response,43,376143,0.0-13.0-1.3,6844,List1B,black,woman,,,,null,,,,
null,is dancing with,,html-keyboard-response,44,378145,0.0-13.0-2.3,6844,List1B,black,woman,,,,null,,,,
10092,,,survey-text,45,388237,0.0-13.0-3.3,6844,List1B,black,woman,,,,,"{""Q0"":""Dave is dancing with Fred.""}","<img src=""stim_listB/dance5.gif""</stim_listB>",is dancing with,
null,"<div style=""font-size:60px;"">+</div>",,html-keyboard-response,46,388738,0.0-13.0-0.4,6844,List1B,black,woman,,,,null,,,,
null,"<img src=""stim_listB/shout1.gif""</stim_listB>",,html-keyboard-response,47,390743,0.0-13.0-1.4,6844,List1B,black,woman,,,,null,,,,
null,is shouting at,,html-keyboard-response,48,392745,0.0-13.0-2.4,6844,List1B,black,woman,,,,null,,,,
11955,,,survey-text,49,404701,0.0-13.0-3.4,6844,List1B,black,woman,,,,,"{""Q0"":""Dave is shouting at Beth.""}","<img src=""stim_listB/shout1.gif""</stim_listB>",is shouting at,
null,"<div style=""font-size:60px;"">+</div>",,html-keyboard-response,50,405203,0.0-13.0-0.5,6844,List1B,black,woman,,,,null,,,,
null,"<img src=""stim_listB/hug8.gif""</stim_listB>",,html-keyboard-response,51,407207,0.0-13.0-1.5,6844,List1B,black,woman,,,,null,,,,
null,are hugging each other,,html-keyboard-response,52,409209,0.0-13.0-2.5,6844,List1B,black,woman,,,,null,,,,
15115,,,survey-text,53,424325,0.0-13.0-3.5,6844,List1B,black,woman,,,,,"{""Q0"":""Jane and Kate are hugging each other.""}","<img src=""stim_listB/hug8.gif""</stim_listB>",are hugging each other,
null,"<div style=""font-size:60px;"">+</div>",,html-keyboard-response,54,424826,0.0-13.0-0.6,6844,List1B,black,woman,,,,null,,,,
null,"<img src=""stim_listB/kiss4.gif""</stim_listB>",,html-keyboard-response,55,426827,0.0-13.0-1.6,6844,List1B,black,woman,,,,null,,,,
null,are kissing each other,,html-keyboard-response,56,428830,0.0-13.0-2.6,6844,List1B,black,woman,,,,null,,,,
10277,,,survey-text,57,439109,0.0-13.0-3.6,6844,List1B,black,woman,,,,,"{""Q0"":""Jane and Dave are kissing each other.""}","<img src=""stim_listB/kiss4.gif""</stim_listB>",are kissing each other,
null,"<div style=""font-size:60px;"">+</div>",,html-keyboard-response,58,439611,0.0-13.0-0.7,6844,List1B,black,woman,,,,null,,,,
null,"<img src=""stim_listB/hug2.gif""</stim_listB>",,html-keyboard-response,59,441615,0.0-13.0-1.7,6844,List1B,black,woman,,,,null,,,,
null,are hugging each other,,html-keyboard-response,60,443616,0.0-13.0-2.7,6844,List1B,black,woman,,,,null,,,,
11228,,,survey-text,61,454845,0.0-13.0-3.7,6844,List1B,black,woman,,,,,"{""Q0"":""Mike and Kate are hugging each other.""}","<img src=""stim_listB/hug2.gif""</stim_listB>",are hugging each other,
null,"<div style=""font-size:60px;"">+</div>",,html-keyboard-response,62,455348,0.0-13.0-0.8,6844,List1B,black,woman,,,,null,,,,
null,"<img src=""stim_listB/meet7.gif""</stim_listB>",,html-keyboard-response,63,457353,0.0-13.0-1.8,6844,List1B,black,woman,,,,null,,,,
null,is meeting,,html-keyboard-response,64,459355,0.0-13.0-2.8,6844,List1B,black,woman,,,,null,,,,
9800,,,survey-text,65,469157,0.0-13.0-3.8,6844,List1B,black,woman,,,,,"{""Q0"":""Jane is meeting Kate.""}","<img src=""stim_listB/meet7.gif""</stim_listB>",is meeting,
null,"<div style=""font-size:60px;"">+</div>",,html-keyboard-response,66,469661,0.0-13.0-0.9,6844,List1B,black,woman,,,,null,,,,
null,"<img src=""stim_listB/talk7.gif""</stim_listB>",,html-keyboard-response,67,471664,0.0-13.0-1.9,6844,List1B,black,woman,,,,null,,,,
null,is talking to,,html-keyboard-response,68,473665,0.0-13.0-2.9,6844,List1B,black,woman,,,,null,,,,
8258,,,survey-text,69,481925,0.0-13.0-3.9,6844,List1B,black,woman,,,,,"{""Q0"":""Jane is talking to Beth.""}","<img src=""stim_listB/talk7.gif""</stim_listB>",is talking to,
null,"<div style=""font-size:60px;"">+</div>",,html-keyboard-response,70,482426,0.0-13.0-0.10,6844,List1B,black,woman,,,,null,,,,
null,"<img src=""stim_listB/hug1.gif""</stim_listB>",,html-keyboard-response,71,484427,0.0-13.0-1.10,6844,List1B,black,woman,,,,null,,,,
null,is hugging,,html-keyboard-response,72,486429,0.0-13.0-2.10,6844,List1B,black,woman,,,,null,,,,
10615,,,survey-text,73,497045,0.0-13.0-3.10,6844,List1B,black,woman,,,,,"{""Q0"":""Fred is hugging Beth.""}","<img src=""stim_listB/hug1.gif""</stim_listB>",is hugging,
null,"<div style=""font-size:60px;"">+</div>",,html-keyboard-response,74,497546,0.0-13.0-0.11,6844,List1B,black,woman,,,,null,,,,
null,"<img src=""stim_listB/talk1.gif""</stim_listB>",,html-keyboard-response,75,499547,0.0-13.0-1.11,6844,List1B,black,woman,,,,null,,,,
null,is talking to,,html-keyboard-response,76,501550,0.0-13.0-2.11,6844,List1B,black,woman,,,,null,,,,
9701,,,survey-text,77,511253,0.0-13.0-3.11,6844,List1B,black,woman,,,,,"{""Q0"":""Fred is talking to Kate.""}","<img src=""stim_listB/talk1.gif""</stim_listB>",is talking to,
null,"<div style=""font-size:60px;"">+</div>",,html-keyboard-response,78,511754,0.0-13.0-0.12,6844,List1B,black,woman,,,,null,,,,
null,"<img src=""stim_listB/shout7.gif""</stim_listB>",,html-keyboard-response,79,513756,0.0-13.0-1.12,6844,List1B,black,woman,,,,null,,,,
null,is shouting at,,html-keyboard-response,80,515759,0.0-13.0-2.12,6844,List1B,black,woman,,,,null,,,,
13708,,,survey-text,81,529469,0.0-13.0-3.12,6844,List1B,black,woman,,,,,"{""Q0"":""Ruth is shouting at Beth.""}","<img src=""stim_listB/shout7.gif""</stim_listB>",is shouting at,
null,"<div style=""font-size:60px;"">+</div>",,html-keyboard-response,82,529970,0.0-13.0-0.13,6844,List1B,black,woman,,,,null,,,,
null,"<img src=""stim_listB/marry8.gif""</stim_listB>",,html-keyboard-response,83,531973,0.0-13.0-1.13,6844,List1B,black,woman,,,,null,,,,
null,are marrying each other,,html-keyboard-response,84,533974,0.0-13.0-2.13,6844,List1B,black,woman,,,,null,,,,
14237,,,survey-text,85,548212,0.0-13.0-3.13,6844,List1B,black,woman,,,,,"{""Q0"":""Beth and Jane are marrying each other.""}","<img src=""stim_listB/marry8.gif""</stim_listB>",are marrying each other,
null,"<div style=""font-size:60px;"">+</div>",,html-keyboard-response,86,548715,0.0-13.0-0.14,6844,List1B,black,woman,,,,null,,,,
null,"<img src=""stim_listB/dance7.gif""</stim_listB>",,html-keyboard-response,87,550717,0.0-13.0-1.14,6844,List1B,black,woman,,,,null,,,,
null,is dancing with,,html-keyboard-response,88,552719,0.0-13.0-2.14,6844,List1B,black,woman,,,,null,,,,
19765,,,survey-text,89,572484,0.0-13.0-3.14,6844,List1B,black,woman,,,,,"{""Q0"":""Jane is  dancing with Beth.""}","<img src=""stim_listB/dance7.gif""</stim_listB>",is dancing with,
null,"<div style=""font-size:60px;"">+</div>",,html-keyboard-response,90,572986,0.0-13.0-0.15,6844,List1B,black,woman,,,,null,,,,
null,"<img src=""stim_listB/kiss3.gif""</stim_listB>",,html-keyboard-response,91,574990,0.0-13.0-1.15,6844,List1B,black,woman,,,,null,,,,
null,is kissing,,html-keyboard-response,92,576992,0.0-13.0-2.15,6844,List1B,black,woman,,,,null,,,,
10251,,,survey-text,93,587244,0.0-13.0-3.15,6844,List1B,black,woman,,,,,"{""Q0"":""Ruth is kissing Luke.""}","<img src=""stim_listB/kiss3.gif""</stim_listB>",is kissing,
null,"<div style=""font-size:60px;"">+</div>",,html-keyboard-response,94,587746,0.0-13.0-0.16,6844,List1B,black,woman,,,,null,,,,
null,"<img src=""stim_listB/marry1.gif""</stim_listB>",,html-keyboard-response,95,589749,0.0-13.0-1.16,6844,List1B,black,woman,,,,null,,,,
null,is marrying,,html-keyboard-response,96,591752,0.0-13.0-2.16,6844,List1B,black,woman,,,,null,,,,
8531,,,survey-text,97,600284,0.0-13.0-3.16,6844,List1B,black,woman,,,,,"{""Q0"":""Mike is marrying Beth.""}","<img src=""stim_listB/marry1.gif""</stim_listB>",is marrying,
null,"<div style=""font-size:60px;"">+</div>",,html-keyboard-response,98,600785,0.0-13.0-0.17,6844,List1B,black,woman,,,,null,,,,
null,"<img src=""stim_listB/hug6.gif""</stim_listB>",,html-keyboard-response,99,602786,0.0-13.0-1.17,6844,List1B,black,woman,,,,null,,,,
null,are hugging each other,,html-keyboard-response,100,604788,0.0-13.0-2.17,6844,List1B,black,woman,,,,null,,,,
16607,,,survey-text,101,621396,0.0-13.0-3.17,6844,List1B,black,woman,,,,,"{""Q0"":""Dave and Mike are hugging each other.""}","<img src=""stim_listB/hug6.gif""</stim_listB>",are hugging each other,
null,"<div style=""font-size:60px;"">+</div>",,html-keyboard-response,102,621898,0.0-13.0-0.18,6844,List1B,black,woman,,,,null,,,,
null,"<img src=""stim_listB/shout8.gif""</stim_listB>",,html-keyboard-response,103,623901,0.0-13.0-1.18,6844,List1B,black,woman,,,,null,,,,
null,are shouting at each other,,html-keyboard-response,104,625902,0.0-13.0-2.18,6844,List1B,black,woman,,,,null,,,,
15182,,,survey-text,105,641084,0.0-13.0-3.18,6844,List1B,black,woman,,,,,"{""Q0"":""Jane and Kate are shouting at each other.""}","<img src=""stim_listB/shout8.gif""</stim_listB>",are shouting at each other,
null,"<div style=""font-size:60px;"">+</div>",,html-keyboard-response,106,641585,0.0-13.0-0.19,6844,List1B,black,woman,,,,null,,,,
null,"<img src=""stim_listB/hug7.gif""</stim_listB>",,html-keyboard-response,107,643588,0.0-13.0-1.19,6844,List1B,black,woman,,,,null,,,,
null,is hugging,,html-keyboard-response,108,645590,0.0-13.0-2.19,6844,List1B,black,woman,,,,null,,,,
13758,,,survey-text,109,659348,0.0-13.0-3.19,6844,List1B,black,woman,,,,,"{""Q0"":""Ruth is hugging Beth.""}","<img src=""stim_listB/hug7.gif""</stim_listB>",is hugging,
19112,"<img src='img/portrait_matrix_list1.JPG' style='width:900px;height:500px;''></img><p>If you have memorised all the portraits and names and are ready to start, press Continue.</p><p><strong>Please note: Your memory of these faces will be tested 4 times during this experiment.</strong></p>",0,html-button-response,110,678460,0.0-14.0-0.0,6844,List1B,black,woman,,,,,,,,
2798,"<img src=""portrait/BW2.jpg""style=""width:400px;height:400px;""></img>",2,html-button-response,111,682260,0.0-14.0-1.0,6844,List1B,black,woman,,TRUE,2,,,,,
null,CORRECT,,html-keyboard-response,112,683765,0.0-14.0-2.0-0.0,6844,List1B,black,woman,,,,null,,,,
5060,"<img src=""portrait/WW1.jpg""style=""width:400px;height:400px;""></img>",1,html-button-response,113,688828,0.0-14.0-4.0,6844,List1B,black,woman,,TRUE,1,,,,,
null,CORRECT,,html-keyboard-response,114,690330,0.0-14.0-5.0-0.0,6844,List1B,black,woman,,,,null,,,,
1792,"<img src=""portrait/WW2.jpg""style=""width:400px;height:400px;""></img>",3,html-button-response,115,692124,0.0-14.0-7.0,6844,List1B,black,woman,,TRUE,3,,,,,
null,CORRECT,,html-keyboard-response,116,693625,0.0-14.0-8.0-0.0,6844,List1B,black,woman,,,,null,,,,
2625,"<img src=""portrait/BM1.jpg""style=""width:400px;height:400px;""></img>",4,html-button-response,117,696252,0.0-14.0-10.0,6844,List1B,black,woman,,TRUE,4,,,,,
null,CORRECT,,html-keyboard-response,118,697765,0.0-14.0-11.0-0.0,6844,List1B,black,woman,,,,null,,,,
2093,"<img src=""portrait/BW1.jpg""style=""width:400px;height:400px;""></img>",0,html-button-response,119,699860,0.0-14.0-13.0,6844,List1B,black,woman,,TRUE,0,,,,,
null,CORRECT,,html-keyboard-response,120,701363,0.0-14.0-14.0-0.0,6844,List1B,black,woman,,,,null,,,,
2864,"<img src=""portrait/BM2.jpg""style=""width:400px;height:400px;""></img>",5,html-button-response,121,704228,0.0-14.0-16.0,6844,List1B,black,woman,,TRUE,5,,,,,
null,CORRECT,,html-keyboard-response,122,705733,0.0-14.0-17.0-0.0,6844,List1B,black,woman,,,,null,,,,
1668,"<img src=""portrait/WM2.jpg""style=""width:400px;height:400px;""></img>",7,html-button-response,123,707404,0.0-14.0-19.0,6844,List1B,black,woman,,TRUE,7,,,,,
null,CORRECT,,html-keyboard-response,124,708907,0.0-14.0-20.0-0.0,6844,List1B,black,woman,,,,null,,,,
1560,"<img src=""portrait/WM1.jpg""style=""width:400px;height:400px;""></img>",6,html-button-response,125,710468,0.0-14.0-22.0,6844,List1B,black,woman,,TRUE,6,,,,,
null,CORRECT,,html-keyboard-response,126,711970,0.0-14.0-23.0-0.0,6844,List1B,black,woman,,,,null,,,,
1897,<p>You got 8 out of 8 right first time. Press Continue.</p>,0,html-button-response,127,713868,0.0-14.0-25.0,6844,List1B,black,woman,,,,,,,,
null,"<div style=""font-size:60px;"">+</div>",,html-keyboard-response,128,715371,0.0-15.0-0.0,6844,List1B,black,woman,,,,null,,,,
null,"<img src=""stim_listB/kiss8.gif""</stim_listB>",,html-keyboard-response,129,717373,0.0-15.0-1.0,6844,List1B,black,woman,,,,null,,,,
null,are kissing each other,,html-keyboard-response,130,719376,0.0-15.0-2.0,6844,List1B,black,woman,,,,null,,,,
15370,,,survey-text,131,734748,0.0-15.0-3.0,6844,List1B,black,woman,,,,,"{""Q0"":""Kate and Jane are kissing each other.""}","<img src=""stim_listB/kiss8.gif""</stim_listB>",are kissing each other,
null,"<div style=""font-size:60px;"">+</div>",,html-keyboard-response,132,735249,0.0-15.0-0.1,6844,List1B,black,woman,,,,null,,,,
null,"<img src=""stim_listB/dance8.gif""</stim_listB>",,html-keyboard-response,133,737250,0.0-15.0-1.1,6844,List1B,black,woman,,,,null,,,,
null,are dancing with each other,,html-keyboard-response,134,739252,0.0-15.0-2.1,6844,List1B,black,woman,,,,null,,,,
11159,,,survey-text,135,750412,0.0-15.0-3.1,6844,List1B,black,woman,,,,,"{""Q0"":""Ruth and Kate are dancing with each other.""}","<img src=""stim_listB/dance8.gif""</stim_listB>",are dancing with each other,
null,"<div style=""font-size:60px;"">+</div>",,html-keyboard-response,136,750914,0.0-15.0-0.2,6844,List1B,black,woman,,,,null,,,,
null,"<img src=""stim_listB/dance6.gif""</stim_listB>",,html-keyboard-response,137,752917,0.0-15.0-1.2,6844,List1B,black,woman,,,,null,,,,
null,are dancing with each other,,html-keyboard-response,138,754918,0.0-15.0-2.2,6844,List1B,black,woman,,,,null,,,,
9269,,,survey-text,139,764188,0.0-15.0-3.2,6844,List1B,black,woman,,,,,"{""Q0"":""Luke and Mike are dancing with each other.""}","<img src=""stim_listB/dance6.gif""</stim_listB>",are dancing with each other,
null,"<div style=""font-size:60px;"">+</div>",,html-keyboard-response,140,764689,0.0-15.0-0.3,6844,List1B,black,woman,,,,null,,,,
null,"<img src=""stim_listB/shout3.gif""</stim_listB>",,html-keyboard-response,141,766692,0.0-15.0-1.3,6844,List1B,black,woman,,,,null,,,,
null,is shouting at,,html-keyboard-response,142,768693,0.0-15.0-2.3,6844,List1B,black,woman,,,,null,,,,
10085,,,survey-text,143,778780,0.0-15.0-3.3,6844,List1B,black,woman,,,,,"{""Q0"":""Ruth is shouting at Luke.""}","<img src=""stim_listB/shout3.gif""</stim_listB>",is shouting at,
null,"<div style=""font-size:60px;"">+</div>",,html-keyboard-response,144,779282,0.0-15.0-0.4,6844,List1B,black,woman,,,,null,,,,
null,"<img src=""stim_listB/fight3.gif""</stim_listB>",,html-keyboard-response,145,781285,0.0-15.0-1.4,6844,List1B,black,woman,,,,null,,,,
null,is fighting,,html-keyboard-response,146,783287,0.0-15.0-2.4,6844,List1B,black,woman,,,,null,,,,
11108,,,survey-text,147,794396,0.0-15.0-3.4,6844,List1B,black,woman,,,,,"{""Q0"":""Jane is fighting Dave.""}","<img src=""stim_listB/fight3.gif""</stim_listB>",is fighting,
null,"<div style=""font-size:60px;"">+</div>",,html-keyboard-response,148,794898,0.0-15.0-0.5,6844,List1B,black,woman,,,,null,,,,
null,"<img src=""stim_listB/marry7.gif""</stim_listB>",,html-keyboard-response,149,796900,0.0-15.0-1.5,6844,List1B,black,woman,,,,null,,,,
null,is marrying,,html-keyboard-response,150,798901,0.0-15.0-2.5,6844,List1B,black,woman,,,,null,,,,
6309,,,survey-text,151,805211,0.0-15.0-3.5,6844,List1B,black,woman,,,,,"{""Q0"":""Kate is marrying Ruth.""}","<img src=""stim_listB/marry7.gif""</stim_listB>",is marrying,
null,"<div style=""font-size:60px;"">+</div>",,html-keyboard-response,152,805714,0.0-15.0-0.6,6844,List1B,black,woman,,,,null,,,,
null,"<img src=""stim_listB/fight8.gif""</stim_listB>",,html-keyboard-response,153,807715,0.0-15.0-1.6,6844,List1B,black,woman,,,,null,,,,
null,are fighting each other,,html-keyboard-response,154,809715,0.0-15.0-2.6,6844,List1B,black,woman,,,,null,,,,
12702,,,survey-text,155,822419,0.0-15.0-3.6,6844,List1B,black,woman,,,,,"{""Q0"":""Beth and Ruth are fighting each other.""}","<img src=""stim_listB/fight8.gif""</stim_listB>",are fighting each other,
null,"<div style=""font-size:60px;"">+</div>",,html-keyboard-response,156,822920,0.0-15.0-0.7,6844,List1B,black,woman,,,,null,,,,
null,"<img src=""stim_listB/fight4.gif""</stim_listB>",,html-keyboard-response,157,824924,0.0-15.0-1.7,6844,List1B,black,woman,,,,null,,,,
null,are fighting each other,,html-keyboard-response,158,826925,0.0-15.0-2.7,6844,List1B,black,woman,,,,null,,,,
10733,,,survey-text,159,837659,0.0-15.0-3.7,6844,List1B,black,woman,,,,,"{""Q0"":""Ruth and Luke are fighting each other.""}","<img src=""stim_listB/fight4.gif""</stim_listB>",are fighting each other,
null,"<div style=""font-size:60px;"">+</div>",,html-keyboard-response,160,838162,0.0-15.0-0.8,6844,List1B,black,woman,,,,null,,,,
null,"<img src=""stim_listB/shout6.gif""</stim_listB>",,html-keyboard-response,161,840166,0.0-15.0-1.8,6844,List1B,black,woman,,,,null,,,,
null,are shouting at each other,,html-keyboard-response,162,842168,0.0-15.0-2.8,6844,List1B,black,woman,,,,null,,,,
9667,,,survey-text,163,851835,0.0-15.0-3.8,6844,List1B,black,woman,,,,,"{""Q0"":""Dave and Mike are shouting at each other.""}","<img src=""stim_listB/shout6.gif""</stim_listB>",are shouting at each other,
null,"<div style=""font-size:60px;"">+</div>",,html-keyboard-response,164,852337,0.0-15.0-0.9,6844,List1B,black,woman,,,,null,,,,
null,"<img src=""stim_listB/meet3.gif""</stim_listB>",,html-keyboard-response,165,854339,0.0-15.0-1.9,6844,List1B,black,woman,,,,null,,,,
null,is meeting,,html-keyboard-response,166,856341,0.0-15.0-2.9,6844,List1B,black,woman,,,,null,,,,
5445,,,survey-text,167,861787,0.0-15.0-3.9,6844,List1B,black,woman,,,,,"{""Q0"":""Dave is meeting Jane.""}","<img src=""stim_listB/meet3.gif""</stim_listB>",is meeting,
null,"<div style=""font-size:60px;"">+</div>",,html-keyboard-response,168,862289,0.0-15.0-0.10,6844,List1B,black,woman,,,,null,,,,
null,"<img src=""stim_listB/meet4.gif""</stim_listB>",,html-keyboard-response,169,864292,0.0-15.0-1.10,6844,List1B,black,woman,,,,null,,,,
null,are meeting each other,,html-keyboard-response,170,866295,0.0-15.0-2.10,6844,List1B,black,woman,,,,null,,,,
11580,,,survey-text,171,877875,0.0-15.0-3.10,6844,List1B,black,woman,,,,,"{""Q0"":""Ruth and Luke are meeting each other.""}","<img src=""stim_listB/meet4.gif""</stim_listB>",are meeting each other,
null,"<div style=""font-size:60px;"">+</div>",,html-keyboard-response,172,878376,0.0-15.0-0.11,6844,List1B,black,woman,,,,null,,,,
null,"<img src=""stim_listB/marry4.gif""</stim_listB>",,html-keyboard-response,173,880378,0.0-15.0-1.11,6844,List1B,black,woman,,,,null,,,,
null,are marrying each other,,html-keyboard-response,174,882379,0.0-15.0-2.11,6844,List1B,black,woman,,,,null,,,,
7728,,,survey-text,175,890107,0.0-15.0-3.11,6844,List1B,black,woman,,,,,"{""Q0"":""Jane and Luke are marrying each other.""}","<img src=""stim_listB/marry4.gif""</stim_listB>",are marrying each other,
null,"<div style=""font-size:60px;"">+</div>",,html-keyboard-response,176,890608,0.0-15.0-0.12,6844,List1B,black,woman,,,,null,,,,
null,"<img src=""stim_listB/talk3.gif""</stim_listB>",,html-keyboard-response,177,892610,0.0-15.0-1.12,6844,List1B,black,woman,,,,null,,,,
null,is talking to,,html-keyboard-response,178,894611,0.0-15.0-2.12,6844,List1B,black,woman,,,,null,,,,
7824,,,survey-text,179,902435,0.0-15.0-3.12,6844,List1B,black,woman,,,,,"{""Q0"":""Jane is talking to Luke.""}","<img src=""stim_listB/talk3.gif""</stim_listB>",is talking to,
null,"<div style=""font-size:60px;"">+</div>",,html-keyboard-response,180,902936,0.0-15.0-0.13,6844,List1B,black,woman,,,,null,,,,
null,"<img src=""stim_listB/hug5.gif""</stim_listB>",,html-keyboard-response,181,904939,0.0-15.0-1.13,6844,List1B,black,woman,,,,null,,,,
null,is hugging,,html-keyboard-response,182,906940,0.0-15.0-2.13,6844,List1B,black,woman,,,,null,,,,
8783,,,survey-text,183,915723,0.0-15.0-3.13,6844,List1B,black,woman,,,,,"{""Q0"":""Fred is hugging Luke.""}","<img src=""stim_listB/hug5.gif""</stim_listB>",is hugging,
null,"<div style=""font-size:60px;"">+</div>",,html-keyboard-response,184,916224,0.0-15.0-0.14,6844,List1B,black,woman,,,,null,,,,
null,"<img src=""stim_listB/meet2.gif""</stim_listB>",,html-keyboard-response,185,918225,0.0-15.0-1.14,6844,List1B,black,woman,,,,null,,,,
null,are meeting each other,,html-keyboard-response,186,920226,0.0-15.0-2.14,6844,List1B,black,woman,,,,null,,,,
13896,,,survey-text,187,934124,0.0-15.0-3.14,6844,List1B,black,woman,,,,,"{""Q0"":""Fred and Beth are meeting each other.""}","<img src=""stim_listB/meet2.gif""</stim_listB>",are meeting each other,
null,"<div style=""font-size:60px;"">+</div>",,html-keyboard-response,188,934625,0.0-15.0-0.15,6844,List1B,black,woman,,,,null,,,,
null,"<img src=""stim_listB/marry5.gif""</stim_listB>",,html-keyboard-response,189,936626,0.0-15.0-1.15,6844,List1B,black,woman,,,,null,,,,
null,is marrying,,html-keyboard-response,190,938627,0.0-15.0-2.15,6844,List1B,black,woman,,,,null,,,,
5975,,,survey-text,191,944603,0.0-15.0-3.15,6844,List1B,black,woman,,,,,"{""Q0"":""Mike is marrying Luke.""}","<img src=""stim_listB/marry5.gif""</stim_listB>",is marrying,
null,"<div style=""font-size:60px;"">+</div>",,html-keyboard-response,192,945104,0.0-15.0-0.16,6844,List1B,black,woman,,,,null,,,,
null,"<img src=""stim_listB/meet6.gif""</stim_listB>",,html-keyboard-response,193,947108,0.0-15.0-1.16,6844,List1B,black,woman,,,,null,,,,
null,are meeting each other,,html-keyboard-response,194,949110,0.0-15.0-2.16,6844,List1B,black,woman,,,,null,,,,
11285,,,survey-text,195,960395,0.0-15.0-3.16,6844,List1B,black,woman,,,,,"{""Q0"":""Fred and Luke are meeting each other.""}","<img src=""stim_listB/meet6.gif""</stim_listB>",are meeting each other,
null,"<div style=""font-size:60px;"">+</div>",,html-keyboard-response,196,960898,0.0-15.0-0.17,6844,List1B,black,woman,,,,null,,,,
null,"<img src=""stim_listB/talk2.gif""</stim_listB>",,html-keyboard-response,197,962900,0.0-15.0-1.17,6844,List1B,black,woman,,,,null,,,,
null,are talking to each other,,html-keyboard-response,198,964902,0.0-15.0-2.17,6844,List1B,black,woman,,,,null,,,,
8716,,,survey-text,199,973619,0.0-15.0-3.17,6844,List1B,black,woman,,,,,"{""Q0"":""Mike and Beth are talking to each other.""}","<img src=""stim_listB/talk2.gif""</stim_listB>",are talking to each other,
null,"<div style=""font-size:60px;"">+</div>",,html-keyboard-response,200,974122,0.0-15.0-0.18,6844,List1B,black,woman,,,,null,,,,
null,"<img src=""stim_listB/hug3.gif""</stim_listB>",,html-keyboard-response,201,976124,0.0-15.0-1.18,6844,List1B,black,woman,,,,null,,,,
null,is hugging,,html-keyboard-response,202,978126,0.0-15.0-2.18,6844,List1B,black,woman,,,,null,,,,
6716,,,survey-text,203,984843,0.0-15.0-3.18,6844,List1B,black,woman,,,,,"{""Q0"":""Ruth is hugging Luke.""}","<img src=""stim_listB/hug3.gif""</stim_listB>",is hugging,
null,"<div style=""font-size:60px;"">+</div>",,html-keyboard-response,204,985345,0.0-15.0-0.19,6844,List1B,black,woman,,,,null,,,,
null,"<img src=""stim_listB/argue6.gif""</stim_listB>",,html-keyboard-response,205,987348,0.0-15.0-1.19,6844,List1B,black,woman,,,,null,,,,
null,are arguing with each other,,html-keyboard-response,206,989350,0.0-15.0-2.19,6844,List1B,black,woman,,,,null,,,,
10772,,,survey-text,207,1000123,0.0-15.0-3.19,6844,List1B,black,woman,,,,,"{""Q0"":""Dave and Fred are arguing with each other.""}","<img src=""stim_listB/argue6.gif""</stim_listB>",are arguing with each other,
36791,"<img src='img/portrait_matrix_list1.JPG' style='width:900px;height:500px;''></img><p>If you have memorised all the portraits and names and are ready to start, press Continue.</p><p><strong>Please note: Your memory of these faces will be tested 4 times during this experiment.</strong></p>",0,html-button-response,208,1036915,0.0-16.0-0.0,6844,List1B,black,woman,,,,,,,,
1956,"<img src=""portrait/BM1.jpg""style=""width:400px;height:400px;""></img>",4,html-button-response,209,1039875,0.0-16.0-1.0,6844,List1B,black,woman,,TRUE,4,,,,,
null,CORRECT,,html-keyboard-response,210,1041377,0.0-16.0-2.0-0.0,6844,List1B,black,woman,,,,null,,,,
2480,"<img src=""portrait/WM2.jpg""style=""width:400px;height:400px;""></img>",7,html-button-response,211,1043859,0.0-16.0-4.0,6844,List1B,black,woman,,TRUE,7,,,,,
null,CORRECT,,html-keyboard-response,212,1045361,0.0-16.0-5.0-0.0,6844,List1B,black,woman,,,,null,,,,
2560,"<img src=""portrait/WM1.jpg""style=""width:400px;height:400px;""></img>",6,html-button-response,213,1047922,0.0-16.0-7.0,6844,List1B,black,woman,,TRUE,6,,,,,
null,CORRECT,,html-keyboard-response,214,1049425,0.0-16.0-8.0-0.0,6844,List1B,black,woman,,,,null,,,,
2464,"<img src=""portrait/BW1.jpg""style=""width:400px;height:400px;""></img>",0,html-button-response,215,1051890,0.0-16.0-10.0,6844,List1B,black,woman,,TRUE,0,,,,,
null,CORRECT,,html-keyboard-response,216,1053394,0.0-16.0-11.0-0.0,6844,List1B,black,woman,,,,null,,,,
3072,"<img src=""portrait/WW2.jpg""style=""width:400px;height:400px;""></img>",3,html-button-response,217,1056467,0.0-16.0-13.0,6844,List1B,black,woman,,TRUE,3,,,,,
null,CORRECT,,html-keyboard-response,218,1057969,0.0-16.0-14.0-0.0,6844,List1B,black,woman,,,,null,,,,
2343,"<img src=""portrait/WW1.jpg""style=""width:400px;height:400px;""></img>",1,html-button-response,219,1060314,0.0-16.0-16.0,6844,List1B,black,woman,,TRUE,1,,,,,
null,CORRECT,,html-keyboard-response,220,1061820,0.0-16.0-17.0-0.0,6844,List1B,black,woman,,,,null,,,,
1918,"<img src=""portrait/BM2.jpg""style=""width:400px;height:400px;""></img>",5,html-button-response,221,1063738,0.0-16.0-19.0,6844,List1B,black,woman,,TRUE,5,,,,,
null,CORRECT,,html-keyboard-response,222,1065241,0.0-16.0-20.0-0.0,6844,List1B,black,woman,,,,null,,,,
3063,"<img src=""portrait/BW2.jpg""style=""width:400px;height:400px;""></img>",2,html-button-response,223,1068306,0.0-16.0-22.0,6844,List1B,black,woman,,TRUE,2,,,,,
null,CORRECT,,html-keyboard-response,224,1069808,0.0-16.0-23.0-0.0,6844,List1B,black,woman,,,,null,,,,
1680,<p>You got 8 out of 8 right first time. Press Continue.</p>,0,html-button-response,225,1071490,0.0-16.0-25.0,6844,List1B,black,woman,,,,,,,,
null,"<div style=""font-size:60px;"">+</div>",,html-keyboard-response,226,1072993,0.0-17.0-0.0,6844,List1B,black,woman,,,,null,,,,
null,"<img src=""stim_listB/shout2.gif""</stim_listB>",,html-keyboard-response,227,1074995,0.0-17.0-1.0,6844,List1B,black,woman,,,,null,,,,
null,are shouting at each other,,html-keyboard-response,228,1076997,0.0-17.0-2.0,6844,List1B,black,woman,,,,null,,,,
8573,,,survey-text,229,1085570,0.0-17.0-3.0,6844,List1B,black,woman,,,,,"{""Q0"":""Mike and Kate are shouting at each other.""}","<img src=""stim_listB/shout2.gif""</stim_listB>",are shouting at each other,
null,"<div style=""font-size:60px;"">+</div>",,html-keyboard-response,230,1086072,0.0-17.0-0.1,6844,List1B,black,woman,,,,null,,,,
null,"<img src=""stim_listB/kiss7.gif""</stim_listB>",,html-keyboard-response,231,1088073,0.0-17.0-1.1,6844,List1B,black,woman,,,,null,,,,
null,is kissing,,html-keyboard-response,232,1090075,0.0-17.0-2.1,6844,List1B,black,woman,,,,null,,,,
8814,,,survey-text,233,1098890,0.0-17.0-3.1,6844,List1B,black,woman,,,,,"{""Q0"":""Ruth is kissing Beth.""}","<img src=""stim_listB/kiss7.gif""</stim_listB>",is kissing,
null,"<div style=""font-size:60px;"">+</div>",,html-keyboard-response,234,1099393,0.0-17.0-0.2,6844,List1B,black,woman,,,,null,,,,
null,"<img src=""stim_listB/fight7.gif""</stim_listB>",,html-keyboard-response,235,1101395,0.0-17.0-1.2,6844,List1B,black,woman,,,,null,,,,
null,is fighting,,html-keyboard-response,236,1103397,0.0-17.0-2.2,6844,List1B,black,woman,,,,null,,,,
8996,,,survey-text,237,1112394,0.0-17.0-3.2,6844,List1B,black,woman,,,,,"{""Q0"":""Jane is fighting Kate.""}","<img src=""stim_listB/fight7.gif""</stim_listB>",is fighting,
null,"<div style=""font-size:60px;"">+</div>",,html-keyboard-response,238,1112895,0.0-17.0-0.3,6844,List1B,black,woman,,,,null,,,,
null,"<img src=""stim_listB/talk5.gif""</stim_listB>",,html-keyboard-response,239,1114898,0.0-17.0-1.3,6844,List1B,black,woman,,,,null,,,,
null,is talking to,,html-keyboard-response,240,1116901,0.0-17.0-2.3,6844,List1B,black,woman,,,,null,,,,
9780,,,survey-text,241,1126682,0.0-17.0-3.3,6844,List1B,black,woman,,,,,"{""Q0"":""Fred is talking to Dave.""}","<img src=""stim_listB/talk5.gif""</stim_listB>",is talking to,
null,"<div style=""font-size:60px;"">+</div>",,html-keyboard-response,242,1127183,0.0-17.0-0.4,6844,List1B,black,woman,,,,null,,,,
null,"<img src=""stim_listB/dance2.gif""</stim_listB>",,html-keyboard-response,243,1129185,0.0-17.0-1.4,6844,List1B,black,woman,,,,null,,,,
null,are dancing with each other,,html-keyboard-response,244,1131187,0.0-17.0-2.4,6844,List1B,black,woman,,,,null,,,,
9678,,,survey-text,245,1140866,0.0-17.0-3.4,6844,List1B,black,woman,,,,,"{""Q0"":""Mike and Beth are dancing with each other.""}","<img src=""stim_listB/dance2.gif""</stim_listB>",are dancing with each other,
null,"<div style=""font-size:60px;"">+</div>",,html-keyboard-response,246,1141368,0.0-17.0-0.5,6844,List1B,black,woman,,,,null,,,,
null,"<img src=""stim_listB/argue7.gif""</stim_listB>",,html-keyboard-response,247,1143370,0.0-17.0-1.5,6844,List1B,black,woman,,,,null,,,,
null,is arguing with,,html-keyboard-response,248,1145372,0.0-17.0-2.5,6844,List1B,black,woman,,,,null,,,,
6995,,,survey-text,249,1152370,0.0-17.0-3.5,6844,List1B,black,woman,,,,,"{""Q0"":""Ruth is arguing with Kate.""}","<img src=""stim_listB/argue7.gif""</stim_listB>",is arguing with,
null,"<div style=""font-size:60px;"">+</div>",,html-keyboard-response,250,1152871,0.0-17.0-0.6,6844,List1B,black,woman,,,,null,,,,
null,"<img src=""stim_listB/argue2.gif""</stim_listB>",,html-keyboard-response,251,1154872,0.0-17.0-1.6,6844,List1B,black,woman,,,,null,,,,
null,are arguing with each other,,html-keyboard-response,252,1156874,0.0-17.0-2.6,6844,List1B,black,woman,,,,null,,,,
13808,,,survey-text,253,1170682,0.0-17.0-3.6,6844,List1B,black,woman,,,,,"{""Q0"":""Kate and Fred are arguing with each other.""}","<img src=""stim_listB/argue2.gif""</stim_listB>",are arguing with each other,
null,"<div style=""font-size:60px;"">+</div>",,html-keyboard-response,254,1171185,0.0-17.0-0.7,6844,List1B,black,woman,,,,null,,,,
null,"<img src=""stim_listB/touch5.gif""</stim_listB>",,html-keyboard-response,255,1173187,0.0-17.0-1.7,6844,List1B,black,woman,,,,null,,,,
null,is touching,,html-keyboard-response,256,1175188,0.0-17.0-2.7,6844,List1B,black,woman,,,,null,,,,
5781,,,survey-text,257,1180970,0.0-17.0-3.7,6844,List1B,black,woman,,,,,"{""Q0"":""Dave is touching Mike.""}","<img src=""stim_listB/touch5.gif""</stim_listB>",is touching,
null,"<div style=""font-size:60px;"">+</div>",,html-keyboard-response,258,1181471,0.0-17.0-0.8,6844,List1B,black,woman,,,,null,,,,
null,"<img src=""stim_listB/touch3.gif""</stim_listB>",,html-keyboard-response,259,1183473,0.0-17.0-1.8,6844,List1B,black,woman,,,,null,,,,
null,is touching,,html-keyboard-response,260,1185475,0.0-17.0-2.8,6844,List1B,black,woman,,,,null,,,,
7215,,,survey-text,261,1192690,0.0-17.0-3.8,6844,List1B,black,woman,,,,,"{""Q0"":""Jane is touching Dave.""}","<img src=""stim_listB/touch3.gif""</stim_listB>",is touching,
null,"<div style=""font-size:60px;"">+</div>",,html-keyboard-response,262,1193193,0.0-17.0-0.9,6844,List1B,black,woman,,,,null,,,,
null,"<img src=""stim_listB/talk8.gif""</stim_listB>",,html-keyboard-response,263,1195198,0.0-17.0-1.9,6844,List1B,black,woman,,,,null,,,,
null,are talking to each other,,html-keyboard-response,264,1197199,0.0-17.0-2.9,6844,List1B,black,woman,,,,null,,,,
8083,,,survey-text,265,1205282,0.0-17.0-3.9,6844,List1B,black,woman,,,,,"{""Q0"":""Ruth and Kate are talking to each other.""}","<img src=""stim_listB/talk8.gif""</stim_listB>",are talking to each other,
null,"<div style=""font-size:60px;"">+</div>",,html-keyboard-response,266,1205784,0.0-17.0-0.10,6844,List1B,black,woman,,,,null,,,,
null,"<img src=""stim_listB/touch6.gif""</stim_listB>",,html-keyboard-response,267,1207787,0.0-17.0-1.10,6844,List1B,black,woman,,,,null,,,,
null,are touching each other,,html-keyboard-response,268,1209788,0.0-17.0-2.10,6844,List1B,black,woman,,,,null,,,,
8605,,,survey-text,269,1218394,0.0-17.0-3.10,6844,List1B,black,woman,,,,,"{""Q0"":""Fred and Luke are touching each other.""}","<img src=""stim_listB/touch6.gif""</stim_listB>",are touching each other,
null,"<div style=""font-size:60px;"">+</div>",,html-keyboard-response,270,1218896,0.0-17.0-0.11,6844,List1B,black,woman,,,,null,,,,
null,"<img src=""stim_listB/argue5.gif""</stim_listB>",,html-keyboard-response,271,1220898,0.0-17.0-1.11,6844,List1B,black,woman,,,,null,,,,
null,is arguing with,,html-keyboard-response,272,1222899,0.0-17.0-2.11,6844,List1B,black,woman,,,,null,,,,
8566,,,survey-text,273,1231466,0.0-17.0-3.11,6844,List1B,black,woman,,,,,"{""Q0"":""Mike is arguing with Luke.""}","<img src=""stim_listB/argue5.gif""</stim_listB>",is arguing with,
null,"<div style=""font-size:60px;"">+</div>",,html-keyboard-response,274,1231967,0.0-17.0-0.12,6844,List1B,black,woman,,,,null,,,,
null,"<img src=""stim_listB/touch7.gif""</stim_listB>",,html-keyboard-response,275,1233969,0.0-17.0-1.12,6844,List1B,black,woman,,,,null,,,,
null,is touching,,html-keyboard-response,276,1235971,0.0-17.0-2.12,6844,List1B,black,woman,,,,null,,,,
5350,,,survey-text,277,1241322,0.0-17.0-3.12,6844,List1B,black,woman,,,,,"{""Q0"":""Jane is touching Kate.""}","<img src=""stim_listB/touch7.gif""</stim_listB>",is touching,
null,"<div style=""font-size:60px;"">+</div>",,html-keyboard-response,278,1241823,0.0-17.0-0.13,6844,List1B,black,woman,,,,null,,,,
null,"<img src=""stim_listB/fight1.gif""</stim_listB>",,html-keyboard-response,279,1243825,0.0-17.0-1.13,6844,List1B,black,woman,,,,null,,,,
null,is fighting,,html-keyboard-response,280,1245827,0.0-17.0-2.13,6844,List1B,black,woman,,,,null,,,,
6749,,,survey-text,281,1252578,0.0-17.0-3.13,6844,List1B,black,woman,,,,,"{""Q0"":""Mike is fighting Kate.""}","<img src=""stim_listB/fight1.gif""</stim_listB>",is fighting,
null,"<div style=""font-size:60px;"">+</div>",,html-keyboard-response,282,1253079,0.0-17.0-0.14,6844,List1B,black,woman,,,,null,,,,
null,"<img src=""stim_listB/marry3.gif""</stim_listB>",,html-keyboard-response,283,1255083,0.0-17.0-1.14,6844,List1B,black,woman,,,,null,,,,
null,is marrying,,html-keyboard-response,284,1257086,0.0-17.0-2.14,6844,List1B,black,woman,,,,null,,,,
9123,,,survey-text,285,1266210,0.0-17.0-3.14,6844,List1B,black,woman,,,,,"{""Q0"":""Ruth is marrying Dave.""}","<img src=""stim_listB/marry3.gif""</stim_listB>",is marrying,
null,"<div style=""font-size:60px;"">+</div>",,html-keyboard-response,286,1266710,0.0-17.0-0.15,6844,List1B,black,woman,,,,null,,,,
null,"<img src=""stim_listB/fight2.gif""</stim_listB>",,html-keyboard-response,287,1268712,0.0-17.0-1.15,6844,List1B,black,woman,,,,null,,,,
null,are fighting each other,,html-keyboard-response,288,1270713,0.0-17.0-2.15,6844,List1B,black,woman,,,,null,,,,
13760,,,survey-text,289,1284474,0.0-17.0-3.15,6844,List1B,black,woman,,,,,"{""Q0"":""Fred and Beth are fighting with each other.""}","<img src=""stim_listB/fight2.gif""</stim_listB>",are fighting each other,
null,"<div style=""font-size:60px;"">+</div>",,html-keyboard-response,290,1284976,0.0-17.0-0.16,6844,List1B,black,woman,,,,null,,,,
null,"<img src=""stim_listB/shout4.gif""</stim_listB>",,html-keyboard-response,291,1286979,0.0-17.0-1.16,6844,List1B,black,woman,,,,null,,,,
null,are shouting at each other,,html-keyboard-response,292,1288986,0.0-17.0-2.16,6844,List1B,black,woman,,,,null,,,,
10182,,,survey-text,293,1299170,0.0-17.0-3.16,6844,List1B,black,woman,,,,,"{""Q0"":""Jane and Dave are shouting at each other.""}","<img src=""stim_listB/shout4.gif""</stim_listB>",are shouting at each other,
null,"<div style=""font-size:60px;"">+</div>",,html-keyboard-response,294,1299671,0.0-17.0-0.17,6844,List1B,black,woman,,,,null,,,,
null,"<img src=""stim_listB/fight5.gif""</stim_listB>",,html-keyboard-response,295,1301674,0.0-17.0-1.17,6844,List1B,black,woman,,,,null,,,,
null,is fighting,,html-keyboard-response,296,1303675,0.0-17.0-2.17,6844,List1B,black,woman,,,,null,,,,
5918,,,survey-text,297,1309593,0.0-17.0-3.17,6844,List1B,black,woman,,,,,"{""Q0"":""Dave is fighting Mike.""}","<img src=""stim_listB/fight5.gif""</stim_listB>",is fighting,
null,"<div style=""font-size:60px;"">+</div>",,html-keyboard-response,298,1310094,0.0-17.0-0.18,6844,List1B,black,woman,,,,null,,,,
null,"<img src=""stim_listB/fight6.gif""</stim_listB>",,html-keyboard-response,299,1312097,0.0-17.0-1.18,6844,List1B,black,woman,,,,null,,,,
null,are fighting each other,,html-keyboard-response,300,1314097,0.0-17.0-2.18,6844,List1B,black,woman,,,,null,,,,
8927,,,survey-text,301,1323025,0.0-17.0-3.18,6844,List1B,black,woman,,,,,"{""Q0"":""Fred and Luke are fighting each other.""}","<img src=""stim_listB/fight6.gif""</stim_listB>",are fighting each other,
null,"<div style=""font-size:60px;"">+</div>",,html-keyboard-response,302,1323527,0.0-17.0-0.19,6844,List1B,black,woman,,,,null,,,,
null,"<img src=""stim_listB/kiss5.gif""</stim_listB>",,html-keyboard-response,303,1325529,0.0-17.0-1.19,6844,List1B,black,woman,,,,null,,,,
null,is kissing,,html-keyboard-response,304,1327531,0.0-17.0-2.19,6844,List1B,black,woman,,,,null,,,,
8469,,,survey-text,305,1336001,0.0-17.0-3.19,6844,List1B,black,woman,,,,,"{""Q0"":""Fred is kissing Luke.""}","<img src=""stim_listB/kiss5.gif""</stim_listB>",is kissing,
32551,"<img src='img/portrait_matrix_list1.JPG' style='width:900px;height:500px;''></img><p>If you have memorised all the portraits and names and are ready to start, press Continue.</p><p><strong>Please note: Your memory of these faces will be tested 4 times during this experiment.</strong></p>",0,html-button-response,306,1368553,0.0-18.0-0.0,6844,List1B,black,woman,,,,,,,,
2191,"<img src=""portrait/BM2.jpg""style=""width:400px;height:400px;""></img>",5,html-button-response,307,1371745,0.0-18.0-1.0,6844,List1B,black,woman,,TRUE,5,,,,,
null,CORRECT,,html-keyboard-response,308,1373247,0.0-18.0-2.0-0.0,6844,List1B,black,woman,,,,null,,,,
1842,"<img src=""portrait/BW1.jpg""style=""width:400px;height:400px;""></img>",0,html-button-response,309,1375089,0.0-18.0-4.0,6844,List1B,black,woman,,TRUE,0,,,,,
null,CORRECT,,html-keyboard-response,310,1376593,0.0-18.0-5.0-0.0,6844,List1B,black,woman,,,,null,,,,
1943,"<img src=""portrait/WM2.jpg""style=""width:400px;height:400px;""></img>",7,html-button-response,311,1378537,0.0-18.0-7.0,6844,List1B,black,woman,,TRUE,7,,,,,
null,CORRECT,,html-keyboard-response,312,1380040,0.0-18.0-8.0-0.0,6844,List1B,black,woman,,,,null,,,,
2063,"<img src=""portrait/WW1.jpg""style=""width:400px;height:400px;""></img>",1,html-button-response,313,1382106,0.0-18.0-10.0,6844,List1B,black,woman,,TRUE,1,,,,,
null,CORRECT,,html-keyboard-response,314,1383607,0.0-18.0-11.0-0.0,6844,List1B,black,woman,,,,null,,,,
1488,"<img src=""portrait/WW2.jpg""style=""width:400px;height:400px;""></img>",3,html-button-response,315,1385098,0.0-18.0-13.0,6844,List1B,black,woman,,TRUE,3,,,,,
null,CORRECT,,html-keyboard-response,316,1386602,0.0-18.0-14.0-0.0,6844,List1B,black,woman,,,,null,,,,
1765,"<img src=""portrait/BW2.jpg""style=""width:400px;height:400px;""></img>",2,html-button-response,317,1388369,0.0-18.0-16.0,6844,List1B,black,woman,,TRUE,2,,,,,
null,CORRECT,,html-keyboard-response,318,1389874,0.0-18.0-17.0-0.0,6844,List1B,black,woman,,,,null,,,,
2838,"<img src=""portrait/WM1.jpg""style=""width:400px;height:400px;""></img>",6,html-button-response,319,1392714,0.0-18.0-19.0,6844,List1B,black,woman,,TRUE,6,,,,,
null,CORRECT,,html-keyboard-response,320,1394217,0.0-18.0-20.0-0.0,6844,List1B,black,woman,,,,null,,,,
1567,"<img src=""portrait/BM1.jpg""style=""width:400px;height:400px;""></img>",4,html-button-response,321,1395785,0.0-18.0-22.0,6844,List1B,black,woman,,TRUE,4,,,,,
null,CORRECT,,html-keyboard-response,322,1397289,0.0-18.0-23.0-0.0,6844,List1B,black,woman,,,,null,,,,
8936,<p>You got 8 out of 8 right first time. Press Continue.</p>,0,html-button-response,323,1406225,0.0-18.0-25.0,6844,List1B,black,woman,,,,,,,,
null,"<div style=""font-size:60px;"">+</div>",,html-keyboard-response,324,1407728,0.0-19.0-0.0,6844,List1B,black,woman,,,,null,,,,
null,"<img src=""stim_listB/dance1.gif""</stim_listB>",,html-keyboard-response,325,1409732,0.0-19.0-1.0,6844,List1B,black,woman,,,,null,,,,
null,is dancing with,,html-keyboard-response,326,1411733,0.0-19.0-2.0,6844,List1B,black,woman,,,,null,,,,
6739,,,survey-text,327,1418473,0.0-19.0-3.0,6844,List1B,black,woman,,,,,"{""Q0"":""Fred is dancing with Kate.""}","<img src=""stim_listB/dance1.gif""</stim_listB>",is dancing with,
null,"<div style=""font-size:60px;"">+</div>",,html-keyboard-response,328,1418975,0.0-19.0-0.1,6844,List1B,black,woman,,,,null,,,,
null,"<img src=""stim_listB/dance3.gif""</stim_listB>",,html-keyboard-response,329,1420977,0.0-19.0-1.1,6844,List1B,black,woman,,,,null,,,,
null,is dancing with,,html-keyboard-response,330,1422980,0.0-19.0-2.1,6844,List1B,black,woman,,,,null,,,,
6876,,,survey-text,331,1429857,0.0-19.0-3.1,6844,List1B,black,woman,,,,,"{""Q0"":""Jane is dancing with Luke.""}","<img src=""stim_listB/dance3.gif""</stim_listB>",is dancing with,
null,"<div style=""font-size:60px;"">+</div>",,html-keyboard-response,332,1430358,0.0-19.0-0.2,6844,List1B,black,woman,,,,null,,,,
null,"<img src=""stim_listB/kiss2.gif""</stim_listB>",,html-keyboard-response,333,1432360,0.0-19.0-1.2,6844,List1B,black,woman,,,,null,,,,
null,are kissing each other,,html-keyboard-response,334,1434361,0.0-19.0-2.2,6844,List1B,black,woman,,,,null,,,,
12463,,,survey-text,335,1446825,0.0-19.0-3.2,6844,List1B,black,woman,,,,,"{""Q0"":""Kate and Mike are kissing each other.""}","<img src=""stim_listB/kiss2.gif""</stim_listB>",are kissing each other,
null,"<div style=""font-size:60px;"">+</div>",,html-keyboard-response,336,1447328,0.0-19.0-0.3,6844,List1B,black,woman,,,,null,,,,
null,"<img src=""stim_listB/shout5.gif""</stim_listB>",,html-keyboard-response,337,1449330,0.0-19.0-1.3,6844,List1B,black,woman,,,,null,,,,
null,is shouting at,,html-keyboard-response,338,1451332,0.0-19.0-2.3,6844,List1B,black,woman,,,,null,,,,
6323,,,survey-text,339,1457657,0.0-19.0-3.3,6844,List1B,black,woman,,,,,"{""Q0"":""Luke is shouting at Fred.""}","<img src=""stim_listB/shout5.gif""</stim_listB>",is shouting at,
null,"<div style=""font-size:60px;"">+</div>",,html-keyboard-response,340,1458158,0.0-19.0-0.4,6844,List1B,black,woman,,,,null,,,,
null,"<img src=""stim_listB/dance4.gif""</stim_listB>",,html-keyboard-response,341,1460161,0.0-19.0-1.4,6844,List1B,black,woman,,,,null,,,,
null,are dancing with each other,,html-keyboard-response,342,1462162,0.0-19.0-2.4,6844,List1B,black,woman,,,,null,,,,
11773,,,survey-text,343,1473936,0.0-19.0-3.4,6844,List1B,black,woman,,,,,"{""Q0"":""Dave and Ruth are dancing with each other.""}","<img src=""stim_listB/dance4.gif""</stim_listB>",are dancing with each other,
null,"<div style=""font-size:60px;"">+</div>",,html-keyboard-response,344,1474438,0.0-19.0-0.5,6844,List1B,black,woman,,,,null,,,,
null,"<img src=""stim_listB/touch1.gif""</stim_listB>",,html-keyboard-response,345,1476441,0.0-19.0-1.5,6844,List1B,black,woman,,,,null,,,,
null,is touching,,html-keyboard-response,346,1478443,0.0-19.0-2.5,6844,List1B,black,woman,,,,null,,,,
7083,,,survey-text,347,1485528,0.0-19.0-3.5,6844,List1B,black,woman,,,,,"{""Q0"":""Mike is touching Kate.""}","<img src=""stim_listB/touch1.gif""</stim_listB>",is touching,
null,"<div style=""font-size:60px;"">+</div>",,html-keyboard-response,348,1486031,0.0-19.0-0.6,6844,List1B,black,woman,,,,null,,,,
null,"<img src=""stim_listB/argue8.gif""</stim_listB>",,html-keyboard-response,349,1488035,0.0-19.0-1.6,6844,List1B,black,woman,,,,null,,,,
null,are arguing with each other,,html-keyboard-response,350,1490035,0.0-19.0-2.6,6844,List1B,black,woman,,,,null,,,,
10940,,,survey-text,351,1500976,0.0-19.0-3.6,6844,List1B,black,woman,,,,,"{""Q0"":""Jane and Beth are arguing with each other.""}","<img src=""stim_listB/argue8.gif""</stim_listB>",are arguing with each other,
null,"<div style=""font-size:60px;"">+</div>",,html-keyboard-response,352,1501478,0.0-19.0-0.7,6844,List1B,black,woman,,,,null,,,,
null,"<img src=""stim_listB/argue1.gif""</stim_listB>",,html-keyboard-response,353,1503480,0.0-19.0-1.7,6844,List1B,black,woman,,,,null,,,,
null,is arguing with,,html-keyboard-response,354,1505481,0.0-19.0-2.7,6844,List1B,black,woman,,,,null,,,,
7934,,,survey-text,355,1513416,0.0-19.0-3.7,6844,List1B,black,woman,,,,,"{""Q0"":""Beth is arguing with Mike.""}","<img src=""stim_listB/argue1.gif""</stim_listB>",is arguing with,
null,"<div style=""font-size:60px;"">+</div>",,html-keyboard-response,356,1513917,0.0-19.0-0.8,6844,List1B,black,woman,,,,null,,,,
null,"<img src=""stim_listB/marry6.gif""</stim_listB>",,html-keyboard-response,357,1515920,0.0-19.0-1.8,6844,List1B,black,woman,,,,null,,,,
null,are marrying each other,,html-keyboard-response,358,1517921,0.0-19.0-2.8,6844,List1B,black,woman,,,,null,,,,
8639,,,survey-text,359,1526560,0.0-19.0-3.8,6844,List1B,black,woman,,,,,"{""Q0"":""Dave and Fred are marrying each other.""}","<img src=""stim_listB/marry6.gif""</stim_listB>",are marrying each other,
null,"<div style=""font-size:60px;"">+</div>",,html-keyboard-response,360,1527063,0.0-19.0-0.9,6844,List1B,black,woman,,,,null,,,,
null,"<img src=""stim_listB/hug4.gif""</stim_listB>",,html-keyboard-response,361,1529066,0.0-19.0-1.9,6844,List1B,black,woman,,,,null,,,,
null,are hugging each other,,html-keyboard-response,362,1531068,0.0-19.0-2.9,6844,List1B,black,woman,,,,null,,,,
9376,,,survey-text,363,1540449,0.0-19.0-3.9,6844,List1B,black,woman,,,,,"{""Q0"":""Jane and Dave are hugging each other.""}","<img src=""stim_listB/hug4.gif""</stim_listB>",are hugging each other,
null,"<div style=""font-size:60px;"">+</div>",,html-keyboard-response,364,1540949,0.0-19.0-0.10,6844,List1B,black,woman,,,,null,,,,
null,"<img src=""stim_listB/argue4.gif""</stim_listB>",,html-keyboard-response,365,1542951,0.0-19.0-1.10,6844,List1B,black,woman,,,,null,,,,
null,are arguing with each other,,html-keyboard-response,366,1544953,0.0-19.0-2.10,6844,List1B,black,woman,,,,null,,,,
13414,,,survey-text,367,1558369,0.0-19.0-3.10,6844,List1B,black,woman,,,,,"{""Q0"":""Luke and Jane are arguing with each other.""}","<img src=""stim_listB/argue4.gif""</stim_listB>",are arguing with each other,
null,"<div style=""font-size:60px;"">+</div>",,html-keyboard-response,368,1558870,0.0-19.0-0.11,6844,List1B,black,woman,,,,null,,,,
null,"<img src=""stim_listB/kiss6.gif""</stim_listB>",,html-keyboard-response,369,1560873,0.0-19.0-1.11,6844,List1B,black,woman,,,,null,,,,
null,are kissing each other,,html-keyboard-response,370,1562874,0.0-19.0-2.11,6844,List1B,black,woman,,,,null,,,,
9702,,,survey-text,371,1572576,0.0-19.0-3.11,6844,List1B,black,woman,,,,,"{""Q0"":""Dave and Mike are kissing each other.""}","<img src=""stim_listB/kiss6.gif""</stim_listB>",are kissing each other,
null,"<div style=""font-size:60px;"">+</div>",,html-keyboard-response,372,1573078,0.0-19.0-0.12,6844,List1B,black,woman,,,,null,,,,
null,"<img src=""stim_listB/touch8.gif""</stim_listB>",,html-keyboard-response,373,1575080,0.0-19.0-1.12,6844,List1B,black,woman,,,,null,,,,
null,are touching each other,,html-keyboard-response,374,1577082,0.0-19.0-2.12,6844,List1B,black,woman,,,,null,,,,
8741,,,survey-text,375,1585824,0.0-19.0-3.12,6844,List1B,black,woman,,,,,"{""Q0"":""Ruth and Beth are touching each other.""}","<img src=""stim_listB/touch8.gif""</stim_listB>",are touching each other,
null,"<div style=""font-size:60px;"">+</div>",,html-keyboard-response,376,1586326,0.0-19.0-0.13,6844,List1B,black,woman,,,,null,,,,
null,"<img src=""stim_listB/meet8.gif""</stim_listB>",,html-keyboard-response,377,1588327,0.0-19.0-1.13,6844,List1B,black,woman,,,,null,,,,
null,are meeting each other,,html-keyboard-response,378,1590329,0.0-19.0-2.13,6844,List1B,black,woman,,,,null,,,,
7940,,,survey-text,379,1598272,0.0-19.0-3.13,6844,List1B,black,woman,,,,,"{""Q0"":""Beth and Ruth are meeting each other.""}","<img src=""stim_listB/meet8.gif""</stim_listB>",are meeting each other,
null,"<div style=""font-size:60px;"">+</div>",,html-keyboard-response,380,1598774,0.0-19.0-0.14,6844,List1B,black,woman,,,,null,,,,
null,"<img src=""stim_listB/talk4.gif""</stim_listB>",,html-keyboard-response,381,1600775,0.0-19.0-1.14,6844,List1B,black,woman,,,,null,,,,
null,are talking to each other,,html-keyboard-response,382,1602777,0.0-19.0-2.14,6844,List1B,black,woman,,,,null,,,,
8957,,,survey-text,383,1611736,0.0-19.0-3.14,6844,List1B,black,woman,,,,,"{""Q0"":""Dave and Ruth are talking to each other.""}","<img src=""stim_listB/talk4.gif""</stim_listB>",are talking to each other,
null,"<div style=""font-size:60px;"">+</div>",,html-keyboard-response,384,1612237,0.0-19.0-0.15,6844,List1B,black,woman,,,,null,,,,
null,"<img src=""stim_listB/meet5.gif""</stim_listB>",,html-keyboard-response,385,1614239,0.0-19.0-1.15,6844,List1B,black,woman,,,,null,,,,
null,is meeting,,html-keyboard-response,386,1616241,0.0-19.0-2.15,6844,List1B,black,woman,,,,null,,,,
6846,,,survey-text,387,1623088,0.0-19.0-3.15,6844,List1B,black,woman,,,,,"{""Q0"":""Dave is meeting Mike.""}","<img src=""stim_listB/meet5.gif""</stim_listB>",is meeting,
null,"<div style=""font-size:60px;"">+</div>",,html-keyboard-response,388,1623589,0.0-19.0-0.16,6844,List1B,black,woman,,,,null,,,,
null,"<img src=""stim_listB/touch2.gif""</stim_listB>",,html-keyboard-response,389,1625591,0.0-19.0-1.16,6844,List1B,black,woman,,,,null,,,,
null,are touching each other,,html-keyboard-response,390,1627593,0.0-19.0-2.16,6844,List1B,black,woman,,,,null,,,,
7430,,,survey-text,391,1635024,0.0-19.0-3.16,6844,List1B,black,woman,,,,,"{""Q0"":""Fred and Beth are touching each other.""}","<img src=""stim_listB/touch2.gif""</stim_listB>",are touching each other,
null,"<div style=""font-size:60px;"">+</div>",,html-keyboard-response,392,1635525,0.0-19.0-0.17,6844,List1B,black,woman,,,,null,,,,
null,"<img src=""stim_listB/kiss1.gif""</stim_listB>",,html-keyboard-response,393,1637528,0.0-19.0-1.17,6844,List1B,black,woman,,,,null,,,,
null,is kissing,,html-keyboard-response,394,1639530,0.0-19.0-2.17,6844,List1B,black,woman,,,,null,,,,
6125,,,survey-text,395,1645656,0.0-19.0-3.17,6844,List1B,black,woman,,,,,"{""Q0"":""Beth is kissing Fred.""}","<img src=""stim_listB/kiss1.gif""</stim_listB>",is kissing,
null,"<div style=""font-size:60px;"">+</div>",,html-keyboard-response,396,1646157,0.0-19.0-0.18,6844,List1B,black,woman,,,,null,,,,
null,"<img src=""stim_listB/talk6.gif""</stim_listB>",,html-keyboard-response,397,1648159,0.0-19.0-1.18,6844,List1B,black,woman,,,,null,,,,
null,are talking to each other,,html-keyboard-response,398,1650161,0.0-19.0-2.18,6844,List1B,black,woman,,,,null,,,,
8781,,,survey-text,399,1658943,0.0-19.0-3.18,6844,List1B,black,woman,,,,,"{""Q0"":""Mike and Luke are talking to each other.""}","<img src=""stim_listB/talk6.gif""</stim_listB>",are talking to each other,
null,"<div style=""font-size:60px;"">+</div>",,html-keyboard-response,400,1659445,0.0-19.0-0.19,6844,List1B,black,woman,,,,null,,,,
null,"<img src=""stim_listB/touch4.gif""</stim_listB>",,html-keyboard-response,401,1661448,0.0-19.0-1.19,6844,List1B,black,woman,,,,null,,,,
null,are touching each other,,html-keyboard-response,402,1663449,0.0-19.0-2.19,6844,List1B,black,woman,,,,null,,,,
8254,,,survey-text,403,1671703,0.0-19.0-3.19,6844,List1B,black,woman,,,,,"{""Q0"":""Luke and Ruth are touching each other.""}","<img src=""stim_listB/touch4.gif""</stim_listB>",are touching each other,
3071,<p>Thank you for completing that task.</p><p>The final part of this session is a short questionnaire.</p><p>Press Continue.</p>,0,html-button-response,404,1674776,0.0-20.0,6844,List1B,black,woman,,,,,,,,
23870,,,survey-text,405,1699647,0.0-21.0,6844,List1B,black,woman,,,,,"{""Q0"":""29"",""Q1"":""English"",""Q2"":""English"",""Q3"":""US"",""Q4"":""African-American"",""Q5"":""Female""}",,,demographics
76359,,,survey-likert,406,1776011,0.0-22.0,6844,List1B,black,woman,,,,,"{""Q0"":5,""Q1"":5,""Q2"":5,""Q3"":6,""Q4"":6,""Q5"":4,""Q6"":5,""Q7"":6,""Q8"":5,""Q9"":4,""Q10"":3,""Q11"":3,""Q12"":4,""Q13"":3}",,,likert_race
70485,,,survey-likert,407,1846521,0.0-23.0,6844,List1B,black,woman,,,,,"{""Q0"":6,""Q1"":6,""Q2"":6,""Q3"":6,""Q4"":6,""Q5"":4,""Q6"":5,""Q7"":4,""Q8"":5,""Q9"":5,""Q10"":4,""Q11"":4,""Q12"":4,""Q13"":3}",,,likert_gender
4793,,,survey-text,408,1851327,0.0-24.0,6844,List1B,black,woman,,,,,"{""Q0"":""ccc""}",,,worker_id
11828,,,external-html,409,1863375,0.0-25.0,6844,List1B,black,woman,debrief.html,,,,,,,
