rt,stimulus,button_pressed,trial_type,trial_index,time_elapsed,internal_node_id,subject,list,ppt_race,ppt_gender,url,first_guess,correct,key_press,responses,image_type,phrase_type,test_part
1707,Welcome to the experiment. Press Continue to begin.,0,html-button-response,0,1710,0.0-0.0,70046,List2A,white,man,,,,,,,,
44495,,,external-html,1,47241,0.0-1.0,70046,List2A,white,man,consent.html,,,,,,,
35392,"<p>On the next page, you will see portraits of 8 people and their names.</p><p>Your first task is to take a few minutes to memorise the names of these people.</p><p>You will have to recall their names during the rest of the experiment, so it is</p><p>essential that you try to memorise these people and their names as best as you can.</p><br><p><strong>You will then be tested on your memory of these names and portraits.</strong></p><br><p>The experiment will start after you have completed this memory test.</p><br><p>Ready?</p>",0,html-button-response,2,82635,0.0-2.0,70046,List2A,white,man,,,,,,,,
66012,"<img src='img/portrait_matrix_list2.JPG' style='width:900px;height:500px;''></img><p>If you have memorised all the portraits and names and are ready to start, press Continue.</p><p><strong>Please note: Your memory of these faces will be tested 4 times during this experiment.</strong></p>",0,html-button-response,3,149650,0.0-3.0-0.0,70046,List2A,white,man,,,,,,,,
3633,"<img src=""portrait/WM1.jpg""style=""width:400px;height:400px;""></img>",6,html-button-response,4,154285,0.0-3.0-1.0,70046,List2A,white,man,,TRUE,6,,,,,
null,CORRECT,,html-keyboard-response,5,155792,0.0-3.0-2.0-0.0,70046,List2A,white,man,,,,null,,,,
2834,"<img src=""portrait/BM1.jpg""style=""width:400px;height:400px;""></img>",4,html-button-response,6,158627,0.0-3.0-4.0,70046,List2A,white,man,,TRUE,4,,,,,
null,CORRECT,,html-keyboard-response,7,160135,0.0-3.0-5.0-0.0,70046,List2A,white,man,,,,null,,,,
3171,"<img src=""portrait/WW2.jpg""style=""width:400px;height:400px;""></img>",3,html-button-response,8,163307,0.0-3.0-7.0,70046,List2A,white,man,,TRUE,3,,,,,
null,CORRECT,,html-keyboard-response,9,164814,0.0-3.0-8.0-0.0,70046,List2A,white,man,,,,null,,,,
3409,"<img src=""portrait/BW1.jpg""style=""width:400px;height:400px;""></img>",0,html-button-response,10,168224,0.0-3.0-10.0,70046,List2A,white,man,,TRUE,0,,,,,
null,CORRECT,,html-keyboard-response,11,169730,0.0-3.0-11.0-0.0,70046,List2A,white,man,,,,null,,,,
6909,"<img src=""portrait/WM2.jpg""style=""width:400px;height:400px;""></img>",7,html-button-response,12,176639,0.0-3.0-13.0,70046,List2A,white,man,,TRUE,7,,,,,
null,CORRECT,,html-keyboard-response,13,178145,0.0-3.0-14.0-0.0,70046,List2A,white,man,,,,null,,,,
16752,"<img src=""portrait/BM2.jpg""style=""width:400px;height:400px;""></img>",5,html-button-response,14,194898,0.0-3.0-16.0,70046,List2A,white,man,,TRUE,5,,,,,
null,CORRECT,,html-keyboard-response,15,196404,0.0-3.0-17.0-0.0,70046,List2A,white,man,,,,null,,,,
10103,"<img src=""portrait/WW1.jpg""style=""width:400px;height:400px;""></img>",3,html-button-response,16,206509,0.0-3.0-19.0,70046,List2A,white,man,,TRUE,1,,,,,
3887,"<img src=""portrait/WW1.jpg""style=""width:400px;height:400px;""></img>",1,html-button-response,17,211403,0.0-3.0-21.0-0.0,70046,List2A,white,man,,FALSE,1,,,,,
null,CORRECT,,html-keyboard-response,18,212913,0.0-3.0-21.0-1.0-0.0,70046,List2A,white,man,,,,null,,,,
3259,"<img src=""portrait/BW2.jpg""style=""width:400px;height:400px;""></img>",2,html-button-response,19,216173,0.0-3.0-22.0,70046,List2A,white,man,,TRUE,2,,,,,
null,CORRECT,,html-keyboard-response,20,217679,0.0-3.0-23.0-0.0,70046,List2A,white,man,,,,null,,,,
1496,<p>You got 7 out of 8 right first time. Press Continue.</p>,0,html-button-response,21,219176,0.0-3.0-25.0,70046,List2A,white,man,,,,,,,,
2212,"As you did not score 100%, the memory game will repeat. Press Continue.",0,html-button-response,22,222394,0.0-3.0-26.0-0.0,70046,List2A,white,man,,,,,,,,
2234,"<img src='img/portrait_matrix_list2.JPG' style='width:900px;height:500px;''></img><p>If you have memorised all the portraits and names and are ready to start, press Continue.</p><p><strong>Please note: Your memory of these faces will be tested 4 times during this experiment.</strong></p>",0,html-button-response,23,225635,0.0-3.1-0.1,70046,List2A,white,man,,,,,,,,
3922,"<img src=""portrait/WM1.jpg""style=""width:400px;height:400px;""></img>",6,html-button-response,24,230562,0.0-3.1-1.1,70046,List2A,white,man,,TRUE,6,,,,,
null,CORRECT,,html-keyboard-response,25,232066,0.0-3.1-2.1-0.1,70046,List2A,white,man,,,,null,,,,
3705,"<img src=""portrait/BM1.jpg""style=""width:400px;height:400px;""></img>",4,html-button-response,26,235771,0.0-3.1-4.1,70046,List2A,white,man,,TRUE,4,,,,,
null,CORRECT,,html-keyboard-response,27,237277,0.0-3.1-5.1-0.1,70046,List2A,white,man,,,,null,,,,
2250,"<img src=""portrait/WW2.jpg""style=""width:400px;height:400px;""></img>",3,html-button-response,28,239529,0.0-3.1-7.1,70046,List2A,white,man,,TRUE,3,,,,,
null,CORRECT,,html-keyboard-response,29,241035,0.0-3.1-8.1-0.1,70046,List2A,white,man,,,,null,,,,
2374,"<img src=""portrait/BW1.jpg""style=""width:400px;height:400px;""></img>",0,html-button-response,30,243410,0.0-3.1-10.1,70046,List2A,white,man,,TRUE,0,,,,,
null,CORRECT,,html-keyboard-response,31,244918,0.0-3.1-11.1-0.1,70046,List2A,white,man,,,,null,,,,
3745,"<img src=""portrait/WM2.jpg""style=""width:400px;height:400px;""></img>",7,html-button-response,32,248664,0.0-3.1-13.1,70046,List2A,white,man,,TRUE,7,,,,,
null,CORRECT,,html-keyboard-response,33,250173,0.0-3.1-14.1-0.1,70046,List2A,white,man,,,,null,,,,
2732,"<img src=""portrait/BM2.jpg""style=""width:400px;height:400px;""></img>",5,html-button-response,34,252905,0.0-3.1-16.1,70046,List2A,white,man,,TRUE,5,,,,,
null,CORRECT,,html-keyboard-response,35,254411,0.0-3.1-17.1-0.1,70046,List2A,white,man,,,,null,,,,
2059,"<img src=""portrait/WW1.jpg""style=""width:400px;height:400px;""></img>",1,html-button-response,36,256472,0.0-3.1-19.1,70046,List2A,white,man,,TRUE,1,,,,,
null,CORRECT,,html-keyboard-response,37,257978,0.0-3.1-20.1-0.1,70046,List2A,white,man,,,,null,,,,
2858,"<img src=""portrait/BW2.jpg""style=""width:400px;height:400px;""></img>",2,html-button-response,38,260837,0.0-3.1-22.1,70046,List2A,white,man,,TRUE,2,,,,,
null,CORRECT,,html-keyboard-response,39,262341,0.0-3.1-23.1-0.1,70046,List2A,white,man,,,,null,,,,
1228,<p>You got 8 out of 8 right first time. Press Continue.</p>,0,html-button-response,40,263571,0.0-3.1-25.1,70046,List2A,white,man,,,,,,,,
53615,"<p>In this experiment, you will view photographs of the people from the memory game interacting.</p><p>By using the <strong>exact</strong> phrase given <i>after</i> the photograph appears and recalling the correct names of the people in the photographs, form a sentence describing the interaction. You do not need to capitalise names.</p><p>Type your answer in the space provided. Please complete every sentence before moving onto the next trial.</p><p>You will only have a few seconds to memorise each given photograph and phrase before you can respond, so try your best to focus.</p><p>An example is given below. Press 'Continue' when you are ready.</p><img src='img/speaking_example_v2.jpg' style='width:800px;height:460px;''></img>",0,html-button-response,41,318191,0.0-4.0,70046,List2A,white,man,,,,,,,,
2223,"<p>Before the experiment starts, you will watch two example trials. Press 'Continue'.</p>",0,html-button-response,42,321420,0.0-5.0,70046,List2A,white,man,,,,,,,,
null,<img src='img/speaking_WW.gif'></img>,,html-keyboard-response,43,324431,0.0-6.0,70046,List2A,white,man,,,,null,,,,
null,<p>is speaking to</p>,,html-keyboard-response,44,326437,0.0-7.0,70046,List2A,white,man,,,,null,,,,
5727,<p><b>Answer:</b> jane is speaking to ruth</p>,0,html-button-response,45,332164,0.0-8.0,70046,List2A,white,man,,,,,,,,
null,<img src='img/pointing_BM.gif'></img>,,html-keyboard-response,46,335175,0.0-9.0,70046,List2A,white,man,,,,null,,,,
null,<p>are pointing at each other</p>,,html-keyboard-response,47,337181,0.0-10.0,70046,List2A,white,man,,,,null,,,,
5581,<p><b>Answer:</b> fred and mike are pointing at each other</p>,0,html-button-response,48,342762,0.0-11.0,70046,List2A,white,man,,,,,,,,
5845,"<p>Ready to start the experiment?</p><br><p><strong>Remember to describe the picture using a full sentence,</strong></p><p><strong>that combines the names of the people with the given phrase.</strong></p><p><strong>If you do not do this correctly you will not be paid.</strong></p><p><strong> You do not need to capitalise names or use punctuation.</strong></p><br><p>Press 'Continue' to begin.</p>",0,html-button-response,49,349614,0.0-12.0,70046,List2A,white,man,,,,,,,,
null,"<div style=""font-size:60px;"">+</div>",,html-keyboard-response,50,351125,0.0-13.0-0.0,70046,List2A,white,man,,,,null,,,,
null,"<img src=""stim_listA/argue1.gif""</stim_listA>",,html-keyboard-response,51,353130,0.0-13.0-1.0,70046,List2A,white,man,,,,null,,,,
null,is arguing with,,html-keyboard-response,52,355133,0.0-13.0-2.0,70046,List2A,white,man,,,,null,,,,
14303,,,survey-text,53,369437,0.0-13.0-3.0,70046,List2A,white,man,,,,,"{""Q0"":""Dave is arguing with jane""}","<img src=""stim_listA/argue1.gif""</stim_listA>",is arguing with,
null,"<div style=""font-size:60px;"">+</div>",,html-keyboard-response,54,369943,0.0-13.0-0.1,70046,List2A,white,man,,,,null,,,,
null,"<img src=""stim_listA/fight6.gif""</stim_listA>",,html-keyboard-response,55,371946,0.0-13.0-1.1,70046,List2A,white,man,,,,null,,,,
null,are fighting each other,,html-keyboard-response,56,373951,0.0-13.0-2.1,70046,List2A,white,man,,,,null,,,,
18402,,,survey-text,57,392354,0.0-13.0-3.1,70046,List2A,white,man,,,,,"{""Q0"":""Luke and Fred are fighting with each other""}","<img src=""stim_listA/fight6.gif""</stim_listA>",are fighting each other,
null,"<div style=""font-size:60px;"">+</div>",,html-keyboard-response,58,392860,0.0-13.0-0.2,70046,List2A,white,man,,,,null,,,,
null,"<img src=""stim_listA/meet8.gif""</stim_listA>",,html-keyboard-response,59,394866,0.0-13.0-1.2,70046,List2A,white,man,,,,null,,,,
null,are meeting each other,,html-keyboard-response,60,396868,0.0-13.0-2.2,70046,List2A,white,man,,,,null,,,,
8570,,,survey-text,61,405438,0.0-13.0-3.2,70046,List2A,white,man,,,,,"{""Q0"":""Beth and Ruth are shaking hands""}","<img src=""stim_listA/meet8.gif""</stim_listA>",are meeting each other,
null,"<div style=""font-size:60px;"">+</div>",,html-keyboard-response,62,405943,0.0-13.0-0.3,70046,List2A,white,man,,,,null,,,,
null,"<img src=""stim_listA/shout8.gif""</stim_listA>",,html-keyboard-response,63,407949,0.0-13.0-1.3,70046,List2A,white,man,,,,null,,,,
null,are shouting at each other,,html-keyboard-response,64,409954,0.0-13.0-2.3,70046,List2A,white,man,,,,null,,,,
8770,,,survey-text,65,418725,0.0-13.0-3.3,70046,List2A,white,man,,,,,"{""Q0"":""Kate and Beth are shouting at each other""}","<img src=""stim_listA/shout8.gif""</stim_listA>",are shouting at each other,
null,"<div style=""font-size:60px;"">+</div>",,html-keyboard-response,66,419230,0.0-13.0-0.4,70046,List2A,white,man,,,,null,,,,
null,"<img src=""stim_listA/argue6.gif""</stim_listA>",,html-keyboard-response,67,421236,0.0-13.0-1.4,70046,List2A,white,man,,,,null,,,,
null,are arguing with each other,,html-keyboard-response,68,423237,0.0-13.0-2.4,70046,List2A,white,man,,,,null,,,,
15097,,,survey-text,69,438334,0.0-13.0-3.4,70046,List2A,white,man,,,,,"{""Q0"":""Luke and Mike are arguing with each other""}","<img src=""stim_listA/argue6.gif""</stim_listA>",are arguing with each other,
null,"<div style=""font-size:60px;"">+</div>",,html-keyboard-response,70,438840,0.0-13.0-0.5,70046,List2A,white,man,,,,null,,,,
null,"<img src=""stim_listA/shout1.gif""</stim_listA>",,html-keyboard-response,71,440845,0.0-13.0-1.5,70046,List2A,white,man,,,,null,,,,
null,is shouting at,,html-keyboard-response,72,442851,0.0-13.0-2.5,70046,List2A,white,man,,,,null,,,,
15599,,,survey-text,73,458450,0.0-13.0-3.5,70046,List2A,white,man,,,,,"{""Q0"":""Luke is shouting at Ruth""}","<img src=""stim_listA/shout1.gif""</stim_listA>",is shouting at,
null,"<div style=""font-size:60px;"">+</div>",,html-keyboard-response,74,458952,0.0-13.0-0.6,70046,List2A,white,man,,,,null,,,,
null,"<img src=""stim_listA/touch5.gif""</stim_listA>",,html-keyboard-response,75,460954,0.0-13.0-1.6,70046,List2A,white,man,,,,null,,,,
null,is touching,,html-keyboard-response,76,462959,0.0-13.0-2.6,70046,List2A,white,man,,,,null,,,,
9351,,,survey-text,77,472310,0.0-13.0-3.6,70046,List2A,white,man,,,,,"{""Q0"":""Dave is touching Mike""}","<img src=""stim_listA/touch5.gif""</stim_listA>",is touching,
null,"<div style=""font-size:60px;"">+</div>",,html-keyboard-response,78,472816,0.0-13.0-0.7,70046,List2A,white,man,,,,null,,,,
null,"<img src=""stim_listA/touch8.gif""</stim_listA>",,html-keyboard-response,79,474819,0.0-13.0-1.7,70046,List2A,white,man,,,,null,,,,
null,are touching each other,,html-keyboard-response,80,476824,0.0-13.0-2.7,70046,List2A,white,man,,,,null,,,,
14027,,,survey-text,81,490851,0.0-13.0-3.7,70046,List2A,white,man,,,,,"{""Q0"":""Beth and Ruth are touching each other""}","<img src=""stim_listA/touch8.gif""</stim_listA>",are touching each other,
null,"<div style=""font-size:60px;"">+</div>",,html-keyboard-response,82,491357,0.0-13.0-0.8,70046,List2A,white,man,,,,null,,,,
null,"<img src=""stim_listA/fight7.gif""</stim_listA>",,html-keyboard-response,83,493362,0.0-13.0-1.8,70046,List2A,white,man,,,,null,,,,
null,is fighting,,html-keyboard-response,84,495363,0.0-13.0-2.8,70046,List2A,white,man,,,,null,,,,
7346,,,survey-text,85,502709,0.0-13.0-3.8,70046,List2A,white,man,,,,,"{""Q0"":""Jane is fighting Kate""}","<img src=""stim_listA/fight7.gif""</stim_listA>",is fighting,
null,"<div style=""font-size:60px;"">+</div>",,html-keyboard-response,86,503215,0.0-13.0-0.9,70046,List2A,white,man,,,,null,,,,
null,"<img src=""stim_listA/talk6.gif""</stim_listA>",,html-keyboard-response,87,505220,0.0-13.0-1.9,70046,List2A,white,man,,,,null,,,,
null,are talking to each other,,html-keyboard-response,88,507226,0.0-13.0-2.9,70046,List2A,white,man,,,,null,,,,
11717,,,survey-text,89,518943,0.0-13.0-3.9,70046,List2A,white,man,,,,,"{""Q0"":""Dave and Fred are talking to each other""}","<img src=""stim_listA/talk6.gif""</stim_listA>",are talking to each other,
null,"<div style=""font-size:60px;"">+</div>",,html-keyboard-response,90,519449,0.0-13.0-0.10,70046,List2A,white,man,,,,null,,,,
null,"<img src=""stim_listA/dance5.gif""</stim_listA>",,html-keyboard-response,91,521455,0.0-13.0-1.10,70046,List2A,white,man,,,,null,,,,
null,is dancing with,,html-keyboard-response,92,523460,0.0-13.0-2.10,70046,List2A,white,man,,,,null,,,,
8455,,,survey-text,93,531915,0.0-13.0-3.10,70046,List2A,white,man,,,,,"{""Q0"":""Luke is dancing with Mike""}","<img src=""stim_listA/dance5.gif""</stim_listA>",is dancing with,
null,"<div style=""font-size:60px;"">+</div>",,html-keyboard-response,94,532419,0.0-13.0-0.11,70046,List2A,white,man,,,,null,,,,
null,"<img src=""stim_listA/hug5.gif""</stim_listA>",,html-keyboard-response,95,534424,0.0-13.0-1.11,70046,List2A,white,man,,,,null,,,,
null,is hugging,,html-keyboard-response,96,536425,0.0-13.0-2.11,70046,List2A,white,man,,,,null,,,,
6369,,,survey-text,97,542794,0.0-13.0-3.11,70046,List2A,white,man,,,,,"{""Q0"":""Luke is hugging Fred""}","<img src=""stim_listA/hug5.gif""</stim_listA>",is hugging,
null,"<div style=""font-size:60px;"">+</div>",,html-keyboard-response,98,543300,0.0-13.0-0.12,70046,List2A,white,man,,,,null,,,,
null,"<img src=""stim_listA/marry8.gif""</stim_listA>",,html-keyboard-response,99,545306,0.0-13.0-1.12,70046,List2A,white,man,,,,null,,,,
null,are marrying each other,,html-keyboard-response,100,547307,0.0-13.0-2.12,70046,List2A,white,man,,,,null,,,,
9764,,,survey-text,101,557071,0.0-13.0-3.12,70046,List2A,white,man,,,,,"{""Q0"":""Kate is dancing with Jane""}","<img src=""stim_listA/marry8.gif""</stim_listA>",are marrying each other,
null,"<div style=""font-size:60px;"">+</div>",,html-keyboard-response,102,557577,0.0-13.0-0.13,70046,List2A,white,man,,,,null,,,,
null,"<img src=""stim_listA/meet4.gif""</stim_listA>",,html-keyboard-response,103,559582,0.0-13.0-1.13,70046,List2A,white,man,,,,null,,,,
null,are meeting each other,,html-keyboard-response,104,561587,0.0-13.0-2.13,70046,List2A,white,man,,,,null,,,,
13517,,,survey-text,105,575105,0.0-13.0-3.13,70046,List2A,white,man,,,,,"{""Q0"":""Beth and Fred are meeting each other""}","<img src=""stim_listA/meet4.gif""</stim_listA>",are meeting each other,
null,"<div style=""font-size:60px;"">+</div>",,html-keyboard-response,106,575607,0.0-13.0-0.14,70046,List2A,white,man,,,,null,,,,
null,"<img src=""stim_listA/talk4.gif""</stim_listA>",,html-keyboard-response,107,577612,0.0-13.0-1.14,70046,List2A,white,man,,,,null,,,,
null,are talking to each other,,html-keyboard-response,108,579615,0.0-13.0-2.14,70046,List2A,white,man,,,,null,,,,
10519,,,survey-text,109,590136,0.0-13.0-3.14,70046,List2A,white,man,,,,,"{""Q0"":""Beth and Mike are talking to each other""}","<img src=""stim_listA/talk4.gif""</stim_listA>",are talking to each other,
null,"<div style=""font-size:60px;"">+</div>",,html-keyboard-response,110,590638,0.0-13.0-0.15,70046,List2A,white,man,,,,null,,,,
null,"<img src=""stim_listA/touch1.gif""</stim_listA>",,html-keyboard-response,111,592640,0.0-13.0-1.15,70046,List2A,white,man,,,,null,,,,
null,is touching,,html-keyboard-response,112,594640,0.0-13.0-2.15,70046,List2A,white,man,,,,null,,,,
7151,,,survey-text,113,601791,0.0-13.0-3.15,70046,List2A,white,man,,,,,"{""Q0"":""Dave is touching Jane""}","<img src=""stim_listA/touch1.gif""</stim_listA>",is touching,
null,"<div style=""font-size:60px;"">+</div>",,html-keyboard-response,114,602293,0.0-13.0-0.16,70046,List2A,white,man,,,,null,,,,
null,"<img src=""stim_listA/talk1.gif""</stim_listA>",,html-keyboard-response,115,604297,0.0-13.0-1.16,70046,List2A,white,man,,,,null,,,,
null,is talking to,,html-keyboard-response,116,606298,0.0-13.0-2.16,70046,List2A,white,man,,,,null,,,,
6597,,,survey-text,117,612895,0.0-13.0-3.16,70046,List2A,white,man,,,,,"{""Q0"":""Luke is talking to Jane""}","<img src=""stim_listA/talk1.gif""</stim_listA>",is talking to,
null,"<div style=""font-size:60px;"">+</div>",,html-keyboard-response,118,613400,0.0-13.0-0.17,70046,List2A,white,man,,,,null,,,,
null,"<img src=""stim_listA/fight8.gif""</stim_listA>",,html-keyboard-response,119,615406,0.0-13.0-1.17,70046,List2A,white,man,,,,null,,,,
null,are fighting each other,,html-keyboard-response,120,617411,0.0-13.0-2.17,70046,List2A,white,man,,,,null,,,,
11988,,,survey-text,121,629400,0.0-13.0-3.17,70046,List2A,white,man,,,,,"{""Q0"":""Beth and Ruth are fighting each other""}","<img src=""stim_listA/fight8.gif""</stim_listA>",are fighting each other,
null,"<div style=""font-size:60px;"">+</div>",,html-keyboard-response,122,629906,0.0-13.0-0.18,70046,List2A,white,man,,,,null,,,,
null,"<img src=""stim_listA/fight5.gif""</stim_listA>",,html-keyboard-response,123,631911,0.0-13.0-1.18,70046,List2A,white,man,,,,null,,,,
null,is fighting,,html-keyboard-response,124,633913,0.0-13.0-2.18,70046,List2A,white,man,,,,null,,,,
8784,,,survey-text,125,642697,0.0-13.0-3.18,70046,List2A,white,man,,,,,"{""Q0"":""Dave is fighting Mike""}","<img src=""stim_listA/fight5.gif""</stim_listA>",is fighting,
null,"<div style=""font-size:60px;"">+</div>",,html-keyboard-response,126,643198,0.0-13.0-0.19,70046,List2A,white,man,,,,null,,,,
null,"<img src=""stim_listA/shout5.gif""</stim_listA>",,html-keyboard-response,127,645204,0.0-13.0-1.19,70046,List2A,white,man,,,,null,,,,
null,is shouting at,,html-keyboard-response,128,647209,0.0-13.0-2.19,70046,List2A,white,man,,,,null,,,,
5805,,,survey-text,129,653014,0.0-13.0-3.19,70046,List2A,white,man,,,,,"{""Q0"":""Luke is shouting at Fred""}","<img src=""stim_listA/shout5.gif""</stim_listA>",is shouting at,
9472,"<img src='img/portrait_matrix_list2.JPG' style='width:900px;height:500px;''></img><p>If you have memorised all the portraits and names and are ready to start, press Continue.</p><p><strong>Please note: Your memory of these faces will be tested 4 times during this experiment.</strong></p>",0,html-button-response,130,662487,0.0-14.0-0.0,70046,List2A,white,man,,,,,,,,
2875,"<img src=""portrait/WM2.jpg""style=""width:400px;height:400px;""></img>",7,html-button-response,131,666369,0.0-14.0-1.0,70046,List2A,white,man,,TRUE,7,,,,,
null,CORRECT,,html-keyboard-response,132,667875,0.0-14.0-2.0-0.0,70046,List2A,white,man,,,,null,,,,
2836,"<img src=""portrait/BW1.jpg""style=""width:400px;height:400px;""></img>",0,html-button-response,133,670711,0.0-14.0-4.0,70046,List2A,white,man,,TRUE,0,,,,,
null,CORRECT,,html-keyboard-response,134,672222,0.0-14.0-5.0-0.0,70046,List2A,white,man,,,,null,,,,
3709,"<img src=""portrait/WM1.jpg""style=""width:400px;height:400px;""></img>",6,html-button-response,135,675931,0.0-14.0-7.0,70046,List2A,white,man,,TRUE,6,,,,,
null,CORRECT,,html-keyboard-response,136,677437,0.0-14.0-8.0-0.0,70046,List2A,white,man,,,,null,,,,
3139,"<img src=""portrait/BM1.jpg""style=""width:400px;height:400px;""></img>",4,html-button-response,137,680578,0.0-14.0-10.0,70046,List2A,white,man,,TRUE,4,,,,,
null,CORRECT,,html-keyboard-response,138,682084,0.0-14.0-11.0-0.0,70046,List2A,white,man,,,,null,,,,
7977,"<img src=""portrait/BW2.jpg""style=""width:400px;height:400px;""></img>",2,html-button-response,139,690062,0.0-14.0-13.0,70046,List2A,white,man,,TRUE,2,,,,,
null,CORRECT,,html-keyboard-response,140,691564,0.0-14.0-14.0-0.0,70046,List2A,white,man,,,,null,,,,
2456,"<img src=""portrait/BM2.jpg""style=""width:400px;height:400px;""></img>",5,html-button-response,141,694022,0.0-14.0-16.0,70046,List2A,white,man,,TRUE,5,,,,,
null,CORRECT,,html-keyboard-response,142,695528,0.0-14.0-17.0-0.0,70046,List2A,white,man,,,,null,,,,
4568,"<img src=""portrait/WW1.jpg""style=""width:400px;height:400px;""></img>",1,html-button-response,143,700097,0.0-14.0-19.0,70046,List2A,white,man,,TRUE,1,,,,,
null,CORRECT,,html-keyboard-response,144,701608,0.0-14.0-20.0-0.0,70046,List2A,white,man,,,,null,,,,
1493,"<img src=""portrait/WW2.jpg""style=""width:400px;height:400px;""></img>",3,html-button-response,145,703101,0.0-14.0-22.0,70046,List2A,white,man,,TRUE,3,,,,,
null,CORRECT,,html-keyboard-response,146,704607,0.0-14.0-23.0-0.0,70046,List2A,white,man,,,,null,,,,
1407,<p>You got 8 out of 8 right first time. Press Continue.</p>,0,html-button-response,147,706015,0.0-14.0-25.0,70046,List2A,white,man,,,,,,,,
null,"<div style=""font-size:60px;"">+</div>",,html-keyboard-response,148,707526,0.0-15.0-0.0,70046,List2A,white,man,,,,null,,,,
null,"<img src=""stim_listA/fight4.gif""</stim_listA>",,html-keyboard-response,149,709531,0.0-15.0-1.0,70046,List2A,white,man,,,,null,,,,
null,are fighting each other,,html-keyboard-response,150,711533,0.0-15.0-2.0,70046,List2A,white,man,,,,null,,,,
13179,,,survey-text,151,724713,0.0-15.0-3.0,70046,List2A,white,man,,,,,"{""Q0"":""Fred and Beth are fighting each other""}","<img src=""stim_listA/fight4.gif""</stim_listA>",are fighting each other,
null,"<div style=""font-size:60px;"">+</div>",,html-keyboard-response,152,725215,0.0-15.0-0.1,70046,List2A,white,man,,,,null,,,,
null,"<img src=""stim_listA/shout2.gif""</stim_listA>",,html-keyboard-response,153,727220,0.0-15.0-1.1,70046,List2A,white,man,,,,null,,,,
null,are shouting at each other,,html-keyboard-response,154,729223,0.0-15.0-2.1,70046,List2A,white,man,,,,null,,,,
9114,,,survey-text,155,738337,0.0-15.0-3.1,70046,List2A,white,man,,,,,"{""Q0"":""Dave and Jane are shouting at each other""}","<img src=""stim_listA/shout2.gif""</stim_listA>",are shouting at each other,
null,"<div style=""font-size:60px;"">+</div>",,html-keyboard-response,156,738841,0.0-15.0-0.2,70046,List2A,white,man,,,,null,,,,
null,"<img src=""stim_listA/dance7.gif""</stim_listA>",,html-keyboard-response,157,740843,0.0-15.0-1.2,70046,List2A,white,man,,,,null,,,,
null,is dancing with,,html-keyboard-response,158,742848,0.0-15.0-2.2,70046,List2A,white,man,,,,null,,,,
9777,,,survey-text,159,752625,0.0-15.0-3.2,70046,List2A,white,man,,,,,"{""Q0"":""Ruth is dancing with Kate""}","<img src=""stim_listA/dance7.gif""</stim_listA>",is dancing with,
null,"<div style=""font-size:60px;"">+</div>",,html-keyboard-response,160,753130,0.0-15.0-0.3,70046,List2A,white,man,,,,null,,,,
null,"<img src=""stim_listA/touch6.gif""</stim_listA>",,html-keyboard-response,161,755133,0.0-15.0-1.3,70046,List2A,white,man,,,,null,,,,
null,are touching each other,,html-keyboard-response,162,757134,0.0-15.0-2.3,70046,List2A,white,man,,,,null,,,,
10363,,,survey-text,163,767498,0.0-15.0-3.3,70046,List2A,white,man,,,,,"{""Q0"":""Luke and Fred are touching each other""}","<img src=""stim_listA/touch6.gif""</stim_listA>",are touching each other,
null,"<div style=""font-size:60px;"">+</div>",,html-keyboard-response,164,768004,0.0-15.0-0.4,70046,List2A,white,man,,,,null,,,,
null,"<img src=""stim_listA/argue7.gif""</stim_listA>",,html-keyboard-response,165,770010,0.0-15.0-1.4,70046,List2A,white,man,,,,null,,,,
null,is arguing with,,html-keyboard-response,166,772015,0.0-15.0-2.4,70046,List2A,white,man,,,,null,,,,
6801,,,survey-text,167,778816,0.0-15.0-3.4,70046,List2A,white,man,,,,,"{""Q0"":""Jane is arguing with Beth""}","<img src=""stim_listA/argue7.gif""</stim_listA>",is arguing with,
null,"<div style=""font-size:60px;"">+</div>",,html-keyboard-response,168,779322,0.0-15.0-0.5,70046,List2A,white,man,,,,null,,,,
null,"<img src=""stim_listA/kiss1.gif""</stim_listA>",,html-keyboard-response,169,781327,0.0-15.0-1.5,70046,List2A,white,man,,,,null,,,,
null,is kissing,,html-keyboard-response,170,783330,0.0-15.0-2.5,70046,List2A,white,man,,,,null,,,,
6095,,,survey-text,171,789425,0.0-15.0-3.5,70046,List2A,white,man,,,,,"{""Q0"":""Luke is kissing Ruth""}","<img src=""stim_listA/kiss1.gif""</stim_listA>",is kissing,
null,"<div style=""font-size:60px;"">+</div>",,html-keyboard-response,172,789926,0.0-15.0-0.6,70046,List2A,white,man,,,,null,,,,
null,"<img src=""stim_listA/touch3.gif""</stim_listA>",,html-keyboard-response,173,791931,0.0-15.0-1.6,70046,List2A,white,man,,,,null,,,,
null,is touching,,html-keyboard-response,174,793937,0.0-15.0-2.6,70046,List2A,white,man,,,,null,,,,
5928,,,survey-text,175,799866,0.0-15.0-3.6,70046,List2A,white,man,,,,,"{""Q0"":""Mike is touching Kate""}","<img src=""stim_listA/touch3.gif""</stim_listA>",is touching,
null,"<div style=""font-size:60px;"">+</div>",,html-keyboard-response,176,800371,0.0-15.0-0.7,70046,List2A,white,man,,,,null,,,,
null,"<img src=""stim_listA/touch2.gif""</stim_listA>",,html-keyboard-response,177,802373,0.0-15.0-1.7,70046,List2A,white,man,,,,null,,,,
null,are touching each other,,html-keyboard-response,178,804378,0.0-15.0-2.7,70046,List2A,white,man,,,,null,,,,
9527,,,survey-text,179,813906,0.0-15.0-3.7,70046,List2A,white,man,,,,,"{""Q0"":""Ruth and Luke are touching each other""}","<img src=""stim_listA/touch2.gif""</stim_listA>",are touching each other,
null,"<div style=""font-size:60px;"">+</div>",,html-keyboard-response,180,814408,0.0-15.0-0.8,70046,List2A,white,man,,,,null,,,,
null,"<img src=""stim_listA/dance8.gif""</stim_listA>",,html-keyboard-response,181,816413,0.0-15.0-1.8,70046,List2A,white,man,,,,null,,,,
null,are dancing with each other,,html-keyboard-response,182,818413,0.0-15.0-2.8,70046,List2A,white,man,,,,null,,,,
14235,,,survey-text,183,832649,0.0-15.0-3.8,70046,List2A,white,man,,,,,"{""Q0"":""Beth and Jane are dancing with each other""}","<img src=""stim_listA/dance8.gif""</stim_listA>",are dancing with each other,
null,"<div style=""font-size:60px;"">+</div>",,html-keyboard-response,184,833155,0.0-15.0-0.9,70046,List2A,white,man,,,,null,,,,
null,"<img src=""stim_listA/talk3.gif""</stim_listA>",,html-keyboard-response,185,835160,0.0-15.0-1.9,70046,List2A,white,man,,,,null,,,,
null,is talking to,,html-keyboard-response,186,837166,0.0-15.0-2.9,70046,List2A,white,man,,,,null,,,,
7273,,,survey-text,187,844440,0.0-15.0-3.9,70046,List2A,white,man,,,,,"{""Q0"":""Fred is talking to Kate""}","<img src=""stim_listA/talk3.gif""</stim_listA>",is talking to,
null,"<div style=""font-size:60px;"">+</div>",,html-keyboard-response,188,844941,0.0-15.0-0.10,70046,List2A,white,man,,,,null,,,,
null,"<img src=""stim_listA/hug6.gif""</stim_listA>",,html-keyboard-response,189,846942,0.0-15.0-1.10,70046,List2A,white,man,,,,null,,,,
null,are hugging each other,,html-keyboard-response,190,848946,0.0-15.0-2.10,70046,List2A,white,man,,,,null,,,,
8341,,,survey-text,191,857287,0.0-15.0-3.10,70046,List2A,white,man,,,,,"{""Q0"":""Mike and Dave are hugging each other""}","<img src=""stim_listA/hug6.gif""</stim_listA>",are hugging each other,
null,"<div style=""font-size:60px;"">+</div>",,html-keyboard-response,192,857788,0.0-15.0-0.11,70046,List2A,white,man,,,,null,,,,
null,"<img src=""stim_listA/touch7.gif""</stim_listA>",,html-keyboard-response,193,859793,0.0-15.0-1.11,70046,List2A,white,man,,,,null,,,,
null,is touching,,html-keyboard-response,194,861798,0.0-15.0-2.11,70046,List2A,white,man,,,,null,,,,
5603,,,survey-text,195,867402,0.0-15.0-3.11,70046,List2A,white,man,,,,,"{""Q0"":""Jane is touching Kate""}","<img src=""stim_listA/touch7.gif""</stim_listA>",is touching,
null,"<div style=""font-size:60px;"">+</div>",,html-keyboard-response,196,867907,0.0-15.0-0.12,70046,List2A,white,man,,,,null,,,,
null,"<img src=""stim_listA/meet6.gif""</stim_listA>",,html-keyboard-response,197,869908,0.0-15.0-1.12,70046,List2A,white,man,,,,null,,,,
null,are meeting each other,,html-keyboard-response,198,871909,0.0-15.0-2.12,70046,List2A,white,man,,,,null,,,,
10073,,,survey-text,199,881982,0.0-15.0-3.12,70046,List2A,white,man,,,,,"{""Q0"":""Fred and Luke are meeting each other""}","<img src=""stim_listA/meet6.gif""</stim_listA>",are meeting each other,
null,"<div style=""font-size:60px;"">+</div>",,html-keyboard-response,200,882488,0.0-15.0-0.13,70046,List2A,white,man,,,,null,,,,
null,"<img src=""stim_listA/argue3.gif""</stim_listA>",,html-keyboard-response,201,884490,0.0-15.0-1.13,70046,List2A,white,man,,,,null,,,,
null,is arguing with,,html-keyboard-response,202,886491,0.0-15.0-2.13,70046,List2A,white,man,,,,null,,,,
8114,,,survey-text,203,894605,0.0-15.0-3.13,70046,List2A,white,man,,,,,"{""Q0"":""Mike is arguing with Beth""}","<img src=""stim_listA/argue3.gif""</stim_listA>",is arguing with,
null,"<div style=""font-size:60px;"">+</div>",,html-keyboard-response,204,895106,0.0-15.0-0.14,70046,List2A,white,man,,,,null,,,,
null,"<img src=""stim_listA/dance4.gif""</stim_listA>",,html-keyboard-response,205,897112,0.0-15.0-1.14,70046,List2A,white,man,,,,null,,,,
null,are dancing with each other,,html-keyboard-response,206,899117,0.0-15.0-2.14,70046,List2A,white,man,,,,null,,,,
10541,,,survey-text,207,909658,0.0-15.0-3.14,70046,List2A,white,man,,,,,"{""Q0"":""Beth and Mike are dancing with each other""}","<img src=""stim_listA/dance4.gif""</stim_listA>",are dancing with each other,
null,"<div style=""font-size:60px;"">+</div>",,html-keyboard-response,208,910161,0.0-15.0-0.15,70046,List2A,white,man,,,,null,,,,
null,"<img src=""stim_listA/hug2.gif""</stim_listA>",,html-keyboard-response,209,912162,0.0-15.0-1.15,70046,List2A,white,man,,,,null,,,,
null,are hugging each other,,html-keyboard-response,210,914168,0.0-15.0-2.15,70046,List2A,white,man,,,,null,,,,
9090,,,survey-text,211,923260,0.0-15.0-3.15,70046,List2A,white,man,,,,,"{""Q0"":""Jane and Dave are hugging each other""}","<img src=""stim_listA/hug2.gif""</stim_listA>",are hugging each other,
null,"<div style=""font-size:60px;"">+</div>",,html-keyboard-response,212,923765,0.0-15.0-0.16,70046,List2A,white,man,,,,null,,,,
null,"<img src=""stim_listA/talk2.gif""</stim_listA>",,html-keyboard-response,213,925771,0.0-15.0-1.16,70046,List2A,white,man,,,,null,,,,
null,are talking to each other,,html-keyboard-response,214,927774,0.0-15.0-2.16,70046,List2A,white,man,,,,null,,,,
12214,,,survey-text,215,939989,0.0-15.0-3.16,70046,List2A,white,man,,,,,"{""Q0"":""Ruth and Dave are talking to each other""}","<img src=""stim_listA/talk2.gif""</stim_listA>",are talking to each other,
null,"<div style=""font-size:60px;"">+</div>",,html-keyboard-response,216,940495,0.0-15.0-0.17,70046,List2A,white,man,,,,null,,,,
null,"<img src=""stim_listA/dance3.gif""</stim_listA>",,html-keyboard-response,217,942497,0.0-15.0-1.17,70046,List2A,white,man,,,,null,,,,
null,is dancing with,,html-keyboard-response,218,944498,0.0-15.0-2.17,70046,List2A,white,man,,,,null,,,,
5976,,,survey-text,219,950475,0.0-15.0-3.17,70046,List2A,white,man,,,,,"{""Q0"":""Fred is dancing with Kate""}","<img src=""stim_listA/dance3.gif""</stim_listA>",is dancing with,
null,"<div style=""font-size:60px;"">+</div>",,html-keyboard-response,220,950980,0.0-15.0-0.18,70046,List2A,white,man,,,,null,,,,
null,"<img src=""stim_listA/kiss5.gif""</stim_listA>",,html-keyboard-response,221,952986,0.0-15.0-1.18,70046,List2A,white,man,,,,null,,,,
null,is kissing,,html-keyboard-response,222,954991,0.0-15.0-2.18,70046,List2A,white,man,,,,null,,,,
6496,,,survey-text,223,961489,0.0-15.0-3.18,70046,List2A,white,man,,,,,"{""Q0"":""Luke is kissing Fred""}","<img src=""stim_listA/kiss5.gif""</stim_listA>",is kissing,
null,"<div style=""font-size:60px;"">+</div>",,html-keyboard-response,224,961992,0.0-15.0-0.19,70046,List2A,white,man,,,,null,,,,
null,"<img src=""stim_listA/dance2.gif""</stim_listA>",,html-keyboard-response,225,963996,0.0-15.0-1.19,70046,List2A,white,man,,,,null,,,,
null,are dancing with each other,,html-keyboard-response,226,966001,0.0-15.0-2.19,70046,List2A,white,man,,,,null,,,,
9607,,,survey-text,227,975608,0.0-15.0-3.19,70046,List2A,white,man,,,,,"{""Q0"":""Ruth and Dave are dancing with each other""}","<img src=""stim_listA/dance2.gif""</stim_listA>",are dancing with each other,
2902,"<img src='img/portrait_matrix_list2.JPG' style='width:900px;height:500px;''></img><p>If you have memorised all the portraits and names and are ready to start, press Continue.</p><p><strong>Please note: Your memory of these faces will be tested 4 times during this experiment.</strong></p>",0,html-button-response,228,978511,0.0-16.0-0.0,70046,List2A,white,man,,,,,,,,
1503,"<img src=""portrait/BM1.jpg""style=""width:400px;height:400px;""></img>",4,html-button-response,229,981020,0.0-16.0-1.0,70046,List2A,white,man,,TRUE,4,,,,,
null,CORRECT,,html-keyboard-response,230,982522,0.0-16.0-2.0-0.0,70046,List2A,white,man,,,,null,,,,
3120,"<img src=""portrait/BW2.jpg""style=""width:400px;height:400px;""></img>",2,html-button-response,231,985643,0.0-16.0-4.0,70046,List2A,white,man,,TRUE,2,,,,,
null,CORRECT,,html-keyboard-response,232,987149,0.0-16.0-5.0-0.0,70046,List2A,white,man,,,,null,,,,
1463,"<img src=""portrait/BW1.jpg""style=""width:400px;height:400px;""></img>",0,html-button-response,233,988613,0.0-16.0-7.0,70046,List2A,white,man,,TRUE,0,,,,,
null,CORRECT,,html-keyboard-response,234,990118,0.0-16.0-8.0-0.0,70046,List2A,white,man,,,,null,,,,
4063,"<img src=""portrait/WW2.jpg""style=""width:400px;height:400px;""></img>",3,html-button-response,235,994183,0.0-16.0-10.0,70046,List2A,white,man,,TRUE,3,,,,,
null,CORRECT,,html-keyboard-response,236,995689,0.0-16.0-11.0-0.0,70046,List2A,white,man,,,,null,,,,
2262,"<img src=""portrait/WW1.jpg""style=""width:400px;height:400px;""></img>",1,html-button-response,237,997951,0.0-16.0-13.0,70046,List2A,white,man,,TRUE,1,,,,,
null,CORRECT,,html-keyboard-response,238,999462,0.0-16.0-14.0-0.0,70046,List2A,white,man,,,,null,,,,
1244,"<img src=""portrait/WM2.jpg""style=""width:400px;height:400px;""></img>",7,html-button-response,239,1000708,0.0-16.0-16.0,70046,List2A,white,man,,TRUE,7,,,,,
null,CORRECT,,html-keyboard-response,240,1002219,0.0-16.0-17.0-0.0,70046,List2A,white,man,,,,null,,,,
1143,"<img src=""portrait/BM2.jpg""style=""width:400px;height:400px;""></img>",5,html-button-response,241,1003363,0.0-16.0-19.0,70046,List2A,white,man,,TRUE,5,,,,,
null,CORRECT,,html-keyboard-response,242,1004872,0.0-16.0-20.0-0.0,70046,List2A,white,man,,,,null,,,,
1224,"<img src=""portrait/WM1.jpg""style=""width:400px;height:400px;""></img>",6,html-button-response,243,1006097,0.0-16.0-22.0,70046,List2A,white,man,,TRUE,6,,,,,
null,CORRECT,,html-keyboard-response,244,1007603,0.0-16.0-23.0-0.0,70046,List2A,white,man,,,,null,,,,
1193,<p>You got 8 out of 8 right first time. Press Continue.</p>,0,html-button-response,245,1008797,0.0-16.0-25.0,70046,List2A,white,man,,,,,,,,
null,"<div style=""font-size:60px;"">+</div>",,html-keyboard-response,246,1010308,0.0-17.0-0.0,70046,List2A,white,man,,,,null,,,,
null,"<img src=""stim_listA/talk8.gif""</stim_listA>",,html-keyboard-response,247,1012313,0.0-17.0-1.0,70046,List2A,white,man,,,,null,,,,
null,are talking to each other,,html-keyboard-response,248,1014319,0.0-17.0-2.0,70046,List2A,white,man,,,,null,,,,
8315,,,survey-text,249,1022635,0.0-17.0-3.0,70046,List2A,white,man,,,,,"{""Q0"":""Beth and Jane are talking to each other""}","<img src=""stim_listA/talk8.gif""</stim_listA>",are talking to each other,
null,"<div style=""font-size:60px;"">+</div>",,html-keyboard-response,250,1023140,0.0-17.0-0.1,70046,List2A,white,man,,,,null,,,,
null,"<img src=""stim_listA/kiss6.gif""</stim_listA>",,html-keyboard-response,251,1025146,0.0-17.0-1.1,70046,List2A,white,man,,,,null,,,,
null,are kissing each other,,html-keyboard-response,252,1027147,0.0-17.0-2.1,70046,List2A,white,man,,,,null,,,,
11317,,,survey-text,253,1038464,0.0-17.0-3.1,70046,List2A,white,man,,,,,"{""Q0"":""Mike and Dave are kissing each other""}","<img src=""stim_listA/kiss6.gif""</stim_listA>",are kissing each other,
null,"<div style=""font-size:60px;"">+</div>",,html-keyboard-response,254,1038969,0.0-17.0-0.2,70046,List2A,white,man,,,,null,,,,
null,"<img src=""stim_listA/argue8.gif""</stim_listA>",,html-keyboard-response,255,1040973,0.0-17.0-1.2,70046,List2A,white,man,,,,null,,,,
null,are arguing with each other,,html-keyboard-response,256,1042974,0.0-17.0-2.2,70046,List2A,white,man,,,,null,,,,
9879,,,survey-text,257,1052853,0.0-17.0-3.2,70046,List2A,white,man,,,,,"{""Q0"":""Kate and Ruth are arguing with each other""}","<img src=""stim_listA/argue8.gif""</stim_listA>",are arguing with each other,
null,"<div style=""font-size:60px;"">+</div>",,html-keyboard-response,258,1053359,0.0-17.0-0.3,70046,List2A,white,man,,,,null,,,,
null,"<img src=""stim_listA/marry1.gif""</stim_listA>",,html-keyboard-response,259,1055364,0.0-17.0-1.3,70046,List2A,white,man,,,,null,,,,
null,is marrying,,html-keyboard-response,260,1057365,0.0-17.0-2.3,70046,List2A,white,man,,,,null,,,,
6255,,,survey-text,261,1063620,0.0-17.0-3.3,70046,List2A,white,man,,,,,"{""Q0"":""Dave is marrying Ruth""}","<img src=""stim_listA/marry1.gif""</stim_listA>",is marrying,
null,"<div style=""font-size:60px;"">+</div>",,html-keyboard-response,262,1064126,0.0-17.0-0.4,70046,List2A,white,man,,,,null,,,,
null,"<img src=""stim_listA/hug7.gif""</stim_listA>",,html-keyboard-response,263,1066127,0.0-17.0-1.4,70046,List2A,white,man,,,,null,,,,
null,is hugging,,html-keyboard-response,264,1068132,0.0-17.0-2.4,70046,List2A,white,man,,,,null,,,,
5803,,,survey-text,265,1073936,0.0-17.0-3.4,70046,List2A,white,man,,,,,"{""Q0"":""Beth is hugging Ruth""}","<img src=""stim_listA/hug7.gif""</stim_listA>",is hugging,
null,"<div style=""font-size:60px;"">+</div>",,html-keyboard-response,266,1074442,0.0-17.0-0.5,70046,List2A,white,man,,,,null,,,,
null,"<img src=""stim_listA/marry7.gif""</stim_listA>",,html-keyboard-response,267,1076445,0.0-17.0-1.5,70046,List2A,white,man,,,,null,,,,
null,is marrying,,html-keyboard-response,268,1078446,0.0-17.0-2.5,70046,List2A,white,man,,,,null,,,,
6267,,,survey-text,269,1084714,0.0-17.0-3.5,70046,List2A,white,man,,,,,"{""Q0"":""Jane is marrying Beth""}","<img src=""stim_listA/marry7.gif""</stim_listA>",is marrying,
null,"<div style=""font-size:60px;"">+</div>",,html-keyboard-response,270,1085217,0.0-17.0-0.6,70046,List2A,white,man,,,,null,,,,
null,"<img src=""stim_listA/shout3.gif""</stim_listA>",,html-keyboard-response,271,1087222,0.0-17.0-1.6,70046,List2A,white,man,,,,null,,,,
null,is shouting at,,html-keyboard-response,272,1089224,0.0-17.0-2.6,70046,List2A,white,man,,,,null,,,,
6368,,,survey-text,273,1095593,0.0-17.0-3.6,70046,List2A,white,man,,,,,"{""Q0"":""Fred is shouting at Beth""}","<img src=""stim_listA/shout3.gif""</stim_listA>",is shouting at,
null,"<div style=""font-size:60px;"">+</div>",,html-keyboard-response,274,1096096,0.0-17.0-0.7,70046,List2A,white,man,,,,null,,,,
null,"<img src=""stim_listA/argue2.gif""</stim_listA>",,html-keyboard-response,275,1098102,0.0-17.0-1.7,70046,List2A,white,man,,,,null,,,,
null,are arguing with each other,,html-keyboard-response,276,1100103,0.0-17.0-2.7,70046,List2A,white,man,,,,null,,,,
10283,,,survey-text,277,1110388,0.0-17.0-3.7,70046,List2A,white,man,,,,,"{""Q0"":""Jane and Luke are arguing with each other""}","<img src=""stim_listA/argue2.gif""</stim_listA>",are arguing with each other,
null,"<div style=""font-size:60px;"">+</div>",,html-keyboard-response,278,1110891,0.0-17.0-0.8,70046,List2A,white,man,,,,null,,,,
null,"<img src=""stim_listA/marry2.gif""</stim_listA>",,html-keyboard-response,279,1112897,0.0-17.0-1.8,70046,List2A,white,man,,,,null,,,,
null,are marrying each other,,html-keyboard-response,280,1114898,0.0-17.0-2.8,70046,List2A,white,man,,,,null,,,,
12702,,,survey-text,281,1127601,0.0-17.0-3.8,70046,List2A,white,man,,,,,"{""Q0"":""Jane and Luke are marrying each other""}","<img src=""stim_listA/marry2.gif""</stim_listA>",are marrying each other,
null,"<div style=""font-size:60px;"">+</div>",,html-keyboard-response,282,1128106,0.0-17.0-0.9,70046,List2A,white,man,,,,null,,,,
null,"<img src=""stim_listA/fight3.gif""</stim_listA>",,html-keyboard-response,283,1130111,0.0-17.0-1.9,70046,List2A,white,man,,,,null,,,,
null,is fighting,,html-keyboard-response,284,1132116,0.0-17.0-2.9,70046,List2A,white,man,,,,null,,,,
6937,,,survey-text,285,1139054,0.0-17.0-3.9,70046,List2A,white,man,,,,,"{""Q0"":""Mike is fighting Kate""}","<img src=""stim_listA/fight3.gif""</stim_listA>",is fighting,
null,"<div style=""font-size:60px;"">+</div>",,html-keyboard-response,286,1139559,0.0-17.0-0.10,70046,List2A,white,man,,,,null,,,,
null,"<img src=""stim_listA/meet5.gif""</stim_listA>",,html-keyboard-response,287,1141565,0.0-17.0-1.10,70046,List2A,white,man,,,,null,,,,
null,is meeting,,html-keyboard-response,288,1143565,0.0-17.0-2.10,70046,List2A,white,man,,,,null,,,,
5298,,,survey-text,289,1148864,0.0-17.0-3.10,70046,List2A,white,man,,,,,"{""Q0"":""Dave is meeting Mike""}","<img src=""stim_listA/meet5.gif""</stim_listA>",is meeting,
null,"<div style=""font-size:60px;"">+</div>",,html-keyboard-response,290,1149370,0.0-17.0-0.11,70046,List2A,white,man,,,,null,,,,
null,"<img src=""stim_listA/touch4.gif""</stim_listA>",,html-keyboard-response,291,1151373,0.0-17.0-1.11,70046,List2A,white,man,,,,null,,,,
null,are touching each other,,html-keyboard-response,292,1153374,0.0-17.0-2.11,70046,List2A,white,man,,,,null,,,,
10025,,,survey-text,293,1163400,0.0-17.0-3.11,70046,List2A,white,man,,,,,"{""Q0"":""Beth and Fred are touching each other""}","<img src=""stim_listA/touch4.gif""</stim_listA>",are touching each other,
null,"<div style=""font-size:60px;"">+</div>",,html-keyboard-response,294,1163903,0.0-17.0-0.12,70046,List2A,white,man,,,,null,,,,
null,"<img src=""stim_listA/marry3.gif""</stim_listA>",,html-keyboard-response,295,1165909,0.0-17.0-1.12,70046,List2A,white,man,,,,null,,,,
null,is marrying,,html-keyboard-response,296,1167910,0.0-17.0-2.12,70046,List2A,white,man,,,,null,,,,
6278,,,survey-text,297,1174189,0.0-17.0-3.12,70046,List2A,white,man,,,,,"{""Q0"":""Mike is marrying Beth""}","<img src=""stim_listA/marry3.gif""</stim_listA>",is marrying,
null,"<div style=""font-size:60px;"">+</div>",,html-keyboard-response,298,1174694,0.0-17.0-0.13,70046,List2A,white,man,,,,null,,,,
null,"<img src=""stim_listA/hug4.gif""</stim_listA>",,html-keyboard-response,299,1176697,0.0-17.0-1.13,70046,List2A,white,man,,,,null,,,,
null,are hugging each other,,html-keyboard-response,300,1178702,0.0-17.0-2.13,70046,List2A,white,man,,,,null,,,,
9256,,,survey-text,301,1187959,0.0-17.0-3.13,70046,List2A,white,man,,,,,"{""Q0"":""Kate and Mike are hugging each other""}","<img src=""stim_listA/hug4.gif""</stim_listA>",are hugging each other,
null,"<div style=""font-size:60px;"">+</div>",,html-keyboard-response,302,1188465,0.0-17.0-0.14,70046,List2A,white,man,,,,null,,,,
null,"<img src=""stim_listA/meet7.gif""</stim_listA>",,html-keyboard-response,303,1190470,0.0-17.0-1.14,70046,List2A,white,man,,,,null,,,,
null,is meeting,,html-keyboard-response,304,1192473,0.0-17.0-2.14,70046,List2A,white,man,,,,null,,,,
5690,,,survey-text,305,1198163,0.0-17.0-3.14,70046,List2A,white,man,,,,,"{""Q0"":""Jane is meeting Kate""}","<img src=""stim_listA/meet7.gif""</stim_listA>",is meeting,
null,"<div style=""font-size:60px;"">+</div>",,html-keyboard-response,306,1198667,0.0-17.0-0.15,70046,List2A,white,man,,,,null,,,,
null,"<img src=""stim_listA/fight1.gif""</stim_listA>",,html-keyboard-response,307,1200669,0.0-17.0-1.15,70046,List2A,white,man,,,,null,,,,
null,is fighting,,html-keyboard-response,308,1202673,0.0-17.0-2.15,70046,List2A,white,man,,,,null,,,,
5963,,,survey-text,309,1208637,0.0-17.0-3.15,70046,List2A,white,man,,,,,"{""Q0"":""Dave is fighting Jane""}","<img src=""stim_listA/fight1.gif""</stim_listA>",is fighting,
null,"<div style=""font-size:60px;"">+</div>",,html-keyboard-response,310,1209143,0.0-17.0-0.16,70046,List2A,white,man,,,,null,,,,
null,"<img src=""stim_listA/argue4.gif""</stim_listA>",,html-keyboard-response,311,1211145,0.0-17.0-1.16,70046,List2A,white,man,,,,null,,,,
null,are arguing with each other,,html-keyboard-response,312,1213147,0.0-17.0-2.16,70046,List2A,white,man,,,,null,,,,
15290,,,survey-text,313,1228438,0.0-17.0-3.16,70046,List2A,white,man,,,,,"{""Q0"":""Kate and Fred are arguing with each other""}","<img src=""stim_listA/argue4.gif""</stim_listA>",are arguing with each other,
null,"<div style=""font-size:60px;"">+</div>",,html-keyboard-response,314,1228944,0.0-17.0-0.17,70046,List2A,white,man,,,,null,,,,
null,"<img src=""stim_listA/talk7.gif""</stim_listA>",,html-keyboard-response,315,1230945,0.0-17.0-1.17,70046,List2A,white,man,,,,null,,,,
null,is talking to,,html-keyboard-response,316,1232946,0.0-17.0-2.17,70046,List2A,white,man,,,,null,,,,
6562,,,survey-text,317,1239508,0.0-17.0-3.17,70046,List2A,white,man,,,,,"{""Q0"":""Ruth is talking to Kate""}","<img src=""stim_listA/talk7.gif""</stim_listA>",is talking to,
null,"<div style=""font-size:60px;"">+</div>",,html-keyboard-response,318,1240012,0.0-17.0-0.18,70046,List2A,white,man,,,,null,,,,
null,"<img src=""stim_listA/shout6.gif""</stim_listA>",,html-keyboard-response,319,1242017,0.0-17.0-1.18,70046,List2A,white,man,,,,null,,,,
null,are shouting at each other,,html-keyboard-response,320,1244021,0.0-17.0-2.18,70046,List2A,white,man,,,,null,,,,
7919,,,survey-text,321,1251940,0.0-17.0-3.18,70046,List2A,white,man,,,,,"{""Q0"":""Mike and Dave are shouting at each other""}","<img src=""stim_listA/shout6.gif""</stim_listA>",are shouting at each other,
null,"<div style=""font-size:60px;"">+</div>",,html-keyboard-response,322,1252442,0.0-17.0-0.19,70046,List2A,white,man,,,,null,,,,
null,"<img src=""stim_listA/meet2.gif""</stim_listA>",,html-keyboard-response,323,1254448,0.0-17.0-1.19,70046,List2A,white,man,,,,null,,,,
null,are meeting each other,,html-keyboard-response,324,1256450,0.0-17.0-2.19,70046,List2A,white,man,,,,null,,,,
8798,,,survey-text,325,1265249,0.0-17.0-3.19,70046,List2A,white,man,,,,,"{""Q0"":""Ruth and Luke are meeting each other""}","<img src=""stim_listA/meet2.gif""</stim_listA>",are meeting each other,
2035,"<img src='img/portrait_matrix_list2.JPG' style='width:900px;height:500px;''></img><p>If you have memorised all the portraits and names and are ready to start, press Continue.</p><p><strong>Please note: Your memory of these faces will be tested 4 times during this experiment.</strong></p>",0,html-button-response,326,1267286,0.0-18.0-0.0,70046,List2A,white,man,,,,,,,,
1486,"<img src=""portrait/WM2.jpg""style=""width:400px;height:400px;""></img>",7,html-button-response,327,1269772,0.0-18.0-1.0,70046,List2A,white,man,,TRUE,7,,,,,
null,CORRECT,,html-keyboard-response,328,1271274,0.0-18.0-2.0-0.0,70046,List2A,white,man,,,,null,,,,
2030,"<img src=""portrait/BW2.jpg""style=""width:400px;height:400px;""></img>",2,html-button-response,329,1273305,0.0-18.0-4.0,70046,List2A,white,man,,TRUE,2,,,,,
null,CORRECT,,html-keyboard-response,330,1274811,0.0-18.0-5.0-0.0,70046,List2A,white,man,,,,null,,,,
1474,"<img src=""portrait/WW2.jpg""style=""width:400px;height:400px;""></img>",3,html-button-response,331,1276286,0.0-18.0-7.0,70046,List2A,white,man,,TRUE,3,,,,,
null,CORRECT,,html-keyboard-response,332,1277792,0.0-18.0-8.0-0.0,70046,List2A,white,man,,,,null,,,,
1812,"<img src=""portrait/WW1.jpg""style=""width:400px;height:400px;""></img>",1,html-button-response,333,1279605,0.0-18.0-10.0,70046,List2A,white,man,,TRUE,1,,,,,
null,CORRECT,,html-keyboard-response,334,1281112,0.0-18.0-11.0-0.0,70046,List2A,white,man,,,,null,,,,
1574,"<img src=""portrait/BM2.jpg""style=""width:400px;height:400px;""></img>",5,html-button-response,335,1282687,0.0-18.0-13.0,70046,List2A,white,man,,TRUE,5,,,,,
null,CORRECT,,html-keyboard-response,336,1284196,0.0-18.0-14.0-0.0,70046,List2A,white,man,,,,null,,,,
1911,"<img src=""portrait/BM1.jpg""style=""width:400px;height:400px;""></img>",4,html-button-response,337,1286107,0.0-18.0-16.0,70046,List2A,white,man,,TRUE,4,,,,,
null,CORRECT,,html-keyboard-response,338,1287618,0.0-18.0-17.0-0.0,70046,List2A,white,man,,,,null,,,,
1368,"<img src=""portrait/BW1.jpg""style=""width:400px;height:400px;""></img>",0,html-button-response,339,1288988,0.0-18.0-19.0,70046,List2A,white,man,,TRUE,0,,,,,
null,CORRECT,,html-keyboard-response,340,1290492,0.0-18.0-20.0-0.0,70046,List2A,white,man,,,,null,,,,
1173,"<img src=""portrait/WM1.jpg""style=""width:400px;height:400px;""></img>",6,html-button-response,341,1291665,0.0-18.0-22.0,70046,List2A,white,man,,TRUE,6,,,,,
null,CORRECT,,html-keyboard-response,342,1293171,0.0-18.0-23.0-0.0,70046,List2A,white,man,,,,null,,,,
1013,<p>You got 8 out of 8 right first time. Press Continue.</p>,0,html-button-response,343,1294185,0.0-18.0-25.0,70046,List2A,white,man,,,,,,,,
null,"<div style=""font-size:60px;"">+</div>",,html-keyboard-response,344,1295691,0.0-19.0-0.0,70046,List2A,white,man,,,,null,,,,
null,"<img src=""stim_listA/marry6.gif""</stim_listA>",,html-keyboard-response,345,1297697,0.0-19.0-1.0,70046,List2A,white,man,,,,null,,,,
null,are marrying each other,,html-keyboard-response,346,1299697,0.0-19.0-2.0,70046,List2A,white,man,,,,null,,,,
7492,,,survey-text,347,1307190,0.0-19.0-3.0,70046,List2A,white,man,,,,,"{""Q0"":""Mike and Luke are marrying each other""}","<img src=""stim_listA/marry6.gif""</stim_listA>",are marrying each other,
null,"<div style=""font-size:60px;"">+</div>",,html-keyboard-response,348,1307694,0.0-19.0-0.1,70046,List2A,white,man,,,,null,,,,
null,"<img src=""stim_listA/hug8.gif""</stim_listA>",,html-keyboard-response,349,1309696,0.0-19.0-1.1,70046,List2A,white,man,,,,null,,,,
null,are hugging each other,,html-keyboard-response,350,1311701,0.0-19.0-2.1,70046,List2A,white,man,,,,null,,,,
7864,,,survey-text,351,1319566,0.0-19.0-3.1,70046,List2A,white,man,,,,,"{""Q0"":""Kate and Jane are hugging each other""}","<img src=""stim_listA/hug8.gif""</stim_listA>",are hugging each other,
null,"<div style=""font-size:60px;"">+</div>",,html-keyboard-response,352,1320072,0.0-19.0-0.2,70046,List2A,white,man,,,,null,,,,
null,"<img src=""stim_listA/kiss2.gif""</stim_listA>",,html-keyboard-response,353,1322078,0.0-19.0-1.2,70046,List2A,white,man,,,,null,,,,
null,are kissing each other,,html-keyboard-response,354,1324081,0.0-19.0-2.2,70046,List2A,white,man,,,,null,,,,
7669,,,survey-text,355,1331751,0.0-19.0-3.2,70046,List2A,white,man,,,,,"{""Q0"":""Jane and Dave are kissing each other""}","<img src=""stim_listA/kiss2.gif""</stim_listA>",are kissing each other,
null,"<div style=""font-size:60px;"">+</div>",,html-keyboard-response,356,1332253,0.0-19.0-0.3,70046,List2A,white,man,,,,null,,,,
null,"<img src=""stim_listA/dance6.gif""</stim_listA>",,html-keyboard-response,357,1334255,0.0-19.0-1.3,70046,List2A,white,man,,,,null,,,,
null,are dancing with each other,,html-keyboard-response,358,1336256,0.0-19.0-2.3,70046,List2A,white,man,,,,null,,,,
11852,,,survey-text,359,1348108,0.0-19.0-3.3,70046,List2A,white,man,,,,,"{""Q0"":""Fred and Dave are dancing with each other""}","<img src=""stim_listA/dance6.gif""</stim_listA>",are dancing with each other,
null,"<div style=""font-size:60px;"">+</div>",,html-keyboard-response,360,1348614,0.0-19.0-0.4,70046,List2A,white,man,,,,null,,,,
null,"<img src=""stim_listA/marry4.gif""</stim_listA>",,html-keyboard-response,361,1350620,0.0-19.0-1.4,70046,List2A,white,man,,,,null,,,,
null,are marrying each other,,html-keyboard-response,362,1352620,0.0-19.0-2.4,70046,List2A,white,man,,,,null,,,,
8526,,,survey-text,363,1361148,0.0-19.0-3.4,70046,List2A,white,man,,,,,"{""Q0"":""Kate and Fred are marrying each other""}","<img src=""stim_listA/marry4.gif""</stim_listA>",are marrying each other,
null,"<div style=""font-size:60px;"">+</div>",,html-keyboard-response,364,1361649,0.0-19.0-0.5,70046,List2A,white,man,,,,null,,,,
null,"<img src=""stim_listA/shout7.gif""</stim_listA>",,html-keyboard-response,365,1363651,0.0-19.0-1.5,70046,List2A,white,man,,,,null,,,,
null,is shouting at,,html-keyboard-response,366,1365652,0.0-19.0-2.5,70046,List2A,white,man,,,,null,,,,
6926,,,survey-text,367,1372578,0.0-19.0-3.5,70046,List2A,white,man,,,,,"{""Q0"":""Ruth is shouting at Beth""}","<img src=""stim_listA/shout7.gif""</stim_listA>",is shouting at,
null,"<div style=""font-size:60px;"">+</div>",,html-keyboard-response,368,1373084,0.0-19.0-0.6,70046,List2A,white,man,,,,null,,,,
null,"<img src=""stim_listA/kiss7.gif""</stim_listA>",,html-keyboard-response,369,1375089,0.0-19.0-1.6,70046,List2A,white,man,,,,null,,,,
null,is kissing,,html-keyboard-response,370,1377095,0.0-19.0-2.6,70046,List2A,white,man,,,,null,,,,
8691,,,survey-text,371,1385786,0.0-19.0-3.6,70046,List2A,white,man,,,,,"{""Q0"":""Ruth is kissing Beth""}","<img src=""stim_listA/kiss7.gif""</stim_listA>",is kissing,
null,"<div style=""font-size:60px;"">+</div>",,html-keyboard-response,372,1386287,0.0-19.0-0.7,70046,List2A,white,man,,,,null,,,,
null,"<img src=""stim_listA/argue5.gif""</stim_listA>",,html-keyboard-response,373,1388293,0.0-19.0-1.7,70046,List2A,white,man,,,,null,,,,
null,is arguing with,,html-keyboard-response,374,1390295,0.0-19.0-2.7,70046,List2A,white,man,,,,null,,,,
7101,,,survey-text,375,1397396,0.0-19.0-3.7,70046,List2A,white,man,,,,,"{""Q0"":""Dave is arguing with Fred""}","<img src=""stim_listA/argue5.gif""</stim_listA>",is arguing with,
null,"<div style=""font-size:60px;"">+</div>",,html-keyboard-response,376,1397902,0.0-19.0-0.8,70046,List2A,white,man,,,,null,,,,
null,"<img src=""stim_listA/shout4.gif""</stim_listA>",,html-keyboard-response,377,1399908,0.0-19.0-1.8,70046,List2A,white,man,,,,null,,,,
null,are shouting at each other,,html-keyboard-response,378,1401908,0.0-19.0-2.8,70046,List2A,white,man,,,,null,,,,
9561,,,survey-text,379,1411471,0.0-19.0-3.8,70046,List2A,white,man,,,,,"{""Q0"":""Kate and Mike are shouting at each other""}","<img src=""stim_listA/shout4.gif""</stim_listA>",are shouting at each other,
null,"<div style=""font-size:60px;"">+</div>",,html-keyboard-response,380,1411973,0.0-19.0-0.9,70046,List2A,white,man,,,,null,,,,
null,"<img src=""stim_listA/talk5.gif""</stim_listA>",,html-keyboard-response,381,1413976,0.0-19.0-1.9,70046,List2A,white,man,,,,null,,,,
null,is talking to,,html-keyboard-response,382,1415978,0.0-19.0-2.9,70046,List2A,white,man,,,,null,,,,
5774,,,survey-text,383,1421754,0.0-19.0-3.9,70046,List2A,white,man,,,,,"{""Q0"":""Luke is talking to Mike""}","<img src=""stim_listA/talk5.gif""</stim_listA>",is talking to,
null,"<div style=""font-size:60px;"">+</div>",,html-keyboard-response,384,1422258,0.0-19.0-0.10,70046,List2A,white,man,,,,null,,,,
null,"<img src=""stim_listA/meet1.gif""</stim_listA>",,html-keyboard-response,385,1424261,0.0-19.0-1.10,70046,List2A,white,man,,,,null,,,,
null,is meeting,,html-keyboard-response,386,1426262,0.0-19.0-2.10,70046,List2A,white,man,,,,null,,,,
5357,,,survey-text,387,1431620,0.0-19.0-3.10,70046,List2A,white,man,,,,,"{""Q0"":""Dave is meeting Jane""}","<img src=""stim_listA/meet1.gif""</stim_listA>",is meeting,
null,"<div style=""font-size:60px;"">+</div>",,html-keyboard-response,388,1432121,0.0-19.0-0.11,70046,List2A,white,man,,,,null,,,,
null,"<img src=""stim_listA/hug1.gif""</stim_listA>",,html-keyboard-response,389,1434124,0.0-19.0-1.11,70046,List2A,white,man,,,,null,,,,
null,is hugging,,html-keyboard-response,390,1436128,0.0-19.0-2.11,70046,List2A,white,man,,,,null,,,,
6202,,,survey-text,391,1442330,0.0-19.0-3.11,70046,List2A,white,man,,,,,"{""Q0"":""Luke is hugging Ruth""}","<img src=""stim_listA/hug1.gif""</stim_listA>",is hugging,
null,"<div style=""font-size:60px;"">+</div>",,html-keyboard-response,392,1442833,0.0-19.0-0.12,70046,List2A,white,man,,,,null,,,,
null,"<img src=""stim_listA/hug3.gif""</stim_listA>",,html-keyboard-response,393,1444838,0.0-19.0-1.12,70046,List2A,white,man,,,,null,,,,
null,is hugging,,html-keyboard-response,394,1446839,0.0-19.0-2.12,70046,List2A,white,man,,,,null,,,,
5661,,,survey-text,395,1452501,0.0-19.0-3.12,70046,List2A,white,man,,,,,"{""Q0"":""Fred is hugging Beth""}","<img src=""stim_listA/hug3.gif""</stim_listA>",is hugging,
null,"<div style=""font-size:60px;"">+</div>",,html-keyboard-response,396,1453007,0.0-19.0-0.13,70046,List2A,white,man,,,,null,,,,
null,"<img src=""stim_listA/kiss3.gif""</stim_listA>",,html-keyboard-response,397,1455012,0.0-19.0-1.13,70046,List2A,white,man,,,,null,,,,
null,is kissing,,html-keyboard-response,398,1457018,0.0-19.0-2.13,70046,List2A,white,man,,,,null,,,,
5822,,,survey-text,399,1462840,0.0-19.0-3.13,70046,List2A,white,man,,,,,"{""Q0"":""Fred is kissing Beth""}","<img src=""stim_listA/kiss3.gif""</stim_listA>",is kissing,
null,"<div style=""font-size:60px;"">+</div>",,html-keyboard-response,400,1463346,0.0-19.0-0.14,70046,List2A,white,man,,,,null,,,,
null,"<img src=""stim_listA/kiss4.gif""</stim_listA>",,html-keyboard-response,401,1465351,0.0-19.0-1.14,70046,List2A,white,man,,,,null,,,,
null,are kissing each other,,html-keyboard-response,402,1467356,0.0-19.0-2.14,70046,List2A,white,man,,,,null,,,,
9006,,,survey-text,403,1476363,0.0-19.0-3.14,70046,List2A,white,man,,,,,"{""Q0"":""Kate and Mike are kissing each other""}","<img src=""stim_listA/kiss4.gif""</stim_listA>",are kissing each other,
null,"<div style=""font-size:60px;"">+</div>",,html-keyboard-response,404,1476869,0.0-19.0-0.15,70046,List2A,white,man,,,,null,,,,
null,"<img src=""stim_listA/marry5.gif""</stim_listA>",,html-keyboard-response,405,1478870,0.0-19.0-1.15,70046,List2A,white,man,,,,null,,,,
null,is marrying,,html-keyboard-response,406,1480873,0.0-19.0-2.15,70046,List2A,white,man,,,,null,,,,
5784,,,survey-text,407,1486657,0.0-19.0-3.15,70046,List2A,white,man,,,,,"{""Q0"":""Dave is marrying Fred""}","<img src=""stim_listA/marry5.gif""</stim_listA>",is marrying,
null,"<div style=""font-size:60px;"">+</div>",,html-keyboard-response,408,1487158,0.0-19.0-0.16,70046,List2A,white,man,,,,null,,,,
null,"<img src=""stim_listA/kiss8.gif""</stim_listA>",,html-keyboard-response,409,1489164,0.0-19.0-1.16,70046,List2A,white,man,,,,null,,,,
null,are kissing each other,,html-keyboard-response,410,1491167,0.0-19.0-2.16,70046,List2A,white,man,,,,null,,,,
6660,,,survey-text,411,1497828,0.0-19.0-3.16,70046,List2A,white,man,,,,,"{""Q0"":""Kate and Jane are kissing each other""}","<img src=""stim_listA/kiss8.gif""</stim_listA>",are kissing each other,
null,"<div style=""font-size:60px;"">+</div>",,html-keyboard-response,412,1498333,0.0-19.0-0.17,70046,List2A,white,man,,,,null,,,,
null,"<img src=""stim_listA/meet3.gif""</stim_listA>",,html-keyboard-response,413,1500336,0.0-19.0-1.17,70046,List2A,white,man,,,,null,,,,
null,is meeting,,html-keyboard-response,414,1502338,0.0-19.0-2.17,70046,List2A,white,man,,,,null,,,,
5357,,,survey-text,415,1507695,0.0-19.0-3.17,70046,List2A,white,man,,,,,"{""Q0"":""Mike is meeting Kate""}","<img src=""stim_listA/meet3.gif""</stim_listA>",is meeting,
null,"<div style=""font-size:60px;"">+</div>",,html-keyboard-response,416,1508201,0.0-19.0-0.18,70046,List2A,white,man,,,,null,,,,
null,"<img src=""stim_listA/fight2.gif""</stim_listA>",,html-keyboard-response,417,1510203,0.0-19.0-1.18,70046,List2A,white,man,,,,null,,,,
null,are fighting each other,,html-keyboard-response,418,1512208,0.0-19.0-2.18,70046,List2A,white,man,,,,null,,,,
6985,,,survey-text,419,1519193,0.0-19.0-3.18,70046,List2A,white,man,,,,,"{""Q0"":""Ruth and Luke are fighting each other""}","<img src=""stim_listA/fight2.gif""</stim_listA>",are fighting each other,
null,"<div style=""font-size:60px;"">+</div>",,html-keyboard-response,420,1519696,0.0-19.0-0.19,70046,List2A,white,man,,,,null,,,,
null,"<img src=""stim_listA/dance1.gif""</stim_listA>",,html-keyboard-response,421,1521702,0.0-19.0-1.19,70046,List2A,white,man,,,,null,,,,
null,is dancing with,,html-keyboard-response,422,1523707,0.0-19.0-2.19,70046,List2A,white,man,,,,null,,,,
6476,,,survey-text,423,1530185,0.0-19.0-3.19,70046,List2A,white,man,,,,,"{""Q0"":""Luke is dancing with Jane""}","<img src=""stim_listA/dance1.gif""</stim_listA>",is dancing with,
2306,<p>Thank you for completing that task.</p><p>The final part of this session is a short questionnaire.</p><p>Press Continue.</p>,0,html-button-response,424,1532491,0.0-20.0,70046,List2A,white,man,,,,,,,,
34523,,,survey-text,425,1568020,0.0-21.0,70046,List2A,white,man,,,,,"{""Q0"":""46"",""Q1"":""English (UK)"",""Q2"":""English (UK)"",""Q3"":""United Kingdom"",""Q4"":""White British"",""Q5"":""Male""}",,,demographics
66285,,,survey-likert,426,1634310,0.0-22.0,70046,List2A,white,man,,,,,"{""Q0"":1,""Q1"":1,""Q2"":1,""Q3"":4,""Q4"":0,""Q5"":4,""Q6"":1,""Q7"":1,""Q8"":1,""Q9"":1,""Q10"":4,""Q11"":2,""Q12"":4,""Q13"":4}",,,likert_race
52704,,,survey-likert,427,1687017,0.0-23.0,70046,List2A,white,man,,,,,"{""Q0"":2,""Q1"":2,""Q2"":1,""Q3"":3,""Q4"":1,""Q5"":3,""Q6"":1,""Q7"":1,""Q8"":2,""Q9"":2,""Q10"":1,""Q11"":1,""Q12"":4,""Q13"":4}",,,likert_gender
16805,,,survey-text,428,1703823,0.0-24.0,70046,List2A,white,man,,,,,"{""Q0"":""ccc""}",,,worker_id
34384,,,external-html,429,1738261,0.0-25.0,70046,List2A,white,man,debrief.html,,,,,,,
