rt,stimulus,button_pressed,trial_type,trial_index,time_elapsed,internal_node_id,subject,list,ppt_race,ppt_gender,url,first_guess,correct,key_press,responses,image_type,phrase_type,test_part
5989,Welcome to the experiment. Press Continue to begin.,0,html-button-response,0,5993,0.0-0.0,71693,List2B,white,man,,,,,,,,
19438,,,external-html,1,26483,0.0-1.0,71693,List2B,white,man,consent.html,,,,,,,
18754,"<p>On the next page, you will see portraits of 8 people and their names.</p><p>Your first task is to take a few minutes to memorise the names of these people.</p><p>You will have to recall their names during the rest of the experiment, so it is</p><p>essential that you try to memorise these people and their names as best as you can.</p><br><p><strong>You will then be tested on your memory of these names and portraits.</strong></p><br><p>The experiment will start after you have completed this memory test.</p><br><p>Ready?</p>",0,html-button-response,2,45240,0.0-2.0,71693,List2B,white,man,,,,,,,,
109334,"<img src='img/portrait_matrix_list2.JPG' style='width:900px;height:500px;''></img><p>If you have memorised all the portraits and names and are ready to start, press Continue.</p><p><strong>Please note: Your memory of these faces will be tested 4 times during this experiment.</strong></p>",0,html-button-response,3,155581,0.0-3.0-0.0,71693,List2B,white,man,,,,,,,,
7466,"<img src=""portrait/BW2.jpg""style=""width:400px;height:400px;""></img>",2,html-button-response,4,164052,0.0-3.0-1.0,71693,List2B,white,man,,TRUE,2,,,,,
null,CORRECT,,html-keyboard-response,5,165562,0.0-3.0-2.0-0.0,71693,List2B,white,man,,,,null,,,,
5711,"<img src=""portrait/WM2.jpg""style=""width:400px;height:400px;""></img>",6,html-button-response,6,171275,0.0-3.0-4.0,71693,List2B,white,man,,TRUE,7,,,,,
4341,"<img src=""portrait/WM2.jpg""style=""width:400px;height:400px;""></img>",7,html-button-response,7,176620,0.0-3.0-6.0-0.0,71693,List2B,white,man,,FALSE,7,,,,,
null,CORRECT,,html-keyboard-response,8,178128,0.0-3.0-6.0-1.0-0.0,71693,List2B,white,man,,,,null,,,,
7216,"<img src=""portrait/BM2.jpg""style=""width:400px;height:400px;""></img>",5,html-button-response,9,185348,0.0-3.0-7.0,71693,List2B,white,man,,TRUE,5,,,,,
null,CORRECT,,html-keyboard-response,10,186853,0.0-3.0-8.0-0.0,71693,List2B,white,man,,,,null,,,,
2377,"<img src=""portrait/WW2.jpg""style=""width:400px;height:400px;""></img>",3,html-button-response,11,189234,0.0-3.0-10.0,71693,List2B,white,man,,TRUE,3,,,,,
null,CORRECT,,html-keyboard-response,12,190742,0.0-3.0-11.0-0.0,71693,List2B,white,man,,,,null,,,,
5569,"<img src=""portrait/BW1.jpg""style=""width:400px;height:400px;""></img>",2,html-button-response,13,196314,0.0-3.0-13.0,71693,List2B,white,man,,TRUE,0,,,,,
2482,"<img src=""portrait/BW1.jpg""style=""width:400px;height:400px;""></img>",0,html-button-response,14,199802,0.0-3.0-15.0-0.0,71693,List2B,white,man,,FALSE,0,,,,,
null,CORRECT,,html-keyboard-response,15,201307,0.0-3.0-15.0-1.0-0.0,71693,List2B,white,man,,,,null,,,,
9774,"<img src=""portrait/BM1.jpg""style=""width:400px;height:400px;""></img>",7,html-button-response,16,211082,0.0-3.0-16.0,71693,List2B,white,man,,TRUE,4,,,,,
1989,"<img src=""portrait/BM1.jpg""style=""width:400px;height:400px;""></img>",4,html-button-response,17,214073,0.0-3.0-18.0-0.0,71693,List2B,white,man,,FALSE,4,,,,,
null,CORRECT,,html-keyboard-response,18,215579,0.0-3.0-18.0-1.0-0.0,71693,List2B,white,man,,,,null,,,,
5813,"<img src=""portrait/WM1.jpg""style=""width:400px;height:400px;""></img>",6,html-button-response,19,221394,0.0-3.0-19.0,71693,List2B,white,man,,TRUE,6,,,,,
null,CORRECT,,html-keyboard-response,20,222896,0.0-3.0-20.0-0.0,71693,List2B,white,man,,,,null,,,,
5567,"<img src=""portrait/WW1.jpg""style=""width:400px;height:400px;""></img>",1,html-button-response,21,228465,0.0-3.0-22.0,71693,List2B,white,man,,TRUE,1,,,,,
null,CORRECT,,html-keyboard-response,22,229970,0.0-3.0-23.0-0.0,71693,List2B,white,man,,,,null,,,,
1814,<p>You got 5 out of 8 right first time. Press Continue.</p>,0,html-button-response,23,231785,0.0-3.0-25.0,71693,List2B,white,man,,,,,,,,
5038,"As you did not score 100%, the memory game will repeat. Press Continue.",0,html-button-response,24,237825,0.0-3.0-26.0-0.0,71693,List2B,white,man,,,,,,,,
14185,"<img src='img/portrait_matrix_list2.JPG' style='width:900px;height:500px;''></img><p>If you have memorised all the portraits and names and are ready to start, press Continue.</p><p><strong>Please note: Your memory of these faces will be tested 4 times during this experiment.</strong></p>",0,html-button-response,25,253018,0.0-3.1-0.1,71693,List2B,white,man,,,,,,,,
8323,"<img src=""portrait/BW2.jpg""style=""width:400px;height:400px;""></img>",0,html-button-response,26,262344,0.0-3.1-1.1,71693,List2B,white,man,,TRUE,2,,,,,
5571,"<img src=""portrait/BW2.jpg""style=""width:400px;height:400px;""></img>",2,html-button-response,27,268920,0.0-3.1-3.1-0.1,71693,List2B,white,man,,FALSE,2,,,,,
null,CORRECT,,html-keyboard-response,28,270429,0.0-3.1-3.1-1.1-0.1,71693,List2B,white,man,,,,null,,,,
5792,"<img src=""portrait/WM2.jpg""style=""width:400px;height:400px;""></img>",6,html-button-response,29,276223,0.0-3.1-4.1,71693,List2B,white,man,,TRUE,7,,,,,
2540,"<img src=""portrait/WM2.jpg""style=""width:400px;height:400px;""></img>",7,html-button-response,30,279768,0.0-3.1-6.1-0.1,71693,List2B,white,man,,FALSE,7,,,,,
null,CORRECT,,html-keyboard-response,31,281274,0.0-3.1-6.1-1.1-0.1,71693,List2B,white,man,,,,null,,,,
7188,"<img src=""portrait/BM2.jpg""style=""width:400px;height:400px;""></img>",4,html-button-response,32,288464,0.0-3.1-7.1,71693,List2B,white,man,,TRUE,5,,,,,
1493,"<img src=""portrait/BM2.jpg""style=""width:400px;height:400px;""></img>",5,html-button-response,33,290959,0.0-3.1-9.1-0.1,71693,List2B,white,man,,FALSE,5,,,,,
null,CORRECT,,html-keyboard-response,34,292466,0.0-3.1-9.1-1.1-0.1,71693,List2B,white,man,,,,null,,,,
1811,"<img src=""portrait/WW2.jpg""style=""width:400px;height:400px;""></img>",3,html-button-response,35,294279,0.0-3.1-10.1,71693,List2B,white,man,,TRUE,3,,,,,
null,CORRECT,,html-keyboard-response,36,295784,0.0-3.1-11.1-0.1,71693,List2B,white,man,,,,null,,,,
2388,"<img src=""portrait/BW1.jpg""style=""width:400px;height:400px;""></img>",0,html-button-response,37,298174,0.0-3.1-13.1,71693,List2B,white,man,,TRUE,0,,,,,
null,CORRECT,,html-keyboard-response,38,299678,0.0-3.1-14.1-0.1,71693,List2B,white,man,,,,null,,,,
2224,"<img src=""portrait/BM1.jpg""style=""width:400px;height:400px;""></img>",4,html-button-response,39,301902,0.0-3.1-16.1,71693,List2B,white,man,,TRUE,4,,,,,
null,CORRECT,,html-keyboard-response,40,303409,0.0-3.1-17.1-0.1,71693,List2B,white,man,,,,null,,,,
2524,"<img src=""portrait/WM1.jpg""style=""width:400px;height:400px;""></img>",6,html-button-response,41,305935,0.0-3.1-19.1,71693,List2B,white,man,,TRUE,6,,,,,
null,CORRECT,,html-keyboard-response,42,307440,0.0-3.1-20.1-0.1,71693,List2B,white,man,,,,null,,,,
2644,"<img src=""portrait/WW1.jpg""style=""width:400px;height:400px;""></img>",2,html-button-response,43,310087,0.0-3.1-22.1,71693,List2B,white,man,,TRUE,1,,,,,
1877,"<img src=""portrait/WW1.jpg""style=""width:400px;height:400px;""></img>",1,html-button-response,44,312967,0.0-3.1-24.1-0.1,71693,List2B,white,man,,FALSE,1,,,,,
null,CORRECT,,html-keyboard-response,45,314470,0.0-3.1-24.1-1.1-0.1,71693,List2B,white,man,,,,null,,,,
4134,<p>You got 4 out of 8 right first time. Press Continue.</p>,0,html-button-response,46,318606,0.0-3.1-25.1,71693,List2B,white,man,,,,,,,,
1254,"As you did not score 100%, the memory game will repeat. Press Continue.",0,html-button-response,47,320862,0.0-3.1-26.1-0.1,71693,List2B,white,man,,,,,,,,
16991,"<img src='img/portrait_matrix_list2.JPG' style='width:900px;height:500px;''></img><p>If you have memorised all the portraits and names and are ready to start, press Continue.</p><p><strong>Please note: Your memory of these faces will be tested 4 times during this experiment.</strong></p>",0,html-button-response,48,338861,0.0-3.2-0.2,71693,List2B,white,man,,,,,,,,
3860,"<img src=""portrait/BW2.jpg""style=""width:400px;height:400px;""></img>",1,html-button-response,49,343725,0.0-3.2-1.2,71693,List2B,white,man,,TRUE,2,,,,,
1197,"<img src=""portrait/BW2.jpg""style=""width:400px;height:400px;""></img>",2,html-button-response,50,345925,0.0-3.2-3.2-0.2,71693,List2B,white,man,,FALSE,2,,,,,
null,CORRECT,,html-keyboard-response,51,347430,0.0-3.2-3.2-1.2-0.2,71693,List2B,white,man,,,,null,,,,
8764,"<img src=""portrait/WM2.jpg""style=""width:400px;height:400px;""></img>",7,html-button-response,52,356197,0.0-3.2-4.2,71693,List2B,white,man,,TRUE,7,,,,,
null,CORRECT,,html-keyboard-response,53,357708,0.0-3.2-5.2-0.2,71693,List2B,white,man,,,,null,,,,
3232,"<img src=""portrait/BM2.jpg""style=""width:400px;height:400px;""></img>",5,html-button-response,54,360942,0.0-3.2-7.2,71693,List2B,white,man,,TRUE,5,,,,,
null,CORRECT,,html-keyboard-response,55,362447,0.0-3.2-8.2-0.2,71693,List2B,white,man,,,,null,,,,
1754,"<img src=""portrait/WW2.jpg""style=""width:400px;height:400px;""></img>",3,html-button-response,56,364205,0.0-3.2-10.2,71693,List2B,white,man,,TRUE,3,,,,,
null,CORRECT,,html-keyboard-response,57,365711,0.0-3.2-11.2-0.2,71693,List2B,white,man,,,,null,,,,
2475,"<img src=""portrait/BW1.jpg""style=""width:400px;height:400px;""></img>",0,html-button-response,58,368189,0.0-3.2-13.2,71693,List2B,white,man,,TRUE,0,,,,,
null,CORRECT,,html-keyboard-response,59,369694,0.0-3.2-14.2-0.2,71693,List2B,white,man,,,,null,,,,
1868,"<img src=""portrait/BM1.jpg""style=""width:400px;height:400px;""></img>",4,html-button-response,60,371564,0.0-3.2-16.2,71693,List2B,white,man,,TRUE,4,,,,,
null,CORRECT,,html-keyboard-response,61,373070,0.0-3.2-17.2-0.2,71693,List2B,white,man,,,,null,,,,
7502,"<img src=""portrait/WM1.jpg""style=""width:400px;height:400px;""></img>",6,html-button-response,62,380572,0.0-3.2-19.2,71693,List2B,white,man,,TRUE,6,,,,,
null,CORRECT,,html-keyboard-response,63,382079,0.0-3.2-20.2-0.2,71693,List2B,white,man,,,,null,,,,
4147,"<img src=""portrait/WW1.jpg""style=""width:400px;height:400px;""></img>",1,html-button-response,64,386228,0.0-3.2-22.2,71693,List2B,white,man,,TRUE,1,,,,,
null,CORRECT,,html-keyboard-response,65,387732,0.0-3.2-23.2-0.2,71693,List2B,white,man,,,,null,,,,
1318,<p>You got 7 out of 8 right first time. Press Continue.</p>,0,html-button-response,66,389051,0.0-3.2-25.2,71693,List2B,white,man,,,,,,,,
7605,"As you did not score 100%, the memory game will repeat. Press Continue.",0,html-button-response,67,397659,0.0-3.2-26.2-0.2,71693,List2B,white,man,,,,,,,,
11308,"<img src='img/portrait_matrix_list2.JPG' style='width:900px;height:500px;''></img><p>If you have memorised all the portraits and names and are ready to start, press Continue.</p><p><strong>Please note: Your memory of these faces will be tested 4 times during this experiment.</strong></p>",0,html-button-response,68,409971,0.0-3.3-0.3,71693,List2B,white,man,,,,,,,,
1887,"<img src=""portrait/BW2.jpg""style=""width:400px;height:400px;""></img>",2,html-button-response,69,412859,0.0-3.3-1.3,71693,List2B,white,man,,TRUE,2,,,,,
null,CORRECT,,html-keyboard-response,70,414362,0.0-3.3-2.3-0.3,71693,List2B,white,man,,,,null,,,,
4559,"<img src=""portrait/WM2.jpg""style=""width:400px;height:400px;""></img>",7,html-button-response,71,418924,0.0-3.3-4.3,71693,List2B,white,man,,TRUE,7,,,,,
null,CORRECT,,html-keyboard-response,72,420429,0.0-3.3-5.3-0.3,71693,List2B,white,man,,,,null,,,,
2498,"<img src=""portrait/BM2.jpg""style=""width:400px;height:400px;""></img>",5,html-button-response,73,422931,0.0-3.3-7.3,71693,List2B,white,man,,TRUE,5,,,,,
null,CORRECT,,html-keyboard-response,74,424436,0.0-3.3-8.3-0.3,71693,List2B,white,man,,,,null,,,,
2012,"<img src=""portrait/WW2.jpg""style=""width:400px;height:400px;""></img>",3,html-button-response,75,426450,0.0-3.3-10.3,71693,List2B,white,man,,TRUE,3,,,,,
null,CORRECT,,html-keyboard-response,76,427957,0.0-3.3-11.3-0.3,71693,List2B,white,man,,,,null,,,,
2021,"<img src=""portrait/BW1.jpg""style=""width:400px;height:400px;""></img>",0,html-button-response,77,429980,0.0-3.3-13.3,71693,List2B,white,man,,TRUE,0,,,,,
null,CORRECT,,html-keyboard-response,78,431486,0.0-3.3-14.3-0.3,71693,List2B,white,man,,,,null,,,,
4147,"<img src=""portrait/BM1.jpg""style=""width:400px;height:400px;""></img>",4,html-button-response,79,435634,0.0-3.3-16.3,71693,List2B,white,man,,TRUE,4,,,,,
null,CORRECT,,html-keyboard-response,80,437137,0.0-3.3-17.3-0.3,71693,List2B,white,man,,,,null,,,,
1239,"<img src=""portrait/WM1.jpg""style=""width:400px;height:400px;""></img>",6,html-button-response,81,438379,0.0-3.3-19.3,71693,List2B,white,man,,TRUE,6,,,,,
null,CORRECT,,html-keyboard-response,82,439886,0.0-3.3-20.3-0.3,71693,List2B,white,man,,,,null,,,,
3467,"<img src=""portrait/WW1.jpg""style=""width:400px;height:400px;""></img>",1,html-button-response,83,443354,0.0-3.3-22.3,71693,List2B,white,man,,TRUE,1,,,,,
null,CORRECT,,html-keyboard-response,84,444857,0.0-3.3-23.3-0.3,71693,List2B,white,man,,,,null,,,,
1111,<p>You got 8 out of 8 right first time. Press Continue.</p>,0,html-button-response,85,445969,0.0-3.3-25.3,71693,List2B,white,man,,,,,,,,
45664,"<p>In this experiment, you will view photographs of the people from the memory game interacting.</p><p>By using the <strong>exact</strong> phrase given <i>after</i> the photograph appears and recalling the correct names of the people in the photographs, form a sentence describing the interaction. You do not need to capitalise names.</p><p>Type your answer in the space provided. Please complete every sentence before moving onto the next trial.</p><p>You will only have a few seconds to memorise each given photograph and phrase before you can respond, so try your best to focus.</p><p>An example is given below. Press 'Continue' when you are ready.</p><img src='img/speaking_example_v2.jpg' style='width:800px;height:460px;''></img>",0,html-button-response,86,492642,0.0-4.0,71693,List2B,white,man,,,,,,,,
2604,"<p>Before the experiment starts, you will watch two example trials. Press 'Continue'.</p>",0,html-button-response,87,496248,0.0-5.0,71693,List2B,white,man,,,,,,,,
null,<img src='img/speaking_WW.gif'></img>,,html-keyboard-response,88,499255,0.0-6.0,71693,List2B,white,man,,,,null,,,,
null,<p>is speaking to</p>,,html-keyboard-response,89,501260,0.0-7.0,71693,List2B,white,man,,,,null,,,,
2578,<p><b>Answer:</b> jane is speaking to ruth</p>,0,html-button-response,90,503840,0.0-8.0,71693,List2B,white,man,,,,,,,,
null,<img src='img/pointing_BM.gif'></img>,,html-keyboard-response,91,506849,0.0-9.0,71693,List2B,white,man,,,,null,,,,
null,<p>are pointing at each other</p>,,html-keyboard-response,92,508855,0.0-10.0,71693,List2B,white,man,,,,null,,,,
4232,<p><b>Answer:</b> fred and mike are pointing at each other</p>,0,html-button-response,93,513088,0.0-11.0,71693,List2B,white,man,,,,,,,,
4206,"<p>Ready to start the experiment?</p><br><p><strong>Remember to describe the picture using a full sentence,</strong></p><p><strong> that combines the names of the people with the given phrase.</strong></p><p><strong> You do not need to capitalise names or use punctuation.</strong></p><br><p>Press 'Continue' to begin.</p>",0,html-button-response,94,518295,0.0-12.0,71693,List2B,white,man,,,,,,,,
null,"<div style=""font-size:60px;"">+</div>",,html-keyboard-response,95,519799,0.0-13.0-0.0,71693,List2B,white,man,,,,null,,,,
null,"<img src=""stim_listB/shout1.gif""</stim_listB>",,html-keyboard-response,96,521804,0.0-13.0-1.0,71693,List2B,white,man,,,,null,,,,
null,is shouting at,,html-keyboard-response,97,523809,0.0-13.0-2.0,71693,List2B,white,man,,,,null,,,,
9164,,,survey-text,98,532976,0.0-13.0-3.0,71693,List2B,white,man,,,,,"{""Q0"":""kate is shouting at luke""}","<img src=""stim_listB/shout1.gif""</stim_listB>",is shouting at,
null,"<div style=""font-size:60px;"">+</div>",,html-keyboard-response,99,533479,0.0-13.0-0.1,71693,List2B,white,man,,,,null,,,,
null,"<img src=""stim_listB/dance8.gif""</stim_listB>",,html-keyboard-response,100,535485,0.0-13.0-1.1,71693,List2B,white,man,,,,null,,,,
null,are dancing with each other,,html-keyboard-response,101,537492,0.0-13.0-2.1,71693,List2B,white,man,,,,null,,,,
11520,,,survey-text,102,549014,0.0-13.0-3.1,71693,List2B,white,man,,,,,"{""Q0"":""jane and beth are dancing with each other""}","<img src=""stim_listB/dance8.gif""</stim_listB>",are dancing with each other,
null,"<div style=""font-size:60px;"">+</div>",,html-keyboard-response,103,549519,0.0-13.0-0.2,71693,List2B,white,man,,,,null,,,,
null,"<img src=""stim_listB/argue7.gif""</stim_listB>",,html-keyboard-response,104,551525,0.0-13.0-1.2,71693,List2B,white,man,,,,null,,,,
null,is arguing with,,html-keyboard-response,105,553526,0.0-13.0-2.2,71693,List2B,white,man,,,,null,,,,
9205,,,survey-text,106,562734,0.0-13.0-3.2,71693,List2B,white,man,,,,,"{""Q0"":""beth is arguing with jane""}","<img src=""stim_listB/argue7.gif""</stim_listB>",is arguing with,
null,"<div style=""font-size:60px;"">+</div>",,html-keyboard-response,107,563234,0.0-13.0-0.3,71693,List2B,white,man,,,,null,,,,
null,"<img src=""stim_listB/fight2.gif""</stim_listB>",,html-keyboard-response,108,565239,0.0-13.0-1.3,71693,List2B,white,man,,,,null,,,,
null,are fighting each other,,html-keyboard-response,109,567244,0.0-13.0-2.3,71693,List2B,white,man,,,,null,,,,
9064,,,survey-text,110,576309,0.0-13.0-3.3,71693,List2B,white,man,,,,,"{""Q0"":""kate and luke are fighting each other""}","<img src=""stim_listB/fight2.gif""</stim_listB>",are fighting each other,
null,"<div style=""font-size:60px;"">+</div>",,html-keyboard-response,111,576815,0.0-13.0-0.4,71693,List2B,white,man,,,,null,,,,
null,"<img src=""stim_listB/hug1.gif""</stim_listB>",,html-keyboard-response,112,578818,0.0-13.0-1.4,71693,List2B,white,man,,,,null,,,,
null,is hugging,,html-keyboard-response,113,580822,0.0-13.0-2.4,71693,List2B,white,man,,,,null,,,,
6646,,,survey-text,114,587469,0.0-13.0-3.4,71693,List2B,white,man,,,,,"{""Q0"":""kate is hugging luke""}","<img src=""stim_listB/hug1.gif""</stim_listB>",is hugging,
null,"<div style=""font-size:60px;"">+</div>",,html-keyboard-response,115,587971,0.0-13.0-0.5,71693,List2B,white,man,,,,null,,,,
null,"<img src=""stim_listB/talk5.gif""</stim_listB>",,html-keyboard-response,116,589977,0.0-13.0-1.5,71693,List2B,white,man,,,,null,,,,
null,is talking to,,html-keyboard-response,117,591979,0.0-13.0-2.5,71693,List2B,white,man,,,,null,,,,
9201,,,survey-text,118,601182,0.0-13.0-3.5,71693,List2B,white,man,,,,,"{""Q0"":""luke is talking to mike""}","<img src=""stim_listB/talk5.gif""</stim_listB>",is talking to,
null,"<div style=""font-size:60px;"">+</div>",,html-keyboard-response,119,601684,0.0-13.0-0.6,71693,List2B,white,man,,,,null,,,,
null,"<img src=""stim_listB/kiss8.gif""</stim_listB>",,html-keyboard-response,120,603688,0.0-13.0-1.6,71693,List2B,white,man,,,,null,,,,
null,are kissing each other,,html-keyboard-response,121,605695,0.0-13.0-2.6,71693,List2B,white,man,,,,null,,,,
12724,,,survey-text,122,618420,0.0-13.0-3.6,71693,List2B,white,man,,,,,"{""Q0"":""kate and jane are kissing each other""}","<img src=""stim_listB/kiss8.gif""</stim_listB>",are kissing each other,
null,"<div style=""font-size:60px;"">+</div>",,html-keyboard-response,123,618922,0.0-13.0-0.7,71693,List2B,white,man,,,,null,,,,
null,"<img src=""stim_listB/meet5.gif""</stim_listB>",,html-keyboard-response,124,620928,0.0-13.0-1.7,71693,List2B,white,man,,,,null,,,,
null,is meeting,,html-keyboard-response,125,622933,0.0-13.0-2.7,71693,List2B,white,man,,,,null,,,,
7141,,,survey-text,126,630075,0.0-13.0-3.7,71693,List2B,white,man,,,,,"{""Q0"":""dave is meeting mike""}","<img src=""stim_listB/meet5.gif""</stim_listB>",is meeting,
null,"<div style=""font-size:60px;"">+</div>",,html-keyboard-response,127,630581,0.0-13.0-0.8,71693,List2B,white,man,,,,null,,,,
null,"<img src=""stim_listB/touch6.gif""</stim_listB>",,html-keyboard-response,128,632587,0.0-13.0-1.8,71693,List2B,white,man,,,,null,,,,
null,are touching each other,,html-keyboard-response,129,634591,0.0-13.0-2.8,71693,List2B,white,man,,,,null,,,,
15010,,,survey-text,130,649604,0.0-13.0-3.8,71693,List2B,white,man,,,,,"{""Q0"":""luke and fred are touching each other""}","<img src=""stim_listB/touch6.gif""</stim_listB>",are touching each other,
null,"<div style=""font-size:60px;"">+</div>",,html-keyboard-response,131,650110,0.0-13.0-0.9,71693,List2B,white,man,,,,null,,,,
null,"<img src=""stim_listB/marry1.gif""</stim_listB>",,html-keyboard-response,132,652117,0.0-13.0-1.9,71693,List2B,white,man,,,,null,,,,
null,is marrying,,html-keyboard-response,133,654122,0.0-13.0-2.9,71693,List2B,white,man,,,,null,,,,
9935,,,survey-text,134,664059,0.0-13.0-3.9,71693,List2B,white,man,,,,,"{""Q0"":""dave is marrying kate""}","<img src=""stim_listB/marry1.gif""</stim_listB>",is marrying,
null,"<div style=""font-size:60px;"">+</div>",,html-keyboard-response,135,664563,0.0-13.0-0.10,71693,List2B,white,man,,,,null,,,,
null,"<img src=""stim_listB/kiss3.gif""</stim_listB>",,html-keyboard-response,136,666566,0.0-13.0-1.10,71693,List2B,white,man,,,,null,,,,
null,is kissing,,html-keyboard-response,137,668569,0.0-13.0-2.10,71693,List2B,white,man,,,,null,,,,
4879,,,survey-text,138,673450,0.0-13.0-3.10,71693,List2B,white,man,,,,,"{""Q0"":""fred is kissing beth""}","<img src=""stim_listB/kiss3.gif""</stim_listB>",is kissing,
null,"<div style=""font-size:60px;"">+</div>",,html-keyboard-response,139,673956,0.0-13.0-0.11,71693,List2B,white,man,,,,null,,,,
null,"<img src=""stim_listB/argue5.gif""</stim_listB>",,html-keyboard-response,140,675957,0.0-13.0-1.11,71693,List2B,white,man,,,,null,,,,
null,is arguing with,,html-keyboard-response,141,677962,0.0-13.0-2.11,71693,List2B,white,man,,,,null,,,,
6878,,,survey-text,142,684842,0.0-13.0-3.11,71693,List2B,white,man,,,,,"{""Q0"":""fred is arguing with dave""}","<img src=""stim_listB/argue5.gif""</stim_listB>",is arguing with,
null,"<div style=""font-size:60px;"">+</div>",,html-keyboard-response,143,685343,0.0-13.0-0.12,71693,List2B,white,man,,,,null,,,,
null,"<img src=""stim_listB/meet1.gif""</stim_listB>",,html-keyboard-response,144,687349,0.0-13.0-1.12,71693,List2B,white,man,,,,null,,,,
null,is meeting,,html-keyboard-response,145,689350,0.0-13.0-2.12,71693,List2B,white,man,,,,null,,,,
6290,,,survey-text,146,695641,0.0-13.0-3.12,71693,List2B,white,man,,,,,"{""Q0"":""dave is meeting jane""}","<img src=""stim_listB/meet1.gif""</stim_listB>",is meeting,
null,"<div style=""font-size:60px;"">+</div>",,html-keyboard-response,147,696144,0.0-13.0-0.13,71693,List2B,white,man,,,,null,,,,
null,"<img src=""stim_listB/touch5.gif""</stim_listB>",,html-keyboard-response,148,698150,0.0-13.0-1.13,71693,List2B,white,man,,,,null,,,,
null,is touching,,html-keyboard-response,149,700157,0.0-13.0-2.13,71693,List2B,white,man,,,,null,,,,
7612,,,survey-text,150,707770,0.0-13.0-3.13,71693,List2B,white,man,,,,,"{""Q0"":""mike is touching dave""}","<img src=""stim_listB/touch5.gif""</stim_listB>",is touching,
null,"<div style=""font-size:60px;"">+</div>",,html-keyboard-response,151,708276,0.0-13.0-0.14,71693,List2B,white,man,,,,null,,,,
null,"<img src=""stim_listB/hug6.gif""</stim_listB>",,html-keyboard-response,152,710282,0.0-13.0-1.14,71693,List2B,white,man,,,,null,,,,
null,are hugging each other,,html-keyboard-response,153,712285,0.0-13.0-2.14,71693,List2B,white,man,,,,null,,,,
9314,,,survey-text,154,721601,0.0-13.0-3.14,71693,List2B,white,man,,,,,"{""Q0"":""dave and mike are hugging each other""}","<img src=""stim_listB/hug6.gif""</stim_listB>",are hugging each other,
null,"<div style=""font-size:60px;"">+</div>",,html-keyboard-response,155,722102,0.0-13.0-0.15,71693,List2B,white,man,,,,null,,,,
null,"<img src=""stim_listB/shout7.gif""</stim_listB>",,html-keyboard-response,156,724108,0.0-13.0-1.15,71693,List2B,white,man,,,,null,,,,
null,is shouting at,,html-keyboard-response,157,726112,0.0-13.0-2.15,71693,List2B,white,man,,,,null,,,,
5222,,,survey-text,158,731336,0.0-13.0-3.15,71693,List2B,white,man,,,,,"{""Q0"":""beth is shouting at kate""}","<img src=""stim_listB/shout7.gif""</stim_listB>",is shouting at,
null,"<div style=""font-size:60px;"">+</div>",,html-keyboard-response,159,731840,0.0-13.0-0.16,71693,List2B,white,man,,,,null,,,,
null,"<img src=""stim_listB/fight4.gif""</stim_listB>",,html-keyboard-response,160,733844,0.0-13.0-1.16,71693,List2B,white,man,,,,null,,,,
null,are fighting each other,,html-keyboard-response,161,735847,0.0-13.0-2.16,71693,List2B,white,man,,,,null,,,,
7734,,,survey-text,162,743584,0.0-13.0-3.16,71693,List2B,white,man,,,,,"{""Q0"":""beth and fred are fighting each other""}","<img src=""stim_listB/fight4.gif""</stim_listB>",are fighting each other,
null,"<div style=""font-size:60px;"">+</div>",,html-keyboard-response,163,744088,0.0-13.0-0.17,71693,List2B,white,man,,,,null,,,,
null,"<img src=""stim_listB/dance3.gif""</stim_listB>",,html-keyboard-response,164,746093,0.0-13.0-1.17,71693,List2B,white,man,,,,null,,,,
null,is dancing with,,html-keyboard-response,165,748094,0.0-13.0-2.17,71693,List2B,white,man,,,,null,,,,
4912,,,survey-text,166,753007,0.0-13.0-3.17,71693,List2B,white,man,,,,,"{""Q0"":""kate is dancing with fred""}","<img src=""stim_listB/dance3.gif""</stim_listB>",is dancing with,
null,"<div style=""font-size:60px;"">+</div>",,html-keyboard-response,167,753513,0.0-13.0-0.18,71693,List2B,white,man,,,,null,,,,
null,"<img src=""stim_listB/argue4.gif""</stim_listB>",,html-keyboard-response,168,755518,0.0-13.0-1.18,71693,List2B,white,man,,,,null,,,,
null,are arguing with each other,,html-keyboard-response,169,757519,0.0-13.0-2.18,71693,List2B,white,man,,,,null,,,,
10592,,,survey-text,170,768112,0.0-13.0-3.18,71693,List2B,white,man,,,,,"{""Q0"":""kate and fred are arguing with each other""}","<img src=""stim_listB/argue4.gif""</stim_listB>",are arguing with each other,
null,"<div style=""font-size:60px;"">+</div>",,html-keyboard-response,171,768617,0.0-13.0-0.19,71693,List2B,white,man,,,,null,,,,
null,"<img src=""stim_listB/touch8.gif""</stim_listB>",,html-keyboard-response,172,770624,0.0-13.0-1.19,71693,List2B,white,man,,,,null,,,,
null,are touching each other,,html-keyboard-response,173,772630,0.0-13.0-2.19,71693,List2B,white,man,,,,null,,,,
16951,,,survey-text,174,789582,0.0-13.0-3.19,71693,List2B,white,man,,,,,"{""Q0"":""beth and ruth are touching each other""}","<img src=""stim_listB/touch8.gif""</stim_listB>",are touching each other,
13062,"<img src='img/portrait_matrix_list2.JPG' style='width:900px;height:500px;''></img><p>If you have memorised all the portraits and names and are ready to start, press Continue.</p><p><strong>Please note: Your memory of these faces will be tested 4 times during this experiment.</strong></p>",0,html-button-response,175,802647,0.0-14.0-0.0,71693,List2B,white,man,,,,,,,,
4939,"<img src=""portrait/BM2.jpg""style=""width:400px;height:400px;""></img>",5,html-button-response,176,808590,0.0-14.0-1.0,71693,List2B,white,man,,TRUE,5,,,,,
null,CORRECT,,html-keyboard-response,177,810094,0.0-14.0-2.0-0.0,71693,List2B,white,man,,,,null,,,,
2622,"<img src=""portrait/BW2.jpg""style=""width:400px;height:400px;""></img>",2,html-button-response,178,812718,0.0-14.0-4.0,71693,List2B,white,man,,TRUE,2,,,,,
null,CORRECT,,html-keyboard-response,179,814223,0.0-14.0-5.0-0.0,71693,List2B,white,man,,,,null,,,,
1452,"<img src=""portrait/WW2.jpg""style=""width:400px;height:400px;""></img>",3,html-button-response,180,815678,0.0-14.0-7.0,71693,List2B,white,man,,TRUE,3,,,,,
null,CORRECT,,html-keyboard-response,181,817185,0.0-14.0-8.0-0.0,71693,List2B,white,man,,,,null,,,,
2732,"<img src=""portrait/WW1.jpg""style=""width:400px;height:400px;""></img>",1,html-button-response,182,819917,0.0-14.0-10.0,71693,List2B,white,man,,TRUE,1,,,,,
null,CORRECT,,html-keyboard-response,183,821422,0.0-14.0-11.0-0.0,71693,List2B,white,man,,,,null,,,,
1970,"<img src=""portrait/WM2.jpg""style=""width:400px;height:400px;""></img>",7,html-button-response,184,823397,0.0-14.0-13.0,71693,List2B,white,man,,TRUE,7,,,,,
null,CORRECT,,html-keyboard-response,185,824904,0.0-14.0-14.0-0.0,71693,List2B,white,man,,,,null,,,,
1874,"<img src=""portrait/BM1.jpg""style=""width:400px;height:400px;""></img>",4,html-button-response,186,826781,0.0-14.0-16.0,71693,List2B,white,man,,TRUE,4,,,,,
null,CORRECT,,html-keyboard-response,187,828287,0.0-14.0-17.0-0.0,71693,List2B,white,man,,,,null,,,,
1772,"<img src=""portrait/BW1.jpg""style=""width:400px;height:400px;""></img>",0,html-button-response,188,830061,0.0-14.0-19.0,71693,List2B,white,man,,TRUE,0,,,,,
null,CORRECT,,html-keyboard-response,189,831569,0.0-14.0-20.0-0.0,71693,List2B,white,man,,,,null,,,,
1627,"<img src=""portrait/WM1.jpg""style=""width:400px;height:400px;""></img>",6,html-button-response,190,833197,0.0-14.0-22.0,71693,List2B,white,man,,TRUE,6,,,,,
null,CORRECT,,html-keyboard-response,191,834701,0.0-14.0-23.0-0.0,71693,List2B,white,man,,,,null,,,,
1279,<p>You got 8 out of 8 right first time. Press Continue.</p>,0,html-button-response,192,835981,0.0-14.0-25.0,71693,List2B,white,man,,,,,,,,
null,"<div style=""font-size:60px;"">+</div>",,html-keyboard-response,193,837487,0.0-15.0-0.0,71693,List2B,white,man,,,,null,,,,
null,"<img src=""stim_listB/shout5.gif""</stim_listB>",,html-keyboard-response,194,839492,0.0-15.0-1.0,71693,List2B,white,man,,,,null,,,,
null,is shouting at,,html-keyboard-response,195,841498,0.0-15.0-2.0,71693,List2B,white,man,,,,null,,,,
12976,,,survey-text,196,854476,0.0-15.0-3.0,71693,List2B,white,man,,,,,"{""Q0"":""fred is shouting at luke""}","<img src=""stim_listB/shout5.gif""</stim_listB>",is shouting at,
null,"<div style=""font-size:60px;"">+</div>",,html-keyboard-response,197,854979,0.0-15.0-0.1,71693,List2B,white,man,,,,null,,,,
null,"<img src=""stim_listB/talk7.gif""</stim_listB>",,html-keyboard-response,198,856982,0.0-15.0-1.1,71693,List2B,white,man,,,,null,,,,
null,is talking to,,html-keyboard-response,199,858983,0.0-15.0-2.1,71693,List2B,white,man,,,,null,,,,
6258,,,survey-text,200,865244,0.0-15.0-3.1,71693,List2B,white,man,,,,,"{""Q0"":""kate is talking to beth""}","<img src=""stim_listB/talk7.gif""</stim_listB>",is talking to,
null,"<div style=""font-size:60px;"">+</div>",,html-keyboard-response,201,865746,0.0-15.0-0.2,71693,List2B,white,man,,,,null,,,,
null,"<img src=""stim_listB/fight6.gif""</stim_listB>",,html-keyboard-response,202,867751,0.0-15.0-1.2,71693,List2B,white,man,,,,null,,,,
null,are fighting each other,,html-keyboard-response,203,869757,0.0-15.0-2.2,71693,List2B,white,man,,,,null,,,,
10357,,,survey-text,204,880115,0.0-15.0-3.2,71693,List2B,white,man,,,,,"{""Q0"":""fred and luke are fighting each other""}","<img src=""stim_listB/fight6.gif""</stim_listB>",are fighting each other,
null,"<div style=""font-size:60px;"">+</div>",,html-keyboard-response,205,880619,0.0-15.0-0.3,71693,List2B,white,man,,,,null,,,,
null,"<img src=""stim_listB/argue3.gif""</stim_listB>",,html-keyboard-response,206,882626,0.0-15.0-1.3,71693,List2B,white,man,,,,null,,,,
null,is arguing with,,html-keyboard-response,207,884629,0.0-15.0-2.3,71693,List2B,white,man,,,,null,,,,
5874,,,survey-text,208,890508,0.0-15.0-3.3,71693,List2B,white,man,,,,,"{""Q0"":""beth is arguing with mike""}","<img src=""stim_listB/argue3.gif""</stim_listB>",is arguing with,
null,"<div style=""font-size:60px;"">+</div>",,html-keyboard-response,209,891015,0.0-15.0-0.4,71693,List2B,white,man,,,,null,,,,
null,"<img src=""stim_listB/dance1.gif""</stim_listB>",,html-keyboard-response,210,893020,0.0-15.0-1.4,71693,List2B,white,man,,,,null,,,,
null,is dancing with,,html-keyboard-response,211,895026,0.0-15.0-2.4,71693,List2B,white,man,,,,null,,,,
5447,,,survey-text,212,900474,0.0-15.0-3.4,71693,List2B,white,man,,,,,"{""Q0"":""jane is dancing with luke""}","<img src=""stim_listB/dance1.gif""</stim_listB>",is dancing with,
null,"<div style=""font-size:60px;"">+</div>",,html-keyboard-response,213,900978,0.0-15.0-0.5,71693,List2B,white,man,,,,null,,,,
null,"<img src=""stim_listB/talk4.gif""</stim_listB>",,html-keyboard-response,214,902983,0.0-15.0-1.5,71693,List2B,white,man,,,,null,,,,
null,are talking to each other,,html-keyboard-response,215,904986,0.0-15.0-2.5,71693,List2B,white,man,,,,null,,,,
7855,,,survey-text,216,912842,0.0-15.0-3.5,71693,List2B,white,man,,,,,"{""Q0"":""mike and beth are talking to each other""}","<img src=""stim_listB/talk4.gif""</stim_listB>",are talking to each other,
null,"<div style=""font-size:60px;"">+</div>",,html-keyboard-response,217,913344,0.0-15.0-0.6,71693,List2B,white,man,,,,null,,,,
null,"<img src=""stim_listB/shout8.gif""</stim_listB>",,html-keyboard-response,218,915348,0.0-15.0-1.6,71693,List2B,white,man,,,,null,,,,
null,are shouting at each other,,html-keyboard-response,219,917351,0.0-15.0-2.6,71693,List2B,white,man,,,,null,,,,
7002,,,survey-text,220,924354,0.0-15.0-3.6,71693,List2B,white,man,,,,,"{""Q0"":""jane and kate are shouting at each other""}","<img src=""stim_listB/shout8.gif""</stim_listB>",are shouting at each other,
null,"<div style=""font-size:60px;"">+</div>",,html-keyboard-response,221,924856,0.0-15.0-0.7,71693,List2B,white,man,,,,null,,,,
null,"<img src=""stim_listB/kiss7.gif""</stim_listB>",,html-keyboard-response,222,926860,0.0-15.0-1.7,71693,List2B,white,man,,,,null,,,,
null,is kissing,,html-keyboard-response,223,928863,0.0-15.0-2.7,71693,List2B,white,man,,,,null,,,,
4370,,,survey-text,224,933234,0.0-15.0-3.7,71693,List2B,white,man,,,,,"{""Q0"":""beth is kissing ruth""}","<img src=""stim_listB/kiss7.gif""</stim_listB>",is kissing,
null,"<div style=""font-size:60px;"">+</div>",,html-keyboard-response,225,933737,0.0-15.0-0.8,71693,List2B,white,man,,,,null,,,,
null,"<img src=""stim_listB/marry8.gif""</stim_listB>",,html-keyboard-response,226,935740,0.0-15.0-1.8,71693,List2B,white,man,,,,null,,,,
null,are marrying each other,,html-keyboard-response,227,937745,0.0-15.0-2.8,71693,List2B,white,man,,,,null,,,,
6175,,,survey-text,228,943921,0.0-15.0-3.8,71693,List2B,white,man,,,,,"{""Q0"":""beth and kate are marrying each other""}","<img src=""stim_listB/marry8.gif""</stim_listB>",are marrying each other,
null,"<div style=""font-size:60px;"">+</div>",,html-keyboard-response,229,944425,0.0-15.0-0.9,71693,List2B,white,man,,,,null,,,,
null,"<img src=""stim_listB/marry4.gif""</stim_listB>",,html-keyboard-response,230,946429,0.0-15.0-1.9,71693,List2B,white,man,,,,null,,,,
null,are marrying each other,,html-keyboard-response,231,948434,0.0-15.0-2.9,71693,List2B,white,man,,,,null,,,,
8332,,,survey-text,232,956769,0.0-15.0-3.9,71693,List2B,white,man,,,,,"{""Q0"":""kate and fred are marrying each other""}","<img src=""stim_listB/marry4.gif""</stim_listB>",are marrying each other,
null,"<div style=""font-size:60px;"">+</div>",,html-keyboard-response,233,957276,0.0-15.0-0.10,71693,List2B,white,man,,,,null,,,,
null,"<img src=""stim_listB/dance6.gif""</stim_listB>",,html-keyboard-response,234,959282,0.0-15.0-1.10,71693,List2B,white,man,,,,null,,,,
null,are dancing with each other,,html-keyboard-response,235,961288,0.0-15.0-2.10,71693,List2B,white,man,,,,null,,,,
8175,,,survey-text,236,969464,0.0-15.0-3.10,71693,List2B,white,man,,,,,"{""Q0"":""dave and fred are dancing with each other""}","<img src=""stim_listB/dance6.gif""</stim_listB>",are dancing with each other,
null,"<div style=""font-size:60px;"">+</div>",,html-keyboard-response,237,969969,0.0-15.0-0.11,71693,List2B,white,man,,,,null,,,,
null,"<img src=""stim_listB/shout2.gif""</stim_listB>",,html-keyboard-response,238,971974,0.0-15.0-1.11,71693,List2B,white,man,,,,null,,,,
null,are shouting at each other,,html-keyboard-response,239,973979,0.0-15.0-2.11,71693,List2B,white,man,,,,null,,,,
7859,,,survey-text,240,981841,0.0-15.0-3.11,71693,List2B,white,man,,,,,"{""Q0"":""jane and dave are shouting at each other""}","<img src=""stim_listB/shout2.gif""</stim_listB>",are shouting at each other,
null,"<div style=""font-size:60px;"">+</div>",,html-keyboard-response,241,982347,0.0-15.0-0.12,71693,List2B,white,man,,,,null,,,,
null,"<img src=""stim_listB/marry5.gif""</stim_listB>",,html-keyboard-response,242,984351,0.0-15.0-1.12,71693,List2B,white,man,,,,null,,,,
null,is marrying,,html-keyboard-response,243,986358,0.0-15.0-2.12,71693,List2B,white,man,,,,null,,,,
4104,,,survey-text,244,990463,0.0-15.0-3.12,71693,List2B,white,man,,,,,"{""Q0"":""dave is marrying fred""}","<img src=""stim_listB/marry5.gif""</stim_listB>",is marrying,
null,"<div style=""font-size:60px;"">+</div>",,html-keyboard-response,245,990966,0.0-15.0-0.13,71693,List2B,white,man,,,,null,,,,
null,"<img src=""stim_listB/talk2.gif""</stim_listB>",,html-keyboard-response,246,992969,0.0-15.0-1.13,71693,List2B,white,man,,,,null,,,,
null,are talking to each other,,html-keyboard-response,247,994975,0.0-15.0-2.13,71693,List2B,white,man,,,,null,,,,
9151,,,survey-text,248,1004127,0.0-15.0-3.13,71693,List2B,white,man,,,,,"{""Q0"":""beth and dave are talking to each other""}","<img src=""stim_listB/talk2.gif""</stim_listB>",are talking to each other,
null,"<div style=""font-size:60px;"">+</div>",,html-keyboard-response,249,1004630,0.0-15.0-0.14,71693,List2B,white,man,,,,null,,,,
null,"<img src=""stim_listB/touch3.gif""</stim_listB>",,html-keyboard-response,250,1006632,0.0-15.0-1.14,71693,List2B,white,man,,,,null,,,,
null,is touching,,html-keyboard-response,251,1008635,0.0-15.0-2.14,71693,List2B,white,man,,,,null,,,,
4041,,,survey-text,252,1012679,0.0-15.0-3.14,71693,List2B,white,man,,,,,"{""Q0"":""mike is touching kate""}","<img src=""stim_listB/touch3.gif""</stim_listB>",is touching,
null,"<div style=""font-size:60px;"">+</div>",,html-keyboard-response,253,1013181,0.0-15.0-0.15,71693,List2B,white,man,,,,null,,,,
null,"<img src=""stim_listB/meet6.gif""</stim_listB>",,html-keyboard-response,254,1015187,0.0-15.0-1.15,71693,List2B,white,man,,,,null,,,,
null,are meeting each other,,html-keyboard-response,255,1017190,0.0-15.0-2.15,71693,List2B,white,man,,,,null,,,,
9071,,,survey-text,256,1026261,0.0-15.0-3.15,71693,List2B,white,man,,,,,"{""Q0"":""luke and fred are meeting each other""}","<img src=""stim_listB/meet6.gif""</stim_listB>",are meeting each other,
null,"<div style=""font-size:60px;"">+</div>",,html-keyboard-response,257,1026767,0.0-15.0-0.16,71693,List2B,white,man,,,,null,,,,
null,"<img src=""stim_listB/dance4.gif""</stim_listB>",,html-keyboard-response,258,1028772,0.0-15.0-1.16,71693,List2B,white,man,,,,null,,,,
null,are dancing with each other,,html-keyboard-response,259,1030776,0.0-15.0-2.16,71693,List2B,white,man,,,,null,,,,
6506,,,survey-text,260,1037283,0.0-15.0-3.16,71693,List2B,white,man,,,,,"{""Q0"":""beth and mike are dancing with each other""}","<img src=""stim_listB/dance4.gif""</stim_listB>",are dancing with each other,
null,"<div style=""font-size:60px;"">+</div>",,html-keyboard-response,261,1037786,0.0-15.0-0.17,71693,List2B,white,man,,,,null,,,,
null,"<img src=""stim_listB/kiss5.gif""</stim_listB>",,html-keyboard-response,262,1039788,0.0-15.0-1.17,71693,List2B,white,man,,,,null,,,,
null,is kissing,,html-keyboard-response,263,1041795,0.0-15.0-2.17,71693,List2B,white,man,,,,null,,,,
4652,,,survey-text,264,1046451,0.0-15.0-3.17,71693,List2B,white,man,,,,,"{""Q0"":""fred is kissing luke""}","<img src=""stim_listB/kiss5.gif""</stim_listB>",is kissing,
null,"<div style=""font-size:60px;"">+</div>",,html-keyboard-response,265,1046956,0.0-15.0-0.18,71693,List2B,white,man,,,,null,,,,
null,"<img src=""stim_listB/meet7.gif""</stim_listB>",,html-keyboard-response,266,1048964,0.0-15.0-1.18,71693,List2B,white,man,,,,null,,,,
null,is meeting,,html-keyboard-response,267,1050969,0.0-15.0-2.18,71693,List2B,white,man,,,,null,,,,
4016,,,survey-text,268,1054986,0.0-15.0-3.18,71693,List2B,white,man,,,,,"{""Q0"":""kate is meeting jane""}","<img src=""stim_listB/meet7.gif""</stim_listB>",is meeting,
null,"<div style=""font-size:60px;"">+</div>",,html-keyboard-response,269,1055493,0.0-15.0-0.19,71693,List2B,white,man,,,,null,,,,
null,"<img src=""stim_listB/meet3.gif""</stim_listB>",,html-keyboard-response,270,1057497,0.0-15.0-1.19,71693,List2B,white,man,,,,null,,,,
null,is meeting,,html-keyboard-response,271,1059501,0.0-15.0-2.19,71693,List2B,white,man,,,,null,,,,
3788,,,survey-text,272,1063290,0.0-15.0-3.19,71693,List2B,white,man,,,,,"{""Q0"":""kate is meeting mike""}","<img src=""stim_listB/meet3.gif""</stim_listB>",is meeting,
16925,"<img src='img/portrait_matrix_list2.JPG' style='width:900px;height:500px;''></img><p>If you have memorised all the portraits and names and are ready to start, press Continue.</p><p><strong>Please note: Your memory of these faces will be tested 4 times during this experiment.</strong></p>",0,html-button-response,273,1080216,0.0-16.0-0.0,71693,List2B,white,man,,,,,,,,
1677,"<img src=""portrait/WM1.jpg""style=""width:400px;height:400px;""></img>",6,html-button-response,274,1082897,0.0-16.0-1.0,71693,List2B,white,man,,TRUE,6,,,,,
null,CORRECT,,html-keyboard-response,275,1084403,0.0-16.0-2.0-0.0,71693,List2B,white,man,,,,null,,,,
1418,"<img src=""portrait/WW2.jpg""style=""width:400px;height:400px;""></img>",3,html-button-response,276,1085824,0.0-16.0-4.0,71693,List2B,white,man,,TRUE,3,,,,,
null,CORRECT,,html-keyboard-response,277,1087330,0.0-16.0-5.0-0.0,71693,List2B,white,man,,,,null,,,,
1516,"<img src=""portrait/WW1.jpg""style=""width:400px;height:400px;""></img>",0,html-button-response,278,1088849,0.0-16.0-7.0,71693,List2B,white,man,,TRUE,1,,,,,
1722,"<img src=""portrait/WW1.jpg""style=""width:400px;height:400px;""></img>",1,html-button-response,279,1091576,0.0-16.0-9.0-0.0,71693,List2B,white,man,,FALSE,1,,,,,
null,CORRECT,,html-keyboard-response,280,1093080,0.0-16.0-9.0-1.0-0.0,71693,List2B,white,man,,,,null,,,,
1133,"<img src=""portrait/BW1.jpg""style=""width:400px;height:400px;""></img>",0,html-button-response,281,1094216,0.0-16.0-10.0,71693,List2B,white,man,,TRUE,0,,,,,
null,CORRECT,,html-keyboard-response,282,1095718,0.0-16.0-11.0-0.0,71693,List2B,white,man,,,,null,,,,
1992,"<img src=""portrait/BM1.jpg""style=""width:400px;height:400px;""></img>",4,html-button-response,283,1097712,0.0-16.0-13.0,71693,List2B,white,man,,TRUE,4,,,,,
null,CORRECT,,html-keyboard-response,284,1099218,0.0-16.0-14.0-0.0,71693,List2B,white,man,,,,null,,,,
1710,"<img src=""portrait/BW2.jpg""style=""width:400px;height:400px;""></img>",2,html-button-response,285,1100928,0.0-16.0-16.0,71693,List2B,white,man,,TRUE,2,,,,,
null,CORRECT,,html-keyboard-response,286,1102434,0.0-16.0-17.0-0.0,71693,List2B,white,man,,,,null,,,,
2307,"<img src=""portrait/BM2.jpg""style=""width:400px;height:400px;""></img>",5,html-button-response,287,1104745,0.0-16.0-19.0,71693,List2B,white,man,,TRUE,5,,,,,
null,CORRECT,,html-keyboard-response,288,1106251,0.0-16.0-20.0-0.0,71693,List2B,white,man,,,,null,,,,
1593,"<img src=""portrait/WM2.jpg""style=""width:400px;height:400px;""></img>",7,html-button-response,289,1107848,0.0-16.0-22.0,71693,List2B,white,man,,TRUE,7,,,,,
null,CORRECT,,html-keyboard-response,290,1109356,0.0-16.0-23.0-0.0,71693,List2B,white,man,,,,null,,,,
1296,<p>You got 7 out of 8 right first time. Press Continue.</p>,0,html-button-response,291,1110655,0.0-16.0-25.0,71693,List2B,white,man,,,,,,,,
1130,"As you did not score 100%, the memory game will repeat. Press Continue.",0,html-button-response,292,1112791,0.0-16.0-26.0-0.0,71693,List2B,white,man,,,,,,,,
27821,"<img src='img/portrait_matrix_list2.JPG' style='width:900px;height:500px;''></img><p>If you have memorised all the portraits and names and are ready to start, press Continue.</p><p><strong>Please note: Your memory of these faces will be tested 4 times during this experiment.</strong></p>",0,html-button-response,293,1141615,0.0-16.1-0.1,71693,List2B,white,man,,,,,,,,
2194,"<img src=""portrait/WM1.jpg""style=""width:400px;height:400px;""></img>",6,html-button-response,294,1144814,0.0-16.1-1.1,71693,List2B,white,man,,TRUE,6,,,,,
null,CORRECT,,html-keyboard-response,295,1146317,0.0-16.1-2.1-0.1,71693,List2B,white,man,,,,null,,,,
1840,"<img src=""portrait/WW2.jpg""style=""width:400px;height:400px;""></img>",3,html-button-response,296,1148158,0.0-16.1-4.1,71693,List2B,white,man,,TRUE,3,,,,,
null,CORRECT,,html-keyboard-response,297,1149664,0.0-16.1-5.1-0.1,71693,List2B,white,man,,,,null,,,,
3475,"<img src=""portrait/WW1.jpg""style=""width:400px;height:400px;""></img>",0,html-button-response,298,1153143,0.0-16.1-7.1,71693,List2B,white,man,,TRUE,1,,,,,
1365,"<img src=""portrait/WW1.jpg""style=""width:400px;height:400px;""></img>",1,html-button-response,299,1155510,0.0-16.1-9.1-0.1,71693,List2B,white,man,,FALSE,1,,,,,
null,CORRECT,,html-keyboard-response,300,1157013,0.0-16.1-9.1-1.1-0.1,71693,List2B,white,man,,,,null,,,,
3750,"<img src=""portrait/BW1.jpg""style=""width:400px;height:400px;""></img>",1,html-button-response,301,1160766,0.0-16.1-10.1,71693,List2B,white,man,,TRUE,0,,,,,
1651,"<img src=""portrait/BW1.jpg""style=""width:400px;height:400px;""></img>",0,html-button-response,302,1163423,0.0-16.1-12.1-0.1,71693,List2B,white,man,,FALSE,0,,,,,
null,CORRECT,,html-keyboard-response,303,1164924,0.0-16.1-12.1-1.1-0.1,71693,List2B,white,man,,,,null,,,,
4566,"<img src=""portrait/BM1.jpg""style=""width:400px;height:400px;""></img>",4,html-button-response,304,1169493,0.0-16.1-13.1,71693,List2B,white,man,,TRUE,4,,,,,
null,CORRECT,,html-keyboard-response,305,1170997,0.0-16.1-14.1-0.1,71693,List2B,white,man,,,,null,,,,
1398,"<img src=""portrait/BW2.jpg""style=""width:400px;height:400px;""></img>",2,html-button-response,306,1172397,0.0-16.1-16.1,71693,List2B,white,man,,TRUE,2,,,,,
null,CORRECT,,html-keyboard-response,307,1173905,0.0-16.1-17.1-0.1,71693,List2B,white,man,,,,null,,,,
1688,"<img src=""portrait/BM2.jpg""style=""width:400px;height:400px;""></img>",5,html-button-response,308,1175598,0.0-16.1-19.1,71693,List2B,white,man,,TRUE,5,,,,,
null,CORRECT,,html-keyboard-response,309,1177105,0.0-16.1-20.1-0.1,71693,List2B,white,man,,,,null,,,,
1498,"<img src=""portrait/WM2.jpg""style=""width:400px;height:400px;""></img>",7,html-button-response,310,1178606,0.0-16.1-22.1,71693,List2B,white,man,,TRUE,7,,,,,
null,CORRECT,,html-keyboard-response,311,1180108,0.0-16.1-23.1-0.1,71693,List2B,white,man,,,,null,,,,
1231,<p>You got 6 out of 8 right first time. Press Continue.</p>,0,html-button-response,312,1181341,0.0-16.1-25.1,71693,List2B,white,man,,,,,,,,
845,"As you did not score 100%, the memory game will repeat. Press Continue.",0,html-button-response,313,1183189,0.0-16.1-26.1-0.1,71693,List2B,white,man,,,,,,,,
8979,"<img src='img/portrait_matrix_list2.JPG' style='width:900px;height:500px;''></img><p>If you have memorised all the portraits and names and are ready to start, press Continue.</p><p><strong>Please note: Your memory of these faces will be tested 4 times during this experiment.</strong></p>",0,html-button-response,314,1193173,0.0-16.2-0.2,71693,List2B,white,man,,,,,,,,
1574,"<img src=""portrait/WM1.jpg""style=""width:400px;height:400px;""></img>",6,html-button-response,315,1195748,0.0-16.2-1.2,71693,List2B,white,man,,TRUE,6,,,,,
null,CORRECT,,html-keyboard-response,316,1197256,0.0-16.2-2.2-0.2,71693,List2B,white,man,,,,null,,,,
1363,"<img src=""portrait/WW2.jpg""style=""width:400px;height:400px;""></img>",3,html-button-response,317,1198622,0.0-16.2-4.2,71693,List2B,white,man,,TRUE,3,,,,,
null,CORRECT,,html-keyboard-response,318,1200127,0.0-16.2-5.2-0.2,71693,List2B,white,man,,,,null,,,,
1651,"<img src=""portrait/WW1.jpg""style=""width:400px;height:400px;""></img>",1,html-button-response,319,1201780,0.0-16.2-7.2,71693,List2B,white,man,,TRUE,1,,,,,
null,CORRECT,,html-keyboard-response,320,1203284,0.0-16.2-8.2-0.2,71693,List2B,white,man,,,,null,,,,
1269,"<img src=""portrait/BW1.jpg""style=""width:400px;height:400px;""></img>",0,html-button-response,321,1204556,0.0-16.2-10.2,71693,List2B,white,man,,TRUE,0,,,,,
null,CORRECT,,html-keyboard-response,322,1206061,0.0-16.2-11.2-0.2,71693,List2B,white,man,,,,null,,,,
2092,"<img src=""portrait/BM1.jpg""style=""width:400px;height:400px;""></img>",4,html-button-response,323,1208156,0.0-16.2-13.2,71693,List2B,white,man,,TRUE,4,,,,,
null,CORRECT,,html-keyboard-response,324,1209663,0.0-16.2-14.2-0.2,71693,List2B,white,man,,,,null,,,,
2083,"<img src=""portrait/BW2.jpg""style=""width:400px;height:400px;""></img>",2,html-button-response,325,1211748,0.0-16.2-16.2,71693,List2B,white,man,,TRUE,2,,,,,
null,CORRECT,,html-keyboard-response,326,1213257,0.0-16.2-17.2-0.2,71693,List2B,white,man,,,,null,,,,
1841,"<img src=""portrait/BM2.jpg""style=""width:400px;height:400px;""></img>",5,html-button-response,327,1215100,0.0-16.2-19.2,71693,List2B,white,man,,TRUE,5,,,,,
null,CORRECT,,html-keyboard-response,328,1216602,0.0-16.2-20.2-0.2,71693,List2B,white,man,,,,null,,,,
1272,"<img src=""portrait/WM2.jpg""style=""width:400px;height:400px;""></img>",7,html-button-response,329,1217875,0.0-16.2-22.2,71693,List2B,white,man,,TRUE,7,,,,,
null,CORRECT,,html-keyboard-response,330,1219380,0.0-16.2-23.2-0.2,71693,List2B,white,man,,,,null,,,,
1238,<p>You got 8 out of 8 right first time. Press Continue.</p>,0,html-button-response,331,1220619,0.0-16.2-25.2,71693,List2B,white,man,,,,,,,,
null,"<div style=""font-size:60px;"">+</div>",,html-keyboard-response,332,1222124,0.0-17.0-0.0,71693,List2B,white,man,,,,null,,,,
null,"<img src=""stim_listB/kiss4.gif""</stim_listB>",,html-keyboard-response,333,1224131,0.0-17.0-1.0,71693,List2B,white,man,,,,null,,,,
null,are kissing each other,,html-keyboard-response,334,1226134,0.0-17.0-2.0,71693,List2B,white,man,,,,null,,,,
8060,,,survey-text,335,1234196,0.0-17.0-3.0,71693,List2B,white,man,,,,,"{""Q0"":""kate and mike are kissing each other""}","<img src=""stim_listB/kiss4.gif""</stim_listB>",are kissing each other,
null,"<div style=""font-size:60px;"">+</div>",,html-keyboard-response,336,1234701,0.0-17.0-0.1,71693,List2B,white,man,,,,null,,,,
null,"<img src=""stim_listB/hug3.gif""</stim_listB>",,html-keyboard-response,337,1236704,0.0-17.0-1.1,71693,List2B,white,man,,,,null,,,,
null,is hugging,,html-keyboard-response,338,1238709,0.0-17.0-2.1,71693,List2B,white,man,,,,null,,,,
4170,,,survey-text,339,1242883,0.0-17.0-3.1,71693,List2B,white,man,,,,,"{""Q0"":""beth is hugging fred""}","<img src=""stim_listB/hug3.gif""</stim_listB>",is hugging,
null,"<div style=""font-size:60px;"">+</div>",,html-keyboard-response,340,1243385,0.0-17.0-0.2,71693,List2B,white,man,,,,null,,,,
null,"<img src=""stim_listB/hug2.gif""</stim_listB>",,html-keyboard-response,341,1245393,0.0-17.0-1.2,71693,List2B,white,man,,,,null,,,,
null,are hugging each other,,html-keyboard-response,342,1247394,0.0-17.0-2.2,71693,List2B,white,man,,,,null,,,,
6286,,,survey-text,343,1253682,0.0-17.0-3.2,71693,List2B,white,man,,,,,"{""Q0"":""dave and jane are hugging each other""}","<img src=""stim_listB/hug2.gif""</stim_listB>",are hugging each other,
null,"<div style=""font-size:60px;"">+</div>",,html-keyboard-response,344,1254187,0.0-17.0-0.3,71693,List2B,white,man,,,,null,,,,
null,"<img src=""stim_listB/hug8.gif""</stim_listB>",,html-keyboard-response,345,1256191,0.0-17.0-1.3,71693,List2B,white,man,,,,null,,,,
null,are hugging each other,,html-keyboard-response,346,1258191,0.0-17.0-2.3,71693,List2B,white,man,,,,null,,,,
6266,,,survey-text,347,1264458,0.0-17.0-3.3,71693,List2B,white,man,,,,,"{""Q0"":""kate and jane are hugging each other""}","<img src=""stim_listB/hug8.gif""</stim_listB>",are hugging each other,
null,"<div style=""font-size:60px;"">+</div>",,html-keyboard-response,348,1264962,0.0-17.0-0.4,71693,List2B,white,man,,,,null,,,,
null,"<img src=""stim_listB/meet4.gif""</stim_listB>",,html-keyboard-response,349,1266968,0.0-17.0-1.4,71693,List2B,white,man,,,,null,,,,
null,are meeting each other,,html-keyboard-response,350,1268969,0.0-17.0-2.4,71693,List2B,white,man,,,,null,,,,
6648,,,survey-text,351,1275618,0.0-17.0-3.4,71693,List2B,white,man,,,,,"{""Q0"":""beth and fred are meeting each other""}","<img src=""stim_listB/meet4.gif""</stim_listB>",are meeting each other,
null,"<div style=""font-size:60px;"">+</div>",,html-keyboard-response,352,1276123,0.0-17.0-0.5,71693,List2B,white,man,,,,null,,,,
null,"<img src=""stim_listB/hug4.gif""</stim_listB>",,html-keyboard-response,353,1278130,0.0-17.0-1.5,71693,List2B,white,man,,,,null,,,,
null,are hugging each other,,html-keyboard-response,354,1280136,0.0-17.0-2.5,71693,List2B,white,man,,,,null,,,,
5825,,,survey-text,355,1285961,0.0-17.0-3.5,71693,List2B,white,man,,,,,"{""Q0"":""kate and mike are hugging each other""}","<img src=""stim_listB/hug4.gif""</stim_listB>",are hugging each other,
null,"<div style=""font-size:60px;"">+</div>",,html-keyboard-response,356,1286466,0.0-17.0-0.6,71693,List2B,white,man,,,,null,,,,
null,"<img src=""stim_listB/fight7.gif""</stim_listB>",,html-keyboard-response,357,1288468,0.0-17.0-1.6,71693,List2B,white,man,,,,null,,,,
null,is fighting,,html-keyboard-response,358,1290473,0.0-17.0-2.6,71693,List2B,white,man,,,,null,,,,
4519,,,survey-text,359,1294992,0.0-17.0-3.6,71693,List2B,white,man,,,,,"{""Q0"":""jane is fighting kate""}","<img src=""stim_listB/fight7.gif""</stim_listB>",is fighting,
null,"<div style=""font-size:60px;"">+</div>",,html-keyboard-response,360,1295496,0.0-17.0-0.7,71693,List2B,white,man,,,,null,,,,
null,"<img src=""stim_listB/argue1.gif""</stim_listB>",,html-keyboard-response,361,1297502,0.0-17.0-1.7,71693,List2B,white,man,,,,null,,,,
null,is arguing with,,html-keyboard-response,362,1299504,0.0-17.0-2.7,71693,List2B,white,man,,,,null,,,,
5046,,,survey-text,363,1304553,0.0-17.0-3.7,71693,List2B,white,man,,,,,"{""Q0"":""ruth is arguing with dave""}","<img src=""stim_listB/argue1.gif""</stim_listB>",is arguing with,
null,"<div style=""font-size:60px;"">+</div>",,html-keyboard-response,364,1305055,0.0-17.0-0.8,71693,List2B,white,man,,,,null,,,,
null,"<img src=""stim_listB/fight3.gif""</stim_listB>",,html-keyboard-response,365,1307062,0.0-17.0-1.8,71693,List2B,white,man,,,,null,,,,
null,is fighting,,html-keyboard-response,366,1309065,0.0-17.0-2.8,71693,List2B,white,man,,,,null,,,,
6078,,,survey-text,367,1315145,0.0-17.0-3.8,71693,List2B,white,man,,,,,"{""Q0"":""kate is fighting mike""}","<img src=""stim_listB/fight3.gif""</stim_listB>",is fighting,
null,"<div style=""font-size:60px;"">+</div>",,html-keyboard-response,368,1315647,0.0-17.0-0.9,71693,List2B,white,man,,,,null,,,,
null,"<img src=""stim_listB/kiss6.gif""</stim_listB>",,html-keyboard-response,369,1317653,0.0-17.0-1.9,71693,List2B,white,man,,,,null,,,,
null,are kissing each other,,html-keyboard-response,370,1319657,0.0-17.0-2.9,71693,List2B,white,man,,,,null,,,,
7142,,,survey-text,371,1326800,0.0-17.0-3.9,71693,List2B,white,man,,,,,"{""Q0"":""dave and mike are kissing each other""}","<img src=""stim_listB/kiss6.gif""</stim_listB>",are kissing each other,
null,"<div style=""font-size:60px;"">+</div>",,html-keyboard-response,372,1327304,0.0-17.0-0.10,71693,List2B,white,man,,,,null,,,,
null,"<img src=""stim_listB/touch7.gif""</stim_listB>",,html-keyboard-response,373,1329309,0.0-17.0-1.10,71693,List2B,white,man,,,,null,,,,
null,is touching,,html-keyboard-response,374,1331314,0.0-17.0-2.10,71693,List2B,white,man,,,,null,,,,
4101,,,survey-text,375,1335415,0.0-17.0-3.10,71693,List2B,white,man,,,,,"{""Q0"":""jane is touching kate""}","<img src=""stim_listB/touch7.gif""</stim_listB>",is touching,
null,"<div style=""font-size:60px;"">+</div>",,html-keyboard-response,376,1335920,0.0-17.0-0.11,71693,List2B,white,man,,,,null,,,,
null,"<img src=""stim_listB/dance2.gif""</stim_listB>",,html-keyboard-response,377,1337922,0.0-17.0-1.11,71693,List2B,white,man,,,,null,,,,
null,are dancing with each other,,html-keyboard-response,378,1339923,0.0-17.0-2.11,71693,List2B,white,man,,,,null,,,,
7771,,,survey-text,379,1347695,0.0-17.0-3.11,71693,List2B,white,man,,,,,"{""Q0"":""dave and ruth are dancing with each other""}","<img src=""stim_listB/dance2.gif""</stim_listB>",are dancing with each other,
null,"<div style=""font-size:60px;"">+</div>",,html-keyboard-response,380,1348195,0.0-17.0-0.12,71693,List2B,white,man,,,,null,,,,
null,"<img src=""stim_listB/talk3.gif""</stim_listB>",,html-keyboard-response,381,1350201,0.0-17.0-1.12,71693,List2B,white,man,,,,null,,,,
null,is talking to,,html-keyboard-response,382,1352205,0.0-17.0-2.12,71693,List2B,white,man,,,,null,,,,
4137,,,survey-text,383,1356343,0.0-17.0-3.12,71693,List2B,white,man,,,,,"{""Q0"":""fred is talking to kate""}","<img src=""stim_listB/talk3.gif""</stim_listB>",is talking to,
null,"<div style=""font-size:60px;"">+</div>",,html-keyboard-response,384,1356844,0.0-17.0-0.13,71693,List2B,white,man,,,,null,,,,
null,"<img src=""stim_listB/marry7.gif""</stim_listB>",,html-keyboard-response,385,1358846,0.0-17.0-1.13,71693,List2B,white,man,,,,null,,,,
null,is marrying,,html-keyboard-response,386,1360848,0.0-17.0-2.13,71693,List2B,white,man,,,,null,,,,
5214,,,survey-text,387,1366062,0.0-17.0-3.13,71693,List2B,white,man,,,,,"{""Q0"":""beth is marrying jane""}","<img src=""stim_listB/marry7.gif""</stim_listB>",is marrying,
null,"<div style=""font-size:60px;"">+</div>",,html-keyboard-response,388,1366563,0.0-17.0-0.14,71693,List2B,white,man,,,,null,,,,
null,"<img src=""stim_listB/argue2.gif""</stim_listB>",,html-keyboard-response,389,1368568,0.0-17.0-1.14,71693,List2B,white,man,,,,null,,,,
null,are arguing with each other,,html-keyboard-response,390,1370569,0.0-17.0-2.14,71693,List2B,white,man,,,,null,,,,
7373,,,survey-text,391,1377943,0.0-17.0-3.14,71693,List2B,white,man,,,,,"{""Q0"":""jane and luke are arguing with each other""}","<img src=""stim_listB/argue2.gif""</stim_listB>",are arguing with each other,
null,"<div style=""font-size:60px;"">+</div>",,html-keyboard-response,392,1378449,0.0-17.0-0.15,71693,List2B,white,man,,,,null,,,,
null,"<img src=""stim_listB/dance5.gif""</stim_listB>",,html-keyboard-response,393,1380457,0.0-17.0-1.15,71693,List2B,white,man,,,,null,,,,
null,is dancing with,,html-keyboard-response,394,1382462,0.0-17.0-2.15,71693,List2B,white,man,,,,null,,,,
4479,,,survey-text,395,1386942,0.0-17.0-3.15,71693,List2B,white,man,,,,,"{""Q0"":""mike is dancing with luke""}","<img src=""stim_listB/dance5.gif""</stim_listB>",is dancing with,
null,"<div style=""font-size:60px;"">+</div>",,html-keyboard-response,396,1387444,0.0-17.0-0.16,71693,List2B,white,man,,,,null,,,,
null,"<img src=""stim_listB/meet2.gif""</stim_listB>",,html-keyboard-response,397,1389447,0.0-17.0-1.16,71693,List2B,white,man,,,,null,,,,
null,are meeting each other,,html-keyboard-response,398,1391448,0.0-17.0-2.16,71693,List2B,white,man,,,,null,,,,
5868,,,survey-text,399,1397317,0.0-17.0-3.16,71693,List2B,white,man,,,,,"{""Q0"":""luke and beth are meeting each other""}","<img src=""stim_listB/meet2.gif""</stim_listB>",are meeting each other,
null,"<div style=""font-size:60px;"">+</div>",,html-keyboard-response,400,1397820,0.0-17.0-0.17,71693,List2B,white,man,,,,null,,,,
null,"<img src=""stim_listB/fight8.gif""</stim_listB>",,html-keyboard-response,401,1399825,0.0-17.0-1.17,71693,List2B,white,man,,,,null,,,,
null,are fighting each other,,html-keyboard-response,402,1401831,0.0-17.0-2.17,71693,List2B,white,man,,,,null,,,,
6092,,,survey-text,403,1407925,0.0-17.0-3.17,71693,List2B,white,man,,,,,"{""Q0"":""beth and ruth are fighting each other""}","<img src=""stim_listB/fight8.gif""</stim_listB>",are fighting each other,
null,"<div style=""font-size:60px;"">+</div>",,html-keyboard-response,404,1408429,0.0-17.0-0.18,71693,List2B,white,man,,,,null,,,,
null,"<img src=""stim_listB/touch1.gif""</stim_listB>",,html-keyboard-response,405,1410432,0.0-17.0-1.18,71693,List2B,white,man,,,,null,,,,
null,is touching,,html-keyboard-response,406,1412437,0.0-17.0-2.18,71693,List2B,white,man,,,,null,,,,
4326,,,survey-text,407,1416765,0.0-17.0-3.18,71693,List2B,white,man,,,,,"{""Q0"":""dave is touching jane""}","<img src=""stim_listB/touch1.gif""</stim_listB>",is touching,
null,"<div style=""font-size:60px;"">+</div>",,html-keyboard-response,408,1417265,0.0-17.0-0.19,71693,List2B,white,man,,,,null,,,,
null,"<img src=""stim_listB/marry2.gif""</stim_listB>",,html-keyboard-response,409,1419266,0.0-17.0-1.19,71693,List2B,white,man,,,,null,,,,
null,are marrying each other,,html-keyboard-response,410,1421268,0.0-17.0-2.19,71693,List2B,white,man,,,,null,,,,
5808,,,survey-text,411,1427076,0.0-17.0-3.19,71693,List2B,white,man,,,,,"{""Q0"":""jane and luke are marrying each other""}","<img src=""stim_listB/marry2.gif""</stim_listB>",are marrying each other,
8478,"<img src='img/portrait_matrix_list2.JPG' style='width:900px;height:500px;''></img><p>If you have memorised all the portraits and names and are ready to start, press Continue.</p><p><strong>Please note: Your memory of these faces will be tested 4 times during this experiment.</strong></p>",0,html-button-response,412,1435557,0.0-18.0-0.0,71693,List2B,white,man,,,,,,,,
2288,"<img src=""portrait/BW2.jpg""style=""width:400px;height:400px;""></img>",2,html-button-response,413,1438853,0.0-18.0-1.0,71693,List2B,white,man,,TRUE,2,,,,,
null,CORRECT,,html-keyboard-response,414,1440364,0.0-18.0-2.0-0.0,71693,List2B,white,man,,,,null,,,,
2253,"<img src=""portrait/WM2.jpg""style=""width:400px;height:400px;""></img>",7,html-button-response,415,1442620,0.0-18.0-4.0,71693,List2B,white,man,,TRUE,7,,,,,
null,CORRECT,,html-keyboard-response,416,1444125,0.0-18.0-5.0-0.0,71693,List2B,white,man,,,,null,,,,
1444,"<img src=""portrait/WW2.jpg""style=""width:400px;height:400px;""></img>",3,html-button-response,417,1445572,0.0-18.0-7.0,71693,List2B,white,man,,TRUE,3,,,,,
null,CORRECT,,html-keyboard-response,418,1447082,0.0-18.0-8.0-0.0,71693,List2B,white,man,,,,null,,,,
2544,"<img src=""portrait/WW1.jpg""style=""width:400px;height:400px;""></img>",1,html-button-response,419,1449628,0.0-18.0-10.0,71693,List2B,white,man,,TRUE,1,,,,,
null,CORRECT,,html-keyboard-response,420,1451130,0.0-18.0-11.0-0.0,71693,List2B,white,man,,,,null,,,,
1687,"<img src=""portrait/BM1.jpg""style=""width:400px;height:400px;""></img>",4,html-button-response,421,1452819,0.0-18.0-13.0,71693,List2B,white,man,,TRUE,4,,,,,
null,CORRECT,,html-keyboard-response,422,1454326,0.0-18.0-14.0-0.0,71693,List2B,white,man,,,,null,,,,
3267,"<img src=""portrait/BM2.jpg""style=""width:400px;height:400px;""></img>",5,html-button-response,423,1457595,0.0-18.0-16.0,71693,List2B,white,man,,TRUE,5,,,,,
null,CORRECT,,html-keyboard-response,424,1459101,0.0-18.0-17.0-0.0,71693,List2B,white,man,,,,null,,,,
1821,"<img src=""portrait/WM1.jpg""style=""width:400px;height:400px;""></img>",6,html-button-response,425,1460923,0.0-18.0-19.0,71693,List2B,white,man,,TRUE,6,,,,,
null,CORRECT,,html-keyboard-response,426,1462429,0.0-18.0-20.0-0.0,71693,List2B,white,man,,,,null,,,,
1611,"<img src=""portrait/BW1.jpg""style=""width:400px;height:400px;""></img>",0,html-button-response,427,1464042,0.0-18.0-22.0,71693,List2B,white,man,,TRUE,0,,,,,
null,CORRECT,,html-keyboard-response,428,1465547,0.0-18.0-23.0-0.0,71693,List2B,white,man,,,,null,,,,
1597,<p>You got 8 out of 8 right first time. Press Continue.</p>,0,html-button-response,429,1467147,0.0-18.0-25.0,71693,List2B,white,man,,,,,,,,
null,"<div style=""font-size:60px;"">+</div>",,html-keyboard-response,430,1468657,0.0-19.0-0.0,71693,List2B,white,man,,,,null,,,,
null,"<img src=""stim_listB/fight5.gif""</stim_listB>",,html-keyboard-response,431,1470662,0.0-19.0-1.0,71693,List2B,white,man,,,,null,,,,
null,is fighting,,html-keyboard-response,432,1472665,0.0-19.0-2.0,71693,List2B,white,man,,,,null,,,,
5799,,,survey-text,433,1478467,0.0-19.0-3.0,71693,List2B,white,man,,,,,"{""Q0"":""mike is fighting dave""}","<img src=""stim_listB/fight5.gif""</stim_listB>",is fighting,
null,"<div style=""font-size:60px;"">+</div>",,html-keyboard-response,434,1478970,0.0-19.0-0.1,71693,List2B,white,man,,,,null,,,,
null,"<img src=""stim_listB/marry3.gif""</stim_listB>",,html-keyboard-response,435,1480976,0.0-19.0-1.1,71693,List2B,white,man,,,,null,,,,
null,is marrying,,html-keyboard-response,436,1482982,0.0-19.0-2.1,71693,List2B,white,man,,,,null,,,,
4339,,,survey-text,437,1487322,0.0-19.0-3.1,71693,List2B,white,man,,,,,"{""Q0"":""beth is marrying mike""}","<img src=""stim_listB/marry3.gif""</stim_listB>",is marrying,
null,"<div style=""font-size:60px;"">+</div>",,html-keyboard-response,438,1487826,0.0-19.0-0.2,71693,List2B,white,man,,,,null,,,,
null,"<img src=""stim_listB/dance7.gif""</stim_listB>",,html-keyboard-response,439,1489830,0.0-19.0-1.2,71693,List2B,white,man,,,,null,,,,
null,is dancing with,,html-keyboard-response,440,1491831,0.0-19.0-2.2,71693,List2B,white,man,,,,null,,,,
5398,,,survey-text,441,1497234,0.0-19.0-3.2,71693,List2B,white,man,,,,,"{""Q0"":""kate is dancing with ruth""}","<img src=""stim_listB/dance7.gif""</stim_listB>",is dancing with,
null,"<div style=""font-size:60px;"">+</div>",,html-keyboard-response,442,1497738,0.0-19.0-0.3,71693,List2B,white,man,,,,null,,,,
null,"<img src=""stim_listB/talk1.gif""</stim_listB>",,html-keyboard-response,443,1499743,0.0-19.0-1.3,71693,List2B,white,man,,,,null,,,,
null,is talking to,,html-keyboard-response,444,1501751,0.0-19.0-2.3,71693,List2B,white,man,,,,null,,,,
5872,,,survey-text,445,1507626,0.0-19.0-3.3,71693,List2B,white,man,,,,,"{""Q0"":""jane is talking to luke""}","<img src=""stim_listB/talk1.gif""</stim_listB>",is talking to,
null,"<div style=""font-size:60px;"">+</div>",,html-keyboard-response,446,1508133,0.0-19.0-0.4,71693,List2B,white,man,,,,null,,,,
null,"<img src=""stim_listB/marry6.gif""</stim_listB>",,html-keyboard-response,447,1510139,0.0-19.0-1.4,71693,List2B,white,man,,,,null,,,,
null,are marrying each other,,html-keyboard-response,448,1512142,0.0-19.0-2.4,71693,List2B,white,man,,,,null,,,,
7872,,,survey-text,449,1520016,0.0-19.0-3.4,71693,List2B,white,man,,,,,"{""Q0"":""mike and luke are marrying each other""}","<img src=""stim_listB/marry6.gif""</stim_listB>",are marrying each other,
null,"<div style=""font-size:60px;"">+</div>",,html-keyboard-response,450,1520518,0.0-19.0-0.5,71693,List2B,white,man,,,,null,,,,
null,"<img src=""stim_listB/kiss2.gif""</stim_listB>",,html-keyboard-response,451,1522524,0.0-19.0-1.5,71693,List2B,white,man,,,,null,,,,
null,are kissing each other,,html-keyboard-response,452,1524527,0.0-19.0-2.5,71693,List2B,white,man,,,,null,,,,
5936,,,survey-text,453,1530464,0.0-19.0-3.5,71693,List2B,white,man,,,,,"{""Q0"":""dave and jane are kissing each other""}","<img src=""stim_listB/kiss2.gif""</stim_listB>",are kissing each other,
null,"<div style=""font-size:60px;"">+</div>",,html-keyboard-response,454,1530966,0.0-19.0-0.6,71693,List2B,white,man,,,,null,,,,
null,"<img src=""stim_listB/fight1.gif""</stim_listB>",,html-keyboard-response,455,1532972,0.0-19.0-1.6,71693,List2B,white,man,,,,null,,,,
null,is fighting,,html-keyboard-response,456,1534974,0.0-19.0-2.6,71693,List2B,white,man,,,,null,,,,
4233,,,survey-text,457,1539208,0.0-19.0-3.6,71693,List2B,white,man,,,,,"{""Q0"":""jane is fighting dave""}","<img src=""stim_listB/fight1.gif""</stim_listB>",is fighting,
null,"<div style=""font-size:60px;"">+</div>",,html-keyboard-response,458,1539712,0.0-19.0-0.7,71693,List2B,white,man,,,,null,,,,
null,"<img src=""stim_listB/touch2.gif""</stim_listB>",,html-keyboard-response,459,1541717,0.0-19.0-1.7,71693,List2B,white,man,,,,null,,,,
null,are touching each other,,html-keyboard-response,460,1543723,0.0-19.0-2.7,71693,List2B,white,man,,,,null,,,,
6981,,,survey-text,461,1550704,0.0-19.0-3.7,71693,List2B,white,man,,,,,"{""Q0"":""luke and ruth are touching each other""}","<img src=""stim_listB/touch2.gif""</stim_listB>",are touching each other,
null,"<div style=""font-size:60px;"">+</div>",,html-keyboard-response,462,1551205,0.0-19.0-0.8,71693,List2B,white,man,,,,null,,,,
null,"<img src=""stim_listB/touch4.gif""</stim_listB>",,html-keyboard-response,463,1553209,0.0-19.0-1.8,71693,List2B,white,man,,,,null,,,,
null,are touching each other,,html-keyboard-response,464,1555215,0.0-19.0-2.8,71693,List2B,white,man,,,,null,,,,
6847,,,survey-text,465,1562064,0.0-19.0-3.8,71693,List2B,white,man,,,,,"{""Q0"":""beth and fred are touching each other""}","<img src=""stim_listB/touch4.gif""</stim_listB>",are touching each other,
null,"<div style=""font-size:60px;"">+</div>",,html-keyboard-response,466,1562565,0.0-19.0-0.9,71693,List2B,white,man,,,,null,,,,
null,"<img src=""stim_listB/argue8.gif""</stim_listB>",,html-keyboard-response,467,1564571,0.0-19.0-1.9,71693,List2B,white,man,,,,null,,,,
null,are arguing with each other,,html-keyboard-response,468,1566575,0.0-19.0-2.9,71693,List2B,white,man,,,,null,,,,
7006,,,survey-text,469,1573583,0.0-19.0-3.9,71693,List2B,white,man,,,,,"{""Q0"":""kate and ruth are arguing with each other""}","<img src=""stim_listB/argue8.gif""</stim_listB>",are arguing with each other,
null,"<div style=""font-size:60px;"">+</div>",,html-keyboard-response,470,1574089,0.0-19.0-0.10,71693,List2B,white,man,,,,null,,,,
null,"<img src=""stim_listB/kiss1.gif""</stim_listB>",,html-keyboard-response,471,1576094,0.0-19.0-1.10,71693,List2B,white,man,,,,null,,,,
null,is kissing,,html-keyboard-response,472,1578096,0.0-19.0-2.10,71693,List2B,white,man,,,,null,,,,
6068,,,survey-text,473,1584166,0.0-19.0-3.10,71693,List2B,white,man,,,,,"{""Q0"":""luke is kissing ruth""}","<img src=""stim_listB/kiss1.gif""</stim_listB>",is kissing,
null,"<div style=""font-size:60px;"">+</div>",,html-keyboard-response,474,1584671,0.0-19.0-0.11,71693,List2B,white,man,,,,null,,,,
null,"<img src=""stim_listB/talk8.gif""</stim_listB>",,html-keyboard-response,475,1586677,0.0-19.0-1.11,71693,List2B,white,man,,,,null,,,,
null,are talking to each other,,html-keyboard-response,476,1588677,0.0-19.0-2.11,71693,List2B,white,man,,,,null,,,,
6032,,,survey-text,477,1594711,0.0-19.0-3.11,71693,List2B,white,man,,,,,"{""Q0"":""jane and beth are talking to each other""}","<img src=""stim_listB/talk8.gif""</stim_listB>",are talking to each other,
null,"<div style=""font-size:60px;"">+</div>",,html-keyboard-response,478,1595215,0.0-19.0-0.12,71693,List2B,white,man,,,,null,,,,
null,"<img src=""stim_listB/hug7.gif""</stim_listB>",,html-keyboard-response,479,1597220,0.0-19.0-1.12,71693,List2B,white,man,,,,null,,,,
null,is hugging,,html-keyboard-response,480,1599226,0.0-19.0-2.12,71693,List2B,white,man,,,,null,,,,
4299,,,survey-text,481,1603526,0.0-19.0-3.12,71693,List2B,white,man,,,,,"{""Q0"":""ruth is hugging beth""}","<img src=""stim_listB/hug7.gif""</stim_listB>",is hugging,
null,"<div style=""font-size:60px;"">+</div>",,html-keyboard-response,482,1604027,0.0-19.0-0.13,71693,List2B,white,man,,,,null,,,,
null,"<img src=""stim_listB/shout4.gif""</stim_listB>",,html-keyboard-response,483,1606031,0.0-19.0-1.13,71693,List2B,white,man,,,,null,,,,
null,are shouting at each other,,html-keyboard-response,484,1608036,0.0-19.0-2.13,71693,List2B,white,man,,,,null,,,,
8160,,,survey-text,485,1616197,0.0-19.0-3.13,71693,List2B,white,man,,,,,"{""Q0"":""kate and mike are shouting at each other""}","<img src=""stim_listB/shout4.gif""</stim_listB>",are shouting at each other,
null,"<div style=""font-size:60px;"">+</div>",,html-keyboard-response,486,1616699,0.0-19.0-0.14,71693,List2B,white,man,,,,null,,,,
null,"<img src=""stim_listB/talk6.gif""</stim_listB>",,html-keyboard-response,487,1618702,0.0-19.0-1.14,71693,List2B,white,man,,,,null,,,,
null,are talking to each other,,html-keyboard-response,488,1620706,0.0-19.0-2.14,71693,List2B,white,man,,,,null,,,,
7801,,,survey-text,489,1628508,0.0-19.0-3.14,71693,List2B,white,man,,,,,"{""Q0"":""dave and fred are talking to each other""}","<img src=""stim_listB/talk6.gif""</stim_listB>",are talking to each other,
null,"<div style=""font-size:60px;"">+</div>",,html-keyboard-response,490,1629011,0.0-19.0-0.15,71693,List2B,white,man,,,,null,,,,
null,"<img src=""stim_listB/hug5.gif""</stim_listB>",,html-keyboard-response,491,1631016,0.0-19.0-1.15,71693,List2B,white,man,,,,null,,,,
null,is hugging,,html-keyboard-response,492,1633023,0.0-19.0-2.15,71693,List2B,white,man,,,,null,,,,
5940,,,survey-text,493,1638964,0.0-19.0-3.15,71693,List2B,white,man,,,,,"{""Q0"":""luke is hugging fred""}","<img src=""stim_listB/hug5.gif""</stim_listB>",is hugging,
null,"<div style=""font-size:60px;"">+</div>",,html-keyboard-response,494,1639470,0.0-19.0-0.16,71693,List2B,white,man,,,,null,,,,
null,"<img src=""stim_listB/argue6.gif""</stim_listB>",,html-keyboard-response,495,1641471,0.0-19.0-1.16,71693,List2B,white,man,,,,null,,,,
null,are arguing with each other,,html-keyboard-response,496,1643476,0.0-19.0-2.16,71693,List2B,white,man,,,,null,,,,
9854,,,survey-text,497,1653332,0.0-19.0-3.16,71693,List2B,white,man,,,,,"{""Q0"":""luke and mike are arguing with each other""}","<img src=""stim_listB/argue6.gif""</stim_listB>",are arguing with each other,
null,"<div style=""font-size:60px;"">+</div>",,html-keyboard-response,498,1653834,0.0-19.0-0.17,71693,List2B,white,man,,,,null,,,,
null,"<img src=""stim_listB/shout6.gif""</stim_listB>",,html-keyboard-response,499,1655837,0.0-19.0-1.17,71693,List2B,white,man,,,,null,,,,
null,are shouting at each other,,html-keyboard-response,500,1657842,0.0-19.0-2.17,71693,List2B,white,man,,,,null,,,,
7367,,,survey-text,501,1665212,0.0-19.0-3.17,71693,List2B,white,man,,,,,"{""Q0"":""dave and mike are shouting at each other""}","<img src=""stim_listB/shout6.gif""</stim_listB>",are shouting at each other,
null,"<div style=""font-size:60px;"">+</div>",,html-keyboard-response,502,1665714,0.0-19.0-0.18,71693,List2B,white,man,,,,null,,,,
null,"<img src=""stim_listB/shout3.gif""</stim_listB>",,html-keyboard-response,503,1667719,0.0-19.0-1.18,71693,List2B,white,man,,,,null,,,,
null,is shouting at,,html-keyboard-response,504,1669722,0.0-19.0-2.18,71693,List2B,white,man,,,,null,,,,
6581,,,survey-text,505,1676308,0.0-19.0-3.18,71693,List2B,white,man,,,,,"{""Q0"":""beth is shouting at fred""}","<img src=""stim_listB/shout3.gif""</stim_listB>",is shouting at,
null,"<div style=""font-size:60px;"">+</div>",,html-keyboard-response,506,1676813,0.0-19.0-0.19,71693,List2B,white,man,,,,null,,,,
null,"<img src=""stim_listB/meet8.gif""</stim_listB>",,html-keyboard-response,507,1678819,0.0-19.0-1.19,71693,List2B,white,man,,,,null,,,,
null,are meeting each other,,html-keyboard-response,508,1680821,0.0-19.0-2.19,71693,List2B,white,man,,,,null,,,,
6108,,,survey-text,509,1686930,0.0-19.0-3.19,71693,List2B,white,man,,,,,"{""Q0"":""beth and ruth are meeting each other""}","<img src=""stim_listB/meet8.gif""</stim_listB>",are meeting each other,
2384,<p>Thank you for completing that task.</p><p>The final part of this session is a short questionnaire.</p><p>Press Continue.</p>,0,html-button-response,510,1689315,0.0-20.0,71693,List2B,white,man,,,,,,,,
21132,,,survey-text,511,1711451,0.0-21.0,71693,List2B,white,man,,,,,"{""Q0"":""40"",""Q1"":""English"",""Q2"":""English"",""Q3"":""United Kingdom"",""Q4"":""White"",""Q5"":""Male""}",,,demographics
43333,,,survey-likert,512,1754791,0.0-22.0,71693,List2B,white,man,,,,,"{""Q0"":3,""Q1"":3,""Q2"":3,""Q3"":5,""Q4"":3,""Q5"":5,""Q6"":3,""Q7"":2,""Q8"":"""",""Q9"":"""",""Q10"":2,""Q11"":2,""Q12"":3,""Q13"":3}",,,likert_race
65101,,,survey-likert,513,1819900,0.0-23.0,71693,List2B,white,man,,,,,"{""Q0"":4,""Q1"":2,""Q2"":2,""Q3"":4,""Q4"":3,""Q5"":4,""Q6"":3,""Q7"":4,""Q8"":2,""Q9"":1,""Q10"":2,""Q11"":2,""Q12"":5,""Q13"":4}",,,likert_gender
4944,,,survey-text,514,1824846,0.0-24.0,71693,List2B,white,man,,,,,"{""Q0"":""ccc""}",,,worker_id
26343,,,external-html,515,1851237,0.0-25.0,71693,List2B,white,man,debrief.html,,,,,,,
