rt,stimulus,button_pressed,trial_type,trial_index,time_elapsed,internal_node_id,subject,list,ppt_race,ppt_gender,url,first_guess,correct,key_press,responses,image_type,phrase_type,test_part
2065,Welcome to the experiment. Press Continue to begin.,0,html-button-response,0,2069,0.0-0.0,71769,List1B,black,woman,,,,,,,,
37942,,,external-html,1,41142,0.0-1.0,71769,List1B,black,woman,consent.html,,,,,,,
13602,"<p>On the next page, you will see portraits of 8 people and their names.</p><p>Your first task is to take a few minutes to memorise the names of these people.</p><p>You will have to recall their names during the rest of the experiment, so it is</p><p>essential that you try to memorise these people and their names as best as you can.</p><br><p><strong>You will then be tested on your memory of these names and portraits.</strong></p><br><p>The experiment will start after you have completed this memory test.</p><br><p>Ready?</p>",0,html-button-response,2,54747,0.0-2.0,71769,List1B,black,woman,,,,,,,,
28697,"<img src='img/portrait_matrix_list1.JPG' style='width:900px;height:500px;''></img><p>If you have memorised all the portraits and names and are ready to start, press Continue.</p><p><strong>Please note: Your memory of these faces will be tested 4 times during this experiment.</strong></p>",0,html-button-response,3,84456,0.0-3.0-0.0,71769,List1B,black,woman,,,,,,,,
7153,"<img src=""portrait/BM1.jpg""style=""width:400px;height:400px;""></img>",4,html-button-response,4,92610,0.0-3.0-1.0,71769,List1B,black,woman,,TRUE,4,,,,,
null,CORRECT,,html-keyboard-response,5,94146,0.0-3.0-2.0-0.0,71769,List1B,black,woman,,,,null,,,,
4198,"<img src=""portrait/WW1.jpg""style=""width:400px;height:400px;""></img>",1,html-button-response,6,98347,0.0-3.0-4.0,71769,List1B,black,woman,,TRUE,1,,,,,
null,CORRECT,,html-keyboard-response,7,99866,0.0-3.0-5.0-0.0,71769,List1B,black,woman,,,,null,,,,
2851,"<img src=""portrait/BM2.jpg""style=""width:400px;height:400px;""></img>",5,html-button-response,8,102719,0.0-3.0-7.0,71769,List1B,black,woman,,TRUE,5,,,,,
null,CORRECT,,html-keyboard-response,9,104246,0.0-3.0-8.0-0.0,71769,List1B,black,woman,,,,null,,,,
2966,"<img src=""portrait/WM1.jpg""style=""width:400px;height:400px;""></img>",6,html-button-response,10,107214,0.0-3.0-10.0,71769,List1B,black,woman,,TRUE,6,,,,,
null,CORRECT,,html-keyboard-response,11,108745,0.0-3.0-11.0-0.0,71769,List1B,black,woman,,,,null,,,,
3907,"<img src=""portrait/BW2.jpg""style=""width:400px;height:400px;""></img>",2,html-button-response,12,112654,0.0-3.0-13.0,71769,List1B,black,woman,,TRUE,2,,,,,
null,CORRECT,,html-keyboard-response,13,114186,0.0-3.0-14.0-0.0,71769,List1B,black,woman,,,,null,,,,
3013,"<img src=""portrait/WW2.jpg""style=""width:400px;height:400px;""></img>",3,html-button-response,14,117200,0.0-3.0-16.0,71769,List1B,black,woman,,TRUE,3,,,,,
null,CORRECT,,html-keyboard-response,15,118708,0.0-3.0-17.0-0.0,71769,List1B,black,woman,,,,null,,,,
4105,"<img src=""portrait/BW1.jpg""style=""width:400px;height:400px;""></img>",0,html-button-response,16,122813,0.0-3.0-19.0,71769,List1B,black,woman,,TRUE,0,,,,,
null,CORRECT,,html-keyboard-response,17,124326,0.0-3.0-20.0-0.0,71769,List1B,black,woman,,,,null,,,,
3936,"<img src=""portrait/WM2.jpg""style=""width:400px;height:400px;""></img>",7,html-button-response,18,128264,0.0-3.0-22.0,71769,List1B,black,woman,,TRUE,7,,,,,
null,CORRECT,,html-keyboard-response,19,129786,0.0-3.0-23.0-0.0,71769,List1B,black,woman,,,,null,,,,
2168,<p>You got 8 out of 8 right first time. Press Continue.</p>,0,html-button-response,20,131956,0.0-3.0-25.0,71769,List1B,black,woman,,,,,,,,
49154,"<p>In this experiment, you will view photographs of the people from the memory game interacting.</p><p>By using the <strong>exact</strong> phrase given <i>after</i> the photograph appears and recalling the correct names of the people in the photographs, form a sentence describing the interaction. You do not need to capitalise names.</p><p>Type your answer in the space provided. Please complete every sentence before moving onto the next trial.</p><p>You will only have a few seconds to memorise each given photograph and phrase before you can respond, so try your best to focus.</p><p>An example is given below. Press 'Continue' when you are ready.</p><img src='img/speaking_example_v2.jpg' style='width:800px;height:460px;''></img>",0,html-button-response,21,182123,0.0-4.0,71769,List1B,black,woman,,,,,,,,
2259,"<p>Before the experiment starts, you will watch two example trials. Press 'Continue'.</p>",0,html-button-response,22,185386,0.0-5.0,71769,List1B,black,woman,,,,,,,,
null,<img src='img/speaking_WW.gif'></img>,,html-keyboard-response,23,188416,0.0-6.0,71769,List1B,black,woman,,,,null,,,,
null,<p>is speaking to</p>,,html-keyboard-response,24,190436,0.0-7.0,71769,List1B,black,woman,,,,null,,,,
3370,<p><b>Answer:</b> kate is speaking to beth</p>,0,html-button-response,25,193806,0.0-8.0,71769,List1B,black,woman,,,,,,,,
null,<img src='img/pointing_BM.gif'></img>,,html-keyboard-response,26,196836,0.0-9.0,71769,List1B,black,woman,,,,null,,,,
null,<p>are pointing at each other</p>,,html-keyboard-response,27,198856,0.0-10.0,71769,List1B,black,woman,,,,null,,,,
1844,<p><b>Answer:</b> luke and dave are pointing at each other</p>,0,html-button-response,28,200701,0.0-11.0,71769,List1B,black,woman,,,,,,,,
11950,"<p>Ready to start the experiment?</p><br><p><strong>Remember to describe the picture using a full sentence,</strong></p><p><strong>that combines the names of the people with the given phrase.</strong></p><p><strong>If you do not do this correctly you will not be paid.</strong></p><p><strong> You do not need to capitalise names or use punctuation.</strong></p><br><p>Press 'Continue' to begin.</p>",0,html-button-response,29,213664,0.0-12.0,71769,List1B,black,woman,,,,,,,,
null,"<div style=""font-size:60px;"">+</div>",,html-keyboard-response,30,215196,0.0-13.0-0.0,71769,List1B,black,woman,,,,null,,,,
null,"<img src=""stim_listB/touch2.gif""</stim_listB>",,html-keyboard-response,31,217216,0.0-13.0-1.0,71769,List1B,black,woman,,,,null,,,,
null,are touching each other,,html-keyboard-response,32,219236,0.0-13.0-2.0,71769,List1B,black,woman,,,,null,,,,
18268,,,survey-text,33,237507,0.0-13.0-3.0,71769,List1B,black,woman,,,,,"{""Q0"":""beth and fred are touching each other""}","<img src=""stim_listB/touch2.gif""</stim_listB>",are touching each other,
null,"<div style=""font-size:60px;"">+</div>",,html-keyboard-response,34,238009,0.0-13.0-0.1,71769,List1B,black,woman,,,,null,,,,
null,"<img src=""stim_listB/argue3.gif""</stim_listB>",,html-keyboard-response,35,240026,0.0-13.0-1.1,71769,List1B,black,woman,,,,null,,,,
null,is arguing with,,html-keyboard-response,36,242046,0.0-13.0-2.1,71769,List1B,black,woman,,,,null,,,,
11033,,,survey-text,37,253081,0.0-13.0-3.1,71769,List1B,black,woman,,,,,"{""Q0"":""ruth is arguing with dave""}","<img src=""stim_listB/argue3.gif""</stim_listB>",is arguing with,
null,"<div style=""font-size:60px;"">+</div>",,html-keyboard-response,38,253590,0.0-13.0-0.2,71769,List1B,black,woman,,,,null,,,,
null,"<img src=""stim_listB/shout7.gif""</stim_listB>",,html-keyboard-response,39,255595,0.0-13.0-1.2,71769,List1B,black,woman,,,,null,,,,
null,is shouting at,,html-keyboard-response,40,257616,0.0-13.0-2.2,71769,List1B,black,woman,,,,null,,,,
14595,,,survey-text,41,272211,0.0-13.0-3.2,71769,List1B,black,woman,,,,,"{""Q0"":""beth is shouting at ruth""}","<img src=""stim_listB/shout7.gif""</stim_listB>",is shouting at,
null,"<div style=""font-size:60px;"">+</div>",,html-keyboard-response,42,272716,0.0-13.0-0.3,71769,List1B,black,woman,,,,null,,,,
null,"<img src=""stim_listB/kiss5.gif""</stim_listB>",,html-keyboard-response,43,274726,0.0-13.0-1.3,71769,List1B,black,woman,,,,null,,,,
null,is kissing,,html-keyboard-response,44,276746,0.0-13.0-2.3,71769,List1B,black,woman,,,,null,,,,
15295,,,survey-text,45,292043,0.0-13.0-3.3,71769,List1B,black,woman,,,,,"{""Q0"":""fred is kissing luke""}","<img src=""stim_listB/kiss5.gif""</stim_listB>",is kissing,
null,"<div style=""font-size:60px;"">+</div>",,html-keyboard-response,46,292546,0.0-13.0-0.4,71769,List1B,black,woman,,,,null,,,,
null,"<img src=""stim_listB/hug5.gif""</stim_listB>",,html-keyboard-response,47,294566,0.0-13.0-1.4,71769,List1B,black,woman,,,,null,,,,
null,is hugging,,html-keyboard-response,48,296586,0.0-13.0-2.4,71769,List1B,black,woman,,,,null,,,,
13365,,,survey-text,49,309953,0.0-13.0-3.4,71769,List1B,black,woman,,,,,"{""Q0"":""fred is hugging luke""}","<img src=""stim_listB/hug5.gif""</stim_listB>",is hugging,
null,"<div style=""font-size:60px;"">+</div>",,html-keyboard-response,50,310467,0.0-13.0-0.5,71769,List1B,black,woman,,,,null,,,,
null,"<img src=""stim_listB/argue5.gif""</stim_listB>",,html-keyboard-response,51,312486,0.0-13.0-1.5,71769,List1B,black,woman,,,,null,,,,
null,is arguing with,,html-keyboard-response,52,314495,0.0-13.0-2.5,71769,List1B,black,woman,,,,null,,,,
11552,,,survey-text,53,326048,0.0-13.0-3.5,71769,List1B,black,woman,,,,,"{""Q0"":""mike is arguing luke""}","<img src=""stim_listB/argue5.gif""</stim_listB>",is arguing with,
null,"<div style=""font-size:60px;"">+</div>",,html-keyboard-response,54,326566,0.0-13.0-0.6,71769,List1B,black,woman,,,,null,,,,
null,"<img src=""stim_listB/marry7.gif""</stim_listB>",,html-keyboard-response,55,328586,0.0-13.0-1.6,71769,List1B,black,woman,,,,null,,,,
null,is marrying,,html-keyboard-response,56,330606,0.0-13.0-2.6,71769,List1B,black,woman,,,,null,,,,
9556,,,survey-text,57,340164,0.0-13.0-3.6,71769,List1B,black,woman,,,,,"{""Q0"":""ruth is marrying kate""}","<img src=""stim_listB/marry7.gif""</stim_listB>",is marrying,
null,"<div style=""font-size:60px;"">+</div>",,html-keyboard-response,58,340686,0.0-13.0-0.7,71769,List1B,black,woman,,,,null,,,,
null,"<img src=""stim_listB/shout2.gif""</stim_listB>",,html-keyboard-response,59,342706,0.0-13.0-1.7,71769,List1B,black,woman,,,,null,,,,
null,are shouting at each other,,html-keyboard-response,60,344712,0.0-13.0-2.7,71769,List1B,black,woman,,,,null,,,,
13577,,,survey-text,61,358290,0.0-13.0-3.7,71769,List1B,black,woman,,,,,"{""Q0"":""mike and kate are shouting at each other""}","<img src=""stim_listB/shout2.gif""</stim_listB>",are shouting at each other,
null,"<div style=""font-size:60px;"">+</div>",,html-keyboard-response,62,358796,0.0-13.0-0.8,71769,List1B,black,woman,,,,null,,,,
null,"<img src=""stim_listB/meet6.gif""</stim_listB>",,html-keyboard-response,63,360816,0.0-13.0-1.8,71769,List1B,black,woman,,,,null,,,,
null,are meeting each other,,html-keyboard-response,64,362827,0.0-13.0-2.8,71769,List1B,black,woman,,,,null,,,,
18341,,,survey-text,65,381170,0.0-13.0-3.8,71769,List1B,black,woman,,,,,"{""Q0"":""luke and fred are meeting each other""}","<img src=""stim_listB/meet6.gif""</stim_listB>",are meeting each other,
null,"<div style=""font-size:60px;"">+</div>",,html-keyboard-response,66,381676,0.0-13.0-0.9,71769,List1B,black,woman,,,,null,,,,
null,"<img src=""stim_listB/fight1.gif""</stim_listB>",,html-keyboard-response,67,383696,0.0-13.0-1.9,71769,List1B,black,woman,,,,null,,,,
null,is fighting,,html-keyboard-response,68,385715,0.0-13.0-2.9,71769,List1B,black,woman,,,,null,,,,
14015,,,survey-text,69,399732,0.0-13.0-3.9,71769,List1B,black,woman,,,,,"{""Q0"":""kate is fighting mike""}","<img src=""stim_listB/fight1.gif""</stim_listB>",is fighting,
null,"<div style=""font-size:60px;"">+</div>",,html-keyboard-response,70,400246,0.0-13.0-0.10,71769,List1B,black,woman,,,,null,,,,
null,"<img src=""stim_listB/fight4.gif""</stim_listB>",,html-keyboard-response,71,402265,0.0-13.0-1.10,71769,List1B,black,woman,,,,null,,,,
null,are fighting each other,,html-keyboard-response,72,404266,0.0-13.0-2.10,71769,List1B,black,woman,,,,null,,,,
20367,,,survey-text,73,424635,0.0-13.0-3.10,71769,List1B,black,woman,,,,,"{""Q0"":""ruth and luke are fighting each other""}","<img src=""stim_listB/fight4.gif""</stim_listB>",are fighting each other,
null,"<div style=""font-size:60px;"">+</div>",,html-keyboard-response,74,425156,0.0-13.0-0.11,71769,List1B,black,woman,,,,null,,,,
null,"<img src=""stim_listB/touch6.gif""</stim_listB>",,html-keyboard-response,75,427167,0.0-13.0-1.11,71769,List1B,black,woman,,,,null,,,,
null,are touching each other,,html-keyboard-response,76,429177,0.0-13.0-2.11,71769,List1B,black,woman,,,,null,,,,
10001,,,survey-text,77,439180,0.0-13.0-3.11,71769,List1B,black,woman,,,,,"{""Q0"":""luke and fred are touching each other""}","<img src=""stim_listB/touch6.gif""</stim_listB>",are touching each other,
null,"<div style=""font-size:60px;"">+</div>",,html-keyboard-response,78,439697,0.0-13.0-0.12,71769,List1B,black,woman,,,,null,,,,
null,"<img src=""stim_listB/meet7.gif""</stim_listB>",,html-keyboard-response,79,441716,0.0-13.0-1.12,71769,List1B,black,woman,,,,null,,,,
null,is meeting,,html-keyboard-response,80,443735,0.0-13.0-2.12,71769,List1B,black,woman,,,,null,,,,
7176,,,survey-text,81,450912,0.0-13.0-3.12,71769,List1B,black,woman,,,,,"{""Q0"":""jane is meeting kate""}","<img src=""stim_listB/meet7.gif""</stim_listB>",is meeting,
null,"<div style=""font-size:60px;"">+</div>",,html-keyboard-response,82,451416,0.0-13.0-0.13,71769,List1B,black,woman,,,,null,,,,
null,"<img src=""stim_listB/shout6.gif""</stim_listB>",,html-keyboard-response,83,453437,0.0-13.0-1.13,71769,List1B,black,woman,,,,null,,,,
null,are shouting at each other,,html-keyboard-response,84,455448,0.0-13.0-2.13,71769,List1B,black,woman,,,,null,,,,
11810,,,survey-text,85,467259,0.0-13.0-3.13,71769,List1B,black,woman,,,,,"{""Q0"":""dave and mike are shouting at each other""}","<img src=""stim_listB/shout6.gif""</stim_listB>",are shouting at each other,
null,"<div style=""font-size:60px;"">+</div>",,html-keyboard-response,86,467776,0.0-13.0-0.14,71769,List1B,black,woman,,,,null,,,,
null,"<img src=""stim_listB/dance3.gif""</stim_listB>",,html-keyboard-response,87,469797,0.0-13.0-1.14,71769,List1B,black,woman,,,,null,,,,
null,is dancing with,,html-keyboard-response,88,471816,0.0-13.0-2.14,71769,List1B,black,woman,,,,null,,,,
9911,,,survey-text,89,481729,0.0-13.0-3.14,71769,List1B,black,woman,,,,,"{""Q0"":""luke is dancing with jane""}","<img src=""stim_listB/dance3.gif""</stim_listB>",is dancing with,
null,"<div style=""font-size:60px;"">+</div>",,html-keyboard-response,90,482236,0.0-13.0-0.15,71769,List1B,black,woman,,,,null,,,,
null,"<img src=""stim_listB/touch1.gif""</stim_listB>",,html-keyboard-response,91,484256,0.0-13.0-1.15,71769,List1B,black,woman,,,,null,,,,
null,is touching,,html-keyboard-response,92,486260,0.0-13.0-2.15,71769,List1B,black,woman,,,,null,,,,
7461,,,survey-text,93,493723,0.0-13.0-3.15,71769,List1B,black,woman,,,,,"{""Q0"":""kate is touching mike""}","<img src=""stim_listB/touch1.gif""</stim_listB>",is touching,
null,"<div style=""font-size:60px;"">+</div>",,html-keyboard-response,94,494236,0.0-13.0-0.16,71769,List1B,black,woman,,,,null,,,,
null,"<img src=""stim_listB/talk8.gif""</stim_listB>",,html-keyboard-response,95,496246,0.0-13.0-1.16,71769,List1B,black,woman,,,,null,,,,
null,are talking to each other,,html-keyboard-response,96,498267,0.0-13.0-2.16,71769,List1B,black,woman,,,,null,,,,
13463,,,survey-text,97,511731,0.0-13.0-3.16,71769,List1B,black,woman,,,,,"{""Q0"":""ruth and kate are talking to each other""}","<img src=""stim_listB/talk8.gif""</stim_listB>",are talking to each other,
null,"<div style=""font-size:60px;"">+</div>",,html-keyboard-response,98,512247,0.0-13.0-0.17,71769,List1B,black,woman,,,,null,,,,
null,"<img src=""stim_listB/hug1.gif""</stim_listB>",,html-keyboard-response,99,514266,0.0-13.0-1.17,71769,List1B,black,woman,,,,null,,,,
null,is hugging,,html-keyboard-response,100,516266,0.0-13.0-2.17,71769,List1B,black,woman,,,,null,,,,
11956,,,survey-text,101,528224,0.0-13.0-3.17,71769,List1B,black,woman,,,,,"{""Q0"":""mike is hugging beth""}","<img src=""stim_listB/hug1.gif""</stim_listB>",is hugging,
null,"<div style=""font-size:60px;"">+</div>",,html-keyboard-response,102,528736,0.0-13.0-0.18,71769,List1B,black,woman,,,,null,,,,
null,"<img src=""stim_listB/fight5.gif""</stim_listB>",,html-keyboard-response,103,530756,0.0-13.0-1.18,71769,List1B,black,woman,,,,null,,,,
null,is fighting,,html-keyboard-response,104,532776,0.0-13.0-2.18,71769,List1B,black,woman,,,,null,,,,
10742,,,survey-text,105,543520,0.0-13.0-3.18,71769,List1B,black,woman,,,,,"{""Q0"":""mike is fighting dave""}","<img src=""stim_listB/fight5.gif""</stim_listB>",is fighting,
null,"<div style=""font-size:60px;"">+</div>",,html-keyboard-response,106,544027,0.0-13.0-0.19,71769,List1B,black,woman,,,,null,,,,
null,"<img src=""stim_listB/touch5.gif""</stim_listB>",,html-keyboard-response,107,546046,0.0-13.0-1.19,71769,List1B,black,woman,,,,null,,,,
null,is touching,,html-keyboard-response,108,548066,0.0-13.0-2.19,71769,List1B,black,woman,,,,null,,,,
9888,,,survey-text,109,557955,0.0-13.0-3.19,71769,List1B,black,woman,,,,,"{""Q0"":""mike is touching dave""}","<img src=""stim_listB/touch5.gif""</stim_listB>",is touching,
8882,"<img src='img/portrait_matrix_list1.JPG' style='width:900px;height:500px;''></img><p>If you have memorised all the portraits and names and are ready to start, press Continue.</p><p><strong>Please note: Your memory of these faces will be tested 4 times during this experiment.</strong></p>",0,html-button-response,110,566839,0.0-14.0-0.0,71769,List1B,black,woman,,,,,,,,
2355,"<img src=""portrait/BM1.jpg""style=""width:400px;height:400px;""></img>",4,html-button-response,111,570215,0.0-14.0-1.0,71769,List1B,black,woman,,TRUE,4,,,,,
null,CORRECT,,html-keyboard-response,112,571736,0.0-14.0-2.0-0.0,71769,List1B,black,woman,,,,null,,,,
2473,"<img src=""portrait/WM1.jpg""style=""width:400px;height:400px;""></img>",6,html-button-response,113,574210,0.0-14.0-4.0,71769,List1B,black,woman,,TRUE,6,,,,,
null,CORRECT,,html-keyboard-response,114,575736,0.0-14.0-5.0-0.0,71769,List1B,black,woman,,,,null,,,,
5121,"<img src=""portrait/BW2.jpg""style=""width:400px;height:400px;""></img>",2,html-button-response,115,580858,0.0-14.0-7.0,71769,List1B,black,woman,,TRUE,2,,,,,
null,CORRECT,,html-keyboard-response,116,582396,0.0-14.0-8.0-0.0,71769,List1B,black,woman,,,,null,,,,
3005,"<img src=""portrait/BW1.jpg""style=""width:400px;height:400px;""></img>",0,html-button-response,117,585403,0.0-14.0-10.0,71769,List1B,black,woman,,TRUE,0,,,,,
null,CORRECT,,html-keyboard-response,118,586936,0.0-14.0-11.0-0.0,71769,List1B,black,woman,,,,null,,,,
3345,"<img src=""portrait/BM2.jpg""style=""width:400px;height:400px;""></img>",5,html-button-response,119,590283,0.0-14.0-13.0,71769,List1B,black,woman,,TRUE,5,,,,,
null,CORRECT,,html-keyboard-response,120,591813,0.0-14.0-14.0-0.0,71769,List1B,black,woman,,,,null,,,,
2677,"<img src=""portrait/WM2.jpg""style=""width:400px;height:400px;""></img>",7,html-button-response,121,594492,0.0-14.0-16.0,71769,List1B,black,woman,,TRUE,7,,,,,
null,CORRECT,,html-keyboard-response,122,596013,0.0-14.0-17.0-0.0,71769,List1B,black,woman,,,,null,,,,
1529,"<img src=""portrait/WW1.jpg""style=""width:400px;height:400px;""></img>",1,html-button-response,123,597542,0.0-14.0-19.0,71769,List1B,black,woman,,TRUE,1,,,,,
null,CORRECT,,html-keyboard-response,124,599057,0.0-14.0-20.0-0.0,71769,List1B,black,woman,,,,null,,,,
2460,"<img src=""portrait/WW2.jpg""style=""width:400px;height:400px;""></img>",3,html-button-response,125,601518,0.0-14.0-22.0,71769,List1B,black,woman,,TRUE,3,,,,,
null,CORRECT,,html-keyboard-response,126,603047,0.0-14.0-23.0-0.0,71769,List1B,black,woman,,,,null,,,,
1560,<p>You got 8 out of 8 right first time. Press Continue.</p>,0,html-button-response,127,604608,0.0-14.0-25.0,71769,List1B,black,woman,,,,,,,,
null,"<div style=""font-size:60px;"">+</div>",,html-keyboard-response,128,606147,0.0-15.0-0.0,71769,List1B,black,woman,,,,null,,,,
null,"<img src=""stim_listB/hug6.gif""</stim_listB>",,html-keyboard-response,129,608166,0.0-15.0-1.0,71769,List1B,black,woman,,,,null,,,,
null,are hugging each other,,html-keyboard-response,130,610187,0.0-15.0-2.0,71769,List1B,black,woman,,,,null,,,,
9530,,,survey-text,131,619719,0.0-15.0-3.0,71769,List1B,black,woman,,,,,"{""Q0"":""mike and dave are hugging each other""}","<img src=""stim_listB/hug6.gif""</stim_listB>",are hugging each other,
null,"<div style=""font-size:60px;"">+</div>",,html-keyboard-response,132,620236,0.0-15.0-0.1,71769,List1B,black,woman,,,,null,,,,
null,"<img src=""stim_listB/meet2.gif""</stim_listB>",,html-keyboard-response,133,622247,0.0-15.0-1.1,71769,List1B,black,woman,,,,null,,,,
null,are meeting each other,,html-keyboard-response,134,624266,0.0-15.0-2.1,71769,List1B,black,woman,,,,null,,,,
9216,,,survey-text,135,633484,0.0-15.0-3.1,71769,List1B,black,woman,,,,,"{""Q0"":""fred and beth are meeting each other""}","<img src=""stim_listB/meet2.gif""</stim_listB>",are meeting each other,
null,"<div style=""font-size:60px;"">+</div>",,html-keyboard-response,136,633987,0.0-15.0-0.2,71769,List1B,black,woman,,,,null,,,,
null,"<img src=""stim_listB/touch4.gif""</stim_listB>",,html-keyboard-response,137,635991,0.0-15.0-1.2,71769,List1B,black,woman,,,,null,,,,
null,are touching each other,,html-keyboard-response,138,638007,0.0-15.0-2.2,71769,List1B,black,woman,,,,null,,,,
10847,,,survey-text,139,648855,0.0-15.0-3.2,71769,List1B,black,woman,,,,,"{""Q0"":""ruth and luke are touching each other""}","<img src=""stim_listB/touch4.gif""</stim_listB>",are touching each other,
null,"<div style=""font-size:60px;"">+</div>",,html-keyboard-response,140,649356,0.0-15.0-0.3,71769,List1B,black,woman,,,,null,,,,
null,"<img src=""stim_listB/kiss8.gif""</stim_listB>",,html-keyboard-response,141,651376,0.0-15.0-1.3,71769,List1B,black,woman,,,,null,,,,
null,are kissing each other,,html-keyboard-response,142,653377,0.0-15.0-2.3,71769,List1B,black,woman,,,,null,,,,
9090,,,survey-text,143,662468,0.0-15.0-3.3,71769,List1B,black,woman,,,,,"{""Q0"":""jane and kate are kissing each other""}","<img src=""stim_listB/kiss8.gif""</stim_listB>",are kissing each other,
null,"<div style=""font-size:60px;"">+</div>",,html-keyboard-response,144,662986,0.0-15.0-0.4,71769,List1B,black,woman,,,,null,,,,
null,"<img src=""stim_listB/marry4.gif""</stim_listB>",,html-keyboard-response,145,665006,0.0-15.0-1.4,71769,List1B,black,woman,,,,null,,,,
null,are marrying each other,,html-keyboard-response,146,667027,0.0-15.0-2.4,71769,List1B,black,woman,,,,null,,,,
12595,,,survey-text,147,679623,0.0-15.0-3.4,71769,List1B,black,woman,,,,,"{""Q0"":""luke and jane are marrying each other""}","<img src=""stim_listB/marry4.gif""</stim_listB>",are marrying each other,
null,"<div style=""font-size:60px;"">+</div>",,html-keyboard-response,148,680126,0.0-15.0-0.5,71769,List1B,black,woman,,,,null,,,,
null,"<img src=""stim_listB/argue6.gif""</stim_listB>",,html-keyboard-response,149,682146,0.0-15.0-1.5,71769,List1B,black,woman,,,,null,,,,
null,are arguing with each other,,html-keyboard-response,150,684167,0.0-15.0-2.5,71769,List1B,black,woman,,,,null,,,,
10888,,,survey-text,151,695056,0.0-15.0-3.5,71769,List1B,black,woman,,,,,"{""Q0"":""fred and dave are arguing with each other""}","<img src=""stim_listB/argue6.gif""</stim_listB>",are arguing with each other,
null,"<div style=""font-size:60px;"">+</div>",,html-keyboard-response,152,695566,0.0-15.0-0.6,71769,List1B,black,woman,,,,null,,,,
null,"<img src=""stim_listB/marry5.gif""</stim_listB>",,html-keyboard-response,153,697586,0.0-15.0-1.6,71769,List1B,black,woman,,,,null,,,,
null,is marrying,,html-keyboard-response,154,699606,0.0-15.0-2.6,71769,List1B,black,woman,,,,null,,,,
11906,,,survey-text,155,711513,0.0-15.0-3.6,71769,List1B,black,woman,,,,,"{""Q0"":""luke is marrying mike""}","<img src=""stim_listB/marry5.gif""</stim_listB>",is marrying,
null,"<div style=""font-size:60px;"">+</div>",,html-keyboard-response,156,712017,0.0-15.0-0.7,71769,List1B,black,woman,,,,null,,,,
null,"<img src=""stim_listB/shout3.gif""</stim_listB>",,html-keyboard-response,157,714036,0.0-15.0-1.7,71769,List1B,black,woman,,,,null,,,,
null,is shouting at,,html-keyboard-response,158,716047,0.0-15.0-2.7,71769,List1B,black,woman,,,,null,,,,
9820,,,survey-text,159,725868,0.0-15.0-3.7,71769,List1B,black,woman,,,,,"{""Q0"":""ruth is shouting at luke""}","<img src=""stim_listB/shout3.gif""</stim_listB>",is shouting at,
null,"<div style=""font-size:60px;"">+</div>",,html-keyboard-response,160,726377,0.0-15.0-0.8,71769,List1B,black,woman,,,,null,,,,
null,"<img src=""stim_listB/argue2.gif""</stim_listB>",,html-keyboard-response,161,728397,0.0-15.0-1.8,71769,List1B,black,woman,,,,null,,,,
null,are arguing with each other,,html-keyboard-response,162,730412,0.0-15.0-2.8,71769,List1B,black,woman,,,,null,,,,
13021,,,survey-text,163,743436,0.0-15.0-3.8,71769,List1B,black,woman,,,,,"{""Q0"":""kate and fred are arguing with each other""}","<img src=""stim_listB/argue2.gif""</stim_listB>",are arguing with each other,
null,"<div style=""font-size:60px;"">+</div>",,html-keyboard-response,164,743957,0.0-15.0-0.9,71769,List1B,black,woman,,,,null,,,,
null,"<img src=""stim_listB/shout8.gif""</stim_listB>",,html-keyboard-response,165,745977,0.0-15.0-1.9,71769,List1B,black,woman,,,,null,,,,
null,are shouting at each other,,html-keyboard-response,166,747996,0.0-15.0-2.9,71769,List1B,black,woman,,,,null,,,,
8430,,,survey-text,167,756427,0.0-15.0-3.9,71769,List1B,black,woman,,,,,"{""Q0"":""kate and jane are shouting at each other""}","<img src=""stim_listB/shout8.gif""</stim_listB>",are shouting at each other,
null,"<div style=""font-size:60px;"">+</div>",,html-keyboard-response,168,756936,0.0-15.0-0.10,71769,List1B,black,woman,,,,null,,,,
null,"<img src=""stim_listB/hug4.gif""</stim_listB>",,html-keyboard-response,169,758956,0.0-15.0-1.10,71769,List1B,black,woman,,,,null,,,,
null,are hugging each other,,html-keyboard-response,170,760959,0.0-15.0-2.10,71769,List1B,black,woman,,,,null,,,,
11696,,,survey-text,171,772655,0.0-15.0-3.10,71769,List1B,black,woman,,,,,"{""Q0"":""dave and jane are hugging each other""}","<img src=""stim_listB/hug4.gif""</stim_listB>",are hugging each other,
null,"<div style=""font-size:60px;"">+</div>",,html-keyboard-response,172,773167,0.0-15.0-0.11,71769,List1B,black,woman,,,,null,,,,
null,"<img src=""stim_listB/dance1.gif""</stim_listB>",,html-keyboard-response,173,775187,0.0-15.0-1.11,71769,List1B,black,woman,,,,null,,,,
null,is dancing with,,html-keyboard-response,174,777190,0.0-15.0-2.11,71769,List1B,black,woman,,,,null,,,,
8157,,,survey-text,175,785348,0.0-15.0-3.11,71769,List1B,black,woman,,,,,"{""Q0"":""kate is dancing with fred""}","<img src=""stim_listB/dance1.gif""</stim_listB>",is dancing with,
null,"<div style=""font-size:60px;"">+</div>",,html-keyboard-response,176,785856,0.0-15.0-0.12,71769,List1B,black,woman,,,,null,,,,
null,"<img src=""stim_listB/dance2.gif""</stim_listB>",,html-keyboard-response,177,787876,0.0-15.0-1.12,71769,List1B,black,woman,,,,null,,,,
null,are dancing with each other,,html-keyboard-response,178,789897,0.0-15.0-2.12,71769,List1B,black,woman,,,,null,,,,
14442,,,survey-text,179,804341,0.0-15.0-3.12,71769,List1B,black,woman,,,,,"{""Q0"":""mike and beth are dancing with each other""}","<img src=""stim_listB/dance2.gif""</stim_listB>",are dancing with each other,
null,"<div style=""font-size:60px;"">+</div>",,html-keyboard-response,180,804847,0.0-15.0-0.13,71769,List1B,black,woman,,,,null,,,,
null,"<img src=""stim_listB/marry2.gif""</stim_listB>",,html-keyboard-response,181,806867,0.0-15.0-1.13,71769,List1B,black,woman,,,,null,,,,
null,are marrying each other,,html-keyboard-response,182,808869,0.0-15.0-2.13,71769,List1B,black,woman,,,,null,,,,
9255,,,survey-text,183,818125,0.0-15.0-3.13,71769,List1B,black,woman,,,,,"{""Q0"":""kate and fred are marrying each other""}","<img src=""stim_listB/marry2.gif""</stim_listB>",are marrying each other,
null,"<div style=""font-size:60px;"">+</div>",,html-keyboard-response,184,818627,0.0-15.0-0.14,71769,List1B,black,woman,,,,null,,,,
null,"<img src=""stim_listB/meet1.gif""</stim_listB>",,html-keyboard-response,185,820646,0.0-15.0-1.14,71769,List1B,black,woman,,,,null,,,,
null,is meeting,,html-keyboard-response,186,822665,0.0-15.0-2.14,71769,List1B,black,woman,,,,null,,,,
5706,,,survey-text,187,828373,0.0-15.0-3.14,71769,List1B,black,woman,,,,,"{""Q0"":""kate is meeting mike""}","<img src=""stim_listB/meet1.gif""</stim_listB>",is meeting,
null,"<div style=""font-size:60px;"">+</div>",,html-keyboard-response,188,828886,0.0-15.0-0.15,71769,List1B,black,woman,,,,null,,,,
null,"<img src=""stim_listB/hug2.gif""</stim_listB>",,html-keyboard-response,189,830907,0.0-15.0-1.15,71769,List1B,black,woman,,,,null,,,,
null,are hugging each other,,html-keyboard-response,190,832927,0.0-15.0-2.15,71769,List1B,black,woman,,,,null,,,,
8917,,,survey-text,191,841844,0.0-15.0-3.15,71769,List1B,black,woman,,,,,"{""Q0"":""mike and kate are hugging each other""}","<img src=""stim_listB/hug2.gif""</stim_listB>",are hugging each other,
null,"<div style=""font-size:60px;"">+</div>",,html-keyboard-response,192,842357,0.0-15.0-0.16,71769,List1B,black,woman,,,,null,,,,
null,"<img src=""stim_listB/shout4.gif""</stim_listB>",,html-keyboard-response,193,844377,0.0-15.0-1.16,71769,List1B,black,woman,,,,null,,,,
null,are shouting at each other,,html-keyboard-response,194,846397,0.0-15.0-2.16,71769,List1B,black,woman,,,,null,,,,
8776,,,survey-text,195,855173,0.0-15.0-3.16,71769,List1B,black,woman,,,,,"{""Q0"":""dave and jane are shouting at each other""}","<img src=""stim_listB/shout4.gif""</stim_listB>",are shouting at each other,
null,"<div style=""font-size:60px;"">+</div>",,html-keyboard-response,196,855676,0.0-15.0-0.17,71769,List1B,black,woman,,,,null,,,,
null,"<img src=""stim_listB/talk5.gif""</stim_listB>",,html-keyboard-response,197,857696,0.0-15.0-1.17,71769,List1B,black,woman,,,,null,,,,
null,is talking to,,html-keyboard-response,198,859707,0.0-15.0-2.17,71769,List1B,black,woman,,,,null,,,,
6283,,,survey-text,199,865992,0.0-15.0-3.17,71769,List1B,black,woman,,,,,"{""Q0"":""fred is talking to dave""}","<img src=""stim_listB/talk5.gif""</stim_listB>",is talking to,
null,"<div style=""font-size:60px;"">+</div>",,html-keyboard-response,200,866506,0.0-15.0-0.18,71769,List1B,black,woman,,,,null,,,,
null,"<img src=""stim_listB/talk4.gif""</stim_listB>",,html-keyboard-response,201,868526,0.0-15.0-1.18,71769,List1B,black,woman,,,,null,,,,
null,are talking to each other,,html-keyboard-response,202,870547,0.0-15.0-2.18,71769,List1B,black,woman,,,,null,,,,
10119,,,survey-text,203,880667,0.0-15.0-3.18,71769,List1B,black,woman,,,,,"{""Q0"":""ruth and dave are talking to each other""}","<img src=""stim_listB/talk4.gif""</stim_listB>",are talking to each other,
null,"<div style=""font-size:60px;"">+</div>",,html-keyboard-response,204,881177,0.0-15.0-0.19,71769,List1B,black,woman,,,,null,,,,
null,"<img src=""stim_listB/fight2.gif""</stim_listB>",,html-keyboard-response,205,883197,0.0-15.0-1.19,71769,List1B,black,woman,,,,null,,,,
null,are fighting each other,,html-keyboard-response,206,885207,0.0-15.0-2.19,71769,List1B,black,woman,,,,null,,,,
11718,,,survey-text,207,896925,0.0-15.0-3.19,71769,List1B,black,woman,,,,,"{""Q0"":""fred and beth are fighting each other""}","<img src=""stim_listB/fight2.gif""</stim_listB>",are fighting each other,
7497,"<img src='img/portrait_matrix_list1.JPG' style='width:900px;height:500px;''></img><p>If you have memorised all the portraits and names and are ready to start, press Continue.</p><p><strong>Please note: Your memory of these faces will be tested 4 times during this experiment.</strong></p>",0,html-button-response,208,904423,0.0-16.0-0.0,71769,List1B,black,woman,,,,,,,,
2046,"<img src=""portrait/BM1.jpg""style=""width:400px;height:400px;""></img>",4,html-button-response,209,907484,0.0-16.0-1.0,71769,List1B,black,woman,,TRUE,4,,,,,
null,CORRECT,,html-keyboard-response,210,909017,0.0-16.0-2.0-0.0,71769,List1B,black,woman,,,,null,,,,
1618,"<img src=""portrait/WW2.jpg""style=""width:400px;height:400px;""></img>",3,html-button-response,211,910636,0.0-16.0-4.0,71769,List1B,black,woman,,TRUE,3,,,,,
null,CORRECT,,html-keyboard-response,212,912176,0.0-16.0-5.0-0.0,71769,List1B,black,woman,,,,null,,,,
1864,"<img src=""portrait/WW1.jpg""style=""width:400px;height:400px;""></img>",1,html-button-response,213,914043,0.0-16.0-7.0,71769,List1B,black,woman,,TRUE,1,,,,,
null,CORRECT,,html-keyboard-response,214,915577,0.0-16.0-8.0-0.0,71769,List1B,black,woman,,,,null,,,,
1464,"<img src=""portrait/BW2.jpg""style=""width:400px;height:400px;""></img>",2,html-button-response,215,917042,0.0-16.0-10.0,71769,List1B,black,woman,,TRUE,2,,,,,
null,CORRECT,,html-keyboard-response,216,918577,0.0-16.0-11.0-0.0,71769,List1B,black,woman,,,,null,,,,
2166,"<img src=""portrait/BM2.jpg""style=""width:400px;height:400px;""></img>",5,html-button-response,217,920743,0.0-16.0-13.0,71769,List1B,black,woman,,TRUE,5,,,,,
null,CORRECT,,html-keyboard-response,218,922276,0.0-16.0-14.0-0.0,71769,List1B,black,woman,,,,null,,,,
2004,"<img src=""portrait/WM1.jpg""style=""width:400px;height:400px;""></img>",6,html-button-response,219,924281,0.0-16.0-16.0,71769,List1B,black,woman,,TRUE,6,,,,,
null,CORRECT,,html-keyboard-response,220,925818,0.0-16.0-17.0-0.0,71769,List1B,black,woman,,,,null,,,,
1918,"<img src=""portrait/BW1.jpg""style=""width:400px;height:400px;""></img>",0,html-button-response,221,927739,0.0-16.0-19.0,71769,List1B,black,woman,,TRUE,0,,,,,
null,CORRECT,,html-keyboard-response,222,929267,0.0-16.0-20.0-0.0,71769,List1B,black,woman,,,,null,,,,
1347,"<img src=""portrait/WM2.jpg""style=""width:400px;height:400px;""></img>",7,html-button-response,223,930617,0.0-16.0-22.0,71769,List1B,black,woman,,TRUE,7,,,,,
null,CORRECT,,html-keyboard-response,224,932147,0.0-16.0-23.0-0.0,71769,List1B,black,woman,,,,null,,,,
1377,<p>You got 8 out of 8 right first time. Press Continue.</p>,0,html-button-response,225,933525,0.0-16.0-25.0,71769,List1B,black,woman,,,,,,,,
null,"<div style=""font-size:60px;"">+</div>",,html-keyboard-response,226,935047,0.0-17.0-0.0,71769,List1B,black,woman,,,,null,,,,
null,"<img src=""stim_listB/talk6.gif""</stim_listB>",,html-keyboard-response,227,937066,0.0-17.0-1.0,71769,List1B,black,woman,,,,null,,,,
null,are talking to each other,,html-keyboard-response,228,939087,0.0-17.0-2.0,71769,List1B,black,woman,,,,null,,,,
11379,,,survey-text,229,950467,0.0-17.0-3.0,71769,List1B,black,woman,,,,,"{""Q0"":""luke and mike are talking to each other""}","<img src=""stim_listB/talk6.gif""</stim_listB>",are talking to each other,
null,"<div style=""font-size:60px;"">+</div>",,html-keyboard-response,230,950977,0.0-17.0-0.1,71769,List1B,black,woman,,,,null,,,,
null,"<img src=""stim_listB/fight6.gif""</stim_listB>",,html-keyboard-response,231,952997,0.0-17.0-1.1,71769,List1B,black,woman,,,,null,,,,
null,are fighting each other,,html-keyboard-response,232,955016,0.0-17.0-2.1,71769,List1B,black,woman,,,,null,,,,
8588,,,survey-text,233,963606,0.0-17.0-3.1,71769,List1B,black,woman,,,,,"{""Q0"":""fred and luke are fighting each other""}","<img src=""stim_listB/fight6.gif""</stim_listB>",are fighting each other,
null,"<div style=""font-size:60px;"">+</div>",,html-keyboard-response,234,964117,0.0-17.0-0.2,71769,List1B,black,woman,,,,null,,,,
null,"<img src=""stim_listB/touch7.gif""</stim_listB>",,html-keyboard-response,235,966137,0.0-17.0-1.2,71769,List1B,black,woman,,,,null,,,,
null,is touching,,html-keyboard-response,236,968157,0.0-17.0-2.2,71769,List1B,black,woman,,,,null,,,,
6684,,,survey-text,237,974843,0.0-17.0-3.2,71769,List1B,black,woman,,,,,"{""Q0"":""jane is touching kate""}","<img src=""stim_listB/touch7.gif""</stim_listB>",is touching,
null,"<div style=""font-size:60px;"">+</div>",,html-keyboard-response,238,975347,0.0-17.0-0.3,71769,List1B,black,woman,,,,null,,,,
null,"<img src=""stim_listB/argue8.gif""</stim_listB>",,html-keyboard-response,239,977367,0.0-17.0-1.3,71769,List1B,black,woman,,,,null,,,,
null,are arguing with each other,,html-keyboard-response,240,979386,0.0-17.0-2.3,71769,List1B,black,woman,,,,null,,,,
12710,,,survey-text,241,992096,0.0-17.0-3.3,71769,List1B,black,woman,,,,,"{""Q0"":""beth and jane are arguing with each other""}","<img src=""stim_listB/argue8.gif""</stim_listB>",are arguing with each other,
null,"<div style=""font-size:60px;"">+</div>",,html-keyboard-response,242,992616,0.0-17.0-0.4,71769,List1B,black,woman,,,,null,,,,
null,"<img src=""stim_listB/shout5.gif""</stim_listB>",,html-keyboard-response,243,994636,0.0-17.0-1.4,71769,List1B,black,woman,,,,null,,,,
null,is shouting at,,html-keyboard-response,244,996657,0.0-17.0-2.4,71769,List1B,black,woman,,,,null,,,,
9869,,,survey-text,245,1006526,0.0-17.0-3.4,71769,List1B,black,woman,,,,,"{""Q0"":""luke is shouting at fred""}","<img src=""stim_listB/shout5.gif""</stim_listB>",is shouting at,
null,"<div style=""font-size:60px;"">+</div>",,html-keyboard-response,246,1007036,0.0-17.0-0.5,71769,List1B,black,woman,,,,null,,,,
null,"<img src=""stim_listB/marry8.gif""</stim_listB>",,html-keyboard-response,247,1009056,0.0-17.0-1.5,71769,List1B,black,woman,,,,null,,,,
null,are marrying each other,,html-keyboard-response,248,1011075,0.0-17.0-2.5,71769,List1B,black,woman,,,,null,,,,
10429,,,survey-text,249,1021506,0.0-17.0-3.5,71769,List1B,black,woman,,,,,"{""Q0"":""jane and beth are marrying each other""}","<img src=""stim_listB/marry8.gif""</stim_listB>",are marrying each other,
null,"<div style=""font-size:60px;"">+</div>",,html-keyboard-response,250,1022017,0.0-17.0-0.6,71769,List1B,black,woman,,,,null,,,,
null,"<img src=""stim_listB/meet4.gif""</stim_listB>",,html-keyboard-response,251,1024037,0.0-17.0-1.6,71769,List1B,black,woman,,,,null,,,,
null,are meeting each other,,html-keyboard-response,252,1026042,0.0-17.0-2.6,71769,List1B,black,woman,,,,null,,,,
12090,,,survey-text,253,1038132,0.0-17.0-3.6,71769,List1B,black,woman,,,,,"{""Q0"":""ruth and luke are meeting each other""}","<img src=""stim_listB/meet4.gif""</stim_listB>",are meeting each other,
null,"<div style=""font-size:60px;"">+</div>",,html-keyboard-response,254,1038637,0.0-17.0-0.7,71769,List1B,black,woman,,,,null,,,,
null,"<img src=""stim_listB/kiss3.gif""</stim_listB>",,html-keyboard-response,255,1040657,0.0-17.0-1.7,71769,List1B,black,woman,,,,null,,,,
null,is kissing,,html-keyboard-response,256,1042667,0.0-17.0-2.7,71769,List1B,black,woman,,,,null,,,,
8114,,,survey-text,257,1050782,0.0-17.0-3.7,71769,List1B,black,woman,,,,,"{""Q0"":""ruth is kissing luke""}","<img src=""stim_listB/kiss3.gif""</stim_listB>",is kissing,
null,"<div style=""font-size:60px;"">+</div>",,html-keyboard-response,258,1051297,0.0-17.0-0.8,71769,List1B,black,woman,,,,null,,,,
null,"<img src=""stim_listB/shout1.gif""</stim_listB>",,html-keyboard-response,259,1053317,0.0-17.0-1.8,71769,List1B,black,woman,,,,null,,,,
null,is shouting at,,html-keyboard-response,260,1055337,0.0-17.0-2.8,71769,List1B,black,woman,,,,null,,,,
9003,,,survey-text,261,1064342,0.0-17.0-3.8,71769,List1B,black,woman,,,,,"{""Q0"":""beth is shouting at fred""}","<img src=""stim_listB/shout1.gif""</stim_listB>",is shouting at,
null,"<div style=""font-size:60px;"">+</div>",,html-keyboard-response,262,1064856,0.0-17.0-0.9,71769,List1B,black,woman,,,,null,,,,
null,"<img src=""stim_listB/argue1.gif""</stim_listB>",,html-keyboard-response,263,1066877,0.0-17.0-1.9,71769,List1B,black,woman,,,,null,,,,
null,is arguing with,,html-keyboard-response,264,1068897,0.0-17.0-2.9,71769,List1B,black,woman,,,,null,,,,
8106,,,survey-text,265,1077003,0.0-17.0-3.9,71769,List1B,black,woman,,,,,"{""Q0"":""mike is arguing with beth""}","<img src=""stim_listB/argue1.gif""</stim_listB>",is arguing with,
null,"<div style=""font-size:60px;"">+</div>",,html-keyboard-response,266,1077507,0.0-17.0-0.10,71769,List1B,black,woman,,,,null,,,,
null,"<img src=""stim_listB/touch8.gif""</stim_listB>",,html-keyboard-response,267,1079527,0.0-17.0-1.10,71769,List1B,black,woman,,,,null,,,,
null,are touching each other,,html-keyboard-response,268,1081534,0.0-17.0-2.10,71769,List1B,black,woman,,,,null,,,,
9267,,,survey-text,269,1090803,0.0-17.0-3.10,71769,List1B,black,woman,,,,,"{""Q0"":""beth and ruth are touching each other""}","<img src=""stim_listB/touch8.gif""</stim_listB>",are touching each other,
null,"<div style=""font-size:60px;"">+</div>",,html-keyboard-response,270,1091307,0.0-17.0-0.11,71769,List1B,black,woman,,,,null,,,,
null,"<img src=""stim_listB/argue7.gif""</stim_listB>",,html-keyboard-response,271,1093327,0.0-17.0-1.11,71769,List1B,black,woman,,,,null,,,,
null,is arguing with,,html-keyboard-response,272,1095326,0.0-17.0-2.11,71769,List1B,black,woman,,,,null,,,,
8166,,,survey-text,273,1103495,0.0-17.0-3.11,71769,List1B,black,woman,,,,,"{""Q0"":""kate is arguing with ruth""}","<img src=""stim_listB/argue7.gif""</stim_listB>",is arguing with,
null,"<div style=""font-size:60px;"">+</div>",,html-keyboard-response,274,1104007,0.0-17.0-0.12,71769,List1B,black,woman,,,,null,,,,
null,"<img src=""stim_listB/dance4.gif""</stim_listB>",,html-keyboard-response,275,1106027,0.0-17.0-1.12,71769,List1B,black,woman,,,,null,,,,
null,are dancing with each other,,html-keyboard-response,276,1108047,0.0-17.0-2.12,71769,List1B,black,woman,,,,null,,,,
10833,,,survey-text,277,1118881,0.0-17.0-3.12,71769,List1B,black,woman,,,,,"{""Q0"":""ruth and dave are dancing with each other""}","<img src=""stim_listB/dance4.gif""</stim_listB>",are dancing with each other,
null,"<div style=""font-size:60px;"">+</div>",,html-keyboard-response,278,1119387,0.0-17.0-0.13,71769,List1B,black,woman,,,,null,,,,
null,"<img src=""stim_listB/dance7.gif""</stim_listB>",,html-keyboard-response,279,1121406,0.0-17.0-1.13,71769,List1B,black,woman,,,,null,,,,
null,is dancing with,,html-keyboard-response,280,1123406,0.0-17.0-2.13,71769,List1B,black,woman,,,,null,,,,
9262,,,survey-text,281,1132670,0.0-17.0-3.13,71769,List1B,black,woman,,,,,"{""Q0"":""beth is dancing with jane""}","<img src=""stim_listB/dance7.gif""</stim_listB>",is dancing with,
null,"<div style=""font-size:60px;"">+</div>",,html-keyboard-response,282,1133176,0.0-17.0-0.14,71769,List1B,black,woman,,,,null,,,,
null,"<img src=""stim_listB/dance5.gif""</stim_listB>",,html-keyboard-response,283,1135197,0.0-17.0-1.14,71769,List1B,black,woman,,,,null,,,,
null,is dancing with,,html-keyboard-response,284,1137217,0.0-17.0-2.14,71769,List1B,black,woman,,,,null,,,,
7015,,,survey-text,285,1144233,0.0-17.0-3.14,71769,List1B,black,woman,,,,,"{""Q0"":""fred is dancing with dave""}","<img src=""stim_listB/dance5.gif""</stim_listB>",is dancing with,
null,"<div style=""font-size:60px;"">+</div>",,html-keyboard-response,286,1144737,0.0-17.0-0.15,71769,List1B,black,woman,,,,null,,,,
null,"<img src=""stim_listB/hug3.gif""</stim_listB>",,html-keyboard-response,287,1146757,0.0-17.0-1.15,71769,List1B,black,woman,,,,null,,,,
null,is hugging,,html-keyboard-response,288,1148759,0.0-17.0-2.15,71769,List1B,black,woman,,,,null,,,,
11016,,,survey-text,289,1159778,0.0-17.0-3.15,71769,List1B,black,woman,,,,,"{""Q0"":""ruth is hugging luke""}","<img src=""stim_listB/hug3.gif""</stim_listB>",is hugging,
null,"<div style=""font-size:60px;"">+</div>",,html-keyboard-response,290,1160287,0.0-17.0-0.16,71769,List1B,black,woman,,,,null,,,,
null,"<img src=""stim_listB/kiss1.gif""</stim_listB>",,html-keyboard-response,291,1162307,0.0-17.0-1.16,71769,List1B,black,woman,,,,null,,,,
null,is kissing,,html-keyboard-response,292,1164327,0.0-17.0-2.16,71769,List1B,black,woman,,,,null,,,,
7173,,,survey-text,293,1171501,0.0-17.0-3.16,71769,List1B,black,woman,,,,,"{""Q0"":""fred is kissing beth""}","<img src=""stim_listB/kiss1.gif""</stim_listB>",is kissing,
null,"<div style=""font-size:60px;"">+</div>",,html-keyboard-response,294,1172017,0.0-17.0-0.17,71769,List1B,black,woman,,,,null,,,,
null,"<img src=""stim_listB/kiss2.gif""</stim_listB>",,html-keyboard-response,295,1174036,0.0-17.0-1.17,71769,List1B,black,woman,,,,null,,,,
null,are kissing each other,,html-keyboard-response,296,1176057,0.0-17.0-2.17,71769,List1B,black,woman,,,,null,,,,
10081,,,survey-text,297,1186139,0.0-17.0-3.17,71769,List1B,black,woman,,,,,"{""Q0"":""mike is kissing kate""}","<img src=""stim_listB/kiss2.gif""</stim_listB>",are kissing each other,
null,"<div style=""font-size:60px;"">+</div>",,html-keyboard-response,298,1186647,0.0-17.0-0.18,71769,List1B,black,woman,,,,null,,,,
null,"<img src=""stim_listB/dance6.gif""</stim_listB>",,html-keyboard-response,299,1188657,0.0-17.0-1.18,71769,List1B,black,woman,,,,null,,,,
null,are dancing with each other,,html-keyboard-response,300,1190676,0.0-17.0-2.18,71769,List1B,black,woman,,,,null,,,,
9626,,,survey-text,301,1200304,0.0-17.0-3.18,71769,List1B,black,woman,,,,,"{""Q0"":""mike and luke are dancing with each other""}","<img src=""stim_listB/dance6.gif""</stim_listB>",are dancing with each other,
null,"<div style=""font-size:60px;"">+</div>",,html-keyboard-response,302,1200817,0.0-17.0-0.19,71769,List1B,black,woman,,,,null,,,,
null,"<img src=""stim_listB/fight3.gif""</stim_listB>",,html-keyboard-response,303,1202838,0.0-17.0-1.19,71769,List1B,black,woman,,,,null,,,,
null,is fighting,,html-keyboard-response,304,1204857,0.0-17.0-2.19,71769,List1B,black,woman,,,,null,,,,
7605,,,survey-text,305,1212466,0.0-17.0-3.19,71769,List1B,black,woman,,,,,"{""Q0"":""dave is fighting jane""}","<img src=""stim_listB/fight3.gif""</stim_listB>",is fighting,
6149,"<img src='img/portrait_matrix_list1.JPG' style='width:900px;height:500px;''></img><p>If you have memorised all the portraits and names and are ready to start, press Continue.</p><p><strong>Please note: Your memory of these faces will be tested 4 times during this experiment.</strong></p>",0,html-button-response,306,1218618,0.0-18.0-0.0,71769,List1B,black,woman,,,,,,,,
2661,"<img src=""portrait/BW2.jpg""style=""width:400px;height:400px;""></img>",2,html-button-response,307,1222298,0.0-18.0-1.0,71769,List1B,black,woman,,TRUE,2,,,,,
null,CORRECT,,html-keyboard-response,308,1223817,0.0-18.0-2.0-0.0,71769,List1B,black,woman,,,,null,,,,
2160,"<img src=""portrait/BW1.jpg""style=""width:400px;height:400px;""></img>",0,html-button-response,309,1225980,0.0-18.0-4.0,71769,List1B,black,woman,,TRUE,0,,,,,
null,CORRECT,,html-keyboard-response,310,1227516,0.0-18.0-5.0-0.0,71769,List1B,black,woman,,,,null,,,,
1654,"<img src=""portrait/WM2.jpg""style=""width:400px;height:400px;""></img>",7,html-button-response,311,1229172,0.0-18.0-7.0,71769,List1B,black,woman,,TRUE,7,,,,,
null,CORRECT,,html-keyboard-response,312,1230686,0.0-18.0-8.0-0.0,71769,List1B,black,woman,,,,null,,,,
1587,"<img src=""portrait/WW2.jpg""style=""width:400px;height:400px;""></img>",3,html-button-response,313,1232274,0.0-18.0-10.0,71769,List1B,black,woman,,TRUE,3,,,,,
null,CORRECT,,html-keyboard-response,314,1233807,0.0-18.0-11.0-0.0,71769,List1B,black,woman,,,,null,,,,
1923,"<img src=""portrait/WM1.jpg""style=""width:400px;height:400px;""></img>",6,html-button-response,315,1235732,0.0-18.0-13.0,71769,List1B,black,woman,,TRUE,6,,,,,
null,CORRECT,,html-keyboard-response,316,1237256,0.0-18.0-14.0-0.0,71769,List1B,black,woman,,,,null,,,,
1850,"<img src=""portrait/BM2.jpg""style=""width:400px;height:400px;""></img>",5,html-button-response,317,1239108,0.0-18.0-16.0,71769,List1B,black,woman,,TRUE,5,,,,,
null,CORRECT,,html-keyboard-response,318,1240647,0.0-18.0-17.0-0.0,71769,List1B,black,woman,,,,null,,,,
1734,"<img src=""portrait/BM1.jpg""style=""width:400px;height:400px;""></img>",4,html-button-response,319,1242383,0.0-18.0-19.0,71769,List1B,black,woman,,TRUE,4,,,,,
null,CORRECT,,html-keyboard-response,320,1243907,0.0-18.0-20.0-0.0,71769,List1B,black,woman,,,,null,,,,
1668,"<img src=""portrait/WW1.jpg""style=""width:400px;height:400px;""></img>",1,html-button-response,321,1245576,0.0-18.0-22.0,71769,List1B,black,woman,,TRUE,1,,,,,
null,CORRECT,,html-keyboard-response,322,1247107,0.0-18.0-23.0-0.0,71769,List1B,black,woman,,,,null,,,,
1091,<p>You got 8 out of 8 right first time. Press Continue.</p>,0,html-button-response,323,1248199,0.0-18.0-25.0,71769,List1B,black,woman,,,,,,,,
null,"<div style=""font-size:60px;"">+</div>",,html-keyboard-response,324,1249727,0.0-19.0-0.0,71769,List1B,black,woman,,,,null,,,,
null,"<img src=""stim_listB/hug8.gif""</stim_listB>",,html-keyboard-response,325,1251747,0.0-19.0-1.0,71769,List1B,black,woman,,,,null,,,,
null,are hugging each other,,html-keyboard-response,326,1253763,0.0-19.0-2.0,71769,List1B,black,woman,,,,null,,,,
8572,,,survey-text,327,1262336,0.0-19.0-3.0,71769,List1B,black,woman,,,,,"{""Q0"":""kate and jane are hugging each other""}","<img src=""stim_listB/hug8.gif""</stim_listB>",are hugging each other,
null,"<div style=""font-size:60px;"">+</div>",,html-keyboard-response,328,1262857,0.0-19.0-0.1,71769,List1B,black,woman,,,,null,,,,
null,"<img src=""stim_listB/kiss6.gif""</stim_listB>",,html-keyboard-response,329,1264867,0.0-19.0-1.1,71769,List1B,black,woman,,,,null,,,,
null,are kissing each other,,html-keyboard-response,330,1266887,0.0-19.0-2.1,71769,List1B,black,woman,,,,null,,,,
11281,,,survey-text,331,1278169,0.0-19.0-3.1,71769,List1B,black,woman,,,,,"{""Q0"":""dave and mike are kissing each other""}","<img src=""stim_listB/kiss6.gif""</stim_listB>",are kissing each other,
null,"<div style=""font-size:60px;"">+</div>",,html-keyboard-response,332,1278687,0.0-19.0-0.2,71769,List1B,black,woman,,,,null,,,,
null,"<img src=""stim_listB/fight8.gif""</stim_listB>",,html-keyboard-response,333,1280706,0.0-19.0-1.2,71769,List1B,black,woman,,,,null,,,,
null,are fighting each other,,html-keyboard-response,334,1282709,0.0-19.0-2.2,71769,List1B,black,woman,,,,null,,,,
8750,,,survey-text,335,1291459,0.0-19.0-3.2,71769,List1B,black,woman,,,,,"{""Q0"":""beth and ruth are fighting each other""}","<img src=""stim_listB/fight8.gif""</stim_listB>",are fighting each other,
null,"<div style=""font-size:60px;"">+</div>",,html-keyboard-response,336,1291967,0.0-19.0-0.3,71769,List1B,black,woman,,,,null,,,,
null,"<img src=""stim_listB/touch3.gif""</stim_listB>",,html-keyboard-response,337,1293988,0.0-19.0-1.3,71769,List1B,black,woman,,,,null,,,,
null,is touching,,html-keyboard-response,338,1295990,0.0-19.0-2.3,71769,List1B,black,woman,,,,null,,,,
7283,,,survey-text,339,1303275,0.0-19.0-3.3,71769,List1B,black,woman,,,,,"{""Q0"":""jane is touching dave""}","<img src=""stim_listB/touch3.gif""</stim_listB>",is touching,
null,"<div style=""font-size:60px;"">+</div>",,html-keyboard-response,340,1303787,0.0-19.0-0.4,71769,List1B,black,woman,,,,null,,,,
null,"<img src=""stim_listB/dance8.gif""</stim_listB>",,html-keyboard-response,341,1305806,0.0-19.0-1.4,71769,List1B,black,woman,,,,null,,,,
null,are dancing with each other,,html-keyboard-response,342,1307827,0.0-19.0-2.4,71769,List1B,black,woman,,,,null,,,,
8910,,,survey-text,343,1316738,0.0-19.0-3.4,71769,List1B,black,woman,,,,,"{""Q0"":""ruth and kate are dancing with each other""}","<img src=""stim_listB/dance8.gif""</stim_listB>",are dancing with each other,
null,"<div style=""font-size:60px;"">+</div>",,html-keyboard-response,344,1317257,0.0-19.0-0.5,71769,List1B,black,woman,,,,null,,,,
null,"<img src=""stim_listB/meet5.gif""</stim_listB>",,html-keyboard-response,345,1319277,0.0-19.0-1.5,71769,List1B,black,woman,,,,null,,,,
null,is meeting,,html-keyboard-response,346,1321297,0.0-19.0-2.5,71769,List1B,black,woman,,,,null,,,,
6747,,,survey-text,347,1328045,0.0-19.0-3.5,71769,List1B,black,woman,,,,,"{""Q0"":""mike is meeting dave""}","<img src=""stim_listB/meet5.gif""</stim_listB>",is meeting,
null,"<div style=""font-size:60px;"">+</div>",,html-keyboard-response,348,1328547,0.0-19.0-0.6,71769,List1B,black,woman,,,,null,,,,
null,"<img src=""stim_listB/talk2.gif""</stim_listB>",,html-keyboard-response,349,1330568,0.0-19.0-1.6,71769,List1B,black,woman,,,,null,,,,
null,are talking to each other,,html-keyboard-response,350,1332569,0.0-19.0-2.6,71769,List1B,black,woman,,,,null,,,,
11453,,,survey-text,351,1344023,0.0-19.0-3.6,71769,List1B,black,woman,,,,,"{""Q0"":""mike and beth are talking with each other""}","<img src=""stim_listB/talk2.gif""</stim_listB>",are talking to each other,
null,"<div style=""font-size:60px;"">+</div>",,html-keyboard-response,352,1344537,0.0-19.0-0.7,71769,List1B,black,woman,,,,null,,,,
null,"<img src=""stim_listB/talk1.gif""</stim_listB>",,html-keyboard-response,353,1346556,0.0-19.0-1.7,71769,List1B,black,woman,,,,null,,,,
null,is talking to,,html-keyboard-response,354,1348577,0.0-19.0-2.7,71769,List1B,black,woman,,,,null,,,,
8582,,,survey-text,355,1357160,0.0-19.0-3.7,71769,List1B,black,woman,,,,,"{""Q0"":""fred is talking to kate""}","<img src=""stim_listB/talk1.gif""</stim_listB>",is talking to,
null,"<div style=""font-size:60px;"">+</div>",,html-keyboard-response,356,1357666,0.0-19.0-0.8,71769,List1B,black,woman,,,,null,,,,
null,"<img src=""stim_listB/talk7.gif""</stim_listB>",,html-keyboard-response,357,1359687,0.0-19.0-1.8,71769,List1B,black,woman,,,,null,,,,
null,is talking to,,html-keyboard-response,358,1361707,0.0-19.0-2.8,71769,List1B,black,woman,,,,null,,,,
8122,,,survey-text,359,1369829,0.0-19.0-3.8,71769,List1B,black,woman,,,,,"{""Q0"":""jane is talking to beth""}","<img src=""stim_listB/talk7.gif""</stim_listB>",is talking to,
null,"<div style=""font-size:60px;"">+</div>",,html-keyboard-response,360,1370338,0.0-19.0-0.9,71769,List1B,black,woman,,,,null,,,,
null,"<img src=""stim_listB/kiss4.gif""</stim_listB>",,html-keyboard-response,361,1372357,0.0-19.0-1.9,71769,List1B,black,woman,,,,null,,,,
null,are kissing each other,,html-keyboard-response,362,1374367,0.0-19.0-2.9,71769,List1B,black,woman,,,,null,,,,
9483,,,survey-text,363,1383850,0.0-19.0-3.9,71769,List1B,black,woman,,,,,"{""Q0"":""jane and dave are kissing each other""}","<img src=""stim_listB/kiss4.gif""</stim_listB>",are kissing each other,
null,"<div style=""font-size:60px;"">+</div>",,html-keyboard-response,364,1384367,0.0-19.0-0.10,71769,List1B,black,woman,,,,null,,,,
null,"<img src=""stim_listB/hug7.gif""</stim_listB>",,html-keyboard-response,365,1386377,0.0-19.0-1.10,71769,List1B,black,woman,,,,null,,,,
null,is hugging,,html-keyboard-response,366,1388397,0.0-19.0-2.10,71769,List1B,black,woman,,,,null,,,,
6846,,,survey-text,367,1395244,0.0-19.0-3.10,71769,List1B,black,woman,,,,,"{""Q0"":""ruth is hugging beth""}","<img src=""stim_listB/hug7.gif""</stim_listB>",is hugging,
null,"<div style=""font-size:60px;"">+</div>",,html-keyboard-response,368,1395747,0.0-19.0-0.11,71769,List1B,black,woman,,,,null,,,,
null,"<img src=""stim_listB/marry1.gif""</stim_listB>",,html-keyboard-response,369,1397767,0.0-19.0-1.11,71769,List1B,black,woman,,,,null,,,,
null,is marrying,,html-keyboard-response,370,1399787,0.0-19.0-2.11,71769,List1B,black,woman,,,,null,,,,
7198,,,survey-text,371,1406987,0.0-19.0-3.11,71769,List1B,black,woman,,,,,"{""Q0"":""mike is marrying beth""}","<img src=""stim_listB/marry1.gif""</stim_listB>",is marrying,
null,"<div style=""font-size:60px;"">+</div>",,html-keyboard-response,372,1407507,0.0-19.0-0.12,71769,List1B,black,woman,,,,null,,,,
null,"<img src=""stim_listB/marry3.gif""</stim_listB>",,html-keyboard-response,373,1409527,0.0-19.0-1.12,71769,List1B,black,woman,,,,null,,,,
null,is marrying,,html-keyboard-response,374,1411537,0.0-19.0-2.12,71769,List1B,black,woman,,,,null,,,,
5626,,,survey-text,375,1417164,0.0-19.0-3.12,71769,List1B,black,woman,,,,,"{""Q0"":""dave is marrying ruth""}","<img src=""stim_listB/marry3.gif""</stim_listB>",is marrying,
null,"<div style=""font-size:60px;"">+</div>",,html-keyboard-response,376,1417677,0.0-19.0-0.13,71769,List1B,black,woman,,,,null,,,,
null,"<img src=""stim_listB/argue4.gif""</stim_listB>",,html-keyboard-response,377,1419698,0.0-19.0-1.13,71769,List1B,black,woman,,,,null,,,,
null,are arguing with each other,,html-keyboard-response,378,1421708,0.0-19.0-2.13,71769,List1B,black,woman,,,,null,,,,
9669,,,survey-text,379,1431378,0.0-19.0-3.13,71769,List1B,black,woman,,,,,"{""Q0"":""luke and jane are arguing with each other""}","<img src=""stim_listB/argue4.gif""</stim_listB>",are arguing with each other,
null,"<div style=""font-size:60px;"">+</div>",,html-keyboard-response,380,1431897,0.0-19.0-0.14,71769,List1B,black,woman,,,,null,,,,
null,"<img src=""stim_listB/meet8.gif""</stim_listB>",,html-keyboard-response,381,1433917,0.0-19.0-1.14,71769,List1B,black,woman,,,,null,,,,
null,are meeting each other,,html-keyboard-response,382,1435937,0.0-19.0-2.14,71769,List1B,black,woman,,,,null,,,,
8230,,,survey-text,383,1444168,0.0-19.0-3.14,71769,List1B,black,woman,,,,,"{""Q0"":""beth and ruth are meeting each other""}","<img src=""stim_listB/meet8.gif""</stim_listB>",are meeting each other,
null,"<div style=""font-size:60px;"">+</div>",,html-keyboard-response,384,1444676,0.0-19.0-0.15,71769,List1B,black,woman,,,,null,,,,
null,"<img src=""stim_listB/meet3.gif""</stim_listB>",,html-keyboard-response,385,1446697,0.0-19.0-1.15,71769,List1B,black,woman,,,,null,,,,
null,is meeting,,html-keyboard-response,386,1448717,0.0-19.0-2.15,71769,List1B,black,woman,,,,null,,,,
5068,,,survey-text,387,1453786,0.0-19.0-3.15,71769,List1B,black,woman,,,,,"{""Q0"":""dave is meeting jane""}","<img src=""stim_listB/meet3.gif""</stim_listB>",is meeting,
null,"<div style=""font-size:60px;"">+</div>",,html-keyboard-response,388,1454297,0.0-19.0-0.16,71769,List1B,black,woman,,,,null,,,,
null,"<img src=""stim_listB/kiss7.gif""</stim_listB>",,html-keyboard-response,389,1456317,0.0-19.0-1.16,71769,List1B,black,woman,,,,null,,,,
null,is kissing,,html-keyboard-response,390,1458337,0.0-19.0-2.16,71769,List1B,black,woman,,,,null,,,,
6977,,,survey-text,391,1465315,0.0-19.0-3.16,71769,List1B,black,woman,,,,,"{""Q0"":""ruth is kissing beth""}","<img src=""stim_listB/kiss7.gif""</stim_listB>",is kissing,
null,"<div style=""font-size:60px;"">+</div>",,html-keyboard-response,392,1465828,0.0-19.0-0.17,71769,List1B,black,woman,,,,null,,,,
null,"<img src=""stim_listB/fight7.gif""</stim_listB>",,html-keyboard-response,393,1467847,0.0-19.0-1.17,71769,List1B,black,woman,,,,null,,,,
null,is fighting,,html-keyboard-response,394,1469867,0.0-19.0-2.17,71769,List1B,black,woman,,,,null,,,,
7280,,,survey-text,395,1477149,0.0-19.0-3.17,71769,List1B,black,woman,,,,,"{""Q0"":""kate is fighting jane""}","<img src=""stim_listB/fight7.gif""</stim_listB>",is fighting,
null,"<div style=""font-size:60px;"">+</div>",,html-keyboard-response,396,1477667,0.0-19.0-0.18,71769,List1B,black,woman,,,,null,,,,
null,"<img src=""stim_listB/talk3.gif""</stim_listB>",,html-keyboard-response,397,1479687,0.0-19.0-1.18,71769,List1B,black,woman,,,,null,,,,
null,is talking to,,html-keyboard-response,398,1481707,0.0-19.0-2.18,71769,List1B,black,woman,,,,null,,,,
6847,,,survey-text,399,1488555,0.0-19.0-3.18,71769,List1B,black,woman,,,,,"{""Q0"":""jane is talking to luke""}","<img src=""stim_listB/talk3.gif""</stim_listB>",is talking to,
null,"<div style=""font-size:60px;"">+</div>",,html-keyboard-response,400,1489057,0.0-19.0-0.19,71769,List1B,black,woman,,,,null,,,,
null,"<img src=""stim_listB/marry6.gif""</stim_listB>",,html-keyboard-response,401,1491077,0.0-19.0-1.19,71769,List1B,black,woman,,,,null,,,,
null,are marrying each other,,html-keyboard-response,402,1493082,0.0-19.0-2.19,71769,List1B,black,woman,,,,null,,,,
11685,,,survey-text,403,1504769,0.0-19.0-3.19,71769,List1B,black,woman,,,,,"{""Q0"":""fred and dave are marrying each other""}","<img src=""stim_listB/marry6.gif""</stim_listB>",are marrying each other,
1890,<p>Thank you for completing that task.</p><p>The final part of this session is a short questionnaire.</p><p>Press Continue.</p>,0,html-button-response,404,1506660,0.0-20.0,71769,List1B,black,woman,,,,,,,,
25352,,,survey-text,405,1533030,0.0-21.0,71769,List1B,black,woman,,,,,"{""Q0"":""23"",""Q1"":""English"",""Q2"":""English"",""Q3"":""United States"",""Q4"":""Black"",""Q5"":""Female""}",,,demographics
117292,,,survey-likert,406,1650330,0.0-22.0,71769,List1B,black,woman,,,,,"{""Q0"":6,""Q1"":6,""Q2"":3,""Q3"":6,""Q4"":6,""Q5"":3,""Q6"":6,""Q7"":6,""Q8"":6,""Q9"":5,""Q10"":4,""Q11"":4,""Q12"":3,""Q13"":3}",,,likert_race
62171,,,survey-likert,407,1712506,0.0-23.0,71769,List1B,black,woman,,,,,"{""Q0"":3,""Q1"":4,""Q2"":3,""Q3"":6,""Q4"":6,""Q5"":4,""Q6"":6,""Q7"":3,""Q8"":5,""Q9"":4,""Q10"":3,""Q11"":3,""Q12"":3,""Q13"":3}",,,likert_gender
12172,,,survey-text,408,1724680,0.0-24.0,71769,List1B,black,woman,,,,,"{""Q0"":""ccc""}",,,worker_id
28777,,,external-html,409,1753700,0.0-25.0,71769,List1B,black,woman,debrief.html,,,,,,,
