rt,stimulus,button_pressed,trial_type,trial_index,time_elapsed,internal_node_id,subject,list,ppt_race,ppt_gender,url,first_guess,correct,key_press,responses,image_type,phrase_type,test_part
1707,Welcome to the experiment. Press Continue to begin.,0,html-button-response,0,1713,0.0-0.0,72119,List1B,white,woman,,,,,,,,
61832,,,external-html,1,64979,0.0-1.0,72119,List1B,white,woman,consent.html,,,,,,,
11298,"<p>On the next page, you will see portraits of 8 people and their names.</p><p>Your first task is to take a few minutes to memorise the names of these people.</p><p>You will have to recall their names during the rest of the experiment, so it is</p><p>essential that you try to memorise these people and their names as best as you can.</p><br><p><strong>You will then be tested on your memory of these names and portraits.</strong></p><br><p>The experiment will start after you have completed this memory test.</p><br><p>Ready?</p>",0,html-button-response,2,76280,0.0-2.0,72119,List1B,white,woman,,,,,,,,
110012,"<img src='img/portrait_matrix_list1.JPG' style='width:900px;height:500px;''></img><p>If you have memorised all the portraits and names and are ready to start, press Continue.</p><p><strong>Please note: Your memory of these faces will be tested 4 times during this experiment.</strong></p>",0,html-button-response,3,187299,0.0-3.0-0.0,72119,List1B,white,woman,,,,,,,,
6221,"<img src=""portrait/WW2.jpg""style=""width:400px;height:400px;""></img>",3,html-button-response,4,194526,0.0-3.0-1.0,72119,List1B,white,woman,,TRUE,3,,,,,
null,CORRECT,,html-keyboard-response,5,196033,0.0-3.0-2.0-0.0,72119,List1B,white,woman,,,,null,,,,
2830,"<img src=""portrait/WW1.jpg""style=""width:400px;height:400px;""></img>",1,html-button-response,6,198867,0.0-3.0-4.0,72119,List1B,white,woman,,TRUE,1,,,,,
null,CORRECT,,html-keyboard-response,7,200376,0.0-3.0-5.0-0.0,72119,List1B,white,woman,,,,null,,,,
3278,"<img src=""portrait/BW1.jpg""style=""width:400px;height:400px;""></img>",0,html-button-response,8,203655,0.0-3.0-7.0,72119,List1B,white,woman,,TRUE,0,,,,,
null,CORRECT,,html-keyboard-response,9,205164,0.0-3.0-8.0-0.0,72119,List1B,white,woman,,,,null,,,,
3175,"<img src=""portrait/WM1.jpg""style=""width:400px;height:400px;""></img>",6,html-button-response,10,208343,0.0-3.0-10.0,72119,List1B,white,woman,,TRUE,6,,,,,
null,CORRECT,,html-keyboard-response,11,209848,0.0-3.0-11.0-0.0,72119,List1B,white,woman,,,,null,,,,
4423,"<img src=""portrait/BM2.jpg""style=""width:400px;height:400px;""></img>",5,html-button-response,12,214274,0.0-3.0-13.0,72119,List1B,white,woman,,TRUE,5,,,,,
null,CORRECT,,html-keyboard-response,13,215783,0.0-3.0-14.0-0.0,72119,List1B,white,woman,,,,null,,,,
6334,"<img src=""portrait/BW2.jpg""style=""width:400px;height:400px;""></img>",2,html-button-response,14,222120,0.0-3.0-16.0,72119,List1B,white,woman,,TRUE,2,,,,,
null,CORRECT,,html-keyboard-response,15,223625,0.0-3.0-17.0-0.0,72119,List1B,white,woman,,,,null,,,,
8811,"<img src=""portrait/BM1.jpg""style=""width:400px;height:400px;""></img>",4,html-button-response,16,232437,0.0-3.0-19.0,72119,List1B,white,woman,,TRUE,4,,,,,
null,CORRECT,,html-keyboard-response,17,233943,0.0-3.0-20.0-0.0,72119,List1B,white,woman,,,,null,,,,
4559,"<img src=""portrait/WM2.jpg""style=""width:400px;height:400px;""></img>",7,html-button-response,18,238505,0.0-3.0-22.0,72119,List1B,white,woman,,TRUE,7,,,,,
null,CORRECT,,html-keyboard-response,19,240014,0.0-3.0-23.0-0.0,72119,List1B,white,woman,,,,null,,,,
1672,<p>You got 8 out of 8 right first time. Press Continue.</p>,0,html-button-response,20,241691,0.0-3.0-25.0,72119,List1B,white,woman,,,,,,,,
69103,"<p>In this experiment, you will view photographs of the people from the memory game interacting.</p><p>By using the <strong>exact</strong> phrase given <i>after</i> the photograph appears and recalling the correct names of the people in the photographs, form a sentence describing the interaction. You do not need to capitalise names.</p><p>Type your answer in the space provided. Please complete every sentence before moving onto the next trial.</p><p>You will only have a few seconds to memorise each given photograph and phrase before you can respond, so try your best to focus.</p><p>An example is given below. Press 'Continue' when you are ready.</p><img src='img/speaking_example_v2.jpg' style='width:800px;height:460px;''></img>",0,html-button-response,21,311803,0.0-4.0,72119,List1B,white,woman,,,,,,,,
3079,"<p>Before the experiment starts, you will watch two example trials. Press 'Continue'.</p>",0,html-button-response,22,315884,0.0-5.0,72119,List1B,white,woman,,,,,,,,
null,<img src='img/speaking_WW.gif'></img>,,html-keyboard-response,23,318888,0.0-6.0,72119,List1B,white,woman,,,,null,,,,
null,<p>is speaking to</p>,,html-keyboard-response,24,320890,0.0-7.0,72119,List1B,white,woman,,,,null,,,,
2580,<p><b>Answer:</b> kate is speaking to beth</p>,0,html-button-response,25,323471,0.0-8.0,72119,List1B,white,woman,,,,,,,,
null,<img src='img/pointing_BM.gif'></img>,,html-keyboard-response,26,326480,0.0-9.0,72119,List1B,white,woman,,,,null,,,,
null,<p>are pointing at each other</p>,,html-keyboard-response,27,328484,0.0-10.0,72119,List1B,white,woman,,,,null,,,,
6964,<p><b>Answer:</b> luke and dave are pointing at each other</p>,0,html-button-response,28,335450,0.0-11.0,72119,List1B,white,woman,,,,,,,,
9804,"<p>Ready to start the experiment?</p><br><p><strong>Remember to describe the picture using a full sentence,</strong></p><p><strong>that combines the names of the people with the given phrase.</strong></p><p><strong>If you do not do this correctly you will not be paid.</strong></p><p><strong> You do not need to capitalise names or use punctuation.</strong></p><br><p>Press 'Continue' to begin.</p>",0,html-button-response,29,346260,0.0-12.0,72119,List1B,white,woman,,,,,,,,
null,"<div style=""font-size:60px;"">+</div>",,html-keyboard-response,30,347768,0.0-13.0-0.0,72119,List1B,white,woman,,,,null,,,,
null,"<img src=""stim_listB/hug4.gif""</stim_listB>",,html-keyboard-response,31,349776,0.0-13.0-1.0,72119,List1B,white,woman,,,,null,,,,
null,are hugging each other,,html-keyboard-response,32,351779,0.0-13.0-2.0,72119,List1B,white,woman,,,,null,,,,
22494,,,survey-text,33,374278,0.0-13.0-3.0,72119,List1B,white,woman,,,,,"{""Q0"":""ruth and dave are hugging each other""}","<img src=""stim_listB/hug4.gif""</stim_listB>",are hugging each other,
null,"<div style=""font-size:60px;"">+</div>",,html-keyboard-response,34,374781,0.0-13.0-0.1,72119,List1B,white,woman,,,,null,,,,
null,"<img src=""stim_listB/hug7.gif""</stim_listB>",,html-keyboard-response,35,376784,0.0-13.0-1.1,72119,List1B,white,woman,,,,null,,,,
null,is hugging,,html-keyboard-response,36,378788,0.0-13.0-2.1,72119,List1B,white,woman,,,,null,,,,
8647,,,survey-text,37,387439,0.0-13.0-3.1,72119,List1B,white,woman,,,,,"{""Q0"":""ruth is hugging beth""}","<img src=""stim_listB/hug7.gif""</stim_listB>",is hugging,
null,"<div style=""font-size:60px;"">+</div>",,html-keyboard-response,38,387941,0.0-13.0-0.2,72119,List1B,white,woman,,,,null,,,,
null,"<img src=""stim_listB/argue6.gif""</stim_listB>",,html-keyboard-response,39,389949,0.0-13.0-1.2,72119,List1B,white,woman,,,,null,,,,
null,are arguing with each other,,html-keyboard-response,40,391951,0.0-13.0-2.2,72119,List1B,white,woman,,,,null,,,,
21702,,,survey-text,41,413656,0.0-13.0-3.2,72119,List1B,white,woman,,,,,"{""Q0"":""fred and dave are arguing with each other""}","<img src=""stim_listB/argue6.gif""</stim_listB>",are arguing with each other,
null,"<div style=""font-size:60px;"">+</div>",,html-keyboard-response,42,414161,0.0-13.0-0.3,72119,List1B,white,woman,,,,null,,,,
null,"<img src=""stim_listB/kiss2.gif""</stim_listB>",,html-keyboard-response,43,416166,0.0-13.0-1.3,72119,List1B,white,woman,,,,null,,,,
null,are kissing each other,,html-keyboard-response,44,418172,0.0-13.0-2.3,72119,List1B,white,woman,,,,null,,,,
7902,,,survey-text,45,426077,0.0-13.0-3.3,72119,List1B,white,woman,,,,,"{""Q0"":""kate and mike are kissing each other""}","<img src=""stim_listB/kiss2.gif""</stim_listB>",are kissing each other,
null,"<div style=""font-size:60px;"">+</div>",,html-keyboard-response,46,426580,0.0-13.0-0.4,72119,List1B,white,woman,,,,null,,,,
null,"<img src=""stim_listB/dance3.gif""</stim_listB>",,html-keyboard-response,47,428587,0.0-13.0-1.4,72119,List1B,white,woman,,,,null,,,,
null,is dancing with,,html-keyboard-response,48,430589,0.0-13.0-2.4,72119,List1B,white,woman,,,,null,,,,
34941,,,survey-text,49,465533,0.0-13.0-3.4,72119,List1B,white,woman,,,,,"{""Q0"":""jane is dancing with dave""}","<img src=""stim_listB/dance3.gif""</stim_listB>",is dancing with,
null,"<div style=""font-size:60px;"">+</div>",,html-keyboard-response,50,466034,0.0-13.0-0.5,72119,List1B,white,woman,,,,null,,,,
null,"<img src=""stim_listB/meet6.gif""</stim_listB>",,html-keyboard-response,51,468040,0.0-13.0-1.5,72119,List1B,white,woman,,,,null,,,,
null,are meeting each other,,html-keyboard-response,52,470045,0.0-13.0-2.5,72119,List1B,white,woman,,,,null,,,,
10132,,,survey-text,53,480181,0.0-13.0-3.5,72119,List1B,white,woman,,,,,"{""Q0"":""fred and luke are meeting each other""}","<img src=""stim_listB/meet6.gif""</stim_listB>",are meeting each other,
null,"<div style=""font-size:60px;"">+</div>",,html-keyboard-response,54,480689,0.0-13.0-0.6,72119,List1B,white,woman,,,,null,,,,
null,"<img src=""stim_listB/hug1.gif""</stim_listB>",,html-keyboard-response,55,482693,0.0-13.0-1.6,72119,List1B,white,woman,,,,null,,,,
null,is hugging,,html-keyboard-response,56,484700,0.0-13.0-2.6,72119,List1B,white,woman,,,,null,,,,
11509,,,survey-text,57,496213,0.0-13.0-3.6,72119,List1B,white,woman,,,,,"{""Q0"":""beth is hugging fred""}","<img src=""stim_listB/hug1.gif""</stim_listB>",is hugging,
null,"<div style=""font-size:60px;"">+</div>",,html-keyboard-response,58,496719,0.0-13.0-0.7,72119,List1B,white,woman,,,,null,,,,
null,"<img src=""stim_listB/argue4.gif""</stim_listB>",,html-keyboard-response,59,498724,0.0-13.0-1.7,72119,List1B,white,woman,,,,null,,,,
null,are arguing with each other,,html-keyboard-response,60,500728,0.0-13.0-2.7,72119,List1B,white,woman,,,,null,,,,
10718,,,survey-text,61,511449,0.0-13.0-3.7,72119,List1B,white,woman,,,,,"{""Q0"":""ruth and luke are arguing with each other""}","<img src=""stim_listB/argue4.gif""</stim_listB>",are arguing with each other,
null,"<div style=""font-size:60px;"">+</div>",,html-keyboard-response,62,511955,0.0-13.0-0.8,72119,List1B,white,woman,,,,null,,,,
null,"<img src=""stim_listB/dance4.gif""</stim_listB>",,html-keyboard-response,63,513957,0.0-13.0-1.8,72119,List1B,white,woman,,,,null,,,,
null,are dancing with each other,,html-keyboard-response,64,515962,0.0-13.0-2.8,72119,List1B,white,woman,,,,null,,,,
9289,,,survey-text,65,525254,0.0-13.0-3.8,72119,List1B,white,woman,,,,,"{""Q0"":""ruth and dave are dancing with each other""}","<img src=""stim_listB/dance4.gif""</stim_listB>",are dancing with each other,
null,"<div style=""font-size:60px;"">+</div>",,html-keyboard-response,66,525754,0.0-13.0-0.9,72119,List1B,white,woman,,,,null,,,,
null,"<img src=""stim_listB/shout8.gif""</stim_listB>",,html-keyboard-response,67,527762,0.0-13.0-1.9,72119,List1B,white,woman,,,,null,,,,
null,are shouting at each other,,html-keyboard-response,68,529769,0.0-13.0-2.9,72119,List1B,white,woman,,,,null,,,,
10600,,,survey-text,69,540374,0.0-13.0-3.9,72119,List1B,white,woman,,,,,"{""Q0"":""ruth and katie are shouting at each other""}","<img src=""stim_listB/shout8.gif""</stim_listB>",are shouting at each other,
null,"<div style=""font-size:60px;"">+</div>",,html-keyboard-response,70,540876,0.0-13.0-0.10,72119,List1B,white,woman,,,,null,,,,
null,"<img src=""stim_listB/fight5.gif""</stim_listB>",,html-keyboard-response,71,542880,0.0-13.0-1.10,72119,List1B,white,woman,,,,null,,,,
null,is fighting,,html-keyboard-response,72,544884,0.0-13.0-2.10,72119,List1B,white,woman,,,,null,,,,
16296,,,survey-text,73,561183,0.0-13.0-3.10,72119,List1B,white,woman,,,,,"{""Q0"":""mike is fighting dave""}","<img src=""stim_listB/fight5.gif""</stim_listB>",is fighting,
null,"<div style=""font-size:60px;"">+</div>",,html-keyboard-response,74,561687,0.0-13.0-0.11,72119,List1B,white,woman,,,,null,,,,
null,"<img src=""stim_listB/touch8.gif""</stim_listB>",,html-keyboard-response,75,563690,0.0-13.0-1.11,72119,List1B,white,woman,,,,null,,,,
null,are touching each other,,html-keyboard-response,76,565693,0.0-13.0-2.11,72119,List1B,white,woman,,,,null,,,,
16424,,,survey-text,77,582118,0.0-13.0-3.11,72119,List1B,white,woman,,,,,"{""Q0"":""no image was shown""}","<img src=""stim_listB/touch8.gif""</stim_listB>",are touching each other,
null,"<div style=""font-size:60px;"">+</div>",,html-keyboard-response,78,582622,0.0-13.0-0.12,72119,List1B,white,woman,,,,null,,,,
null,"<img src=""stim_listB/touch3.gif""</stim_listB>",,html-keyboard-response,79,584629,0.0-13.0-1.12,72119,List1B,white,woman,,,,null,,,,
null,is touching,,html-keyboard-response,80,586631,0.0-13.0-2.12,72119,List1B,white,woman,,,,null,,,,
11160,,,survey-text,81,597794,0.0-13.0-3.12,72119,List1B,white,woman,,,,,"{""Q0"":""again no image was shown, just the phrase \""is touching\""""}","<img src=""stim_listB/touch3.gif""</stim_listB>",is touching,
null,"<div style=""font-size:60px;"">+</div>",,html-keyboard-response,82,598296,0.0-13.0-0.13,72119,List1B,white,woman,,,,null,,,,
null,"<img src=""stim_listB/kiss3.gif""</stim_listB>",,html-keyboard-response,83,600300,0.0-13.0-1.13,72119,List1B,white,woman,,,,null,,,,
null,is kissing,,html-keyboard-response,84,602306,0.0-13.0-2.13,72119,List1B,white,woman,,,,null,,,,
7326,,,survey-text,85,609632,0.0-13.0-3.13,72119,List1B,white,woman,,,,,"{""Q0"":""ruth is kissing luke""}","<img src=""stim_listB/kiss3.gif""</stim_listB>",is kissing,
null,"<div style=""font-size:60px;"">+</div>",,html-keyboard-response,86,610137,0.0-13.0-0.14,72119,List1B,white,woman,,,,null,,,,
null,"<img src=""stim_listB/argue5.gif""</stim_listB>",,html-keyboard-response,87,612140,0.0-13.0-1.14,72119,List1B,white,woman,,,,null,,,,
null,is arguing with,,html-keyboard-response,88,614143,0.0-13.0-2.14,72119,List1B,white,woman,,,,null,,,,
9705,,,survey-text,89,623848,0.0-13.0-3.14,72119,List1B,white,woman,,,,,"{""Q0"":""luke is arguing with mike""}","<img src=""stim_listB/argue5.gif""</stim_listB>",is arguing with,
null,"<div style=""font-size:60px;"">+</div>",,html-keyboard-response,90,624350,0.0-13.0-0.15,72119,List1B,white,woman,,,,null,,,,
null,"<img src=""stim_listB/meet2.gif""</stim_listB>",,html-keyboard-response,91,626352,0.0-13.0-1.15,72119,List1B,white,woman,,,,null,,,,
null,are meeting each other,,html-keyboard-response,92,628354,0.0-13.0-2.15,72119,List1B,white,woman,,,,null,,,,
11802,,,survey-text,93,640158,0.0-13.0-3.15,72119,List1B,white,woman,,,,,"{""Q0"":""fred and beth are meeting each other""}","<img src=""stim_listB/meet2.gif""</stim_listB>",are meeting each other,
null,"<div style=""font-size:60px;"">+</div>",,html-keyboard-response,94,640661,0.0-13.0-0.16,72119,List1B,white,woman,,,,null,,,,
null,"<img src=""stim_listB/argue2.gif""</stim_listB>",,html-keyboard-response,95,642670,0.0-13.0-1.16,72119,List1B,white,woman,,,,null,,,,
null,are arguing with each other,,html-keyboard-response,96,644677,0.0-13.0-2.16,72119,List1B,white,woman,,,,null,,,,
13718,,,survey-text,97,658398,0.0-13.0-3.16,72119,List1B,white,woman,,,,,"{""Q0"":""No image was shown, just the phrase \""are arguing with each other\""""}","<img src=""stim_listB/argue2.gif""</stim_listB>",are arguing with each other,
null,"<div style=""font-size:60px;"">+</div>",,html-keyboard-response,98,658900,0.0-13.0-0.17,72119,List1B,white,woman,,,,null,,,,
null,"<img src=""stim_listB/shout1.gif""</stim_listB>",,html-keyboard-response,99,660904,0.0-13.0-1.17,72119,List1B,white,woman,,,,null,,,,
null,is shouting at,,html-keyboard-response,100,662906,0.0-13.0-2.17,72119,List1B,white,woman,,,,null,,,,
4073,,,survey-text,101,666981,0.0-13.0-3.17,72119,List1B,white,woman,,,,,"{""Q0"":""No image shown""}","<img src=""stim_listB/shout1.gif""</stim_listB>",is shouting at,
null,"<div style=""font-size:60px;"">+</div>",,html-keyboard-response,102,667484,0.0-13.0-0.18,72119,List1B,white,woman,,,,null,,,,
null,"<img src=""stim_listB/hug3.gif""</stim_listB>",,html-keyboard-response,103,669490,0.0-13.0-1.18,72119,List1B,white,woman,,,,null,,,,
null,is hugging,,html-keyboard-response,104,671497,0.0-13.0-2.18,72119,List1B,white,woman,,,,null,,,,
4080,,,survey-text,105,675580,0.0-13.0-3.18,72119,List1B,white,woman,,,,,"{""Q0"":""no image shown""}","<img src=""stim_listB/hug3.gif""</stim_listB>",is hugging,
null,"<div style=""font-size:60px;"">+</div>",,html-keyboard-response,106,676083,0.0-13.0-0.19,72119,List1B,white,woman,,,,null,,,,
null,"<img src=""stim_listB/talk8.gif""</stim_listB>",,html-keyboard-response,107,678087,0.0-13.0-1.19,72119,List1B,white,woman,,,,null,,,,
null,are talking to each other,,html-keyboard-response,108,680089,0.0-13.0-2.19,72119,List1B,white,woman,,,,null,,,,
3680,,,survey-text,109,683771,0.0-13.0-3.19,72119,List1B,white,woman,,,,,"{""Q0"":""no image shown""}","<img src=""stim_listB/talk8.gif""</stim_listB>",are talking to each other,
22707,"<img src='img/portrait_matrix_list1.JPG' style='width:900px;height:500px;''></img><p>If you have memorised all the portraits and names and are ready to start, press Continue.</p><p><strong>Please note: Your memory of these faces will be tested 4 times during this experiment.</strong></p>",0,html-button-response,110,706481,0.0-14.0-0.0,72119,List1B,white,woman,,,,,,,,
3001,"<img src=""portrait/BW1.jpg""style=""width:400px;height:400px;""></img>",0,html-button-response,111,710489,0.0-14.0-1.0,72119,List1B,white,woman,,TRUE,0,,,,,
null,CORRECT,,html-keyboard-response,112,711995,0.0-14.0-2.0-0.0,72119,List1B,white,woman,,,,null,,,,
3747,"<img src=""portrait/BM1.jpg""style=""width:400px;height:400px;""></img>",4,html-button-response,113,715747,0.0-14.0-4.0,72119,List1B,white,woman,,TRUE,4,,,,,
null,CORRECT,,html-keyboard-response,114,717253,0.0-14.0-5.0-0.0,72119,List1B,white,woman,,,,null,,,,
2938,"<img src=""portrait/WM1.jpg""style=""width:400px;height:400px;""></img>",6,html-button-response,115,720194,0.0-14.0-7.0,72119,List1B,white,woman,,TRUE,6,,,,,
null,CORRECT,,html-keyboard-response,116,721698,0.0-14.0-8.0-0.0,72119,List1B,white,woman,,,,null,,,,
1983,"<img src=""portrait/WW1.jpg""style=""width:400px;height:400px;""></img>",1,html-button-response,117,723683,0.0-14.0-10.0,72119,List1B,white,woman,,TRUE,1,,,,,
null,CORRECT,,html-keyboard-response,118,725189,0.0-14.0-11.0-0.0,72119,List1B,white,woman,,,,null,,,,
3032,"<img src=""portrait/BW2.jpg""style=""width:400px;height:400px;""></img>",2,html-button-response,119,728222,0.0-14.0-13.0,72119,List1B,white,woman,,TRUE,2,,,,,
null,CORRECT,,html-keyboard-response,120,729729,0.0-14.0-14.0-0.0,72119,List1B,white,woman,,,,null,,,,
4066,"<img src=""portrait/BM2.jpg""style=""width:400px;height:400px;""></img>",5,html-button-response,121,733797,0.0-14.0-16.0,72119,List1B,white,woman,,TRUE,5,,,,,
null,CORRECT,,html-keyboard-response,122,735300,0.0-14.0-17.0-0.0,72119,List1B,white,woman,,,,null,,,,
2444,"<img src=""portrait/WW2.jpg""style=""width:400px;height:400px;""></img>",3,html-button-response,123,737746,0.0-14.0-19.0,72119,List1B,white,woman,,TRUE,3,,,,,
null,CORRECT,,html-keyboard-response,124,739252,0.0-14.0-20.0-0.0,72119,List1B,white,woman,,,,null,,,,
2969,"<img src=""portrait/WM2.jpg""style=""width:400px;height:400px;""></img>",7,html-button-response,125,742221,0.0-14.0-22.0,72119,List1B,white,woman,,TRUE,7,,,,,
null,CORRECT,,html-keyboard-response,126,743726,0.0-14.0-23.0-0.0,72119,List1B,white,woman,,,,null,,,,
1294,<p>You got 8 out of 8 right first time. Press Continue.</p>,0,html-button-response,127,745021,0.0-14.0-25.0,72119,List1B,white,woman,,,,,,,,
null,"<div style=""font-size:60px;"">+</div>",,html-keyboard-response,128,746528,0.0-15.0-0.0,72119,List1B,white,woman,,,,null,,,,
null,"<img src=""stim_listB/talk1.gif""</stim_listB>",,html-keyboard-response,129,748533,0.0-15.0-1.0,72119,List1B,white,woman,,,,null,,,,
null,is talking to,,html-keyboard-response,130,750535,0.0-15.0-2.0,72119,List1B,white,woman,,,,null,,,,
6398,,,survey-text,131,756934,0.0-15.0-3.0,72119,List1B,white,woman,,,,,"{""Q0"":""kate is talking to fred""}","<img src=""stim_listB/talk1.gif""</stim_listB>",is talking to,
null,"<div style=""font-size:60px;"">+</div>",,html-keyboard-response,132,757437,0.0-15.0-0.1,72119,List1B,white,woman,,,,null,,,,
null,"<img src=""stim_listB/meet1.gif""</stim_listB>",,html-keyboard-response,133,759442,0.0-15.0-1.1,72119,List1B,white,woman,,,,null,,,,
null,is meeting,,html-keyboard-response,134,761448,0.0-15.0-2.1,72119,List1B,white,woman,,,,null,,,,
5781,,,survey-text,135,767232,0.0-15.0-3.1,72119,List1B,white,woman,,,,,"{""Q0"":""kate is meeting mike""}","<img src=""stim_listB/meet1.gif""</stim_listB>",is meeting,
null,"<div style=""font-size:60px;"">+</div>",,html-keyboard-response,136,767735,0.0-15.0-0.2,72119,List1B,white,woman,,,,null,,,,
null,"<img src=""stim_listB/shout7.gif""</stim_listB>",,html-keyboard-response,137,769738,0.0-15.0-1.2,72119,List1B,white,woman,,,,null,,,,
null,is shouting at,,html-keyboard-response,138,771741,0.0-15.0-2.2,72119,List1B,white,woman,,,,null,,,,
5995,,,survey-text,139,777737,0.0-15.0-3.2,72119,List1B,white,woman,,,,,"{""Q0"":""ruth is shouting at beth""}","<img src=""stim_listB/shout7.gif""</stim_listB>",is shouting at,
null,"<div style=""font-size:60px;"">+</div>",,html-keyboard-response,140,778239,0.0-15.0-0.3,72119,List1B,white,woman,,,,null,,,,
null,"<img src=""stim_listB/touch2.gif""</stim_listB>",,html-keyboard-response,141,780245,0.0-15.0-1.3,72119,List1B,white,woman,,,,null,,,,
null,are touching each other,,html-keyboard-response,142,782248,0.0-15.0-2.3,72119,List1B,white,woman,,,,null,,,,
11507,,,survey-text,143,793756,0.0-15.0-3.3,72119,List1B,white,woman,,,,,"{""Q0"":""fred and kate are touching each other""}","<img src=""stim_listB/touch2.gif""</stim_listB>",are touching each other,
null,"<div style=""font-size:60px;"">+</div>",,html-keyboard-response,144,794258,0.0-15.0-0.4,72119,List1B,white,woman,,,,null,,,,
null,"<img src=""stim_listB/touch1.gif""</stim_listB>",,html-keyboard-response,145,796264,0.0-15.0-1.4,72119,List1B,white,woman,,,,null,,,,
null,is touching,,html-keyboard-response,146,798265,0.0-15.0-2.4,72119,List1B,white,woman,,,,null,,,,
5109,,,survey-text,147,803376,0.0-15.0-3.4,72119,List1B,white,woman,,,,,"{""Q0"":""kate is touching mike""}","<img src=""stim_listB/touch1.gif""</stim_listB>",is touching,
null,"<div style=""font-size:60px;"">+</div>",,html-keyboard-response,148,803878,0.0-15.0-0.5,72119,List1B,white,woman,,,,null,,,,
null,"<img src=""stim_listB/meet3.gif""</stim_listB>",,html-keyboard-response,149,805886,0.0-15.0-1.5,72119,List1B,white,woman,,,,null,,,,
null,is meeting,,html-keyboard-response,150,807896,0.0-15.0-2.5,72119,List1B,white,woman,,,,null,,,,
5641,,,survey-text,151,813542,0.0-15.0-3.5,72119,List1B,white,woman,,,,,"{""Q0"":""jane is meeting dave""}","<img src=""stim_listB/meet3.gif""</stim_listB>",is meeting,
null,"<div style=""font-size:60px;"">+</div>",,html-keyboard-response,152,814049,0.0-15.0-0.6,72119,List1B,white,woman,,,,null,,,,
null,"<img src=""stim_listB/marry3.gif""</stim_listB>",,html-keyboard-response,153,816057,0.0-15.0-1.6,72119,List1B,white,woman,,,,null,,,,
null,is marrying,,html-keyboard-response,154,818066,0.0-15.0-2.6,72119,List1B,white,woman,,,,null,,,,
5386,,,survey-text,155,823454,0.0-15.0-3.6,72119,List1B,white,woman,,,,,"{""Q0"":""ruth is marrying dave""}","<img src=""stim_listB/marry3.gif""</stim_listB>",is marrying,
null,"<div style=""font-size:60px;"">+</div>",,html-keyboard-response,156,823958,0.0-15.0-0.7,72119,List1B,white,woman,,,,null,,,,
null,"<img src=""stim_listB/talk2.gif""</stim_listB>",,html-keyboard-response,157,825960,0.0-15.0-1.7,72119,List1B,white,woman,,,,null,,,,
null,are talking to each other,,html-keyboard-response,158,827964,0.0-15.0-2.7,72119,List1B,white,woman,,,,null,,,,
9258,,,survey-text,159,837224,0.0-15.0-3.7,72119,List1B,white,woman,,,,,"{""Q0"":""dave and kate are talking to each other""}","<img src=""stim_listB/talk2.gif""</stim_listB>",are talking to each other,
null,"<div style=""font-size:60px;"">+</div>",,html-keyboard-response,160,837727,0.0-15.0-0.8,72119,List1B,white,woman,,,,null,,,,
null,"<img src=""stim_listB/fight4.gif""</stim_listB>",,html-keyboard-response,161,839729,0.0-15.0-1.8,72119,List1B,white,woman,,,,null,,,,
null,are fighting each other,,html-keyboard-response,162,841733,0.0-15.0-2.8,72119,List1B,white,woman,,,,null,,,,
12543,,,survey-text,163,854279,0.0-15.0-3.8,72119,List1B,white,woman,,,,,"{""Q0"":""luke and ruth are fighting each other""}","<img src=""stim_listB/fight4.gif""</stim_listB>",are fighting each other,
null,"<div style=""font-size:60px;"">+</div>",,html-keyboard-response,164,854781,0.0-15.0-0.9,72119,List1B,white,woman,,,,null,,,,
null,"<img src=""stim_listB/shout6.gif""</stim_listB>",,html-keyboard-response,165,856786,0.0-15.0-1.9,72119,List1B,white,woman,,,,null,,,,
null,are shouting at each other,,html-keyboard-response,166,858788,0.0-15.0-2.9,72119,List1B,white,woman,,,,null,,,,
8448,,,survey-text,167,867240,0.0-15.0-3.9,72119,List1B,white,woman,,,,,"{""Q0"":""mike and dave are shouting at each other""}","<img src=""stim_listB/shout6.gif""</stim_listB>",are shouting at each other,
null,"<div style=""font-size:60px;"">+</div>",,html-keyboard-response,168,867743,0.0-15.0-0.10,72119,List1B,white,woman,,,,null,,,,
null,"<img src=""stim_listB/touch5.gif""</stim_listB>",,html-keyboard-response,169,869749,0.0-15.0-1.10,72119,List1B,white,woman,,,,null,,,,
null,is touching,,html-keyboard-response,170,871752,0.0-15.0-2.10,72119,List1B,white,woman,,,,null,,,,
4751,,,survey-text,171,876505,0.0-15.0-3.10,72119,List1B,white,woman,,,,,"{""Q0"":""dave is touching mike""}","<img src=""stim_listB/touch5.gif""</stim_listB>",is touching,
null,"<div style=""font-size:60px;"">+</div>",,html-keyboard-response,172,877007,0.0-15.0-0.11,72119,List1B,white,woman,,,,null,,,,
null,"<img src=""stim_listB/kiss7.gif""</stim_listB>",,html-keyboard-response,173,879009,0.0-15.0-1.11,72119,List1B,white,woman,,,,null,,,,
null,is kissing,,html-keyboard-response,174,881010,0.0-15.0-2.11,72119,List1B,white,woman,,,,null,,,,
4884,,,survey-text,175,885897,0.0-15.0-3.11,72119,List1B,white,woman,,,,,"{""Q0"":""ruth is kissing beth""}","<img src=""stim_listB/kiss7.gif""</stim_listB>",is kissing,
null,"<div style=""font-size:60px;"">+</div>",,html-keyboard-response,176,886398,0.0-15.0-0.12,72119,List1B,white,woman,,,,null,,,,
null,"<img src=""stim_listB/talk6.gif""</stim_listB>",,html-keyboard-response,177,888401,0.0-15.0-1.12,72119,List1B,white,woman,,,,null,,,,
null,are talking to each other,,html-keyboard-response,178,890404,0.0-15.0-2.12,72119,List1B,white,woman,,,,null,,,,
8699,,,survey-text,179,899107,0.0-15.0-3.12,72119,List1B,white,woman,,,,,"{""Q0"":""mike and luke are talking to each other""}","<img src=""stim_listB/talk6.gif""</stim_listB>",are talking to each other,
null,"<div style=""font-size:60px;"">+</div>",,html-keyboard-response,180,899611,0.0-15.0-0.13,72119,List1B,white,woman,,,,null,,,,
null,"<img src=""stim_listB/meet5.gif""</stim_listB>",,html-keyboard-response,181,901618,0.0-15.0-1.13,72119,List1B,white,woman,,,,null,,,,
null,is meeting,,html-keyboard-response,182,903622,0.0-15.0-2.13,72119,List1B,white,woman,,,,null,,,,
7257,,,survey-text,183,910880,0.0-15.0-3.13,72119,List1B,white,woman,,,,,"{""Q0"":""dave is meeting mike""}","<img src=""stim_listB/meet5.gif""</stim_listB>",is meeting,
null,"<div style=""font-size:60px;"">+</div>",,html-keyboard-response,184,911383,0.0-15.0-0.14,72119,List1B,white,woman,,,,null,,,,
null,"<img src=""stim_listB/marry2.gif""</stim_listB>",,html-keyboard-response,185,913386,0.0-15.0-1.14,72119,List1B,white,woman,,,,null,,,,
null,are marrying each other,,html-keyboard-response,186,915389,0.0-15.0-2.14,72119,List1B,white,woman,,,,null,,,,
6739,,,survey-text,187,922130,0.0-15.0-3.14,72119,List1B,white,woman,,,,,"{""Q0"":""fred and kate are marrying each other""}","<img src=""stim_listB/marry2.gif""</stim_listB>",are marrying each other,
null,"<div style=""font-size:60px;"">+</div>",,html-keyboard-response,188,922632,0.0-15.0-0.15,72119,List1B,white,woman,,,,null,,,,
null,"<img src=""stim_listB/marry7.gif""</stim_listB>",,html-keyboard-response,189,924637,0.0-15.0-1.15,72119,List1B,white,woman,,,,null,,,,
null,is marrying,,html-keyboard-response,190,926639,0.0-15.0-2.15,72119,List1B,white,woman,,,,null,,,,
8039,,,survey-text,191,934678,0.0-15.0-3.15,72119,List1B,white,woman,,,,,"{""Q0"":""ruth is marrying kate""}","<img src=""stim_listB/marry7.gif""</stim_listB>",is marrying,
null,"<div style=""font-size:60px;"">+</div>",,html-keyboard-response,192,935184,0.0-15.0-0.16,72119,List1B,white,woman,,,,null,,,,
null,"<img src=""stim_listB/shout2.gif""</stim_listB>",,html-keyboard-response,193,937186,0.0-15.0-1.16,72119,List1B,white,woman,,,,null,,,,
null,are shouting at each other,,html-keyboard-response,194,939190,0.0-15.0-2.16,72119,List1B,white,woman,,,,null,,,,
10278,,,survey-text,195,949470,0.0-15.0-3.16,72119,List1B,white,woman,,,,,"{""Q0"":""mike and kate are shouting at each other""}","<img src=""stim_listB/shout2.gif""</stim_listB>",are shouting at each other,
null,"<div style=""font-size:60px;"">+</div>",,html-keyboard-response,196,949970,0.0-15.0-0.17,72119,List1B,white,woman,,,,null,,,,
null,"<img src=""stim_listB/marry8.gif""</stim_listB>",,html-keyboard-response,197,951973,0.0-15.0-1.17,72119,List1B,white,woman,,,,null,,,,
null,are marrying each other,,html-keyboard-response,198,953976,0.0-15.0-2.17,72119,List1B,white,woman,,,,null,,,,
13257,,,survey-text,199,967234,0.0-15.0-3.17,72119,List1B,white,woman,,,,,"{""Q0"":""No image was shown, just hte phrase \""are marrying each other\""""}","<img src=""stim_listB/marry8.gif""</stim_listB>",are marrying each other,
null,"<div style=""font-size:60px;"">+</div>",,html-keyboard-response,200,967737,0.0-15.0-0.18,72119,List1B,white,woman,,,,null,,,,
null,"<img src=""stim_listB/talk4.gif""</stim_listB>",,html-keyboard-response,201,969742,0.0-15.0-1.18,72119,List1B,white,woman,,,,null,,,,
null,are talking to each other,,html-keyboard-response,202,971744,0.0-15.0-2.18,72119,List1B,white,woman,,,,null,,,,
8393,,,survey-text,203,980138,0.0-15.0-3.18,72119,List1B,white,woman,,,,,"{""Q0"":""dave and ruth are talking to each other""}","<img src=""stim_listB/talk4.gif""</stim_listB>",are talking to each other,
null,"<div style=""font-size:60px;"">+</div>",,html-keyboard-response,204,980641,0.0-15.0-0.19,72119,List1B,white,woman,,,,null,,,,
null,"<img src=""stim_listB/talk3.gif""</stim_listB>",,html-keyboard-response,205,982645,0.0-15.0-1.19,72119,List1B,white,woman,,,,null,,,,
null,is talking to,,html-keyboard-response,206,984651,0.0-15.0-2.19,72119,List1B,white,woman,,,,null,,,,
6418,,,survey-text,207,991070,0.0-15.0-3.19,72119,List1B,white,woman,,,,,"{""Q0"":""jane is talking to luke""}","<img src=""stim_listB/talk3.gif""</stim_listB>",is talking to,
12714,"<img src='img/portrait_matrix_list1.JPG' style='width:900px;height:500px;''></img><p>If you have memorised all the portraits and names and are ready to start, press Continue.</p><p><strong>Please note: Your memory of these faces will be tested 4 times during this experiment.</strong></p>",0,html-button-response,208,1003788,0.0-16.0-0.0,72119,List1B,white,woman,,,,,,,,
2759,"<img src=""portrait/BM2.jpg""style=""width:400px;height:400px;""></img>",5,html-button-response,209,1007553,0.0-16.0-1.0,72119,List1B,white,woman,,TRUE,5,,,,,
null,CORRECT,,html-keyboard-response,210,1009060,0.0-16.0-2.0-0.0,72119,List1B,white,woman,,,,null,,,,
2169,"<img src=""portrait/BW1.jpg""style=""width:400px;height:400px;""></img>",0,html-button-response,211,1011235,0.0-16.0-4.0,72119,List1B,white,woman,,TRUE,0,,,,,
null,CORRECT,,html-keyboard-response,212,1012748,0.0-16.0-5.0-0.0,72119,List1B,white,woman,,,,null,,,,
2421,"<img src=""portrait/WM2.jpg""style=""width:400px;height:400px;""></img>",7,html-button-response,213,1015173,0.0-16.0-7.0,72119,List1B,white,woman,,TRUE,7,,,,,
null,CORRECT,,html-keyboard-response,214,1016684,0.0-16.0-8.0-0.0,72119,List1B,white,woman,,,,null,,,,
3740,"<img src=""portrait/BM1.jpg""style=""width:400px;height:400px;""></img>",4,html-button-response,215,1020427,0.0-16.0-10.0,72119,List1B,white,woman,,TRUE,4,,,,,
null,CORRECT,,html-keyboard-response,216,1021931,0.0-16.0-11.0-0.0,72119,List1B,white,woman,,,,null,,,,
2086,"<img src=""portrait/WW1.jpg""style=""width:400px;height:400px;""></img>",1,html-button-response,217,1024021,0.0-16.0-13.0,72119,List1B,white,woman,,TRUE,1,,,,,
null,CORRECT,,html-keyboard-response,218,1025527,0.0-16.0-14.0-0.0,72119,List1B,white,woman,,,,null,,,,
2600,"<img src=""portrait/WM1.jpg""style=""width:400px;height:400px;""></img>",6,html-button-response,219,1028130,0.0-16.0-16.0,72119,List1B,white,woman,,TRUE,6,,,,,
null,CORRECT,,html-keyboard-response,220,1029635,0.0-16.0-17.0-0.0,72119,List1B,white,woman,,,,null,,,,
2471,"<img src=""portrait/BW2.jpg""style=""width:400px;height:400px;""></img>",2,html-button-response,221,1032108,0.0-16.0-19.0,72119,List1B,white,woman,,TRUE,2,,,,,
null,CORRECT,,html-keyboard-response,222,1033613,0.0-16.0-20.0-0.0,72119,List1B,white,woman,,,,null,,,,
1781,"<img src=""portrait/WW2.jpg""style=""width:400px;height:400px;""></img>",3,html-button-response,223,1035397,0.0-16.0-22.0,72119,List1B,white,woman,,TRUE,3,,,,,
null,CORRECT,,html-keyboard-response,224,1036908,0.0-16.0-23.0-0.0,72119,List1B,white,woman,,,,null,,,,
1267,<p>You got 8 out of 8 right first time. Press Continue.</p>,0,html-button-response,225,1038179,0.0-16.0-25.0,72119,List1B,white,woman,,,,,,,,
null,"<div style=""font-size:60px;"">+</div>",,html-keyboard-response,226,1039688,0.0-17.0-0.0,72119,List1B,white,woman,,,,null,,,,
null,"<img src=""stim_listB/argue3.gif""</stim_listB>",,html-keyboard-response,227,1041691,0.0-17.0-1.0,72119,List1B,white,woman,,,,null,,,,
null,is arguing with,,html-keyboard-response,228,1043694,0.0-17.0-2.0,72119,List1B,white,woman,,,,null,,,,
5175,,,survey-text,229,1048871,0.0-17.0-3.0,72119,List1B,white,woman,,,,,"{""Q0"":""No image was shown""}","<img src=""stim_listB/argue3.gif""</stim_listB>",is arguing with,
null,"<div style=""font-size:60px;"">+</div>",,html-keyboard-response,230,1049373,0.0-17.0-0.1,72119,List1B,white,woman,,,,null,,,,
null,"<img src=""stim_listB/argue8.gif""</stim_listB>",,html-keyboard-response,231,1051374,0.0-17.0-1.1,72119,List1B,white,woman,,,,null,,,,
null,are arguing with each other,,html-keyboard-response,232,1053378,0.0-17.0-2.1,72119,List1B,white,woman,,,,null,,,,
8061,,,survey-text,233,1061443,0.0-17.0-3.1,72119,List1B,white,woman,,,,,"{""Q0"":""beth and jane are arguing with each other""}","<img src=""stim_listB/argue8.gif""</stim_listB>",are arguing with each other,
null,"<div style=""font-size:60px;"">+</div>",,html-keyboard-response,234,1061948,0.0-17.0-0.2,72119,List1B,white,woman,,,,null,,,,
null,"<img src=""stim_listB/marry1.gif""</stim_listB>",,html-keyboard-response,235,1063951,0.0-17.0-1.2,72119,List1B,white,woman,,,,null,,,,
null,is marrying,,html-keyboard-response,236,1065956,0.0-17.0-2.2,72119,List1B,white,woman,,,,null,,,,
6825,,,survey-text,237,1072784,0.0-17.0-3.2,72119,List1B,white,woman,,,,,"{""Q0"":""beth is marrying mike""}","<img src=""stim_listB/marry1.gif""</stim_listB>",is marrying,
null,"<div style=""font-size:60px;"">+</div>",,html-keyboard-response,238,1073288,0.0-17.0-0.3,72119,List1B,white,woman,,,,null,,,,
null,"<img src=""stim_listB/hug6.gif""</stim_listB>",,html-keyboard-response,239,1075292,0.0-17.0-1.3,72119,List1B,white,woman,,,,null,,,,
null,are hugging each other,,html-keyboard-response,240,1077294,0.0-17.0-2.3,72119,List1B,white,woman,,,,null,,,,
10132,,,survey-text,241,1087426,0.0-17.0-3.3,72119,List1B,white,woman,,,,,"{""Q0"":""mike and dave are hugging each other""}","<img src=""stim_listB/hug6.gif""</stim_listB>",are hugging each other,
null,"<div style=""font-size:60px;"">+</div>",,html-keyboard-response,242,1087929,0.0-17.0-0.4,72119,List1B,white,woman,,,,null,,,,
null,"<img src=""stim_listB/dance7.gif""</stim_listB>",,html-keyboard-response,243,1089938,0.0-17.0-1.4,72119,List1B,white,woman,,,,null,,,,
null,is dancing with,,html-keyboard-response,244,1091941,0.0-17.0-2.4,72119,List1B,white,woman,,,,null,,,,
5852,,,survey-text,245,1097794,0.0-17.0-3.4,72119,List1B,white,woman,,,,,"{""Q0"":""jane is dancing with beth""}","<img src=""stim_listB/dance7.gif""</stim_listB>",is dancing with,
null,"<div style=""font-size:60px;"">+</div>",,html-keyboard-response,246,1098297,0.0-17.0-0.5,72119,List1B,white,woman,,,,null,,,,
null,"<img src=""stim_listB/shout4.gif""</stim_listB>",,html-keyboard-response,247,1100301,0.0-17.0-1.5,72119,List1B,white,woman,,,,null,,,,
null,are shouting at each other,,html-keyboard-response,248,1102303,0.0-17.0-2.5,72119,List1B,white,woman,,,,null,,,,
8344,,,survey-text,249,1110647,0.0-17.0-3.5,72119,List1B,white,woman,,,,,"{""Q0"":""dave and jane are shouting at each other""}","<img src=""stim_listB/shout4.gif""</stim_listB>",are shouting at each other,
null,"<div style=""font-size:60px;"">+</div>",,html-keyboard-response,250,1111150,0.0-17.0-0.6,72119,List1B,white,woman,,,,null,,,,
null,"<img src=""stim_listB/kiss5.gif""</stim_listB>",,html-keyboard-response,251,1113157,0.0-17.0-1.6,72119,List1B,white,woman,,,,null,,,,
null,is kissing,,html-keyboard-response,252,1115162,0.0-17.0-2.6,72119,List1B,white,woman,,,,null,,,,
5933,,,survey-text,253,1121095,0.0-17.0-3.6,72119,List1B,white,woman,,,,,"{""Q0"":""luke is kissing fred""}","<img src=""stim_listB/kiss5.gif""</stim_listB>",is kissing,
null,"<div style=""font-size:60px;"">+</div>",,html-keyboard-response,254,1121602,0.0-17.0-0.7,72119,List1B,white,woman,,,,null,,,,
null,"<img src=""stim_listB/fight7.gif""</stim_listB>",,html-keyboard-response,255,1123608,0.0-17.0-1.7,72119,List1B,white,woman,,,,null,,,,
null,is fighting,,html-keyboard-response,256,1125611,0.0-17.0-2.7,72119,List1B,white,woman,,,,null,,,,
7173,,,survey-text,257,1132786,0.0-17.0-3.7,72119,List1B,white,woman,,,,,"{""Q0"":""no image was shown""}","<img src=""stim_listB/fight7.gif""</stim_listB>",is fighting,
null,"<div style=""font-size:60px;"">+</div>",,html-keyboard-response,258,1133289,0.0-17.0-0.8,72119,List1B,white,woman,,,,null,,,,
null,"<img src=""stim_listB/touch6.gif""</stim_listB>",,html-keyboard-response,259,1135293,0.0-17.0-1.8,72119,List1B,white,woman,,,,null,,,,
null,are touching each other,,html-keyboard-response,260,1137296,0.0-17.0-2.8,72119,List1B,white,woman,,,,null,,,,
9078,,,survey-text,261,1146376,0.0-17.0-3.8,72119,List1B,white,woman,,,,,"{""Q0"":""fred and luke are touching each other""}","<img src=""stim_listB/touch6.gif""</stim_listB>",are touching each other,
null,"<div style=""font-size:60px;"">+</div>",,html-keyboard-response,262,1146877,0.0-17.0-0.9,72119,List1B,white,woman,,,,null,,,,
null,"<img src=""stim_listB/meet8.gif""</stim_listB>",,html-keyboard-response,263,1148885,0.0-17.0-1.9,72119,List1B,white,woman,,,,null,,,,
null,are meeting each other,,html-keyboard-response,264,1150889,0.0-17.0-2.9,72119,List1B,white,woman,,,,null,,,,
7399,,,survey-text,265,1158295,0.0-17.0-3.9,72119,List1B,white,woman,,,,,"{""Q0"":""beth and ruth are meeting each other""}","<img src=""stim_listB/meet8.gif""</stim_listB>",are meeting each other,
null,"<div style=""font-size:60px;"">+</div>",,html-keyboard-response,266,1158799,0.0-17.0-0.10,72119,List1B,white,woman,,,,null,,,,
null,"<img src=""stim_listB/marry5.gif""</stim_listB>",,html-keyboard-response,267,1160804,0.0-17.0-1.10,72119,List1B,white,woman,,,,null,,,,
null,is marrying,,html-keyboard-response,268,1162811,0.0-17.0-2.10,72119,List1B,white,woman,,,,null,,,,
7774,,,survey-text,269,1170587,0.0-17.0-3.10,72119,List1B,white,woman,,,,,"{""Q0"":""luke is marrying mike""}","<img src=""stim_listB/marry5.gif""</stim_listB>",is marrying,
null,"<div style=""font-size:60px;"">+</div>",,html-keyboard-response,270,1171091,0.0-17.0-0.11,72119,List1B,white,woman,,,,null,,,,
null,"<img src=""stim_listB/marry4.gif""</stim_listB>",,html-keyboard-response,271,1173097,0.0-17.0-1.11,72119,List1B,white,woman,,,,null,,,,
null,are marrying each other,,html-keyboard-response,272,1175099,0.0-17.0-2.11,72119,List1B,white,woman,,,,null,,,,
11747,,,survey-text,273,1186850,0.0-17.0-3.11,72119,List1B,white,woman,,,,,"{""Q0"":""luke and jane are marrying each other""}","<img src=""stim_listB/marry4.gif""</stim_listB>",are marrying each other,
null,"<div style=""font-size:60px;"">+</div>",,html-keyboard-response,274,1187355,0.0-17.0-0.12,72119,List1B,white,woman,,,,null,,,,
null,"<img src=""stim_listB/meet7.gif""</stim_listB>",,html-keyboard-response,275,1189358,0.0-17.0-1.12,72119,List1B,white,woman,,,,null,,,,
null,is meeting,,html-keyboard-response,276,1191360,0.0-17.0-2.12,72119,List1B,white,woman,,,,null,,,,
5808,,,survey-text,277,1197170,0.0-17.0-3.12,72119,List1B,white,woman,,,,,"{""Q0"":""jane is meeting beth""}","<img src=""stim_listB/meet7.gif""</stim_listB>",is meeting,
null,"<div style=""font-size:60px;"">+</div>",,html-keyboard-response,278,1197673,0.0-17.0-0.13,72119,List1B,white,woman,,,,null,,,,
null,"<img src=""stim_listB/kiss8.gif""</stim_listB>",,html-keyboard-response,279,1199676,0.0-17.0-1.13,72119,List1B,white,woman,,,,null,,,,
null,are kissing each other,,html-keyboard-response,280,1201682,0.0-17.0-2.13,72119,List1B,white,woman,,,,null,,,,
9599,,,survey-text,281,1211282,0.0-17.0-3.13,72119,List1B,white,woman,,,,,"{""Q0"":""kate and jane are kissing each other""}","<img src=""stim_listB/kiss8.gif""</stim_listB>",are kissing each other,
null,"<div style=""font-size:60px;"">+</div>",,html-keyboard-response,282,1211788,0.0-17.0-0.14,72119,List1B,white,woman,,,,null,,,,
null,"<img src=""stim_listB/touch7.gif""</stim_listB>",,html-keyboard-response,283,1213796,0.0-17.0-1.14,72119,List1B,white,woman,,,,null,,,,
null,is touching,,html-keyboard-response,284,1215800,0.0-17.0-2.14,72119,List1B,white,woman,,,,null,,,,
5703,,,survey-text,285,1221506,0.0-17.0-3.14,72119,List1B,white,woman,,,,,"{""Q0"":""no image was shown""}","<img src=""stim_listB/touch7.gif""</stim_listB>",is touching,
null,"<div style=""font-size:60px;"">+</div>",,html-keyboard-response,286,1222008,0.0-17.0-0.15,72119,List1B,white,woman,,,,null,,,,
null,"<img src=""stim_listB/fight8.gif""</stim_listB>",,html-keyboard-response,287,1224013,0.0-17.0-1.15,72119,List1B,white,woman,,,,null,,,,
null,are fighting each other,,html-keyboard-response,288,1226014,0.0-17.0-2.15,72119,List1B,white,woman,,,,null,,,,
8196,,,survey-text,289,1234213,0.0-17.0-3.15,72119,List1B,white,woman,,,,,"{""Q0"":""beth and ruth are fighting each other""}","<img src=""stim_listB/fight8.gif""</stim_listB>",are fighting each other,
null,"<div style=""font-size:60px;"">+</div>",,html-keyboard-response,290,1234715,0.0-17.0-0.16,72119,List1B,white,woman,,,,null,,,,
null,"<img src=""stim_listB/dance6.gif""</stim_listB>",,html-keyboard-response,291,1236720,0.0-17.0-1.16,72119,List1B,white,woman,,,,null,,,,
null,are dancing with each other,,html-keyboard-response,292,1238723,0.0-17.0-2.16,72119,List1B,white,woman,,,,null,,,,
9725,,,survey-text,293,1248452,0.0-17.0-3.16,72119,List1B,white,woman,,,,,"{""Q0"":""mike and luke are dancing with each other""}","<img src=""stim_listB/dance6.gif""</stim_listB>",are dancing with each other,
null,"<div style=""font-size:60px;"">+</div>",,html-keyboard-response,294,1248956,0.0-17.0-0.17,72119,List1B,white,woman,,,,null,,,,
null,"<img src=""stim_listB/hug2.gif""</stim_listB>",,html-keyboard-response,295,1250962,0.0-17.0-1.17,72119,List1B,white,woman,,,,null,,,,
null,are hugging each other,,html-keyboard-response,296,1252965,0.0-17.0-2.17,72119,List1B,white,woman,,,,null,,,,
8028,,,survey-text,297,1260994,0.0-17.0-3.17,72119,List1B,white,woman,,,,,"{""Q0"":""mike and kate are hugging each other""}","<img src=""stim_listB/hug2.gif""</stim_listB>",are hugging each other,
null,"<div style=""font-size:60px;"">+</div>",,html-keyboard-response,298,1261498,0.0-17.0-0.18,72119,List1B,white,woman,,,,null,,,,
null,"<img src=""stim_listB/kiss1.gif""</stim_listB>",,html-keyboard-response,299,1263501,0.0-17.0-1.18,72119,List1B,white,woman,,,,null,,,,
null,is kissing,,html-keyboard-response,300,1265503,0.0-17.0-2.18,72119,List1B,white,woman,,,,null,,,,
4830,,,survey-text,301,1270335,0.0-17.0-3.18,72119,List1B,white,woman,,,,,"{""Q0"":""beth is kissing fred""}","<img src=""stim_listB/kiss1.gif""</stim_listB>",is kissing,
null,"<div style=""font-size:60px;"">+</div>",,html-keyboard-response,302,1270838,0.0-17.0-0.19,72119,List1B,white,woman,,,,null,,,,
null,"<img src=""stim_listB/marry6.gif""</stim_listB>",,html-keyboard-response,303,1272843,0.0-17.0-1.19,72119,List1B,white,woman,,,,null,,,,
null,are marrying each other,,html-keyboard-response,304,1274844,0.0-17.0-2.19,72119,List1B,white,woman,,,,null,,,,
8576,,,survey-text,305,1283421,0.0-17.0-3.19,72119,List1B,white,woman,,,,,"{""Q0"":""fred and dave are marrying each other""}","<img src=""stim_listB/marry6.gif""</stim_listB>",are marrying each other,
7062,"<img src='img/portrait_matrix_list1.JPG' style='width:900px;height:500px;''></img><p>If you have memorised all the portraits and names and are ready to start, press Continue.</p><p><strong>Please note: Your memory of these faces will be tested 4 times during this experiment.</strong></p>",0,html-button-response,306,1290485,0.0-18.0-0.0,72119,List1B,white,woman,,,,,,,,
2649,"<img src=""portrait/WW2.jpg""style=""width:400px;height:400px;""></img>",3,html-button-response,307,1294141,0.0-18.0-1.0,72119,List1B,white,woman,,TRUE,3,,,,,
null,CORRECT,,html-keyboard-response,308,1295648,0.0-18.0-2.0-0.0,72119,List1B,white,woman,,,,null,,,,
2521,"<img src=""portrait/WM2.jpg""style=""width:400px;height:400px;""></img>",7,html-button-response,309,1298178,0.0-18.0-4.0,72119,List1B,white,woman,,TRUE,7,,,,,
null,CORRECT,,html-keyboard-response,310,1299690,0.0-18.0-5.0-0.0,72119,List1B,white,woman,,,,null,,,,
2484,"<img src=""portrait/WM1.jpg""style=""width:400px;height:400px;""></img>",6,html-button-response,311,1302182,0.0-18.0-7.0,72119,List1B,white,woman,,TRUE,6,,,,,
null,CORRECT,,html-keyboard-response,312,1303686,0.0-18.0-8.0-0.0,72119,List1B,white,woman,,,,null,,,,
2160,"<img src=""portrait/BW1.jpg""style=""width:400px;height:400px;""></img>",0,html-button-response,313,1305852,0.0-18.0-10.0,72119,List1B,white,woman,,TRUE,0,,,,,
null,CORRECT,,html-keyboard-response,314,1307359,0.0-18.0-11.0-0.0,72119,List1B,white,woman,,,,null,,,,
1492,"<img src=""portrait/WW1.jpg""style=""width:400px;height:400px;""></img>",1,html-button-response,315,1308858,0.0-18.0-13.0,72119,List1B,white,woman,,TRUE,1,,,,,
null,CORRECT,,html-keyboard-response,316,1310365,0.0-18.0-14.0-0.0,72119,List1B,white,woman,,,,null,,,,
4811,"<img src=""portrait/BM2.jpg""style=""width:400px;height:400px;""></img>",5,html-button-response,317,1315180,0.0-18.0-16.0,72119,List1B,white,woman,,TRUE,5,,,,,
null,CORRECT,,html-keyboard-response,318,1316687,0.0-18.0-17.0-0.0,72119,List1B,white,woman,,,,null,,,,
3486,"<img src=""portrait/BW2.jpg""style=""width:400px;height:400px;""></img>",2,html-button-response,319,1320176,0.0-18.0-19.0,72119,List1B,white,woman,,TRUE,2,,,,,
null,CORRECT,,html-keyboard-response,320,1321681,0.0-18.0-20.0-0.0,72119,List1B,white,woman,,,,null,,,,
2832,"<img src=""portrait/BM1.jpg""style=""width:400px;height:400px;""></img>",4,html-button-response,321,1324515,0.0-18.0-22.0,72119,List1B,white,woman,,TRUE,4,,,,,
null,CORRECT,,html-keyboard-response,322,1326021,0.0-18.0-23.0-0.0,72119,List1B,white,woman,,,,null,,,,
1258,<p>You got 8 out of 8 right first time. Press Continue.</p>,0,html-button-response,323,1327284,0.0-18.0-25.0,72119,List1B,white,woman,,,,,,,,
null,"<div style=""font-size:60px;"">+</div>",,html-keyboard-response,324,1328791,0.0-19.0-0.0,72119,List1B,white,woman,,,,null,,,,
null,"<img src=""stim_listB/kiss4.gif""</stim_listB>",,html-keyboard-response,325,1330798,0.0-19.0-1.0,72119,List1B,white,woman,,,,null,,,,
null,are kissing each other,,html-keyboard-response,326,1332803,0.0-19.0-2.0,72119,List1B,white,woman,,,,null,,,,
10238,,,survey-text,327,1343043,0.0-19.0-3.0,72119,List1B,white,woman,,,,,"{""Q0"":""dave and jane are kissing each other""}","<img src=""stim_listB/kiss4.gif""</stim_listB>",are kissing each other,
null,"<div style=""font-size:60px;"">+</div>",,html-keyboard-response,328,1343545,0.0-19.0-0.1,72119,List1B,white,woman,,,,null,,,,
null,"<img src=""stim_listB/touch4.gif""</stim_listB>",,html-keyboard-response,329,1345546,0.0-19.0-1.1,72119,List1B,white,woman,,,,null,,,,
null,are touching each other,,html-keyboard-response,330,1347549,0.0-19.0-2.1,72119,List1B,white,woman,,,,null,,,,
7505,,,survey-text,331,1355058,0.0-19.0-3.1,72119,List1B,white,woman,,,,,"{""Q0"":""luke and ruth are kissing each other""}","<img src=""stim_listB/touch4.gif""</stim_listB>",are touching each other,
null,"<div style=""font-size:60px;"">+</div>",,html-keyboard-response,332,1355562,0.0-19.0-0.2,72119,List1B,white,woman,,,,null,,,,
null,"<img src=""stim_listB/fight1.gif""</stim_listB>",,html-keyboard-response,333,1357571,0.0-19.0-1.2,72119,List1B,white,woman,,,,null,,,,
null,is fighting,,html-keyboard-response,334,1359575,0.0-19.0-2.2,72119,List1B,white,woman,,,,null,,,,
5520,,,survey-text,335,1365097,0.0-19.0-3.2,72119,List1B,white,woman,,,,,"{""Q0"":""kate is fighting mike""}","<img src=""stim_listB/fight1.gif""</stim_listB>",is fighting,
null,"<div style=""font-size:60px;"">+</div>",,html-keyboard-response,336,1365600,0.0-19.0-0.3,72119,List1B,white,woman,,,,null,,,,
null,"<img src=""stim_listB/fight3.gif""</stim_listB>",,html-keyboard-response,337,1367606,0.0-19.0-1.3,72119,List1B,white,woman,,,,null,,,,
null,is fighting,,html-keyboard-response,338,1369608,0.0-19.0-2.3,72119,List1B,white,woman,,,,null,,,,
4410,,,survey-text,339,1374020,0.0-19.0-3.3,72119,List1B,white,woman,,,,,"{""Q0"":""No image was shown""}","<img src=""stim_listB/fight3.gif""</stim_listB>",is fighting,
null,"<div style=""font-size:60px;"">+</div>",,html-keyboard-response,340,1374524,0.0-19.0-0.4,72119,List1B,white,woman,,,,null,,,,
null,"<img src=""stim_listB/fight2.gif""</stim_listB>",,html-keyboard-response,341,1376527,0.0-19.0-1.4,72119,List1B,white,woman,,,,null,,,,
null,are fighting each other,,html-keyboard-response,342,1378529,0.0-19.0-2.4,72119,List1B,white,woman,,,,null,,,,
7448,,,survey-text,343,1385980,0.0-19.0-3.4,72119,List1B,white,woman,,,,,"{""Q0"":""fred and beth are fighting each other""}","<img src=""stim_listB/fight2.gif""</stim_listB>",are fighting each other,
null,"<div style=""font-size:60px;"">+</div>",,html-keyboard-response,344,1386485,0.0-19.0-0.5,72119,List1B,white,woman,,,,null,,,,
null,"<img src=""stim_listB/talk5.gif""</stim_listB>",,html-keyboard-response,345,1388491,0.0-19.0-1.5,72119,List1B,white,woman,,,,null,,,,
null,is talking to,,html-keyboard-response,346,1390492,0.0-19.0-2.5,72119,List1B,white,woman,,,,null,,,,
4553,,,survey-text,347,1395048,0.0-19.0-3.5,72119,List1B,white,woman,,,,,"{""Q0"":""dave is talking to fred""}","<img src=""stim_listB/talk5.gif""</stim_listB>",is talking to,
null,"<div style=""font-size:60px;"">+</div>",,html-keyboard-response,348,1395550,0.0-19.0-0.6,72119,List1B,white,woman,,,,null,,,,
null,"<img src=""stim_listB/meet4.gif""</stim_listB>",,html-keyboard-response,349,1397555,0.0-19.0-1.6,72119,List1B,white,woman,,,,null,,,,
null,are meeting each other,,html-keyboard-response,350,1399556,0.0-19.0-2.6,72119,List1B,white,woman,,,,null,,,,
8253,,,survey-text,351,1407810,0.0-19.0-3.6,72119,List1B,white,woman,,,,,"{""Q0"":""luke and ruth are meeting each other""}","<img src=""stim_listB/meet4.gif""</stim_listB>",are meeting each other,
null,"<div style=""font-size:60px;"">+</div>",,html-keyboard-response,352,1408312,0.0-19.0-0.7,72119,List1B,white,woman,,,,null,,,,
null,"<img src=""stim_listB/hug5.gif""</stim_listB>",,html-keyboard-response,353,1410315,0.0-19.0-1.7,72119,List1B,white,woman,,,,null,,,,
null,is hugging,,html-keyboard-response,354,1412321,0.0-19.0-2.7,72119,List1B,white,woman,,,,null,,,,
5006,,,survey-text,355,1417329,0.0-19.0-3.7,72119,List1B,white,woman,,,,,"{""Q0"":""luke is hugging fred""}","<img src=""stim_listB/hug5.gif""</stim_listB>",is hugging,
null,"<div style=""font-size:60px;"">+</div>",,html-keyboard-response,356,1417831,0.0-19.0-0.8,72119,List1B,white,woman,,,,null,,,,
null,"<img src=""stim_listB/argue1.gif""</stim_listB>",,html-keyboard-response,357,1419833,0.0-19.0-1.8,72119,List1B,white,woman,,,,null,,,,
null,is arguing with,,html-keyboard-response,358,1421837,0.0-19.0-2.8,72119,List1B,white,woman,,,,null,,,,
5522,,,survey-text,359,1427359,0.0-19.0-3.8,72119,List1B,white,woman,,,,,"{""Q0"":""beth is arguing with mike""}","<img src=""stim_listB/argue1.gif""</stim_listB>",is arguing with,
null,"<div style=""font-size:60px;"">+</div>",,html-keyboard-response,360,1427862,0.0-19.0-0.9,72119,List1B,white,woman,,,,null,,,,
null,"<img src=""stim_listB/hug8.gif""</stim_listB>",,html-keyboard-response,361,1429864,0.0-19.0-1.9,72119,List1B,white,woman,,,,null,,,,
null,are hugging each other,,html-keyboard-response,362,1431868,0.0-19.0-2.9,72119,List1B,white,woman,,,,null,,,,
7887,,,survey-text,363,1439755,0.0-19.0-3.9,72119,List1B,white,woman,,,,,"{""Q0"":""kate and jane are hugging each other""}","<img src=""stim_listB/hug8.gif""</stim_listB>",are hugging each other,
null,"<div style=""font-size:60px;"">+</div>",,html-keyboard-response,364,1440261,0.0-19.0-0.10,72119,List1B,white,woman,,,,null,,,,
null,"<img src=""stim_listB/kiss6.gif""</stim_listB>",,html-keyboard-response,365,1442264,0.0-19.0-1.10,72119,List1B,white,woman,,,,null,,,,
null,are kissing each other,,html-keyboard-response,366,1444267,0.0-19.0-2.10,72119,List1B,white,woman,,,,null,,,,
7420,,,survey-text,367,1451688,0.0-19.0-3.10,72119,List1B,white,woman,,,,,"{""Q0"":""mike and dave are kissing each other""}","<img src=""stim_listB/kiss6.gif""</stim_listB>",are kissing each other,
null,"<div style=""font-size:60px;"">+</div>",,html-keyboard-response,368,1452190,0.0-19.0-0.11,72119,List1B,white,woman,,,,null,,,,
null,"<img src=""stim_listB/dance5.gif""</stim_listB>",,html-keyboard-response,369,1454194,0.0-19.0-1.11,72119,List1B,white,woman,,,,null,,,,
null,is dancing with,,html-keyboard-response,370,1456196,0.0-19.0-2.11,72119,List1B,white,woman,,,,null,,,,
5528,,,survey-text,371,1461727,0.0-19.0-3.11,72119,List1B,white,woman,,,,,"{""Q0"":""dave is dancing with fred""}","<img src=""stim_listB/dance5.gif""</stim_listB>",is dancing with,
null,"<div style=""font-size:60px;"">+</div>",,html-keyboard-response,372,1462229,0.0-19.0-0.12,72119,List1B,white,woman,,,,null,,,,
null,"<img src=""stim_listB/dance2.gif""</stim_listB>",,html-keyboard-response,373,1464236,0.0-19.0-1.12,72119,List1B,white,woman,,,,null,,,,
null,are dancing with each other,,html-keyboard-response,374,1466243,0.0-19.0-2.12,72119,List1B,white,woman,,,,null,,,,
7104,,,survey-text,375,1473348,0.0-19.0-3.12,72119,List1B,white,woman,,,,,"{""Q0"":""mike and beth are dancing with each other""}","<img src=""stim_listB/dance2.gif""</stim_listB>",are dancing with each other,
null,"<div style=""font-size:60px;"">+</div>",,html-keyboard-response,376,1473850,0.0-19.0-0.13,72119,List1B,white,woman,,,,null,,,,
null,"<img src=""stim_listB/shout5.gif""</stim_listB>",,html-keyboard-response,377,1475853,0.0-19.0-1.13,72119,List1B,white,woman,,,,null,,,,
null,is shouting at,,html-keyboard-response,378,1477855,0.0-19.0-2.13,72119,List1B,white,woman,,,,null,,,,
7800,,,survey-text,379,1485657,0.0-19.0-3.13,72119,List1B,white,woman,,,,,"{""Q0"":""luke is shuoting at fred""}","<img src=""stim_listB/shout5.gif""</stim_listB>",is shouting at,
null,"<div style=""font-size:60px;"">+</div>",,html-keyboard-response,380,1486159,0.0-19.0-0.14,72119,List1B,white,woman,,,,null,,,,
null,"<img src=""stim_listB/fight6.gif""</stim_listB>",,html-keyboard-response,381,1488163,0.0-19.0-1.14,72119,List1B,white,woman,,,,null,,,,
null,are fighting each other,,html-keyboard-response,382,1490168,0.0-19.0-2.14,72119,List1B,white,woman,,,,null,,,,
8309,,,survey-text,383,1498478,0.0-19.0-3.14,72119,List1B,white,woman,,,,,"{""Q0"":""fred and luke are fighting each other""}","<img src=""stim_listB/fight6.gif""</stim_listB>",are fighting each other,
null,"<div style=""font-size:60px;"">+</div>",,html-keyboard-response,384,1498980,0.0-19.0-0.15,72119,List1B,white,woman,,,,null,,,,
null,"<img src=""stim_listB/talk7.gif""</stim_listB>",,html-keyboard-response,385,1500984,0.0-19.0-1.15,72119,List1B,white,woman,,,,null,,,,
null,is talking to,,html-keyboard-response,386,1502986,0.0-19.0-2.15,72119,List1B,white,woman,,,,null,,,,
4369,,,survey-text,387,1507356,0.0-19.0-3.15,72119,List1B,white,woman,,,,,"{""Q0"":""jane is talking to beth""}","<img src=""stim_listB/talk7.gif""</stim_listB>",is talking to,
null,"<div style=""font-size:60px;"">+</div>",,html-keyboard-response,388,1507861,0.0-19.0-0.16,72119,List1B,white,woman,,,,null,,,,
null,"<img src=""stim_listB/shout3.gif""</stim_listB>",,html-keyboard-response,389,1509865,0.0-19.0-1.16,72119,List1B,white,woman,,,,null,,,,
null,is shouting at,,html-keyboard-response,390,1511867,0.0-19.0-2.16,72119,List1B,white,woman,,,,null,,,,
6288,,,survey-text,391,1518157,0.0-19.0-3.16,72119,List1B,white,woman,,,,,"{""Q0"":""ruth is shouting at luke""}","<img src=""stim_listB/shout3.gif""</stim_listB>",is shouting at,
null,"<div style=""font-size:60px;"">+</div>",,html-keyboard-response,392,1518660,0.0-19.0-0.17,72119,List1B,white,woman,,,,null,,,,
null,"<img src=""stim_listB/dance8.gif""</stim_listB>",,html-keyboard-response,393,1520663,0.0-19.0-1.17,72119,List1B,white,woman,,,,null,,,,
null,are dancing with each other,,html-keyboard-response,394,1522663,0.0-19.0-2.17,72119,List1B,white,woman,,,,null,,,,
7429,,,survey-text,395,1530096,0.0-19.0-3.17,72119,List1B,white,woman,,,,,"{""Q0"":""kate and ruth are dancing with each other""}","<img src=""stim_listB/dance8.gif""</stim_listB>",are dancing with each other,
null,"<div style=""font-size:60px;"">+</div>",,html-keyboard-response,396,1530602,0.0-19.0-0.18,72119,List1B,white,woman,,,,null,,,,
null,"<img src=""stim_listB/dance1.gif""</stim_listB>",,html-keyboard-response,397,1532610,0.0-19.0-1.18,72119,List1B,white,woman,,,,null,,,,
null,is dancing with,,html-keyboard-response,398,1534619,0.0-19.0-2.18,72119,List1B,white,woman,,,,null,,,,
5714,,,survey-text,399,1540336,0.0-19.0-3.18,72119,List1B,white,woman,,,,,"{""Q0"":""kate is dancing with fred""}","<img src=""stim_listB/dance1.gif""</stim_listB>",is dancing with,
null,"<div style=""font-size:60px;"">+</div>",,html-keyboard-response,400,1540838,0.0-19.0-0.19,72119,List1B,white,woman,,,,null,,,,
null,"<img src=""stim_listB/argue7.gif""</stim_listB>",,html-keyboard-response,401,1542845,0.0-19.0-1.19,72119,List1B,white,woman,,,,null,,,,
null,is arguing with,,html-keyboard-response,402,1544847,0.0-19.0-2.19,72119,List1B,white,woman,,,,null,,,,
4522,,,survey-text,403,1549371,0.0-19.0-3.19,72119,List1B,white,woman,,,,,"{""Q0"":""No image was shown""}","<img src=""stim_listB/argue7.gif""</stim_listB>",is arguing with,
2363,<p>Thank you for completing that task.</p><p>The final part of this session is a short questionnaire.</p><p>Press Continue.</p>,0,html-button-response,404,1551737,0.0-20.0,72119,List1B,white,woman,,,,,,,,
16005,,,survey-text,405,1568749,0.0-21.0,72119,List1B,white,woman,,,,,"{""Q0"":""39"",""Q1"":""English"",""Q2"":""English"",""Q3"":""Australia"",""Q4"":""white"",""Q5"":""female""}",,,demographics
65833,,,survey-likert,406,1634603,0.0-22.0,72119,List1B,white,woman,,,,,"{""Q0"":2,""Q1"":0,""Q2"":1,""Q3"":3,""Q4"":2,""Q5"":4,""Q6"":2,""Q7"":1,""Q8"":5,""Q9"":3,""Q10"":4,""Q11"":4,""Q12"":3,""Q13"":2}",,,likert_race
63090,,,survey-likert,407,1697701,0.0-23.0,72119,List1B,white,woman,,,,,"{""Q0"":4,""Q1"":4,""Q2"":4,""Q3"":3,""Q4"":3,""Q5"":3,""Q6"":2,""Q7"":1,""Q8"":5,""Q9"":5,""Q10"":2,""Q11"":2,""Q12"":4,""Q13"":1}",,,likert_gender
19031,,,survey-text,408,1716738,0.0-24.0,72119,List1B,white,woman,,,,,"{""Q0"":""ccc""}",,,worker_id
31508,,,external-html,409,1749059,0.0-25.0,72119,List1B,white,woman,debrief.html,,,,,,,
