rt,stimulus,button_pressed,trial_type,trial_index,time_elapsed,internal_node_id,subject,list,ppt_race,ppt_gender,url,first_guess,correct,key_press,responses,image_type,phrase_type,test_part
2237,Welcome to the experiment. Press Continue to begin.,0,html-button-response,0,2262,0.0-0.0,7283,List2B,white,man,,,,,,,,
24733,,,external-html,1,28163,0.0-1.0,7283,List2B,white,man,consent.html,,,,,,,
9077,"<p>On the next page, you will see portraits of 8 people and their names.</p><p>Your first task is to take a few minutes to memorise the names of these people.</p><p>You will have to recall their names during the rest of the experiment, so it is</p><p>essential that you try to memorise these people and their names as best as you can.</p><br><p><strong>You will then be tested on your memory of these names and portraits.</strong></p><br><p>The experiment will start after you have completed this memory test.</p><br><p>Ready?</p>",0,html-button-response,2,37243,0.0-2.0,7283,List2B,white,man,,,,,,,,
77068,"<img src='img/portrait_matrix_list2.JPG' style='width:900px;height:500px;''></img><p>If you have memorised all the portraits and names and are ready to start, press Continue.</p><p><strong>Please note: Your memory of these faces will be tested 4 times during this experiment.</strong></p>",0,html-button-response,3,115313,0.0-3.0-0.0,7283,List2B,white,man,,,,,,,,
4511,"<img src=""portrait/WM2.jpg""style=""width:400px;height:400px;""></img>",7,html-button-response,4,120827,0.0-3.0-1.0,7283,List2B,white,man,,TRUE,7,,,,,
null,CORRECT,,html-keyboard-response,5,122330,0.0-3.0-2.0-0.0,7283,List2B,white,man,,,,null,,,,
5287,"<img src=""portrait/WM1.jpg""style=""width:400px;height:400px;""></img>",6,html-button-response,6,127619,0.0-3.0-4.0,7283,List2B,white,man,,TRUE,6,,,,,
null,CORRECT,,html-keyboard-response,7,129122,0.0-3.0-5.0-0.0,7283,List2B,white,man,,,,null,,,,
4596,"<img src=""portrait/BW2.jpg""style=""width:400px;height:400px;""></img>",2,html-button-response,8,133719,0.0-3.0-7.0,7283,List2B,white,man,,TRUE,2,,,,,
null,CORRECT,,html-keyboard-response,9,135220,0.0-3.0-8.0-0.0,7283,List2B,white,man,,,,null,,,,
4367,"<img src=""portrait/BM2.jpg""style=""width:400px;height:400px;""></img>",5,html-button-response,10,139588,0.0-3.0-10.0,7283,List2B,white,man,,TRUE,5,,,,,
null,CORRECT,,html-keyboard-response,11,141090,0.0-3.0-11.0-0.0,7283,List2B,white,man,,,,null,,,,
7573,"<img src=""portrait/BW1.jpg""style=""width:400px;height:400px;""></img>",0,html-button-response,12,148664,0.0-3.0-13.0,7283,List2B,white,man,,TRUE,0,,,,,
null,CORRECT,,html-keyboard-response,13,150166,0.0-3.0-14.0-0.0,7283,List2B,white,man,,,,null,,,,
7405,"<img src=""portrait/BM1.jpg""style=""width:400px;height:400px;""></img>",4,html-button-response,14,157572,0.0-3.0-16.0,7283,List2B,white,man,,TRUE,4,,,,,
null,CORRECT,,html-keyboard-response,15,159074,0.0-3.0-17.0-0.0,7283,List2B,white,man,,,,null,,,,
5219,"<img src=""portrait/WW2.jpg""style=""width:400px;height:400px;""></img>",3,html-button-response,16,164294,0.0-3.0-19.0,7283,List2B,white,man,,TRUE,3,,,,,
null,CORRECT,,html-keyboard-response,17,165798,0.0-3.0-20.0-0.0,7283,List2B,white,man,,,,null,,,,
4581,"<img src=""portrait/WW1.jpg""style=""width:400px;height:400px;""></img>",1,html-button-response,18,170381,0.0-3.0-22.0,7283,List2B,white,man,,TRUE,1,,,,,
null,CORRECT,,html-keyboard-response,19,171883,0.0-3.0-23.0-0.0,7283,List2B,white,man,,,,null,,,,
1528,<p>You got 8 out of 8 right first time. Press Continue.</p>,0,html-button-response,20,173413,0.0-3.0-25.0,7283,List2B,white,man,,,,,,,,
31751,"<p>In this experiment, you will view photographs of the people from the memory game interacting.</p><p>By using the <strong>exact</strong> phrase given <i>after</i> the photograph appears and recalling the correct names of the people in the photographs, form a sentence describing the interaction. You do not need to capitalise names.</p><p>Type your answer in the space provided. Please complete every sentence before moving onto the next trial.</p><p>You will only have a few seconds to memorise each given photograph and phrase before you can respond, so try your best to focus.</p><p>An example is given below. Press 'Continue' when you are ready.</p><img src='img/speaking_example_v2.jpg' style='width:800px;height:460px;''></img>",0,html-button-response,21,206166,0.0-4.0,7283,List2B,white,man,,,,,,,,
2545,"<p>Before the experiment starts, you will watch two example trials. Press 'Continue'.</p>",0,html-button-response,22,209712,0.0-5.0,7283,List2B,white,man,,,,,,,,
null,<img src='img/speaking_WW.gif'></img>,,html-keyboard-response,23,212715,0.0-6.0,7283,List2B,white,man,,,,null,,,,
null,<p>is speaking to</p>,,html-keyboard-response,24,214717,0.0-7.0,7283,List2B,white,man,,,,null,,,,
5825,<p><b>Answer:</b> jane is speaking to ruth</p>,0,html-button-response,25,220542,0.0-8.0,7283,List2B,white,man,,,,,,,,
null,<img src='img/pointing_BM.gif'></img>,,html-keyboard-response,26,223545,0.0-9.0,7283,List2B,white,man,,,,null,,,,
null,<p>are pointing at each other</p>,,html-keyboard-response,27,225546,0.0-10.0,7283,List2B,white,man,,,,null,,,,
2959,<p><b>Answer:</b> fred and mike are pointing at each other</p>,0,html-button-response,28,228506,0.0-11.0,7283,List2B,white,man,,,,,,,,
4611,"<p>Ready to start the experiment?</p><br><p><strong>Remember to describe the picture using a full sentence,</strong></p><p><strong> that combines the names of the people with the given phrase.</strong></p><p><strong> You do not need to capitalise names or use punctuation.</strong></p><br><p>Press 'Continue' to begin.</p>",0,html-button-response,29,234120,0.0-12.0,7283,List2B,white,man,,,,,,,,
null,"<div style=""font-size:60px;"">+</div>",,html-keyboard-response,30,235622,0.0-13.0-0.0,7283,List2B,white,man,,,,null,,,,
null,"<img src=""stim_listB/kiss3.gif""</stim_listB>",,html-keyboard-response,31,237623,0.0-13.0-1.0,7283,List2B,white,man,,,,null,,,,
null,is kissing,,html-keyboard-response,32,239625,0.0-13.0-2.0,7283,List2B,white,man,,,,null,,,,
18505,,,survey-text,33,258132,0.0-13.0-3.0,7283,List2B,white,man,,,,,"{""Q0"":""Fred is kissing Beth""}","<img src=""stim_listB/kiss3.gif""</stim_listB>",is kissing,
null,"<div style=""font-size:60px;"">+</div>",,html-keyboard-response,34,258634,0.0-13.0-0.1,7283,List2B,white,man,,,,null,,,,
null,"<img src=""stim_listB/shout4.gif""</stim_listB>",,html-keyboard-response,35,260635,0.0-13.0-1.1,7283,List2B,white,man,,,,null,,,,
null,are shouting at each other,,html-keyboard-response,36,262637,0.0-13.0-2.1,7283,List2B,white,man,,,,null,,,,
47076,,,survey-text,37,309714,0.0-13.0-3.1,7283,List2B,white,man,,,,,"{""Q0"":""Mike and Kate are shouting at each other""}","<img src=""stim_listB/shout4.gif""</stim_listB>",are shouting at each other,
null,"<div style=""font-size:60px;"">+</div>",,html-keyboard-response,38,310216,0.0-13.0-0.2,7283,List2B,white,man,,,,null,,,,
null,"<img src=""stim_listB/touch3.gif""</stim_listB>",,html-keyboard-response,39,312217,0.0-13.0-1.2,7283,List2B,white,man,,,,null,,,,
null,is touching,,html-keyboard-response,40,314218,0.0-13.0-2.2,7283,List2B,white,man,,,,null,,,,
16338,,,survey-text,41,330558,0.0-13.0-3.2,7283,List2B,white,man,,,,,"{""Q0"":""Mike is touching Kate""}","<img src=""stim_listB/touch3.gif""</stim_listB>",is touching,
null,"<div style=""font-size:60px;"">+</div>",,html-keyboard-response,42,331060,0.0-13.0-0.3,7283,List2B,white,man,,,,null,,,,
null,"<img src=""stim_listB/marry2.gif""</stim_listB>",,html-keyboard-response,43,333061,0.0-13.0-1.3,7283,List2B,white,man,,,,null,,,,
null,are marrying each other,,html-keyboard-response,44,335062,0.0-13.0-2.3,7283,List2B,white,man,,,,null,,,,
13610,,,survey-text,45,348673,0.0-13.0-3.3,7283,List2B,white,man,,,,,"{""Q0"":""Luke and Jane are marrying each other""}","<img src=""stim_listB/marry2.gif""</stim_listB>",are marrying each other,
null,"<div style=""font-size:60px;"">+</div>",,html-keyboard-response,46,349175,0.0-13.0-0.4,7283,List2B,white,man,,,,null,,,,
null,"<img src=""stim_listB/talk4.gif""</stim_listB>",,html-keyboard-response,47,351176,0.0-13.0-1.4,7283,List2B,white,man,,,,null,,,,
null,are talking to each other,,html-keyboard-response,48,353180,0.0-13.0-2.4,7283,List2B,white,man,,,,null,,,,
13204,,,survey-text,49,366384,0.0-13.0-3.4,7283,List2B,white,man,,,,,"{""Q0"":""Luke and Beth are talking to each other""}","<img src=""stim_listB/talk4.gif""</stim_listB>",are talking to each other,
null,"<div style=""font-size:60px;"">+</div>",,html-keyboard-response,50,366886,0.0-13.0-0.5,7283,List2B,white,man,,,,null,,,,
null,"<img src=""stim_listB/talk8.gif""</stim_listB>",,html-keyboard-response,51,368887,0.0-13.0-1.5,7283,List2B,white,man,,,,null,,,,
null,are talking to each other,,html-keyboard-response,52,370889,0.0-13.0-2.5,7283,List2B,white,man,,,,null,,,,
10978,,,survey-text,53,381868,0.0-13.0-3.5,7283,List2B,white,man,,,,,"{""Q0"":""Beth and Jane are talking to each other""}","<img src=""stim_listB/talk8.gif""</stim_listB>",are talking to each other,
null,"<div style=""font-size:60px;"">+</div>",,html-keyboard-response,54,382369,0.0-13.0-0.6,7283,List2B,white,man,,,,null,,,,
null,"<img src=""stim_listB/argue5.gif""</stim_listB>",,html-keyboard-response,55,384371,0.0-13.0-1.6,7283,List2B,white,man,,,,null,,,,
null,is arguing with,,html-keyboard-response,56,386372,0.0-13.0-2.6,7283,List2B,white,man,,,,null,,,,
10050,,,survey-text,57,396424,0.0-13.0-3.6,7283,List2B,white,man,,,,,"{""Q0"":""Fred is arguing with Dave""}","<img src=""stim_listB/argue5.gif""</stim_listB>",is arguing with,
null,"<div style=""font-size:60px;"">+</div>",,html-keyboard-response,58,396925,0.0-13.0-0.7,7283,List2B,white,man,,,,null,,,,
null,"<img src=""stim_listB/hug8.gif""</stim_listB>",,html-keyboard-response,59,398928,0.0-13.0-1.7,7283,List2B,white,man,,,,null,,,,
null,are hugging each other,,html-keyboard-response,60,400929,0.0-13.0-2.7,7283,List2B,white,man,,,,null,,,,
10134,,,survey-text,61,411063,0.0-13.0-3.7,7283,List2B,white,man,,,,,"{""Q0"":""Jane and Kate are hugging each other""}","<img src=""stim_listB/hug8.gif""</stim_listB>",are hugging each other,
null,"<div style=""font-size:60px;"">+</div>",,html-keyboard-response,62,411565,0.0-13.0-0.8,7283,List2B,white,man,,,,null,,,,
null,"<img src=""stim_listB/shout7.gif""</stim_listB>",,html-keyboard-response,63,413568,0.0-13.0-1.8,7283,List2B,white,man,,,,null,,,,
null,is shouting at,,html-keyboard-response,64,415569,0.0-13.0-2.8,7283,List2B,white,man,,,,null,,,,
12879,,,survey-text,65,428449,0.0-13.0-3.8,7283,List2B,white,man,,,,,"{""Q0"":""Ruth is shouting at Beth""}","<img src=""stim_listB/shout7.gif""</stim_listB>",is shouting at,
null,"<div style=""font-size:60px;"">+</div>",,html-keyboard-response,66,428952,0.0-13.0-0.9,7283,List2B,white,man,,,,null,,,,
null,"<img src=""stim_listB/hug5.gif""</stim_listB>",,html-keyboard-response,67,430953,0.0-13.0-1.9,7283,List2B,white,man,,,,null,,,,
null,is hugging,,html-keyboard-response,68,432955,0.0-13.0-2.9,7283,List2B,white,man,,,,null,,,,
8301,,,survey-text,69,441257,0.0-13.0-3.9,7283,List2B,white,man,,,,,"{""Q0"":""Fred is hugging Luke""}","<img src=""stim_listB/hug5.gif""</stim_listB>",is hugging,
null,"<div style=""font-size:60px;"">+</div>",,html-keyboard-response,70,441758,0.0-13.0-0.10,7283,List2B,white,man,,,,null,,,,
null,"<img src=""stim_listB/fight4.gif""</stim_listB>",,html-keyboard-response,71,443760,0.0-13.0-1.10,7283,List2B,white,man,,,,null,,,,
null,are fighting each other,,html-keyboard-response,72,445761,0.0-13.0-2.10,7283,List2B,white,man,,,,null,,,,
13184,,,survey-text,73,458946,0.0-13.0-3.10,7283,List2B,white,man,,,,,"{""Q0"":""Beth and Fred are fighting each other""}","<img src=""stim_listB/fight4.gif""</stim_listB>",are fighting each other,
null,"<div style=""font-size:60px;"">+</div>",,html-keyboard-response,74,459448,0.0-13.0-0.11,7283,List2B,white,man,,,,null,,,,
null,"<img src=""stim_listB/kiss1.gif""</stim_listB>",,html-keyboard-response,75,461450,0.0-13.0-1.11,7283,List2B,white,man,,,,null,,,,
null,is kissing,,html-keyboard-response,76,463451,0.0-13.0-2.11,7283,List2B,white,man,,,,null,,,,
8733,,,survey-text,77,472184,0.0-13.0-3.11,7283,List2B,white,man,,,,,"{""Q0"":""Ruth is kissing Luke""}","<img src=""stim_listB/kiss1.gif""</stim_listB>",is kissing,
null,"<div style=""font-size:60px;"">+</div>",,html-keyboard-response,78,472686,0.0-13.0-0.12,7283,List2B,white,man,,,,null,,,,
null,"<img src=""stim_listB/kiss7.gif""</stim_listB>",,html-keyboard-response,79,474689,0.0-13.0-1.12,7283,List2B,white,man,,,,null,,,,
null,is kissing,,html-keyboard-response,80,476691,0.0-13.0-2.12,7283,List2B,white,man,,,,null,,,,
9535,,,survey-text,81,486226,0.0-13.0-3.12,7283,List2B,white,man,,,,,"{""Q0"":""Ruth is kissing Beth""}","<img src=""stim_listB/kiss7.gif""</stim_listB>",is kissing,
null,"<div style=""font-size:60px;"">+</div>",,html-keyboard-response,82,486727,0.0-13.0-0.13,7283,List2B,white,man,,,,null,,,,
null,"<img src=""stim_listB/argue7.gif""</stim_listB>",,html-keyboard-response,83,488729,0.0-13.0-1.13,7283,List2B,white,man,,,,null,,,,
null,is arguing with,,html-keyboard-response,84,490730,0.0-13.0-2.13,7283,List2B,white,man,,,,null,,,,
9218,,,survey-text,85,499948,0.0-13.0-3.13,7283,List2B,white,man,,,,,"{""Q0"":""Beth is arguing with Jane""}","<img src=""stim_listB/argue7.gif""</stim_listB>",is arguing with,
null,"<div style=""font-size:60px;"">+</div>",,html-keyboard-response,86,500449,0.0-13.0-0.14,7283,List2B,white,man,,,,null,,,,
null,"<img src=""stim_listB/marry8.gif""</stim_listB>",,html-keyboard-response,87,502451,0.0-13.0-1.14,7283,List2B,white,man,,,,null,,,,
null,are marrying each other,,html-keyboard-response,88,504452,0.0-13.0-2.14,7283,List2B,white,man,,,,null,,,,
14717,,,survey-text,89,519170,0.0-13.0-3.14,7283,List2B,white,man,,,,,"{""Q0"":""Kate and Ruth are marrying each other""}","<img src=""stim_listB/marry8.gif""</stim_listB>",are marrying each other,
null,"<div style=""font-size:60px;"">+</div>",,html-keyboard-response,90,519671,0.0-13.0-0.15,7283,List2B,white,man,,,,null,,,,
null,"<img src=""stim_listB/talk7.gif""</stim_listB>",,html-keyboard-response,91,521673,0.0-13.0-1.15,7283,List2B,white,man,,,,null,,,,
null,is talking to,,html-keyboard-response,92,523674,0.0-13.0-2.15,7283,List2B,white,man,,,,null,,,,
19126,,,survey-text,93,542800,0.0-13.0-3.15,7283,List2B,white,man,,,,,"{""Q0"":""Kate is talking to Ruth""}","<img src=""stim_listB/talk7.gif""</stim_listB>",is talking to,
null,"<div style=""font-size:60px;"">+</div>",,html-keyboard-response,94,543302,0.0-13.0-0.16,7283,List2B,white,man,,,,null,,,,
null,"<img src=""stim_listB/hug2.gif""</stim_listB>",,html-keyboard-response,95,545303,0.0-13.0-1.16,7283,List2B,white,man,,,,null,,,,
null,are hugging each other,,html-keyboard-response,96,547304,0.0-13.0-2.16,7283,List2B,white,man,,,,null,,,,
9389,,,survey-text,97,556694,0.0-13.0-3.16,7283,List2B,white,man,,,,,"{""Q0"":""Jane and Dave are hugging each other""}","<img src=""stim_listB/hug2.gif""</stim_listB>",are hugging each other,
null,"<div style=""font-size:60px;"">+</div>",,html-keyboard-response,98,557196,0.0-13.0-0.17,7283,List2B,white,man,,,,null,,,,
null,"<img src=""stim_listB/dance8.gif""</stim_listB>",,html-keyboard-response,99,559197,0.0-13.0-1.17,7283,List2B,white,man,,,,null,,,,
null,are dancing with each other,,html-keyboard-response,100,561199,0.0-13.0-2.17,7283,List2B,white,man,,,,null,,,,
17805,,,survey-text,101,579004,0.0-13.0-3.17,7283,List2B,white,man,,,,,"{""Q0"":""Jane and Beth are dancing with each other""}","<img src=""stim_listB/dance8.gif""</stim_listB>",are dancing with each other,
null,"<div style=""font-size:60px;"">+</div>",,html-keyboard-response,102,579506,0.0-13.0-0.18,7283,List2B,white,man,,,,null,,,,
null,"<img src=""stim_listB/dance7.gif""</stim_listB>",,html-keyboard-response,103,581507,0.0-13.0-1.18,7283,List2B,white,man,,,,null,,,,
null,is dancing with,,html-keyboard-response,104,583508,0.0-13.0-2.18,7283,List2B,white,man,,,,null,,,,
9773,,,survey-text,105,593282,0.0-13.0-3.18,7283,List2B,white,man,,,,,"{""Q0"":""Kate is dancing with Ruth""}","<img src=""stim_listB/dance7.gif""</stim_listB>",is dancing with,
null,"<div style=""font-size:60px;"">+</div>",,html-keyboard-response,106,593783,0.0-13.0-0.19,7283,List2B,white,man,,,,null,,,,
null,"<img src=""stim_listB/kiss5.gif""</stim_listB>",,html-keyboard-response,107,595787,0.0-13.0-1.19,7283,List2B,white,man,,,,null,,,,
null,is kissing,,html-keyboard-response,108,597788,0.0-13.0-2.19,7283,List2B,white,man,,,,null,,,,
8158,,,survey-text,109,605947,0.0-13.0-3.19,7283,List2B,white,man,,,,,"{""Q0"":""Luke is kissing Fred""}","<img src=""stim_listB/kiss5.gif""</stim_listB>",is kissing,
9191,"<img src='img/portrait_matrix_list2.JPG' style='width:900px;height:500px;''></img><p>If you have memorised all the portraits and names and are ready to start, press Continue.</p><p><strong>Please note: Your memory of these faces will be tested 4 times during this experiment.</strong></p>",0,html-button-response,110,615139,0.0-14.0-0.0,7283,List2B,white,man,,,,,,,,
4128,"<img src=""portrait/WW2.jpg""style=""width:400px;height:400px;""></img>",3,html-button-response,111,620269,0.0-14.0-1.0,7283,List2B,white,man,,TRUE,3,,,,,
null,CORRECT,,html-keyboard-response,112,621771,0.0-14.0-2.0-0.0,7283,List2B,white,man,,,,null,,,,
4421,"<img src=""portrait/BW1.jpg""style=""width:400px;height:400px;""></img>",0,html-button-response,113,626193,0.0-14.0-4.0,7283,List2B,white,man,,TRUE,0,,,,,
null,CORRECT,,html-keyboard-response,114,627695,0.0-14.0-5.0-0.0,7283,List2B,white,man,,,,null,,,,
4327,"<img src=""portrait/BM1.jpg""style=""width:400px;height:400px;""></img>",4,html-button-response,115,632023,0.0-14.0-7.0,7283,List2B,white,man,,TRUE,4,,,,,
null,CORRECT,,html-keyboard-response,116,633525,0.0-14.0-8.0-0.0,7283,List2B,white,man,,,,null,,,,
4619,"<img src=""portrait/BW2.jpg""style=""width:400px;height:400px;""></img>",2,html-button-response,117,638145,0.0-14.0-10.0,7283,List2B,white,man,,TRUE,2,,,,,
null,CORRECT,,html-keyboard-response,118,639647,0.0-14.0-11.0-0.0,7283,List2B,white,man,,,,null,,,,
2651,"<img src=""portrait/WM1.jpg""style=""width:400px;height:400px;""></img>",6,html-button-response,119,642299,0.0-14.0-13.0,7283,List2B,white,man,,TRUE,6,,,,,
null,CORRECT,,html-keyboard-response,120,643803,0.0-14.0-14.0-0.0,7283,List2B,white,man,,,,null,,,,
3487,"<img src=""portrait/BM2.jpg""style=""width:400px;height:400px;""></img>",5,html-button-response,121,647291,0.0-14.0-16.0,7283,List2B,white,man,,TRUE,5,,,,,
null,CORRECT,,html-keyboard-response,122,648793,0.0-14.0-17.0-0.0,7283,List2B,white,man,,,,null,,,,
2197,"<img src=""portrait/WM2.jpg""style=""width:400px;height:400px;""></img>",7,html-button-response,123,650991,0.0-14.0-19.0,7283,List2B,white,man,,TRUE,7,,,,,
null,CORRECT,,html-keyboard-response,124,652494,0.0-14.0-20.0-0.0,7283,List2B,white,man,,,,null,,,,
3528,"<img src=""portrait/WW1.jpg""style=""width:400px;height:400px;""></img>",1,html-button-response,125,656023,0.0-14.0-22.0,7283,List2B,white,man,,TRUE,1,,,,,
null,CORRECT,,html-keyboard-response,126,657525,0.0-14.0-23.0-0.0,7283,List2B,white,man,,,,null,,,,
1404,<p>You got 8 out of 8 right first time. Press Continue.</p>,0,html-button-response,127,658931,0.0-14.0-25.0,7283,List2B,white,man,,,,,,,,
null,"<div style=""font-size:60px;"">+</div>",,html-keyboard-response,128,660433,0.0-15.0-0.0,7283,List2B,white,man,,,,null,,,,
null,"<img src=""stim_listB/kiss8.gif""</stim_listB>",,html-keyboard-response,129,662434,0.0-15.0-1.0,7283,List2B,white,man,,,,null,,,,
null,are kissing each other,,html-keyboard-response,130,664435,0.0-15.0-2.0,7283,List2B,white,man,,,,null,,,,
16326,,,survey-text,131,680762,0.0-15.0-3.0,7283,List2B,white,man,,,,,"{""Q0"":""Jane and Kate are kissing each other""}","<img src=""stim_listB/kiss8.gif""</stim_listB>",are kissing each other,
null,"<div style=""font-size:60px;"">+</div>",,html-keyboard-response,132,681264,0.0-15.0-0.1,7283,List2B,white,man,,,,null,,,,
null,"<img src=""stim_listB/marry4.gif""</stim_listB>",,html-keyboard-response,133,683265,0.0-15.0-1.1,7283,List2B,white,man,,,,null,,,,
null,are marrying each other,,html-keyboard-response,134,685266,0.0-15.0-2.1,7283,List2B,white,man,,,,null,,,,
15449,,,survey-text,135,700716,0.0-15.0-3.1,7283,List2B,white,man,,,,,"{""Q0"":""Kate and Fred are marrying each other""}","<img src=""stim_listB/marry4.gif""</stim_listB>",are marrying each other,
null,"<div style=""font-size:60px;"">+</div>",,html-keyboard-response,136,701218,0.0-15.0-0.2,7283,List2B,white,man,,,,null,,,,
null,"<img src=""stim_listB/dance4.gif""</stim_listB>",,html-keyboard-response,137,703219,0.0-15.0-1.2,7283,List2B,white,man,,,,null,,,,
null,are dancing with each other,,html-keyboard-response,138,705221,0.0-15.0-2.2,7283,List2B,white,man,,,,null,,,,
15604,,,survey-text,139,720825,0.0-15.0-3.2,7283,List2B,white,man,,,,,"{""Q0"":""Mike and Beth are dancing with each other""}","<img src=""stim_listB/dance4.gif""</stim_listB>",are dancing with each other,
null,"<div style=""font-size:60px;"">+</div>",,html-keyboard-response,140,721327,0.0-15.0-0.3,7283,List2B,white,man,,,,null,,,,
null,"<img src=""stim_listB/fight7.gif""</stim_listB>",,html-keyboard-response,141,723328,0.0-15.0-1.3,7283,List2B,white,man,,,,null,,,,
null,is fighting,,html-keyboard-response,142,725329,0.0-15.0-2.3,7283,List2B,white,man,,,,null,,,,
9689,,,survey-text,143,735019,0.0-15.0-3.3,7283,List2B,white,man,,,,,"{""Q0"":""Jane is fighting Kate""}","<img src=""stim_listB/fight7.gif""</stim_listB>",is fighting,
null,"<div style=""font-size:60px;"">+</div>",,html-keyboard-response,144,735521,0.0-15.0-0.4,7283,List2B,white,man,,,,null,,,,
null,"<img src=""stim_listB/shout5.gif""</stim_listB>",,html-keyboard-response,145,737524,0.0-15.0-1.4,7283,List2B,white,man,,,,null,,,,
null,is shouting at,,html-keyboard-response,146,739525,0.0-15.0-2.4,7283,List2B,white,man,,,,null,,,,
9064,,,survey-text,147,748589,0.0-15.0-3.4,7283,List2B,white,man,,,,,"{""Q0"":""Luke is shouting at Fred""}","<img src=""stim_listB/shout5.gif""</stim_listB>",is shouting at,
null,"<div style=""font-size:60px;"">+</div>",,html-keyboard-response,148,749091,0.0-15.0-0.5,7283,List2B,white,man,,,,null,,,,
null,"<img src=""stim_listB/marry5.gif""</stim_listB>",,html-keyboard-response,149,751093,0.0-15.0-1.5,7283,List2B,white,man,,,,null,,,,
null,is marrying,,html-keyboard-response,150,753094,0.0-15.0-2.5,7283,List2B,white,man,,,,null,,,,
7843,,,survey-text,151,760937,0.0-15.0-3.5,7283,List2B,white,man,,,,,"{""Q0"":""Fred is marrying Dave""}","<img src=""stim_listB/marry5.gif""</stim_listB>",is marrying,
null,"<div style=""font-size:60px;"">+</div>",,html-keyboard-response,152,761438,0.0-15.0-0.6,7283,List2B,white,man,,,,null,,,,
null,"<img src=""stim_listB/argue4.gif""</stim_listB>",,html-keyboard-response,153,763440,0.0-15.0-1.6,7283,List2B,white,man,,,,null,,,,
null,are arguing with each other,,html-keyboard-response,154,765441,0.0-15.0-2.6,7283,List2B,white,man,,,,null,,,,
13991,,,survey-text,155,779433,0.0-15.0-3.6,7283,List2B,white,man,,,,,"{""Q0"":""Kate and Fred are arguing with each other""}","<img src=""stim_listB/argue4.gif""</stim_listB>",are arguing with each other,
null,"<div style=""font-size:60px;"">+</div>",,html-keyboard-response,156,779935,0.0-15.0-0.7,7283,List2B,white,man,,,,null,,,,
null,"<img src=""stim_listB/shout8.gif""</stim_listB>",,html-keyboard-response,157,781936,0.0-15.0-1.7,7283,List2B,white,man,,,,null,,,,
null,are shouting at each other,,html-keyboard-response,158,783937,0.0-15.0-2.7,7283,List2B,white,man,,,,null,,,,
15102,,,survey-text,159,799041,0.0-15.0-3.7,7283,List2B,white,man,,,,,"{""Q0"":""Kate and Jane are shouting at each other""}","<img src=""stim_listB/shout8.gif""</stim_listB>",are shouting at each other,
null,"<div style=""font-size:60px;"">+</div>",,html-keyboard-response,160,799543,0.0-15.0-0.8,7283,List2B,white,man,,,,null,,,,
null,"<img src=""stim_listB/dance6.gif""</stim_listB>",,html-keyboard-response,161,801544,0.0-15.0-1.8,7283,List2B,white,man,,,,null,,,,
null,are dancing with each other,,html-keyboard-response,162,803545,0.0-15.0-2.8,7283,List2B,white,man,,,,null,,,,
11250,,,survey-text,163,814797,0.0-15.0-3.8,7283,List2B,white,man,,,,,"{""Q0"":""Fred and Dave are dancing with each other""}","<img src=""stim_listB/dance6.gif""</stim_listB>",are dancing with each other,
null,"<div style=""font-size:60px;"">+</div>",,html-keyboard-response,164,815298,0.0-15.0-0.9,7283,List2B,white,man,,,,null,,,,
null,"<img src=""stim_listB/argue8.gif""</stim_listB>",,html-keyboard-response,165,817300,0.0-15.0-1.9,7283,List2B,white,man,,,,null,,,,
null,are arguing with each other,,html-keyboard-response,166,819301,0.0-15.0-2.9,7283,List2B,white,man,,,,null,,,,
14499,,,survey-text,167,833800,0.0-15.0-3.9,7283,List2B,white,man,,,,,"{""Q0"":""Ruth and Kate are arguing with each other""}","<img src=""stim_listB/argue8.gif""</stim_listB>",are arguing with each other,
null,"<div style=""font-size:60px;"">+</div>",,html-keyboard-response,168,834302,0.0-15.0-0.10,7283,List2B,white,man,,,,null,,,,
null,"<img src=""stim_listB/fight3.gif""</stim_listB>",,html-keyboard-response,169,836304,0.0-15.0-1.10,7283,List2B,white,man,,,,null,,,,
null,is fighting,,html-keyboard-response,170,838305,0.0-15.0-2.10,7283,List2B,white,man,,,,null,,,,
8289,,,survey-text,171,846595,0.0-15.0-3.10,7283,List2B,white,man,,,,,"{""Q0"":""Mike is fighting Kate""}","<img src=""stim_listB/fight3.gif""</stim_listB>",is fighting,
null,"<div style=""font-size:60px;"">+</div>",,html-keyboard-response,172,847096,0.0-15.0-0.11,7283,List2B,white,man,,,,null,,,,
null,"<img src=""stim_listB/argue1.gif""</stim_listB>",,html-keyboard-response,173,849098,0.0-15.0-1.11,7283,List2B,white,man,,,,null,,,,
null,is arguing with,,html-keyboard-response,174,851099,0.0-15.0-2.11,7283,List2B,white,man,,,,null,,,,
18860,,,survey-text,175,869959,0.0-15.0-3.11,7283,List2B,white,man,,,,,"{""Q0"":""Dave is arguing with Ruth""}","<img src=""stim_listB/argue1.gif""</stim_listB>",is arguing with,
null,"<div style=""font-size:60px;"">+</div>",,html-keyboard-response,176,870461,0.0-15.0-0.12,7283,List2B,white,man,,,,null,,,,
null,"<img src=""stim_listB/meet8.gif""</stim_listB>",,html-keyboard-response,177,872462,0.0-15.0-1.12,7283,List2B,white,man,,,,null,,,,
null,are meeting each other,,html-keyboard-response,178,874463,0.0-15.0-2.12,7283,List2B,white,man,,,,null,,,,
18052,,,survey-text,179,892517,0.0-15.0-3.12,7283,List2B,white,man,,,,,"{""Q0"":""Beth and Ruth are meeting each other""}","<img src=""stim_listB/meet8.gif""</stim_listB>",are meeting each other,
null,"<div style=""font-size:60px;"">+</div>",,html-keyboard-response,180,893018,0.0-15.0-0.13,7283,List2B,white,man,,,,null,,,,
null,"<img src=""stim_listB/dance3.gif""</stim_listB>",,html-keyboard-response,181,895019,0.0-15.0-1.13,7283,List2B,white,man,,,,null,,,,
null,is dancing with,,html-keyboard-response,182,897022,0.0-15.0-2.13,7283,List2B,white,man,,,,null,,,,
8883,,,survey-text,183,905906,0.0-15.0-3.13,7283,List2B,white,man,,,,,"{""Q0"":""Kate is dancing with Fred""}","<img src=""stim_listB/dance3.gif""</stim_listB>",is dancing with,
null,"<div style=""font-size:60px;"">+</div>",,html-keyboard-response,184,906407,0.0-15.0-0.14,7283,List2B,white,man,,,,null,,,,
null,"<img src=""stim_listB/marry1.gif""</stim_listB>",,html-keyboard-response,185,908409,0.0-15.0-1.14,7283,List2B,white,man,,,,null,,,,
null,is marrying,,html-keyboard-response,186,910410,0.0-15.0-2.14,7283,List2B,white,man,,,,null,,,,
8319,,,survey-text,187,918730,0.0-15.0-3.14,7283,List2B,white,man,,,,,"{""Q0"":""Ruth is marrying Dave""}","<img src=""stim_listB/marry1.gif""</stim_listB>",is marrying,
null,"<div style=""font-size:60px;"">+</div>",,html-keyboard-response,188,919232,0.0-15.0-0.15,7283,List2B,white,man,,,,null,,,,
null,"<img src=""stim_listB/fight5.gif""</stim_listB>",,html-keyboard-response,189,921233,0.0-15.0-1.15,7283,List2B,white,man,,,,null,,,,
null,is fighting,,html-keyboard-response,190,923235,0.0-15.0-2.15,7283,List2B,white,man,,,,null,,,,
9421,,,survey-text,191,932656,0.0-15.0-3.15,7283,List2B,white,man,,,,,"{""Q0"":""Mike is fighting Dave""}","<img src=""stim_listB/fight5.gif""</stim_listB>",is fighting,
null,"<div style=""font-size:60px;"">+</div>",,html-keyboard-response,192,933157,0.0-15.0-0.16,7283,List2B,white,man,,,,null,,,,
null,"<img src=""stim_listB/talk2.gif""</stim_listB>",,html-keyboard-response,193,935159,0.0-15.0-1.16,7283,List2B,white,man,,,,null,,,,
null,are talking to each other,,html-keyboard-response,194,937160,0.0-15.0-2.16,7283,List2B,white,man,,,,null,,,,
12451,,,survey-text,195,949612,0.0-15.0-3.16,7283,List2B,white,man,,,,,"{""Q0"":""Dave and Ruth are talking to each other""}","<img src=""stim_listB/talk2.gif""</stim_listB>",are talking to each other,
null,"<div style=""font-size:60px;"">+</div>",,html-keyboard-response,196,950114,0.0-15.0-0.17,7283,List2B,white,man,,,,null,,,,
null,"<img src=""stim_listB/meet4.gif""</stim_listB>",,html-keyboard-response,197,952115,0.0-15.0-1.17,7283,List2B,white,man,,,,null,,,,
null,are meeting each other,,html-keyboard-response,198,954116,0.0-15.0-2.17,7283,List2B,white,man,,,,null,,,,
11032,,,survey-text,199,965149,0.0-15.0-3.17,7283,List2B,white,man,,,,,"{""Q0"":""Beth and Fred are meeting each other""}","<img src=""stim_listB/meet4.gif""</stim_listB>",are meeting each other,
null,"<div style=""font-size:60px;"">+</div>",,html-keyboard-response,200,965650,0.0-15.0-0.18,7283,List2B,white,man,,,,null,,,,
null,"<img src=""stim_listB/meet3.gif""</stim_listB>",,html-keyboard-response,201,967651,0.0-15.0-1.18,7283,List2B,white,man,,,,null,,,,
null,is meeting,,html-keyboard-response,202,969653,0.0-15.0-2.18,7283,List2B,white,man,,,,null,,,,
8160,,,survey-text,203,977813,0.0-15.0-3.18,7283,List2B,white,man,,,,,"{""Q0"":""Mike is meeting Kate""}","<img src=""stim_listB/meet3.gif""</stim_listB>",is meeting,
null,"<div style=""font-size:60px;"">+</div>",,html-keyboard-response,204,978315,0.0-15.0-0.19,7283,List2B,white,man,,,,null,,,,
null,"<img src=""stim_listB/hug7.gif""</stim_listB>",,html-keyboard-response,205,980316,0.0-15.0-1.19,7283,List2B,white,man,,,,null,,,,
null,is hugging,,html-keyboard-response,206,982317,0.0-15.0-2.19,7283,List2B,white,man,,,,null,,,,
9528,,,survey-text,207,991847,0.0-15.0-3.19,7283,List2B,white,man,,,,,"{""Q0"":""Beth is hugging Ruth""}","<img src=""stim_listB/hug7.gif""</stim_listB>",is hugging,
5560,"<img src='img/portrait_matrix_list2.JPG' style='width:900px;height:500px;''></img><p>If you have memorised all the portraits and names and are ready to start, press Continue.</p><p><strong>Please note: Your memory of these faces will be tested 4 times during this experiment.</strong></p>",0,html-button-response,208,997409,0.0-16.0-0.0,7283,List2B,white,man,,,,,,,,
3214,"<img src=""portrait/BM2.jpg""style=""width:400px;height:400px;""></img>",5,html-button-response,209,1001625,0.0-16.0-1.0,7283,List2B,white,man,,TRUE,5,,,,,
null,CORRECT,,html-keyboard-response,210,1003128,0.0-16.0-2.0-0.0,7283,List2B,white,man,,,,null,,,,
2165,"<img src=""portrait/WM2.jpg""style=""width:400px;height:400px;""></img>",7,html-button-response,211,1005295,0.0-16.0-4.0,7283,List2B,white,man,,TRUE,7,,,,,
null,CORRECT,,html-keyboard-response,212,1006798,0.0-16.0-5.0-0.0,7283,List2B,white,man,,,,null,,,,
2920,"<img src=""portrait/WW1.jpg""style=""width:400px;height:400px;""></img>",1,html-button-response,213,1009719,0.0-16.0-7.0,7283,List2B,white,man,,TRUE,1,,,,,
null,CORRECT,,html-keyboard-response,214,1011221,0.0-16.0-8.0-0.0,7283,List2B,white,man,,,,null,,,,
2402,"<img src=""portrait/WM1.jpg""style=""width:400px;height:400px;""></img>",6,html-button-response,215,1013625,0.0-16.0-10.0,7283,List2B,white,man,,TRUE,6,,,,,
null,CORRECT,,html-keyboard-response,216,1015127,0.0-16.0-11.0-0.0,7283,List2B,white,man,,,,null,,,,
3829,"<img src=""portrait/BM1.jpg""style=""width:400px;height:400px;""></img>",4,html-button-response,217,1018958,0.0-16.0-13.0,7283,List2B,white,man,,TRUE,4,,,,,
null,CORRECT,,html-keyboard-response,218,1020459,0.0-16.0-14.0-0.0,7283,List2B,white,man,,,,null,,,,
2397,"<img src=""portrait/WW2.jpg""style=""width:400px;height:400px;""></img>",3,html-button-response,219,1022857,0.0-16.0-16.0,7283,List2B,white,man,,TRUE,3,,,,,
null,CORRECT,,html-keyboard-response,220,1024360,0.0-16.0-17.0-0.0,7283,List2B,white,man,,,,null,,,,
2604,"<img src=""portrait/BW2.jpg""style=""width:400px;height:400px;""></img>",2,html-button-response,221,1026966,0.0-16.0-19.0,7283,List2B,white,man,,TRUE,2,,,,,
null,CORRECT,,html-keyboard-response,222,1028468,0.0-16.0-20.0-0.0,7283,List2B,white,man,,,,null,,,,
3290,"<img src=""portrait/BW1.jpg""style=""width:400px;height:400px;""></img>",0,html-button-response,223,1031759,0.0-16.0-22.0,7283,List2B,white,man,,TRUE,0,,,,,
null,CORRECT,,html-keyboard-response,224,1033262,0.0-16.0-23.0-0.0,7283,List2B,white,man,,,,null,,,,
1980,<p>You got 8 out of 8 right first time. Press Continue.</p>,0,html-button-response,225,1035243,0.0-16.0-25.0,7283,List2B,white,man,,,,,,,,
null,"<div style=""font-size:60px;"">+</div>",,html-keyboard-response,226,1036745,0.0-17.0-0.0,7283,List2B,white,man,,,,null,,,,
null,"<img src=""stim_listB/touch4.gif""</stim_listB>",,html-keyboard-response,227,1038747,0.0-17.0-1.0,7283,List2B,white,man,,,,null,,,,
null,are touching each other,,html-keyboard-response,228,1040748,0.0-17.0-2.0,7283,List2B,white,man,,,,null,,,,
15493,,,survey-text,229,1056241,0.0-17.0-3.0,7283,List2B,white,man,,,,,"{""Q0"":""Beth and Fred are touching each other""}","<img src=""stim_listB/touch4.gif""</stim_listB>",are touching each other,
null,"<div style=""font-size:60px;"">+</div>",,html-keyboard-response,230,1056743,0.0-17.0-0.1,7283,List2B,white,man,,,,null,,,,
null,"<img src=""stim_listB/hug4.gif""</stim_listB>",,html-keyboard-response,231,1058745,0.0-17.0-1.1,7283,List2B,white,man,,,,null,,,,
null,are hugging each other,,html-keyboard-response,232,1060746,0.0-17.0-2.1,7283,List2B,white,man,,,,null,,,,
13050,,,survey-text,233,1073797,0.0-17.0-3.1,7283,List2B,white,man,,,,,"{""Q0"":""Mike and Kate are hugging each other""}","<img src=""stim_listB/hug4.gif""</stim_listB>",are hugging each other,
null,"<div style=""font-size:60px;"">+</div>",,html-keyboard-response,234,1074298,0.0-17.0-0.2,7283,List2B,white,man,,,,null,,,,
null,"<img src=""stim_listB/kiss6.gif""</stim_listB>",,html-keyboard-response,235,1076300,0.0-17.0-1.2,7283,List2B,white,man,,,,null,,,,
null,are kissing each other,,html-keyboard-response,236,1078302,0.0-17.0-2.2,7283,List2B,white,man,,,,null,,,,
10937,,,survey-text,237,1089240,0.0-17.0-3.2,7283,List2B,white,man,,,,,"{""Q0"":""Mike and Dave are kissing each other""}","<img src=""stim_listB/kiss6.gif""</stim_listB>",are kissing each other,
null,"<div style=""font-size:60px;"">+</div>",,html-keyboard-response,238,1089742,0.0-17.0-0.3,7283,List2B,white,man,,,,null,,,,
null,"<img src=""stim_listB/meet7.gif""</stim_listB>",,html-keyboard-response,239,1091743,0.0-17.0-1.3,7283,List2B,white,man,,,,null,,,,
null,is meeting,,html-keyboard-response,240,1093745,0.0-17.0-2.3,7283,List2B,white,man,,,,null,,,,
8797,,,survey-text,241,1102542,0.0-17.0-3.3,7283,List2B,white,man,,,,,"{""Q0"":""Jane is meeting Kate""}","<img src=""stim_listB/meet7.gif""</stim_listB>",is meeting,
null,"<div style=""font-size:60px;"">+</div>",,html-keyboard-response,242,1103044,0.0-17.0-0.4,7283,List2B,white,man,,,,null,,,,
null,"<img src=""stim_listB/shout6.gif""</stim_listB>",,html-keyboard-response,243,1105045,0.0-17.0-1.4,7283,List2B,white,man,,,,null,,,,
null,are shouting at each other,,html-keyboard-response,244,1107046,0.0-17.0-2.4,7283,List2B,white,man,,,,null,,,,
12320,,,survey-text,245,1119368,0.0-17.0-3.4,7283,List2B,white,man,,,,,"{""Q0"":""Dave and Mike are shouting at each other""}","<img src=""stim_listB/shout6.gif""</stim_listB>",are shouting at each other,
null,"<div style=""font-size:60px;"">+</div>",,html-keyboard-response,246,1119869,0.0-17.0-0.5,7283,List2B,white,man,,,,null,,,,
null,"<img src=""stim_listB/fight6.gif""</stim_listB>",,html-keyboard-response,247,1121870,0.0-17.0-1.5,7283,List2B,white,man,,,,null,,,,
null,are fighting each other,,html-keyboard-response,248,1123872,0.0-17.0-2.5,7283,List2B,white,man,,,,null,,,,
11191,,,survey-text,249,1135064,0.0-17.0-3.5,7283,List2B,white,man,,,,,"{""Q0"":""Luke and Fred are fighting each other""}","<img src=""stim_listB/fight6.gif""</stim_listB>",are fighting each other,
null,"<div style=""font-size:60px;"">+</div>",,html-keyboard-response,250,1135566,0.0-17.0-0.6,7283,List2B,white,man,,,,null,,,,
null,"<img src=""stim_listB/meet6.gif""</stim_listB>",,html-keyboard-response,251,1137568,0.0-17.0-1.6,7283,List2B,white,man,,,,null,,,,
null,are meeting each other,,html-keyboard-response,252,1139571,0.0-17.0-2.6,7283,List2B,white,man,,,,null,,,,
10195,,,survey-text,253,1149768,0.0-17.0-3.6,7283,List2B,white,man,,,,,"{""Q0"":""Luke and Fred are meeting each other""}","<img src=""stim_listB/meet6.gif""</stim_listB>",are meeting each other,
null,"<div style=""font-size:60px;"">+</div>",,html-keyboard-response,254,1150269,0.0-17.0-0.7,7283,List2B,white,man,,,,null,,,,
null,"<img src=""stim_listB/touch2.gif""</stim_listB>",,html-keyboard-response,255,1152271,0.0-17.0-1.7,7283,List2B,white,man,,,,null,,,,
null,are touching each other,,html-keyboard-response,256,1154272,0.0-17.0-2.7,7283,List2B,white,man,,,,null,,,,
10844,,,survey-text,257,1165117,0.0-17.0-3.7,7283,List2B,white,man,,,,,"{""Q0"":""Luke and Ruth are touching each other""}","<img src=""stim_listB/touch2.gif""</stim_listB>",are touching each other,
null,"<div style=""font-size:60px;"">+</div>",,html-keyboard-response,258,1165620,0.0-17.0-0.8,7283,List2B,white,man,,,,null,,,,
null,"<img src=""stim_listB/marry7.gif""</stim_listB>",,html-keyboard-response,259,1167621,0.0-17.0-1.8,7283,List2B,white,man,,,,null,,,,
null,is marrying,,html-keyboard-response,260,1169622,0.0-17.0-2.8,7283,List2B,white,man,,,,null,,,,
9836,,,survey-text,261,1179459,0.0-17.0-3.8,7283,List2B,white,man,,,,,"{""Q0"":""Beth is marrying Jane""}","<img src=""stim_listB/marry7.gif""</stim_listB>",is marrying,
null,"<div style=""font-size:60px;"">+</div>",,html-keyboard-response,262,1179961,0.0-17.0-0.9,7283,List2B,white,man,,,,null,,,,
null,"<img src=""stim_listB/argue6.gif""</stim_listB>",,html-keyboard-response,263,1181963,0.0-17.0-1.9,7283,List2B,white,man,,,,null,,,,
null,are arguing with each other,,html-keyboard-response,264,1183964,0.0-17.0-2.9,7283,List2B,white,man,,,,null,,,,
12215,,,survey-text,265,1196179,0.0-17.0-3.9,7283,List2B,white,man,,,,,"{""Q0"":""Luke and Mike are arguing with each other""}","<img src=""stim_listB/argue6.gif""</stim_listB>",are arguing with each other,
null,"<div style=""font-size:60px;"">+</div>",,html-keyboard-response,266,1196681,0.0-17.0-0.10,7283,List2B,white,man,,,,null,,,,
null,"<img src=""stim_listB/talk1.gif""</stim_listB>",,html-keyboard-response,267,1198683,0.0-17.0-1.10,7283,List2B,white,man,,,,null,,,,
null,is talking to,,html-keyboard-response,268,1200685,0.0-17.0-2.10,7283,List2B,white,man,,,,null,,,,
7451,,,survey-text,269,1208136,0.0-17.0-3.10,7283,List2B,white,man,,,,,"{""Q0"":""Luke is talking to Jane""}","<img src=""stim_listB/talk1.gif""</stim_listB>",is talking to,
null,"<div style=""font-size:60px;"">+</div>",,html-keyboard-response,270,1208638,0.0-17.0-0.11,7283,List2B,white,man,,,,null,,,,
null,"<img src=""stim_listB/fight2.gif""</stim_listB>",,html-keyboard-response,271,1210640,0.0-17.0-1.11,7283,List2B,white,man,,,,null,,,,
null,are fighting each other,,html-keyboard-response,272,1212641,0.0-17.0-2.11,7283,List2B,white,man,,,,null,,,,
11469,,,survey-text,273,1224110,0.0-17.0-3.11,7283,List2B,white,man,,,,,"{""Q0"":""Luke and Ruth are fighting each other""}","<img src=""stim_listB/fight2.gif""</stim_listB>",are fighting each other,
null,"<div style=""font-size:60px;"">+</div>",,html-keyboard-response,274,1224612,0.0-17.0-0.12,7283,List2B,white,man,,,,null,,,,
null,"<img src=""stim_listB/meet5.gif""</stim_listB>",,html-keyboard-response,275,1226613,0.0-17.0-1.12,7283,List2B,white,man,,,,null,,,,
null,is meeting,,html-keyboard-response,276,1228615,0.0-17.0-2.12,7283,List2B,white,man,,,,null,,,,
6806,,,survey-text,277,1235422,0.0-17.0-3.12,7283,List2B,white,man,,,,,"{""Q0"":""Mike is meeting Dave""}","<img src=""stim_listB/meet5.gif""</stim_listB>",is meeting,
null,"<div style=""font-size:60px;"">+</div>",,html-keyboard-response,278,1235924,0.0-17.0-0.13,7283,List2B,white,man,,,,null,,,,
null,"<img src=""stim_listB/touch6.gif""</stim_listB>",,html-keyboard-response,279,1237926,0.0-17.0-1.13,7283,List2B,white,man,,,,null,,,,
null,are touching each other,,html-keyboard-response,280,1239927,0.0-17.0-2.13,7283,List2B,white,man,,,,null,,,,
10568,,,survey-text,281,1250496,0.0-17.0-3.13,7283,List2B,white,man,,,,,"{""Q0"":""Luke and Fred are touching each other""}","<img src=""stim_listB/touch6.gif""</stim_listB>",are touching each other,
null,"<div style=""font-size:60px;"">+</div>",,html-keyboard-response,282,1250998,0.0-17.0-0.14,7283,List2B,white,man,,,,null,,,,
null,"<img src=""stim_listB/fight1.gif""</stim_listB>",,html-keyboard-response,283,1252999,0.0-17.0-1.14,7283,List2B,white,man,,,,null,,,,
null,is fighting,,html-keyboard-response,284,1255000,0.0-17.0-2.14,7283,List2B,white,man,,,,null,,,,
7938,,,survey-text,285,1262939,0.0-17.0-3.14,7283,List2B,white,man,,,,,"{""Q0"":""Dave is fighting Jane""}","<img src=""stim_listB/fight1.gif""</stim_listB>",is fighting,
null,"<div style=""font-size:60px;"">+</div>",,html-keyboard-response,286,1263441,0.0-17.0-0.15,7283,List2B,white,man,,,,null,,,,
null,"<img src=""stim_listB/marry3.gif""</stim_listB>",,html-keyboard-response,287,1265443,0.0-17.0-1.15,7283,List2B,white,man,,,,null,,,,
null,is marrying,,html-keyboard-response,288,1267444,0.0-17.0-2.15,7283,List2B,white,man,,,,null,,,,
8967,,,survey-text,289,1276411,0.0-17.0-3.15,7283,List2B,white,man,,,,,"{""Q0"":""Mike is marrying Beth""}","<img src=""stim_listB/marry3.gif""</stim_listB>",is marrying,
null,"<div style=""font-size:60px;"">+</div>",,html-keyboard-response,290,1276914,0.0-17.0-0.16,7283,List2B,white,man,,,,null,,,,
null,"<img src=""stim_listB/talk6.gif""</stim_listB>",,html-keyboard-response,291,1278916,0.0-17.0-1.16,7283,List2B,white,man,,,,null,,,,
null,are talking to each other,,html-keyboard-response,292,1280917,0.0-17.0-2.16,7283,List2B,white,man,,,,null,,,,
12507,,,survey-text,293,1293425,0.0-17.0-3.16,7283,List2B,white,man,,,,,"{""Q0"":""Dave and Fred are talking to each other""}","<img src=""stim_listB/talk6.gif""</stim_listB>",are talking to each other,
null,"<div style=""font-size:60px;"">+</div>",,html-keyboard-response,294,1293927,0.0-17.0-0.17,7283,List2B,white,man,,,,null,,,,
null,"<img src=""stim_listB/hug3.gif""</stim_listB>",,html-keyboard-response,295,1295928,0.0-17.0-1.17,7283,List2B,white,man,,,,null,,,,
null,is hugging,,html-keyboard-response,296,1297929,0.0-17.0-2.17,7283,List2B,white,man,,,,null,,,,
7699,,,survey-text,297,1305629,0.0-17.0-3.17,7283,List2B,white,man,,,,,"{""Q0"":""Beth is hugging Fred""}","<img src=""stim_listB/hug3.gif""</stim_listB>",is hugging,
null,"<div style=""font-size:60px;"">+</div>",,html-keyboard-response,298,1306131,0.0-17.0-0.18,7283,List2B,white,man,,,,null,,,,
null,"<img src=""stim_listB/meet1.gif""</stim_listB>",,html-keyboard-response,299,1308132,0.0-17.0-1.18,7283,List2B,white,man,,,,null,,,,
null,is meeting,,html-keyboard-response,300,1310133,0.0-17.0-2.18,7283,List2B,white,man,,,,null,,,,
8199,,,survey-text,301,1318333,0.0-17.0-3.18,7283,List2B,white,man,,,,,"{""Q0"":""Dave is meeting Jane""}","<img src=""stim_listB/meet1.gif""</stim_listB>",is meeting,
null,"<div style=""font-size:60px;"">+</div>",,html-keyboard-response,302,1318834,0.0-17.0-0.19,7283,List2B,white,man,,,,null,,,,
null,"<img src=""stim_listB/dance1.gif""</stim_listB>",,html-keyboard-response,303,1320837,0.0-17.0-1.19,7283,List2B,white,man,,,,null,,,,
null,is dancing with,,html-keyboard-response,304,1322838,0.0-17.0-2.19,7283,List2B,white,man,,,,null,,,,
6529,,,survey-text,305,1329368,0.0-17.0-3.19,7283,List2B,white,man,,,,,"{""Q0"":""Luke is dancing with Jane""}","<img src=""stim_listB/dance1.gif""</stim_listB>",is dancing with,
4131,"<img src='img/portrait_matrix_list2.JPG' style='width:900px;height:500px;''></img><p>If you have memorised all the portraits and names and are ready to start, press Continue.</p><p><strong>Please note: Your memory of these faces will be tested 4 times during this experiment.</strong></p>",0,html-button-response,306,1333500,0.0-18.0-0.0,7283,List2B,white,man,,,,,,,,
2044,"<img src=""portrait/WW2.jpg""style=""width:400px;height:400px;""></img>",3,html-button-response,307,1336547,0.0-18.0-1.0,7283,List2B,white,man,,TRUE,3,,,,,
null,CORRECT,,html-keyboard-response,308,1338049,0.0-18.0-2.0-0.0,7283,List2B,white,man,,,,null,,,,
2659,"<img src=""portrait/BM2.jpg""style=""width:400px;height:400px;""></img>",5,html-button-response,309,1340708,0.0-18.0-4.0,7283,List2B,white,man,,TRUE,5,,,,,
null,CORRECT,,html-keyboard-response,310,1342210,0.0-18.0-5.0-0.0,7283,List2B,white,man,,,,null,,,,
3237,"<img src=""portrait/BM1.jpg""style=""width:400px;height:400px;""></img>",4,html-button-response,311,1345449,0.0-18.0-7.0,7283,List2B,white,man,,TRUE,4,,,,,
null,CORRECT,,html-keyboard-response,312,1346952,0.0-18.0-8.0-0.0,7283,List2B,white,man,,,,null,,,,
3117,"<img src=""portrait/WW1.jpg""style=""width:400px;height:400px;""></img>",1,html-button-response,313,1350070,0.0-18.0-10.0,7283,List2B,white,man,,TRUE,1,,,,,
null,CORRECT,,html-keyboard-response,314,1351573,0.0-18.0-11.0-0.0,7283,List2B,white,man,,,,null,,,,
1829,"<img src=""portrait/WM2.jpg""style=""width:400px;height:400px;""></img>",7,html-button-response,315,1353403,0.0-18.0-13.0,7283,List2B,white,man,,TRUE,7,,,,,
null,CORRECT,,html-keyboard-response,316,1354905,0.0-18.0-14.0-0.0,7283,List2B,white,man,,,,null,,,,
2112,"<img src=""portrait/BW2.jpg""style=""width:400px;height:400px;""></img>",2,html-button-response,317,1357018,0.0-18.0-16.0,7283,List2B,white,man,,TRUE,2,,,,,
null,CORRECT,,html-keyboard-response,318,1358520,0.0-18.0-17.0-0.0,7283,List2B,white,man,,,,null,,,,
1691,"<img src=""portrait/WM1.jpg""style=""width:400px;height:400px;""></img>",6,html-button-response,319,1360212,0.0-18.0-19.0,7283,List2B,white,man,,TRUE,6,,,,,
null,CORRECT,,html-keyboard-response,320,1361714,0.0-18.0-20.0-0.0,7283,List2B,white,man,,,,null,,,,
2797,"<img src=""portrait/BW1.jpg""style=""width:400px;height:400px;""></img>",0,html-button-response,321,1364512,0.0-18.0-22.0,7283,List2B,white,man,,TRUE,0,,,,,
null,CORRECT,,html-keyboard-response,322,1366014,0.0-18.0-23.0-0.0,7283,List2B,white,man,,,,null,,,,
1274,<p>You got 8 out of 8 right first time. Press Continue.</p>,0,html-button-response,323,1367290,0.0-18.0-25.0,7283,List2B,white,man,,,,,,,,
null,"<div style=""font-size:60px;"">+</div>",,html-keyboard-response,324,1368793,0.0-19.0-0.0,7283,List2B,white,man,,,,null,,,,
null,"<img src=""stim_listB/kiss2.gif""</stim_listB>",,html-keyboard-response,325,1370794,0.0-19.0-1.0,7283,List2B,white,man,,,,null,,,,
null,are kissing each other,,html-keyboard-response,326,1372796,0.0-19.0-2.0,7283,List2B,white,man,,,,null,,,,
8275,,,survey-text,327,1381071,0.0-19.0-3.0,7283,List2B,white,man,,,,,"{""Q0"":""Dave and Jane are kissing each other""}","<img src=""stim_listB/kiss2.gif""</stim_listB>",are kissing each other,
null,"<div style=""font-size:60px;"">+</div>",,html-keyboard-response,328,1381573,0.0-19.0-0.1,7283,List2B,white,man,,,,null,,,,
null,"<img src=""stim_listB/hug6.gif""</stim_listB>",,html-keyboard-response,329,1383574,0.0-19.0-1.1,7283,List2B,white,man,,,,null,,,,
null,are hugging each other,,html-keyboard-response,330,1385576,0.0-19.0-2.1,7283,List2B,white,man,,,,null,,,,
8661,,,survey-text,331,1394237,0.0-19.0-3.1,7283,List2B,white,man,,,,,"{""Q0"":""Mike and Dave are hugging each other""}","<img src=""stim_listB/hug6.gif""</stim_listB>",are hugging each other,
null,"<div style=""font-size:60px;"">+</div>",,html-keyboard-response,332,1394739,0.0-19.0-0.2,7283,List2B,white,man,,,,null,,,,
null,"<img src=""stim_listB/shout1.gif""</stim_listB>",,html-keyboard-response,333,1396740,0.0-19.0-1.2,7283,List2B,white,man,,,,null,,,,
null,is shouting at,,html-keyboard-response,334,1398742,0.0-19.0-2.2,7283,List2B,white,man,,,,null,,,,
8653,,,survey-text,335,1407395,0.0-19.0-3.2,7283,List2B,white,man,,,,,"{""Q0"":""Luke is shouting at Ruth""}","<img src=""stim_listB/shout1.gif""</stim_listB>",is shouting at,
null,"<div style=""font-size:60px;"">+</div>",,html-keyboard-response,336,1407897,0.0-19.0-0.3,7283,List2B,white,man,,,,null,,,,
null,"<img src=""stim_listB/shout3.gif""</stim_listB>",,html-keyboard-response,337,1409898,0.0-19.0-1.3,7283,List2B,white,man,,,,null,,,,
null,is shouting at,,html-keyboard-response,338,1411899,0.0-19.0-2.3,7283,List2B,white,man,,,,null,,,,
8575,,,survey-text,339,1420475,0.0-19.0-3.3,7283,List2B,white,man,,,,,"{""Q0"":""Fred is shouting at Beth""}","<img src=""stim_listB/shout3.gif""</stim_listB>",is shouting at,
null,"<div style=""font-size:60px;"">+</div>",,html-keyboard-response,340,1420976,0.0-19.0-0.4,7283,List2B,white,man,,,,null,,,,
null,"<img src=""stim_listB/touch5.gif""</stim_listB>",,html-keyboard-response,341,1422978,0.0-19.0-1.4,7283,List2B,white,man,,,,null,,,,
null,is touching,,html-keyboard-response,342,1424979,0.0-19.0-2.4,7283,List2B,white,man,,,,null,,,,
7375,,,survey-text,343,1432355,0.0-19.0-3.4,7283,List2B,white,man,,,,,"{""Q0"":""Dave is touching Mike""}","<img src=""stim_listB/touch5.gif""</stim_listB>",is touching,
null,"<div style=""font-size:60px;"">+</div>",,html-keyboard-response,344,1432857,0.0-19.0-0.5,7283,List2B,white,man,,,,null,,,,
null,"<img src=""stim_listB/talk5.gif""</stim_listB>",,html-keyboard-response,345,1434859,0.0-19.0-1.5,7283,List2B,white,man,,,,null,,,,
null,is talking to,,html-keyboard-response,346,1436860,0.0-19.0-2.5,7283,List2B,white,man,,,,null,,,,
6705,,,survey-text,347,1443567,0.0-19.0-3.5,7283,List2B,white,man,,,,,"{""Q0"":""Mike is talking to Luke""}","<img src=""stim_listB/talk5.gif""</stim_listB>",is talking to,
null,"<div style=""font-size:60px;"">+</div>",,html-keyboard-response,348,1444068,0.0-19.0-0.6,7283,List2B,white,man,,,,null,,,,
null,"<img src=""stim_listB/shout2.gif""</stim_listB>",,html-keyboard-response,349,1446070,0.0-19.0-1.6,7283,List2B,white,man,,,,null,,,,
null,are shouting at each other,,html-keyboard-response,350,1448071,0.0-19.0-2.6,7283,List2B,white,man,,,,null,,,,
10409,,,survey-text,351,1458480,0.0-19.0-3.6,7283,List2B,white,man,,,,,"{""Q0"":""Jane and Dave are shouting at each other""}","<img src=""stim_listB/shout2.gif""</stim_listB>",are shouting at each other,
null,"<div style=""font-size:60px;"">+</div>",,html-keyboard-response,352,1458982,0.0-19.0-0.7,7283,List2B,white,man,,,,null,,,,
null,"<img src=""stim_listB/argue2.gif""</stim_listB>",,html-keyboard-response,353,1460984,0.0-19.0-1.7,7283,List2B,white,man,,,,null,,,,
null,are arguing with each other,,html-keyboard-response,354,1462985,0.0-19.0-2.7,7283,List2B,white,man,,,,null,,,,
15023,,,survey-text,355,1478008,0.0-19.0-3.7,7283,List2B,white,man,,,,,"{""Q0"":""Luke and Jane are arguing with each other""}","<img src=""stim_listB/argue2.gif""</stim_listB>",are arguing with each other,
null,"<div style=""font-size:60px;"">+</div>",,html-keyboard-response,356,1478509,0.0-19.0-0.8,7283,List2B,white,man,,,,null,,,,
null,"<img src=""stim_listB/kiss4.gif""</stim_listB>",,html-keyboard-response,357,1480511,0.0-19.0-1.8,7283,List2B,white,man,,,,null,,,,
null,are kissing each other,,html-keyboard-response,358,1482512,0.0-19.0-2.8,7283,List2B,white,man,,,,null,,,,
9454,,,survey-text,359,1491966,0.0-19.0-3.8,7283,List2B,white,man,,,,,"{""Q0"":""Mike and Kate are kissing each other""}","<img src=""stim_listB/kiss4.gif""</stim_listB>",are kissing each other,
null,"<div style=""font-size:60px;"">+</div>",,html-keyboard-response,360,1492468,0.0-19.0-0.9,7283,List2B,white,man,,,,null,,,,
null,"<img src=""stim_listB/dance5.gif""</stim_listB>",,html-keyboard-response,361,1494469,0.0-19.0-1.9,7283,List2B,white,man,,,,null,,,,
null,is dancing with,,html-keyboard-response,362,1496470,0.0-19.0-2.9,7283,List2B,white,man,,,,null,,,,
6947,,,survey-text,363,1503418,0.0-19.0-3.9,7283,List2B,white,man,,,,,"{""Q0"":""Mike is dancing with Luke""}","<img src=""stim_listB/dance5.gif""</stim_listB>",is dancing with,
null,"<div style=""font-size:60px;"">+</div>",,html-keyboard-response,364,1503919,0.0-19.0-0.10,7283,List2B,white,man,,,,null,,,,
null,"<img src=""stim_listB/dance2.gif""</stim_listB>",,html-keyboard-response,365,1505921,0.0-19.0-1.10,7283,List2B,white,man,,,,null,,,,
null,are dancing with each other,,html-keyboard-response,366,1507922,0.0-19.0-2.10,7283,List2B,white,man,,,,null,,,,
13924,,,survey-text,367,1521846,0.0-19.0-3.10,7283,List2B,white,man,,,,,"{""Q0"":""Dave and Ruth are dancing with each other""}","<img src=""stim_listB/dance2.gif""</stim_listB>",are dancing with each other,
null,"<div style=""font-size:60px;"">+</div>",,html-keyboard-response,368,1522348,0.0-19.0-0.11,7283,List2B,white,man,,,,null,,,,
null,"<img src=""stim_listB/argue3.gif""</stim_listB>",,html-keyboard-response,369,1524350,0.0-19.0-1.11,7283,List2B,white,man,,,,null,,,,
null,is arguing with,,html-keyboard-response,370,1526351,0.0-19.0-2.11,7283,List2B,white,man,,,,null,,,,
8713,,,survey-text,371,1535066,0.0-19.0-3.11,7283,List2B,white,man,,,,,"{""Q0"":""Mike is arguing with Beth""}","<img src=""stim_listB/argue3.gif""</stim_listB>",is arguing with,
null,"<div style=""font-size:60px;"">+</div>",,html-keyboard-response,372,1535567,0.0-19.0-0.12,7283,List2B,white,man,,,,null,,,,
null,"<img src=""stim_listB/meet2.gif""</stim_listB>",,html-keyboard-response,373,1537569,0.0-19.0-1.12,7283,List2B,white,man,,,,null,,,,
null,are meeting each other,,html-keyboard-response,374,1539570,0.0-19.0-2.12,7283,List2B,white,man,,,,null,,,,
8390,,,survey-text,375,1547962,0.0-19.0-3.12,7283,List2B,white,man,,,,,"{""Q0"":""Luke and Ruth are meeting each other""}","<img src=""stim_listB/meet2.gif""</stim_listB>",are meeting each other,
null,"<div style=""font-size:60px;"">+</div>",,html-keyboard-response,376,1548464,0.0-19.0-0.13,7283,List2B,white,man,,,,null,,,,
null,"<img src=""stim_listB/fight8.gif""</stim_listB>",,html-keyboard-response,377,1550465,0.0-19.0-1.13,7283,List2B,white,man,,,,null,,,,
null,are fighting each other,,html-keyboard-response,378,1552467,0.0-19.0-2.13,7283,List2B,white,man,,,,null,,,,
10500,,,survey-text,379,1562967,0.0-19.0-3.13,7283,List2B,white,man,,,,,"{""Q0"":""Ruth and Beth are fighting each other""}","<img src=""stim_listB/fight8.gif""</stim_listB>",are fighting each other,
null,"<div style=""font-size:60px;"">+</div>",,html-keyboard-response,380,1563468,0.0-19.0-0.14,7283,List2B,white,man,,,,null,,,,
null,"<img src=""stim_listB/touch7.gif""</stim_listB>",,html-keyboard-response,381,1565470,0.0-19.0-1.14,7283,List2B,white,man,,,,null,,,,
null,is touching,,html-keyboard-response,382,1567471,0.0-19.0-2.14,7283,List2B,white,man,,,,null,,,,
8013,,,survey-text,383,1575485,0.0-19.0-3.14,7283,List2B,white,man,,,,,"{""Q0"":""Jane is touching Kate""}","<img src=""stim_listB/touch7.gif""</stim_listB>",is touching,
null,"<div style=""font-size:60px;"">+</div>",,html-keyboard-response,384,1575987,0.0-19.0-0.15,7283,List2B,white,man,,,,null,,,,
null,"<img src=""stim_listB/talk3.gif""</stim_listB>",,html-keyboard-response,385,1577988,0.0-19.0-1.15,7283,List2B,white,man,,,,null,,,,
null,is talking to,,html-keyboard-response,386,1579989,0.0-19.0-2.15,7283,List2B,white,man,,,,null,,,,
7560,,,survey-text,387,1587551,0.0-19.0-3.15,7283,List2B,white,man,,,,,"{""Q0"":""Kate is talking to Fred""}","<img src=""stim_listB/talk3.gif""</stim_listB>",is talking to,
null,"<div style=""font-size:60px;"">+</div>",,html-keyboard-response,388,1588053,0.0-19.0-0.16,7283,List2B,white,man,,,,null,,,,
null,"<img src=""stim_listB/touch1.gif""</stim_listB>",,html-keyboard-response,389,1590054,0.0-19.0-1.16,7283,List2B,white,man,,,,null,,,,
null,is touching,,html-keyboard-response,390,1592055,0.0-19.0-2.16,7283,List2B,white,man,,,,null,,,,
6820,,,survey-text,391,1598877,0.0-19.0-3.16,7283,List2B,white,man,,,,,"{""Q0"":""Dave is touching Jane""}","<img src=""stim_listB/touch1.gif""</stim_listB>",is touching,
null,"<div style=""font-size:60px;"">+</div>",,html-keyboard-response,392,1599378,0.0-19.0-0.17,7283,List2B,white,man,,,,null,,,,
null,"<img src=""stim_listB/hug1.gif""</stim_listB>",,html-keyboard-response,393,1601380,0.0-19.0-1.17,7283,List2B,white,man,,,,null,,,,
null,is hugging,,html-keyboard-response,394,1603381,0.0-19.0-2.17,7283,List2B,white,man,,,,null,,,,
6783,,,survey-text,395,1610165,0.0-19.0-3.17,7283,List2B,white,man,,,,,"{""Q0"":""Luke is hugging Ruth""}","<img src=""stim_listB/hug1.gif""</stim_listB>",is hugging,
null,"<div style=""font-size:60px;"">+</div>",,html-keyboard-response,396,1610667,0.0-19.0-0.18,7283,List2B,white,man,,,,null,,,,
null,"<img src=""stim_listB/marry6.gif""</stim_listB>",,html-keyboard-response,397,1612668,0.0-19.0-1.18,7283,List2B,white,man,,,,null,,,,
null,are marrying each other,,html-keyboard-response,398,1614669,0.0-19.0-2.18,7283,List2B,white,man,,,,null,,,,
12227,,,survey-text,399,1626898,0.0-19.0-3.18,7283,List2B,white,man,,,,,"{""Q0"":""Mike and Luke are marrying each other""}","<img src=""stim_listB/marry6.gif""</stim_listB>",are marrying each other,
null,"<div style=""font-size:60px;"">+</div>",,html-keyboard-response,400,1627399,0.0-19.0-0.19,7283,List2B,white,man,,,,null,,,,
null,"<img src=""stim_listB/touch8.gif""</stim_listB>",,html-keyboard-response,401,1629400,0.0-19.0-1.19,7283,List2B,white,man,,,,null,,,,
null,are touching each other,,html-keyboard-response,402,1631402,0.0-19.0-2.19,7283,List2B,white,man,,,,null,,,,
12819,,,survey-text,403,1644221,0.0-19.0-3.19,7283,List2B,white,man,,,,,"{""Q0"":""Beth and Ruth are touching each other""}","<img src=""stim_listB/touch8.gif""</stim_listB>",are touching each other,
2539,<p>Thank you for completing that task.</p><p>The final part of this session is a short questionnaire.</p><p>Press Continue.</p>,0,html-button-response,404,1646761,0.0-20.0,7283,List2B,white,man,,,,,,,,
25943,,,survey-text,405,1673707,0.0-21.0,7283,List2B,white,man,,,,,"{""Q0"":""45"",""Q1"":""English"",""Q2"":""English"",""Q3"":""United States"",""Q4"":""Caucasian"",""Q5"":""Male""}",,,demographics
57730,,,survey-likert,406,1731443,0.0-22.0,7283,List2B,white,man,,,,,"{""Q0"":3,""Q1"":3,""Q2"":3,""Q3"":5,""Q4"":3,""Q5"":4,""Q6"":3,""Q7"":1,""Q8"":3,""Q9"":3,""Q10"":3,""Q11"":3,""Q12"":4,""Q13"":4}",,,likert_race
62700,,,survey-likert,407,1794151,0.0-23.0,7283,List2B,white,man,,,,,"{""Q0"":5,""Q1"":4,""Q2"":6,""Q3"":6,""Q4"":3,""Q5"":4,""Q6"":3,""Q7"":0,""Q8"":3,""Q9"":3,""Q10"":3,""Q11"":3,""Q12"":4,""Q13"":4}",,,likert_gender
8569,,,survey-text,408,1802725,0.0-24.0,7283,List2B,white,man,,,,,"{""Q0"":""ccc""}",,,worker_id
15870,,,external-html,409,1818914,0.0-25.0,7283,List2B,white,man,debrief.html,,,,,,,
