rt,stimulus,button_pressed,trial_type,trial_index,time_elapsed,internal_node_id,subject,list,ppt_race,ppt_gender,url,first_guess,correct,key_press,responses,image_type,phrase_type,test_part
1983,Welcome to the experiment. Press Continue to begin.,0,html-button-response,0,2051,0.0-0.0,72990,List1B,black,man,,,,,,,,
36139,,,external-html,1,39265,0.0-1.0,72990,List1B,black,man,consent.html,,,,,,,
9580,"<p>On the next page, you will see portraits of 8 people and their names.</p><p>Your first task is to take a few minutes to memorise the names of these people.</p><p>You will have to recall their names during the rest of the experiment, so it is</p><p>essential that you try to memorise these people and their names as best as you can.</p><br><p><strong>You will then be tested on your memory of these names and portraits.</strong></p><br><p>The experiment will start after you have completed this memory test.</p><br><p>Ready?</p>",0,html-button-response,2,48849,0.0-2.0,72990,List1B,black,man,,,,,,,,
18013,"<img src='img/portrait_matrix_list1.JPG' style='width:900px;height:500px;''></img><p>If you have memorised all the portraits and names and are ready to start, press Continue.</p><p><strong>Please note: Your memory of these faces will be tested 4 times during this experiment.</strong></p>",0,html-button-response,3,67864,0.0-3.0-0.0,72990,List1B,black,man,,,,,,,,
3750,"<img src=""portrait/WW1.jpg""style=""width:400px;height:400px;""></img>",1,html-button-response,4,72619,0.0-3.0-1.0,72990,List1B,black,man,,TRUE,1,,,,,
null,CORRECT,,html-keyboard-response,5,74128,0.0-3.0-2.0-0.0,72990,List1B,black,man,,,,null,,,,
3217,"<img src=""portrait/WM1.jpg""style=""width:400px;height:400px;""></img>",6,html-button-response,6,77349,0.0-3.0-4.0,72990,List1B,black,man,,TRUE,6,,,,,
null,CORRECT,,html-keyboard-response,7,78851,0.0-3.0-5.0-0.0,72990,List1B,black,man,,,,null,,,,
2630,"<img src=""portrait/WW2.jpg""style=""width:400px;height:400px;""></img>",3,html-button-response,8,81483,0.0-3.0-7.0,72990,List1B,black,man,,TRUE,3,,,,,
null,CORRECT,,html-keyboard-response,9,82985,0.0-3.0-8.0-0.0,72990,List1B,black,man,,,,null,,,,
3947,"<img src=""portrait/BW1.jpg""style=""width:400px;height:400px;""></img>",0,html-button-response,10,86934,0.0-3.0-10.0,72990,List1B,black,man,,TRUE,0,,,,,
null,CORRECT,,html-keyboard-response,11,88437,0.0-3.0-11.0-0.0,72990,List1B,black,man,,,,null,,,,
3248,"<img src=""portrait/BW2.jpg""style=""width:400px;height:400px;""></img>",2,html-button-response,12,91687,0.0-3.0-13.0,72990,List1B,black,man,,TRUE,2,,,,,
null,CORRECT,,html-keyboard-response,13,93189,0.0-3.0-14.0-0.0,72990,List1B,black,man,,,,null,,,,
2412,"<img src=""portrait/BM1.jpg""style=""width:400px;height:400px;""></img>",4,html-button-response,14,95603,0.0-3.0-16.0,72990,List1B,black,man,,TRUE,4,,,,,
null,CORRECT,,html-keyboard-response,15,97105,0.0-3.0-17.0-0.0,72990,List1B,black,man,,,,null,,,,
10526,"<img src=""portrait/BM2.jpg""style=""width:400px;height:400px;""></img>",5,html-button-response,16,107632,0.0-3.0-19.0,72990,List1B,black,man,,TRUE,5,,,,,
null,CORRECT,,html-keyboard-response,17,109135,0.0-3.0-20.0-0.0,72990,List1B,black,man,,,,null,,,,
3297,"<img src=""portrait/WM2.jpg""style=""width:400px;height:400px;""></img>",7,html-button-response,18,112434,0.0-3.0-22.0,72990,List1B,black,man,,TRUE,7,,,,,
null,CORRECT,,html-keyboard-response,19,113936,0.0-3.0-23.0-0.0,72990,List1B,black,man,,,,null,,,,
1724,<p>You got 8 out of 8 right first time. Press Continue.</p>,0,html-button-response,20,115662,0.0-3.0-25.0,72990,List1B,black,man,,,,,,,,
28689,"<p>In this experiment, you will view photographs of the people from the memory game interacting.</p><p>By using the <strong>exact</strong> phrase given <i>after</i> the photograph appears and recalling the correct names of the people in the photographs, form a sentence describing the interaction. You do not need to capitalise names.</p><p>Type your answer in the space provided. Please complete every sentence before moving onto the next trial.</p><p>You will only have a few seconds to memorise each given photograph and phrase before you can respond, so try your best to focus.</p><p>An example is given below. Press 'Continue' when you are ready.</p><img src='img/speaking_example_v2.jpg' style='width:800px;height:460px;''></img>",0,html-button-response,21,145356,0.0-4.0,72990,List1B,black,man,,,,,,,,
1459,"<p>Before the experiment starts, you will watch two example trials. Press 'Continue'.</p>",0,html-button-response,22,147816,0.0-5.0,72990,List1B,black,man,,,,,,,,
null,<img src='img/speaking_WW.gif'></img>,,html-keyboard-response,23,150819,0.0-6.0,72990,List1B,black,man,,,,null,,,,
null,<p>is speaking to</p>,,html-keyboard-response,24,152820,0.0-7.0,72990,List1B,black,man,,,,null,,,,
3217,<p><b>Answer:</b> kate is speaking to beth</p>,0,html-button-response,25,156038,0.0-8.0,72990,List1B,black,man,,,,,,,,
null,<img src='img/pointing_BM.gif'></img>,,html-keyboard-response,26,159040,0.0-9.0,72990,List1B,black,man,,,,null,,,,
null,<p>are pointing at each other</p>,,html-keyboard-response,27,161041,0.0-10.0,72990,List1B,black,man,,,,null,,,,
1200,<p><b>Answer:</b> luke and dave are pointing at each other</p>,0,html-button-response,28,162243,0.0-11.0,72990,List1B,black,man,,,,,,,,
1469,"<p>Ready to start the experiment?</p><br><p><strong>Remember to describe the picture using a full sentence,</strong></p><p><strong>that combines the names of the people with the given phrase.</strong></p><p><strong>If you do not do this correctly you will not be paid.</strong></p><p><strong> You do not need to capitalise names or use punctuation.</strong></p><br><p>Press 'Continue' to begin.</p>",0,html-button-response,29,164714,0.0-12.0,72990,List1B,black,man,,,,,,,,
null,"<div style=""font-size:60px;"">+</div>",,html-keyboard-response,30,166216,0.0-13.0-0.0,72990,List1B,black,man,,,,null,,,,
null,"<img src=""stim_listB/kiss2.gif""</stim_listB>",,html-keyboard-response,31,168219,0.0-13.0-1.0,72990,List1B,black,man,,,,null,,,,
null,are kissing each other,,html-keyboard-response,32,170220,0.0-13.0-2.0,72990,List1B,black,man,,,,null,,,,
6881,,,survey-text,33,177130,0.0-13.0-3.0,72990,List1B,black,man,,,,,"{""Q0"":""mike and kate""}","<img src=""stim_listB/kiss2.gif""</stim_listB>",are kissing each other,
null,"<div style=""font-size:60px;"">+</div>",,html-keyboard-response,34,177635,0.0-13.0-0.1,72990,List1B,black,man,,,,null,,,,
null,"<img src=""stim_listB/argue2.gif""</stim_listB>",,html-keyboard-response,35,179636,0.0-13.0-1.1,72990,List1B,black,man,,,,null,,,,
null,are arguing with each other,,html-keyboard-response,36,181637,0.0-13.0-2.1,72990,List1B,black,man,,,,null,,,,
5572,,,survey-text,37,187211,0.0-13.0-3.1,72990,List1B,black,man,,,,,"{""Q0"":""fred and kate""}","<img src=""stim_listB/argue2.gif""</stim_listB>",are arguing with each other,
null,"<div style=""font-size:60px;"">+</div>",,html-keyboard-response,38,187713,0.0-13.0-0.2,72990,List1B,black,man,,,,null,,,,
null,"<img src=""stim_listB/shout5.gif""</stim_listB>",,html-keyboard-response,39,189715,0.0-13.0-1.2,72990,List1B,black,man,,,,null,,,,
null,is shouting at,,html-keyboard-response,40,191716,0.0-13.0-2.2,72990,List1B,black,man,,,,null,,,,
5164,,,survey-text,41,196882,0.0-13.0-3.2,72990,List1B,black,man,,,,,"{""Q0"":""luke and fred""}","<img src=""stim_listB/shout5.gif""</stim_listB>",is shouting at,
null,"<div style=""font-size:60px;"">+</div>",,html-keyboard-response,42,197384,0.0-13.0-0.3,72990,List1B,black,man,,,,null,,,,
null,"<img src=""stim_listB/dance5.gif""</stim_listB>",,html-keyboard-response,43,199386,0.0-13.0-1.3,72990,List1B,black,man,,,,null,,,,
null,is dancing with,,html-keyboard-response,44,201387,0.0-13.0-2.3,72990,List1B,black,man,,,,null,,,,
8375,,,survey-text,45,209764,0.0-13.0-3.3,72990,List1B,black,man,,,,,"{""Q0"":""dave is dancing with fred""}","<img src=""stim_listB/dance5.gif""</stim_listB>",is dancing with,
null,"<div style=""font-size:60px;"">+</div>",,html-keyboard-response,46,210266,0.0-13.0-0.4,72990,List1B,black,man,,,,null,,,,
null,"<img src=""stim_listB/kiss3.gif""</stim_listB>",,html-keyboard-response,47,212268,0.0-13.0-1.4,72990,List1B,black,man,,,,null,,,,
null,is kissing,,html-keyboard-response,48,214269,0.0-13.0-2.4,72990,List1B,black,man,,,,null,,,,
7912,,,survey-text,49,222183,0.0-13.0-3.4,72990,List1B,black,man,,,,,"{""Q0"":""ruth is kissing luke""}","<img src=""stim_listB/kiss3.gif""</stim_listB>",is kissing,
null,"<div style=""font-size:60px;"">+</div>",,html-keyboard-response,50,222685,0.0-13.0-0.5,72990,List1B,black,man,,,,null,,,,
null,"<img src=""stim_listB/fight2.gif""</stim_listB>",,html-keyboard-response,51,224687,0.0-13.0-1.5,72990,List1B,black,man,,,,null,,,,
null,are fighting each other,,html-keyboard-response,52,226688,0.0-13.0-2.5,72990,List1B,black,man,,,,null,,,,
5880,,,survey-text,53,232570,0.0-13.0-3.5,72990,List1B,black,man,,,,,"{""Q0"":""beth and fred""}","<img src=""stim_listB/fight2.gif""</stim_listB>",are fighting each other,
null,"<div style=""font-size:60px;"">+</div>",,html-keyboard-response,54,233072,0.0-13.0-0.6,72990,List1B,black,man,,,,null,,,,
null,"<img src=""stim_listB/kiss1.gif""</stim_listB>",,html-keyboard-response,55,235074,0.0-13.0-1.6,72990,List1B,black,man,,,,null,,,,
null,is kissing,,html-keyboard-response,56,237075,0.0-13.0-2.6,72990,List1B,black,man,,,,null,,,,
4797,,,survey-text,57,241873,0.0-13.0-3.6,72990,List1B,black,man,,,,,"{""Q0"":""kate is kissing fred""}","<img src=""stim_listB/kiss1.gif""</stim_listB>",is kissing,
null,"<div style=""font-size:60px;"">+</div>",,html-keyboard-response,58,242375,0.0-13.0-0.7,72990,List1B,black,man,,,,null,,,,
null,"<img src=""stim_listB/shout8.gif""</stim_listB>",,html-keyboard-response,59,244377,0.0-13.0-1.7,72990,List1B,black,man,,,,null,,,,
null,are shouting at each other,,html-keyboard-response,60,246378,0.0-13.0-2.7,72990,List1B,black,man,,,,null,,,,
3746,,,survey-text,61,250126,0.0-13.0-3.7,72990,List1B,black,man,,,,,"{""Q0"":""ruth and kate""}","<img src=""stim_listB/shout8.gif""</stim_listB>",are shouting at each other,
null,"<div style=""font-size:60px;"">+</div>",,html-keyboard-response,62,250627,0.0-13.0-0.8,72990,List1B,black,man,,,,null,,,,
null,"<img src=""stim_listB/touch3.gif""</stim_listB>",,html-keyboard-response,63,252630,0.0-13.0-1.8,72990,List1B,black,man,,,,null,,,,
null,is touching,,html-keyboard-response,64,254631,0.0-13.0-2.8,72990,List1B,black,man,,,,null,,,,
4338,,,survey-text,65,258971,0.0-13.0-3.8,72990,List1B,black,man,,,,,"{""Q0"":""jane and dave""}","<img src=""stim_listB/touch3.gif""</stim_listB>",is touching,
null,"<div style=""font-size:60px;"">+</div>",,html-keyboard-response,66,259476,0.0-13.0-0.9,72990,List1B,black,man,,,,null,,,,
null,"<img src=""stim_listB/dance1.gif""</stim_listB>",,html-keyboard-response,67,261478,0.0-13.0-1.9,72990,List1B,black,man,,,,null,,,,
null,is dancing with,,html-keyboard-response,68,263480,0.0-13.0-2.9,72990,List1B,black,man,,,,null,,,,
5257,,,survey-text,69,268739,0.0-13.0-3.9,72990,List1B,black,man,,,,,"{""Q0"":""kate is dancing with fred""}","<img src=""stim_listB/dance1.gif""</stim_listB>",is dancing with,
null,"<div style=""font-size:60px;"">+</div>",,html-keyboard-response,70,269242,0.0-13.0-0.10,72990,List1B,black,man,,,,null,,,,
null,"<img src=""stim_listB/hug1.gif""</stim_listB>",,html-keyboard-response,71,271244,0.0-13.0-1.10,72990,List1B,black,man,,,,null,,,,
null,is hugging,,html-keyboard-response,72,273245,0.0-13.0-2.10,72990,List1B,black,man,,,,null,,,,
6815,,,survey-text,73,280062,0.0-13.0-3.10,72990,List1B,black,man,,,,,"{""Q0"":""kate and fred""}","<img src=""stim_listB/hug1.gif""</stim_listB>",is hugging,
null,"<div style=""font-size:60px;"">+</div>",,html-keyboard-response,74,280563,0.0-13.0-0.11,72990,List1B,black,man,,,,null,,,,
null,"<img src=""stim_listB/hug7.gif""</stim_listB>",,html-keyboard-response,75,282565,0.0-13.0-1.11,72990,List1B,black,man,,,,null,,,,
null,is hugging,,html-keyboard-response,76,284567,0.0-13.0-2.11,72990,List1B,black,man,,,,null,,,,
4105,,,survey-text,77,288674,0.0-13.0-3.11,72990,List1B,black,man,,,,,"{""Q0"":""ruth and kate""}","<img src=""stim_listB/hug7.gif""</stim_listB>",is hugging,
null,"<div style=""font-size:60px;"">+</div>",,html-keyboard-response,78,289175,0.0-13.0-0.12,72990,List1B,black,man,,,,null,,,,
null,"<img src=""stim_listB/hug5.gif""</stim_listB>",,html-keyboard-response,79,291177,0.0-13.0-1.12,72990,List1B,black,man,,,,null,,,,
null,is hugging,,html-keyboard-response,80,293179,0.0-13.0-2.12,72990,List1B,black,man,,,,null,,,,
8096,,,survey-text,81,301277,0.0-13.0-3.12,72990,List1B,black,man,,,,,"{""Q0"":""fred and luke ""}","<img src=""stim_listB/hug5.gif""</stim_listB>",is hugging,
null,"<div style=""font-size:60px;"">+</div>",,html-keyboard-response,82,301778,0.0-13.0-0.13,72990,List1B,black,man,,,,null,,,,
null,"<img src=""stim_listB/talk7.gif""</stim_listB>",,html-keyboard-response,83,303780,0.0-13.0-1.13,72990,List1B,black,man,,,,null,,,,
null,is talking to,,html-keyboard-response,84,305781,0.0-13.0-2.13,72990,List1B,black,man,,,,null,,,,
19957,,,survey-text,85,325740,0.0-13.0-3.13,72990,List1B,black,man,,,,,"{""Q0"":""ruth and beth""}","<img src=""stim_listB/talk7.gif""</stim_listB>",is talking to,
null,"<div style=""font-size:60px;"">+</div>",,html-keyboard-response,86,326241,0.0-13.0-0.14,72990,List1B,black,man,,,,null,,,,
null,"<img src=""stim_listB/dance8.gif""</stim_listB>",,html-keyboard-response,87,328244,0.0-13.0-1.14,72990,List1B,black,man,,,,null,,,,
null,are dancing with each other,,html-keyboard-response,88,330245,0.0-13.0-2.14,72990,List1B,black,man,,,,null,,,,
3619,,,survey-text,89,333865,0.0-13.0-3.14,72990,List1B,black,man,,,,,"{""Q0"":""kate and ruth""}","<img src=""stim_listB/dance8.gif""</stim_listB>",are dancing with each other,
null,"<div style=""font-size:60px;"">+</div>",,html-keyboard-response,90,334367,0.0-13.0-0.15,72990,List1B,black,man,,,,null,,,,
null,"<img src=""stim_listB/touch8.gif""</stim_listB>",,html-keyboard-response,91,336369,0.0-13.0-1.15,72990,List1B,black,man,,,,null,,,,
null,are touching each other,,html-keyboard-response,92,338370,0.0-13.0-2.15,72990,List1B,black,man,,,,null,,,,
7368,,,survey-text,93,345740,0.0-13.0-3.15,72990,List1B,black,man,,,,,"{""Q0"":""beth and mike""}","<img src=""stim_listB/touch8.gif""</stim_listB>",are touching each other,
null,"<div style=""font-size:60px;"">+</div>",,html-keyboard-response,94,346241,0.0-13.0-0.16,72990,List1B,black,man,,,,null,,,,
null,"<img src=""stim_listB/touch5.gif""</stim_listB>",,html-keyboard-response,95,348243,0.0-13.0-1.16,72990,List1B,black,man,,,,null,,,,
null,is touching,,html-keyboard-response,96,350244,0.0-13.0-2.16,72990,List1B,black,man,,,,null,,,,
8436,,,survey-text,97,358682,0.0-13.0-3.16,72990,List1B,black,man,,,,,"{""Q0"":""mike is touching dave""}","<img src=""stim_listB/touch5.gif""</stim_listB>",is touching,
null,"<div style=""font-size:60px;"">+</div>",,html-keyboard-response,98,359183,0.0-13.0-0.17,72990,List1B,black,man,,,,null,,,,
null,"<img src=""stim_listB/fight6.gif""</stim_listB>",,html-keyboard-response,99,361185,0.0-13.0-1.17,72990,List1B,black,man,,,,null,,,,
null,are fighting each other,,html-keyboard-response,100,363186,0.0-13.0-2.17,72990,List1B,black,man,,,,null,,,,
4247,,,survey-text,101,367435,0.0-13.0-3.17,72990,List1B,black,man,,,,,"{""Q0"":""fred and luke""}","<img src=""stim_listB/fight6.gif""</stim_listB>",are fighting each other,
null,"<div style=""font-size:60px;"">+</div>",,html-keyboard-response,102,367937,0.0-13.0-0.18,72990,List1B,black,man,,,,null,,,,
null,"<img src=""stim_listB/meet1.gif""</stim_listB>",,html-keyboard-response,103,369939,0.0-13.0-1.18,72990,List1B,black,man,,,,null,,,,
null,is meeting,,html-keyboard-response,104,371941,0.0-13.0-2.18,72990,List1B,black,man,,,,null,,,,
5215,,,survey-text,105,377157,0.0-13.0-3.18,72990,List1B,black,man,,,,,"{""Q0"":""kate is meeting mike""}","<img src=""stim_listB/meet1.gif""</stim_listB>",is meeting,
null,"<div style=""font-size:60px;"">+</div>",,html-keyboard-response,106,377658,0.0-13.0-0.19,72990,List1B,black,man,,,,null,,,,
null,"<img src=""stim_listB/dance3.gif""</stim_listB>",,html-keyboard-response,107,379660,0.0-13.0-1.19,72990,List1B,black,man,,,,null,,,,
null,is dancing with,,html-keyboard-response,108,381661,0.0-13.0-2.19,72990,List1B,black,man,,,,null,,,,
5855,,,survey-text,109,387518,0.0-13.0-3.19,72990,List1B,black,man,,,,,"{""Q0"":""jane is dancing with luke""}","<img src=""stim_listB/dance3.gif""</stim_listB>",is dancing with,
4504,"<img src='img/portrait_matrix_list1.JPG' style='width:900px;height:500px;''></img><p>If you have memorised all the portraits and names and are ready to start, press Continue.</p><p><strong>Please note: Your memory of these faces will be tested 4 times during this experiment.</strong></p>",0,html-button-response,110,392024,0.0-14.0-0.0,72990,List1B,black,man,,,,,,,,
2975,"<img src=""portrait/WM2.jpg""style=""width:400px;height:400px;""></img>",7,html-button-response,111,396002,0.0-14.0-1.0,72990,List1B,black,man,,TRUE,7,,,,,
null,CORRECT,,html-keyboard-response,112,397504,0.0-14.0-2.0-0.0,72990,List1B,black,man,,,,null,,,,
2865,"<img src=""portrait/BM2.jpg""style=""width:400px;height:400px;""></img>",5,html-button-response,113,400373,0.0-14.0-4.0,72990,List1B,black,man,,TRUE,5,,,,,
null,CORRECT,,html-keyboard-response,114,401876,0.0-14.0-5.0-0.0,72990,List1B,black,man,,,,null,,,,
2513,"<img src=""portrait/BW2.jpg""style=""width:400px;height:400px;""></img>",2,html-button-response,115,404392,0.0-14.0-7.0,72990,List1B,black,man,,TRUE,2,,,,,
null,CORRECT,,html-keyboard-response,116,405894,0.0-14.0-8.0-0.0,72990,List1B,black,man,,,,null,,,,
2724,"<img src=""portrait/WW1.jpg""style=""width:400px;height:400px;""></img>",1,html-button-response,117,408621,0.0-14.0-10.0,72990,List1B,black,man,,TRUE,1,,,,,
null,CORRECT,,html-keyboard-response,118,410124,0.0-14.0-11.0-0.0,72990,List1B,black,man,,,,null,,,,
2749,"<img src=""portrait/BW1.jpg""style=""width:400px;height:400px;""></img>",0,html-button-response,119,412877,0.0-14.0-13.0,72990,List1B,black,man,,TRUE,0,,,,,
null,CORRECT,,html-keyboard-response,120,414379,0.0-14.0-14.0-0.0,72990,List1B,black,man,,,,null,,,,
1917,"<img src=""portrait/WW2.jpg""style=""width:400px;height:400px;""></img>",3,html-button-response,121,416298,0.0-14.0-16.0,72990,List1B,black,man,,TRUE,3,,,,,
null,CORRECT,,html-keyboard-response,122,417803,0.0-14.0-17.0-0.0,72990,List1B,black,man,,,,null,,,,
3112,"<img src=""portrait/WM1.jpg""style=""width:400px;height:400px;""></img>",6,html-button-response,123,420917,0.0-14.0-19.0,72990,List1B,black,man,,TRUE,6,,,,,
null,CORRECT,,html-keyboard-response,124,422420,0.0-14.0-20.0-0.0,72990,List1B,black,man,,,,null,,,,
4484,"<img src=""portrait/BM1.jpg""style=""width:400px;height:400px;""></img>",4,html-button-response,125,426906,0.0-14.0-22.0,72990,List1B,black,man,,TRUE,4,,,,,
null,CORRECT,,html-keyboard-response,126,428409,0.0-14.0-23.0-0.0,72990,List1B,black,man,,,,null,,,,
1846,<p>You got 8 out of 8 right first time. Press Continue.</p>,0,html-button-response,127,430257,0.0-14.0-25.0,72990,List1B,black,man,,,,,,,,
null,"<div style=""font-size:60px;"">+</div>",,html-keyboard-response,128,431759,0.0-15.0-0.0,72990,List1B,black,man,,,,null,,,,
null,"<img src=""stim_listB/argue8.gif""</stim_listB>",,html-keyboard-response,129,433761,0.0-15.0-1.0,72990,List1B,black,man,,,,null,,,,
null,are arguing with each other,,html-keyboard-response,130,435763,0.0-15.0-2.0,72990,List1B,black,man,,,,null,,,,
4991,,,survey-text,131,440755,0.0-15.0-3.0,72990,List1B,black,man,,,,,"{""Q0"":""ruth and beth""}","<img src=""stim_listB/argue8.gif""</stim_listB>",are arguing with each other,
null,"<div style=""font-size:60px;"">+</div>",,html-keyboard-response,132,441257,0.0-15.0-0.1,72990,List1B,black,man,,,,null,,,,
null,"<img src=""stim_listB/meet3.gif""</stim_listB>",,html-keyboard-response,133,443259,0.0-15.0-1.1,72990,List1B,black,man,,,,null,,,,
null,is meeting,,html-keyboard-response,134,445260,0.0-15.0-2.1,72990,List1B,black,man,,,,null,,,,
7950,,,survey-text,135,453212,0.0-15.0-3.1,72990,List1B,black,man,,,,,"{""Q0"":""jane and dave""}","<img src=""stim_listB/meet3.gif""</stim_listB>",is meeting,
null,"<div style=""font-size:60px;"">+</div>",,html-keyboard-response,136,453713,0.0-15.0-0.2,72990,List1B,black,man,,,,null,,,,
null,"<img src=""stim_listB/kiss6.gif""</stim_listB>",,html-keyboard-response,137,455716,0.0-15.0-1.2,72990,List1B,black,man,,,,null,,,,
null,are kissing each other,,html-keyboard-response,138,457717,0.0-15.0-2.2,72990,List1B,black,man,,,,null,,,,
4352,,,survey-text,139,462070,0.0-15.0-3.2,72990,List1B,black,man,,,,,"{""Q0"":""mike and dave""}","<img src=""stim_listB/kiss6.gif""</stim_listB>",are kissing each other,
null,"<div style=""font-size:60px;"">+</div>",,html-keyboard-response,140,462571,0.0-15.0-0.3,72990,List1B,black,man,,,,null,,,,
null,"<img src=""stim_listB/hug4.gif""</stim_listB>",,html-keyboard-response,141,464574,0.0-15.0-1.3,72990,List1B,black,man,,,,null,,,,
null,are hugging each other,,html-keyboard-response,142,466575,0.0-15.0-2.3,72990,List1B,black,man,,,,null,,,,
4233,,,survey-text,143,470808,0.0-15.0-3.3,72990,List1B,black,man,,,,,"{""Q0"":""dave and jane""}","<img src=""stim_listB/hug4.gif""</stim_listB>",are hugging each other,
null,"<div style=""font-size:60px;"">+</div>",,html-keyboard-response,144,471310,0.0-15.0-0.4,72990,List1B,black,man,,,,null,,,,
null,"<img src=""stim_listB/hug6.gif""</stim_listB>",,html-keyboard-response,145,473311,0.0-15.0-1.4,72990,List1B,black,man,,,,null,,,,
null,are hugging each other,,html-keyboard-response,146,475312,0.0-15.0-2.4,72990,List1B,black,man,,,,null,,,,
6175,,,survey-text,147,481492,0.0-15.0-3.4,72990,List1B,black,man,,,,,"{""Q0"":""dave and mike""}","<img src=""stim_listB/hug6.gif""</stim_listB>",are hugging each other,
null,"<div style=""font-size:60px;"">+</div>",,html-keyboard-response,148,481994,0.0-15.0-0.5,72990,List1B,black,man,,,,null,,,,
null,"<img src=""stim_listB/hug2.gif""</stim_listB>",,html-keyboard-response,149,483996,0.0-15.0-1.5,72990,List1B,black,man,,,,null,,,,
null,are hugging each other,,html-keyboard-response,150,485997,0.0-15.0-2.5,72990,List1B,black,man,,,,null,,,,
3501,,,survey-text,151,489500,0.0-15.0-3.5,72990,List1B,black,man,,,,,"{""Q0"":""mike and beth""}","<img src=""stim_listB/hug2.gif""</stim_listB>",are hugging each other,
null,"<div style=""font-size:60px;"">+</div>",,html-keyboard-response,152,490002,0.0-15.0-0.6,72990,List1B,black,man,,,,null,,,,
null,"<img src=""stim_listB/fight3.gif""</stim_listB>",,html-keyboard-response,153,492004,0.0-15.0-1.6,72990,List1B,black,man,,,,null,,,,
null,is fighting,,html-keyboard-response,154,494005,0.0-15.0-2.6,72990,List1B,black,man,,,,null,,,,
4807,,,survey-text,155,498814,0.0-15.0-3.6,72990,List1B,black,man,,,,,"{""Q0"":""dave and jane""}","<img src=""stim_listB/fight3.gif""</stim_listB>",is fighting,
null,"<div style=""font-size:60px;"">+</div>",,html-keyboard-response,156,499316,0.0-15.0-0.7,72990,List1B,black,man,,,,null,,,,
null,"<img src=""stim_listB/kiss5.gif""</stim_listB>",,html-keyboard-response,157,501318,0.0-15.0-1.7,72990,List1B,black,man,,,,null,,,,
null,is kissing,,html-keyboard-response,158,503320,0.0-15.0-2.7,72990,List1B,black,man,,,,null,,,,
5018,,,survey-text,159,508339,0.0-15.0-3.7,72990,List1B,black,man,,,,,"{""Q0"":""luke is kissing fred""}","<img src=""stim_listB/kiss5.gif""</stim_listB>",is kissing,
null,"<div style=""font-size:60px;"">+</div>",,html-keyboard-response,160,508840,0.0-15.0-0.8,72990,List1B,black,man,,,,null,,,,
null,"<img src=""stim_listB/shout4.gif""</stim_listB>",,html-keyboard-response,161,510842,0.0-15.0-1.8,72990,List1B,black,man,,,,null,,,,
null,are shouting at each other,,html-keyboard-response,162,512844,0.0-15.0-2.8,72990,List1B,black,man,,,,null,,,,
3843,,,survey-text,163,516687,0.0-15.0-3.8,72990,List1B,black,man,,,,,"{""Q0"":""dave and jane""}","<img src=""stim_listB/shout4.gif""</stim_listB>",are shouting at each other,
null,"<div style=""font-size:60px;"">+</div>",,html-keyboard-response,164,517189,0.0-15.0-0.9,72990,List1B,black,man,,,,null,,,,
null,"<img src=""stim_listB/meet7.gif""</stim_listB>",,html-keyboard-response,165,519191,0.0-15.0-1.9,72990,List1B,black,man,,,,null,,,,
null,is meeting,,html-keyboard-response,166,521192,0.0-15.0-2.9,72990,List1B,black,man,,,,null,,,,
5467,,,survey-text,167,526662,0.0-15.0-3.9,72990,List1B,black,man,,,,,"{""Q0"":""kate is meeting jane""}","<img src=""stim_listB/meet7.gif""</stim_listB>",is meeting,
null,"<div style=""font-size:60px;"">+</div>",,html-keyboard-response,168,527164,0.0-15.0-0.10,72990,List1B,black,man,,,,null,,,,
null,"<img src=""stim_listB/fight1.gif""</stim_listB>",,html-keyboard-response,169,529166,0.0-15.0-1.10,72990,List1B,black,man,,,,null,,,,
null,is fighting,,html-keyboard-response,170,531168,0.0-15.0-2.10,72990,List1B,black,man,,,,null,,,,
4890,,,survey-text,171,536060,0.0-15.0-3.10,72990,List1B,black,man,,,,,"{""Q0"":""kate is fighting mike""}","<img src=""stim_listB/fight1.gif""</stim_listB>",is fighting,
null,"<div style=""font-size:60px;"">+</div>",,html-keyboard-response,172,536562,0.0-15.0-0.11,72990,List1B,black,man,,,,null,,,,
null,"<img src=""stim_listB/marry8.gif""</stim_listB>",,html-keyboard-response,173,538564,0.0-15.0-1.11,72990,List1B,black,man,,,,null,,,,
null,are marrying each other,,html-keyboard-response,174,540565,0.0-15.0-2.11,72990,List1B,black,man,,,,null,,,,
4199,,,survey-text,175,544766,0.0-15.0-3.11,72990,List1B,black,man,,,,,"{""Q0"":""beth and jane""}","<img src=""stim_listB/marry8.gif""</stim_listB>",are marrying each other,
null,"<div style=""font-size:60px;"">+</div>",,html-keyboard-response,176,545267,0.0-15.0-0.12,72990,List1B,black,man,,,,null,,,,
null,"<img src=""stim_listB/meet5.gif""</stim_listB>",,html-keyboard-response,177,547269,0.0-15.0-1.12,72990,List1B,black,man,,,,null,,,,
null,is meeting,,html-keyboard-response,178,549271,0.0-15.0-2.12,72990,List1B,black,man,,,,null,,,,
364,,,survey-text,179,549636,0.0-15.0-3.12,72990,List1B,black,man,,,,,"{""Q0"":""""}","<img src=""stim_listB/meet5.gif""</stim_listB>",is meeting,
null,"<div style=""font-size:60px;"">+</div>",,html-keyboard-response,180,550137,0.0-15.0-0.13,72990,List1B,black,man,,,,null,,,,
null,"<img src=""stim_listB/shout1.gif""</stim_listB>",,html-keyboard-response,181,552139,0.0-15.0-1.13,72990,List1B,black,man,,,,null,,,,
null,is shouting at,,html-keyboard-response,182,554140,0.0-15.0-2.13,72990,List1B,black,man,,,,null,,,,
6752,,,survey-text,183,560894,0.0-15.0-3.13,72990,List1B,black,man,,,,,"{""Q0"":""beth is shouting at fred""}","<img src=""stim_listB/shout1.gif""</stim_listB>",is shouting at,
null,"<div style=""font-size:60px;"">+</div>",,html-keyboard-response,184,561395,0.0-15.0-0.14,72990,List1B,black,man,,,,null,,,,
null,"<img src=""stim_listB/dance7.gif""</stim_listB>",,html-keyboard-response,185,563397,0.0-15.0-1.14,72990,List1B,black,man,,,,null,,,,
null,is dancing with,,html-keyboard-response,186,565399,0.0-15.0-2.14,72990,List1B,black,man,,,,null,,,,
8900,,,survey-text,187,574299,0.0-15.0-3.14,72990,List1B,black,man,,,,,"{""Q0"":""beth is dancing with jane""}","<img src=""stim_listB/dance7.gif""</stim_listB>",is dancing with,
null,"<div style=""font-size:60px;"">+</div>",,html-keyboard-response,188,574801,0.0-15.0-0.15,72990,List1B,black,man,,,,null,,,,
null,"<img src=""stim_listB/marry1.gif""</stim_listB>",,html-keyboard-response,189,576803,0.0-15.0-1.15,72990,List1B,black,man,,,,null,,,,
null,is marrying,,html-keyboard-response,190,578804,0.0-15.0-2.15,72990,List1B,black,man,,,,null,,,,
6188,,,survey-text,191,584993,0.0-15.0-3.15,72990,List1B,black,man,,,,,"{""Q0"":""beth is marrying mike""}","<img src=""stim_listB/marry1.gif""</stim_listB>",is marrying,
null,"<div style=""font-size:60px;"">+</div>",,html-keyboard-response,192,585495,0.0-15.0-0.16,72990,List1B,black,man,,,,null,,,,
null,"<img src=""stim_listB/touch4.gif""</stim_listB>",,html-keyboard-response,193,588134,0.0-15.0-1.16,72990,List1B,black,man,,,,null,,,,
null,are touching each other,,html-keyboard-response,194,591135,0.0-15.0-2.16,72990,List1B,black,man,,,,null,,,,
15161,,,survey-text,195,606297,0.0-15.0-3.16,72990,List1B,black,man,,,,,"{""Q0"":""luke and ruth""}","<img src=""stim_listB/touch4.gif""</stim_listB>",are touching each other,
null,"<div style=""font-size:60px;"">+</div>",,html-keyboard-response,196,606799,0.0-15.0-0.17,72990,List1B,black,man,,,,null,,,,
null,"<img src=""stim_listB/marry7.gif""</stim_listB>",,html-keyboard-response,197,608801,0.0-15.0-1.17,72990,List1B,black,man,,,,null,,,,
null,is marrying,,html-keyboard-response,198,610802,0.0-15.0-2.17,72990,List1B,black,man,,,,null,,,,
5387,,,survey-text,199,616192,0.0-15.0-3.17,72990,List1B,black,man,,,,,"{""Q0"":""ruth is marrying kate""}","<img src=""stim_listB/marry7.gif""</stim_listB>",is marrying,
null,"<div style=""font-size:60px;"">+</div>",,html-keyboard-response,200,616694,0.0-15.0-0.18,72990,List1B,black,man,,,,null,,,,
null,"<img src=""stim_listB/talk5.gif""</stim_listB>",,html-keyboard-response,201,618696,0.0-15.0-1.18,72990,List1B,black,man,,,,null,,,,
null,is talking to,,html-keyboard-response,202,620697,0.0-15.0-2.18,72990,List1B,black,man,,,,null,,,,
5091,,,survey-text,203,625790,0.0-15.0-3.18,72990,List1B,black,man,,,,,"{""Q0"":""dave is talking to fred""}","<img src=""stim_listB/talk5.gif""</stim_listB>",is talking to,
null,"<div style=""font-size:60px;"">+</div>",,html-keyboard-response,204,626292,0.0-15.0-0.19,72990,List1B,black,man,,,,null,,,,
null,"<img src=""stim_listB/marry3.gif""</stim_listB>",,html-keyboard-response,205,628294,0.0-15.0-1.19,72990,List1B,black,man,,,,null,,,,
null,is marrying,,html-keyboard-response,206,630295,0.0-15.0-2.19,72990,List1B,black,man,,,,null,,,,
6268,,,survey-text,207,636565,0.0-15.0-3.19,72990,List1B,black,man,,,,,"{""Q0"":""ruth is marrying dave""}","<img src=""stim_listB/marry3.gif""</stim_listB>",is marrying,
14925,"<img src='img/portrait_matrix_list1.JPG' style='width:900px;height:500px;''></img><p>If you have memorised all the portraits and names and are ready to start, press Continue.</p><p><strong>Please note: Your memory of these faces will be tested 4 times during this experiment.</strong></p>",0,html-button-response,208,651492,0.0-16.0-0.0,72990,List1B,black,man,,,,,,,,
2382,"<img src=""portrait/BM2.jpg""style=""width:400px;height:400px;""></img>",5,html-button-response,209,654877,0.0-16.0-1.0,72990,List1B,black,man,,TRUE,5,,,,,
null,CORRECT,,html-keyboard-response,210,656380,0.0-16.0-2.0-0.0,72990,List1B,black,man,,,,null,,,,
2319,"<img src=""portrait/BW1.jpg""style=""width:400px;height:400px;""></img>",0,html-button-response,211,658701,0.0-16.0-4.0,72990,List1B,black,man,,TRUE,0,,,,,
null,CORRECT,,html-keyboard-response,212,660203,0.0-16.0-5.0-0.0,72990,List1B,black,man,,,,null,,,,
2416,"<img src=""portrait/WM2.jpg""style=""width:400px;height:400px;""></img>",7,html-button-response,213,662621,0.0-16.0-7.0,72990,List1B,black,man,,TRUE,7,,,,,
null,CORRECT,,html-keyboard-response,214,664123,0.0-16.0-8.0-0.0,72990,List1B,black,man,,,,null,,,,
1728,"<img src=""portrait/WW2.jpg""style=""width:400px;height:400px;""></img>",3,html-button-response,215,665854,0.0-16.0-10.0,72990,List1B,black,man,,TRUE,3,,,,,
null,CORRECT,,html-keyboard-response,216,667356,0.0-16.0-11.0-0.0,72990,List1B,black,man,,,,null,,,,
1978,"<img src=""portrait/WM1.jpg""style=""width:400px;height:400px;""></img>",6,html-button-response,217,669337,0.0-16.0-13.0,72990,List1B,black,man,,TRUE,6,,,,,
null,CORRECT,,html-keyboard-response,218,670840,0.0-16.0-14.0-0.0,72990,List1B,black,man,,,,null,,,,
2623,"<img src=""portrait/BW2.jpg""style=""width:400px;height:400px;""></img>",2,html-button-response,219,673466,0.0-16.0-16.0,72990,List1B,black,man,,TRUE,2,,,,,
null,CORRECT,,html-keyboard-response,220,674968,0.0-16.0-17.0-0.0,72990,List1B,black,man,,,,null,,,,
2076,"<img src=""portrait/BM1.jpg""style=""width:400px;height:400px;""></img>",4,html-button-response,221,677047,0.0-16.0-19.0,72990,List1B,black,man,,TRUE,4,,,,,
null,CORRECT,,html-keyboard-response,222,678549,0.0-16.0-20.0-0.0,72990,List1B,black,man,,,,null,,,,
3037,"<img src=""portrait/WW1.jpg""style=""width:400px;height:400px;""></img>",1,html-button-response,223,681589,0.0-16.0-22.0,72990,List1B,black,man,,TRUE,1,,,,,
null,CORRECT,,html-keyboard-response,224,683091,0.0-16.0-23.0-0.0,72990,List1B,black,man,,,,null,,,,
1546,<p>You got 8 out of 8 right first time. Press Continue.</p>,0,html-button-response,225,684640,0.0-16.0-25.0,72990,List1B,black,man,,,,,,,,
null,"<div style=""font-size:60px;"">+</div>",,html-keyboard-response,226,686142,0.0-17.0-0.0,72990,List1B,black,man,,,,null,,,,
null,"<img src=""stim_listB/fight5.gif""</stim_listB>",,html-keyboard-response,227,688144,0.0-17.0-1.0,72990,List1B,black,man,,,,null,,,,
null,is fighting,,html-keyboard-response,228,690146,0.0-17.0-2.0,72990,List1B,black,man,,,,null,,,,
5538,,,survey-text,229,695685,0.0-17.0-3.0,72990,List1B,black,man,,,,,"{""Q0"":""dave is fighting mike""}","<img src=""stim_listB/fight5.gif""</stim_listB>",is fighting,
null,"<div style=""font-size:60px;"">+</div>",,html-keyboard-response,230,696186,0.0-17.0-0.1,72990,List1B,black,man,,,,null,,,,
null,"<img src=""stim_listB/fight4.gif""</stim_listB>",,html-keyboard-response,231,698189,0.0-17.0-1.1,72990,List1B,black,man,,,,null,,,,
null,are fighting each other,,html-keyboard-response,232,700190,0.0-17.0-2.1,72990,List1B,black,man,,,,null,,,,
3660,,,survey-text,233,703852,0.0-17.0-3.1,72990,List1B,black,man,,,,,"{""Q0"":""luke and ruth""}","<img src=""stim_listB/fight4.gif""</stim_listB>",are fighting each other,
null,"<div style=""font-size:60px;"">+</div>",,html-keyboard-response,234,704353,0.0-17.0-0.2,72990,List1B,black,man,,,,null,,,,
null,"<img src=""stim_listB/touch2.gif""</stim_listB>",,html-keyboard-response,235,706355,0.0-17.0-1.2,72990,List1B,black,man,,,,null,,,,
null,are touching each other,,html-keyboard-response,236,708357,0.0-17.0-2.2,72990,List1B,black,man,,,,null,,,,
3519,,,survey-text,237,711877,0.0-17.0-3.2,72990,List1B,black,man,,,,,"{""Q0"":""fred and beth""}","<img src=""stim_listB/touch2.gif""</stim_listB>",are touching each other,
null,"<div style=""font-size:60px;"">+</div>",,html-keyboard-response,238,712378,0.0-17.0-0.3,72990,List1B,black,man,,,,null,,,,
null,"<img src=""stim_listB/argue1.gif""</stim_listB>",,html-keyboard-response,239,714380,0.0-17.0-1.3,72990,List1B,black,man,,,,null,,,,
null,is arguing with,,html-keyboard-response,240,716382,0.0-17.0-2.3,72990,List1B,black,man,,,,null,,,,
5219,,,survey-text,241,721603,0.0-17.0-3.3,72990,List1B,black,man,,,,,"{""Q0"":""beth is arguing with mike""}","<img src=""stim_listB/argue1.gif""</stim_listB>",is arguing with,
null,"<div style=""font-size:60px;"">+</div>",,html-keyboard-response,242,722105,0.0-17.0-0.4,72990,List1B,black,man,,,,null,,,,
null,"<img src=""stim_listB/argue7.gif""</stim_listB>",,html-keyboard-response,243,724107,0.0-17.0-1.4,72990,List1B,black,man,,,,null,,,,
null,is arguing with,,html-keyboard-response,244,726108,0.0-17.0-2.4,72990,List1B,black,man,,,,null,,,,
5476,,,survey-text,245,731585,0.0-17.0-3.4,72990,List1B,black,man,,,,,"{""Q0"":""ruth is arguing with kate""}","<img src=""stim_listB/argue7.gif""</stim_listB>",is arguing with,
null,"<div style=""font-size:60px;"">+</div>",,html-keyboard-response,246,732087,0.0-17.0-0.5,72990,List1B,black,man,,,,null,,,,
null,"<img src=""stim_listB/shout7.gif""</stim_listB>",,html-keyboard-response,247,734089,0.0-17.0-1.5,72990,List1B,black,man,,,,null,,,,
null,is shouting at,,html-keyboard-response,248,736091,0.0-17.0-2.5,72990,List1B,black,man,,,,null,,,,
6030,,,survey-text,249,742124,0.0-17.0-3.5,72990,List1B,black,man,,,,,"{""Q0"":""ruth is shouting at beth""}","<img src=""stim_listB/shout7.gif""</stim_listB>",is shouting at,
null,"<div style=""font-size:60px;"">+</div>",,html-keyboard-response,250,742627,0.0-17.0-0.6,72990,List1B,black,man,,,,null,,,,
null,"<img src=""stim_listB/talk8.gif""</stim_listB>",,html-keyboard-response,251,744629,0.0-17.0-1.6,72990,List1B,black,man,,,,null,,,,
null,are talking to each other,,html-keyboard-response,252,746630,0.0-17.0-2.6,72990,List1B,black,man,,,,null,,,,
4232,,,survey-text,253,750864,0.0-17.0-3.6,72990,List1B,black,man,,,,,"{""Q0"":""ruth and kate""}","<img src=""stim_listB/talk8.gif""</stim_listB>",are talking to each other,
null,"<div style=""font-size:60px;"">+</div>",,html-keyboard-response,254,751366,0.0-17.0-0.7,72990,List1B,black,man,,,,null,,,,
null,"<img src=""stim_listB/meet4.gif""</stim_listB>",,html-keyboard-response,255,753368,0.0-17.0-1.7,72990,List1B,black,man,,,,null,,,,
null,are meeting each other,,html-keyboard-response,256,755369,0.0-17.0-2.7,72990,List1B,black,man,,,,null,,,,
5213,,,survey-text,257,760583,0.0-17.0-3.7,72990,List1B,black,man,,,,,"{""Q0"":""luke and ruth""}","<img src=""stim_listB/meet4.gif""</stim_listB>",are meeting each other,
null,"<div style=""font-size:60px;"">+</div>",,html-keyboard-response,258,761085,0.0-17.0-0.8,72990,List1B,black,man,,,,null,,,,
null,"<img src=""stim_listB/meet2.gif""</stim_listB>",,html-keyboard-response,259,763087,0.0-17.0-1.8,72990,List1B,black,man,,,,null,,,,
null,are meeting each other,,html-keyboard-response,260,765088,0.0-17.0-2.8,72990,List1B,black,man,,,,null,,,,
6731,,,survey-text,261,771820,0.0-17.0-3.8,72990,List1B,black,man,,,,,"{""Q0"":""beth and fred""}","<img src=""stim_listB/meet2.gif""</stim_listB>",are meeting each other,
null,"<div style=""font-size:60px;"">+</div>",,html-keyboard-response,262,772322,0.0-17.0-0.9,72990,List1B,black,man,,,,null,,,,
null,"<img src=""stim_listB/argue5.gif""</stim_listB>",,html-keyboard-response,263,774324,0.0-17.0-1.9,72990,List1B,black,man,,,,null,,,,
null,is arguing with,,html-keyboard-response,264,776325,0.0-17.0-2.9,72990,List1B,black,man,,,,null,,,,
9284,,,survey-text,265,785611,0.0-17.0-3.9,72990,List1B,black,man,,,,,"{""Q0"":""luke is arguing with mike""}","<img src=""stim_listB/argue5.gif""</stim_listB>",is arguing with,
null,"<div style=""font-size:60px;"">+</div>",,html-keyboard-response,266,786113,0.0-17.0-0.10,72990,List1B,black,man,,,,null,,,,
null,"<img src=""stim_listB/kiss8.gif""</stim_listB>",,html-keyboard-response,267,788115,0.0-17.0-1.10,72990,List1B,black,man,,,,null,,,,
null,are kissing each other,,html-keyboard-response,268,790116,0.0-17.0-2.10,72990,List1B,black,man,,,,null,,,,
5663,,,survey-text,269,795781,0.0-17.0-3.10,72990,List1B,black,man,,,,,"{""Q0"":""kate and jane""}","<img src=""stim_listB/kiss8.gif""</stim_listB>",are kissing each other,
null,"<div style=""font-size:60px;"">+</div>",,html-keyboard-response,270,796282,0.0-17.0-0.11,72990,List1B,black,man,,,,null,,,,
null,"<img src=""stim_listB/fight8.gif""</stim_listB>",,html-keyboard-response,271,798284,0.0-17.0-1.11,72990,List1B,black,man,,,,null,,,,
null,are fighting each other,,html-keyboard-response,272,800286,0.0-17.0-2.11,72990,List1B,black,man,,,,null,,,,
4158,,,survey-text,273,804444,0.0-17.0-3.11,72990,List1B,black,man,,,,,"{""Q0"":""ruth and beth""}","<img src=""stim_listB/fight8.gif""</stim_listB>",are fighting each other,
null,"<div style=""font-size:60px;"">+</div>",,html-keyboard-response,274,804946,0.0-17.0-0.12,72990,List1B,black,man,,,,null,,,,
null,"<img src=""stim_listB/marry6.gif""</stim_listB>",,html-keyboard-response,275,806948,0.0-17.0-1.12,72990,List1B,black,man,,,,null,,,,
null,are marrying each other,,html-keyboard-response,276,808949,0.0-17.0-2.12,72990,List1B,black,man,,,,null,,,,
3016,,,survey-text,277,811968,0.0-17.0-3.12,72990,List1B,black,man,,,,,"{""Q0"":""dave and fred""}","<img src=""stim_listB/marry6.gif""</stim_listB>",are marrying each other,
null,"<div style=""font-size:60px;"">+</div>",,html-keyboard-response,278,812470,0.0-17.0-0.13,72990,List1B,black,man,,,,null,,,,
null,"<img src=""stim_listB/dance4.gif""</stim_listB>",,html-keyboard-response,279,814472,0.0-17.0-1.13,72990,List1B,black,man,,,,null,,,,
null,are dancing with each other,,html-keyboard-response,280,816473,0.0-17.0-2.13,72990,List1B,black,man,,,,null,,,,
3527,,,survey-text,281,820002,0.0-17.0-3.13,72990,List1B,black,man,,,,,"{""Q0"":""ruth and dave""}","<img src=""stim_listB/dance4.gif""</stim_listB>",are dancing with each other,
null,"<div style=""font-size:60px;"">+</div>",,html-keyboard-response,282,820504,0.0-17.0-0.14,72990,List1B,black,man,,,,null,,,,
null,"<img src=""stim_listB/talk2.gif""</stim_listB>",,html-keyboard-response,283,822506,0.0-17.0-1.14,72990,List1B,black,man,,,,null,,,,
null,are talking to each other,,html-keyboard-response,284,824507,0.0-17.0-2.14,72990,List1B,black,man,,,,null,,,,
4465,,,survey-text,285,828974,0.0-17.0-3.14,72990,List1B,black,man,,,,,"{""Q0"":""mike and beth""}","<img src=""stim_listB/talk2.gif""</stim_listB>",are talking to each other,
null,"<div style=""font-size:60px;"">+</div>",,html-keyboard-response,286,829476,0.0-17.0-0.15,72990,List1B,black,man,,,,null,,,,
null,"<img src=""stim_listB/kiss7.gif""</stim_listB>",,html-keyboard-response,287,831478,0.0-17.0-1.15,72990,List1B,black,man,,,,null,,,,
null,is kissing,,html-keyboard-response,288,833479,0.0-17.0-2.15,72990,List1B,black,man,,,,null,,,,
4576,,,survey-text,289,838057,0.0-17.0-3.15,72990,List1B,black,man,,,,,"{""Q0"":""ruth is kissing beth""}","<img src=""stim_listB/kiss7.gif""</stim_listB>",is kissing,
null,"<div style=""font-size:60px;"">+</div>",,html-keyboard-response,290,838558,0.0-17.0-0.16,72990,List1B,black,man,,,,null,,,,
null,"<img src=""stim_listB/hug3.gif""</stim_listB>",,html-keyboard-response,291,840561,0.0-17.0-1.16,72990,List1B,black,man,,,,null,,,,
null,is hugging,,html-keyboard-response,292,842562,0.0-17.0-2.16,72990,List1B,black,man,,,,null,,,,
4485,,,survey-text,293,847049,0.0-17.0-3.16,72990,List1B,black,man,,,,,"{""Q0"":""ruth is hugging luke""}","<img src=""stim_listB/hug3.gif""</stim_listB>",is hugging,
null,"<div style=""font-size:60px;"">+</div>",,html-keyboard-response,294,847551,0.0-17.0-0.17,72990,List1B,black,man,,,,null,,,,
null,"<img src=""stim_listB/touch7.gif""</stim_listB>",,html-keyboard-response,295,849553,0.0-17.0-1.17,72990,List1B,black,man,,,,null,,,,
null,is touching,,html-keyboard-response,296,851554,0.0-17.0-2.17,72990,List1B,black,man,,,,null,,,,
6880,,,survey-text,297,858436,0.0-17.0-3.17,72990,List1B,black,man,,,,,"{""Q0"":""jane is touching kate""}","<img src=""stim_listB/touch7.gif""</stim_listB>",is touching,
null,"<div style=""font-size:60px;"">+</div>",,html-keyboard-response,298,858939,0.0-17.0-0.18,72990,List1B,black,man,,,,null,,,,
null,"<img src=""stim_listB/shout2.gif""</stim_listB>",,html-keyboard-response,299,860941,0.0-17.0-1.18,72990,List1B,black,man,,,,null,,,,
null,are shouting at each other,,html-keyboard-response,300,862942,0.0-17.0-2.18,72990,List1B,black,man,,,,null,,,,
3457,,,survey-text,301,866400,0.0-17.0-3.18,72990,List1B,black,man,,,,,"{""Q0"":""kate and mike""}","<img src=""stim_listB/shout2.gif""</stim_listB>",are shouting at each other,
null,"<div style=""font-size:60px;"">+</div>",,html-keyboard-response,302,866902,0.0-17.0-0.19,72990,List1B,black,man,,,,null,,,,
null,"<img src=""stim_listB/meet6.gif""</stim_listB>",,html-keyboard-response,303,868903,0.0-17.0-1.19,72990,List1B,black,man,,,,null,,,,
null,are meeting each other,,html-keyboard-response,304,870904,0.0-17.0-2.19,72990,List1B,black,man,,,,null,,,,
4359,,,survey-text,305,875265,0.0-17.0-3.19,72990,List1B,black,man,,,,,"{""Q0"":""luke and fred""}","<img src=""stim_listB/meet6.gif""</stim_listB>",are meeting each other,
2412,"<img src='img/portrait_matrix_list1.JPG' style='width:900px;height:500px;''></img><p>If you have memorised all the portraits and names and are ready to start, press Continue.</p><p><strong>Please note: Your memory of these faces will be tested 4 times during this experiment.</strong></p>",0,html-button-response,306,877680,0.0-18.0-0.0,72990,List1B,black,man,,,,,,,,
1802,"<img src=""portrait/BW1.jpg""style=""width:400px;height:400px;""></img>",0,html-button-response,307,880486,0.0-18.0-1.0,72990,List1B,black,man,,TRUE,0,,,,,
null,CORRECT,,html-keyboard-response,308,881988,0.0-18.0-2.0-0.0,72990,List1B,black,man,,,,null,,,,
1150,"<img src=""portrait/WW2.jpg""style=""width:400px;height:400px;""></img>",3,html-button-response,309,883142,0.0-18.0-4.0,72990,List1B,black,man,,TRUE,3,,,,,
null,CORRECT,,html-keyboard-response,310,884644,0.0-18.0-5.0-0.0,72990,List1B,black,man,,,,null,,,,
1731,"<img src=""portrait/BM2.jpg""style=""width:400px;height:400px;""></img>",5,html-button-response,311,886377,0.0-18.0-7.0,72990,List1B,black,man,,TRUE,5,,,,,
null,CORRECT,,html-keyboard-response,312,887879,0.0-18.0-8.0-0.0,72990,List1B,black,man,,,,null,,,,
2116,"<img src=""portrait/WW1.jpg""style=""width:400px;height:400px;""></img>",1,html-button-response,313,889998,0.0-18.0-10.0,72990,List1B,black,man,,TRUE,1,,,,,
null,CORRECT,,html-keyboard-response,314,891501,0.0-18.0-11.0-0.0,72990,List1B,black,man,,,,null,,,,
6181,"<img src=""portrait/WM2.jpg""style=""width:400px;height:400px;""></img>",7,html-button-response,315,897685,0.0-18.0-13.0,72990,List1B,black,man,,TRUE,7,,,,,
null,CORRECT,,html-keyboard-response,316,899187,0.0-18.0-14.0-0.0,72990,List1B,black,man,,,,null,,,,
8415,"<img src=""portrait/BW2.jpg""style=""width:400px;height:400px;""></img>",2,html-button-response,317,907605,0.0-18.0-16.0,72990,List1B,black,man,,TRUE,2,,,,,
null,CORRECT,,html-keyboard-response,318,909108,0.0-18.0-17.0-0.0,72990,List1B,black,man,,,,null,,,,
2060,"<img src=""portrait/BM1.jpg""style=""width:400px;height:400px;""></img>",4,html-button-response,319,911170,0.0-18.0-19.0,72990,List1B,black,man,,TRUE,4,,,,,
null,CORRECT,,html-keyboard-response,320,912673,0.0-18.0-20.0-0.0,72990,List1B,black,man,,,,null,,,,
2205,"<img src=""portrait/WM1.jpg""style=""width:400px;height:400px;""></img>",6,html-button-response,321,914881,0.0-18.0-22.0,72990,List1B,black,man,,TRUE,6,,,,,
null,CORRECT,,html-keyboard-response,322,916383,0.0-18.0-23.0-0.0,72990,List1B,black,man,,,,null,,,,
1399,<p>You got 8 out of 8 right first time. Press Continue.</p>,0,html-button-response,323,917784,0.0-18.0-25.0,72990,List1B,black,man,,,,,,,,
null,"<div style=""font-size:60px;"">+</div>",,html-keyboard-response,324,919287,0.0-19.0-0.0,72990,List1B,black,man,,,,null,,,,
null,"<img src=""stim_listB/argue3.gif""</stim_listB>",,html-keyboard-response,325,921289,0.0-19.0-1.0,72990,List1B,black,man,,,,null,,,,
null,is arguing with,,html-keyboard-response,326,923290,0.0-19.0-2.0,72990,List1B,black,man,,,,null,,,,
5415,,,survey-text,327,928706,0.0-19.0-3.0,72990,List1B,black,man,,,,,"{""Q0"":""ruth and dave""}","<img src=""stim_listB/argue3.gif""</stim_listB>",is arguing with,
null,"<div style=""font-size:60px;"">+</div>",,html-keyboard-response,328,929209,0.0-19.0-0.1,72990,List1B,black,man,,,,null,,,,
null,"<img src=""stim_listB/dance2.gif""</stim_listB>",,html-keyboard-response,329,931211,0.0-19.0-1.1,72990,List1B,black,man,,,,null,,,,
null,are dancing with each other,,html-keyboard-response,330,933213,0.0-19.0-2.1,72990,List1B,black,man,,,,null,,,,
12526,,,survey-text,331,945741,0.0-19.0-3.1,72990,List1B,black,man,,,,,"{""Q0"":""beth and mike""}","<img src=""stim_listB/dance2.gif""</stim_listB>",are dancing with each other,
null,"<div style=""font-size:60px;"">+</div>",,html-keyboard-response,332,946243,0.0-19.0-0.2,72990,List1B,black,man,,,,null,,,,
null,"<img src=""stim_listB/marry5.gif""</stim_listB>",,html-keyboard-response,333,948245,0.0-19.0-1.2,72990,List1B,black,man,,,,null,,,,
null,is marrying,,html-keyboard-response,334,950246,0.0-19.0-2.2,72990,List1B,black,man,,,,null,,,,
6121,,,survey-text,335,956369,0.0-19.0-3.2,72990,List1B,black,man,,,,,"{""Q0"":""mike is marrying luke""}","<img src=""stim_listB/marry5.gif""</stim_listB>",is marrying,
null,"<div style=""font-size:60px;"">+</div>",,html-keyboard-response,336,956871,0.0-19.0-0.3,72990,List1B,black,man,,,,null,,,,
null,"<img src=""stim_listB/dance6.gif""</stim_listB>",,html-keyboard-response,337,958873,0.0-19.0-1.3,72990,List1B,black,man,,,,null,,,,
null,are dancing with each other,,html-keyboard-response,338,960874,0.0-19.0-2.3,72990,List1B,black,man,,,,null,,,,
4033,,,survey-text,339,964909,0.0-19.0-3.3,72990,List1B,black,man,,,,,"{""Q0"":""mike and luke""}","<img src=""stim_listB/dance6.gif""</stim_listB>",are dancing with each other,
null,"<div style=""font-size:60px;"">+</div>",,html-keyboard-response,340,965411,0.0-19.0-0.4,72990,List1B,black,man,,,,null,,,,
null,"<img src=""stim_listB/talk4.gif""</stim_listB>",,html-keyboard-response,341,967413,0.0-19.0-1.4,72990,List1B,black,man,,,,null,,,,
null,are talking to each other,,html-keyboard-response,342,969414,0.0-19.0-2.4,72990,List1B,black,man,,,,null,,,,
4872,,,survey-text,343,974289,0.0-19.0-3.4,72990,List1B,black,man,,,,,"{""Q0"":""ruth and dave""}","<img src=""stim_listB/talk4.gif""</stim_listB>",are talking to each other,
null,"<div style=""font-size:60px;"">+</div>",,html-keyboard-response,344,974791,0.0-19.0-0.5,72990,List1B,black,man,,,,null,,,,
null,"<img src=""stim_listB/talk1.gif""</stim_listB>",,html-keyboard-response,345,976793,0.0-19.0-1.5,72990,List1B,black,man,,,,null,,,,
null,is talking to,,html-keyboard-response,346,978794,0.0-19.0-2.5,72990,List1B,black,man,,,,null,,,,
8025,,,survey-text,347,986821,0.0-19.0-3.5,72990,List1B,black,man,,,,,"{""Q0"":""kate is talking to fred""}","<img src=""stim_listB/talk1.gif""</stim_listB>",is talking to,
null,"<div style=""font-size:60px;"">+</div>",,html-keyboard-response,348,987322,0.0-19.0-0.6,72990,List1B,black,man,,,,null,,,,
null,"<img src=""stim_listB/touch1.gif""</stim_listB>",,html-keyboard-response,349,989324,0.0-19.0-1.6,72990,List1B,black,man,,,,null,,,,
null,is touching,,html-keyboard-response,350,991325,0.0-19.0-2.6,72990,List1B,black,man,,,,null,,,,
6150,,,survey-text,351,997478,0.0-19.0-3.6,72990,List1B,black,man,,,,,"{""Q0"":""kate is touching mike""}","<img src=""stim_listB/touch1.gif""</stim_listB>",is touching,
null,"<div style=""font-size:60px;"">+</div>",,html-keyboard-response,352,997979,0.0-19.0-0.7,72990,List1B,black,man,,,,null,,,,
null,"<img src=""stim_listB/hug8.gif""</stim_listB>",,html-keyboard-response,353,999981,0.0-19.0-1.7,72990,List1B,black,man,,,,null,,,,
null,are hugging each other,,html-keyboard-response,354,1001983,0.0-19.0-2.7,72990,List1B,black,man,,,,null,,,,
5871,,,survey-text,355,1007856,0.0-19.0-3.7,72990,List1B,black,man,,,,,"{""Q0"":""kate and jane""}","<img src=""stim_listB/hug8.gif""</stim_listB>",are hugging each other,
null,"<div style=""font-size:60px;"">+</div>",,html-keyboard-response,356,1008358,0.0-19.0-0.8,72990,List1B,black,man,,,,null,,,,
null,"<img src=""stim_listB/argue6.gif""</stim_listB>",,html-keyboard-response,357,1010360,0.0-19.0-1.8,72990,List1B,black,man,,,,null,,,,
null,are arguing with each other,,html-keyboard-response,358,1012361,0.0-19.0-2.8,72990,List1B,black,man,,,,null,,,,
3597,,,survey-text,359,1015960,0.0-19.0-3.8,72990,List1B,black,man,,,,,"{""Q0"":""dave and fred""}","<img src=""stim_listB/argue6.gif""</stim_listB>",are arguing with each other,
null,"<div style=""font-size:60px;"">+</div>",,html-keyboard-response,360,1016462,0.0-19.0-0.9,72990,List1B,black,man,,,,null,,,,
null,"<img src=""stim_listB/shout3.gif""</stim_listB>",,html-keyboard-response,361,1018464,0.0-19.0-1.9,72990,List1B,black,man,,,,null,,,,
null,is shouting at,,html-keyboard-response,362,1020464,0.0-19.0-2.9,72990,List1B,black,man,,,,null,,,,
6712,,,survey-text,363,1027178,0.0-19.0-3.9,72990,List1B,black,man,,,,,"{""Q0"":""ruth is shouting at luke""}","<img src=""stim_listB/shout3.gif""</stim_listB>",is shouting at,
null,"<div style=""font-size:60px;"">+</div>",,html-keyboard-response,364,1027679,0.0-19.0-0.10,72990,List1B,black,man,,,,null,,,,
null,"<img src=""stim_listB/meet8.gif""</stim_listB>",,html-keyboard-response,365,1029682,0.0-19.0-1.10,72990,List1B,black,man,,,,null,,,,
null,are meeting each other,,html-keyboard-response,366,1031683,0.0-19.0-2.10,72990,List1B,black,man,,,,null,,,,
3785,,,survey-text,367,1035470,0.0-19.0-3.10,72990,List1B,black,man,,,,,"{""Q0"":""ruth and beth""}","<img src=""stim_listB/meet8.gif""</stim_listB>",are meeting each other,
null,"<div style=""font-size:60px;"">+</div>",,html-keyboard-response,368,1035972,0.0-19.0-0.11,72990,List1B,black,man,,,,null,,,,
null,"<img src=""stim_listB/touch6.gif""</stim_listB>",,html-keyboard-response,369,1037975,0.0-19.0-1.11,72990,List1B,black,man,,,,null,,,,
null,are touching each other,,html-keyboard-response,370,1039975,0.0-19.0-2.11,72990,List1B,black,man,,,,null,,,,
5581,,,survey-text,371,1045558,0.0-19.0-3.11,72990,List1B,black,man,,,,,"{""Q0"":""luke and fred""}","<img src=""stim_listB/touch6.gif""</stim_listB>",are touching each other,
null,"<div style=""font-size:60px;"">+</div>",,html-keyboard-response,372,1046059,0.0-19.0-0.12,72990,List1B,black,man,,,,null,,,,
null,"<img src=""stim_listB/kiss4.gif""</stim_listB>",,html-keyboard-response,373,1048061,0.0-19.0-1.12,72990,List1B,black,man,,,,null,,,,
null,are kissing each other,,html-keyboard-response,374,1050062,0.0-19.0-2.12,72990,List1B,black,man,,,,null,,,,
3200,,,survey-text,375,1053263,0.0-19.0-3.12,72990,List1B,black,man,,,,,"{""Q0"":""dave and jane""}","<img src=""stim_listB/kiss4.gif""</stim_listB>",are kissing each other,
null,"<div style=""font-size:60px;"">+</div>",,html-keyboard-response,376,1053765,0.0-19.0-0.13,72990,List1B,black,man,,,,null,,,,
null,"<img src=""stim_listB/talk6.gif""</stim_listB>",,html-keyboard-response,377,1055767,0.0-19.0-1.13,72990,List1B,black,man,,,,null,,,,
null,are talking to each other,,html-keyboard-response,378,1057768,0.0-19.0-2.13,72990,List1B,black,man,,,,null,,,,
8919,,,survey-text,379,1066690,0.0-19.0-3.13,72990,List1B,black,man,,,,,"{""Q0"":""luke and mike""}","<img src=""stim_listB/talk6.gif""</stim_listB>",are talking to each other,
null,"<div style=""font-size:60px;"">+</div>",,html-keyboard-response,380,1067191,0.0-19.0-0.14,72990,List1B,black,man,,,,null,,,,
null,"<img src=""stim_listB/fight7.gif""</stim_listB>",,html-keyboard-response,381,1069193,0.0-19.0-1.14,72990,List1B,black,man,,,,null,,,,
null,is fighting,,html-keyboard-response,382,1071195,0.0-19.0-2.14,72990,List1B,black,man,,,,null,,,,
6290,,,survey-text,383,1077487,0.0-19.0-3.14,72990,List1B,black,man,,,,,"{""Q0"":""jane is fighting kate""}","<img src=""stim_listB/fight7.gif""</stim_listB>",is fighting,
null,"<div style=""font-size:60px;"">+</div>",,html-keyboard-response,384,1077989,0.0-19.0-0.15,72990,List1B,black,man,,,,null,,,,
null,"<img src=""stim_listB/talk3.gif""</stim_listB>",,html-keyboard-response,385,1079992,0.0-19.0-1.15,72990,List1B,black,man,,,,null,,,,
null,is talking to,,html-keyboard-response,386,1081993,0.0-19.0-2.15,72990,List1B,black,man,,,,null,,,,
5881,,,survey-text,387,1087877,0.0-19.0-3.15,72990,List1B,black,man,,,,,"{""Q0"":""jane is talking to luke""}","<img src=""stim_listB/talk3.gif""</stim_listB>",is talking to,
null,"<div style=""font-size:60px;"">+</div>",,html-keyboard-response,388,1088379,0.0-19.0-0.16,72990,List1B,black,man,,,,null,,,,
null,"<img src=""stim_listB/marry4.gif""</stim_listB>",,html-keyboard-response,389,1090381,0.0-19.0-1.16,72990,List1B,black,man,,,,null,,,,
null,are marrying each other,,html-keyboard-response,390,1092382,0.0-19.0-2.16,72990,List1B,black,man,,,,null,,,,
8437,,,survey-text,391,1100822,0.0-19.0-3.16,72990,List1B,black,man,,,,,"{""Q0"":""luke and jane""}","<img src=""stim_listB/marry4.gif""</stim_listB>",are marrying each other,
null,"<div style=""font-size:60px;"">+</div>",,html-keyboard-response,392,1101323,0.0-19.0-0.17,72990,List1B,black,man,,,,null,,,,
null,"<img src=""stim_listB/marry2.gif""</stim_listB>",,html-keyboard-response,393,1103326,0.0-19.0-1.17,72990,List1B,black,man,,,,null,,,,
null,are marrying each other,,html-keyboard-response,394,1105327,0.0-19.0-2.17,72990,List1B,black,man,,,,null,,,,
8322,,,survey-text,395,1113650,0.0-19.0-3.17,72990,List1B,black,man,,,,,"{""Q0"":""kate and fred are marrying eachother""}","<img src=""stim_listB/marry2.gif""</stim_listB>",are marrying each other,
null,"<div style=""font-size:60px;"">+</div>",,html-keyboard-response,396,1114152,0.0-19.0-0.18,72990,List1B,black,man,,,,null,,,,
null,"<img src=""stim_listB/argue4.gif""</stim_listB>",,html-keyboard-response,397,1116154,0.0-19.0-1.18,72990,List1B,black,man,,,,null,,,,
null,are arguing with each other,,html-keyboard-response,398,1118155,0.0-19.0-2.18,72990,List1B,black,man,,,,null,,,,
9444,,,survey-text,399,1127601,0.0-19.0-3.18,72990,List1B,black,man,,,,,"{""Q0"":""jane and luke are arguing with eachother""}","<img src=""stim_listB/argue4.gif""</stim_listB>",are arguing with each other,
null,"<div style=""font-size:60px;"">+</div>",,html-keyboard-response,400,1128102,0.0-19.0-0.19,72990,List1B,black,man,,,,null,,,,
null,"<img src=""stim_listB/shout6.gif""</stim_listB>",,html-keyboard-response,401,1130105,0.0-19.0-1.19,72990,List1B,black,man,,,,null,,,,
null,are shouting at each other,,html-keyboard-response,402,1132106,0.0-19.0-2.19,72990,List1B,black,man,,,,null,,,,
7081,,,survey-text,403,1139189,0.0-19.0-3.19,72990,List1B,black,man,,,,,"{""Q0"":""luke and mike are shouting at eachother""}","<img src=""stim_listB/shout6.gif""</stim_listB>",are shouting at each other,
2483,<p>Thank you for completing that task.</p><p>The final part of this session is a short questionnaire.</p><p>Press Continue.</p>,0,html-button-response,404,1141674,0.0-20.0,72990,List1B,black,man,,,,,,,,
21762,,,survey-text,405,1164440,0.0-21.0,72990,List1B,black,man,,,,,"{""Q0"":""18"",""Q1"":""English"",""Q2"":""English"",""Q3"":""UK"",""Q4"":""Black "",""Q5"":""Male""}",,,demographics
41222,,,survey-likert,406,1205731,0.0-22.0,72990,List1B,black,man,,,,,"{""Q0"":6,""Q1"":6,""Q2"":5,""Q3"":6,""Q4"":6,""Q5"":4,""Q6"":5,""Q7"":5,""Q8"":6,""Q9"":6,""Q10"":5,""Q11"":5,""Q12"":4,""Q13"":4}",,,likert_race
46363,,,survey-likert,407,1252111,0.0-23.0,72990,List1B,black,man,,,,,"{""Q0"":5,""Q1"":3,""Q2"":3,""Q3"":5,""Q4"":2,""Q5"":5,""Q6"":3,""Q7"":2,""Q8"":5,""Q9"":5,""Q10"":4,""Q11"":3,""Q12"":4,""Q13"":4}",,,likert_gender
7284,,,survey-text,408,1259402,0.0-24.0,72990,List1B,black,man,,,,,"{""Q0"":""ccc""}",,,worker_id
2678,,,external-html,409,1262168,0.0-25.0,72990,List1B,black,man,debrief.html,,,,,,,
