rt,stimulus,button_pressed,trial_type,trial_index,time_elapsed,internal_node_id,subject,list,ppt_race,ppt_gender,url,first_guess,correct,key_press,responses,image_type,phrase_type,test_part
2491,Welcome to the experiment. Press Continue to begin.,0,html-button-response,0,2523,0.0-0.0,74581,List1B,black,man,,,,,,,,
35385,,,external-html,1,38950,0.0-1.0,74581,List1B,black,man,consent.html,,,,,,,
23209,"<p>On the next page, you will see portraits of 8 people and their names.</p><p>Your first task is to take a few minutes to memorise the names of these people.</p><p>You will have to recall their names during the rest of the experiment, so it is</p><p>essential that you try to memorise these people and their names as best as you can.</p><br><p><strong>You will then be tested on your memory of these names and portraits.</strong></p><br><p>The experiment will start after you have completed this memory test.</p><br><p>Ready?</p>",0,html-button-response,2,62159,0.0-2.0,74581,List1B,black,man,,,,,,,,
66108,"<img src='img/portrait_matrix_list1.JPG' style='width:900px;height:500px;''></img><p>If you have memorised all the portraits and names and are ready to start, press Continue.</p><p><strong>Please note: Your memory of these faces will be tested 4 times during this experiment.</strong></p>",0,html-button-response,3,129268,0.0-3.0-0.0,74581,List1B,black,man,,,,,,,,
4952,"<img src=""portrait/WM1.jpg""style=""width:400px;height:400px;""></img>",6,html-button-response,4,135223,0.0-3.0-1.0,74581,List1B,black,man,,TRUE,6,,,,,
null,CORRECT,,html-keyboard-response,5,136728,0.0-3.0-2.0-0.0,74581,List1B,black,man,,,,null,,,,
6578,"<img src=""portrait/WW2.jpg""style=""width:400px;height:400px;""></img>",3,html-button-response,6,143307,0.0-3.0-4.0,74581,List1B,black,man,,TRUE,3,,,,,
null,CORRECT,,html-keyboard-response,7,144810,0.0-3.0-5.0-0.0,74581,List1B,black,man,,,,null,,,,
4837,"<img src=""portrait/BW2.jpg""style=""width:400px;height:400px;""></img>",2,html-button-response,8,149648,0.0-3.0-7.0,74581,List1B,black,man,,TRUE,2,,,,,
null,CORRECT,,html-keyboard-response,9,151152,0.0-3.0-8.0-0.0,74581,List1B,black,man,,,,null,,,,
2740,"<img src=""portrait/WM2.jpg""style=""width:400px;height:400px;""></img>",7,html-button-response,10,153893,0.0-3.0-10.0,74581,List1B,black,man,,TRUE,7,,,,,
null,CORRECT,,html-keyboard-response,11,155395,0.0-3.0-11.0-0.0,74581,List1B,black,man,,,,null,,,,
4821,"<img src=""portrait/BM1.jpg""style=""width:400px;height:400px;""></img>",4,html-button-response,12,160217,0.0-3.0-13.0,74581,List1B,black,man,,TRUE,4,,,,,
null,CORRECT,,html-keyboard-response,13,161719,0.0-3.0-14.0-0.0,74581,List1B,black,man,,,,null,,,,
3076,"<img src=""portrait/BM2.jpg""style=""width:400px;height:400px;""></img>",5,html-button-response,14,164796,0.0-3.0-16.0,74581,List1B,black,man,,TRUE,5,,,,,
null,CORRECT,,html-keyboard-response,15,166300,0.0-3.0-17.0-0.0,74581,List1B,black,man,,,,null,,,,
4171,"<img src=""portrait/WW1.jpg""style=""width:400px;height:400px;""></img>",0,html-button-response,16,170472,0.0-3.0-19.0,74581,List1B,black,man,,TRUE,1,,,,,
5136,"<img src=""portrait/WW1.jpg""style=""width:400px;height:400px;""></img>",1,html-button-response,17,176609,0.0-3.0-21.0-0.0,74581,List1B,black,man,,FALSE,1,,,,,
null,CORRECT,,html-keyboard-response,18,178112,0.0-3.0-21.0-1.0-0.0,74581,List1B,black,man,,,,null,,,,
9533,"<img src=""portrait/BW1.jpg""style=""width:400px;height:400px;""></img>",0,html-button-response,19,187646,0.0-3.0-22.0,74581,List1B,black,man,,TRUE,0,,,,,
null,CORRECT,,html-keyboard-response,20,189150,0.0-3.0-23.0-0.0,74581,List1B,black,man,,,,null,,,,
2386,<p>You got 7 out of 8 right first time. Press Continue.</p>,0,html-button-response,21,191536,0.0-3.0-25.0,74581,List1B,black,man,,,,,,,,
2623,"As you did not score 100%, the memory game will repeat. Press Continue.",0,html-button-response,22,195162,0.0-3.0-26.0-0.0,74581,List1B,black,man,,,,,,,,
24037,"<img src='img/portrait_matrix_list1.JPG' style='width:900px;height:500px;''></img><p>If you have memorised all the portraits and names and are ready to start, press Continue.</p><p><strong>Please note: Your memory of these faces will be tested 4 times during this experiment.</strong></p>",0,html-button-response,23,220200,0.0-3.1-0.1,74581,List1B,black,man,,,,,,,,
7457,"<img src=""portrait/WM1.jpg""style=""width:400px;height:400px;""></img>",6,html-button-response,24,228660,0.0-3.1-1.1,74581,List1B,black,man,,TRUE,6,,,,,
null,CORRECT,,html-keyboard-response,25,230162,0.0-3.1-2.1-0.1,74581,List1B,black,man,,,,null,,,,
2723,"<img src=""portrait/WW2.jpg""style=""width:400px;height:400px;""></img>",1,html-button-response,26,232886,0.0-3.1-4.1,74581,List1B,black,man,,TRUE,3,,,,,
2502,"<img src=""portrait/WW2.jpg""style=""width:400px;height:400px;""></img>",3,html-button-response,27,236390,0.0-3.1-6.1-0.1,74581,List1B,black,man,,FALSE,3,,,,,
null,CORRECT,,html-keyboard-response,28,237892,0.0-3.1-6.1-1.1-0.1,74581,List1B,black,man,,,,null,,,,
3697,"<img src=""portrait/BW2.jpg""style=""width:400px;height:400px;""></img>",2,html-button-response,29,241590,0.0-3.1-7.1,74581,List1B,black,man,,TRUE,2,,,,,
null,CORRECT,,html-keyboard-response,30,243091,0.0-3.1-8.1-0.1,74581,List1B,black,man,,,,null,,,,
5982,"<img src=""portrait/WM2.jpg""style=""width:400px;height:400px;""></img>",4,html-button-response,31,249075,0.0-3.1-10.1,74581,List1B,black,man,,TRUE,7,,,,,
1919,"<img src=""portrait/WM2.jpg""style=""width:400px;height:400px;""></img>",7,html-button-response,32,251996,0.0-3.1-12.1-0.1,74581,List1B,black,man,,FALSE,7,,,,,
null,CORRECT,,html-keyboard-response,33,253499,0.0-3.1-12.1-1.1-0.1,74581,List1B,black,man,,,,null,,,,
3089,"<img src=""portrait/BM1.jpg""style=""width:400px;height:400px;""></img>",4,html-button-response,34,256589,0.0-3.1-13.1,74581,List1B,black,man,,TRUE,4,,,,,
null,CORRECT,,html-keyboard-response,35,258092,0.0-3.1-14.1-0.1,74581,List1B,black,man,,,,null,,,,
2631,"<img src=""portrait/BM2.jpg""style=""width:400px;height:400px;""></img>",5,html-button-response,36,260724,0.0-3.1-16.1,74581,List1B,black,man,,TRUE,5,,,,,
null,CORRECT,,html-keyboard-response,37,262226,0.0-3.1-17.1-0.1,74581,List1B,black,man,,,,null,,,,
4008,"<img src=""portrait/WW1.jpg""style=""width:400px;height:400px;""></img>",1,html-button-response,38,266235,0.0-3.1-19.1,74581,List1B,black,man,,TRUE,1,,,,,
null,CORRECT,,html-keyboard-response,39,267736,0.0-3.1-20.1-0.1,74581,List1B,black,man,,,,null,,,,
4792,"<img src=""portrait/BW1.jpg""style=""width:400px;height:400px;""></img>",3,html-button-response,40,272528,0.0-3.1-22.1,74581,List1B,black,man,,TRUE,0,,,,,
2564,"<img src=""portrait/BW1.jpg""style=""width:400px;height:400px;""></img>",0,html-button-response,41,276094,0.0-3.1-24.1-0.1,74581,List1B,black,man,,FALSE,0,,,,,
null,CORRECT,,html-keyboard-response,42,277597,0.0-3.1-24.1-1.1-0.1,74581,List1B,black,man,,,,null,,,,
2286,<p>You got 5 out of 8 right first time. Press Continue.</p>,0,html-button-response,43,279883,0.0-3.1-25.1,74581,List1B,black,man,,,,,,,,
1259,"As you did not score 100%, the memory game will repeat. Press Continue.",0,html-button-response,44,282143,0.0-3.1-26.1-0.1,74581,List1B,black,man,,,,,,,,
23688,"<img src='img/portrait_matrix_list1.JPG' style='width:900px;height:500px;''></img><p>If you have memorised all the portraits and names and are ready to start, press Continue.</p><p><strong>Please note: Your memory of these faces will be tested 4 times during this experiment.</strong></p>",0,html-button-response,45,306832,0.0-3.2-0.2,74581,List1B,black,man,,,,,,,,
4072,"<img src=""portrait/WM1.jpg""style=""width:400px;height:400px;""></img>",6,html-button-response,46,311907,0.0-3.2-1.2,74581,List1B,black,man,,TRUE,6,,,,,
null,CORRECT,,html-keyboard-response,47,314203,0.0-3.2-2.2-0.2,74581,List1B,black,man,,,,null,,,,
4300,"<img src=""portrait/WW2.jpg""style=""width:400px;height:400px;""></img>",3,html-button-response,48,318504,0.0-3.2-4.2,74581,List1B,black,man,,TRUE,3,,,,,
null,CORRECT,,html-keyboard-response,49,320008,0.0-3.2-5.2-0.2,74581,List1B,black,man,,,,null,,,,
3545,"<img src=""portrait/BW2.jpg""style=""width:400px;height:400px;""></img>",2,html-button-response,50,323555,0.0-3.2-7.2,74581,List1B,black,man,,TRUE,2,,,,,
null,CORRECT,,html-keyboard-response,51,325057,0.0-3.2-8.2-0.2,74581,List1B,black,man,,,,null,,,,
3358,"<img src=""portrait/WM2.jpg""style=""width:400px;height:400px;""></img>",7,html-button-response,52,328416,0.0-3.2-10.2,74581,List1B,black,man,,TRUE,7,,,,,
null,CORRECT,,html-keyboard-response,53,329920,0.0-3.2-11.2-0.2,74581,List1B,black,man,,,,null,,,,
3081,"<img src=""portrait/BM1.jpg""style=""width:400px;height:400px;""></img>",4,html-button-response,54,333001,0.0-3.2-13.2,74581,List1B,black,man,,TRUE,4,,,,,
null,CORRECT,,html-keyboard-response,55,334503,0.0-3.2-14.2-0.2,74581,List1B,black,man,,,,null,,,,
3273,"<img src=""portrait/BM2.jpg""style=""width:400px;height:400px;""></img>",5,html-button-response,56,337777,0.0-3.2-16.2,74581,List1B,black,man,,TRUE,5,,,,,
null,CORRECT,,html-keyboard-response,57,339279,0.0-3.2-17.2-0.2,74581,List1B,black,man,,,,null,,,,
3578,"<img src=""portrait/WW1.jpg""style=""width:400px;height:400px;""></img>",1,html-button-response,58,342859,0.0-3.2-19.2,74581,List1B,black,man,,TRUE,1,,,,,
null,CORRECT,,html-keyboard-response,59,344363,0.0-3.2-20.2-0.2,74581,List1B,black,man,,,,null,,,,
7658,"<img src=""portrait/BW1.jpg""style=""width:400px;height:400px;""></img>",0,html-button-response,60,352022,0.0-3.2-22.2,74581,List1B,black,man,,TRUE,0,,,,,
null,CORRECT,,html-keyboard-response,61,353523,0.0-3.2-23.2-0.2,74581,List1B,black,man,,,,null,,,,
1271,<p>You got 8 out of 8 right first time. Press Continue.</p>,0,html-button-response,62,354795,0.0-3.2-25.2,74581,List1B,black,man,,,,,,,,
24142,"<p>In this experiment, you will view photographs of the people from the memory game interacting.</p><p>By using the <strong>exact</strong> phrase given <i>after</i> the photograph appears and recalling the correct names of the people in the photographs, form a sentence describing the interaction. You do not need to capitalise names.</p><p>Type your answer in the space provided. Please complete every sentence before moving onto the next trial.</p><p>You will only have a few seconds to memorise each given photograph and phrase before you can respond, so try your best to focus.</p><p>An example is given below. Press 'Continue' when you are ready.</p><img src='img/speaking_example_v2.jpg' style='width:800px;height:460px;''></img>",0,html-button-response,63,379939,0.0-4.0,74581,List1B,black,man,,,,,,,,
2747,"<p>Before the experiment starts, you will watch two example trials. Press 'Continue'.</p>",0,html-button-response,64,383688,0.0-5.0,74581,List1B,black,man,,,,,,,,
null,<img src='img/speaking_WW.gif'></img>,,html-keyboard-response,65,386691,0.0-6.0,74581,List1B,black,man,,,,null,,,,
null,<p>is speaking to</p>,,html-keyboard-response,66,388692,0.0-7.0,74581,List1B,black,man,,,,null,,,,
3910,<p><b>Answer:</b> kate is speaking to beth</p>,0,html-button-response,67,392602,0.0-8.0,74581,List1B,black,man,,,,,,,,
null,<img src='img/pointing_BM.gif'></img>,,html-keyboard-response,68,395604,0.0-9.0,74581,List1B,black,man,,,,null,,,,
null,<p>are pointing at each other</p>,,html-keyboard-response,69,397605,0.0-10.0,74581,List1B,black,man,,,,null,,,,
3278,<p><b>Answer:</b> luke and dave are pointing at each other</p>,0,html-button-response,70,400883,0.0-11.0,74581,List1B,black,man,,,,,,,,
9626,"<p>Ready to start the experiment?</p><br><p><strong>Remember to describe the picture using a full sentence,</strong></p><p><strong>that combines the names of the people with the given phrase.</strong></p><p><strong>If you do not do this correctly you will not be paid.</strong></p><p><strong> You do not need to capitalise names or use punctuation.</strong></p><br><p>Press 'Continue' to begin.</p>",0,html-button-response,71,411511,0.0-12.0,74581,List1B,black,man,,,,,,,,
null,"<div style=""font-size:60px;"">+</div>",,html-keyboard-response,72,413013,0.0-13.0-0.0,74581,List1B,black,man,,,,null,,,,
null,"<img src=""stim_listB/hug4.gif""</stim_listB>",,html-keyboard-response,73,415016,0.0-13.0-1.0,74581,List1B,black,man,,,,null,,,,
null,are hugging each other,,html-keyboard-response,74,417825,0.0-13.0-2.0,74581,List1B,black,man,,,,null,,,,
10570,,,survey-text,75,428396,0.0-13.0-3.0,74581,List1B,black,man,,,,,"{""Q0"":""Dave and Jane are hugging each other.""}","<img src=""stim_listB/hug4.gif""</stim_listB>",are hugging each other,
null,"<div style=""font-size:60px;"">+</div>",,html-keyboard-response,76,428898,0.0-13.0-0.1,74581,List1B,black,man,,,,null,,,,
null,"<img src=""stim_listB/kiss1.gif""</stim_listB>",,html-keyboard-response,77,430899,0.0-13.0-1.1,74581,List1B,black,man,,,,null,,,,
null,is kissing,,html-keyboard-response,78,432900,0.0-13.0-2.1,74581,List1B,black,man,,,,null,,,,
14628,,,survey-text,79,447528,0.0-13.0-3.1,74581,List1B,black,man,,,,,"{""Q0"":""Fred and Beth are kissing.""}","<img src=""stim_listB/kiss1.gif""</stim_listB>",is kissing,
null,"<div style=""font-size:60px;"">+</div>",,html-keyboard-response,80,448030,0.0-13.0-0.2,74581,List1B,black,man,,,,null,,,,
null,"<img src=""stim_listB/argue3.gif""</stim_listB>",,html-keyboard-response,81,450031,0.0-13.0-1.2,74581,List1B,black,man,,,,null,,,,
null,is arguing with,,html-keyboard-response,82,452825,0.0-13.0-2.2,74581,List1B,black,man,,,,null,,,,
7912,,,survey-text,83,460738,0.0-13.0-3.2,74581,List1B,black,man,,,,,"{""Q0"":""Dave is arguing with Ruth""}","<img src=""stim_listB/argue3.gif""</stim_listB>",is arguing with,
null,"<div style=""font-size:60px;"">+</div>",,html-keyboard-response,84,461241,0.0-13.0-0.3,74581,List1B,black,man,,,,null,,,,
null,"<img src=""stim_listB/meet4.gif""</stim_listB>",,html-keyboard-response,85,463242,0.0-13.0-1.3,74581,List1B,black,man,,,,null,,,,
null,are meeting each other,,html-keyboard-response,86,465826,0.0-13.0-2.3,74581,List1B,black,man,,,,null,,,,
8688,,,survey-text,87,474514,0.0-13.0-3.3,74581,List1B,black,man,,,,,"{""Q0"":""Luke and Ruth are meeting each other.""}","<img src=""stim_listB/meet4.gif""</stim_listB>",are meeting each other,
null,"<div style=""font-size:60px;"">+</div>",,html-keyboard-response,88,475015,0.0-13.0-0.4,74581,List1B,black,man,,,,null,,,,
null,"<img src=""stim_listB/meet3.gif""</stim_listB>",,html-keyboard-response,89,477016,0.0-13.0-1.4,74581,List1B,black,man,,,,null,,,,
null,is meeting,,html-keyboard-response,90,479152,0.0-13.0-2.4,74581,List1B,black,man,,,,null,,,,
14124,,,survey-text,91,493276,0.0-13.0-3.4,74581,List1B,black,man,,,,,"{""Q0"":""Dave and Jane are shaking hands.""}","<img src=""stim_listB/meet3.gif""</stim_listB>",is meeting,
null,"<div style=""font-size:60px;"">+</div>",,html-keyboard-response,92,493777,0.0-13.0-0.5,74581,List1B,black,man,,,,null,,,,
null,"<img src=""stim_listB/touch4.gif""</stim_listB>",,html-keyboard-response,93,495779,0.0-13.0-1.5,74581,List1B,black,man,,,,null,,,,
null,are touching each other,,html-keyboard-response,94,497781,0.0-13.0-2.5,74581,List1B,black,man,,,,null,,,,
13361,,,survey-text,95,511142,0.0-13.0-3.5,74581,List1B,black,man,,,,,"{""Q0"":""Luke and Ruth are touching each other""}","<img src=""stim_listB/touch4.gif""</stim_listB>",are touching each other,
null,"<div style=""font-size:60px;"">+</div>",,html-keyboard-response,96,511643,0.0-13.0-0.6,74581,List1B,black,man,,,,null,,,,
null,"<img src=""stim_listB/shout6.gif""</stim_listB>",,html-keyboard-response,97,513645,0.0-13.0-1.6,74581,List1B,black,man,,,,null,,,,
null,are shouting at each other,,html-keyboard-response,98,515647,0.0-13.0-2.6,74581,List1B,black,man,,,,null,,,,
9813,,,survey-text,99,525460,0.0-13.0-3.6,74581,List1B,black,man,,,,,"{""Q0"":""Dave and Mike are shouting at each other.""}","<img src=""stim_listB/shout6.gif""</stim_listB>",are shouting at each other,
null,"<div style=""font-size:60px;"">+</div>",,html-keyboard-response,100,525961,0.0-13.0-0.7,74581,List1B,black,man,,,,null,,,,
null,"<img src=""stim_listB/dance3.gif""</stim_listB>",,html-keyboard-response,101,527962,0.0-13.0-1.7,74581,List1B,black,man,,,,null,,,,
null,is dancing with,,html-keyboard-response,102,529963,0.0-13.0-2.7,74581,List1B,black,man,,,,null,,,,
9665,,,survey-text,103,539628,0.0-13.0-3.7,74581,List1B,black,man,,,,,"{""Q0"":""Luke is dancing with jane""}","<img src=""stim_listB/dance3.gif""</stim_listB>",is dancing with,
null,"<div style=""font-size:60px;"">+</div>",,html-keyboard-response,104,540129,0.0-13.0-0.8,74581,List1B,black,man,,,,null,,,,
null,"<img src=""stim_listB/meet8.gif""</stim_listB>",,html-keyboard-response,105,542130,0.0-13.0-1.8,74581,List1B,black,man,,,,null,,,,
null,are meeting each other,,html-keyboard-response,106,544811,0.0-13.0-2.8,74581,List1B,black,man,,,,null,,,,
8957,,,survey-text,107,553768,0.0-13.0-3.8,74581,List1B,black,man,,,,,"{""Q0"":""Beth and Ruth are meeting each other.""}","<img src=""stim_listB/meet8.gif""</stim_listB>",are meeting each other,
null,"<div style=""font-size:60px;"">+</div>",,html-keyboard-response,108,554269,0.0-13.0-0.9,74581,List1B,black,man,,,,null,,,,
null,"<img src=""stim_listB/meet5.gif""</stim_listB>",,html-keyboard-response,109,556270,0.0-13.0-1.9,74581,List1B,black,man,,,,null,,,,
null,is meeting,,html-keyboard-response,110,558824,0.0-13.0-2.9,74581,List1B,black,man,,,,null,,,,
6768,,,survey-text,111,565593,0.0-13.0-3.9,74581,List1B,black,man,,,,,"{""Q0"":""Dave is meeting Mike""}","<img src=""stim_listB/meet5.gif""</stim_listB>",is meeting,
null,"<div style=""font-size:60px;"">+</div>",,html-keyboard-response,112,566093,0.0-13.0-0.10,74581,List1B,black,man,,,,null,,,,
null,"<img src=""stim_listB/touch2.gif""</stim_listB>",,html-keyboard-response,113,568095,0.0-13.0-1.10,74581,List1B,black,man,,,,null,,,,
null,are touching each other,,html-keyboard-response,114,570825,0.0-13.0-2.10,74581,List1B,black,man,,,,null,,,,
8589,,,survey-text,115,579414,0.0-13.0-3.10,74581,List1B,black,man,,,,,"{""Q0"":""Fred and Beth are touching each other""}","<img src=""stim_listB/touch2.gif""</stim_listB>",are touching each other,
null,"<div style=""font-size:60px;"">+</div>",,html-keyboard-response,116,579915,0.0-13.0-0.11,74581,List1B,black,man,,,,null,,,,
null,"<img src=""stim_listB/hug5.gif""</stim_listB>",,html-keyboard-response,117,581916,0.0-13.0-1.11,74581,List1B,black,man,,,,null,,,,
null,is hugging,,html-keyboard-response,118,584400,0.0-13.0-2.11,74581,List1B,black,man,,,,null,,,,
6208,,,survey-text,119,590610,0.0-13.0-3.11,74581,List1B,black,man,,,,,"{""Q0"":""Fred is hugging Luke""}","<img src=""stim_listB/hug5.gif""</stim_listB>",is hugging,
null,"<div style=""font-size:60px;"">+</div>",,html-keyboard-response,120,591111,0.0-13.0-0.12,74581,List1B,black,man,,,,null,,,,
null,"<img src=""stim_listB/marry7.gif""</stim_listB>",,html-keyboard-response,121,593111,0.0-13.0-1.12,74581,List1B,black,man,,,,null,,,,
null,is marrying,,html-keyboard-response,122,595826,0.0-13.0-2.12,74581,List1B,black,man,,,,null,,,,
8350,,,survey-text,123,604176,0.0-13.0-3.12,74581,List1B,black,man,,,,,"{""Q0"":""Ruth is marrying Kate""}","<img src=""stim_listB/marry7.gif""</stim_listB>",is marrying,
null,"<div style=""font-size:60px;"">+</div>",,html-keyboard-response,124,604679,0.0-13.0-0.13,74581,List1B,black,man,,,,null,,,,
null,"<img src=""stim_listB/dance2.gif""</stim_listB>",,html-keyboard-response,125,606680,0.0-13.0-1.13,74581,List1B,black,man,,,,null,,,,
null,are dancing with each other,,html-keyboard-response,126,608825,0.0-13.0-2.13,74581,List1B,black,man,,,,null,,,,
13302,,,survey-text,127,622129,0.0-13.0-3.13,74581,List1B,black,man,,,,,"{""Q0"":""Beth is marrying Mike""}","<img src=""stim_listB/dance2.gif""</stim_listB>",are dancing with each other,
null,"<div style=""font-size:60px;"">+</div>",,html-keyboard-response,128,622629,0.0-13.0-0.14,74581,List1B,black,man,,,,null,,,,
null,"<img src=""stim_listB/dance5.gif""</stim_listB>",,html-keyboard-response,129,624632,0.0-13.0-1.14,74581,List1B,black,man,,,,null,,,,
null,is dancing with,,html-keyboard-response,130,626633,0.0-13.0-2.14,74581,List1B,black,man,,,,null,,,,
17862,,,survey-text,131,644496,0.0-13.0-3.14,74581,List1B,black,man,,,,,"{""Q0"":""Fred is dancing with Dave""}","<img src=""stim_listB/dance5.gif""</stim_listB>",is dancing with,
null,"<div style=""font-size:60px;"">+</div>",,html-keyboard-response,132,644998,0.0-13.0-0.15,74581,List1B,black,man,,,,null,,,,
null,"<img src=""stim_listB/hug7.gif""</stim_listB>",,html-keyboard-response,133,647000,0.0-13.0-1.15,74581,List1B,black,man,,,,null,,,,
null,is hugging,,html-keyboard-response,134,649001,0.0-13.0-2.15,74581,List1B,black,man,,,,null,,,,
16896,,,survey-text,135,665898,0.0-13.0-3.15,74581,List1B,black,man,,,,,"{""Q0"":""Ruth is hugging Beth""}","<img src=""stim_listB/hug7.gif""</stim_listB>",is hugging,
null,"<div style=""font-size:60px;"">+</div>",,html-keyboard-response,136,666399,0.0-13.0-0.16,74581,List1B,black,man,,,,null,,,,
null,"<img src=""stim_listB/argue7.gif""</stim_listB>",,html-keyboard-response,137,668400,0.0-13.0-1.16,74581,List1B,black,man,,,,null,,,,
null,is arguing with,,html-keyboard-response,138,670402,0.0-13.0-2.16,74581,List1B,black,man,,,,null,,,,
8908,,,survey-text,139,679311,0.0-13.0-3.16,74581,List1B,black,man,,,,,"{""Q0"":""Ruth is arguing with Kate""}","<img src=""stim_listB/argue7.gif""</stim_listB>",is arguing with,
null,"<div style=""font-size:60px;"">+</div>",,html-keyboard-response,140,679811,0.0-13.0-0.17,74581,List1B,black,man,,,,null,,,,
null,"<img src=""stim_listB/dance1.gif""</stim_listB>",,html-keyboard-response,141,681813,0.0-13.0-1.17,74581,List1B,black,man,,,,null,,,,
null,is dancing with,,html-keyboard-response,142,683813,0.0-13.0-2.17,74581,List1B,black,man,,,,null,,,,
7588,,,survey-text,143,691401,0.0-13.0-3.17,74581,List1B,black,man,,,,,"{""Q0"":""Fred is dancing with Kate""}","<img src=""stim_listB/dance1.gif""</stim_listB>",is dancing with,
null,"<div style=""font-size:60px;"">+</div>",,html-keyboard-response,144,691903,0.0-13.0-0.18,74581,List1B,black,man,,,,null,,,,
null,"<img src=""stim_listB/marry6.gif""</stim_listB>",,html-keyboard-response,145,693904,0.0-13.0-1.18,74581,List1B,black,man,,,,null,,,,
null,are marrying each other,,html-keyboard-response,146,695907,0.0-13.0-2.18,74581,List1B,black,man,,,,null,,,,
13145,,,survey-text,147,709052,0.0-13.0-3.18,74581,List1B,black,man,,,,,"{""Q0"":""Fred and Dave are marrying each other""}","<img src=""stim_listB/marry6.gif""</stim_listB>",are marrying each other,
null,"<div style=""font-size:60px;"">+</div>",,html-keyboard-response,148,709555,0.0-13.0-0.19,74581,List1B,black,man,,,,null,,,,
null,"<img src=""stim_listB/fight1.gif""</stim_listB>",,html-keyboard-response,149,711557,0.0-13.0-1.19,74581,List1B,black,man,,,,null,,,,
null,is fighting,,html-keyboard-response,150,713825,0.0-13.0-2.19,74581,List1B,black,man,,,,null,,,,
8619,,,survey-text,151,722444,0.0-13.0-3.19,74581,List1B,black,man,,,,,"{""Q0"":""Kate is fighting Mike""}","<img src=""stim_listB/fight1.gif""</stim_listB>",is fighting,
8067,"<img src='img/portrait_matrix_list1.JPG' style='width:900px;height:500px;''></img><p>If you have memorised all the portraits and names and are ready to start, press Continue.</p><p><strong>Please note: Your memory of these faces will be tested 4 times during this experiment.</strong></p>",0,html-button-response,152,730512,0.0-14.0-0.0,74581,List1B,black,man,,,,,,,,
4615,"<img src=""portrait/BM2.jpg""style=""width:400px;height:400px;""></img>",5,html-button-response,153,736130,0.0-14.0-1.0,74581,List1B,black,man,,TRUE,5,,,,,
null,CORRECT,,html-keyboard-response,154,737631,0.0-14.0-2.0-0.0,74581,List1B,black,man,,,,null,,,,
5027,"<img src=""portrait/WM1.jpg""style=""width:400px;height:400px;""></img>",6,html-button-response,155,742659,0.0-14.0-4.0,74581,List1B,black,man,,TRUE,6,,,,,
null,CORRECT,,html-keyboard-response,156,744161,0.0-14.0-5.0-0.0,74581,List1B,black,man,,,,null,,,,
5186,"<img src=""portrait/BW1.jpg""style=""width:400px;height:400px;""></img>",0,html-button-response,157,749349,0.0-14.0-7.0,74581,List1B,black,man,,TRUE,0,,,,,
null,CORRECT,,html-keyboard-response,158,750850,0.0-14.0-8.0-0.0,74581,List1B,black,man,,,,null,,,,
4081,"<img src=""portrait/WW2.jpg""style=""width:400px;height:400px;""></img>",3,html-button-response,159,754931,0.0-14.0-10.0,74581,List1B,black,man,,TRUE,3,,,,,
null,CORRECT,,html-keyboard-response,160,756434,0.0-14.0-11.0-0.0,74581,List1B,black,man,,,,null,,,,
1906,"<img src=""portrait/WM2.jpg""style=""width:400px;height:400px;""></img>",7,html-button-response,161,758340,0.0-14.0-13.0,74581,List1B,black,man,,TRUE,7,,,,,
null,CORRECT,,html-keyboard-response,162,759842,0.0-14.0-14.0-0.0,74581,List1B,black,man,,,,null,,,,
4664,"<img src=""portrait/BM1.jpg""style=""width:400px;height:400px;""></img>",4,html-button-response,163,764506,0.0-14.0-16.0,74581,List1B,black,man,,TRUE,4,,,,,
null,CORRECT,,html-keyboard-response,164,766008,0.0-14.0-17.0-0.0,74581,List1B,black,man,,,,null,,,,
4442,"<img src=""portrait/BW2.jpg""style=""width:400px;height:400px;""></img>",2,html-button-response,165,770450,0.0-14.0-19.0,74581,List1B,black,man,,TRUE,2,,,,,
null,CORRECT,,html-keyboard-response,166,771953,0.0-14.0-20.0-0.0,74581,List1B,black,man,,,,null,,,,
5328,"<img src=""portrait/WW1.jpg""style=""width:400px;height:400px;""></img>",1,html-button-response,167,777282,0.0-14.0-22.0,74581,List1B,black,man,,TRUE,1,,,,,
null,CORRECT,,html-keyboard-response,168,778784,0.0-14.0-23.0-0.0,74581,List1B,black,man,,,,null,,,,
3106,<p>You got 8 out of 8 right first time. Press Continue.</p>,0,html-button-response,169,781890,0.0-14.0-25.0,74581,List1B,black,man,,,,,,,,
null,"<div style=""font-size:60px;"">+</div>",,html-keyboard-response,170,783392,0.0-15.0-0.0,74581,List1B,black,man,,,,null,,,,
null,"<img src=""stim_listB/marry8.gif""</stim_listB>",,html-keyboard-response,171,785395,0.0-15.0-1.0,74581,List1B,black,man,,,,null,,,,
null,are marrying each other,,html-keyboard-response,172,787396,0.0-15.0-2.0,74581,List1B,black,man,,,,null,,,,
20922,,,survey-text,173,808320,0.0-15.0-3.0,74581,List1B,black,man,,,,,"{""Q0"":""Jane and Kate are marrying each other""}","<img src=""stim_listB/marry8.gif""</stim_listB>",are marrying each other,
null,"<div style=""font-size:60px;"">+</div>",,html-keyboard-response,174,808822,0.0-15.0-0.1,74581,List1B,black,man,,,,null,,,,
null,"<img src=""stim_listB/shout2.gif""</stim_listB>",,html-keyboard-response,175,810824,0.0-15.0-1.1,74581,List1B,black,man,,,,null,,,,
null,are shouting at each other,,html-keyboard-response,176,813825,0.0-15.0-2.1,74581,List1B,black,man,,,,null,,,,
8156,,,survey-text,177,821982,0.0-15.0-3.1,74581,List1B,black,man,,,,,"{""Q0"":""Mike and kate are shouting at each other""}","<img src=""stim_listB/shout2.gif""</stim_listB>",are shouting at each other,
null,"<div style=""font-size:60px;"">+</div>",,html-keyboard-response,178,822482,0.0-15.0-0.2,74581,List1B,black,man,,,,null,,,,
null,"<img src=""stim_listB/fight4.gif""</stim_listB>",,html-keyboard-response,179,824484,0.0-15.0-1.2,74581,List1B,black,man,,,,null,,,,
null,are fighting each other,,html-keyboard-response,180,826794,0.0-15.0-2.2,74581,List1B,black,man,,,,null,,,,
7674,,,survey-text,181,834469,0.0-15.0-3.2,74581,List1B,black,man,,,,,"{""Q0"":""ruth and luke are fighting each other""}","<img src=""stim_listB/fight4.gif""</stim_listB>",are fighting each other,
null,"<div style=""font-size:60px;"">+</div>",,html-keyboard-response,182,834970,0.0-15.0-0.3,74581,List1B,black,man,,,,null,,,,
null,"<img src=""stim_listB/kiss7.gif""</stim_listB>",,html-keyboard-response,183,836971,0.0-15.0-1.3,74581,List1B,black,man,,,,null,,,,
null,is kissing,,html-keyboard-response,184,838973,0.0-15.0-2.3,74581,List1B,black,man,,,,null,,,,
6193,,,survey-text,185,845166,0.0-15.0-3.3,74581,List1B,black,man,,,,,"{""Q0"":""ruth is kissing beth""}","<img src=""stim_listB/kiss7.gif""</stim_listB>",is kissing,
null,"<div style=""font-size:60px;"">+</div>",,html-keyboard-response,186,845666,0.0-15.0-0.4,74581,List1B,black,man,,,,null,,,,
null,"<img src=""stim_listB/talk4.gif""</stim_listB>",,html-keyboard-response,187,847669,0.0-15.0-1.4,74581,List1B,black,man,,,,null,,,,
null,are talking to each other,,html-keyboard-response,188,849671,0.0-15.0-2.4,74581,List1B,black,man,,,,null,,,,
6946,,,survey-text,189,856617,0.0-15.0-3.4,74581,List1B,black,man,,,,,"{""Q0"":""dave and ruth are talking to each other""}","<img src=""stim_listB/talk4.gif""</stim_listB>",are talking to each other,
null,"<div style=""font-size:60px;"">+</div>",,html-keyboard-response,190,857119,0.0-15.0-0.5,74581,List1B,black,man,,,,null,,,,
null,"<img src=""stim_listB/touch8.gif""</stim_listB>",,html-keyboard-response,191,859121,0.0-15.0-1.5,74581,List1B,black,man,,,,null,,,,
null,are touching each other,,html-keyboard-response,192,861123,0.0-15.0-2.5,74581,List1B,black,man,,,,null,,,,
6589,,,survey-text,193,867713,0.0-15.0-3.5,74581,List1B,black,man,,,,,"{""Q0"":""ruth and beth are touching each other""}","<img src=""stim_listB/touch8.gif""</stim_listB>",are touching each other,
null,"<div style=""font-size:60px;"">+</div>",,html-keyboard-response,194,868214,0.0-15.0-0.6,74581,List1B,black,man,,,,null,,,,
null,"<img src=""stim_listB/touch1.gif""</stim_listB>",,html-keyboard-response,195,870216,0.0-15.0-1.6,74581,List1B,black,man,,,,null,,,,
null,is touching,,html-keyboard-response,196,872218,0.0-15.0-2.6,74581,List1B,black,man,,,,null,,,,
6339,,,survey-text,197,878558,0.0-15.0-3.6,74581,List1B,black,man,,,,,"{""Q0"":""mike is touching kate""}","<img src=""stim_listB/touch1.gif""</stim_listB>",is touching,
null,"<div style=""font-size:60px;"">+</div>",,html-keyboard-response,198,879060,0.0-15.0-0.7,74581,List1B,black,man,,,,null,,,,
null,"<img src=""stim_listB/shout5.gif""</stim_listB>",,html-keyboard-response,199,881062,0.0-15.0-1.7,74581,List1B,black,man,,,,null,,,,
null,is shouting at,,html-keyboard-response,200,883063,0.0-15.0-2.7,74581,List1B,black,man,,,,null,,,,
7677,,,survey-text,201,890741,0.0-15.0-3.7,74581,List1B,black,man,,,,,"{""Q0"":""luke is shouting at fred""}","<img src=""stim_listB/shout5.gif""</stim_listB>",is shouting at,
null,"<div style=""font-size:60px;"">+</div>",,html-keyboard-response,202,891243,0.0-15.0-0.8,74581,List1B,black,man,,,,null,,,,
null,"<img src=""stim_listB/marry2.gif""</stim_listB>",,html-keyboard-response,203,893245,0.0-15.0-1.8,74581,List1B,black,man,,,,null,,,,
null,are marrying each other,,html-keyboard-response,204,895826,0.0-15.0-2.8,74581,List1B,black,man,,,,null,,,,
8094,,,survey-text,205,903922,0.0-15.0-3.8,74581,List1B,black,man,,,,,"{""Q0"":""fred and kate are marrying each other""}","<img src=""stim_listB/marry2.gif""</stim_listB>",are marrying each other,
null,"<div style=""font-size:60px;"">+</div>",,html-keyboard-response,206,904423,0.0-15.0-0.9,74581,List1B,black,man,,,,null,,,,
null,"<img src=""stim_listB/touch5.gif""</stim_listB>",,html-keyboard-response,207,906424,0.0-15.0-1.9,74581,List1B,black,man,,,,null,,,,
null,is touching,,html-keyboard-response,208,908426,0.0-15.0-2.9,74581,List1B,black,man,,,,null,,,,
6043,,,survey-text,209,914470,0.0-15.0-3.9,74581,List1B,black,man,,,,,"{""Q0"":""dave is touching mike""}","<img src=""stim_listB/touch5.gif""</stim_listB>",is touching,
null,"<div style=""font-size:60px;"">+</div>",,html-keyboard-response,210,914971,0.0-15.0-0.10,74581,List1B,black,man,,,,null,,,,
null,"<img src=""stim_listB/argue5.gif""</stim_listB>",,html-keyboard-response,211,916973,0.0-15.0-1.10,74581,List1B,black,man,,,,null,,,,
null,is arguing with,,html-keyboard-response,212,919825,0.0-15.0-2.10,74581,List1B,black,man,,,,null,,,,
15667,,,survey-text,213,935492,0.0-15.0-3.10,74581,List1B,black,man,,,,,"{""Q0"":""luke and mike are arguing with each other""}","<img src=""stim_listB/argue5.gif""</stim_listB>",is arguing with,
null,"<div style=""font-size:60px;"">+</div>",,html-keyboard-response,214,935993,0.0-15.0-0.11,74581,List1B,black,man,,,,null,,,,
null,"<img src=""stim_listB/argue2.gif""</stim_listB>",,html-keyboard-response,215,937994,0.0-15.0-1.11,74581,List1B,black,man,,,,null,,,,
null,are arguing with each other,,html-keyboard-response,216,940825,0.0-15.0-2.11,74581,List1B,black,man,,,,null,,,,
13197,,,survey-text,217,954024,0.0-15.0-3.11,74581,List1B,black,man,,,,,"{""Q0"":""fred and kate are arguing with each other""}","<img src=""stim_listB/argue2.gif""</stim_listB>",are arguing with each other,
null,"<div style=""font-size:60px;"">+</div>",,html-keyboard-response,218,954526,0.0-15.0-0.12,74581,List1B,black,man,,,,null,,,,
null,"<img src=""stim_listB/fight7.gif""</stim_listB>",,html-keyboard-response,219,956528,0.0-15.0-1.12,74581,List1B,black,man,,,,null,,,,
null,is fighting,,html-keyboard-response,220,958826,0.0-15.0-2.12,74581,List1B,black,man,,,,null,,,,
10453,,,survey-text,221,969281,0.0-15.0-3.12,74581,List1B,black,man,,,,,"{""Q0"":""jane is fighting kate""}","<img src=""stim_listB/fight7.gif""</stim_listB>",is fighting,
null,"<div style=""font-size:60px;"">+</div>",,html-keyboard-response,222,969782,0.0-15.0-0.13,74581,List1B,black,man,,,,null,,,,
null,"<img src=""stim_listB/meet6.gif""</stim_listB>",,html-keyboard-response,223,971782,0.0-15.0-1.13,74581,List1B,black,man,,,,null,,,,
null,are meeting each other,,html-keyboard-response,224,973783,0.0-15.0-2.13,74581,List1B,black,man,,,,null,,,,
11724,,,survey-text,225,985507,0.0-15.0-3.13,74581,List1B,black,man,,,,,"{""Q0"":""luke and fred are metting each other""}","<img src=""stim_listB/meet6.gif""</stim_listB>",are meeting each other,
null,"<div style=""font-size:60px;"">+</div>",,html-keyboard-response,226,986009,0.0-15.0-0.14,74581,List1B,black,man,,,,null,,,,
null,"<img src=""stim_listB/shout4.gif""</stim_listB>",,html-keyboard-response,227,988011,0.0-15.0-1.14,74581,List1B,black,man,,,,null,,,,
null,are shouting at each other,,html-keyboard-response,228,990014,0.0-15.0-2.14,74581,List1B,black,man,,,,null,,,,
10129,,,survey-text,229,1000143,0.0-15.0-3.14,74581,List1B,black,man,,,,,"{""Q0"":""dave and jane are shouting at each other""}","<img src=""stim_listB/shout4.gif""</stim_listB>",are shouting at each other,
null,"<div style=""font-size:60px;"">+</div>",,html-keyboard-response,230,1000644,0.0-15.0-0.15,74581,List1B,black,man,,,,null,,,,
null,"<img src=""stim_listB/touch7.gif""</stim_listB>",,html-keyboard-response,231,1002646,0.0-15.0-1.15,74581,List1B,black,man,,,,null,,,,
null,is touching,,html-keyboard-response,232,1004648,0.0-15.0-2.15,74581,List1B,black,man,,,,null,,,,
8588,,,survey-text,233,1013236,0.0-15.0-3.15,74581,List1B,black,man,,,,,"{""Q0"":""jane is touching kate""}","<img src=""stim_listB/touch7.gif""</stim_listB>",is touching,
null,"<div style=""font-size:60px;"">+</div>",,html-keyboard-response,234,1013737,0.0-15.0-0.16,74581,List1B,black,man,,,,null,,,,
null,"<img src=""stim_listB/shout1.gif""</stim_listB>",,html-keyboard-response,235,1015738,0.0-15.0-1.16,74581,List1B,black,man,,,,null,,,,
null,is shouting at,,html-keyboard-response,236,1017825,0.0-15.0-2.16,74581,List1B,black,man,,,,null,,,,
7901,,,survey-text,237,1025726,0.0-15.0-3.16,74581,List1B,black,man,,,,,"{""Q0"":""Fred is shouting at beth""}","<img src=""stim_listB/shout1.gif""</stim_listB>",is shouting at,
null,"<div style=""font-size:60px;"">+</div>",,html-keyboard-response,238,1026228,0.0-15.0-0.17,74581,List1B,black,man,,,,null,,,,
null,"<img src=""stim_listB/hug8.gif""</stim_listB>",,html-keyboard-response,239,1028230,0.0-15.0-1.17,74581,List1B,black,man,,,,null,,,,
null,are hugging each other,,html-keyboard-response,240,1030825,0.0-15.0-2.17,74581,List1B,black,man,,,,null,,,,
11268,,,survey-text,241,1042093,0.0-15.0-3.17,74581,List1B,black,man,,,,,"{""Q0"":""jane and kate are hugging each other""}","<img src=""stim_listB/hug8.gif""</stim_listB>",are hugging each other,
null,"<div style=""font-size:60px;"">+</div>",,html-keyboard-response,242,1042594,0.0-15.0-0.18,74581,List1B,black,man,,,,null,,,,
null,"<img src=""stim_listB/hug3.gif""</stim_listB>",,html-keyboard-response,243,1044825,0.0-15.0-1.18,74581,List1B,black,man,,,,null,,,,
null,is hugging,,html-keyboard-response,244,1046827,0.0-15.0-2.18,74581,List1B,black,man,,,,null,,,,
26071,,,survey-text,245,1072898,0.0-15.0-3.18,74581,List1B,black,man,,,,,"{""Q0"":""luke and ruth are hugging each other""}","<img src=""stim_listB/hug3.gif""</stim_listB>",is hugging,
null,"<div style=""font-size:60px;"">+</div>",,html-keyboard-response,246,1073400,0.0-15.0-0.19,74581,List1B,black,man,,,,null,,,,
null,"<img src=""stim_listB/marry5.gif""</stim_listB>",,html-keyboard-response,247,1075401,0.0-15.0-1.19,74581,List1B,black,man,,,,null,,,,
null,is marrying,,html-keyboard-response,248,1077827,0.0-15.0-2.19,74581,List1B,black,man,,,,null,,,,
6104,,,survey-text,249,1083931,0.0-15.0-3.19,74581,List1B,black,man,,,,,"{""Q0"":""mike is marrying luke""}","<img src=""stim_listB/marry5.gif""</stim_listB>",is marrying,
5760,"<img src='img/portrait_matrix_list1.JPG' style='width:900px;height:500px;''></img><p>If you have memorised all the portraits and names and are ready to start, press Continue.</p><p><strong>Please note: Your memory of these faces will be tested 4 times during this experiment.</strong></p>",0,html-button-response,250,1089692,0.0-16.0-0.0,74581,List1B,black,man,,,,,,,,
5525,"<img src=""portrait/BM2.jpg""style=""width:400px;height:400px;""></img>",5,html-button-response,251,1096218,0.0-16.0-1.0,74581,List1B,black,man,,TRUE,5,,,,,
null,CORRECT,,html-keyboard-response,252,1097720,0.0-16.0-2.0-0.0,74581,List1B,black,man,,,,null,,,,
3042,"<img src=""portrait/WW2.jpg""style=""width:400px;height:400px;""></img>",3,html-button-response,253,1100762,0.0-16.0-4.0,74581,List1B,black,man,,TRUE,3,,,,,
null,CORRECT,,html-keyboard-response,254,1102265,0.0-16.0-5.0-0.0,74581,List1B,black,man,,,,null,,,,
2519,"<img src=""portrait/BM1.jpg""style=""width:400px;height:400px;""></img>",4,html-button-response,255,1104785,0.0-16.0-7.0,74581,List1B,black,man,,TRUE,4,,,,,
null,CORRECT,,html-keyboard-response,256,1106287,0.0-16.0-8.0-0.0,74581,List1B,black,man,,,,null,,,,
3358,"<img src=""portrait/WW1.jpg""style=""width:400px;height:400px;""></img>",1,html-button-response,257,1109646,0.0-16.0-10.0,74581,List1B,black,man,,TRUE,1,,,,,
null,CORRECT,,html-keyboard-response,258,1111148,0.0-16.0-11.0-0.0,74581,List1B,black,man,,,,null,,,,
4228,"<img src=""portrait/WM1.jpg""style=""width:400px;height:400px;""></img>",6,html-button-response,259,1115377,0.0-16.0-13.0,74581,List1B,black,man,,TRUE,6,,,,,
null,CORRECT,,html-keyboard-response,260,1116879,0.0-16.0-14.0-0.0,74581,List1B,black,man,,,,null,,,,
3663,"<img src=""portrait/WM2.jpg""style=""width:400px;height:400px;""></img>",7,html-button-response,261,1120544,0.0-16.0-16.0,74581,List1B,black,man,,TRUE,7,,,,,
null,CORRECT,,html-keyboard-response,262,1122046,0.0-16.0-17.0-0.0,74581,List1B,black,man,,,,null,,,,
6642,"<img src=""portrait/BW1.jpg""style=""width:400px;height:400px;""></img>",0,html-button-response,263,1128689,0.0-16.0-19.0,74581,List1B,black,man,,TRUE,0,,,,,
null,CORRECT,,html-keyboard-response,264,1130192,0.0-16.0-20.0-0.0,74581,List1B,black,man,,,,null,,,,
3410,"<img src=""portrait/BW2.jpg""style=""width:400px;height:400px;""></img>",2,html-button-response,265,1133602,0.0-16.0-22.0,74581,List1B,black,man,,TRUE,2,,,,,
null,CORRECT,,html-keyboard-response,266,1135105,0.0-16.0-23.0-0.0,74581,List1B,black,man,,,,null,,,,
1328,<p>You got 8 out of 8 right first time. Press Continue.</p>,0,html-button-response,267,1136433,0.0-16.0-25.0,74581,List1B,black,man,,,,,,,,
null,"<div style=""font-size:60px;"">+</div>",,html-keyboard-response,268,1137936,0.0-17.0-0.0,74581,List1B,black,man,,,,null,,,,
null,"<img src=""stim_listB/fight2.gif""</stim_listB>",,html-keyboard-response,269,1139937,0.0-17.0-1.0,74581,List1B,black,man,,,,null,,,,
null,are fighting each other,,html-keyboard-response,270,1142805,0.0-17.0-2.0,74581,List1B,black,man,,,,null,,,,
10584,,,survey-text,271,1153389,0.0-17.0-3.0,74581,List1B,black,man,,,,,"{""Q0"":""fred and beth are fighting each other""}","<img src=""stim_listB/fight2.gif""</stim_listB>",are fighting each other,
null,"<div style=""font-size:60px;"">+</div>",,html-keyboard-response,272,1153890,0.0-17.0-0.1,74581,List1B,black,man,,,,null,,,,
null,"<img src=""stim_listB/meet2.gif""</stim_listB>",,html-keyboard-response,273,1155891,0.0-17.0-1.1,74581,List1B,black,man,,,,null,,,,
null,are meeting each other,,html-keyboard-response,274,1157918,0.0-17.0-2.1,74581,List1B,black,man,,,,null,,,,
7918,,,survey-text,275,1165836,0.0-17.0-3.1,74581,List1B,black,man,,,,,"{""Q0"":""fred and beth are meeting each other""}","<img src=""stim_listB/meet2.gif""</stim_listB>",are meeting each other,
null,"<div style=""font-size:60px;"">+</div>",,html-keyboard-response,276,1166338,0.0-17.0-0.2,74581,List1B,black,man,,,,null,,,,
null,"<img src=""stim_listB/shout3.gif""</stim_listB>",,html-keyboard-response,277,1168338,0.0-17.0-1.2,74581,List1B,black,man,,,,null,,,,
null,is shouting at,,html-keyboard-response,278,1170551,0.0-17.0-2.2,74581,List1B,black,man,,,,null,,,,
6946,,,survey-text,279,1177498,0.0-17.0-3.2,74581,List1B,black,man,,,,,"{""Q0"":""luke is shouting at ruth""}","<img src=""stim_listB/shout3.gif""</stim_listB>",is shouting at,
null,"<div style=""font-size:60px;"">+</div>",,html-keyboard-response,280,1178000,0.0-17.0-0.3,74581,List1B,black,man,,,,null,,,,
null,"<img src=""stim_listB/kiss8.gif""</stim_listB>",,html-keyboard-response,281,1180001,0.0-17.0-1.3,74581,List1B,black,man,,,,null,,,,
null,are kissing each other,,html-keyboard-response,282,1182826,0.0-17.0-2.3,74581,List1B,black,man,,,,null,,,,
10251,,,survey-text,283,1193078,0.0-17.0-3.3,74581,List1B,black,man,,,,,"{""Q0"":""kate and jane are kissing each other""}","<img src=""stim_listB/kiss8.gif""</stim_listB>",are kissing each other,
null,"<div style=""font-size:60px;"">+</div>",,html-keyboard-response,284,1193579,0.0-17.0-0.4,74581,List1B,black,man,,,,null,,,,
null,"<img src=""stim_listB/fight6.gif""</stim_listB>",,html-keyboard-response,285,1195580,0.0-17.0-1.4,74581,List1B,black,man,,,,null,,,,
null,are fighting each other,,html-keyboard-response,286,1197580,0.0-17.0-2.4,74581,List1B,black,man,,,,null,,,,
9967,,,survey-text,287,1207548,0.0-17.0-3.4,74581,List1B,black,man,,,,,"{""Q0"":""luke and fred are fighting each other""}","<img src=""stim_listB/fight6.gif""</stim_listB>",are fighting each other,
null,"<div style=""font-size:60px;"">+</div>",,html-keyboard-response,288,1208050,0.0-17.0-0.5,74581,List1B,black,man,,,,null,,,,
null,"<img src=""stim_listB/shout7.gif""</stim_listB>",,html-keyboard-response,289,1210051,0.0-17.0-1.5,74581,List1B,black,man,,,,null,,,,
null,is shouting at,,html-keyboard-response,290,1212825,0.0-17.0-2.5,74581,List1B,black,man,,,,null,,,,
6038,,,survey-text,291,1218863,0.0-17.0-3.5,74581,List1B,black,man,,,,,"{""Q0"":""beth is shouting at ruth""}","<img src=""stim_listB/shout7.gif""</stim_listB>",is shouting at,
null,"<div style=""font-size:60px;"">+</div>",,html-keyboard-response,292,1219363,0.0-17.0-0.6,74581,List1B,black,man,,,,null,,,,
null,"<img src=""stim_listB/kiss5.gif""</stim_listB>",,html-keyboard-response,293,1221366,0.0-17.0-1.6,74581,List1B,black,man,,,,null,,,,
null,is kissing,,html-keyboard-response,294,1223367,0.0-17.0-2.6,74581,List1B,black,man,,,,null,,,,
7188,,,survey-text,295,1230556,0.0-17.0-3.6,74581,List1B,black,man,,,,,"{""Q0"":""luke is kissing fred""}","<img src=""stim_listB/kiss5.gif""</stim_listB>",is kissing,
null,"<div style=""font-size:60px;"">+</div>",,html-keyboard-response,296,1231057,0.0-17.0-0.7,74581,List1B,black,man,,,,null,,,,
null,"<img src=""stim_listB/hug6.gif""</stim_listB>",,html-keyboard-response,297,1233060,0.0-17.0-1.7,74581,List1B,black,man,,,,null,,,,
null,are hugging each other,,html-keyboard-response,298,1235061,0.0-17.0-2.7,74581,List1B,black,man,,,,null,,,,
7530,,,survey-text,299,1242592,0.0-17.0-3.7,74581,List1B,black,man,,,,,"{""Q0"":""dave and mike are hugging each other""}","<img src=""stim_listB/hug6.gif""</stim_listB>",are hugging each other,
null,"<div style=""font-size:60px;"">+</div>",,html-keyboard-response,300,1243094,0.0-17.0-0.8,74581,List1B,black,man,,,,null,,,,
null,"<img src=""stim_listB/meet7.gif""</stim_listB>",,html-keyboard-response,301,1245096,0.0-17.0-1.8,74581,List1B,black,man,,,,null,,,,
null,is meeting,,html-keyboard-response,302,1247589,0.0-17.0-2.8,74581,List1B,black,man,,,,null,,,,
5720,,,survey-text,303,1253309,0.0-17.0-3.8,74581,List1B,black,man,,,,,"{""Q0"":""jane is meeting kate""}","<img src=""stim_listB/meet7.gif""</stim_listB>",is meeting,
null,"<div style=""font-size:60px;"">+</div>",,html-keyboard-response,304,1253810,0.0-17.0-0.9,74581,List1B,black,man,,,,null,,,,
null,"<img src=""stim_listB/argue6.gif""</stim_listB>",,html-keyboard-response,305,1255811,0.0-17.0-1.9,74581,List1B,black,man,,,,null,,,,
null,are arguing with each other,,html-keyboard-response,306,1257825,0.0-17.0-2.9,74581,List1B,black,man,,,,null,,,,
8304,,,survey-text,307,1266129,0.0-17.0-3.9,74581,List1B,black,man,,,,,"{""Q0"":""fred and dave are arguing with each other""}","<img src=""stim_listB/argue6.gif""</stim_listB>",are arguing with each other,
null,"<div style=""font-size:60px;"">+</div>",,html-keyboard-response,308,1266632,0.0-17.0-0.10,74581,List1B,black,man,,,,null,,,,
null,"<img src=""stim_listB/talk1.gif""</stim_listB>",,html-keyboard-response,309,1268634,0.0-17.0-1.10,74581,List1B,black,man,,,,null,,,,
null,is talking to,,html-keyboard-response,310,1270826,0.0-17.0-2.10,74581,List1B,black,man,,,,null,,,,
9359,,,survey-text,311,1280185,0.0-17.0-3.10,74581,List1B,black,man,,,,,"{""Q0"":""fred is talking to kate""}","<img src=""stim_listB/talk1.gif""</stim_listB>",is talking to,
null,"<div style=""font-size:60px;"">+</div>",,html-keyboard-response,312,1280688,0.0-17.0-0.11,74581,List1B,black,man,,,,null,,,,
null,"<img src=""stim_listB/meet1.gif""</stim_listB>",,html-keyboard-response,313,1282689,0.0-17.0-1.11,74581,List1B,black,man,,,,null,,,,
null,is meeting,,html-keyboard-response,314,1284690,0.0-17.0-2.11,74581,List1B,black,man,,,,null,,,,
9482,,,survey-text,315,1294173,0.0-17.0-3.11,74581,List1B,black,man,,,,,"{""Q0"":""mike is meeting kate""}","<img src=""stim_listB/meet1.gif""</stim_listB>",is meeting,
null,"<div style=""font-size:60px;"">+</div>",,html-keyboard-response,316,1294674,0.0-17.0-0.12,74581,List1B,black,man,,,,null,,,,
null,"<img src=""stim_listB/dance7.gif""</stim_listB>",,html-keyboard-response,317,1296676,0.0-17.0-1.12,74581,List1B,black,man,,,,null,,,,
null,is dancing with,,html-keyboard-response,318,1298677,0.0-17.0-2.12,74581,List1B,black,man,,,,null,,,,
11546,,,survey-text,319,1310223,0.0-17.0-3.12,74581,List1B,black,man,,,,,"{""Q0"":""jane is dancing with beth""}","<img src=""stim_listB/dance7.gif""</stim_listB>",is dancing with,
null,"<div style=""font-size:60px;"">+</div>",,html-keyboard-response,320,1310724,0.0-17.0-0.13,74581,List1B,black,man,,,,null,,,,
null,"<img src=""stim_listB/dance6.gif""</stim_listB>",,html-keyboard-response,321,1312726,0.0-17.0-1.13,74581,List1B,black,man,,,,null,,,,
null,are dancing with each other,,html-keyboard-response,322,1314728,0.0-17.0-2.13,74581,List1B,black,man,,,,null,,,,
9040,,,survey-text,323,1323768,0.0-17.0-3.13,74581,List1B,black,man,,,,,"{""Q0"":""mike and luke are dancing with each other""}","<img src=""stim_listB/dance6.gif""</stim_listB>",are dancing with each other,
null,"<div style=""font-size:60px;"">+</div>",,html-keyboard-response,324,1324270,0.0-17.0-0.14,74581,List1B,black,man,,,,null,,,,
null,"<img src=""stim_listB/talk3.gif""</stim_listB>",,html-keyboard-response,325,1326272,0.0-17.0-1.14,74581,List1B,black,man,,,,null,,,,
null,is talking to,,html-keyboard-response,326,1328274,0.0-17.0-2.14,74581,List1B,black,man,,,,null,,,,
10650,,,survey-text,327,1338924,0.0-17.0-3.14,74581,List1B,black,man,,,,,"{""Q0"":""luke is talking to jane""}","<img src=""stim_listB/talk3.gif""</stim_listB>",is talking to,
null,"<div style=""font-size:60px;"">+</div>",,html-keyboard-response,328,1339426,0.0-17.0-0.15,74581,List1B,black,man,,,,null,,,,
null,"<img src=""stim_listB/talk2.gif""</stim_listB>",,html-keyboard-response,329,1341427,0.0-17.0-1.15,74581,List1B,black,man,,,,null,,,,
null,are talking to each other,,html-keyboard-response,330,1343825,0.0-17.0-2.15,74581,List1B,black,man,,,,null,,,,
7188,,,survey-text,331,1351013,0.0-17.0-3.15,74581,List1B,black,man,,,,,"{""Q0"":""mike is talking to beth""}","<img src=""stim_listB/talk2.gif""</stim_listB>",are talking to each other,
null,"<div style=""font-size:60px;"">+</div>",,html-keyboard-response,332,1351514,0.0-17.0-0.16,74581,List1B,black,man,,,,null,,,,
null,"<img src=""stim_listB/talk8.gif""</stim_listB>",,html-keyboard-response,333,1353516,0.0-17.0-1.16,74581,List1B,black,man,,,,null,,,,
null,are talking to each other,,html-keyboard-response,334,1355825,0.0-17.0-2.16,74581,List1B,black,man,,,,null,,,,
8896,,,survey-text,335,1364721,0.0-17.0-3.16,74581,List1B,black,man,,,,,"{""Q0"":""ruth and kate are talking to each other""}","<img src=""stim_listB/talk8.gif""</stim_listB>",are talking to each other,
null,"<div style=""font-size:60px;"">+</div>",,html-keyboard-response,336,1365222,0.0-17.0-0.17,74581,List1B,black,man,,,,null,,,,
null,"<img src=""stim_listB/kiss3.gif""</stim_listB>",,html-keyboard-response,337,1367223,0.0-17.0-1.17,74581,List1B,black,man,,,,null,,,,
null,is kissing,,html-keyboard-response,338,1369597,0.0-17.0-2.17,74581,List1B,black,man,,,,null,,,,
4930,,,survey-text,339,1374528,0.0-17.0-3.17,74581,List1B,black,man,,,,,"{""Q0"":""luke is kissing ruth""}","<img src=""stim_listB/kiss3.gif""</stim_listB>",is kissing,
null,"<div style=""font-size:60px;"">+</div>",,html-keyboard-response,340,1375029,0.0-17.0-0.18,74581,List1B,black,man,,,,null,,,,
null,"<img src=""stim_listB/kiss2.gif""</stim_listB>",,html-keyboard-response,341,1377031,0.0-17.0-1.18,74581,List1B,black,man,,,,null,,,,
null,are kissing each other,,html-keyboard-response,342,1379031,0.0-17.0-2.18,74581,List1B,black,man,,,,null,,,,
9534,,,survey-text,343,1388567,0.0-17.0-3.18,74581,List1B,black,man,,,,,"{""Q0"":""mike and kate are kissing each other""}","<img src=""stim_listB/kiss2.gif""</stim_listB>",are kissing each other,
null,"<div style=""font-size:60px;"">+</div>",,html-keyboard-response,344,1389068,0.0-17.0-0.19,74581,List1B,black,man,,,,null,,,,
null,"<img src=""stim_listB/fight3.gif""</stim_listB>",,html-keyboard-response,345,1391069,0.0-17.0-1.19,74581,List1B,black,man,,,,null,,,,
null,is fighting,,html-keyboard-response,346,1393071,0.0-17.0-2.19,74581,List1B,black,man,,,,null,,,,
4075,,,survey-text,347,1397146,0.0-17.0-3.19,74581,List1B,black,man,,,,,"{""Q0"":""dave is fighting jane""}","<img src=""stim_listB/fight3.gif""</stim_listB>",is fighting,
11832,"<img src='img/portrait_matrix_list1.JPG' style='width:900px;height:500px;''></img><p>If you have memorised all the portraits and names and are ready to start, press Continue.</p><p><strong>Please note: Your memory of these faces will be tested 4 times during this experiment.</strong></p>",0,html-button-response,348,1408978,0.0-18.0-0.0,74581,List1B,black,man,,,,,,,,
2882,"<img src=""portrait/BM1.jpg""style=""width:400px;height:400px;""></img>",4,html-button-response,349,1412863,0.0-18.0-1.0,74581,List1B,black,man,,TRUE,4,,,,,
null,CORRECT,,html-keyboard-response,350,1414366,0.0-18.0-2.0-0.0,74581,List1B,black,man,,,,null,,,,
2738,"<img src=""portrait/WM1.jpg""style=""width:400px;height:400px;""></img>",6,html-button-response,351,1417105,0.0-18.0-4.0,74581,List1B,black,man,,TRUE,6,,,,,
null,CORRECT,,html-keyboard-response,352,1419201,0.0-18.0-5.0-0.0,74581,List1B,black,man,,,,null,,,,
3439,"<img src=""portrait/BM2.jpg""style=""width:400px;height:400px;""></img>",5,html-button-response,353,1422641,0.0-18.0-7.0,74581,List1B,black,man,,TRUE,5,,,,,
null,CORRECT,,html-keyboard-response,354,1424825,0.0-18.0-8.0-0.0,74581,List1B,black,man,,,,null,,,,
2987,"<img src=""portrait/WM2.jpg""style=""width:400px;height:400px;""></img>",7,html-button-response,355,1427813,0.0-18.0-10.0,74581,List1B,black,man,,TRUE,7,,,,,
null,CORRECT,,html-keyboard-response,356,1429315,0.0-18.0-11.0-0.0,74581,List1B,black,man,,,,null,,,,
2968,"<img src=""portrait/WW2.jpg""style=""width:400px;height:400px;""></img>",3,html-button-response,357,1432284,0.0-18.0-13.0,74581,List1B,black,man,,TRUE,3,,,,,
null,CORRECT,,html-keyboard-response,358,1433787,0.0-18.0-14.0-0.0,74581,List1B,black,man,,,,null,,,,
5893,"<img src=""portrait/BW1.jpg""style=""width:400px;height:400px;""></img>",0,html-button-response,359,1439680,0.0-18.0-16.0,74581,List1B,black,man,,TRUE,0,,,,,
null,CORRECT,,html-keyboard-response,360,1441181,0.0-18.0-17.0-0.0,74581,List1B,black,man,,,,null,,,,
3648,"<img src=""portrait/BW2.jpg""style=""width:400px;height:400px;""></img>",2,html-button-response,361,1444830,0.0-18.0-19.0,74581,List1B,black,man,,TRUE,2,,,,,
null,CORRECT,,html-keyboard-response,362,1446332,0.0-18.0-20.0-0.0,74581,List1B,black,man,,,,null,,,,
3316,"<img src=""portrait/WW1.jpg""style=""width:400px;height:400px;""></img>",1,html-button-response,363,1449648,0.0-18.0-22.0,74581,List1B,black,man,,TRUE,1,,,,,
null,CORRECT,,html-keyboard-response,364,1451151,0.0-18.0-23.0-0.0,74581,List1B,black,man,,,,null,,,,
1805,<p>You got 8 out of 8 right first time. Press Continue.</p>,0,html-button-response,365,1452958,0.0-18.0-25.0,74581,List1B,black,man,,,,,,,,
null,"<div style=""font-size:60px;"">+</div>",,html-keyboard-response,366,1454462,0.0-19.0-0.0,74581,List1B,black,man,,,,null,,,,
null,"<img src=""stim_listB/shout8.gif""</stim_listB>",,html-keyboard-response,367,1456463,0.0-19.0-1.0,74581,List1B,black,man,,,,null,,,,
null,are shouting at each other,,html-keyboard-response,368,1458826,0.0-19.0-2.0,74581,List1B,black,man,,,,null,,,,
10751,,,survey-text,369,1469578,0.0-19.0-3.0,74581,List1B,black,man,,,,,"{""Q0"":""jane and kate are shouting at each other""}","<img src=""stim_listB/shout8.gif""</stim_listB>",are shouting at each other,
null,"<div style=""font-size:60px;"">+</div>",,html-keyboard-response,370,1470079,0.0-19.0-0.1,74581,List1B,black,man,,,,null,,,,
null,"<img src=""stim_listB/talk7.gif""</stim_listB>",,html-keyboard-response,371,1472080,0.0-19.0-1.1,74581,List1B,black,man,,,,null,,,,
null,is talking to,,html-keyboard-response,372,1474826,0.0-19.0-2.1,74581,List1B,black,man,,,,null,,,,
7018,,,survey-text,373,1481844,0.0-19.0-3.1,74581,List1B,black,man,,,,,"{""Q0"":""beth is talking to jane""}","<img src=""stim_listB/talk7.gif""</stim_listB>",is talking to,
null,"<div style=""font-size:60px;"">+</div>",,html-keyboard-response,374,1482345,0.0-19.0-0.2,74581,List1B,black,man,,,,null,,,,
null,"<img src=""stim_listB/marry3.gif""</stim_listB>",,html-keyboard-response,375,1484346,0.0-19.0-1.2,74581,List1B,black,man,,,,null,,,,
null,is marrying,,html-keyboard-response,376,1486347,0.0-19.0-2.2,74581,List1B,black,man,,,,null,,,,
7903,,,survey-text,377,1494251,0.0-19.0-3.2,74581,List1B,black,man,,,,,"{""Q0"":""dave is marrying ruth""}","<img src=""stim_listB/marry3.gif""</stim_listB>",is marrying,
null,"<div style=""font-size:60px;"">+</div>",,html-keyboard-response,378,1494753,0.0-19.0-0.3,74581,List1B,black,man,,,,null,,,,
null,"<img src=""stim_listB/hug2.gif""</stim_listB>",,html-keyboard-response,379,1496754,0.0-19.0-1.3,74581,List1B,black,man,,,,null,,,,
null,are hugging each other,,html-keyboard-response,380,1498755,0.0-19.0-2.3,74581,List1B,black,man,,,,null,,,,
6690,,,survey-text,381,1505446,0.0-19.0-3.3,74581,List1B,black,man,,,,,"{""Q0"":""mike and kate are hugging each other""}","<img src=""stim_listB/hug2.gif""</stim_listB>",are hugging each other,
null,"<div style=""font-size:60px;"">+</div>",,html-keyboard-response,382,1505947,0.0-19.0-0.4,74581,List1B,black,man,,,,null,,,,
null,"<img src=""stim_listB/fight8.gif""</stim_listB>",,html-keyboard-response,383,1507950,0.0-19.0-1.4,74581,List1B,black,man,,,,null,,,,
null,are fighting each other,,html-keyboard-response,384,1509951,0.0-19.0-2.4,74581,List1B,black,man,,,,null,,,,
7744,,,survey-text,385,1517697,0.0-19.0-3.4,74581,List1B,black,man,,,,,"{""Q0"":""ruth and beth are fighting each other""}","<img src=""stim_listB/fight8.gif""</stim_listB>",are fighting each other,
null,"<div style=""font-size:60px;"">+</div>",,html-keyboard-response,386,1518197,0.0-19.0-0.5,74581,List1B,black,man,,,,null,,,,
null,"<img src=""stim_listB/talk6.gif""</stim_listB>",,html-keyboard-response,387,1520198,0.0-19.0-1.5,74581,List1B,black,man,,,,null,,,,
null,are talking to each other,,html-keyboard-response,388,1522825,0.0-19.0-2.5,74581,List1B,black,man,,,,null,,,,
9348,,,survey-text,389,1532174,0.0-19.0-3.5,74581,List1B,black,man,,,,,"{""Q0"":""mike and luke are talking to each other""}","<img src=""stim_listB/talk6.gif""</stim_listB>",are talking to each other,
null,"<div style=""font-size:60px;"">+</div>",,html-keyboard-response,390,1532675,0.0-19.0-0.6,74581,List1B,black,man,,,,null,,,,
null,"<img src=""stim_listB/marry4.gif""</stim_listB>",,html-keyboard-response,391,1534677,0.0-19.0-1.6,74581,List1B,black,man,,,,null,,,,
null,are marrying each other,,html-keyboard-response,392,1536825,0.0-19.0-2.6,74581,List1B,black,man,,,,null,,,,
7360,,,survey-text,393,1544186,0.0-19.0-3.6,74581,List1B,black,man,,,,,"{""Q0"":""luke and jane are marrying each other""}","<img src=""stim_listB/marry4.gif""</stim_listB>",are marrying each other,
null,"<div style=""font-size:60px;"">+</div>",,html-keyboard-response,394,1544687,0.0-19.0-0.7,74581,List1B,black,man,,,,null,,,,
null,"<img src=""stim_listB/argue8.gif""</stim_listB>",,html-keyboard-response,395,1546689,0.0-19.0-1.7,74581,List1B,black,man,,,,null,,,,
null,are arguing with each other,,html-keyboard-response,396,1548689,0.0-19.0-2.7,74581,List1B,black,man,,,,null,,,,
10754,,,survey-text,397,1559445,0.0-19.0-3.7,74581,List1B,black,man,,,,,"{""Q0"":""beth and jane are arguing with each other""}","<img src=""stim_listB/argue8.gif""</stim_listB>",are arguing with each other,
null,"<div style=""font-size:60px;"">+</div>",,html-keyboard-response,398,1559946,0.0-19.0-0.8,74581,List1B,black,man,,,,null,,,,
null,"<img src=""stim_listB/touch3.gif""</stim_listB>",,html-keyboard-response,399,1561947,0.0-19.0-1.8,74581,List1B,black,man,,,,null,,,,
null,is touching,,html-keyboard-response,400,1563948,0.0-19.0-2.8,74581,List1B,black,man,,,,null,,,,
4592,,,survey-text,401,1568540,0.0-19.0-3.8,74581,List1B,black,man,,,,,"{""Q0"":""dave is touching jane""}","<img src=""stim_listB/touch3.gif""</stim_listB>",is touching,
null,"<div style=""font-size:60px;"">+</div>",,html-keyboard-response,402,1569041,0.0-19.0-0.9,74581,List1B,black,man,,,,null,,,,
null,"<img src=""stim_listB/marry1.gif""</stim_listB>",,html-keyboard-response,403,1571041,0.0-19.0-1.9,74581,List1B,black,man,,,,null,,,,
null,is marrying,,html-keyboard-response,404,1573825,0.0-19.0-2.9,74581,List1B,black,man,,,,null,,,,
8946,,,survey-text,405,1582771,0.0-19.0-3.9,74581,List1B,black,man,,,,,"{""Q0"":""mike is marrying beth""}","<img src=""stim_listB/marry1.gif""</stim_listB>",is marrying,
null,"<div style=""font-size:60px;"">+</div>",,html-keyboard-response,406,1583273,0.0-19.0-0.10,74581,List1B,black,man,,,,null,,,,
null,"<img src=""stim_listB/argue4.gif""</stim_listB>",,html-keyboard-response,407,1585275,0.0-19.0-1.10,74581,List1B,black,man,,,,null,,,,
null,are arguing with each other,,html-keyboard-response,408,1587276,0.0-19.0-2.10,74581,List1B,black,man,,,,null,,,,
11165,,,survey-text,409,1598441,0.0-19.0-3.10,74581,List1B,black,man,,,,,"{""Q0"":""luke and jane are arguing with each other""}","<img src=""stim_listB/argue4.gif""</stim_listB>",are arguing with each other,
null,"<div style=""font-size:60px;"">+</div>",,html-keyboard-response,410,1598942,0.0-19.0-0.11,74581,List1B,black,man,,,,null,,,,
null,"<img src=""stim_listB/hug1.gif""</stim_listB>",,html-keyboard-response,411,1600943,0.0-19.0-1.11,74581,List1B,black,man,,,,null,,,,
null,is hugging,,html-keyboard-response,412,1602945,0.0-19.0-2.11,74581,List1B,black,man,,,,null,,,,
7060,,,survey-text,413,1610006,0.0-19.0-3.11,74581,List1B,black,man,,,,,"{""Q0"":""fred is hugging beth""}","<img src=""stim_listB/hug1.gif""</stim_listB>",is hugging,
null,"<div style=""font-size:60px;"">+</div>",,html-keyboard-response,414,1610506,0.0-19.0-0.12,74581,List1B,black,man,,,,null,,,,
null,"<img src=""stim_listB/talk5.gif""</stim_listB>",,html-keyboard-response,415,1612508,0.0-19.0-1.12,74581,List1B,black,man,,,,null,,,,
null,is talking to,,html-keyboard-response,416,1614510,0.0-19.0-2.12,74581,List1B,black,man,,,,null,,,,
5545,,,survey-text,417,1620055,0.0-19.0-3.12,74581,List1B,black,man,,,,,"{""Q0"":""fred is talking to dave""}","<img src=""stim_listB/talk5.gif""</stim_listB>",is talking to,
null,"<div style=""font-size:60px;"">+</div>",,html-keyboard-response,418,1620556,0.0-19.0-0.13,74581,List1B,black,man,,,,null,,,,
null,"<img src=""stim_listB/kiss4.gif""</stim_listB>",,html-keyboard-response,419,1622558,0.0-19.0-1.13,74581,List1B,black,man,,,,null,,,,
null,are kissing each other,,html-keyboard-response,420,1624560,0.0-19.0-2.13,74581,List1B,black,man,,,,null,,,,
7516,,,survey-text,421,1632077,0.0-19.0-3.13,74581,List1B,black,man,,,,,"{""Q0"":""dave and jane are kissing each other""}","<img src=""stim_listB/kiss4.gif""</stim_listB>",are kissing each other,
null,"<div style=""font-size:60px;"">+</div>",,html-keyboard-response,422,1632578,0.0-19.0-0.14,74581,List1B,black,man,,,,null,,,,
null,"<img src=""stim_listB/fight5.gif""</stim_listB>",,html-keyboard-response,423,1634580,0.0-19.0-1.14,74581,List1B,black,man,,,,null,,,,
null,is fighting,,html-keyboard-response,424,1636580,0.0-19.0-2.14,74581,List1B,black,man,,,,null,,,,
4310,,,survey-text,425,1640891,0.0-19.0-3.14,74581,List1B,black,man,,,,,"{""Q0"":""dave is fighting mike""}","<img src=""stim_listB/fight5.gif""</stim_listB>",is fighting,
null,"<div style=""font-size:60px;"">+</div>",,html-keyboard-response,426,1641392,0.0-19.0-0.15,74581,List1B,black,man,,,,null,,,,
null,"<img src=""stim_listB/kiss6.gif""</stim_listB>",,html-keyboard-response,427,1643393,0.0-19.0-1.15,74581,List1B,black,man,,,,null,,,,
null,are kissing each other,,html-keyboard-response,428,1645396,0.0-19.0-2.15,74581,List1B,black,man,,,,null,,,,
7722,,,survey-text,429,1653118,0.0-19.0-3.15,74581,List1B,black,man,,,,,"{""Q0"":""dave and mike are kissing each other""}","<img src=""stim_listB/kiss6.gif""</stim_listB>",are kissing each other,
null,"<div style=""font-size:60px;"">+</div>",,html-keyboard-response,430,1653620,0.0-19.0-0.16,74581,List1B,black,man,,,,null,,,,
null,"<img src=""stim_listB/argue1.gif""</stim_listB>",,html-keyboard-response,431,1655621,0.0-19.0-1.16,74581,List1B,black,man,,,,null,,,,
null,is arguing with,,html-keyboard-response,432,1657825,0.0-19.0-2.16,74581,List1B,black,man,,,,null,,,,
8177,,,survey-text,433,1666004,0.0-19.0-3.16,74581,List1B,black,man,,,,,"{""Q0"":""beth is arguing with mike""}","<img src=""stim_listB/argue1.gif""</stim_listB>",is arguing with,
null,"<div style=""font-size:60px;"">+</div>",,html-keyboard-response,434,1666505,0.0-19.0-0.17,74581,List1B,black,man,,,,null,,,,
null,"<img src=""stim_listB/dance8.gif""</stim_listB>",,html-keyboard-response,435,1668506,0.0-19.0-1.17,74581,List1B,black,man,,,,null,,,,
null,are dancing with each other,,html-keyboard-response,436,1670827,0.0-19.0-2.17,74581,List1B,black,man,,,,null,,,,
6111,,,survey-text,437,1676938,0.0-19.0-3.17,74581,List1B,black,man,,,,,"{""Q0"":""ruth and kate are dancing""}","<img src=""stim_listB/dance8.gif""</stim_listB>",are dancing with each other,
null,"<div style=""font-size:60px;"">+</div>",,html-keyboard-response,438,1677440,0.0-19.0-0.18,74581,List1B,black,man,,,,null,,,,
null,"<img src=""stim_listB/touch6.gif""</stim_listB>",,html-keyboard-response,439,1679441,0.0-19.0-1.18,74581,List1B,black,man,,,,null,,,,
null,are touching each other,,html-keyboard-response,440,1681443,0.0-19.0-2.18,74581,List1B,black,man,,,,null,,,,
8278,,,survey-text,441,1689721,0.0-19.0-3.18,74581,List1B,black,man,,,,,"{""Q0"":""luke and fred are touching each other""}","<img src=""stim_listB/touch6.gif""</stim_listB>",are touching each other,
null,"<div style=""font-size:60px;"">+</div>",,html-keyboard-response,442,1690222,0.0-19.0-0.19,74581,List1B,black,man,,,,null,,,,
null,"<img src=""stim_listB/dance4.gif""</stim_listB>",,html-keyboard-response,443,1692223,0.0-19.0-1.19,74581,List1B,black,man,,,,null,,,,
null,are dancing with each other,,html-keyboard-response,444,1694224,0.0-19.0-2.19,74581,List1B,black,man,,,,null,,,,
12377,,,survey-text,445,1706603,0.0-19.0-3.19,74581,List1B,black,man,,,,,"{""Q0"":""dave and ruth are dancing with each other""}","<img src=""stim_listB/dance4.gif""</stim_listB>",are dancing with each other,
2024,<p>Thank you for completing that task.</p><p>The final part of this session is a short questionnaire.</p><p>Press Continue.</p>,0,html-button-response,446,1708627,0.0-20.0,74581,List1B,black,man,,,,,,,,
66617,,,survey-text,447,1776246,0.0-21.0,74581,List1B,black,man,,,,,"{""Q0"":""20"",""Q1"":""English"",""Q2"":""English"",""Q3"":""United Kingdom"",""Q4"":""Black/Caribbean "",""Q5"":""Male""}",,,demographics
62956,,,survey-likert,448,1839206,0.0-22.0,74581,List1B,black,man,,,,,"{""Q0"":3,""Q1"":3,""Q2"":"""",""Q3"":5,""Q4"":3,""Q5"":3,""Q6"":"""",""Q7"":2,""Q8"":0,""Q9"":1,""Q10"":0,""Q11"":0,""Q12"":5,""Q13"":5}",,,likert_race
87735,,,survey-likert,449,1926958,0.0-23.0,74581,List1B,black,man,,,,,"{""Q0"":4,""Q1"":3,""Q2"":5,""Q3"":5,""Q4"":3,""Q5"":5,""Q6"":5,""Q7"":5,""Q8"":5,""Q9"":5,""Q10"":2,""Q11"":2,""Q12"":5,""Q13"":5}",,,likert_gender
9185,,,survey-text,450,1936156,0.0-24.0,74581,List1B,black,man,,,,,"{""Q0"":""ccc""}",,,worker_id
20510,,,external-html,451,1956753,0.0-25.0,74581,List1B,black,man,debrief.html,,,,,,,
