rt,stimulus,button_pressed,trial_type,trial_index,time_elapsed,internal_node_id,subject,list,ppt_race,ppt_gender,url,first_guess,correct,key_press,responses,image_type,phrase_type,test_part
4361,Welcome to the experiment. Press Continue to begin.,0,html-button-response,0,4363,0.0-0.0,74618,List1B,black,man,,,,,,,,
44681,,,external-html,1,50494,0.0-1.0,74618,List1B,black,man,consent.html,,,,,,,
419368,"<p>On the next page, you will see portraits of 8 people and their names.</p><p>Your first task is to take a few minutes to memorise the names of these people.</p><p>You will have to recall their names during the rest of the experiment, so it is</p><p>essential that you try to memorise these people and their names as best as you can.</p><br><p><strong>You will then be tested on your memory of these names and portraits.</strong></p><br><p>The experiment will start after you have completed this memory test.</p><br><p>Ready?</p>",0,html-button-response,2,469862,0.0-2.0,74618,List1B,black,man,,,,,,,,
24114,"<img src='img/portrait_matrix_list1.JPG' style='width:900px;height:500px;''></img><p>If you have memorised all the portraits and names and are ready to start, press Continue.</p><p><strong>Please note: Your memory of these faces will be tested 4 times during this experiment.</strong></p>",0,html-button-response,3,494977,0.0-3.0-0.0,74618,List1B,black,man,,,,,,,,
4117,"<img src=""portrait/BM1.jpg""style=""width:400px;height:400px;""></img>",4,html-button-response,4,500096,0.0-3.0-1.0,74618,List1B,black,man,,TRUE,4,,,,,
null,CORRECT,,html-keyboard-response,5,501611,0.0-3.0-2.0-0.0,74618,List1B,black,man,,,,null,,,,
4599,"<img src=""portrait/BW1.jpg""style=""width:400px;height:400px;""></img>",0,html-button-response,6,506212,0.0-3.0-4.0,74618,List1B,black,man,,TRUE,0,,,,,
null,CORRECT,,html-keyboard-response,7,507713,0.0-3.0-5.0-0.0,74618,List1B,black,man,,,,null,,,,
3901,"<img src=""portrait/WW1.jpg""style=""width:400px;height:400px;""></img>",1,html-button-response,8,511615,0.0-3.0-7.0,74618,List1B,black,man,,TRUE,1,,,,,
null,CORRECT,,html-keyboard-response,9,513116,0.0-3.0-8.0-0.0,74618,List1B,black,man,,,,null,,,,
7145,"<img src=""portrait/WM2.jpg""style=""width:400px;height:400px;""></img>",7,html-button-response,10,520263,0.0-3.0-10.0,74618,List1B,black,man,,TRUE,7,,,,,
null,CORRECT,,html-keyboard-response,11,521769,0.0-3.0-11.0-0.0,74618,List1B,black,man,,,,null,,,,
4004,"<img src=""portrait/BM2.jpg""style=""width:400px;height:400px;""></img>",5,html-button-response,12,525775,0.0-3.0-13.0,74618,List1B,black,man,,TRUE,5,,,,,
null,CORRECT,,html-keyboard-response,13,527277,0.0-3.0-14.0-0.0,74618,List1B,black,man,,,,null,,,,
4348,"<img src=""portrait/BW2.jpg""style=""width:400px;height:400px;""></img>",2,html-button-response,14,531626,0.0-3.0-16.0,74618,List1B,black,man,,TRUE,2,,,,,
null,CORRECT,,html-keyboard-response,15,533126,0.0-3.0-17.0-0.0,74618,List1B,black,man,,,,null,,,,
5615,"<img src=""portrait/WM1.jpg""style=""width:400px;height:400px;""></img>",6,html-button-response,16,538742,0.0-3.0-19.0,74618,List1B,black,man,,TRUE,6,,,,,
null,CORRECT,,html-keyboard-response,17,540243,0.0-3.0-20.0-0.0,74618,List1B,black,man,,,,null,,,,
3754,"<img src=""portrait/WW2.jpg""style=""width:400px;height:400px;""></img>",3,html-button-response,18,543999,0.0-3.0-22.0,74618,List1B,black,man,,TRUE,3,,,,,
null,CORRECT,,html-keyboard-response,19,545508,0.0-3.0-23.0-0.0,74618,List1B,black,man,,,,null,,,,
1895,<p>You got 8 out of 8 right first time. Press Continue.</p>,0,html-button-response,20,547403,0.0-3.0-25.0,74618,List1B,black,man,,,,,,,,
47826,"<p>In this experiment, you will view photographs of the people from the memory game interacting.</p><p>By using the <strong>exact</strong> phrase given <i>after</i> the photograph appears and recalling the correct names of the people in the photographs, form a sentence describing the interaction. You do not need to capitalise names.</p><p>Type your answer in the space provided. Please complete every sentence before moving onto the next trial.</p><p>You will only have a few seconds to memorise each given photograph and phrase before you can respond, so try your best to focus.</p><p>An example is given below. Press 'Continue' when you are ready.</p><img src='img/speaking_example_v2.jpg' style='width:800px;height:460px;''></img>",0,html-button-response,21,596237,0.0-4.0,74618,List1B,black,man,,,,,,,,
1809,"<p>Before the experiment starts, you will watch two example trials. Press 'Continue'.</p>",0,html-button-response,22,599047,0.0-5.0,74618,List1B,black,man,,,,,,,,
null,<img src='img/speaking_WW.gif'></img>,,html-keyboard-response,23,602057,0.0-6.0,74618,List1B,black,man,,,,null,,,,
null,<p>is speaking to</p>,,html-keyboard-response,24,604057,0.0-7.0,74618,List1B,black,man,,,,null,,,,
5837,<p><b>Answer:</b> kate is speaking to beth</p>,0,html-button-response,25,609895,0.0-8.0,74618,List1B,black,man,,,,,,,,
null,<img src='img/pointing_BM.gif'></img>,,html-keyboard-response,26,612896,0.0-9.0,74618,List1B,black,man,,,,null,,,,
null,<p>are pointing at each other</p>,,html-keyboard-response,27,614899,0.0-10.0,74618,List1B,black,man,,,,null,,,,
2373,<p><b>Answer:</b> luke and dave are pointing at each other</p>,0,html-button-response,28,617272,0.0-11.0,74618,List1B,black,man,,,,,,,,
5598,"<p>Ready to start the experiment?</p><br><p><strong>Remember to describe the picture using a full sentence,</strong></p><p><strong>that combines the names of the people with the given phrase.</strong></p><p><strong>If you do not do this correctly you will not be paid.</strong></p><p><strong> You do not need to capitalise names or use punctuation.</strong></p><br><p>Press 'Continue' to begin.</p>",0,html-button-response,29,623871,0.0-12.0,74618,List1B,black,man,,,,,,,,
null,"<div style=""font-size:60px;"">+</div>",,html-keyboard-response,30,625392,0.0-13.0-0.0,74618,List1B,black,man,,,,null,,,,
null,"<img src=""stim_listB/fight2.gif""</stim_listB>",,html-keyboard-response,31,627393,0.0-13.0-1.0,74618,List1B,black,man,,,,null,,,,
null,are fighting each other,,html-keyboard-response,32,629400,0.0-13.0-2.0,74618,List1B,black,man,,,,null,,,,
16608,,,survey-text,33,646024,0.0-13.0-3.0,74618,List1B,black,man,,,,,"{""Q0"":""fred is looking at beth""}","<img src=""stim_listB/fight2.gif""</stim_listB>",are fighting each other,
null,"<div style=""font-size:60px;"">+</div>",,html-keyboard-response,34,646524,0.0-13.0-0.1,74618,List1B,black,man,,,,null,,,,
null,"<img src=""stim_listB/marry1.gif""</stim_listB>",,html-keyboard-response,35,648524,0.0-13.0-1.1,74618,List1B,black,man,,,,null,,,,
null,is marrying,,html-keyboard-response,36,650524,0.0-13.0-2.1,74618,List1B,black,man,,,,null,,,,
14651,,,survey-text,37,665176,0.0-13.0-3.1,74618,List1B,black,man,,,,,"{""Q0"":""mike is marrying ruth""}","<img src=""stim_listB/marry1.gif""</stim_listB>",is marrying,
null,"<div style=""font-size:60px;"">+</div>",,html-keyboard-response,38,665677,0.0-13.0-0.2,74618,List1B,black,man,,,,null,,,,
null,"<img src=""stim_listB/hug1.gif""</stim_listB>",,html-keyboard-response,39,667679,0.0-13.0-1.2,74618,List1B,black,man,,,,null,,,,
null,is hugging,,html-keyboard-response,40,669680,0.0-13.0-2.2,74618,List1B,black,man,,,,null,,,,
9677,,,survey-text,41,679359,0.0-13.0-3.2,74618,List1B,black,man,,,,,"{""Q0"":""fred is hugging beth""}","<img src=""stim_listB/hug1.gif""</stim_listB>",is hugging,
null,"<div style=""font-size:60px;"">+</div>",,html-keyboard-response,42,679860,0.0-13.0-0.3,74618,List1B,black,man,,,,null,,,,
null,"<img src=""stim_listB/dance5.gif""</stim_listB>",,html-keyboard-response,43,681861,0.0-13.0-1.3,74618,List1B,black,man,,,,null,,,,
null,is dancing with,,html-keyboard-response,44,683861,0.0-13.0-2.3,74618,List1B,black,man,,,,null,,,,
14513,,,survey-text,45,698375,0.0-13.0-3.3,74618,List1B,black,man,,,,,"{""Q0"":""dave is dancing with fred""}","<img src=""stim_listB/dance5.gif""</stim_listB>",is dancing with,
null,"<div style=""font-size:60px;"">+</div>",,html-keyboard-response,46,698885,0.0-13.0-0.4,74618,List1B,black,man,,,,null,,,,
null,"<img src=""stim_listB/hug8.gif""</stim_listB>",,html-keyboard-response,47,700885,0.0-13.0-1.4,74618,List1B,black,man,,,,null,,,,
null,are hugging each other,,html-keyboard-response,48,702885,0.0-13.0-2.4,74618,List1B,black,man,,,,null,,,,
26533,,,survey-text,49,729419,0.0-13.0-3.4,74618,List1B,black,man,,,,,"{""Q0"":""kate and jane are hugging each other""}","<img src=""stim_listB/hug8.gif""</stim_listB>",are hugging each other,
null,"<div style=""font-size:60px;"">+</div>",,html-keyboard-response,50,729919,0.0-13.0-0.5,74618,List1B,black,man,,,,null,,,,
null,"<img src=""stim_listB/fight4.gif""</stim_listB>",,html-keyboard-response,51,731920,0.0-13.0-1.5,74618,List1B,black,man,,,,null,,,,
null,are fighting each other,,html-keyboard-response,52,733920,0.0-13.0-2.5,74618,List1B,black,man,,,,null,,,,
11047,,,survey-text,53,744968,0.0-13.0-3.5,74618,List1B,black,man,,,,,"{""Q0"":""ruth and luke are fighting each other""}","<img src=""stim_listB/fight4.gif""</stim_listB>",are fighting each other,
null,"<div style=""font-size:60px;"">+</div>",,html-keyboard-response,54,745492,0.0-13.0-0.6,74618,List1B,black,man,,,,null,,,,
null,"<img src=""stim_listB/marry4.gif""</stim_listB>",,html-keyboard-response,55,747492,0.0-13.0-1.6,74618,List1B,black,man,,,,null,,,,
null,are marrying each other,,html-keyboard-response,56,749492,0.0-13.0-2.6,74618,List1B,black,man,,,,null,,,,
15082,,,survey-text,57,764575,0.0-13.0-3.6,74618,List1B,black,man,,,,,"{""Q0"":""jane and luke are marrying each other""}","<img src=""stim_listB/marry4.gif""</stim_listB>",are marrying each other,
null,"<div style=""font-size:60px;"">+</div>",,html-keyboard-response,58,765075,0.0-13.0-0.7,74618,List1B,black,man,,,,null,,,,
null,"<img src=""stim_listB/shout1.gif""</stim_listB>",,html-keyboard-response,59,767076,0.0-13.0-1.7,74618,List1B,black,man,,,,null,,,,
null,is shouting at,,html-keyboard-response,60,769076,0.0-13.0-2.7,74618,List1B,black,man,,,,null,,,,
18708,,,survey-text,61,787785,0.0-13.0-3.7,74618,List1B,black,man,,,,,"{""Q0"":""beth is shouting at fred""}","<img src=""stim_listB/shout1.gif""</stim_listB>",is shouting at,
null,"<div style=""font-size:60px;"">+</div>",,html-keyboard-response,62,788299,0.0-13.0-0.8,74618,List1B,black,man,,,,null,,,,
null,"<img src=""stim_listB/shout6.gif""</stim_listB>",,html-keyboard-response,63,790300,0.0-13.0-1.8,74618,List1B,black,man,,,,null,,,,
null,are shouting at each other,,html-keyboard-response,64,792300,0.0-13.0-2.8,74618,List1B,black,man,,,,null,,,,
19064,,,survey-text,65,811365,0.0-13.0-3.8,74618,List1B,black,man,,,,,"{""Q0"":""dave and mike are shouting at each other""}","<img src=""stim_listB/shout6.gif""</stim_listB>",are shouting at each other,
null,"<div style=""font-size:60px;"">+</div>",,html-keyboard-response,66,811865,0.0-13.0-0.9,74618,List1B,black,man,,,,null,,,,
null,"<img src=""stim_listB/shout8.gif""</stim_listB>",,html-keyboard-response,67,813866,0.0-13.0-1.9,74618,List1B,black,man,,,,null,,,,
null,are shouting at each other,,html-keyboard-response,68,815872,0.0-13.0-2.9,74618,List1B,black,man,,,,null,,,,
16614,,,survey-text,69,832487,0.0-13.0-3.9,74618,List1B,black,man,,,,,"{""Q0"":""kate and jane are shouting at each other""}","<img src=""stim_listB/shout8.gif""</stim_listB>",are shouting at each other,
null,"<div style=""font-size:60px;"">+</div>",,html-keyboard-response,70,832988,0.0-13.0-0.10,74618,List1B,black,man,,,,null,,,,
null,"<img src=""stim_listB/marry2.gif""</stim_listB>",,html-keyboard-response,71,834989,0.0-13.0-1.10,74618,List1B,black,man,,,,null,,,,
null,are marrying each other,,html-keyboard-response,72,836989,0.0-13.0-2.10,74618,List1B,black,man,,,,null,,,,
17924,,,survey-text,73,854914,0.0-13.0-3.10,74618,List1B,black,man,,,,,"{""Q0"":""ruth and jane are dancing""}","<img src=""stim_listB/marry2.gif""</stim_listB>",are marrying each other,
null,"<div style=""font-size:60px;"">+</div>",,html-keyboard-response,74,855417,0.0-13.0-0.11,74618,List1B,black,man,,,,null,,,,
null,"<img src=""stim_listB/dance8.gif""</stim_listB>",,html-keyboard-response,75,857430,0.0-13.0-1.11,74618,List1B,black,man,,,,null,,,,
null,are dancing with each other,,html-keyboard-response,76,859431,0.0-13.0-2.11,74618,List1B,black,man,,,,null,,,,
32871,,,survey-text,77,892303,0.0-13.0-3.11,74618,List1B,black,man,,,,,"{""Q0"":""ruth and beth are dancing with each other""}","<img src=""stim_listB/dance8.gif""</stim_listB>",are dancing with each other,
null,"<div style=""font-size:60px;"">+</div>",,html-keyboard-response,78,892803,0.0-13.0-0.12,74618,List1B,black,man,,,,null,,,,
null,"<img src=""stim_listB/talk3.gif""</stim_listB>",,html-keyboard-response,79,894804,0.0-13.0-1.12,74618,List1B,black,man,,,,null,,,,
null,is talking to,,html-keyboard-response,80,896805,0.0-13.0-2.12,74618,List1B,black,man,,,,null,,,,
11224,,,survey-text,81,908030,0.0-13.0-3.12,74618,List1B,black,man,,,,,"{""Q0"":""jane is talking to luke""}","<img src=""stim_listB/talk3.gif""</stim_listB>",is talking to,
null,"<div style=""font-size:60px;"">+</div>",,html-keyboard-response,82,908539,0.0-13.0-0.13,74618,List1B,black,man,,,,null,,,,
null,"<img src=""stim_listB/shout5.gif""</stim_listB>",,html-keyboard-response,83,910539,0.0-13.0-1.13,74618,List1B,black,man,,,,null,,,,
null,is shouting at,,html-keyboard-response,84,912540,0.0-13.0-2.13,74618,List1B,black,man,,,,null,,,,
8969,,,survey-text,85,921511,0.0-13.0-3.13,74618,List1B,black,man,,,,,"{""Q0"":""fred is shouting at luke""}","<img src=""stim_listB/shout5.gif""</stim_listB>",is shouting at,
null,"<div style=""font-size:60px;"">+</div>",,html-keyboard-response,86,922012,0.0-13.0-0.14,74618,List1B,black,man,,,,null,,,,
null,"<img src=""stim_listB/marry7.gif""</stim_listB>",,html-keyboard-response,87,924013,0.0-13.0-1.14,74618,List1B,black,man,,,,null,,,,
null,is marrying,,html-keyboard-response,88,926013,0.0-13.0-2.14,74618,List1B,black,man,,,,null,,,,
19997,,,survey-text,89,946011,0.0-13.0-3.14,74618,List1B,black,man,,,,,"{""Q0"":""ruth is marrying kate""}","<img src=""stim_listB/marry7.gif""</stim_listB>",is marrying,
null,"<div style=""font-size:60px;"">+</div>",,html-keyboard-response,90,946511,0.0-13.0-0.15,74618,List1B,black,man,,,,null,,,,
null,"<img src=""stim_listB/argue1.gif""</stim_listB>",,html-keyboard-response,91,948524,0.0-13.0-1.15,74618,List1B,black,man,,,,null,,,,
null,is arguing with,,html-keyboard-response,92,950524,0.0-13.0-2.15,74618,List1B,black,man,,,,null,,,,
10066,,,survey-text,93,960591,0.0-13.0-3.15,74618,List1B,black,man,,,,,"{""Q0"":""beth is arguing with mike""}","<img src=""stim_listB/argue1.gif""</stim_listB>",is arguing with,
null,"<div style=""font-size:60px;"">+</div>",,html-keyboard-response,94,961092,0.0-13.0-0.16,74618,List1B,black,man,,,,null,,,,
null,"<img src=""stim_listB/dance2.gif""</stim_listB>",,html-keyboard-response,95,963093,0.0-13.0-1.16,74618,List1B,black,man,,,,null,,,,
null,are dancing with each other,,html-keyboard-response,96,965093,0.0-13.0-2.16,74618,List1B,black,man,,,,null,,,,
12713,,,survey-text,97,977807,0.0-13.0-3.16,74618,List1B,black,man,,,,,"{""Q0"":""beth and mike are dancing with each other""}","<img src=""stim_listB/dance2.gif""</stim_listB>",are dancing with each other,
null,"<div style=""font-size:60px;"">+</div>",,html-keyboard-response,98,978308,0.0-13.0-0.17,74618,List1B,black,man,,,,null,,,,
null,"<img src=""stim_listB/meet5.gif""</stim_listB>",,html-keyboard-response,99,980309,0.0-13.0-1.17,74618,List1B,black,man,,,,null,,,,
null,is meeting,,html-keyboard-response,100,982310,0.0-13.0-2.17,74618,List1B,black,man,,,,null,,,,
10398,,,survey-text,101,992709,0.0-13.0-3.17,74618,List1B,black,man,,,,,"{""Q0"":""mike is meeting with dave""}","<img src=""stim_listB/meet5.gif""</stim_listB>",is meeting,
null,"<div style=""font-size:60px;"">+</div>",,html-keyboard-response,102,993209,0.0-13.0-0.18,74618,List1B,black,man,,,,null,,,,
null,"<img src=""stim_listB/kiss7.gif""</stim_listB>",,html-keyboard-response,103,995210,0.0-13.0-1.18,74618,List1B,black,man,,,,null,,,,
null,is kissing,,html-keyboard-response,104,997211,0.0-13.0-2.18,74618,List1B,black,man,,,,null,,,,
7393,,,survey-text,105,1004605,0.0-13.0-3.18,74618,List1B,black,man,,,,,"{""Q0"":""ruth is kissing beth""}","<img src=""stim_listB/kiss7.gif""</stim_listB>",is kissing,
null,"<div style=""font-size:60px;"">+</div>",,html-keyboard-response,106,1005118,0.0-13.0-0.19,74618,List1B,black,man,,,,null,,,,
null,"<img src=""stim_listB/fight5.gif""</stim_listB>",,html-keyboard-response,107,1007119,0.0-13.0-1.19,74618,List1B,black,man,,,,null,,,,
null,is fighting,,html-keyboard-response,108,1009119,0.0-13.0-2.19,74618,List1B,black,man,,,,null,,,,
8494,,,survey-text,109,1017615,0.0-13.0-3.19,74618,List1B,black,man,,,,,"{""Q0"":""dave is fighting mike""}","<img src=""stim_listB/fight5.gif""</stim_listB>",is fighting,
8774,"<img src='img/portrait_matrix_list1.JPG' style='width:900px;height:500px;''></img><p>If you have memorised all the portraits and names and are ready to start, press Continue.</p><p><strong>Please note: Your memory of these faces will be tested 4 times during this experiment.</strong></p>",0,html-button-response,110,1026390,0.0-14.0-0.0,74618,List1B,black,man,,,,,,,,
3615,"<img src=""portrait/BW2.jpg""style=""width:400px;height:400px;""></img>",2,html-button-response,111,1031007,0.0-14.0-1.0,74618,List1B,black,man,,TRUE,2,,,,,
null,CORRECT,,html-keyboard-response,112,1032507,0.0-14.0-2.0-0.0,74618,List1B,black,man,,,,null,,,,
2891,"<img src=""portrait/WM2.jpg""style=""width:400px;height:400px;""></img>",7,html-button-response,113,1035400,0.0-14.0-4.0,74618,List1B,black,man,,TRUE,7,,,,,
null,CORRECT,,html-keyboard-response,114,1036909,0.0-14.0-5.0-0.0,74618,List1B,black,man,,,,null,,,,
3413,"<img src=""portrait/WW2.jpg""style=""width:400px;height:400px;""></img>",3,html-button-response,115,1040323,0.0-14.0-7.0,74618,List1B,black,man,,TRUE,3,,,,,
null,CORRECT,,html-keyboard-response,116,1041839,0.0-14.0-8.0-0.0,74618,List1B,black,man,,,,null,,,,
4271,"<img src=""portrait/BM2.jpg""style=""width:400px;height:400px;""></img>",5,html-button-response,117,1046111,0.0-14.0-10.0,74618,List1B,black,man,,TRUE,5,,,,,
null,CORRECT,,html-keyboard-response,118,1047617,0.0-14.0-11.0-0.0,74618,List1B,black,man,,,,null,,,,
1970,"<img src=""portrait/WW1.jpg""style=""width:400px;height:400px;""></img>",1,html-button-response,119,1049588,0.0-14.0-13.0,74618,List1B,black,man,,TRUE,1,,,,,
null,CORRECT,,html-keyboard-response,120,1051089,0.0-14.0-14.0-0.0,74618,List1B,black,man,,,,null,,,,
2205,"<img src=""portrait/WM1.jpg""style=""width:400px;height:400px;""></img>",6,html-button-response,121,1053295,0.0-14.0-16.0,74618,List1B,black,man,,TRUE,6,,,,,
null,CORRECT,,html-keyboard-response,122,1054806,0.0-14.0-17.0-0.0,74618,List1B,black,man,,,,null,,,,
5591,"<img src=""portrait/BM1.jpg""style=""width:400px;height:400px;""></img>",4,html-button-response,123,1060399,0.0-14.0-19.0,74618,List1B,black,man,,TRUE,4,,,,,
null,CORRECT,,html-keyboard-response,124,1061903,0.0-14.0-20.0-0.0,74618,List1B,black,man,,,,null,,,,
2566,"<img src=""portrait/BW1.jpg""style=""width:400px;height:400px;""></img>",0,html-button-response,125,1064471,0.0-14.0-22.0,74618,List1B,black,man,,TRUE,0,,,,,
null,CORRECT,,html-keyboard-response,126,1065991,0.0-14.0-23.0-0.0,74618,List1B,black,man,,,,null,,,,
1796,<p>You got 8 out of 8 right first time. Press Continue.</p>,0,html-button-response,127,1067787,0.0-14.0-25.0,74618,List1B,black,man,,,,,,,,
null,"<div style=""font-size:60px;"">+</div>",,html-keyboard-response,128,1069287,0.0-15.0-0.0,74618,List1B,black,man,,,,null,,,,
null,"<img src=""stim_listB/hug4.gif""</stim_listB>",,html-keyboard-response,129,1071292,0.0-15.0-1.0,74618,List1B,black,man,,,,null,,,,
null,are hugging each other,,html-keyboard-response,130,1073304,0.0-15.0-2.0,74618,List1B,black,man,,,,null,,,,
18651,,,survey-text,131,1091955,0.0-15.0-3.0,74618,List1B,black,man,,,,,"{""Q0"":""jane and dave are hugging each other""}","<img src=""stim_listB/hug4.gif""</stim_listB>",are hugging each other,
null,"<div style=""font-size:60px;"">+</div>",,html-keyboard-response,132,1092455,0.0-15.0-0.1,74618,List1B,black,man,,,,null,,,,
null,"<img src=""stim_listB/fight3.gif""</stim_listB>",,html-keyboard-response,133,1094457,0.0-15.0-1.1,74618,List1B,black,man,,,,null,,,,
null,is fighting,,html-keyboard-response,134,1096457,0.0-15.0-2.1,74618,List1B,black,man,,,,null,,,,
7429,,,survey-text,135,1103886,0.0-15.0-3.1,74618,List1B,black,man,,,,,"{""Q0"":""jane is fighting dave""}","<img src=""stim_listB/fight3.gif""</stim_listB>",is fighting,
null,"<div style=""font-size:60px;"">+</div>",,html-keyboard-response,136,1104400,0.0-15.0-0.2,74618,List1B,black,man,,,,null,,,,
null,"<img src=""stim_listB/argue6.gif""</stim_listB>",,html-keyboard-response,137,1106400,0.0-15.0-1.2,74618,List1B,black,man,,,,null,,,,
null,are arguing with each other,,html-keyboard-response,138,1108400,0.0-15.0-2.2,74618,List1B,black,man,,,,null,,,,
15488,,,survey-text,139,1123888,0.0-15.0-3.2,74618,List1B,black,man,,,,,"{""Q0"":""dave and fred are arguing with each other""}","<img src=""stim_listB/argue6.gif""</stim_listB>",are arguing with each other,
null,"<div style=""font-size:60px;"">+</div>",,html-keyboard-response,140,1124404,0.0-15.0-0.3,74618,List1B,black,man,,,,null,,,,
null,"<img src=""stim_listB/meet8.gif""</stim_listB>",,html-keyboard-response,141,1126405,0.0-15.0-1.3,74618,List1B,black,man,,,,null,,,,
null,are meeting each other,,html-keyboard-response,142,1128405,0.0-15.0-2.3,74618,List1B,black,man,,,,null,,,,
18564,,,survey-text,143,1146970,0.0-15.0-3.3,74618,List1B,black,man,,,,,"{""Q0"":""ruth and beth are meeting each other""}","<img src=""stim_listB/meet8.gif""</stim_listB>",are meeting each other,
null,"<div style=""font-size:60px;"">+</div>",,html-keyboard-response,144,1147470,0.0-15.0-0.4,74618,List1B,black,man,,,,null,,,,
null,"<img src=""stim_listB/fight6.gif""</stim_listB>",,html-keyboard-response,145,1149477,0.0-15.0-1.4,74618,List1B,black,man,,,,null,,,,
null,are fighting each other,,html-keyboard-response,146,1151477,0.0-15.0-2.4,74618,List1B,black,man,,,,null,,,,
13329,,,survey-text,147,1164807,0.0-15.0-3.4,74618,List1B,black,man,,,,,"{""Q0"":""fred and luke are fighting each other""}","<img src=""stim_listB/fight6.gif""</stim_listB>",are fighting each other,
null,"<div style=""font-size:60px;"">+</div>",,html-keyboard-response,148,1165308,0.0-15.0-0.5,74618,List1B,black,man,,,,null,,,,
null,"<img src=""stim_listB/talk6.gif""</stim_listB>",,html-keyboard-response,149,1167309,0.0-15.0-1.5,74618,List1B,black,man,,,,null,,,,
null,are talking to each other,,html-keyboard-response,150,1169310,0.0-15.0-2.5,74618,List1B,black,man,,,,null,,,,
11047,,,survey-text,151,1180359,0.0-15.0-3.5,74618,List1B,black,man,,,,,"{""Q0"":""luke and mike are talking to each other""}","<img src=""stim_listB/talk6.gif""</stim_listB>",are talking to each other,
null,"<div style=""font-size:60px;"">+</div>",,html-keyboard-response,152,1180862,0.0-15.0-0.6,74618,List1B,black,man,,,,null,,,,
null,"<img src=""stim_listB/kiss3.gif""</stim_listB>",,html-keyboard-response,153,1182868,0.0-15.0-1.6,74618,List1B,black,man,,,,null,,,,
null,is kissing,,html-keyboard-response,154,1184869,0.0-15.0-2.6,74618,List1B,black,man,,,,null,,,,
5631,,,survey-text,155,1190501,0.0-15.0-3.6,74618,List1B,black,man,,,,,"{""Q0"":""ruth is kissing luke""}","<img src=""stim_listB/kiss3.gif""</stim_listB>",is kissing,
null,"<div style=""font-size:60px;"">+</div>",,html-keyboard-response,156,1191014,0.0-15.0-0.7,74618,List1B,black,man,,,,null,,,,
null,"<img src=""stim_listB/argue8.gif""</stim_listB>",,html-keyboard-response,157,1193014,0.0-15.0-1.7,74618,List1B,black,man,,,,null,,,,
null,are arguing with each other,,html-keyboard-response,158,1195024,0.0-15.0-2.7,74618,List1B,black,man,,,,null,,,,
10477,,,survey-text,159,1205501,0.0-15.0-3.7,74618,List1B,black,man,,,,,"{""Q0"":""beth and jane are facing each other""}","<img src=""stim_listB/argue8.gif""</stim_listB>",are arguing with each other,
null,"<div style=""font-size:60px;"">+</div>",,html-keyboard-response,160,1206010,0.0-15.0-0.8,74618,List1B,black,man,,,,null,,,,
null,"<img src=""stim_listB/marry8.gif""</stim_listB>",,html-keyboard-response,161,1208016,0.0-15.0-1.8,74618,List1B,black,man,,,,null,,,,
null,are marrying each other,,html-keyboard-response,162,1210016,0.0-15.0-2.8,74618,List1B,black,man,,,,null,,,,
10949,,,survey-text,163,1220966,0.0-15.0-3.8,74618,List1B,black,man,,,,,"{""Q0"":""jane and beth are marrying each other""}","<img src=""stim_listB/marry8.gif""</stim_listB>",are marrying each other,
null,"<div style=""font-size:60px;"">+</div>",,html-keyboard-response,164,1221477,0.0-15.0-0.9,74618,List1B,black,man,,,,null,,,,
null,"<img src=""stim_listB/marry3.gif""</stim_listB>",,html-keyboard-response,165,1223478,0.0-15.0-1.9,74618,List1B,black,man,,,,null,,,,
null,is marrying,,html-keyboard-response,166,1225478,0.0-15.0-2.9,74618,List1B,black,man,,,,null,,,,
9320,,,survey-text,167,1234798,0.0-15.0-3.9,74618,List1B,black,man,,,,,"{""Q0"":""dave is marrying ruth""}","<img src=""stim_listB/marry3.gif""</stim_listB>",is marrying,
null,"<div style=""font-size:60px;"">+</div>",,html-keyboard-response,168,1235298,0.0-15.0-0.10,74618,List1B,black,man,,,,null,,,,
null,"<img src=""stim_listB/fight8.gif""</stim_listB>",,html-keyboard-response,169,1237299,0.0-15.0-1.10,74618,List1B,black,man,,,,null,,,,
null,are fighting each other,,html-keyboard-response,170,1239299,0.0-15.0-2.10,74618,List1B,black,man,,,,null,,,,
14652,,,survey-text,171,1253951,0.0-15.0-3.10,74618,List1B,black,man,,,,,"{""Q0"":""ruth and beth are fighting each other""}","<img src=""stim_listB/fight8.gif""</stim_listB>",are fighting each other,
null,"<div style=""font-size:60px;"">+</div>",,html-keyboard-response,172,1254453,0.0-15.0-0.11,74618,List1B,black,man,,,,null,,,,
null,"<img src=""stim_listB/meet2.gif""</stim_listB>",,html-keyboard-response,173,1256454,0.0-15.0-1.11,74618,List1B,black,man,,,,null,,,,
null,are meeting each other,,html-keyboard-response,174,1258454,0.0-15.0-2.11,74618,List1B,black,man,,,,null,,,,
17759,,,survey-text,175,1276213,0.0-15.0-3.11,74618,List1B,black,man,,,,,"{""Q0"":""fred and beth are metting each other""}","<img src=""stim_listB/meet2.gif""</stim_listB>",are meeting each other,
null,"<div style=""font-size:60px;"">+</div>",,html-keyboard-response,176,1276713,0.0-15.0-0.12,74618,List1B,black,man,,,,null,,,,
null,"<img src=""stim_listB/dance6.gif""</stim_listB>",,html-keyboard-response,177,1278714,0.0-15.0-1.12,74618,List1B,black,man,,,,null,,,,
null,are dancing with each other,,html-keyboard-response,178,1280715,0.0-15.0-2.12,74618,List1B,black,man,,,,null,,,,
12667,,,survey-text,179,1293383,0.0-15.0-3.12,74618,List1B,black,man,,,,,"{""Q0"":""mike and luke are dancing with each other""}","<img src=""stim_listB/dance6.gif""</stim_listB>",are dancing with each other,
null,"<div style=""font-size:60px;"">+</div>",,html-keyboard-response,180,1293897,0.0-15.0-0.13,74618,List1B,black,man,,,,null,,,,
null,"<img src=""stim_listB/shout3.gif""</stim_listB>",,html-keyboard-response,181,1295897,0.0-15.0-1.13,74618,List1B,black,man,,,,null,,,,
null,is shouting at,,html-keyboard-response,182,1297897,0.0-15.0-2.13,74618,List1B,black,man,,,,null,,,,
29629,,,survey-text,183,1327527,0.0-15.0-3.13,74618,List1B,black,man,,,,,"{""Q0"":""mike is shouting at ruth""}","<img src=""stim_listB/shout3.gif""</stim_listB>",is shouting at,
null,"<div style=""font-size:60px;"">+</div>",,html-keyboard-response,184,1328028,0.0-15.0-0.14,74618,List1B,black,man,,,,null,,,,
null,"<img src=""stim_listB/hug6.gif""</stim_listB>",,html-keyboard-response,185,1330029,0.0-15.0-1.14,74618,List1B,black,man,,,,null,,,,
null,are hugging each other,,html-keyboard-response,186,1332029,0.0-15.0-2.14,74618,List1B,black,man,,,,null,,,,
33720,,,survey-text,187,1365750,0.0-15.0-3.14,74618,List1B,black,man,,,,,"{""Q0"":""dave and mike are hugging each other""}","<img src=""stim_listB/hug6.gif""</stim_listB>",are hugging each other,
null,"<div style=""font-size:60px;"">+</div>",,html-keyboard-response,188,1366251,0.0-15.0-0.15,74618,List1B,black,man,,,,null,,,,
null,"<img src=""stim_listB/hug3.gif""</stim_listB>",,html-keyboard-response,189,1368253,0.0-15.0-1.15,74618,List1B,black,man,,,,null,,,,
null,is hugging,,html-keyboard-response,190,1370253,0.0-15.0-2.15,74618,List1B,black,man,,,,null,,,,
9147,,,survey-text,191,1379400,0.0-15.0-3.15,74618,List1B,black,man,,,,,"{""Q0"":""ruth is hugging luke""}","<img src=""stim_listB/hug3.gif""</stim_listB>",is hugging,
null,"<div style=""font-size:60px;"">+</div>",,html-keyboard-response,192,1379914,0.0-15.0-0.16,74618,List1B,black,man,,,,null,,,,
null,"<img src=""stim_listB/meet4.gif""</stim_listB>",,html-keyboard-response,193,1381914,0.0-15.0-1.16,74618,List1B,black,man,,,,null,,,,
null,are meeting each other,,html-keyboard-response,194,1383915,0.0-15.0-2.16,74618,List1B,black,man,,,,null,,,,
8403,,,survey-text,195,1392319,0.0-15.0-3.16,74618,List1B,black,man,,,,,"{""Q0"":""luke and ruth are meeting each other""}","<img src=""stim_listB/meet4.gif""</stim_listB>",are meeting each other,
null,"<div style=""font-size:60px;"">+</div>",,html-keyboard-response,196,1392820,0.0-15.0-0.17,74618,List1B,black,man,,,,null,,,,
null,"<img src=""stim_listB/hug5.gif""</stim_listB>",,html-keyboard-response,197,1394828,0.0-15.0-1.17,74618,List1B,black,man,,,,null,,,,
null,is hugging,,html-keyboard-response,198,1396828,0.0-15.0-2.17,74618,List1B,black,man,,,,null,,,,
14430,,,survey-text,199,1411259,0.0-15.0-3.17,74618,List1B,black,man,,,,,"{""Q0"":""fred is hugging luke""}","<img src=""stim_listB/hug5.gif""</stim_listB>",is hugging,
null,"<div style=""font-size:60px;"">+</div>",,html-keyboard-response,200,1411759,0.0-15.0-0.18,74618,List1B,black,man,,,,null,,,,
null,"<img src=""stim_listB/touch5.gif""</stim_listB>",,html-keyboard-response,201,1413760,0.0-15.0-1.18,74618,List1B,black,man,,,,null,,,,
null,is touching,,html-keyboard-response,202,1415760,0.0-15.0-2.18,74618,List1B,black,man,,,,null,,,,
7032,,,survey-text,203,1422792,0.0-15.0-3.18,74618,List1B,black,man,,,,,"{""Q0"":""mike is touching dave""}","<img src=""stim_listB/touch5.gif""</stim_listB>",is touching,
null,"<div style=""font-size:60px;"">+</div>",,html-keyboard-response,204,1423294,0.0-15.0-0.19,74618,List1B,black,man,,,,null,,,,
null,"<img src=""stim_listB/argue2.gif""</stim_listB>",,html-keyboard-response,205,1425294,0.0-15.0-1.19,74618,List1B,black,man,,,,null,,,,
null,are arguing with each other,,html-keyboard-response,206,1427294,0.0-15.0-2.19,74618,List1B,black,man,,,,null,,,,
9295,,,survey-text,207,1436590,0.0-15.0-3.19,74618,List1B,black,man,,,,,"{""Q0"":""kate is shouting at fred""}","<img src=""stim_listB/argue2.gif""</stim_listB>",are arguing with each other,
13608,"<img src='img/portrait_matrix_list1.JPG' style='width:900px;height:500px;''></img><p>If you have memorised all the portraits and names and are ready to start, press Continue.</p><p><strong>Please note: Your memory of these faces will be tested 4 times during this experiment.</strong></p>",0,html-button-response,208,1450199,0.0-16.0-0.0,74618,List1B,black,man,,,,,,,,
1692,"<img src=""portrait/BM2.jpg""style=""width:400px;height:400px;""></img>",5,html-button-response,209,1452891,0.0-16.0-1.0,74618,List1B,black,man,,TRUE,5,,,,,
null,CORRECT,,html-keyboard-response,210,1454391,0.0-16.0-2.0-0.0,74618,List1B,black,man,,,,null,,,,
1548,"<img src=""portrait/BM1.jpg""style=""width:400px;height:400px;""></img>",4,html-button-response,211,1455940,0.0-16.0-4.0,74618,List1B,black,man,,TRUE,4,,,,,
null,CORRECT,,html-keyboard-response,212,1457446,0.0-16.0-5.0-0.0,74618,List1B,black,man,,,,null,,,,
1776,"<img src=""portrait/BW1.jpg""style=""width:400px;height:400px;""></img>",0,html-button-response,213,1459223,0.0-16.0-7.0,74618,List1B,black,man,,TRUE,0,,,,,
null,CORRECT,,html-keyboard-response,214,1460727,0.0-16.0-8.0-0.0,74618,List1B,black,man,,,,null,,,,
1559,"<img src=""portrait/WW2.jpg""style=""width:400px;height:400px;""></img>",3,html-button-response,215,1462287,0.0-16.0-10.0,74618,List1B,black,man,,TRUE,3,,,,,
null,CORRECT,,html-keyboard-response,216,1463789,0.0-16.0-11.0-0.0,74618,List1B,black,man,,,,null,,,,
1576,"<img src=""portrait/WW1.jpg""style=""width:400px;height:400px;""></img>",1,html-button-response,217,1465367,0.0-16.0-13.0,74618,List1B,black,man,,TRUE,1,,,,,
null,CORRECT,,html-keyboard-response,218,1466868,0.0-16.0-14.0-0.0,74618,List1B,black,man,,,,null,,,,
1608,"<img src=""portrait/WM2.jpg""style=""width:400px;height:400px;""></img>",7,html-button-response,219,1468476,0.0-16.0-16.0,74618,List1B,black,man,,TRUE,7,,,,,
null,CORRECT,,html-keyboard-response,220,1469977,0.0-16.0-17.0-0.0,74618,List1B,black,man,,,,null,,,,
2009,"<img src=""portrait/WM1.jpg""style=""width:400px;height:400px;""></img>",6,html-button-response,221,1471987,0.0-16.0-19.0,74618,List1B,black,man,,TRUE,6,,,,,
null,CORRECT,,html-keyboard-response,222,1473493,0.0-16.0-20.0-0.0,74618,List1B,black,man,,,,null,,,,
5513,"<img src=""portrait/BW2.jpg""style=""width:400px;height:400px;""></img>",2,html-button-response,223,1479006,0.0-16.0-22.0,74618,List1B,black,man,,TRUE,2,,,,,
null,CORRECT,,html-keyboard-response,224,1480507,0.0-16.0-23.0-0.0,74618,List1B,black,man,,,,null,,,,
1083,<p>You got 8 out of 8 right first time. Press Continue.</p>,0,html-button-response,225,1481592,0.0-16.0-25.0,74618,List1B,black,man,,,,,,,,
null,"<div style=""font-size:60px;"">+</div>",,html-keyboard-response,226,1483109,0.0-17.0-0.0,74618,List1B,black,man,,,,null,,,,
null,"<img src=""stim_listB/argue3.gif""</stim_listB>",,html-keyboard-response,227,1485119,0.0-17.0-1.0,74618,List1B,black,man,,,,null,,,,
null,is arguing with,,html-keyboard-response,228,1487119,0.0-17.0-2.0,74618,List1B,black,man,,,,null,,,,
7240,,,survey-text,229,1494359,0.0-17.0-3.0,74618,List1B,black,man,,,,,"{""Q0"":""ruth is arguing with dave""}","<img src=""stim_listB/argue3.gif""</stim_listB>",is arguing with,
null,"<div style=""font-size:60px;"">+</div>",,html-keyboard-response,230,1494866,0.0-17.0-0.1,74618,List1B,black,man,,,,null,,,,
null,"<img src=""stim_listB/argue4.gif""</stim_listB>",,html-keyboard-response,231,1496866,0.0-17.0-1.1,74618,List1B,black,man,,,,null,,,,
null,are arguing with each other,,html-keyboard-response,232,1498866,0.0-17.0-2.1,74618,List1B,black,man,,,,null,,,,
9965,,,survey-text,233,1508831,0.0-17.0-3.1,74618,List1B,black,man,,,,,"{""Q0"":""luke and jane are arguing with each other""}","<img src=""stim_listB/argue4.gif""</stim_listB>",are arguing with each other,
null,"<div style=""font-size:60px;"">+</div>",,html-keyboard-response,234,1509332,0.0-17.0-0.2,74618,List1B,black,man,,,,null,,,,
null,"<img src=""stim_listB/kiss5.gif""</stim_listB>",,html-keyboard-response,235,1511333,0.0-17.0-1.2,74618,List1B,black,man,,,,null,,,,
null,is kissing,,html-keyboard-response,236,1513334,0.0-17.0-2.2,74618,List1B,black,man,,,,null,,,,
7588,,,survey-text,237,1520922,0.0-17.0-3.2,74618,List1B,black,man,,,,,"{""Q0"":""fred is kissing luke""}","<img src=""stim_listB/kiss5.gif""</stim_listB>",is kissing,
null,"<div style=""font-size:60px;"">+</div>",,html-keyboard-response,238,1521424,0.0-17.0-0.3,74618,List1B,black,man,,,,null,,,,
null,"<img src=""stim_listB/dance7.gif""</stim_listB>",,html-keyboard-response,239,1523430,0.0-17.0-1.3,74618,List1B,black,man,,,,null,,,,
null,is dancing with,,html-keyboard-response,240,1525431,0.0-17.0-2.3,74618,List1B,black,man,,,,null,,,,
7928,,,survey-text,241,1533359,0.0-17.0-3.3,74618,List1B,black,man,,,,,"{""Q0"":""beth is dancing with jane""}","<img src=""stim_listB/dance7.gif""</stim_listB>",is dancing with,
null,"<div style=""font-size:60px;"">+</div>",,html-keyboard-response,242,1533867,0.0-17.0-0.4,74618,List1B,black,man,,,,null,,,,
null,"<img src=""stim_listB/kiss8.gif""</stim_listB>",,html-keyboard-response,243,1535867,0.0-17.0-1.4,74618,List1B,black,man,,,,null,,,,
null,are kissing each other,,html-keyboard-response,244,1537867,0.0-17.0-2.4,74618,List1B,black,man,,,,null,,,,
9652,,,survey-text,245,1547535,0.0-17.0-3.4,74618,List1B,black,man,,,,,"{""Q0"":""kate and jane are kissing each other""}","<img src=""stim_listB/kiss8.gif""</stim_listB>",are kissing each other,
null,"<div style=""font-size:60px;"">+</div>",,html-keyboard-response,246,1548043,0.0-17.0-0.5,74618,List1B,black,man,,,,null,,,,
null,"<img src=""stim_listB/meet3.gif""</stim_listB>",,html-keyboard-response,247,1550043,0.0-17.0-1.5,74618,List1B,black,man,,,,null,,,,
null,is meeting,,html-keyboard-response,248,1552058,0.0-17.0-2.5,74618,List1B,black,man,,,,null,,,,
17462,,,survey-text,249,1569520,0.0-17.0-3.5,74618,List1B,black,man,,,,,"{""Q0"":""jane is meeting dave""}","<img src=""stim_listB/meet3.gif""</stim_listB>",is meeting,
null,"<div style=""font-size:60px;"">+</div>",,html-keyboard-response,250,1570026,0.0-17.0-0.6,74618,List1B,black,man,,,,null,,,,
null,"<img src=""stim_listB/hug7.gif""</stim_listB>",,html-keyboard-response,251,1572026,0.0-17.0-1.6,74618,List1B,black,man,,,,null,,,,
null,is hugging,,html-keyboard-response,252,1574027,0.0-17.0-2.6,74618,List1B,black,man,,,,null,,,,
18259,,,survey-text,253,1592287,0.0-17.0-3.6,74618,List1B,black,man,,,,,"{""Q0"":""ruth is hugging beth""}","<img src=""stim_listB/hug7.gif""</stim_listB>",is hugging,
null,"<div style=""font-size:60px;"">+</div>",,html-keyboard-response,254,1592788,0.0-17.0-0.7,74618,List1B,black,man,,,,null,,,,
null,"<img src=""stim_listB/talk4.gif""</stim_listB>",,html-keyboard-response,255,1594802,0.0-17.0-1.7,74618,List1B,black,man,,,,null,,,,
null,are talking to each other,,html-keyboard-response,256,1596804,0.0-17.0-2.7,74618,List1B,black,man,,,,null,,,,
8050,,,survey-text,257,1604855,0.0-17.0-3.7,74618,List1B,black,man,,,,,"{""Q0"":""dave and ruth are talking to each other""}","<img src=""stim_listB/talk4.gif""</stim_listB>",are talking to each other,
null,"<div style=""font-size:60px;"">+</div>",,html-keyboard-response,258,1605355,0.0-17.0-0.8,74618,List1B,black,man,,,,null,,,,
null,"<img src=""stim_listB/shout7.gif""</stim_listB>",,html-keyboard-response,259,1607356,0.0-17.0-1.8,74618,List1B,black,man,,,,null,,,,
null,is shouting at,,html-keyboard-response,260,1609356,0.0-17.0-2.8,74618,List1B,black,man,,,,null,,,,
19559,,,survey-text,261,1628915,0.0-17.0-3.8,74618,List1B,black,man,,,,,"{""Q0"":""ruth is shouting at beth""}","<img src=""stim_listB/shout7.gif""</stim_listB>",is shouting at,
null,"<div style=""font-size:60px;"">+</div>",,html-keyboard-response,262,1629415,0.0-17.0-0.9,74618,List1B,black,man,,,,null,,,,
null,"<img src=""stim_listB/argue7.gif""</stim_listB>",,html-keyboard-response,263,1631426,0.0-17.0-1.9,74618,List1B,black,man,,,,null,,,,
null,is arguing with,,html-keyboard-response,264,1633426,0.0-17.0-2.9,74618,List1B,black,man,,,,null,,,,
12404,,,survey-text,265,1645830,0.0-17.0-3.9,74618,List1B,black,man,,,,,"{""Q0"":""kate is arguing with ruth""}","<img src=""stim_listB/argue7.gif""</stim_listB>",is arguing with,
null,"<div style=""font-size:60px;"">+</div>",,html-keyboard-response,266,1646336,0.0-17.0-0.10,74618,List1B,black,man,,,,null,,,,
null,"<img src=""stim_listB/kiss6.gif""</stim_listB>",,html-keyboard-response,267,1648342,0.0-17.0-1.10,74618,List1B,black,man,,,,null,,,,
null,are kissing each other,,html-keyboard-response,268,1650348,0.0-17.0-2.10,74618,List1B,black,man,,,,null,,,,
8491,,,survey-text,269,1658839,0.0-17.0-3.10,74618,List1B,black,man,,,,,"{""Q0"":""mike and dave are kissing each other""}","<img src=""stim_listB/kiss6.gif""</stim_listB>",are kissing each other,
null,"<div style=""font-size:60px;"">+</div>",,html-keyboard-response,270,1659351,0.0-17.0-0.11,74618,List1B,black,man,,,,null,,,,
null,"<img src=""stim_listB/touch7.gif""</stim_listB>",,html-keyboard-response,271,1661366,0.0-17.0-1.11,74618,List1B,black,man,,,,null,,,,
null,is touching,,html-keyboard-response,272,1663367,0.0-17.0-2.11,74618,List1B,black,man,,,,null,,,,
8297,,,survey-text,273,1671664,0.0-17.0-3.11,74618,List1B,black,man,,,,,"{""Q0"":""jane is touching kate""}","<img src=""stim_listB/touch7.gif""</stim_listB>",is touching,
null,"<div style=""font-size:60px;"">+</div>",,html-keyboard-response,274,1672185,0.0-17.0-0.12,74618,List1B,black,man,,,,null,,,,
null,"<img src=""stim_listB/touch3.gif""</stim_listB>",,html-keyboard-response,275,1674185,0.0-17.0-1.12,74618,List1B,black,man,,,,null,,,,
null,is touching,,html-keyboard-response,276,1676186,0.0-17.0-2.12,74618,List1B,black,man,,,,null,,,,
5329,,,survey-text,277,1681515,0.0-17.0-3.12,74618,List1B,black,man,,,,,"{""Q0"":""dave is touching jane""}","<img src=""stim_listB/touch3.gif""</stim_listB>",is touching,
null,"<div style=""font-size:60px;"">+</div>",,html-keyboard-response,278,1682017,0.0-17.0-0.13,74618,List1B,black,man,,,,null,,,,
null,"<img src=""stim_listB/meet7.gif""</stim_listB>",,html-keyboard-response,279,1684017,0.0-17.0-1.13,74618,List1B,black,man,,,,null,,,,
null,is meeting,,html-keyboard-response,280,1686018,0.0-17.0-2.13,74618,List1B,black,man,,,,null,,,,
7996,,,survey-text,281,1694015,0.0-17.0-3.13,74618,List1B,black,man,,,,,"{""Q0"":""kate is meeting jane""}","<img src=""stim_listB/meet7.gif""</stim_listB>",is meeting,
null,"<div style=""font-size:60px;"">+</div>",,html-keyboard-response,282,1694523,0.0-17.0-0.14,74618,List1B,black,man,,,,null,,,,
null,"<img src=""stim_listB/hug2.gif""</stim_listB>",,html-keyboard-response,283,1696523,0.0-17.0-1.14,74618,List1B,black,man,,,,null,,,,
null,are hugging each other,,html-keyboard-response,284,1698524,0.0-17.0-2.14,74618,List1B,black,man,,,,null,,,,
11026,,,survey-text,285,1709551,0.0-17.0-3.14,74618,List1B,black,man,,,,,"{""Q0"":""mike and kate are hugging each other""}","<img src=""stim_listB/hug2.gif""</stim_listB>",are hugging each other,
null,"<div style=""font-size:60px;"">+</div>",,html-keyboard-response,286,1710052,0.0-17.0-0.15,74618,List1B,black,man,,,,null,,,,
null,"<img src=""stim_listB/touch8.gif""</stim_listB>",,html-keyboard-response,287,1712062,0.0-17.0-1.15,74618,List1B,black,man,,,,null,,,,
null,are touching each other,,html-keyboard-response,288,1714062,0.0-17.0-2.15,74618,List1B,black,man,,,,null,,,,
12167,,,survey-text,289,1726230,0.0-17.0-3.15,74618,List1B,black,man,,,,,"{""Q0"":""beth and ruth are touching each other""}","<img src=""stim_listB/touch8.gif""</stim_listB>",are touching each other,
null,"<div style=""font-size:60px;"">+</div>",,html-keyboard-response,290,1726730,0.0-17.0-0.16,74618,List1B,black,man,,,,null,,,,
null,"<img src=""stim_listB/talk7.gif""</stim_listB>",,html-keyboard-response,291,1728732,0.0-17.0-1.16,74618,List1B,black,man,,,,null,,,,
null,is talking to,,html-keyboard-response,292,1730733,0.0-17.0-2.16,74618,List1B,black,man,,,,null,,,,
5258,,,survey-text,293,1735991,0.0-17.0-3.16,74618,List1B,black,man,,,,,"{""Q0"":""jane is talking to beth""}","<img src=""stim_listB/talk7.gif""</stim_listB>",is talking to,
null,"<div style=""font-size:60px;"">+</div>",,html-keyboard-response,294,1736493,0.0-17.0-0.17,74618,List1B,black,man,,,,null,,,,
null,"<img src=""stim_listB/touch2.gif""</stim_listB>",,html-keyboard-response,295,1738496,0.0-17.0-1.17,74618,List1B,black,man,,,,null,,,,
null,are touching each other,,html-keyboard-response,296,1740496,0.0-17.0-2.17,74618,List1B,black,man,,,,null,,,,
11164,,,survey-text,297,1751660,0.0-17.0-3.17,74618,List1B,black,man,,,,,"{""Q0"":""beth and fred are touching each other""}","<img src=""stim_listB/touch2.gif""</stim_listB>",are touching each other,
null,"<div style=""font-size:60px;"">+</div>",,html-keyboard-response,298,1752165,0.0-17.0-0.18,74618,List1B,black,man,,,,null,,,,
null,"<img src=""stim_listB/touch6.gif""</stim_listB>",,html-keyboard-response,299,1754176,0.0-17.0-1.18,74618,List1B,black,man,,,,null,,,,
null,are touching each other,,html-keyboard-response,300,1756179,0.0-17.0-2.18,74618,List1B,black,man,,,,null,,,,
9216,,,survey-text,301,1765395,0.0-17.0-3.18,74618,List1B,black,man,,,,,"{""Q0"":""fred and luke are touching each other""}","<img src=""stim_listB/touch6.gif""</stim_listB>",are touching each other,
null,"<div style=""font-size:60px;"">+</div>",,html-keyboard-response,302,1765899,0.0-17.0-0.19,74618,List1B,black,man,,,,null,,,,
null,"<img src=""stim_listB/touch1.gif""</stim_listB>",,html-keyboard-response,303,1767901,0.0-17.0-1.19,74618,List1B,black,man,,,,null,,,,
null,is touching,,html-keyboard-response,304,1769903,0.0-17.0-2.19,74618,List1B,black,man,,,,null,,,,
4906,,,survey-text,305,1774809,0.0-17.0-3.19,74618,List1B,black,man,,,,,"{""Q0"":""kate is touching mike""}","<img src=""stim_listB/touch1.gif""</stim_listB>",is touching,
7869,"<img src='img/portrait_matrix_list1.JPG' style='width:900px;height:500px;''></img><p>If you have memorised all the portraits and names and are ready to start, press Continue.</p><p><strong>Please note: Your memory of these faces will be tested 4 times during this experiment.</strong></p>",0,html-button-response,306,1782679,0.0-18.0-0.0,74618,List1B,black,man,,,,,,,,
2451,"<img src=""portrait/WM1.jpg""style=""width:400px;height:400px;""></img>",6,html-button-response,307,1786142,0.0-18.0-1.0,74618,List1B,black,man,,TRUE,6,,,,,
null,CORRECT,,html-keyboard-response,308,1787657,0.0-18.0-2.0-0.0,74618,List1B,black,man,,,,null,,,,
1552,"<img src=""portrait/WW2.jpg""style=""width:400px;height:400px;""></img>",3,html-button-response,309,1789209,0.0-18.0-4.0,74618,List1B,black,man,,TRUE,3,,,,,
null,CORRECT,,html-keyboard-response,310,1790711,0.0-18.0-5.0-0.0,74618,List1B,black,man,,,,null,,,,
2148,"<img src=""portrait/WW1.jpg""style=""width:400px;height:400px;""></img>",1,html-button-response,311,1792859,0.0-18.0-7.0,74618,List1B,black,man,,TRUE,1,,,,,
null,CORRECT,,html-keyboard-response,312,1794366,0.0-18.0-8.0-0.0,74618,List1B,black,man,,,,null,,,,
1953,"<img src=""portrait/BM2.jpg""style=""width:400px;height:400px;""></img>",5,html-button-response,313,1796320,0.0-18.0-10.0,74618,List1B,black,man,,TRUE,5,,,,,
null,CORRECT,,html-keyboard-response,314,1797835,0.0-18.0-11.0-0.0,74618,List1B,black,man,,,,null,,,,
1822,"<img src=""portrait/BW1.jpg""style=""width:400px;height:400px;""></img>",0,html-button-response,315,1799657,0.0-18.0-13.0,74618,List1B,black,man,,TRUE,0,,,,,
null,CORRECT,,html-keyboard-response,316,1801158,0.0-18.0-14.0-0.0,74618,List1B,black,man,,,,null,,,,
2015,"<img src=""portrait/BM1.jpg""style=""width:400px;height:400px;""></img>",4,html-button-response,317,1803175,0.0-18.0-16.0,74618,List1B,black,man,,TRUE,4,,,,,
null,CORRECT,,html-keyboard-response,318,1804678,0.0-18.0-17.0-0.0,74618,List1B,black,man,,,,null,,,,
1904,"<img src=""portrait/WM2.jpg""style=""width:400px;height:400px;""></img>",7,html-button-response,319,1806584,0.0-18.0-19.0,74618,List1B,black,man,,TRUE,7,,,,,
null,CORRECT,,html-keyboard-response,320,1808095,0.0-18.0-20.0-0.0,74618,List1B,black,man,,,,null,,,,
2399,"<img src=""portrait/BW2.jpg""style=""width:400px;height:400px;""></img>",2,html-button-response,321,1810495,0.0-18.0-22.0,74618,List1B,black,man,,TRUE,2,,,,,
null,CORRECT,,html-keyboard-response,322,1812012,0.0-18.0-23.0-0.0,74618,List1B,black,man,,,,null,,,,
10230,<p>You got 8 out of 8 right first time. Press Continue.</p>,0,html-button-response,323,1822242,0.0-18.0-25.0,74618,List1B,black,man,,,,,,,,
null,"<div style=""font-size:60px;"">+</div>",,html-keyboard-response,324,1823758,0.0-19.0-0.0,74618,List1B,black,man,,,,null,,,,
null,"<img src=""stim_listB/meet6.gif""</stim_listB>",,html-keyboard-response,325,1825758,0.0-19.0-1.0,74618,List1B,black,man,,,,null,,,,
null,are meeting each other,,html-keyboard-response,326,1827759,0.0-19.0-2.0,74618,List1B,black,man,,,,null,,,,
8014,,,survey-text,327,1835774,0.0-19.0-3.0,74618,List1B,black,man,,,,,"{""Q0"":""fred and luke are meeting each other""}","<img src=""stim_listB/meet6.gif""</stim_listB>",are meeting each other,
null,"<div style=""font-size:60px;"">+</div>",,html-keyboard-response,328,1836275,0.0-19.0-0.1,74618,List1B,black,man,,,,null,,,,
null,"<img src=""stim_listB/kiss1.gif""</stim_listB>",,html-keyboard-response,329,1838276,0.0-19.0-1.1,74618,List1B,black,man,,,,null,,,,
null,is kissing,,html-keyboard-response,330,1840291,0.0-19.0-2.1,74618,List1B,black,man,,,,null,,,,
5334,,,survey-text,331,1845625,0.0-19.0-3.1,74618,List1B,black,man,,,,,"{""Q0"":""fred is kissing beth""}","<img src=""stim_listB/kiss1.gif""</stim_listB>",is kissing,
null,"<div style=""font-size:60px;"">+</div>",,html-keyboard-response,332,1846128,0.0-19.0-0.2,74618,List1B,black,man,,,,null,,,,
null,"<img src=""stim_listB/shout2.gif""</stim_listB>",,html-keyboard-response,333,1848140,0.0-19.0-1.2,74618,List1B,black,man,,,,null,,,,
null,are shouting at each other,,html-keyboard-response,334,1850140,0.0-19.0-2.2,74618,List1B,black,man,,,,null,,,,
11770,,,survey-text,335,1861911,0.0-19.0-3.2,74618,List1B,black,man,,,,,"{""Q0"":""mike and Kate are shouting at each other""}","<img src=""stim_listB/shout2.gif""</stim_listB>",are shouting at each other,
null,"<div style=""font-size:60px;"">+</div>",,html-keyboard-response,336,1862411,0.0-19.0-0.3,74618,List1B,black,man,,,,null,,,,
null,"<img src=""stim_listB/kiss4.gif""</stim_listB>",,html-keyboard-response,337,1864422,0.0-19.0-1.3,74618,List1B,black,man,,,,null,,,,
null,are kissing each other,,html-keyboard-response,338,1866434,0.0-19.0-2.3,74618,List1B,black,man,,,,null,,,,
9571,,,survey-text,339,1876007,0.0-19.0-3.3,74618,List1B,black,man,,,,,"{""Q0"":""jane and dave are kissing each other""}","<img src=""stim_listB/kiss4.gif""</stim_listB>",are kissing each other,
null,"<div style=""font-size:60px;"">+</div>",,html-keyboard-response,340,1876508,0.0-19.0-0.4,74618,List1B,black,man,,,,null,,,,
null,"<img src=""stim_listB/kiss2.gif""</stim_listB>",,html-keyboard-response,341,1878509,0.0-19.0-1.4,74618,List1B,black,man,,,,null,,,,
null,are kissing each other,,html-keyboard-response,342,1880509,0.0-19.0-2.4,74618,List1B,black,man,,,,null,,,,
13129,,,survey-text,343,1893639,0.0-19.0-3.4,74618,List1B,black,man,,,,,"{""Q0"":""kate and mike are kissing each other""}","<img src=""stim_listB/kiss2.gif""</stim_listB>",are kissing each other,
null,"<div style=""font-size:60px;"">+</div>",,html-keyboard-response,344,1894144,0.0-19.0-0.5,74618,List1B,black,man,,,,null,,,,
null,"<img src=""stim_listB/talk1.gif""</stim_listB>",,html-keyboard-response,345,1896146,0.0-19.0-1.5,74618,List1B,black,man,,,,null,,,,
null,is talking to,,html-keyboard-response,346,1898148,0.0-19.0-2.5,74618,List1B,black,man,,,,null,,,,
5807,,,survey-text,347,1903955,0.0-19.0-3.5,74618,List1B,black,man,,,,,"{""Q0"":""kate is talking to fred""}","<img src=""stim_listB/talk1.gif""</stim_listB>",is talking to,
null,"<div style=""font-size:60px;"">+</div>",,html-keyboard-response,348,1904455,0.0-19.0-0.6,74618,List1B,black,man,,,,null,,,,
null,"<img src=""stim_listB/argue5.gif""</stim_listB>",,html-keyboard-response,349,1906457,0.0-19.0-1.6,74618,List1B,black,man,,,,null,,,,
null,is arguing with,,html-keyboard-response,350,1908458,0.0-19.0-2.6,74618,List1B,black,man,,,,null,,,,
74344,,,survey-text,351,1982803,0.0-19.0-3.6,74618,List1B,black,man,,,,,"{""Q0"":""luke is arguing with mike""}","<img src=""stim_listB/argue5.gif""</stim_listB>",is arguing with,
null,"<div style=""font-size:60px;"">+</div>",,html-keyboard-response,352,1983307,0.0-19.0-0.7,74618,List1B,black,man,,,,null,,,,
null,"<img src=""stim_listB/shout4.gif""</stim_listB>",,html-keyboard-response,353,1985321,0.0-19.0-1.7,74618,List1B,black,man,,,,null,,,,
null,are shouting at each other,,html-keyboard-response,354,1987334,0.0-19.0-2.7,74618,List1B,black,man,,,,null,,,,
12550,,,survey-text,355,1999885,0.0-19.0-3.7,74618,List1B,black,man,,,,,"{""Q0"":""jane and dave are shouting at each other""}","<img src=""stim_listB/shout4.gif""</stim_listB>",are shouting at each other,
null,"<div style=""font-size:60px;"">+</div>",,html-keyboard-response,356,2000388,0.0-19.0-0.8,74618,List1B,black,man,,,,null,,,,
null,"<img src=""stim_listB/dance3.gif""</stim_listB>",,html-keyboard-response,357,2002399,0.0-19.0-1.8,74618,List1B,black,man,,,,null,,,,
null,is dancing with,,html-keyboard-response,358,2004399,0.0-19.0-2.8,74618,List1B,black,man,,,,null,,,,
8150,,,survey-text,359,2012549,0.0-19.0-3.8,74618,List1B,black,man,,,,,"{""Q0"":""jane is dancing with luke""}","<img src=""stim_listB/dance3.gif""</stim_listB>",is dancing with,
null,"<div style=""font-size:60px;"">+</div>",,html-keyboard-response,360,2013059,0.0-19.0-0.9,74618,List1B,black,man,,,,null,,,,
null,"<img src=""stim_listB/talk5.gif""</stim_listB>",,html-keyboard-response,361,2015059,0.0-19.0-1.9,74618,List1B,black,man,,,,null,,,,
null,is talking to,,html-keyboard-response,362,2017060,0.0-19.0-2.9,74618,List1B,black,man,,,,null,,,,
13133,,,survey-text,363,2030194,0.0-19.0-3.9,74618,List1B,black,man,,,,,"{""Q0"":""dave is taking to fred""}","<img src=""stim_listB/talk5.gif""</stim_listB>",is talking to,
null,"<div style=""font-size:60px;"">+</div>",,html-keyboard-response,364,2030694,0.0-19.0-0.10,74618,List1B,black,man,,,,null,,,,
null,"<img src=""stim_listB/meet1.gif""</stim_listB>",,html-keyboard-response,365,2032696,0.0-19.0-1.10,74618,List1B,black,man,,,,null,,,,
null,is meeting,,html-keyboard-response,366,2034696,0.0-19.0-2.10,74618,List1B,black,man,,,,null,,,,
6136,,,survey-text,367,2040832,0.0-19.0-3.10,74618,List1B,black,man,,,,,"{""Q0"":""kate is meeting mike""}","<img src=""stim_listB/meet1.gif""</stim_listB>",is meeting,
null,"<div style=""font-size:60px;"">+</div>",,html-keyboard-response,368,2041353,0.0-19.0-0.11,74618,List1B,black,man,,,,null,,,,
null,"<img src=""stim_listB/talk2.gif""</stim_listB>",,html-keyboard-response,369,2043353,0.0-19.0-1.11,74618,List1B,black,man,,,,null,,,,
null,are talking to each other,,html-keyboard-response,370,2045366,0.0-19.0-2.11,74618,List1B,black,man,,,,null,,,,
10600,,,survey-text,371,2055967,0.0-19.0-3.11,74618,List1B,black,man,,,,,"{""Q0"":""beth and mike are talking to each other""}","<img src=""stim_listB/talk2.gif""</stim_listB>",are talking to each other,
null,"<div style=""font-size:60px;"">+</div>",,html-keyboard-response,372,2056478,0.0-19.0-0.12,74618,List1B,black,man,,,,null,,,,
null,"<img src=""stim_listB/talk8.gif""</stim_listB>",,html-keyboard-response,373,2058492,0.0-19.0-1.12,74618,List1B,black,man,,,,null,,,,
null,are talking to each other,,html-keyboard-response,374,2060492,0.0-19.0-2.12,74618,List1B,black,man,,,,null,,,,
9979,,,survey-text,375,2070471,0.0-19.0-3.12,74618,List1B,black,man,,,,,"{""Q0"":""kate and ruth are talking to each""}","<img src=""stim_listB/talk8.gif""</stim_listB>",are talking to each other,
null,"<div style=""font-size:60px;"">+</div>",,html-keyboard-response,376,2070972,0.0-19.0-0.13,74618,List1B,black,man,,,,null,,,,
null,"<img src=""stim_listB/fight7.gif""</stim_listB>",,html-keyboard-response,377,2072976,0.0-19.0-1.13,74618,List1B,black,man,,,,null,,,,
null,is fighting,,html-keyboard-response,378,2074991,0.0-19.0-2.13,74618,List1B,black,man,,,,null,,,,
12825,,,survey-text,379,2087831,0.0-19.0-3.13,74618,List1B,black,man,,,,,"{""Q0"":""jane is fighting with kate""}","<img src=""stim_listB/fight7.gif""</stim_listB>",is fighting,
null,"<div style=""font-size:60px;"">+</div>",,html-keyboard-response,380,2088335,0.0-19.0-0.14,74618,List1B,black,man,,,,null,,,,
null,"<img src=""stim_listB/marry6.gif""</stim_listB>",,html-keyboard-response,381,2090337,0.0-19.0-1.14,74618,List1B,black,man,,,,null,,,,
null,are marrying each other,,html-keyboard-response,382,2092351,0.0-19.0-2.14,74618,List1B,black,man,,,,null,,,,
14127,,,survey-text,383,2106479,0.0-19.0-3.14,74618,List1B,black,man,,,,,"{""Q0"":""fred and dave are marrying each other""}","<img src=""stim_listB/marry6.gif""</stim_listB>",are marrying each other,
null,"<div style=""font-size:60px;"">+</div>",,html-keyboard-response,384,2106979,0.0-19.0-0.15,74618,List1B,black,man,,,,null,,,,
null,"<img src=""stim_listB/touch4.gif""</stim_listB>",,html-keyboard-response,385,2108985,0.0-19.0-1.15,74618,List1B,black,man,,,,null,,,,
null,are touching each other,,html-keyboard-response,386,2110985,0.0-19.0-2.15,74618,List1B,black,man,,,,null,,,,
17394,,,survey-text,387,2128379,0.0-19.0-3.15,74618,List1B,black,man,,,,,"{""Q0"":""ruth and luke are touching each other""}","<img src=""stim_listB/touch4.gif""</stim_listB>",are touching each other,
null,"<div style=""font-size:60px;"">+</div>",,html-keyboard-response,388,2128880,0.0-19.0-0.16,74618,List1B,black,man,,,,null,,,,
null,"<img src=""stim_listB/marry5.gif""</stim_listB>",,html-keyboard-response,389,2130891,0.0-19.0-1.16,74618,List1B,black,man,,,,null,,,,
null,is marrying,,html-keyboard-response,390,2132898,0.0-19.0-2.16,74618,List1B,black,man,,,,null,,,,
60037,,,survey-text,391,2192935,0.0-19.0-3.16,74618,List1B,black,man,,,,,"{""Q0"":""luke is meeting mike""}","<img src=""stim_listB/marry5.gif""</stim_listB>",is marrying,
null,"<div style=""font-size:60px;"">+</div>",,html-keyboard-response,392,2193438,0.0-19.0-0.17,74618,List1B,black,man,,,,null,,,,
null,"<img src=""stim_listB/dance4.gif""</stim_listB>",,html-keyboard-response,393,2195439,0.0-19.0-1.17,74618,List1B,black,man,,,,null,,,,
null,are dancing with each other,,html-keyboard-response,394,2197440,0.0-19.0-2.17,74618,List1B,black,man,,,,null,,,,
10269,,,survey-text,395,2207711,0.0-19.0-3.17,74618,List1B,black,man,,,,,"{""Q0"":""dave and ruth are dancing with each other""}","<img src=""stim_listB/dance4.gif""</stim_listB>",are dancing with each other,
null,"<div style=""font-size:60px;"">+</div>",,html-keyboard-response,396,2208211,0.0-19.0-0.18,74618,List1B,black,man,,,,null,,,,
null,"<img src=""stim_listB/fight1.gif""</stim_listB>",,html-keyboard-response,397,2210212,0.0-19.0-1.18,74618,List1B,black,man,,,,null,,,,
null,is fighting,,html-keyboard-response,398,2212212,0.0-19.0-2.18,74618,List1B,black,man,,,,null,,,,
96109,,,survey-text,399,2308321,0.0-19.0-3.18,74618,List1B,black,man,,,,,"{""Q0"":""kate is fighting with mike""}","<img src=""stim_listB/fight1.gif""</stim_listB>",is fighting,
null,"<div style=""font-size:60px;"">+</div>",,html-keyboard-response,400,2308835,0.0-19.0-0.19,74618,List1B,black,man,,,,null,,,,
null,"<img src=""stim_listB/dance1.gif""</stim_listB>",,html-keyboard-response,401,2310839,0.0-19.0-1.19,74618,List1B,black,man,,,,null,,,,
null,is dancing with,,html-keyboard-response,402,2312852,0.0-19.0-2.19,74618,List1B,black,man,,,,null,,,,
21684,,,survey-text,403,2334536,0.0-19.0-3.19,74618,List1B,black,man,,,,,"{""Q0"":""fred is dancing with kate""}","<img src=""stim_listB/dance1.gif""</stim_listB>",is dancing with,
2884,<p>Thank you for completing that task.</p><p>The final part of this session is a short questionnaire.</p><p>Press Continue.</p>,0,html-button-response,404,2337420,0.0-20.0,74618,List1B,black,man,,,,,,,,
39797,,,survey-text,405,2378221,0.0-21.0,74618,List1B,black,man,,,,,"{""Q0"":""21"",""Q1"":""Twi"",""Q2"":""English"",""Q3"":""United Kingdom"",""Q4"":""African"",""Q5"":""Male""}",,,demographics
49131,,,survey-likert,406,2427383,0.0-22.0,74618,List1B,black,man,,,,,"{""Q0"":5,""Q1"":5,""Q2"":4,""Q3"":6,""Q4"":5,""Q5"":5,""Q6"":5,""Q7"":3,""Q8"":5,""Q9"":6,""Q10"":5,""Q11"":4,""Q12"":4,""Q13"":5}",,,likert_race
28199,,,survey-likert,407,2455582,0.0-23.0,74618,List1B,black,man,,,,,"{""Q0"":6,""Q1"":5,""Q2"":5,""Q3"":5,""Q4"":5,""Q5"":6,""Q6"":5,""Q7"":5,""Q8"":5,""Q9"":6,""Q10"":5,""Q11"":5,""Q12"":5,""Q13"":4}",,,likert_gender
8835,,,survey-text,408,2464417,0.0-24.0,74618,List1B,black,man,,,,,"{""Q0"":""ccc""}",,,worker_id
15118,,,external-html,409,2479647,0.0-25.0,74618,List1B,black,man,debrief.html,,,,,,,
