rt,stimulus,button_pressed,trial_type,trial_index,time_elapsed,internal_node_id,subject,list,ppt_race,ppt_gender,url,first_guess,correct,key_press,responses,image_type,phrase_type,test_part
2127,Welcome to the experiment. Press Continue to begin.,0,html-button-response,0,2129,0.0-0.0,74620,List2B,white,man,,,,,,,,
13965,,,external-html,1,17161,0.0-1.0,74620,List2B,white,man,consent.html,,,,,,,
15483,"<p>On the next page, you will see portraits of 8 people and their names.</p><p>Your first task is to take a few minutes to memorise the names of these people.</p><p>You will have to recall their names during the rest of the experiment, so it is</p><p>essential that you try to memorise these people and their names as best as you can.</p><br><p><strong>You will then be tested on your memory of these names and portraits.</strong></p><br><p>The experiment will start after you have completed this memory test.</p><br><p>Ready?</p>",0,html-button-response,2,32644,0.0-2.0,74620,List2B,white,man,,,,,,,,
40953,"<img src='img/portrait_matrix_list2.JPG' style='width:900px;height:500px;''></img><p>If you have memorised all the portraits and names and are ready to start, press Continue.</p><p><strong>Please note: Your memory of these faces will be tested 4 times during this experiment.</strong></p>",0,html-button-response,3,74600,0.0-3.0-0.0,74620,List2B,white,man,,,,,,,,
3230,"<img src=""portrait/WM1.jpg""style=""width:400px;height:400px;""></img>",6,html-button-response,4,78833,0.0-3.0-1.0,74620,List2B,white,man,,TRUE,6,,,,,
null,CORRECT,,html-keyboard-response,5,80336,0.0-3.0-2.0-0.0,74620,List2B,white,man,,,,null,,,,
2339,"<img src=""portrait/BM2.jpg""style=""width:400px;height:400px;""></img>",5,html-button-response,6,82677,0.0-3.0-4.0,74620,List2B,white,man,,TRUE,5,,,,,
null,CORRECT,,html-keyboard-response,7,84180,0.0-3.0-5.0-0.0,74620,List2B,white,man,,,,null,,,,
7298,"<img src=""portrait/BW2.jpg""style=""width:400px;height:400px;""></img>",0,html-button-response,8,91479,0.0-3.0-7.0,74620,List2B,white,man,,TRUE,2,,,,,
3998,"<img src=""portrait/BW2.jpg""style=""width:400px;height:400px;""></img>",2,html-button-response,9,96480,0.0-3.0-9.0-0.0,74620,List2B,white,man,,FALSE,2,,,,,
null,CORRECT,,html-keyboard-response,10,97984,0.0-3.0-9.0-1.0-0.0,74620,List2B,white,man,,,,null,,,,
4458,"<img src=""portrait/WW1.jpg""style=""width:400px;height:400px;""></img>",3,html-button-response,11,102444,0.0-3.0-10.0,74620,List2B,white,man,,TRUE,1,,,,,
1590,"<img src=""portrait/WW1.jpg""style=""width:400px;height:400px;""></img>",1,html-button-response,12,105036,0.0-3.0-12.0-0.0,74620,List2B,white,man,,FALSE,1,,,,,
null,CORRECT,,html-keyboard-response,13,106538,0.0-3.0-12.0-1.0-0.0,74620,List2B,white,man,,,,null,,,,
2289,"<img src=""portrait/WW2.jpg""style=""width:400px;height:400px;""></img>",0,html-button-response,14,108827,0.0-3.0-13.0,74620,List2B,white,man,,TRUE,3,,,,,
1779,"<img src=""portrait/WW2.jpg""style=""width:400px;height:400px;""></img>",3,html-button-response,15,111608,0.0-3.0-15.0-0.0,74620,List2B,white,man,,FALSE,3,,,,,
null,CORRECT,,html-keyboard-response,16,113109,0.0-3.0-15.0-1.0-0.0,74620,List2B,white,man,,,,null,,,,
1942,"<img src=""portrait/WM2.jpg""style=""width:400px;height:400px;""></img>",7,html-button-response,17,115052,0.0-3.0-16.0,74620,List2B,white,man,,TRUE,7,,,,,
null,CORRECT,,html-keyboard-response,18,116554,0.0-3.0-17.0-0.0,74620,List2B,white,man,,,,null,,,,
2430,"<img src=""portrait/BW1.jpg""style=""width:400px;height:400px;""></img>",3,html-button-response,19,118984,0.0-3.0-19.0,74620,List2B,white,man,,TRUE,0,,,,,
1614,"<img src=""portrait/BW1.jpg""style=""width:400px;height:400px;""></img>",0,html-button-response,20,121600,0.0-3.0-21.0-0.0,74620,List2B,white,man,,FALSE,0,,,,,
null,CORRECT,,html-keyboard-response,21,123103,0.0-3.0-21.0-1.0-0.0,74620,List2B,white,man,,,,null,,,,
4212,"<img src=""portrait/BM1.jpg""style=""width:400px;height:400px;""></img>",4,html-button-response,22,127316,0.0-3.0-22.0,74620,List2B,white,man,,TRUE,4,,,,,
null,CORRECT,,html-keyboard-response,23,128820,0.0-3.0-23.0-0.0,74620,List2B,white,man,,,,null,,,,
1114,<p>You got 4 out of 8 right first time. Press Continue.</p>,0,html-button-response,24,129936,0.0-3.0-25.0,74620,List2B,white,man,,,,,,,,
2639,"As you did not score 100%, the memory game will repeat. Press Continue.",0,html-button-response,25,133576,0.0-3.0-26.0-0.0,74620,List2B,white,man,,,,,,,,
28724,"<img src='img/portrait_matrix_list2.JPG' style='width:900px;height:500px;''></img><p>If you have memorised all the portraits and names and are ready to start, press Continue.</p><p><strong>Please note: Your memory of these faces will be tested 4 times during this experiment.</strong></p>",0,html-button-response,26,163304,0.0-3.1-0.1,74620,List2B,white,man,,,,,,,,
2240,"<img src=""portrait/WM1.jpg""style=""width:400px;height:400px;""></img>",6,html-button-response,27,166548,0.0-3.1-1.1,74620,List2B,white,man,,TRUE,6,,,,,
null,CORRECT,,html-keyboard-response,28,168050,0.0-3.1-2.1-0.1,74620,List2B,white,man,,,,null,,,,
1684,"<img src=""portrait/BM2.jpg""style=""width:400px;height:400px;""></img>",5,html-button-response,29,169736,0.0-3.1-4.1,74620,List2B,white,man,,TRUE,5,,,,,
null,CORRECT,,html-keyboard-response,30,171239,0.0-3.1-5.1-0.1,74620,List2B,white,man,,,,null,,,,
2904,"<img src=""portrait/BW2.jpg""style=""width:400px;height:400px;""></img>",2,html-button-response,31,174144,0.0-3.1-7.1,74620,List2B,white,man,,TRUE,2,,,,,
null,CORRECT,,html-keyboard-response,32,175646,0.0-3.1-8.1-0.1,74620,List2B,white,man,,,,null,,,,
4320,"<img src=""portrait/WW1.jpg""style=""width:400px;height:400px;""></img>",1,html-button-response,33,179968,0.0-3.1-10.1,74620,List2B,white,man,,TRUE,1,,,,,
null,CORRECT,,html-keyboard-response,34,181469,0.0-3.1-11.1-0.1,74620,List2B,white,man,,,,null,,,,
3210,"<img src=""portrait/WW2.jpg""style=""width:400px;height:400px;""></img>",3,html-button-response,35,184680,0.0-3.1-13.1,74620,List2B,white,man,,TRUE,3,,,,,
null,CORRECT,,html-keyboard-response,36,186181,0.0-3.1-14.1-0.1,74620,List2B,white,man,,,,null,,,,
5441,"<img src=""portrait/WM2.jpg""style=""width:400px;height:400px;""></img>",7,html-button-response,37,191624,0.0-3.1-16.1,74620,List2B,white,man,,TRUE,7,,,,,
null,CORRECT,,html-keyboard-response,38,193128,0.0-3.1-17.1-0.1,74620,List2B,white,man,,,,null,,,,
3727,"<img src=""portrait/BW1.jpg""style=""width:400px;height:400px;""></img>",0,html-button-response,39,196856,0.0-3.1-19.1,74620,List2B,white,man,,TRUE,0,,,,,
null,CORRECT,,html-keyboard-response,40,198358,0.0-3.1-20.1-0.1,74620,List2B,white,man,,,,null,,,,
5580,"<img src=""portrait/BM1.jpg""style=""width:400px;height:400px;""></img>",4,html-button-response,41,203939,0.0-3.1-22.1,74620,List2B,white,man,,TRUE,4,,,,,
null,CORRECT,,html-keyboard-response,42,205444,0.0-3.1-23.1-0.1,74620,List2B,white,man,,,,null,,,,
1162,<p>You got 8 out of 8 right first time. Press Continue.</p>,0,html-button-response,43,206607,0.0-3.1-25.1,74620,List2B,white,man,,,,,,,,
50372,"<p>In this experiment, you will view photographs of the people from the memory game interacting.</p><p>By using the <strong>exact</strong> phrase given <i>after</i> the photograph appears and recalling the correct names of the people in the photographs, form a sentence describing the interaction. You do not need to capitalise names.</p><p>Type your answer in the space provided. Please complete every sentence before moving onto the next trial.</p><p>You will only have a few seconds to memorise each given photograph and phrase before you can respond, so try your best to focus.</p><p>An example is given below. Press 'Continue' when you are ready.</p><img src='img/speaking_example_v2.jpg' style='width:800px;height:460px;''></img>",0,html-button-response,44,257981,0.0-4.0,74620,List2B,white,man,,,,,,,,
2051,"<p>Before the experiment starts, you will watch two example trials. Press 'Continue'.</p>",0,html-button-response,45,261033,0.0-5.0,74620,List2B,white,man,,,,,,,,
null,<img src='img/speaking_WW.gif'></img>,,html-keyboard-response,46,264035,0.0-6.0,74620,List2B,white,man,,,,null,,,,
null,<p>is speaking to</p>,,html-keyboard-response,47,266036,0.0-7.0,74620,List2B,white,man,,,,null,,,,
1992,<p><b>Answer:</b> jane is speaking to ruth</p>,0,html-button-response,48,268028,0.0-8.0,74620,List2B,white,man,,,,,,,,
null,<img src='img/pointing_BM.gif'></img>,,html-keyboard-response,49,271030,0.0-9.0,74620,List2B,white,man,,,,null,,,,
null,<p>are pointing at each other</p>,,html-keyboard-response,50,273031,0.0-10.0,74620,List2B,white,man,,,,null,,,,
1781,<p><b>Answer:</b> fred and mike are pointing at each other</p>,0,html-button-response,51,274812,0.0-11.0,74620,List2B,white,man,,,,,,,,
4742,"<p>Ready to start the experiment?</p><br><p><strong>Remember to describe the picture using a full sentence,</strong></p><p><strong> that combines the names of the people with the given phrase.</strong></p><p><strong> You do not need to capitalise names or use punctuation.</strong></p><br><p>Press 'Continue' to begin.</p>",0,html-button-response,52,280557,0.0-12.0,74620,List2B,white,man,,,,,,,,
null,"<div style=""font-size:60px;"">+</div>",,html-keyboard-response,53,282058,0.0-13.0-0.0,74620,List2B,white,man,,,,null,,,,
null,"<img src=""stim_listB/argue4.gif""</stim_listB>",,html-keyboard-response,54,284060,0.0-13.0-1.0,74620,List2B,white,man,,,,null,,,,
null,are arguing with each other,,html-keyboard-response,55,286063,0.0-13.0-2.0,74620,List2B,white,man,,,,null,,,,
16795,,,survey-text,56,302858,0.0-13.0-3.0,74620,List2B,white,man,,,,,"{""Q0"":""fred and jane are talking to each other""}","<img src=""stim_listB/argue4.gif""</stim_listB>",are arguing with each other,
null,"<div style=""font-size:60px;"">+</div>",,html-keyboard-response,57,303361,0.0-13.0-0.1,74620,List2B,white,man,,,,null,,,,
null,"<img src=""stim_listB/touch3.gif""</stim_listB>",,html-keyboard-response,58,305363,0.0-13.0-1.1,74620,List2B,white,man,,,,null,,,,
null,is touching,,html-keyboard-response,59,307365,0.0-13.0-2.1,74620,List2B,white,man,,,,null,,,,
7134,,,survey-text,60,314501,0.0-13.0-3.1,74620,List2B,white,man,,,,,"{""Q0"":""mike is touching beth""}","<img src=""stim_listB/touch3.gif""</stim_listB>",is touching,
null,"<div style=""font-size:60px;"">+</div>",,html-keyboard-response,61,315002,0.0-13.0-0.2,74620,List2B,white,man,,,,null,,,,
null,"<img src=""stim_listB/kiss2.gif""</stim_listB>",,html-keyboard-response,62,317004,0.0-13.0-1.2,74620,List2B,white,man,,,,null,,,,
null,are kissing each other,,html-keyboard-response,63,319006,0.0-13.0-2.2,74620,List2B,white,man,,,,null,,,,
8646,,,survey-text,64,327653,0.0-13.0-3.2,74620,List2B,white,man,,,,,"{""Q0"":""dave and jane are kissing each other""}","<img src=""stim_listB/kiss2.gif""</stim_listB>",are kissing each other,
null,"<div style=""font-size:60px;"">+</div>",,html-keyboard-response,65,328153,0.0-13.0-0.3,74620,List2B,white,man,,,,null,,,,
null,"<img src=""stim_listB/marry5.gif""</stim_listB>",,html-keyboard-response,66,330156,0.0-13.0-1.3,74620,List2B,white,man,,,,null,,,,
null,is marrying,,html-keyboard-response,67,332158,0.0-13.0-2.3,74620,List2B,white,man,,,,null,,,,
8429,,,survey-text,68,340589,0.0-13.0-3.3,74620,List2B,white,man,,,,,"{""Q0"":""dave is marrying fred""}","<img src=""stim_listB/marry5.gif""</stim_listB>",is marrying,
null,"<div style=""font-size:60px;"">+</div>",,html-keyboard-response,69,341090,0.0-13.0-0.4,74620,List2B,white,man,,,,null,,,,
null,"<img src=""stim_listB/dance5.gif""</stim_listB>",,html-keyboard-response,70,343091,0.0-13.0-1.4,74620,List2B,white,man,,,,null,,,,
null,is dancing with,,html-keyboard-response,71,345092,0.0-13.0-2.4,74620,List2B,white,man,,,,null,,,,
5387,,,survey-text,72,350481,0.0-13.0-3.4,74620,List2B,white,man,,,,,"{""Q0"":""luke is dancing with mike""}","<img src=""stim_listB/dance5.gif""</stim_listB>",is dancing with,
null,"<div style=""font-size:60px;"">+</div>",,html-keyboard-response,73,350982,0.0-13.0-0.5,74620,List2B,white,man,,,,null,,,,
null,"<img src=""stim_listB/dance8.gif""</stim_listB>",,html-keyboard-response,74,352983,0.0-13.0-1.5,74620,List2B,white,man,,,,null,,,,
null,are dancing with each other,,html-keyboard-response,75,354984,0.0-13.0-2.5,74620,List2B,white,man,,,,null,,,,
9356,,,survey-text,76,364341,0.0-13.0-3.5,74620,List2B,white,man,,,,,"{""Q0"":""jane and beth are dancing with each other""}","<img src=""stim_listB/dance8.gif""</stim_listB>",are dancing with each other,
null,"<div style=""font-size:60px;"">+</div>",,html-keyboard-response,77,364842,0.0-13.0-0.6,74620,List2B,white,man,,,,null,,,,
null,"<img src=""stim_listB/argue6.gif""</stim_listB>",,html-keyboard-response,78,366844,0.0-13.0-1.6,74620,List2B,white,man,,,,null,,,,
null,are arguing with each other,,html-keyboard-response,79,368846,0.0-13.0-2.6,74620,List2B,white,man,,,,null,,,,
6818,,,survey-text,80,375664,0.0-13.0-3.6,74620,List2B,white,man,,,,,"{""Q0"":""luke and mike are arguing ""}","<img src=""stim_listB/argue6.gif""</stim_listB>",are arguing with each other,
null,"<div style=""font-size:60px;"">+</div>",,html-keyboard-response,81,376166,0.0-13.0-0.7,74620,List2B,white,man,,,,null,,,,
null,"<img src=""stim_listB/argue2.gif""</stim_listB>",,html-keyboard-response,82,378169,0.0-13.0-1.7,74620,List2B,white,man,,,,null,,,,
null,are arguing with each other,,html-keyboard-response,83,380171,0.0-13.0-2.7,74620,List2B,white,man,,,,null,,,,
7076,,,survey-text,84,387248,0.0-13.0-3.7,74620,List2B,white,man,,,,,"{""Q0"":""luke and jane are arguing with each other""}","<img src=""stim_listB/argue2.gif""</stim_listB>",are arguing with each other,
null,"<div style=""font-size:60px;"">+</div>",,html-keyboard-response,85,387749,0.0-13.0-0.8,74620,List2B,white,man,,,,null,,,,
null,"<img src=""stim_listB/argue1.gif""</stim_listB>",,html-keyboard-response,86,389750,0.0-13.0-1.8,74620,List2B,white,man,,,,null,,,,
null,is arguing with,,html-keyboard-response,87,391752,0.0-13.0-2.8,74620,List2B,white,man,,,,null,,,,
4736,,,survey-text,88,396489,0.0-13.0-3.8,74620,List2B,white,man,,,,,"{""Q0"":""dave is arguing with ruth""}","<img src=""stim_listB/argue1.gif""</stim_listB>",is arguing with,
null,"<div style=""font-size:60px;"">+</div>",,html-keyboard-response,89,396992,0.0-13.0-0.9,74620,List2B,white,man,,,,null,,,,
null,"<img src=""stim_listB/argue5.gif""</stim_listB>",,html-keyboard-response,90,398993,0.0-13.0-1.9,74620,List2B,white,man,,,,null,,,,
null,is arguing with,,html-keyboard-response,91,400995,0.0-13.0-2.9,74620,List2B,white,man,,,,null,,,,
5516,,,survey-text,92,406513,0.0-13.0-3.9,74620,List2B,white,man,,,,,"{""Q0"":""fred is arguing with dave""}","<img src=""stim_listB/argue5.gif""</stim_listB>",is arguing with,
null,"<div style=""font-size:60px;"">+</div>",,html-keyboard-response,93,407014,0.0-13.0-0.10,74620,List2B,white,man,,,,null,,,,
null,"<img src=""stim_listB/fight3.gif""</stim_listB>",,html-keyboard-response,94,409017,0.0-13.0-1.10,74620,List2B,white,man,,,,null,,,,
null,is fighting,,html-keyboard-response,95,411018,0.0-13.0-2.10,74620,List2B,white,man,,,,null,,,,
8046,,,survey-text,96,419064,0.0-13.0-3.10,74620,List2B,white,man,,,,,"{""Q0"":""mike is fighting beth""}","<img src=""stim_listB/fight3.gif""</stim_listB>",is fighting,
null,"<div style=""font-size:60px;"">+</div>",,html-keyboard-response,97,419565,0.0-13.0-0.11,74620,List2B,white,man,,,,null,,,,
null,"<img src=""stim_listB/kiss4.gif""</stim_listB>",,html-keyboard-response,98,421568,0.0-13.0-1.11,74620,List2B,white,man,,,,null,,,,
null,are kissing each other,,html-keyboard-response,99,423570,0.0-13.0-2.11,74620,List2B,white,man,,,,null,,,,
5730,,,survey-text,100,429301,0.0-13.0-3.11,74620,List2B,white,man,,,,,"{""Q0"":""mike and beth are kissing each other""}","<img src=""stim_listB/kiss4.gif""</stim_listB>",are kissing each other,
null,"<div style=""font-size:60px;"">+</div>",,html-keyboard-response,101,429804,0.0-13.0-0.12,74620,List2B,white,man,,,,null,,,,
null,"<img src=""stim_listB/talk8.gif""</stim_listB>",,html-keyboard-response,102,431805,0.0-13.0-1.12,74620,List2B,white,man,,,,null,,,,
null,are talking to each other,,html-keyboard-response,103,433806,0.0-13.0-2.12,74620,List2B,white,man,,,,null,,,,
11747,,,survey-text,104,445553,0.0-13.0-3.12,74620,List2B,white,man,,,,,"{""Q0"":""beth and jane are talking to each other""}","<img src=""stim_listB/talk8.gif""</stim_listB>",are talking to each other,
null,"<div style=""font-size:60px;"">+</div>",,html-keyboard-response,105,446055,0.0-13.0-0.13,74620,List2B,white,man,,,,null,,,,
null,"<img src=""stim_listB/shout4.gif""</stim_listB>",,html-keyboard-response,106,448058,0.0-13.0-1.13,74620,List2B,white,man,,,,null,,,,
null,are shouting at each other,,html-keyboard-response,107,450059,0.0-13.0-2.13,74620,List2B,white,man,,,,null,,,,
6814,,,survey-text,108,456873,0.0-13.0-3.13,74620,List2B,white,man,,,,,"{""Q0"":""mike and kate are shouting at each other""}","<img src=""stim_listB/shout4.gif""</stim_listB>",are shouting at each other,
null,"<div style=""font-size:60px;"">+</div>",,html-keyboard-response,109,457374,0.0-13.0-0.14,74620,List2B,white,man,,,,null,,,,
null,"<img src=""stim_listB/touch8.gif""</stim_listB>",,html-keyboard-response,110,459376,0.0-13.0-1.14,74620,List2B,white,man,,,,null,,,,
null,are touching each other,,html-keyboard-response,111,461376,0.0-13.0-2.14,74620,List2B,white,man,,,,null,,,,
6604,,,survey-text,112,467981,0.0-13.0-3.14,74620,List2B,white,man,,,,,"{""Q0"":""beth and ruth are touching each other""}","<img src=""stim_listB/touch8.gif""</stim_listB>",are touching each other,
null,"<div style=""font-size:60px;"">+</div>",,html-keyboard-response,113,468483,0.0-13.0-0.15,74620,List2B,white,man,,,,null,,,,
null,"<img src=""stim_listB/shout8.gif""</stim_listB>",,html-keyboard-response,114,470485,0.0-13.0-1.15,74620,List2B,white,man,,,,null,,,,
null,are shouting at each other,,html-keyboard-response,115,472488,0.0-13.0-2.15,74620,List2B,white,man,,,,null,,,,
6225,,,survey-text,116,478713,0.0-13.0-3.15,74620,List2B,white,man,,,,,"{""Q0"":""jane and kate are shouting at each other""}","<img src=""stim_listB/shout8.gif""</stim_listB>",are shouting at each other,
null,"<div style=""font-size:60px;"">+</div>",,html-keyboard-response,117,479215,0.0-13.0-0.16,74620,List2B,white,man,,,,null,,,,
null,"<img src=""stim_listB/touch7.gif""</stim_listB>",,html-keyboard-response,118,481217,0.0-13.0-1.16,74620,List2B,white,man,,,,null,,,,
null,is touching,,html-keyboard-response,119,483218,0.0-13.0-2.16,74620,List2B,white,man,,,,null,,,,
5267,,,survey-text,120,488485,0.0-13.0-3.16,74620,List2B,white,man,,,,,"{""Q0"":""kate is touching jane""}","<img src=""stim_listB/touch7.gif""</stim_listB>",is touching,
null,"<div style=""font-size:60px;"">+</div>",,html-keyboard-response,121,488986,0.0-13.0-0.17,74620,List2B,white,man,,,,null,,,,
null,"<img src=""stim_listB/touch6.gif""</stim_listB>",,html-keyboard-response,122,490989,0.0-13.0-1.17,74620,List2B,white,man,,,,null,,,,
null,are touching each other,,html-keyboard-response,123,492990,0.0-13.0-2.17,74620,List2B,white,man,,,,null,,,,
5242,,,survey-text,124,498232,0.0-13.0-3.17,74620,List2B,white,man,,,,,"{""Q0"":""fred and luke are touching""}","<img src=""stim_listB/touch6.gif""</stim_listB>",are touching each other,
null,"<div style=""font-size:60px;"">+</div>",,html-keyboard-response,125,498733,0.0-13.0-0.18,74620,List2B,white,man,,,,null,,,,
null,"<img src=""stim_listB/hug6.gif""</stim_listB>",,html-keyboard-response,126,500736,0.0-13.0-1.18,74620,List2B,white,man,,,,null,,,,
null,are hugging each other,,html-keyboard-response,127,502737,0.0-13.0-2.18,74620,List2B,white,man,,,,null,,,,
7551,,,survey-text,128,510289,0.0-13.0-3.18,74620,List2B,white,man,,,,,"{""Q0"":""dave and mike are touching""}","<img src=""stim_listB/hug6.gif""</stim_listB>",are hugging each other,
null,"<div style=""font-size:60px;"">+</div>",,html-keyboard-response,129,510790,0.0-13.0-0.19,74620,List2B,white,man,,,,null,,,,
null,"<img src=""stim_listB/talk6.gif""</stim_listB>",,html-keyboard-response,130,512793,0.0-13.0-1.19,74620,List2B,white,man,,,,null,,,,
null,are talking to each other,,html-keyboard-response,131,514794,0.0-13.0-2.19,74620,List2B,white,man,,,,null,,,,
6178,,,survey-text,132,520973,0.0-13.0-3.19,74620,List2B,white,man,,,,,"{""Q0"":""dave and fred are talking to each other""}","<img src=""stim_listB/talk6.gif""</stim_listB>",are talking to each other,
11999,"<img src='img/portrait_matrix_list2.JPG' style='width:900px;height:500px;''></img><p>If you have memorised all the portraits and names and are ready to start, press Continue.</p><p><strong>Please note: Your memory of these faces will be tested 4 times during this experiment.</strong></p>",0,html-button-response,133,532973,0.0-14.0-0.0,74620,List2B,white,man,,,,,,,,
2839,"<img src=""portrait/WM2.jpg""style=""width:400px;height:400px;""></img>",7,html-button-response,134,536814,0.0-14.0-1.0,74620,List2B,white,man,,TRUE,7,,,,,
null,CORRECT,,html-keyboard-response,135,538317,0.0-14.0-2.0-0.0,74620,List2B,white,man,,,,null,,,,
3083,"<img src=""portrait/BW2.jpg""style=""width:400px;height:400px;""></img>",2,html-button-response,136,541401,0.0-14.0-4.0,74620,List2B,white,man,,TRUE,2,,,,,
null,CORRECT,,html-keyboard-response,137,542904,0.0-14.0-5.0-0.0,74620,List2B,white,man,,,,null,,,,
1641,"<img src=""portrait/BM1.jpg""style=""width:400px;height:400px;""></img>",4,html-button-response,138,544545,0.0-14.0-7.0,74620,List2B,white,man,,TRUE,4,,,,,
null,CORRECT,,html-keyboard-response,139,546047,0.0-14.0-8.0-0.0,74620,List2B,white,man,,,,null,,,,
1672,"<img src=""portrait/WW2.jpg""style=""width:400px;height:400px;""></img>",3,html-button-response,140,547721,0.0-14.0-10.0,74620,List2B,white,man,,TRUE,3,,,,,
null,CORRECT,,html-keyboard-response,141,549224,0.0-14.0-11.0-0.0,74620,List2B,white,man,,,,null,,,,
1963,"<img src=""portrait/BM2.jpg""style=""width:400px;height:400px;""></img>",5,html-button-response,142,551189,0.0-14.0-13.0,74620,List2B,white,man,,TRUE,5,,,,,
null,CORRECT,,html-keyboard-response,143,552690,0.0-14.0-14.0-0.0,74620,List2B,white,man,,,,null,,,,
3465,"<img src=""portrait/BW1.jpg""style=""width:400px;height:400px;""></img>",0,html-button-response,144,556157,0.0-14.0-16.0,74620,List2B,white,man,,TRUE,0,,,,,
null,CORRECT,,html-keyboard-response,145,557658,0.0-14.0-17.0-0.0,74620,List2B,white,man,,,,null,,,,
2905,"<img src=""portrait/WM1.jpg""style=""width:400px;height:400px;""></img>",6,html-button-response,146,560565,0.0-14.0-19.0,74620,List2B,white,man,,TRUE,6,,,,,
null,CORRECT,,html-keyboard-response,147,562066,0.0-14.0-20.0-0.0,74620,List2B,white,man,,,,null,,,,
2433,"<img src=""portrait/WW1.jpg""style=""width:400px;height:400px;""></img>",1,html-button-response,148,564501,0.0-14.0-22.0,74620,List2B,white,man,,TRUE,1,,,,,
null,CORRECT,,html-keyboard-response,149,566004,0.0-14.0-23.0-0.0,74620,List2B,white,man,,,,null,,,,
964,<p>You got 8 out of 8 right first time. Press Continue.</p>,0,html-button-response,150,566969,0.0-14.0-25.0,74620,List2B,white,man,,,,,,,,
null,"<div style=""font-size:60px;"">+</div>",,html-keyboard-response,151,568471,0.0-15.0-0.0,74620,List2B,white,man,,,,null,,,,
null,"<img src=""stim_listB/talk1.gif""</stim_listB>",,html-keyboard-response,152,570474,0.0-15.0-1.0,74620,List2B,white,man,,,,null,,,,
null,is talking to,,html-keyboard-response,153,572475,0.0-15.0-2.0,74620,List2B,white,man,,,,null,,,,
5644,,,survey-text,154,578121,0.0-15.0-3.0,74620,List2B,white,man,,,,,"{""Q0"":""jane is talking to luke""}","<img src=""stim_listB/talk1.gif""</stim_listB>",is talking to,
null,"<div style=""font-size:60px;"">+</div>",,html-keyboard-response,155,578622,0.0-15.0-0.1,74620,List2B,white,man,,,,null,,,,
null,"<img src=""stim_listB/meet6.gif""</stim_listB>",,html-keyboard-response,156,580625,0.0-15.0-1.1,74620,List2B,white,man,,,,null,,,,
null,are meeting each other,,html-keyboard-response,157,582627,0.0-15.0-2.1,74620,List2B,white,man,,,,null,,,,
9197,,,survey-text,158,591825,0.0-15.0-3.1,74620,List2B,white,man,,,,,"{""Q0"":""fred and luke are meeting each other""}","<img src=""stim_listB/meet6.gif""</stim_listB>",are meeting each other,
null,"<div style=""font-size:60px;"">+</div>",,html-keyboard-response,159,592326,0.0-15.0-0.2,74620,List2B,white,man,,,,null,,,,
null,"<img src=""stim_listB/talk2.gif""</stim_listB>",,html-keyboard-response,160,594328,0.0-15.0-1.2,74620,List2B,white,man,,,,null,,,,
null,are talking to each other,,html-keyboard-response,161,596330,0.0-15.0-2.2,74620,List2B,white,man,,,,null,,,,
5563,,,survey-text,162,601893,0.0-15.0-3.2,74620,List2B,white,man,,,,,"{""Q0"":""dave and ruth are talking to each other""}","<img src=""stim_listB/talk2.gif""</stim_listB>",are talking to each other,
null,"<div style=""font-size:60px;"">+</div>",,html-keyboard-response,163,602394,0.0-15.0-0.3,74620,List2B,white,man,,,,null,,,,
null,"<img src=""stim_listB/kiss5.gif""</stim_listB>",,html-keyboard-response,164,604397,0.0-15.0-1.3,74620,List2B,white,man,,,,null,,,,
null,is kissing,,html-keyboard-response,165,606399,0.0-15.0-2.3,74620,List2B,white,man,,,,null,,,,
6954,,,survey-text,166,613354,0.0-15.0-3.3,74620,List2B,white,man,,,,,"{""Q0"":""luke and fred are kissing""}","<img src=""stim_listB/kiss5.gif""</stim_listB>",is kissing,
null,"<div style=""font-size:60px;"">+</div>",,html-keyboard-response,167,613856,0.0-15.0-0.4,74620,List2B,white,man,,,,null,,,,
null,"<img src=""stim_listB/meet5.gif""</stim_listB>",,html-keyboard-response,168,615859,0.0-15.0-1.4,74620,List2B,white,man,,,,null,,,,
null,is meeting,,html-keyboard-response,169,617861,0.0-15.0-2.4,74620,List2B,white,man,,,,null,,,,
5839,,,survey-text,170,623701,0.0-15.0-3.4,74620,List2B,white,man,,,,,"{""Q0"":""dave is meeting mike""}","<img src=""stim_listB/meet5.gif""</stim_listB>",is meeting,
null,"<div style=""font-size:60px;"">+</div>",,html-keyboard-response,171,624203,0.0-15.0-0.5,74620,List2B,white,man,,,,null,,,,
null,"<img src=""stim_listB/marry6.gif""</stim_listB>",,html-keyboard-response,172,626203,0.0-15.0-1.5,74620,List2B,white,man,,,,null,,,,
null,are marrying each other,,html-keyboard-response,173,628204,0.0-15.0-2.5,74620,List2B,white,man,,,,null,,,,
7332,,,survey-text,174,635537,0.0-15.0-3.5,74620,List2B,white,man,,,,,"{""Q0"":""mike and luke are marrying each other""}","<img src=""stim_listB/marry6.gif""</stim_listB>",are marrying each other,
null,"<div style=""font-size:60px;"">+</div>",,html-keyboard-response,175,636039,0.0-15.0-0.6,74620,List2B,white,man,,,,null,,,,
null,"<img src=""stim_listB/fight5.gif""</stim_listB>",,html-keyboard-response,176,638041,0.0-15.0-1.6,74620,List2B,white,man,,,,null,,,,
null,is fighting,,html-keyboard-response,177,640043,0.0-15.0-2.6,74620,List2B,white,man,,,,null,,,,
6810,,,survey-text,178,646853,0.0-15.0-3.6,74620,List2B,white,man,,,,,"{""Q0"":""mike is fighting dave""}","<img src=""stim_listB/fight5.gif""</stim_listB>",is fighting,
null,"<div style=""font-size:60px;"">+</div>",,html-keyboard-response,179,647354,0.0-15.0-0.7,74620,List2B,white,man,,,,null,,,,
null,"<img src=""stim_listB/marry1.gif""</stim_listB>",,html-keyboard-response,180,649356,0.0-15.0-1.7,74620,List2B,white,man,,,,null,,,,
null,is marrying,,html-keyboard-response,181,651356,0.0-15.0-2.7,74620,List2B,white,man,,,,null,,,,
4096,,,survey-text,182,655454,0.0-15.0-3.7,74620,List2B,white,man,,,,,"{""Q0"":""dave is marrying ruth""}","<img src=""stim_listB/marry1.gif""</stim_listB>",is marrying,
null,"<div style=""font-size:60px;"">+</div>",,html-keyboard-response,183,655956,0.0-15.0-0.8,74620,List2B,white,man,,,,null,,,,
null,"<img src=""stim_listB/meet2.gif""</stim_listB>",,html-keyboard-response,184,657958,0.0-15.0-1.8,74620,List2B,white,man,,,,null,,,,
null,are meeting each other,,html-keyboard-response,185,659958,0.0-15.0-2.8,74620,List2B,white,man,,,,null,,,,
7030,,,survey-text,186,666989,0.0-15.0-3.8,74620,List2B,white,man,,,,,"{""Q0"":""luke and ruth are meeting each other""}","<img src=""stim_listB/meet2.gif""</stim_listB>",are meeting each other,
null,"<div style=""font-size:60px;"">+</div>",,html-keyboard-response,187,667492,0.0-15.0-0.9,74620,List2B,white,man,,,,null,,,,
null,"<img src=""stim_listB/meet4.gif""</stim_listB>",,html-keyboard-response,188,669494,0.0-15.0-1.9,74620,List2B,white,man,,,,null,,,,
null,are meeting each other,,html-keyboard-response,189,671494,0.0-15.0-2.9,74620,List2B,white,man,,,,null,,,,
7969,,,survey-text,190,679465,0.0-15.0-3.9,74620,List2B,white,man,,,,,"{""Q0"":""fred and beth are meeting each other""}","<img src=""stim_listB/meet4.gif""</stim_listB>",are meeting each other,
null,"<div style=""font-size:60px;"">+</div>",,html-keyboard-response,191,679966,0.0-15.0-0.10,74620,List2B,white,man,,,,null,,,,
null,"<img src=""stim_listB/hug7.gif""</stim_listB>",,html-keyboard-response,192,681967,0.0-15.0-1.10,74620,List2B,white,man,,,,null,,,,
null,is hugging,,html-keyboard-response,193,683969,0.0-15.0-2.10,74620,List2B,white,man,,,,null,,,,
5267,,,survey-text,194,689236,0.0-15.0-3.10,74620,List2B,white,man,,,,,"{""Q0"":""beth is hugging ruth""}","<img src=""stim_listB/hug7.gif""</stim_listB>",is hugging,
null,"<div style=""font-size:60px;"">+</div>",,html-keyboard-response,195,689738,0.0-15.0-0.11,74620,List2B,white,man,,,,null,,,,
null,"<img src=""stim_listB/talk5.gif""</stim_listB>",,html-keyboard-response,196,691739,0.0-15.0-1.11,74620,List2B,white,man,,,,null,,,,
null,is talking to,,html-keyboard-response,197,693741,0.0-15.0-2.11,74620,List2B,white,man,,,,null,,,,
4456,,,survey-text,198,698197,0.0-15.0-3.11,74620,List2B,white,man,,,,,"{""Q0"":""mike is talking to luke""}","<img src=""stim_listB/talk5.gif""</stim_listB>",is talking to,
null,"<div style=""font-size:60px;"">+</div>",,html-keyboard-response,199,698699,0.0-15.0-0.12,74620,List2B,white,man,,,,null,,,,
null,"<img src=""stim_listB/kiss1.gif""</stim_listB>",,html-keyboard-response,200,700701,0.0-15.0-1.12,74620,List2B,white,man,,,,null,,,,
null,is kissing,,html-keyboard-response,201,702703,0.0-15.0-2.12,74620,List2B,white,man,,,,null,,,,
4540,,,survey-text,202,707245,0.0-15.0-3.12,74620,List2B,white,man,,,,,"{""Q0"":""luke is kissing ruth""}","<img src=""stim_listB/kiss1.gif""</stim_listB>",is kissing,
null,"<div style=""font-size:60px;"">+</div>",,html-keyboard-response,203,707748,0.0-15.0-0.13,74620,List2B,white,man,,,,null,,,,
null,"<img src=""stim_listB/meet3.gif""</stim_listB>",,html-keyboard-response,204,709750,0.0-15.0-1.13,74620,List2B,white,man,,,,null,,,,
null,is meeting,,html-keyboard-response,205,711750,0.0-15.0-2.13,74620,List2B,white,man,,,,null,,,,
6106,,,survey-text,206,717858,0.0-15.0-3.13,74620,List2B,white,man,,,,,"{""Q0"":""kate is meeting mike""}","<img src=""stim_listB/meet3.gif""</stim_listB>",is meeting,
null,"<div style=""font-size:60px;"">+</div>",,html-keyboard-response,207,718360,0.0-15.0-0.14,74620,List2B,white,man,,,,null,,,,
null,"<img src=""stim_listB/kiss7.gif""</stim_listB>",,html-keyboard-response,208,720361,0.0-15.0-1.14,74620,List2B,white,man,,,,null,,,,
null,is kissing,,html-keyboard-response,209,722363,0.0-15.0-2.14,74620,List2B,white,man,,,,null,,,,
4451,,,survey-text,210,726815,0.0-15.0-3.14,74620,List2B,white,man,,,,,"{""Q0"":""beth is kissing ruth""}","<img src=""stim_listB/kiss7.gif""</stim_listB>",is kissing,
null,"<div style=""font-size:60px;"">+</div>",,html-keyboard-response,211,727318,0.0-15.0-0.15,74620,List2B,white,man,,,,null,,,,
null,"<img src=""stim_listB/marry4.gif""</stim_listB>",,html-keyboard-response,212,729320,0.0-15.0-1.15,74620,List2B,white,man,,,,null,,,,
null,are marrying each other,,html-keyboard-response,213,731322,0.0-15.0-2.15,74620,List2B,white,man,,,,null,,,,
8519,,,survey-text,214,739842,0.0-15.0-3.15,74620,List2B,white,man,,,,,"{""Q0"":""fred and kate are marrying each other""}","<img src=""stim_listB/marry4.gif""</stim_listB>",are marrying each other,
null,"<div style=""font-size:60px;"">+</div>",,html-keyboard-response,215,740342,0.0-15.0-0.16,74620,List2B,white,man,,,,null,,,,
null,"<img src=""stim_listB/argue7.gif""</stim_listB>",,html-keyboard-response,216,742345,0.0-15.0-1.16,74620,List2B,white,man,,,,null,,,,
null,is arguing with,,html-keyboard-response,217,744348,0.0-15.0-2.16,74620,List2B,white,man,,,,null,,,,
7189,,,survey-text,218,751537,0.0-15.0-3.16,74620,List2B,white,man,,,,,"{""Q0"":""beth and jane are arguing""}","<img src=""stim_listB/argue7.gif""</stim_listB>",is arguing with,
null,"<div style=""font-size:60px;"">+</div>",,html-keyboard-response,219,752038,0.0-15.0-0.17,74620,List2B,white,man,,,,null,,,,
null,"<img src=""stim_listB/talk7.gif""</stim_listB>",,html-keyboard-response,220,754040,0.0-15.0-1.17,74620,List2B,white,man,,,,null,,,,
null,is talking to,,html-keyboard-response,221,756042,0.0-15.0-2.17,74620,List2B,white,man,,,,null,,,,
4663,,,survey-text,222,760705,0.0-15.0-3.17,74620,List2B,white,man,,,,,"{""Q0"":""kate is talking to ruth""}","<img src=""stim_listB/talk7.gif""</stim_listB>",is talking to,
null,"<div style=""font-size:60px;"">+</div>",,html-keyboard-response,223,761207,0.0-15.0-0.18,74620,List2B,white,man,,,,null,,,,
null,"<img src=""stim_listB/fight1.gif""</stim_listB>",,html-keyboard-response,224,763209,0.0-15.0-1.18,74620,List2B,white,man,,,,null,,,,
null,is fighting,,html-keyboard-response,225,765209,0.0-15.0-2.18,74620,List2B,white,man,,,,null,,,,
3775,,,survey-text,226,768985,0.0-15.0-3.18,74620,List2B,white,man,,,,,"{""Q0"":""jane is fighting dave""}","<img src=""stim_listB/fight1.gif""</stim_listB>",is fighting,
null,"<div style=""font-size:60px;"">+</div>",,html-keyboard-response,227,769488,0.0-15.0-0.19,74620,List2B,white,man,,,,null,,,,
null,"<img src=""stim_listB/marry8.gif""</stim_listB>",,html-keyboard-response,228,771491,0.0-15.0-1.19,74620,List2B,white,man,,,,null,,,,
null,are marrying each other,,html-keyboard-response,229,773491,0.0-15.0-2.19,74620,List2B,white,man,,,,null,,,,
6981,,,survey-text,230,780474,0.0-15.0-3.19,74620,List2B,white,man,,,,,"{""Q0"":""ruth and kate are marrying each other""}","<img src=""stim_listB/marry8.gif""</stim_listB>",are marrying each other,
5071,"<img src='img/portrait_matrix_list2.JPG' style='width:900px;height:500px;''></img><p>If you have memorised all the portraits and names and are ready to start, press Continue.</p><p><strong>Please note: Your memory of these faces will be tested 4 times during this experiment.</strong></p>",0,html-button-response,231,785545,0.0-16.0-0.0,74620,List2B,white,man,,,,,,,,
2003,"<img src=""portrait/WM1.jpg""style=""width:400px;height:400px;""></img>",6,html-button-response,232,788549,0.0-16.0-1.0,74620,List2B,white,man,,TRUE,6,,,,,
null,CORRECT,,html-keyboard-response,233,790052,0.0-16.0-2.0-0.0,74620,List2B,white,man,,,,null,,,,
1860,"<img src=""portrait/BW2.jpg""style=""width:400px;height:400px;""></img>",2,html-button-response,234,791914,0.0-16.0-4.0,74620,List2B,white,man,,TRUE,2,,,,,
null,CORRECT,,html-keyboard-response,235,793416,0.0-16.0-5.0-0.0,74620,List2B,white,man,,,,null,,,,
1335,"<img src=""portrait/BW1.jpg""style=""width:400px;height:400px;""></img>",0,html-button-response,236,794753,0.0-16.0-7.0,74620,List2B,white,man,,TRUE,0,,,,,
null,CORRECT,,html-keyboard-response,237,796254,0.0-16.0-8.0-0.0,74620,List2B,white,man,,,,null,,,,
1414,"<img src=""portrait/WM2.jpg""style=""width:400px;height:400px;""></img>",7,html-button-response,238,797669,0.0-16.0-10.0,74620,List2B,white,man,,TRUE,7,,,,,
null,CORRECT,,html-keyboard-response,239,799171,0.0-16.0-11.0-0.0,74620,List2B,white,man,,,,null,,,,
1109,"<img src=""portrait/WW2.jpg""style=""width:400px;height:400px;""></img>",3,html-button-response,240,800281,0.0-16.0-13.0,74620,List2B,white,man,,TRUE,3,,,,,
null,CORRECT,,html-keyboard-response,241,801783,0.0-16.0-14.0-0.0,74620,List2B,white,man,,,,null,,,,
1413,"<img src=""portrait/WW1.jpg""style=""width:400px;height:400px;""></img>",1,html-button-response,242,803197,0.0-16.0-16.0,74620,List2B,white,man,,TRUE,1,,,,,
null,CORRECT,,html-keyboard-response,243,804699,0.0-16.0-17.0-0.0,74620,List2B,white,man,,,,null,,,,
3130,"<img src=""portrait/BM2.jpg""style=""width:400px;height:400px;""></img>",5,html-button-response,244,807829,0.0-16.0-19.0,74620,List2B,white,man,,TRUE,5,,,,,
null,CORRECT,,html-keyboard-response,245,809332,0.0-16.0-20.0-0.0,74620,List2B,white,man,,,,null,,,,
1011,"<img src=""portrait/BM1.jpg""style=""width:400px;height:400px;""></img>",4,html-button-response,246,810345,0.0-16.0-22.0,74620,List2B,white,man,,TRUE,4,,,,,
null,CORRECT,,html-keyboard-response,247,811847,0.0-16.0-23.0-0.0,74620,List2B,white,man,,,,null,,,,
782,<p>You got 8 out of 8 right first time. Press Continue.</p>,0,html-button-response,248,812629,0.0-16.0-25.0,74620,List2B,white,man,,,,,,,,
null,"<div style=""font-size:60px;"">+</div>",,html-keyboard-response,249,814133,0.0-17.0-0.0,74620,List2B,white,man,,,,null,,,,
null,"<img src=""stim_listB/fight7.gif""</stim_listB>",,html-keyboard-response,250,816135,0.0-17.0-1.0,74620,List2B,white,man,,,,null,,,,
null,is fighting,,html-keyboard-response,251,818137,0.0-17.0-2.0,74620,List2B,white,man,,,,null,,,,
4519,,,survey-text,252,822657,0.0-17.0-3.0,74620,List2B,white,man,,,,,"{""Q0"":""jane is fighting kate""}","<img src=""stim_listB/fight7.gif""</stim_listB>",is fighting,
null,"<div style=""font-size:60px;"">+</div>",,html-keyboard-response,253,823160,0.0-17.0-0.1,74620,List2B,white,man,,,,null,,,,
null,"<img src=""stim_listB/argue8.gif""</stim_listB>",,html-keyboard-response,254,825163,0.0-17.0-1.1,74620,List2B,white,man,,,,null,,,,
null,are arguing with each other,,html-keyboard-response,255,827164,0.0-17.0-2.1,74620,List2B,white,man,,,,null,,,,
9572,,,survey-text,256,836737,0.0-17.0-3.1,74620,List2B,white,man,,,,,"{""Q0"":""kate and ruth are arguing with each other""}","<img src=""stim_listB/argue8.gif""</stim_listB>",are arguing with each other,
null,"<div style=""font-size:60px;"">+</div>",,html-keyboard-response,257,837238,0.0-17.0-0.2,74620,List2B,white,man,,,,null,,,,
null,"<img src=""stim_listB/dance1.gif""</stim_listB>",,html-keyboard-response,258,839241,0.0-17.0-1.2,74620,List2B,white,man,,,,null,,,,
null,is dancing with,,html-keyboard-response,259,841242,0.0-17.0-2.2,74620,List2B,white,man,,,,null,,,,
5210,,,survey-text,260,846453,0.0-17.0-3.2,74620,List2B,white,man,,,,,"{""Q0"":""luke is dancing with jane""}","<img src=""stim_listB/dance1.gif""</stim_listB>",is dancing with,
null,"<div style=""font-size:60px;"">+</div>",,html-keyboard-response,261,846956,0.0-17.0-0.3,74620,List2B,white,man,,,,null,,,,
null,"<img src=""stim_listB/fight4.gif""</stim_listB>",,html-keyboard-response,262,848958,0.0-17.0-1.3,74620,List2B,white,man,,,,null,,,,
null,are fighting each other,,html-keyboard-response,263,850960,0.0-17.0-2.3,74620,List2B,white,man,,,,null,,,,
5817,,,survey-text,264,856777,0.0-17.0-3.3,74620,List2B,white,man,,,,,"{""Q0"":""fred and beth are fighting each other""}","<img src=""stim_listB/fight4.gif""</stim_listB>",are fighting each other,
null,"<div style=""font-size:60px;"">+</div>",,html-keyboard-response,265,857279,0.0-17.0-0.4,74620,List2B,white,man,,,,null,,,,
null,"<img src=""stim_listB/hug3.gif""</stim_listB>",,html-keyboard-response,266,859281,0.0-17.0-1.4,74620,List2B,white,man,,,,null,,,,
null,is hugging,,html-keyboard-response,267,861282,0.0-17.0-2.4,74620,List2B,white,man,,,,null,,,,
5171,,,survey-text,268,866454,0.0-17.0-3.4,74620,List2B,white,man,,,,,"{""Q0"":""fred is hugging beth""}","<img src=""stim_listB/hug3.gif""</stim_listB>",is hugging,
null,"<div style=""font-size:60px;"">+</div>",,html-keyboard-response,269,866957,0.0-17.0-0.5,74620,List2B,white,man,,,,null,,,,
null,"<img src=""stim_listB/marry3.gif""</stim_listB>",,html-keyboard-response,270,868959,0.0-17.0-1.5,74620,List2B,white,man,,,,null,,,,
null,is marrying,,html-keyboard-response,271,870961,0.0-17.0-2.5,74620,List2B,white,man,,,,null,,,,
5120,,,survey-text,272,876081,0.0-17.0-3.5,74620,List2B,white,man,,,,,"{""Q0"":""beth is marrying mike""}","<img src=""stim_listB/marry3.gif""</stim_listB>",is marrying,
null,"<div style=""font-size:60px;"">+</div>",,html-keyboard-response,273,876583,0.0-17.0-0.6,74620,List2B,white,man,,,,null,,,,
null,"<img src=""stim_listB/talk4.gif""</stim_listB>",,html-keyboard-response,274,878585,0.0-17.0-1.6,74620,List2B,white,man,,,,null,,,,
null,are talking to each other,,html-keyboard-response,275,880587,0.0-17.0-2.6,74620,List2B,white,man,,,,null,,,,
6393,,,survey-text,276,886981,0.0-17.0-3.6,74620,List2B,white,man,,,,,"{""Q0"":""beth and mike are talking to each other""}","<img src=""stim_listB/talk4.gif""</stim_listB>",are talking to each other,
null,"<div style=""font-size:60px;"">+</div>",,html-keyboard-response,277,887483,0.0-17.0-0.7,74620,List2B,white,man,,,,null,,,,
null,"<img src=""stim_listB/dance7.gif""</stim_listB>",,html-keyboard-response,278,889486,0.0-17.0-1.7,74620,List2B,white,man,,,,null,,,,
null,is dancing with,,html-keyboard-response,279,891487,0.0-17.0-2.7,74620,List2B,white,man,,,,null,,,,
4326,,,survey-text,280,895814,0.0-17.0-3.7,74620,List2B,white,man,,,,,"{""Q0"":""kate is dancing with ruth""}","<img src=""stim_listB/dance7.gif""</stim_listB>",is dancing with,
null,"<div style=""font-size:60px;"">+</div>",,html-keyboard-response,281,896316,0.0-17.0-0.8,74620,List2B,white,man,,,,null,,,,
null,"<img src=""stim_listB/touch4.gif""</stim_listB>",,html-keyboard-response,282,898319,0.0-17.0-1.8,74620,List2B,white,man,,,,null,,,,
null,are touching each other,,html-keyboard-response,283,900319,0.0-17.0-2.8,74620,List2B,white,man,,,,null,,,,
6280,,,survey-text,284,906601,0.0-17.0-3.8,74620,List2B,white,man,,,,,"{""Q0"":""fred and beth are touching each other""}","<img src=""stim_listB/touch4.gif""</stim_listB>",are touching each other,
null,"<div style=""font-size:60px;"">+</div>",,html-keyboard-response,285,907103,0.0-17.0-0.9,74620,List2B,white,man,,,,null,,,,
null,"<img src=""stim_listB/hug4.gif""</stim_listB>",,html-keyboard-response,286,909104,0.0-17.0-1.9,74620,List2B,white,man,,,,null,,,,
null,are hugging each other,,html-keyboard-response,287,911104,0.0-17.0-2.9,74620,List2B,white,man,,,,null,,,,
6500,,,survey-text,288,917605,0.0-17.0-3.9,74620,List2B,white,man,,,,,"{""Q0"":""kate and mike are hugging each other""}","<img src=""stim_listB/hug4.gif""</stim_listB>",are hugging each other,
null,"<div style=""font-size:60px;"">+</div>",,html-keyboard-response,289,918106,0.0-17.0-0.10,74620,List2B,white,man,,,,null,,,,
null,"<img src=""stim_listB/marry2.gif""</stim_listB>",,html-keyboard-response,290,920108,0.0-17.0-1.10,74620,List2B,white,man,,,,null,,,,
null,are marrying each other,,html-keyboard-response,291,922111,0.0-17.0-2.10,74620,List2B,white,man,,,,null,,,,
6046,,,survey-text,292,928157,0.0-17.0-3.10,74620,List2B,white,man,,,,,"{""Q0"":""luke and jane are marrying each other""}","<img src=""stim_listB/marry2.gif""</stim_listB>",are marrying each other,
null,"<div style=""font-size:60px;"">+</div>",,html-keyboard-response,293,928658,0.0-17.0-0.11,74620,List2B,white,man,,,,null,,,,
null,"<img src=""stim_listB/fight8.gif""</stim_listB>",,html-keyboard-response,294,930661,0.0-17.0-1.11,74620,List2B,white,man,,,,null,,,,
null,are fighting each other,,html-keyboard-response,295,932664,0.0-17.0-2.11,74620,List2B,white,man,,,,null,,,,
5865,,,survey-text,296,938529,0.0-17.0-3.11,74620,List2B,white,man,,,,,"{""Q0"":""ruth and beth are fighting each other""}","<img src=""stim_listB/fight8.gif""</stim_listB>",are fighting each other,
null,"<div style=""font-size:60px;"">+</div>",,html-keyboard-response,297,939031,0.0-17.0-0.12,74620,List2B,white,man,,,,null,,,,
null,"<img src=""stim_listB/argue3.gif""</stim_listB>",,html-keyboard-response,298,941032,0.0-17.0-1.12,74620,List2B,white,man,,,,null,,,,
null,is arguing with,,html-keyboard-response,299,943035,0.0-17.0-2.12,74620,List2B,white,man,,,,null,,,,
5642,,,survey-text,300,948678,0.0-17.0-3.12,74620,List2B,white,man,,,,,"{""Q0"":""beth is arguing with mike""}","<img src=""stim_listB/argue3.gif""</stim_listB>",is arguing with,
null,"<div style=""font-size:60px;"">+</div>",,html-keyboard-response,301,949181,0.0-17.0-0.13,74620,List2B,white,man,,,,null,,,,
null,"<img src=""stim_listB/kiss8.gif""</stim_listB>",,html-keyboard-response,302,951183,0.0-17.0-1.13,74620,List2B,white,man,,,,null,,,,
null,are kissing each other,,html-keyboard-response,303,953186,0.0-17.0-2.13,74620,List2B,white,man,,,,null,,,,
8102,,,survey-text,304,961289,0.0-17.0-3.13,74620,List2B,white,man,,,,,"{""Q0"":""jane and kate are kissing each other""}","<img src=""stim_listB/kiss8.gif""</stim_listB>",are kissing each other,
null,"<div style=""font-size:60px;"">+</div>",,html-keyboard-response,305,961790,0.0-17.0-0.14,74620,List2B,white,man,,,,null,,,,
null,"<img src=""stim_listB/touch5.gif""</stim_listB>",,html-keyboard-response,306,963793,0.0-17.0-1.14,74620,List2B,white,man,,,,null,,,,
null,is touching,,html-keyboard-response,307,965796,0.0-17.0-2.14,74620,List2B,white,man,,,,null,,,,
4337,,,survey-text,308,970133,0.0-17.0-3.14,74620,List2B,white,man,,,,,"{""Q0"":""dave is touching mike""}","<img src=""stim_listB/touch5.gif""</stim_listB>",is touching,
null,"<div style=""font-size:60px;"">+</div>",,html-keyboard-response,309,970637,0.0-17.0-0.15,74620,List2B,white,man,,,,null,,,,
null,"<img src=""stim_listB/dance4.gif""</stim_listB>",,html-keyboard-response,310,972638,0.0-17.0-1.15,74620,List2B,white,man,,,,null,,,,
null,are dancing with each other,,html-keyboard-response,311,974641,0.0-17.0-2.15,74620,List2B,white,man,,,,null,,,,
5296,,,survey-text,312,979937,0.0-17.0-3.15,74620,List2B,white,man,,,,,"{""Q0"":""mike and beth are dancing""}","<img src=""stim_listB/dance4.gif""</stim_listB>",are dancing with each other,
null,"<div style=""font-size:60px;"">+</div>",,html-keyboard-response,313,980439,0.0-17.0-0.16,74620,List2B,white,man,,,,null,,,,
null,"<img src=""stim_listB/shout7.gif""</stim_listB>",,html-keyboard-response,314,982441,0.0-17.0-1.16,74620,List2B,white,man,,,,null,,,,
null,is shouting at,,html-keyboard-response,315,984443,0.0-17.0-2.16,74620,List2B,white,man,,,,null,,,,
7134,,,survey-text,316,991578,0.0-17.0-3.16,74620,List2B,white,man,,,,,"{""Q0"":""ruth is shouting at beth""}","<img src=""stim_listB/shout7.gif""</stim_listB>",is shouting at,
null,"<div style=""font-size:60px;"">+</div>",,html-keyboard-response,317,992080,0.0-17.0-0.17,74620,List2B,white,man,,,,null,,,,
null,"<img src=""stim_listB/hug1.gif""</stim_listB>",,html-keyboard-response,318,994082,0.0-17.0-1.17,74620,List2B,white,man,,,,null,,,,
null,is hugging,,html-keyboard-response,319,996084,0.0-17.0-2.17,74620,List2B,white,man,,,,null,,,,
4897,,,survey-text,320,1000982,0.0-17.0-3.17,74620,List2B,white,man,,,,,"{""Q0"":""luke is hugging ruth""}","<img src=""stim_listB/hug1.gif""</stim_listB>",is hugging,
null,"<div style=""font-size:60px;"">+</div>",,html-keyboard-response,321,1001484,0.0-17.0-0.18,74620,List2B,white,man,,,,null,,,,
null,"<img src=""stim_listB/fight6.gif""</stim_listB>",,html-keyboard-response,322,1003486,0.0-17.0-1.18,74620,List2B,white,man,,,,null,,,,
null,are fighting each other,,html-keyboard-response,323,1005487,0.0-17.0-2.18,74620,List2B,white,man,,,,null,,,,
9630,,,survey-text,324,1015118,0.0-17.0-3.18,74620,List2B,white,man,,,,,"{""Q0"":""luke and fred are fighting each other""}","<img src=""stim_listB/fight6.gif""</stim_listB>",are fighting each other,
null,"<div style=""font-size:60px;"">+</div>",,html-keyboard-response,325,1015619,0.0-17.0-0.19,74620,List2B,white,man,,,,null,,,,
null,"<img src=""stim_listB/hug2.gif""</stim_listB>",,html-keyboard-response,326,1017621,0.0-17.0-1.19,74620,List2B,white,man,,,,null,,,,
null,are hugging each other,,html-keyboard-response,327,1019623,0.0-17.0-2.19,74620,List2B,white,man,,,,null,,,,
5427,,,survey-text,328,1025050,0.0-17.0-3.19,74620,List2B,white,man,,,,,"{""Q0"":""dave and jane are hugging each other""}","<img src=""stim_listB/hug2.gif""</stim_listB>",are hugging each other,
1287,"<img src='img/portrait_matrix_list2.JPG' style='width:900px;height:500px;''></img><p>If you have memorised all the portraits and names and are ready to start, press Continue.</p><p><strong>Please note: Your memory of these faces will be tested 4 times during this experiment.</strong></p>",0,html-button-response,329,1026338,0.0-18.0-0.0,74620,List2B,white,man,,,,,,,,
2129,"<img src=""portrait/BM2.jpg""style=""width:400px;height:400px;""></img>",5,html-button-response,330,1029471,0.0-18.0-1.0,74620,List2B,white,man,,TRUE,5,,,,,
null,CORRECT,,html-keyboard-response,331,1030975,0.0-18.0-2.0-0.0,74620,List2B,white,man,,,,null,,,,
2182,"<img src=""portrait/BW1.jpg""style=""width:400px;height:400px;""></img>",0,html-button-response,332,1033158,0.0-18.0-4.0,74620,List2B,white,man,,TRUE,0,,,,,
null,CORRECT,,html-keyboard-response,333,1034661,0.0-18.0-5.0-0.0,74620,List2B,white,man,,,,null,,,,
1560,"<img src=""portrait/WM1.jpg""style=""width:400px;height:400px;""></img>",6,html-button-response,334,1036222,0.0-18.0-7.0,74620,List2B,white,man,,TRUE,6,,,,,
null,CORRECT,,html-keyboard-response,335,1037724,0.0-18.0-8.0-0.0,74620,List2B,white,man,,,,null,,,,
1294,"<img src=""portrait/BW2.jpg""style=""width:400px;height:400px;""></img>",2,html-button-response,336,1039018,0.0-18.0-10.0,74620,List2B,white,man,,TRUE,2,,,,,
null,CORRECT,,html-keyboard-response,337,1040520,0.0-18.0-11.0-0.0,74620,List2B,white,man,,,,null,,,,
2114,"<img src=""portrait/WW2.jpg""style=""width:400px;height:400px;""></img>",3,html-button-response,338,1042634,0.0-18.0-13.0,74620,List2B,white,man,,TRUE,3,,,,,
null,CORRECT,,html-keyboard-response,339,1044136,0.0-18.0-14.0-0.0,74620,List2B,white,man,,,,null,,,,
1861,"<img src=""portrait/WW1.jpg""style=""width:400px;height:400px;""></img>",1,html-button-response,340,1045998,0.0-18.0-16.0,74620,List2B,white,man,,TRUE,1,,,,,
null,CORRECT,,html-keyboard-response,341,1047500,0.0-18.0-17.0-0.0,74620,List2B,white,man,,,,null,,,,
1642,"<img src=""portrait/BM1.jpg""style=""width:400px;height:400px;""></img>",4,html-button-response,342,1049142,0.0-18.0-19.0,74620,List2B,white,man,,TRUE,4,,,,,
null,CORRECT,,html-keyboard-response,343,1050644,0.0-18.0-20.0-0.0,74620,List2B,white,man,,,,null,,,,
1285,"<img src=""portrait/WM2.jpg""style=""width:400px;height:400px;""></img>",7,html-button-response,344,1051931,0.0-18.0-22.0,74620,List2B,white,man,,TRUE,7,,,,,
null,CORRECT,,html-keyboard-response,345,1053432,0.0-18.0-23.0-0.0,74620,List2B,white,man,,,,null,,,,
934,<p>You got 8 out of 8 right first time. Press Continue.</p>,0,html-button-response,346,1054366,0.0-18.0-25.0,74620,List2B,white,man,,,,,,,,
null,"<div style=""font-size:60px;"">+</div>",,html-keyboard-response,347,1055869,0.0-19.0-0.0,74620,List2B,white,man,,,,null,,,,
null,"<img src=""stim_listB/meet1.gif""</stim_listB>",,html-keyboard-response,348,1057871,0.0-19.0-1.0,74620,List2B,white,man,,,,null,,,,
null,is meeting,,html-keyboard-response,349,1059872,0.0-19.0-2.0,74620,List2B,white,man,,,,null,,,,
4262,,,survey-text,350,1064134,0.0-19.0-3.0,74620,List2B,white,man,,,,,"{""Q0"":""dave is meeting jane""}","<img src=""stim_listB/meet1.gif""</stim_listB>",is meeting,
null,"<div style=""font-size:60px;"">+</div>",,html-keyboard-response,351,1064637,0.0-19.0-0.1,74620,List2B,white,man,,,,null,,,,
null,"<img src=""stim_listB/touch1.gif""</stim_listB>",,html-keyboard-response,352,1066640,0.0-19.0-1.1,74620,List2B,white,man,,,,null,,,,
null,is touching,,html-keyboard-response,353,1068641,0.0-19.0-2.1,74620,List2B,white,man,,,,null,,,,
4300,,,survey-text,354,1072942,0.0-19.0-3.1,74620,List2B,white,man,,,,,"{""Q0"":""dave is touching jane""}","<img src=""stim_listB/touch1.gif""</stim_listB>",is touching,
null,"<div style=""font-size:60px;"">+</div>",,html-keyboard-response,355,1073443,0.0-19.0-0.2,74620,List2B,white,man,,,,null,,,,
null,"<img src=""stim_listB/shout1.gif""</stim_listB>",,html-keyboard-response,356,1075445,0.0-19.0-1.2,74620,List2B,white,man,,,,null,,,,
null,is shouting at,,html-keyboard-response,357,1077448,0.0-19.0-2.2,74620,List2B,white,man,,,,null,,,,
6566,,,survey-text,358,1084014,0.0-19.0-3.2,74620,List2B,white,man,,,,,"{""Q0"":""luke is shouting at ruth""}","<img src=""stim_listB/shout1.gif""</stim_listB>",is shouting at,
null,"<div style=""font-size:60px;"">+</div>",,html-keyboard-response,359,1084516,0.0-19.0-0.3,74620,List2B,white,man,,,,null,,,,
null,"<img src=""stim_listB/kiss3.gif""</stim_listB>",,html-keyboard-response,360,1086518,0.0-19.0-1.3,74620,List2B,white,man,,,,null,,,,
null,is kissing,,html-keyboard-response,361,1088520,0.0-19.0-2.3,74620,List2B,white,man,,,,null,,,,
5109,,,survey-text,362,1093630,0.0-19.0-3.3,74620,List2B,white,man,,,,,"{""Q0"":""fred is kissing beth""}","<img src=""stim_listB/kiss3.gif""</stim_listB>",is kissing,
null,"<div style=""font-size:60px;"">+</div>",,html-keyboard-response,363,1094132,0.0-19.0-0.4,74620,List2B,white,man,,,,null,,,,
null,"<img src=""stim_listB/touch2.gif""</stim_listB>",,html-keyboard-response,364,1096133,0.0-19.0-1.4,74620,List2B,white,man,,,,null,,,,
null,are touching each other,,html-keyboard-response,365,1098135,0.0-19.0-2.4,74620,List2B,white,man,,,,null,,,,
5954,,,survey-text,366,1104090,0.0-19.0-3.4,74620,List2B,white,man,,,,,"{""Q0"":""luke and ruth are touching each other""}","<img src=""stim_listB/touch2.gif""</stim_listB>",are touching each other,
null,"<div style=""font-size:60px;"">+</div>",,html-keyboard-response,367,1104591,0.0-19.0-0.5,74620,List2B,white,man,,,,null,,,,
null,"<img src=""stim_listB/marry7.gif""</stim_listB>",,html-keyboard-response,368,1106593,0.0-19.0-1.5,74620,List2B,white,man,,,,null,,,,
null,is marrying,,html-keyboard-response,369,1108594,0.0-19.0-2.5,74620,List2B,white,man,,,,null,,,,
4600,,,survey-text,370,1113194,0.0-19.0-3.5,74620,List2B,white,man,,,,,"{""Q0"":""beth is marrying jane""}","<img src=""stim_listB/marry7.gif""</stim_listB>",is marrying,
null,"<div style=""font-size:60px;"">+</div>",,html-keyboard-response,371,1113696,0.0-19.0-0.6,74620,List2B,white,man,,,,null,,,,
null,"<img src=""stim_listB/shout3.gif""</stim_listB>",,html-keyboard-response,372,1115697,0.0-19.0-1.6,74620,List2B,white,man,,,,null,,,,
null,is shouting at,,html-keyboard-response,373,1117700,0.0-19.0-2.6,74620,List2B,white,man,,,,null,,,,
5661,,,survey-text,374,1123362,0.0-19.0-3.6,74620,List2B,white,man,,,,,"{""Q0"":""fred is shouting at beth""}","<img src=""stim_listB/shout3.gif""</stim_listB>",is shouting at,
null,"<div style=""font-size:60px;"">+</div>",,html-keyboard-response,375,1123864,0.0-19.0-0.7,74620,List2B,white,man,,,,null,,,,
null,"<img src=""stim_listB/dance2.gif""</stim_listB>",,html-keyboard-response,376,1125867,0.0-19.0-1.7,74620,List2B,white,man,,,,null,,,,
null,are dancing with each other,,html-keyboard-response,377,1127869,0.0-19.0-2.7,74620,List2B,white,man,,,,null,,,,
9736,,,survey-text,378,1137606,0.0-19.0-3.7,74620,List2B,white,man,,,,,"{""Q0"":""dave and ruth are dancing with each other""}","<img src=""stim_listB/dance2.gif""</stim_listB>",are dancing with each other,
null,"<div style=""font-size:60px;"">+</div>",,html-keyboard-response,379,1138107,0.0-19.0-0.8,74620,List2B,white,man,,,,null,,,,
null,"<img src=""stim_listB/shout6.gif""</stim_listB>",,html-keyboard-response,380,1140109,0.0-19.0-1.8,74620,List2B,white,man,,,,null,,,,
null,are shouting at each other,,html-keyboard-response,381,1142111,0.0-19.0-2.8,74620,List2B,white,man,,,,null,,,,
6510,,,survey-text,382,1148622,0.0-19.0-3.8,74620,List2B,white,man,,,,,"{""Q0"":""dave and mike are shouting at each other""}","<img src=""stim_listB/shout6.gif""</stim_listB>",are shouting at each other,
null,"<div style=""font-size:60px;"">+</div>",,html-keyboard-response,383,1149123,0.0-19.0-0.9,74620,List2B,white,man,,,,null,,,,
null,"<img src=""stim_listB/shout2.gif""</stim_listB>",,html-keyboard-response,384,1151126,0.0-19.0-1.9,74620,List2B,white,man,,,,null,,,,
null,are shouting at each other,,html-keyboard-response,385,1153128,0.0-19.0-2.9,74620,List2B,white,man,,,,null,,,,
6397,,,survey-text,386,1159526,0.0-19.0-3.9,74620,List2B,white,man,,,,,"{""Q0"":""dave and jane are shouting at each other""}","<img src=""stim_listB/shout2.gif""</stim_listB>",are shouting at each other,
null,"<div style=""font-size:60px;"">+</div>",,html-keyboard-response,387,1160027,0.0-19.0-0.10,74620,List2B,white,man,,,,null,,,,
null,"<img src=""stim_listB/shout5.gif""</stim_listB>",,html-keyboard-response,388,1162029,0.0-19.0-1.10,74620,List2B,white,man,,,,null,,,,
null,is shouting at,,html-keyboard-response,389,1164030,0.0-19.0-2.10,74620,List2B,white,man,,,,null,,,,
4278,,,survey-text,390,1168310,0.0-19.0-3.10,74620,List2B,white,man,,,,,"{""Q0"":""fred is shouting at luke""}","<img src=""stim_listB/shout5.gif""</stim_listB>",is shouting at,
null,"<div style=""font-size:60px;"">+</div>",,html-keyboard-response,391,1168810,0.0-19.0-0.11,74620,List2B,white,man,,,,null,,,,
null,"<img src=""stim_listB/hug8.gif""</stim_listB>",,html-keyboard-response,392,1170812,0.0-19.0-1.11,74620,List2B,white,man,,,,null,,,,
null,are hugging each other,,html-keyboard-response,393,1172813,0.0-19.0-2.11,74620,List2B,white,man,,,,null,,,,
8019,,,survey-text,394,1180834,0.0-19.0-3.11,74620,List2B,white,man,,,,,"{""Q0"":""kate and jane are hugging each other""}","<img src=""stim_listB/hug8.gif""</stim_listB>",are hugging each other,
null,"<div style=""font-size:60px;"">+</div>",,html-keyboard-response,395,1181335,0.0-19.0-0.12,74620,List2B,white,man,,,,null,,,,
null,"<img src=""stim_listB/meet7.gif""</stim_listB>",,html-keyboard-response,396,1183338,0.0-19.0-1.12,74620,List2B,white,man,,,,null,,,,
null,is meeting,,html-keyboard-response,397,1185339,0.0-19.0-2.12,74620,List2B,white,man,,,,null,,,,
4533,,,survey-text,398,1189874,0.0-19.0-3.12,74620,List2B,white,man,,,,,"{""Q0"":""kate is meeting jane""}","<img src=""stim_listB/meet7.gif""</stim_listB>",is meeting,
null,"<div style=""font-size:60px;"">+</div>",,html-keyboard-response,399,1190375,0.0-19.0-0.13,74620,List2B,white,man,,,,null,,,,
null,"<img src=""stim_listB/talk3.gif""</stim_listB>",,html-keyboard-response,400,1192377,0.0-19.0-1.13,74620,List2B,white,man,,,,null,,,,
null,is talking to,,html-keyboard-response,401,1194379,0.0-19.0-2.13,74620,List2B,white,man,,,,null,,,,
6190,,,survey-text,402,1200570,0.0-19.0-3.13,74620,List2B,white,man,,,,,"{""Q0"":""fred is talking to kate""}","<img src=""stim_listB/talk3.gif""</stim_listB>",is talking to,
null,"<div style=""font-size:60px;"">+</div>",,html-keyboard-response,403,1201072,0.0-19.0-0.14,74620,List2B,white,man,,,,null,,,,
null,"<img src=""stim_listB/hug5.gif""</stim_listB>",,html-keyboard-response,404,1203074,0.0-19.0-1.14,74620,List2B,white,man,,,,null,,,,
null,is hugging,,html-keyboard-response,405,1205075,0.0-19.0-2.14,74620,List2B,white,man,,,,null,,,,
3925,,,survey-text,406,1209002,0.0-19.0-3.14,74620,List2B,white,man,,,,,"{""Q0"":""luke is hugging fred""}","<img src=""stim_listB/hug5.gif""</stim_listB>",is hugging,
null,"<div style=""font-size:60px;"">+</div>",,html-keyboard-response,407,1209504,0.0-19.0-0.15,74620,List2B,white,man,,,,null,,,,
null,"<img src=""stim_listB/fight2.gif""</stim_listB>",,html-keyboard-response,408,1211505,0.0-19.0-1.15,74620,List2B,white,man,,,,null,,,,
null,are fighting each other,,html-keyboard-response,409,1213507,0.0-19.0-2.15,74620,List2B,white,man,,,,null,,,,
5538,,,survey-text,410,1219046,0.0-19.0-3.15,74620,List2B,white,man,,,,,"{""Q0"":""luke and ruth are fighting each other""}","<img src=""stim_listB/fight2.gif""</stim_listB>",are fighting each other,
null,"<div style=""font-size:60px;"">+</div>",,html-keyboard-response,411,1219547,0.0-19.0-0.16,74620,List2B,white,man,,,,null,,,,
null,"<img src=""stim_listB/meet8.gif""</stim_listB>",,html-keyboard-response,412,1221549,0.0-19.0-1.16,74620,List2B,white,man,,,,null,,,,
null,are meeting each other,,html-keyboard-response,413,1223551,0.0-19.0-2.16,74620,List2B,white,man,,,,null,,,,
5922,,,survey-text,414,1229474,0.0-19.0-3.16,74620,List2B,white,man,,,,,"{""Q0"":""ruth and beth are meeting each other""}","<img src=""stim_listB/meet8.gif""</stim_listB>",are meeting each other,
null,"<div style=""font-size:60px;"">+</div>",,html-keyboard-response,415,1229975,0.0-19.0-0.17,74620,List2B,white,man,,,,null,,,,
null,"<img src=""stim_listB/kiss6.gif""</stim_listB>",,html-keyboard-response,416,1231977,0.0-19.0-1.17,74620,List2B,white,man,,,,null,,,,
null,are kissing each other,,html-keyboard-response,417,1233978,0.0-19.0-2.17,74620,List2B,white,man,,,,null,,,,
5643,,,survey-text,418,1239622,0.0-19.0-3.17,74620,List2B,white,man,,,,,"{""Q0"":""dave and mike are kissing each other""}","<img src=""stim_listB/kiss6.gif""</stim_listB>",are kissing each other,
null,"<div style=""font-size:60px;"">+</div>",,html-keyboard-response,419,1240125,0.0-19.0-0.18,74620,List2B,white,man,,,,null,,,,
null,"<img src=""stim_listB/dance3.gif""</stim_listB>",,html-keyboard-response,420,1242127,0.0-19.0-1.18,74620,List2B,white,man,,,,null,,,,
null,is dancing with,,html-keyboard-response,421,1244129,0.0-19.0-2.18,74620,List2B,white,man,,,,null,,,,
4584,,,survey-text,422,1248714,0.0-19.0-3.18,74620,List2B,white,man,,,,,"{""Q0"":""fred is dancing with kate""}","<img src=""stim_listB/dance3.gif""</stim_listB>",is dancing with,
null,"<div style=""font-size:60px;"">+</div>",,html-keyboard-response,423,1249215,0.0-19.0-0.19,74620,List2B,white,man,,,,null,,,,
null,"<img src=""stim_listB/dance6.gif""</stim_listB>",,html-keyboard-response,424,1251217,0.0-19.0-1.19,74620,List2B,white,man,,,,null,,,,
null,are dancing with each other,,html-keyboard-response,425,1253218,0.0-19.0-2.19,74620,List2B,white,man,,,,null,,,,
6436,,,survey-text,426,1259654,0.0-19.0-3.19,74620,List2B,white,man,,,,,"{""Q0"":""dave and fred are dancing with each other""}","<img src=""stim_listB/dance6.gif""</stim_listB>",are dancing with each other,
2650,<p>Thank you for completing that task.</p><p>The final part of this session is a short questionnaire.</p><p>Press Continue.</p>,0,html-button-response,427,1262306,0.0-20.0,74620,List2B,white,man,,,,,,,,
12162,,,survey-text,428,1275471,0.0-21.0,74620,List2B,white,man,,,,,"{""Q0"":""23"",""Q1"":""English"",""Q2"":""English"",""Q3"":""UK"",""Q4"":""White"",""Q5"":""Male""}",,,demographics
56561,,,survey-likert,429,1332038,0.0-22.0,74620,List2B,white,man,,,,,"{""Q0"":2,""Q1"":1,""Q2"":0,""Q3"":2,""Q4"":3,""Q5"":4,""Q6"":2,""Q7"":1,""Q8"":1,""Q9"":2,""Q10"":4,""Q11"":4,""Q12"":4,""Q13"":4}",,,likert_race
44803,,,survey-likert,430,1376845,0.0-23.0,74620,List2B,white,man,,,,,"{""Q0"":2,""Q1"":2,""Q2"":3,""Q3"":5,""Q4"":4,""Q5"":4,""Q6"":4,""Q7"":5,""Q8"":5,""Q9"":5,""Q10"":4,""Q11"":4,""Q12"":1,""Q13"":1}",,,likert_gender
8864,,,survey-text,431,1385711,0.0-24.0,74620,List2B,white,man,,,,,"{""Q0"":""ccc""}",,,worker_id
28689,,,external-html,432,1414531,0.0-25.0,74620,List2B,white,man,debrief.html,,,,,,,
