rt,stimulus,button_pressed,trial_type,trial_index,time_elapsed,internal_node_id,subject,list,ppt_race,ppt_gender,url,first_guess,correct,key_press,responses,image_type,phrase_type,test_part
3883,Welcome to the experiment. Press Continue to begin.,0,html-button-response,0,3896,0.0-0.0,7484,List2B,black,woman,,,,,,,,
33681,,,external-html,1,38768,0.0-1.0,7484,List2B,black,woman,consent.html,,,,,,,
73058,"<p>On the next page, you will see portraits of 8 people and their names.</p><p>Your first task is to take a few minutes to memorise the names of these people.</p><p>You will have to recall their names during the rest of the experiment, so it is</p><p>essential that you try to memorise these people and their names as best as you can.</p><br><p><strong>You will then be tested on your memory of these names and portraits.</strong></p><br><p>The experiment will start after you have completed this memory test.</p><br><p>Ready?</p>",0,html-button-response,2,111832,0.0-2.0,7484,List2B,black,woman,,,,,,,,
132728,"<img src='img/portrait_matrix_list2.JPG' style='width:900px;height:500px;''></img><p>If you have memorised all the portraits and names and are ready to start, press Continue.</p><p><strong>Please note: Your memory of these faces will be tested 4 times during this experiment.</strong></p>",0,html-button-response,3,245581,0.0-3.0-0.0,7484,List2B,black,woman,,,,,,,,
7055,"<img src=""portrait/WM1.jpg""style=""width:400px;height:400px;""></img>",6,html-button-response,4,253661,0.0-3.0-1.0,7484,List2B,black,woman,,TRUE,6,,,,,
null,CORRECT,,html-keyboard-response,5,255202,0.0-3.0-2.0-0.0,7484,List2B,black,woman,,,,null,,,,
9002,"<img src=""portrait/BM2.jpg""style=""width:400px;height:400px;""></img>",5,html-button-response,6,264213,0.0-3.0-4.0,7484,List2B,black,woman,,TRUE,5,,,,,
null,CORRECT,,html-keyboard-response,7,265748,0.0-3.0-5.0-0.0,7484,List2B,black,woman,,,,null,,,,
4847,"<img src=""portrait/WW2.jpg""style=""width:400px;height:400px;""></img>",3,html-button-response,8,270603,0.0-3.0-7.0,7484,List2B,black,woman,,TRUE,3,,,,,
null,CORRECT,,html-keyboard-response,9,272126,0.0-3.0-8.0-0.0,7484,List2B,black,woman,,,,null,,,,
13825,"<img src=""portrait/BW1.jpg""style=""width:400px;height:400px;""></img>",0,html-button-response,10,285958,0.0-3.0-10.0,7484,List2B,black,woman,,TRUE,0,,,,,
null,CORRECT,,html-keyboard-response,11,287471,0.0-3.0-11.0-0.0,7484,List2B,black,woman,,,,null,,,,
6121,"<img src=""portrait/WM2.jpg""style=""width:400px;height:400px;""></img>",7,html-button-response,12,293599,0.0-3.0-13.0,7484,List2B,black,woman,,TRUE,7,,,,,
null,CORRECT,,html-keyboard-response,13,295128,0.0-3.0-14.0-0.0,7484,List2B,black,woman,,,,null,,,,
5697,"<img src=""portrait/BM1.jpg""style=""width:400px;height:400px;""></img>",4,html-button-response,14,300832,0.0-3.0-16.0,7484,List2B,black,woman,,TRUE,4,,,,,
null,CORRECT,,html-keyboard-response,15,302358,0.0-3.0-17.0-0.0,7484,List2B,black,woman,,,,null,,,,
8845,"<img src=""portrait/WW1.jpg""style=""width:400px;height:400px;""></img>",1,html-button-response,16,311210,0.0-3.0-19.0,7484,List2B,black,woman,,TRUE,1,,,,,
null,CORRECT,,html-keyboard-response,17,312731,0.0-3.0-20.0-0.0,7484,List2B,black,woman,,,,null,,,,
5603,"<img src=""portrait/BW2.jpg""style=""width:400px;height:400px;""></img>",2,html-button-response,18,318341,0.0-3.0-22.0,7484,List2B,black,woman,,TRUE,2,,,,,
null,CORRECT,,html-keyboard-response,19,319863,0.0-3.0-23.0-0.0,7484,List2B,black,woman,,,,null,,,,
2499,<p>You got 8 out of 8 right first time. Press Continue.</p>,0,html-button-response,20,322371,0.0-3.0-25.0,7484,List2B,black,woman,,,,,,,,
56136,"<p>In this experiment, you will view photographs of the people from the memory game interacting.</p><p>By using the <strong>exact</strong> phrase given <i>after</i> the photograph appears and recalling the correct names of the people in the photographs, form a sentence describing the interaction. You do not need to capitalise names.</p><p>Type your answer in the space provided. Please complete every sentence before moving onto the next trial.</p><p>You will only have a few seconds to memorise each given photograph and phrase before you can respond, so try your best to focus.</p><p>An example is given below. Press 'Continue' when you are ready.</p><img src='img/speaking_example_v2.jpg' style='width:800px;height:460px;''></img>",0,html-button-response,21,379573,0.0-4.0,7484,List2B,black,woman,,,,,,,,
4549,"<p>Before the experiment starts, you will watch two example trials. Press 'Continue'.</p>",0,html-button-response,22,385136,0.0-5.0,7484,List2B,black,woman,,,,,,,,
null,<img src='img/speaking_WW.gif'></img>,,html-keyboard-response,23,388147,0.0-6.0,7484,List2B,black,woman,,,,null,,,,
null,<p>is speaking to</p>,,html-keyboard-response,24,390152,0.0-7.0,7484,List2B,black,woman,,,,null,,,,
5928,<p><b>Answer:</b> jane is speaking to ruth</p>,0,html-button-response,25,396084,0.0-8.0,7484,List2B,black,woman,,,,,,,,
null,<img src='img/pointing_BM.gif'></img>,,html-keyboard-response,26,399099,0.0-9.0,7484,List2B,black,woman,,,,null,,,,
null,<p>are pointing at each other</p>,,html-keyboard-response,27,401115,0.0-10.0,7484,List2B,black,woman,,,,null,,,,
4965,<p><b>Answer:</b> fred and mike are pointing at each other</p>,0,html-button-response,28,406084,0.0-11.0,7484,List2B,black,woman,,,,,,,,
15379,"<p>Ready to start the experiment?</p><br><p><strong>Remember to describe the picture using a full sentence,</strong></p><p><strong>that combines the names of the people with the given phrase.</strong></p><p><strong>If you do not do this correctly you will not be paid.</strong></p><p><strong> You do not need to capitalise names or use punctuation.</strong></p><br><p>Press 'Continue' to begin.</p>",0,html-button-response,29,422471,0.0-12.0,7484,List2B,black,woman,,,,,,,,
null,"<div style=""font-size:60px;"">+</div>",,html-keyboard-response,30,423996,0.0-13.0-0.0,7484,List2B,black,woman,,,,null,,,,
null,"<img src=""stim_listB/shout7.gif""</stim_listB>",,html-keyboard-response,31,426013,0.0-13.0-1.0,7484,List2B,black,woman,,,,null,,,,
null,is shouting at,,html-keyboard-response,32,428018,0.0-13.0-2.0,7484,List2B,black,woman,,,,null,,,,
24894,,,survey-text,33,452920,0.0-13.0-3.0,7484,List2B,black,woman,,,,,"{""Q0"":""beth and ruth is shouting at eachother""}","<img src=""stim_listB/shout7.gif""</stim_listB>",is shouting at,
null,"<div style=""font-size:60px;"">+</div>",,html-keyboard-response,34,453426,0.0-13.0-0.1,7484,List2B,black,woman,,,,null,,,,
null,"<img src=""stim_listB/shout2.gif""</stim_listB>",,html-keyboard-response,35,455430,0.0-13.0-1.1,7484,List2B,black,woman,,,,null,,,,
null,are shouting at each other,,html-keyboard-response,36,457435,0.0-13.0-2.1,7484,List2B,black,woman,,,,null,,,,
24885,,,survey-text,37,482326,0.0-13.0-3.1,7484,List2B,black,woman,,,,,"{""Q0"":""dave and jane are shouting at each other""}","<img src=""stim_listB/shout2.gif""</stim_listB>",are shouting at each other,
null,"<div style=""font-size:60px;"">+</div>",,html-keyboard-response,38,482843,0.0-13.0-0.2,7484,List2B,black,woman,,,,null,,,,
null,"<img src=""stim_listB/touch4.gif""</stim_listB>",,html-keyboard-response,39,484861,0.0-13.0-1.2,7484,List2B,black,woman,,,,null,,,,
null,are touching each other,,html-keyboard-response,40,486876,0.0-13.0-2.2,7484,List2B,black,woman,,,,null,,,,
25173,,,survey-text,41,512052,0.0-13.0-3.2,7484,List2B,black,woman,,,,,"{""Q0"":""fred and beth are touching each other""}","<img src=""stim_listB/touch4.gif""</stim_listB>",are touching each other,
null,"<div style=""font-size:60px;"">+</div>",,html-keyboard-response,42,512570,0.0-13.0-0.3,7484,List2B,black,woman,,,,null,,,,
null,"<img src=""stim_listB/marry8.gif""</stim_listB>",,html-keyboard-response,43,514588,0.0-13.0-1.3,7484,List2B,black,woman,,,,null,,,,
null,are marrying each other,,html-keyboard-response,44,516595,0.0-13.0-2.3,7484,List2B,black,woman,,,,null,,,,
27644,,,survey-text,45,544243,0.0-13.0-3.3,7484,List2B,black,woman,,,,,"{""Q0"":""kate and ruth are marrying each other""}","<img src=""stim_listB/marry8.gif""</stim_listB>",are marrying each other,
null,"<div style=""font-size:60px;"">+</div>",,html-keyboard-response,46,544750,0.0-13.0-0.4,7484,List2B,black,woman,,,,null,,,,
null,"<img src=""stim_listB/hug4.gif""</stim_listB>",,html-keyboard-response,47,546762,0.0-13.0-1.4,7484,List2B,black,woman,,,,null,,,,
null,are hugging each other,,html-keyboard-response,48,548780,0.0-13.0-2.4,7484,List2B,black,woman,,,,null,,,,
27164,,,survey-text,49,575946,0.0-13.0-3.4,7484,List2B,black,woman,,,,,"{""Q0"":""mike and kate are hugging each other""}","<img src=""stim_listB/hug4.gif""</stim_listB>",are hugging each other,
null,"<div style=""font-size:60px;"">+</div>",,html-keyboard-response,50,576465,0.0-13.0-0.5,7484,List2B,black,woman,,,,null,,,,
null,"<img src=""stim_listB/meet4.gif""</stim_listB>",,html-keyboard-response,51,578485,0.0-13.0-1.5,7484,List2B,black,woman,,,,null,,,,
null,are meeting each other,,html-keyboard-response,52,580495,0.0-13.0-2.5,7484,List2B,black,woman,,,,null,,,,
16830,,,survey-text,53,597330,0.0-13.0-3.5,7484,List2B,black,woman,,,,,"{""Q0"":""fred and beth are shaking hands""}","<img src=""stim_listB/meet4.gif""</stim_listB>",are meeting each other,
null,"<div style=""font-size:60px;"">+</div>",,html-keyboard-response,54,597850,0.0-13.0-0.6,7484,List2B,black,woman,,,,null,,,,
null,"<img src=""stim_listB/talk6.gif""</stim_listB>",,html-keyboard-response,55,599864,0.0-13.0-1.6,7484,List2B,black,woman,,,,null,,,,
null,are talking to each other,,html-keyboard-response,56,601873,0.0-13.0-2.6,7484,List2B,black,woman,,,,null,,,,
19266,,,survey-text,57,621144,0.0-13.0-3.6,7484,List2B,black,woman,,,,,"{""Q0"":""dave and fred are talking to each other""}","<img src=""stim_listB/talk6.gif""</stim_listB>",are talking to each other,
null,"<div style=""font-size:60px;"">+</div>",,html-keyboard-response,58,621663,0.0-13.0-0.7,7484,List2B,black,woman,,,,null,,,,
null,"<img src=""stim_listB/touch2.gif""</stim_listB>",,html-keyboard-response,59,623684,0.0-13.0-1.7,7484,List2B,black,woman,,,,null,,,,
null,are touching each other,,html-keyboard-response,60,625705,0.0-13.0-2.7,7484,List2B,black,woman,,,,null,,,,
27798,,,survey-text,61,653508,0.0-13.0-3.7,7484,List2B,black,woman,,,,,"{""Q0"":""ruth and dave are touching each other""}","<img src=""stim_listB/touch2.gif""</stim_listB>",are touching each other,
null,"<div style=""font-size:60px;"">+</div>",,html-keyboard-response,62,654019,0.0-13.0-0.8,7484,List2B,black,woman,,,,null,,,,
null,"<img src=""stim_listB/fight2.gif""</stim_listB>",,html-keyboard-response,63,656055,0.0-13.0-1.8,7484,List2B,black,woman,,,,null,,,,
null,are fighting each other,,html-keyboard-response,64,658067,0.0-13.0-2.8,7484,List2B,black,woman,,,,null,,,,
16000,,,survey-text,65,674073,0.0-13.0-3.8,7484,List2B,black,woman,,,,,"{""Q0"":""luke and ruth are fighting each other""}","<img src=""stim_listB/fight2.gif""</stim_listB>",are fighting each other,
null,"<div style=""font-size:60px;"">+</div>",,html-keyboard-response,66,674595,0.0-13.0-0.9,7484,List2B,black,woman,,,,null,,,,
null,"<img src=""stim_listB/meet8.gif""</stim_listB>",,html-keyboard-response,67,676605,0.0-13.0-1.9,7484,List2B,black,woman,,,,null,,,,
null,are meeting each other,,html-keyboard-response,68,678611,0.0-13.0-2.9,7484,List2B,black,woman,,,,null,,,,
22158,,,survey-text,69,700774,0.0-13.0-3.9,7484,List2B,black,woman,,,,,"{""Q0"":""beth and ruth are meeting each other""}","<img src=""stim_listB/meet8.gif""</stim_listB>",are meeting each other,
null,"<div style=""font-size:60px;"">+</div>",,html-keyboard-response,70,701291,0.0-13.0-0.10,7484,List2B,black,woman,,,,null,,,,
null,"<img src=""stim_listB/touch1.gif""</stim_listB>",,html-keyboard-response,71,703297,0.0-13.0-1.10,7484,List2B,black,woman,,,,null,,,,
null,is touching,,html-keyboard-response,72,705301,0.0-13.0-2.10,7484,List2B,black,woman,,,,null,,,,
16934,,,survey-text,73,722238,0.0-13.0-3.10,7484,List2B,black,woman,,,,,"{""Q0"":""jane and dave is touching""}","<img src=""stim_listB/touch1.gif""</stim_listB>",is touching,
null,"<div style=""font-size:60px;"">+</div>",,html-keyboard-response,74,722742,0.0-13.0-0.11,7484,List2B,black,woman,,,,null,,,,
null,"<img src=""stim_listB/fight4.gif""</stim_listB>",,html-keyboard-response,75,724750,0.0-13.0-1.11,7484,List2B,black,woman,,,,null,,,,
null,are fighting each other,,html-keyboard-response,76,726767,0.0-13.0-2.11,7484,List2B,black,woman,,,,null,,,,
19823,,,survey-text,77,746594,0.0-13.0-3.11,7484,List2B,black,woman,,,,,"{""Q0"":""fred and beth are fighting each other""}","<img src=""stim_listB/fight4.gif""</stim_listB>",are fighting each other,
null,"<div style=""font-size:60px;"">+</div>",,html-keyboard-response,78,747113,0.0-13.0-0.12,7484,List2B,black,woman,,,,null,,,,
null,"<img src=""stim_listB/marry4.gif""</stim_listB>",,html-keyboard-response,79,749121,0.0-13.0-1.12,7484,List2B,black,woman,,,,null,,,,
null,are marrying each other,,html-keyboard-response,80,751137,0.0-13.0-2.12,7484,List2B,black,woman,,,,null,,,,
24407,,,survey-text,81,775548,0.0-13.0-3.12,7484,List2B,black,woman,,,,,"{""Q0"":""fred and kate are marrying each other""}","<img src=""stim_listB/marry4.gif""</stim_listB>",are marrying each other,
null,"<div style=""font-size:60px;"">+</div>",,html-keyboard-response,82,776062,0.0-13.0-0.13,7484,List2B,black,woman,,,,null,,,,
null,"<img src=""stim_listB/marry3.gif""</stim_listB>",,html-keyboard-response,83,778081,0.0-13.0-1.13,7484,List2B,black,woman,,,,null,,,,
null,is marrying,,html-keyboard-response,84,780097,0.0-13.0-2.13,7484,List2B,black,woman,,,,null,,,,
20070,,,survey-text,85,800172,0.0-13.0-3.13,7484,List2B,black,woman,,,,,"{""Q0"":""beth and fred is marrying""}","<img src=""stim_listB/marry3.gif""</stim_listB>",is marrying,
null,"<div style=""font-size:60px;"">+</div>",,html-keyboard-response,86,800681,0.0-13.0-0.14,7484,List2B,black,woman,,,,null,,,,
null,"<img src=""stim_listB/meet7.gif""</stim_listB>",,html-keyboard-response,87,802703,0.0-13.0-1.14,7484,List2B,black,woman,,,,null,,,,
null,is meeting,,html-keyboard-response,88,804713,0.0-13.0-2.14,7484,List2B,black,woman,,,,null,,,,
19087,,,survey-text,89,823804,0.0-13.0-3.14,7484,List2B,black,woman,,,,,"{""Q0"":""jane and kate is meeting""}","<img src=""stim_listB/meet7.gif""</stim_listB>",is meeting,
null,"<div style=""font-size:60px;"">+</div>",,html-keyboard-response,90,824321,0.0-13.0-0.15,7484,List2B,black,woman,,,,null,,,,
null,"<img src=""stim_listB/fight3.gif""</stim_listB>",,html-keyboard-response,91,826351,0.0-13.0-1.15,7484,List2B,black,woman,,,,null,,,,
null,is fighting,,html-keyboard-response,92,828357,0.0-13.0-2.15,7484,List2B,black,woman,,,,null,,,,
13406,,,survey-text,93,841768,0.0-13.0-3.15,7484,List2B,black,woman,,,,,"{""Q0"":""kate and mike is fighting""}","<img src=""stim_listB/fight3.gif""</stim_listB>",is fighting,
null,"<div style=""font-size:60px;"">+</div>",,html-keyboard-response,94,842287,0.0-13.0-0.16,7484,List2B,black,woman,,,,null,,,,
null,"<img src=""stim_listB/hug6.gif""</stim_listB>",,html-keyboard-response,95,844309,0.0-13.0-1.16,7484,List2B,black,woman,,,,null,,,,
null,are hugging each other,,html-keyboard-response,96,846315,0.0-13.0-2.16,7484,List2B,black,woman,,,,null,,,,
15715,,,survey-text,97,862034,0.0-13.0-3.16,7484,List2B,black,woman,,,,,"{""Q0"":""dave and mike is hugging each other""}","<img src=""stim_listB/hug6.gif""</stim_listB>",are hugging each other,
null,"<div style=""font-size:60px;"">+</div>",,html-keyboard-response,98,862538,0.0-13.0-0.17,7484,List2B,black,woman,,,,null,,,,
null,"<img src=""stim_listB/meet6.gif""</stim_listB>",,html-keyboard-response,99,864555,0.0-13.0-1.17,7484,List2B,black,woman,,,,null,,,,
null,are meeting each other,,html-keyboard-response,100,866559,0.0-13.0-2.17,7484,List2B,black,woman,,,,null,,,,
29420,,,survey-text,101,895984,0.0-13.0-3.17,7484,List2B,black,woman,,,,,"{""Q0"":""luke and fred are meeting each other""}","<img src=""stim_listB/meet6.gif""</stim_listB>",are meeting each other,
null,"<div style=""font-size:60px;"">+</div>",,html-keyboard-response,102,896490,0.0-13.0-0.18,7484,List2B,black,woman,,,,null,,,,
null,"<img src=""stim_listB/fight5.gif""</stim_listB>",,html-keyboard-response,103,898507,0.0-13.0-1.18,7484,List2B,black,woman,,,,null,,,,
null,is fighting,,html-keyboard-response,104,900516,0.0-13.0-2.18,7484,List2B,black,woman,,,,null,,,,
20380,,,survey-text,105,920901,0.0-13.0-3.18,7484,List2B,black,woman,,,,,"{""Q0"":""dave and mike is fighting""}","<img src=""stim_listB/fight5.gif""</stim_listB>",is fighting,
null,"<div style=""font-size:60px;"">+</div>",,html-keyboard-response,106,921421,0.0-13.0-0.19,7484,List2B,black,woman,,,,null,,,,
null,"<img src=""stim_listB/meet3.gif""</stim_listB>",,html-keyboard-response,107,923429,0.0-13.0-1.19,7484,List2B,black,woman,,,,null,,,,
null,is meeting,,html-keyboard-response,108,925442,0.0-13.0-2.19,7484,List2B,black,woman,,,,null,,,,
12202,,,survey-text,109,937649,0.0-13.0-3.19,7484,List2B,black,woman,,,,,"{""Q0"":""mike and kate is meeting""}","<img src=""stim_listB/meet3.gif""</stim_listB>",is meeting,
20235,"<img src='img/portrait_matrix_list2.JPG' style='width:900px;height:500px;''></img><p>If you have memorised all the portraits and names and are ready to start, press Continue.</p><p><strong>Please note: Your memory of these faces will be tested 4 times during this experiment.</strong></p>",0,html-button-response,110,957888,0.0-14.0-0.0,7484,List2B,black,woman,,,,,,,,
6178,"<img src=""portrait/WW2.jpg""style=""width:400px;height:400px;""></img>",3,html-button-response,111,965085,0.0-14.0-1.0,7484,List2B,black,woman,,TRUE,3,,,,,
null,CORRECT,,html-keyboard-response,112,966605,0.0-14.0-2.0-0.0,7484,List2B,black,woman,,,,null,,,,
4461,"<img src=""portrait/BM2.jpg""style=""width:400px;height:400px;""></img>",5,html-button-response,113,971073,0.0-14.0-4.0,7484,List2B,black,woman,,TRUE,5,,,,,
null,CORRECT,,html-keyboard-response,114,972585,0.0-14.0-5.0-0.0,7484,List2B,black,woman,,,,null,,,,
2861,"<img src=""portrait/WM2.jpg""style=""width:400px;height:400px;""></img>",7,html-button-response,115,975453,0.0-14.0-7.0,7484,List2B,black,woman,,TRUE,7,,,,,
null,CORRECT,,html-keyboard-response,116,976979,0.0-14.0-8.0-0.0,7484,List2B,black,woman,,,,null,,,,
4182,"<img src=""portrait/BW2.jpg""style=""width:400px;height:400px;""></img>",2,html-button-response,117,981168,0.0-14.0-10.0,7484,List2B,black,woman,,TRUE,2,,,,,
null,CORRECT,,html-keyboard-response,118,982678,0.0-14.0-11.0-0.0,7484,List2B,black,woman,,,,null,,,,
4602,"<img src=""portrait/WW1.jpg""style=""width:400px;height:400px;""></img>",1,html-button-response,119,987284,0.0-14.0-13.0,7484,List2B,black,woman,,TRUE,1,,,,,
null,CORRECT,,html-keyboard-response,120,988806,0.0-14.0-14.0-0.0,7484,List2B,black,woman,,,,null,,,,
3242,"<img src=""portrait/WM1.jpg""style=""width:400px;height:400px;""></img>",6,html-button-response,121,992056,0.0-14.0-16.0,7484,List2B,black,woman,,TRUE,6,,,,,
null,CORRECT,,html-keyboard-response,122,993579,0.0-14.0-17.0-0.0,7484,List2B,black,woman,,,,null,,,,
4259,"<img src=""portrait/BM1.jpg""style=""width:400px;height:400px;""></img>",4,html-button-response,123,997846,0.0-14.0-19.0,7484,List2B,black,woman,,TRUE,4,,,,,
null,CORRECT,,html-keyboard-response,124,999368,0.0-14.0-20.0-0.0,7484,List2B,black,woman,,,,null,,,,
4785,"<img src=""portrait/BW1.jpg""style=""width:400px;height:400px;""></img>",0,html-button-response,125,1004160,0.0-14.0-22.0,7484,List2B,black,woman,,TRUE,0,,,,,
null,CORRECT,,html-keyboard-response,126,1005690,0.0-14.0-23.0-0.0,7484,List2B,black,woman,,,,null,,,,
4240,<p>You got 8 out of 8 right first time. Press Continue.</p>,0,html-button-response,127,1009938,0.0-14.0-25.0,7484,List2B,black,woman,,,,,,,,
null,"<div style=""font-size:60px;"">+</div>",,html-keyboard-response,128,1011465,0.0-15.0-0.0,7484,List2B,black,woman,,,,null,,,,
null,"<img src=""stim_listB/hug5.gif""</stim_listB>",,html-keyboard-response,129,1013483,0.0-15.0-1.0,7484,List2B,black,woman,,,,null,,,,
null,is hugging,,html-keyboard-response,130,1015489,0.0-15.0-2.0,7484,List2B,black,woman,,,,null,,,,
15478,,,survey-text,131,1030972,0.0-15.0-3.0,7484,List2B,black,woman,,,,,"{""Q0"":""luke and fred is hugging""}","<img src=""stim_listB/hug5.gif""</stim_listB>",is hugging,
null,"<div style=""font-size:60px;"">+</div>",,html-keyboard-response,132,1031480,0.0-15.0-0.1,7484,List2B,black,woman,,,,null,,,,
null,"<img src=""stim_listB/hug2.gif""</stim_listB>",,html-keyboard-response,133,1033496,0.0-15.0-1.1,7484,List2B,black,woman,,,,null,,,,
null,are hugging each other,,html-keyboard-response,134,1035500,0.0-15.0-2.1,7484,List2B,black,woman,,,,null,,,,
21206,,,survey-text,135,1056710,0.0-15.0-3.1,7484,List2B,black,woman,,,,,"{""Q0"":""dave and jane are hugging each other""}","<img src=""stim_listB/hug2.gif""</stim_listB>",are hugging each other,
null,"<div style=""font-size:60px;"">+</div>",,html-keyboard-response,136,1057223,0.0-15.0-0.2,7484,List2B,black,woman,,,,null,,,,
null,"<img src=""stim_listB/hug7.gif""</stim_listB>",,html-keyboard-response,137,1059231,0.0-15.0-1.2,7484,List2B,black,woman,,,,null,,,,
null,is hugging,,html-keyboard-response,138,1061245,0.0-15.0-2.2,7484,List2B,black,woman,,,,null,,,,
17095,,,survey-text,139,1078344,0.0-15.0-3.2,7484,List2B,black,woman,,,,,"{""Q0"":""beth and ruth is hugging""}","<img src=""stim_listB/hug7.gif""</stim_listB>",is hugging,
null,"<div style=""font-size:60px;"">+</div>",,html-keyboard-response,140,1078864,0.0-15.0-0.3,7484,List2B,black,woman,,,,null,,,,
null,"<img src=""stim_listB/kiss7.gif""</stim_listB>",,html-keyboard-response,141,1080885,0.0-15.0-1.3,7484,List2B,black,woman,,,,null,,,,
null,is kissing,,html-keyboard-response,142,1082890,0.0-15.0-2.3,7484,List2B,black,woman,,,,null,,,,
16261,,,survey-text,143,1099155,0.0-15.0-3.3,7484,List2B,black,woman,,,,,"{""Q0"":""beth and ruth is kissing""}","<img src=""stim_listB/kiss7.gif""</stim_listB>",is kissing,
null,"<div style=""font-size:60px;"">+</div>",,html-keyboard-response,144,1099674,0.0-15.0-0.4,7484,List2B,black,woman,,,,null,,,,
null,"<img src=""stim_listB/dance6.gif""</stim_listB>",,html-keyboard-response,145,1101694,0.0-15.0-1.4,7484,List2B,black,woman,,,,null,,,,
null,are dancing with each other,,html-keyboard-response,146,1103711,0.0-15.0-2.4,7484,List2B,black,woman,,,,null,,,,
13882,,,survey-text,147,1117598,0.0-15.0-3.4,7484,List2B,black,woman,,,,,"{""Q0"":""dave and fred are dancing with each other""}","<img src=""stim_listB/dance6.gif""</stim_listB>",are dancing with each other,
null,"<div style=""font-size:60px;"">+</div>",,html-keyboard-response,148,1118113,0.0-15.0-0.5,7484,List2B,black,woman,,,,null,,,,
null,"<img src=""stim_listB/kiss3.gif""</stim_listB>",,html-keyboard-response,149,1120133,0.0-15.0-1.5,7484,List2B,black,woman,,,,null,,,,
null,is kissing,,html-keyboard-response,150,1122148,0.0-15.0-2.5,7484,List2B,black,woman,,,,null,,,,
10439,,,survey-text,151,1132592,0.0-15.0-3.5,7484,List2B,black,woman,,,,,"{""Q0"":""fred and beth is kissing""}","<img src=""stim_listB/kiss3.gif""</stim_listB>",is kissing,
null,"<div style=""font-size:60px;"">+</div>",,html-keyboard-response,152,1133105,0.0-15.0-0.6,7484,List2B,black,woman,,,,null,,,,
null,"<img src=""stim_listB/kiss4.gif""</stim_listB>",,html-keyboard-response,153,1135109,0.0-15.0-1.6,7484,List2B,black,woman,,,,null,,,,
null,are kissing each other,,html-keyboard-response,154,1137127,0.0-15.0-2.6,7484,List2B,black,woman,,,,null,,,,
27455,,,survey-text,155,1164587,0.0-15.0-3.6,7484,List2B,black,woman,,,,,"{""Q0"":""mike and kate are kissing each other""}","<img src=""stim_listB/kiss4.gif""</stim_listB>",are kissing each other,
null,"<div style=""font-size:60px;"">+</div>",,html-keyboard-response,156,1165094,0.0-15.0-0.7,7484,List2B,black,woman,,,,null,,,,
null,"<img src=""stim_listB/argue4.gif""</stim_listB>",,html-keyboard-response,157,1167103,0.0-15.0-1.7,7484,List2B,black,woman,,,,null,,,,
null,are arguing with each other,,html-keyboard-response,158,1169118,0.0-15.0-2.7,7484,List2B,black,woman,,,,null,,,,
16976,,,survey-text,159,1186099,0.0-15.0-3.7,7484,List2B,black,woman,,,,,"{""Q0"":""fred and kate are arguing with each other""}","<img src=""stim_listB/argue4.gif""</stim_listB>",are arguing with each other,
null,"<div style=""font-size:60px;"">+</div>",,html-keyboard-response,160,1186612,0.0-15.0-0.8,7484,List2B,black,woman,,,,null,,,,
null,"<img src=""stim_listB/marry5.gif""</stim_listB>",,html-keyboard-response,161,1188629,0.0-15.0-1.8,7484,List2B,black,woman,,,,null,,,,
null,is marrying,,html-keyboard-response,162,1190642,0.0-15.0-2.8,7484,List2B,black,woman,,,,null,,,,
12329,,,survey-text,163,1202976,0.0-15.0-3.8,7484,List2B,black,woman,,,,,"{""Q0"":""fred and dave is marrying""}","<img src=""stim_listB/marry5.gif""</stim_listB>",is marrying,
null,"<div style=""font-size:60px;"">+</div>",,html-keyboard-response,164,1203490,0.0-15.0-0.9,7484,List2B,black,woman,,,,null,,,,
null,"<img src=""stim_listB/argue5.gif""</stim_listB>",,html-keyboard-response,165,1205499,0.0-15.0-1.9,7484,List2B,black,woman,,,,null,,,,
null,is arguing with,,html-keyboard-response,166,1207509,0.0-15.0-2.9,7484,List2B,black,woman,,,,null,,,,
23323,,,survey-text,167,1230837,0.0-15.0-3.9,7484,List2B,black,woman,,,,,"{""Q0"":""fred is arguing with dave""}","<img src=""stim_listB/argue5.gif""</stim_listB>",is arguing with,
null,"<div style=""font-size:60px;"">+</div>",,html-keyboard-response,168,1231354,0.0-15.0-0.10,7484,List2B,black,woman,,,,null,,,,
null,"<img src=""stim_listB/talk4.gif""</stim_listB>",,html-keyboard-response,169,1233378,0.0-15.0-1.10,7484,List2B,black,woman,,,,null,,,,
null,are talking to each other,,html-keyboard-response,170,1235386,0.0-15.0-2.10,7484,List2B,black,woman,,,,null,,,,
21447,,,survey-text,171,1256837,0.0-15.0-3.10,7484,List2B,black,woman,,,,,"{""Q0"":""fred and beth are talking with each other""}","<img src=""stim_listB/talk4.gif""</stim_listB>",are talking to each other,
null,"<div style=""font-size:60px;"">+</div>",,html-keyboard-response,172,1257344,0.0-15.0-0.11,7484,List2B,black,woman,,,,null,,,,
null,"<img src=""stim_listB/shout8.gif""</stim_listB>",,html-keyboard-response,173,1259356,0.0-15.0-1.11,7484,List2B,black,woman,,,,null,,,,
null,are shouting at each other,,html-keyboard-response,174,1261368,0.0-15.0-2.11,7484,List2B,black,woman,,,,null,,,,
25606,,,survey-text,175,1286979,0.0-15.0-3.11,7484,List2B,black,woman,,,,,"{""Q0"":""jane and kate are shouting at each other""}","<img src=""stim_listB/shout8.gif""</stim_listB>",are shouting at each other,
null,"<div style=""font-size:60px;"">+</div>",,html-keyboard-response,176,1287483,0.0-15.0-0.12,7484,List2B,black,woman,,,,null,,,,
null,"<img src=""stim_listB/argue3.gif""</stim_listB>",,html-keyboard-response,177,1289503,0.0-15.0-1.12,7484,List2B,black,woman,,,,null,,,,
null,is arguing with,,html-keyboard-response,178,1291516,0.0-15.0-2.12,7484,List2B,black,woman,,,,null,,,,
34797,,,survey-text,179,1326318,0.0-15.0-3.12,7484,List2B,black,woman,,,,,"{""Q0"":""beth is arguing with mike""}","<img src=""stim_listB/argue3.gif""</stim_listB>",is arguing with,
null,"<div style=""font-size:60px;"">+</div>",,html-keyboard-response,180,1326826,0.0-15.0-0.13,7484,List2B,black,woman,,,,null,,,,
null,"<img src=""stim_listB/touch5.gif""</stim_listB>",,html-keyboard-response,181,1328848,0.0-15.0-1.13,7484,List2B,black,woman,,,,null,,,,
null,is touching,,html-keyboard-response,182,1330868,0.0-15.0-2.13,7484,List2B,black,woman,,,,null,,,,
18798,,,survey-text,183,1349670,0.0-15.0-3.13,7484,List2B,black,woman,,,,,"{""Q0"":""fred is touching dave""}","<img src=""stim_listB/touch5.gif""</stim_listB>",is touching,
null,"<div style=""font-size:60px;"">+</div>",,html-keyboard-response,184,1350189,0.0-15.0-0.14,7484,List2B,black,woman,,,,null,,,,
null,"<img src=""stim_listB/marry2.gif""</stim_listB>",,html-keyboard-response,185,1352208,0.0-15.0-1.14,7484,List2B,black,woman,,,,null,,,,
null,are marrying each other,,html-keyboard-response,186,1354215,0.0-15.0-2.14,7484,List2B,black,woman,,,,null,,,,
18942,,,survey-text,187,1373161,0.0-15.0-3.14,7484,List2B,black,woman,,,,,"{""Q0"":""luke and jane are marrying each other""}","<img src=""stim_listB/marry2.gif""</stim_listB>",are marrying each other,
null,"<div style=""font-size:60px;"">+</div>",,html-keyboard-response,188,1373671,0.0-15.0-0.15,7484,List2B,black,woman,,,,null,,,,
null,"<img src=""stim_listB/dance1.gif""</stim_listB>",,html-keyboard-response,189,1375689,0.0-15.0-1.15,7484,List2B,black,woman,,,,null,,,,
null,is dancing with,,html-keyboard-response,190,1377700,0.0-15.0-2.15,7484,List2B,black,woman,,,,null,,,,
25103,,,survey-text,191,1402808,0.0-15.0-3.15,7484,List2B,black,woman,,,,,"{""Q0"":""jane is dancing with luke""}","<img src=""stim_listB/dance1.gif""</stim_listB>",is dancing with,
null,"<div style=""font-size:60px;"">+</div>",,html-keyboard-response,192,1403313,0.0-15.0-0.16,7484,List2B,black,woman,,,,null,,,,
null,"<img src=""stim_listB/dance5.gif""</stim_listB>",,html-keyboard-response,193,1405332,0.0-15.0-1.16,7484,List2B,black,woman,,,,null,,,,
null,is dancing with,,html-keyboard-response,194,1407347,0.0-15.0-2.16,7484,List2B,black,woman,,,,null,,,,
11038,,,survey-text,195,1418387,0.0-15.0-3.16,7484,List2B,black,woman,,,,,"{""Q0"":""mike is dancing with luke""}","<img src=""stim_listB/dance5.gif""</stim_listB>",is dancing with,
null,"<div style=""font-size:60px;"">+</div>",,html-keyboard-response,196,1418898,0.0-15.0-0.17,7484,List2B,black,woman,,,,null,,,,
null,"<img src=""stim_listB/argue1.gif""</stim_listB>",,html-keyboard-response,197,1420915,0.0-15.0-1.17,7484,List2B,black,woman,,,,null,,,,
null,is arguing with,,html-keyboard-response,198,1422940,0.0-15.0-2.17,7484,List2B,black,woman,,,,null,,,,
15279,,,survey-text,199,1438223,0.0-15.0-3.17,7484,List2B,black,woman,,,,,"{""Q0"":""dave is arguing with ruth""}","<img src=""stim_listB/argue1.gif""</stim_listB>",is arguing with,
null,"<div style=""font-size:60px;"">+</div>",,html-keyboard-response,200,1438734,0.0-15.0-0.18,7484,List2B,black,woman,,,,null,,,,
null,"<img src=""stim_listB/touch6.gif""</stim_listB>",,html-keyboard-response,201,1440750,0.0-15.0-1.18,7484,List2B,black,woman,,,,null,,,,
null,are touching each other,,html-keyboard-response,202,1442765,0.0-15.0-2.18,7484,List2B,black,woman,,,,null,,,,
26158,,,survey-text,203,1468928,0.0-15.0-3.18,7484,List2B,black,woman,,,,,"{""Q0"":""fred and luke are touching each other""}","<img src=""stim_listB/touch6.gif""</stim_listB>",are touching each other,
null,"<div style=""font-size:60px;"">+</div>",,html-keyboard-response,204,1469446,0.0-15.0-0.19,7484,List2B,black,woman,,,,null,,,,
null,"<img src=""stim_listB/kiss6.gif""</stim_listB>",,html-keyboard-response,205,1471463,0.0-15.0-1.19,7484,List2B,black,woman,,,,null,,,,
null,are kissing each other,,html-keyboard-response,206,1473472,0.0-15.0-2.19,7484,List2B,black,woman,,,,null,,,,
20114,,,survey-text,207,1493592,0.0-15.0-3.19,7484,List2B,black,woman,,,,,"{""Q0"":""mike and dave is kissing each other""}","<img src=""stim_listB/kiss6.gif""</stim_listB>",are kissing each other,
5727,"<img src='img/portrait_matrix_list2.JPG' style='width:900px;height:500px;''></img><p>If you have memorised all the portraits and names and are ready to start, press Continue.</p><p><strong>Please note: Your memory of these faces will be tested 4 times during this experiment.</strong></p>",0,html-button-response,208,1499323,0.0-16.0-0.0,7484,List2B,black,woman,,,,,,,,
3864,"<img src=""portrait/WM2.jpg""style=""width:400px;height:400px;""></img>",7,html-button-response,209,1504199,0.0-16.0-1.0,7484,List2B,black,woman,,TRUE,7,,,,,
null,CORRECT,,html-keyboard-response,210,1505705,0.0-16.0-2.0-0.0,7484,List2B,black,woman,,,,null,,,,
3859,"<img src=""portrait/BW2.jpg""style=""width:400px;height:400px;""></img>",2,html-button-response,211,1509573,0.0-16.0-4.0,7484,List2B,black,woman,,TRUE,2,,,,,
null,CORRECT,,html-keyboard-response,212,1511087,0.0-16.0-5.0-0.0,7484,List2B,black,woman,,,,null,,,,
4386,"<img src=""portrait/WW1.jpg""style=""width:400px;height:400px;""></img>",1,html-button-response,213,1515481,0.0-16.0-7.0,7484,List2B,black,woman,,TRUE,1,,,,,
null,CORRECT,,html-keyboard-response,214,1517007,0.0-16.0-8.0-0.0,7484,List2B,black,woman,,,,null,,,,
2269,"<img src=""portrait/WM1.jpg""style=""width:400px;height:400px;""></img>",6,html-button-response,215,1519285,0.0-16.0-10.0,7484,List2B,black,woman,,TRUE,6,,,,,
null,CORRECT,,html-keyboard-response,216,1520803,0.0-16.0-11.0-0.0,7484,List2B,black,woman,,,,null,,,,
3501,"<img src=""portrait/BM2.jpg""style=""width:400px;height:400px;""></img>",5,html-button-response,217,1524313,0.0-16.0-13.0,7484,List2B,black,woman,,TRUE,5,,,,,
null,CORRECT,,html-keyboard-response,218,1525828,0.0-16.0-14.0-0.0,7484,List2B,black,woman,,,,null,,,,
4426,"<img src=""portrait/BW1.jpg""style=""width:400px;height:400px;""></img>",0,html-button-response,219,1530263,0.0-16.0-16.0,7484,List2B,black,woman,,TRUE,0,,,,,
null,CORRECT,,html-keyboard-response,220,1531789,0.0-16.0-17.0-0.0,7484,List2B,black,woman,,,,null,,,,
2571,"<img src=""portrait/BM1.jpg""style=""width:400px;height:400px;""></img>",4,html-button-response,221,1534371,0.0-16.0-19.0,7484,List2B,black,woman,,TRUE,4,,,,,
null,CORRECT,,html-keyboard-response,222,1535893,0.0-16.0-20.0-0.0,7484,List2B,black,woman,,,,null,,,,
4535,"<img src=""portrait/WW2.jpg""style=""width:400px;height:400px;""></img>",3,html-button-response,223,1540438,0.0-16.0-22.0,7484,List2B,black,woman,,TRUE,3,,,,,
null,CORRECT,,html-keyboard-response,224,1541972,0.0-16.0-23.0-0.0,7484,List2B,black,woman,,,,null,,,,
1938,<p>You got 8 out of 8 right first time. Press Continue.</p>,0,html-button-response,225,1543917,0.0-16.0-25.0,7484,List2B,black,woman,,,,,,,,
null,"<div style=""font-size:60px;"">+</div>",,html-keyboard-response,226,1545435,0.0-17.0-0.0,7484,List2B,black,woman,,,,null,,,,
null,"<img src=""stim_listB/marry7.gif""</stim_listB>",,html-keyboard-response,227,1547445,0.0-17.0-1.0,7484,List2B,black,woman,,,,null,,,,
null,is marrying,,html-keyboard-response,228,1549460,0.0-17.0-2.0,7484,List2B,black,woman,,,,null,,,,
30650,,,survey-text,229,1580116,0.0-17.0-3.0,7484,List2B,black,woman,,,,,"{""Q0"":""beth is marrying jane""}","<img src=""stim_listB/marry7.gif""</stim_listB>",is marrying,
null,"<div style=""font-size:60px;"">+</div>",,html-keyboard-response,230,1580635,0.0-17.0-0.1,7484,List2B,black,woman,,,,null,,,,
null,"<img src=""stim_listB/argue7.gif""</stim_listB>",,html-keyboard-response,231,1582648,0.0-17.0-1.1,7484,List2B,black,woman,,,,null,,,,
null,is arguing with,,html-keyboard-response,232,1584662,0.0-17.0-2.1,7484,List2B,black,woman,,,,null,,,,
16612,,,survey-text,233,1601279,0.0-17.0-3.1,7484,List2B,black,woman,,,,,"{""Q0"":""beth is arguing with jane""}","<img src=""stim_listB/argue7.gif""</stim_listB>",is arguing with,
null,"<div style=""font-size:60px;"">+</div>",,html-keyboard-response,234,1601787,0.0-17.0-0.2,7484,List2B,black,woman,,,,null,,,,
null,"<img src=""stim_listB/kiss2.gif""</stim_listB>",,html-keyboard-response,235,1603801,0.0-17.0-1.2,7484,List2B,black,woman,,,,null,,,,
null,are kissing each other,,html-keyboard-response,236,1605807,0.0-17.0-2.2,7484,List2B,black,woman,,,,null,,,,
16610,,,survey-text,237,1622421,0.0-17.0-3.2,7484,List2B,black,woman,,,,,"{""Q0"":""dave and jane are kissing each other""}","<img src=""stim_listB/kiss2.gif""</stim_listB>",are kissing each other,
null,"<div style=""font-size:60px;"">+</div>",,html-keyboard-response,238,1622931,0.0-17.0-0.3,7484,List2B,black,woman,,,,null,,,,
null,"<img src=""stim_listB/kiss8.gif""</stim_listB>",,html-keyboard-response,239,1624952,0.0-17.0-1.3,7484,List2B,black,woman,,,,null,,,,
null,are kissing each other,,html-keyboard-response,240,1626956,0.0-17.0-2.3,7484,List2B,black,woman,,,,null,,,,
40872,,,survey-text,241,1667831,0.0-17.0-3.3,7484,List2B,black,woman,,,,,"{""Q0"":""kate and beth are kissing each other""}","<img src=""stim_listB/kiss8.gif""</stim_listB>",are kissing each other,
null,"<div style=""font-size:60px;"">+</div>",,html-keyboard-response,242,1668339,0.0-17.0-0.4,7484,List2B,black,woman,,,,null,,,,
null,"<img src=""stim_listB/hug3.gif""</stim_listB>",,html-keyboard-response,243,1670347,0.0-17.0-1.4,7484,List2B,black,woman,,,,null,,,,
null,is hugging,,html-keyboard-response,244,1672362,0.0-17.0-2.4,7484,List2B,black,woman,,,,null,,,,
24659,,,survey-text,245,1697026,0.0-17.0-3.4,7484,List2B,black,woman,,,,,"{""Q0"":""beth is hugging fred""}","<img src=""stim_listB/hug3.gif""</stim_listB>",is hugging,
null,"<div style=""font-size:60px;"">+</div>",,html-keyboard-response,246,1697539,0.0-17.0-0.5,7484,List2B,black,woman,,,,null,,,,
null,"<img src=""stim_listB/kiss1.gif""</stim_listB>",,html-keyboard-response,247,1699550,0.0-17.0-1.5,7484,List2B,black,woman,,,,null,,,,
null,is kissing,,html-keyboard-response,248,1701565,0.0-17.0-2.5,7484,List2B,black,woman,,,,null,,,,
16104,,,survey-text,249,1717674,0.0-17.0-3.5,7484,List2B,black,woman,,,,,"{""Q0"":""ruth is kissing luke""}","<img src=""stim_listB/kiss1.gif""</stim_listB>",is kissing,
null,"<div style=""font-size:60px;"">+</div>",,html-keyboard-response,250,1718181,0.0-17.0-0.6,7484,List2B,black,woman,,,,null,,,,
null,"<img src=""stim_listB/kiss5.gif""</stim_listB>",,html-keyboard-response,251,1720198,0.0-17.0-1.6,7484,List2B,black,woman,,,,null,,,,
null,is kissing,,html-keyboard-response,252,1722222,0.0-17.0-2.6,7484,List2B,black,woman,,,,null,,,,
14873,,,survey-text,253,1737100,0.0-17.0-3.6,7484,List2B,black,woman,,,,,"{""Q0"":""fred is kissing luke""}","<img src=""stim_listB/kiss5.gif""</stim_listB>",is kissing,
null,"<div style=""font-size:60px;"">+</div>",,html-keyboard-response,254,1737611,0.0-17.0-0.7,7484,List2B,black,woman,,,,null,,,,
null,"<img src=""stim_listB/hug1.gif""</stim_listB>",,html-keyboard-response,255,1739627,0.0-17.0-1.7,7484,List2B,black,woman,,,,null,,,,
null,is hugging,,html-keyboard-response,256,1741633,0.0-17.0-2.7,7484,List2B,black,woman,,,,null,,,,
16652,,,survey-text,257,1758290,0.0-17.0-3.7,7484,List2B,black,woman,,,,,"{""Q0"":""ruth is hugging luke""}","<img src=""stim_listB/hug1.gif""</stim_listB>",is hugging,
null,"<div style=""font-size:60px;"">+</div>",,html-keyboard-response,258,1758794,0.0-17.0-0.8,7484,List2B,black,woman,,,,null,,,,
null,"<img src=""stim_listB/talk8.gif""</stim_listB>",,html-keyboard-response,259,1760805,0.0-17.0-1.8,7484,List2B,black,woman,,,,null,,,,
null,are talking to each other,,html-keyboard-response,260,1762821,0.0-17.0-2.8,7484,List2B,black,woman,,,,null,,,,
32424,,,survey-text,261,1795248,0.0-17.0-3.8,7484,List2B,black,woman,,,,,"{""Q0"":""jane and beth are talking to each other""}","<img src=""stim_listB/talk8.gif""</stim_listB>",are talking to each other,
null,"<div style=""font-size:60px;"">+</div>",,html-keyboard-response,262,1795763,0.0-17.0-0.9,7484,List2B,black,woman,,,,null,,,,
null,"<img src=""stim_listB/hug8.gif""</stim_listB>",,html-keyboard-response,263,1797783,0.0-17.0-1.9,7484,List2B,black,woman,,,,null,,,,
null,are hugging each other,,html-keyboard-response,264,1799792,0.0-17.0-2.9,7484,List2B,black,woman,,,,null,,,,
28252,,,survey-text,265,1828049,0.0-17.0-3.9,7484,List2B,black,woman,,,,,"{""Q0"":""jane and kate are hugging each other""}","<img src=""stim_listB/hug8.gif""</stim_listB>",are hugging each other,
null,"<div style=""font-size:60px;"">+</div>",,html-keyboard-response,266,1828557,0.0-17.0-0.10,7484,List2B,black,woman,,,,null,,,,
null,"<img src=""stim_listB/fight7.gif""</stim_listB>",,html-keyboard-response,267,1830565,0.0-17.0-1.10,7484,List2B,black,woman,,,,null,,,,
null,is fighting,,html-keyboard-response,268,1832582,0.0-17.0-2.10,7484,List2B,black,woman,,,,null,,,,
17135,,,survey-text,269,1849721,0.0-17.0-3.10,7484,List2B,black,woman,,,,,"{""Q0"":""kate is fighting jane""}","<img src=""stim_listB/fight7.gif""</stim_listB>",is fighting,
null,"<div style=""font-size:60px;"">+</div>",,html-keyboard-response,270,1850227,0.0-17.0-0.11,7484,List2B,black,woman,,,,null,,,,
null,"<img src=""stim_listB/argue8.gif""</stim_listB>",,html-keyboard-response,271,1852231,0.0-17.0-1.11,7484,List2B,black,woman,,,,null,,,,
null,are arguing with each other,,html-keyboard-response,272,1854242,0.0-17.0-2.11,7484,List2B,black,woman,,,,null,,,,
24604,,,survey-text,273,1878850,0.0-17.0-3.11,7484,List2B,black,woman,,,,,"{""Q0"":""ruth and jane are aguing with each other""}","<img src=""stim_listB/argue8.gif""</stim_listB>",are arguing with each other,
null,"<div style=""font-size:60px;"">+</div>",,html-keyboard-response,274,1879368,0.0-17.0-0.12,7484,List2B,black,woman,,,,null,,,,
null,"<img src=""stim_listB/marry1.gif""</stim_listB>",,html-keyboard-response,275,1881389,0.0-17.0-1.12,7484,List2B,black,woman,,,,null,,,,
null,is marrying,,html-keyboard-response,276,1883407,0.0-17.0-2.12,7484,List2B,black,woman,,,,null,,,,
16713,,,survey-text,277,1900123,0.0-17.0-3.12,7484,List2B,black,woman,,,,,"{""Q0"":""ruth is marrying dave""}","<img src=""stim_listB/marry1.gif""</stim_listB>",is marrying,
null,"<div style=""font-size:60px;"">+</div>",,html-keyboard-response,278,1900634,0.0-17.0-0.13,7484,List2B,black,woman,,,,null,,,,
null,"<img src=""stim_listB/dance8.gif""</stim_listB>",,html-keyboard-response,279,1902643,0.0-17.0-1.13,7484,List2B,black,woman,,,,null,,,,
null,are dancing with each other,,html-keyboard-response,280,1904659,0.0-17.0-2.13,7484,List2B,black,woman,,,,null,,,,
22359,,,survey-text,281,1927023,0.0-17.0-3.13,7484,List2B,black,woman,,,,,"{""Q0"":""beth and jane are dancing with each other""}","<img src=""stim_listB/dance8.gif""</stim_listB>",are dancing with each other,
null,"<div style=""font-size:60px;"">+</div>",,html-keyboard-response,282,1927538,0.0-17.0-0.14,7484,List2B,black,woman,,,,null,,,,
null,"<img src=""stim_listB/shout3.gif""</stim_listB>",,html-keyboard-response,283,1929557,0.0-17.0-1.14,7484,List2B,black,woman,,,,null,,,,
null,is shouting at,,html-keyboard-response,284,1931563,0.0-17.0-2.14,7484,List2B,black,woman,,,,null,,,,
13406,,,survey-text,285,1944975,0.0-17.0-3.14,7484,List2B,black,woman,,,,,"{""Q0"":""beth is shouting at fred""}","<img src=""stim_listB/shout3.gif""</stim_listB>",is shouting at,
null,"<div style=""font-size:60px;"">+</div>",,html-keyboard-response,286,1945485,0.0-17.0-0.15,7484,List2B,black,woman,,,,null,,,,
null,"<img src=""stim_listB/talk3.gif""</stim_listB>",,html-keyboard-response,287,1947506,0.0-17.0-1.15,7484,List2B,black,woman,,,,null,,,,
null,is talking to,,html-keyboard-response,288,1949521,0.0-17.0-2.15,7484,List2B,black,woman,,,,null,,,,
13643,,,survey-text,289,1963169,0.0-17.0-3.15,7484,List2B,black,woman,,,,,"{""Q0"":""kate is taking to fred""}","<img src=""stim_listB/talk3.gif""</stim_listB>",is talking to,
null,"<div style=""font-size:60px;"">+</div>",,html-keyboard-response,290,1963674,0.0-17.0-0.16,7484,List2B,black,woman,,,,null,,,,
null,"<img src=""stim_listB/touch7.gif""</stim_listB>",,html-keyboard-response,291,1965683,0.0-17.0-1.16,7484,List2B,black,woman,,,,null,,,,
null,is touching,,html-keyboard-response,292,1967690,0.0-17.0-2.16,7484,List2B,black,woman,,,,null,,,,
19307,,,survey-text,293,1987002,0.0-17.0-3.16,7484,List2B,black,woman,,,,,"{""Q0"":""kate is touching jane""}","<img src=""stim_listB/touch7.gif""</stim_listB>",is touching,
null,"<div style=""font-size:60px;"">+</div>",,html-keyboard-response,294,1987518,0.0-17.0-0.17,7484,List2B,black,woman,,,,null,,,,
null,"<img src=""stim_listB/shout4.gif""</stim_listB>",,html-keyboard-response,295,1989530,0.0-17.0-1.17,7484,List2B,black,woman,,,,null,,,,
null,are shouting at each other,,html-keyboard-response,296,1991548,0.0-17.0-2.17,7484,List2B,black,woman,,,,null,,,,
19857,,,survey-text,297,2011409,0.0-17.0-3.17,7484,List2B,black,woman,,,,,"{""Q0"":""kate and jane is shouting at each other""}","<img src=""stim_listB/shout4.gif""</stim_listB>",are shouting at each other,
null,"<div style=""font-size:60px;"">+</div>",,html-keyboard-response,298,2011925,0.0-17.0-0.18,7484,List2B,black,woman,,,,null,,,,
null,"<img src=""stim_listB/meet1.gif""</stim_listB>",,html-keyboard-response,299,2013943,0.0-17.0-1.18,7484,List2B,black,woman,,,,null,,,,
null,is meeting,,html-keyboard-response,300,2015961,0.0-17.0-2.18,7484,List2B,black,woman,,,,null,,,,
47137,,,survey-text,301,2063103,0.0-17.0-3.18,7484,List2B,black,woman,,,,,"{""Q0"":""jane is meeting dave""}","<img src=""stim_listB/meet1.gif""</stim_listB>",is meeting,
null,"<div style=""font-size:60px;"">+</div>",,html-keyboard-response,302,2063617,0.0-17.0-0.19,7484,List2B,black,woman,,,,null,,,,
null,"<img src=""stim_listB/talk5.gif""</stim_listB>",,html-keyboard-response,303,2065636,0.0-17.0-1.19,7484,List2B,black,woman,,,,null,,,,
null,is talking to,,html-keyboard-response,304,2067650,0.0-17.0-2.19,7484,List2B,black,woman,,,,null,,,,
9896,,,survey-text,305,2077551,0.0-17.0-3.19,7484,List2B,black,woman,,,,,"{""Q0"":""mike is talking to luke""}","<img src=""stim_listB/talk5.gif""</stim_listB>",is talking to,
17531,"<img src='img/portrait_matrix_list2.JPG' style='width:900px;height:500px;''></img><p>If you have memorised all the portraits and names and are ready to start, press Continue.</p><p><strong>Please note: Your memory of these faces will be tested 4 times during this experiment.</strong></p>",0,html-button-response,306,2095087,0.0-18.0-0.0,7484,List2B,black,woman,,,,,,,,
6922,"<img src=""portrait/WW1.jpg""style=""width:400px;height:400px;""></img>",1,html-button-response,307,2103034,0.0-18.0-1.0,7484,List2B,black,woman,,TRUE,1,,,,,
null,CORRECT,,html-keyboard-response,308,2104555,0.0-18.0-2.0-0.0,7484,List2B,black,woman,,,,null,,,,
3159,"<img src=""portrait/BM2.jpg""style=""width:400px;height:400px;""></img>",5,html-button-response,309,2107723,0.0-18.0-4.0,7484,List2B,black,woman,,TRUE,5,,,,,
null,CORRECT,,html-keyboard-response,310,2109259,0.0-18.0-5.0-0.0,7484,List2B,black,woman,,,,null,,,,
6728,"<img src=""portrait/WW2.jpg""style=""width:400px;height:400px;""></img>",3,html-button-response,311,2115997,0.0-18.0-7.0,7484,List2B,black,woman,,TRUE,3,,,,,
null,CORRECT,,html-keyboard-response,312,2117517,0.0-18.0-8.0-0.0,7484,List2B,black,woman,,,,null,,,,
4008,"<img src=""portrait/BW1.jpg""style=""width:400px;height:400px;""></img>",0,html-button-response,313,2121534,0.0-18.0-10.0,7484,List2B,black,woman,,TRUE,0,,,,,
null,CORRECT,,html-keyboard-response,314,2123064,0.0-18.0-11.0-0.0,7484,List2B,black,woman,,,,null,,,,
1831,"<img src=""portrait/BM1.jpg""style=""width:400px;height:400px;""></img>",4,html-button-response,315,2124904,0.0-18.0-13.0,7484,List2B,black,woman,,TRUE,4,,,,,
null,CORRECT,,html-keyboard-response,316,2126413,0.0-18.0-14.0-0.0,7484,List2B,black,woman,,,,null,,,,
1750,"<img src=""portrait/WM2.jpg""style=""width:400px;height:400px;""></img>",7,html-button-response,317,2128168,0.0-18.0-16.0,7484,List2B,black,woman,,TRUE,7,,,,,
null,CORRECT,,html-keyboard-response,318,2129689,0.0-18.0-17.0-0.0,7484,List2B,black,woman,,,,null,,,,
3992,"<img src=""portrait/BW2.jpg""style=""width:400px;height:400px;""></img>",2,html-button-response,319,2133690,0.0-18.0-19.0,7484,List2B,black,woman,,TRUE,2,,,,,
null,CORRECT,,html-keyboard-response,320,2135199,0.0-18.0-20.0-0.0,7484,List2B,black,woman,,,,null,,,,
3066,"<img src=""portrait/WM1.jpg""style=""width:400px;height:400px;""></img>",6,html-button-response,321,2138275,0.0-18.0-22.0,7484,List2B,black,woman,,TRUE,6,,,,,
null,CORRECT,,html-keyboard-response,322,2139812,0.0-18.0-23.0-0.0,7484,List2B,black,woman,,,,null,,,,
1866,<p>You got 8 out of 8 right first time. Press Continue.</p>,0,html-button-response,323,2141691,0.0-18.0-25.0,7484,List2B,black,woman,,,,,,,,
null,"<div style=""font-size:60px;"">+</div>",,html-keyboard-response,324,2143211,0.0-19.0-0.0,7484,List2B,black,woman,,,,null,,,,
null,"<img src=""stim_listB/meet2.gif""</stim_listB>",,html-keyboard-response,325,2145230,0.0-19.0-1.0,7484,List2B,black,woman,,,,null,,,,
null,are meeting each other,,html-keyboard-response,326,2147250,0.0-19.0-2.0,7484,List2B,black,woman,,,,null,,,,
19148,,,survey-text,327,2166402,0.0-19.0-3.0,7484,List2B,black,woman,,,,,"{""Q0"":""luke and ruth are meeting each other""}","<img src=""stim_listB/meet2.gif""</stim_listB>",are meeting each other,
null,"<div style=""font-size:60px;"">+</div>",,html-keyboard-response,328,2166919,0.0-19.0-0.1,7484,List2B,black,woman,,,,null,,,,
null,"<img src=""stim_listB/touch8.gif""</stim_listB>",,html-keyboard-response,329,2168929,0.0-19.0-1.1,7484,List2B,black,woman,,,,null,,,,
null,are touching each other,,html-keyboard-response,330,2170934,0.0-19.0-2.1,7484,List2B,black,woman,,,,null,,,,
22216,,,survey-text,331,2193154,0.0-19.0-3.1,7484,List2B,black,woman,,,,,"{""Q0"":""ruth and beth are touching each other""}","<img src=""stim_listB/touch8.gif""</stim_listB>",are touching each other,
null,"<div style=""font-size:60px;"">+</div>",,html-keyboard-response,332,2193659,0.0-19.0-0.2,7484,List2B,black,woman,,,,null,,,,
null,"<img src=""stim_listB/talk1.gif""</stim_listB>",,html-keyboard-response,333,2195675,0.0-19.0-1.2,7484,List2B,black,woman,,,,null,,,,
null,is talking to,,html-keyboard-response,334,2197694,0.0-19.0-2.2,7484,List2B,black,woman,,,,null,,,,
13779,,,survey-text,335,2211477,0.0-19.0-3.2,7484,List2B,black,woman,,,,,"{""Q0"":""jane is talking to luke""}","<img src=""stim_listB/talk1.gif""</stim_listB>",is talking to,
null,"<div style=""font-size:60px;"">+</div>",,html-keyboard-response,336,2211994,0.0-19.0-0.3,7484,List2B,black,woman,,,,null,,,,
null,"<img src=""stim_listB/dance4.gif""</stim_listB>",,html-keyboard-response,337,2214021,0.0-19.0-1.3,7484,List2B,black,woman,,,,null,,,,
null,are dancing with each other,,html-keyboard-response,338,2216027,0.0-19.0-2.3,7484,List2B,black,woman,,,,null,,,,
17267,,,survey-text,339,2233299,0.0-19.0-3.3,7484,List2B,black,woman,,,,,"{""Q0"":""mike and beth are dancing with each other""}","<img src=""stim_listB/dance4.gif""</stim_listB>",are dancing with each other,
null,"<div style=""font-size:60px;"">+</div>",,html-keyboard-response,340,2233814,0.0-19.0-0.4,7484,List2B,black,woman,,,,null,,,,
null,"<img src=""stim_listB/touch3.gif""</stim_listB>",,html-keyboard-response,341,2235835,0.0-19.0-1.4,7484,List2B,black,woman,,,,null,,,,
null,is touching,,html-keyboard-response,342,2237852,0.0-19.0-2.4,7484,List2B,black,woman,,,,null,,,,
14786,,,survey-text,343,2252644,0.0-19.0-3.4,7484,List2B,black,woman,,,,,"{""Q0"":""kate is touching mike ""}","<img src=""stim_listB/touch3.gif""</stim_listB>",is touching,
null,"<div style=""font-size:60px;"">+</div>",,html-keyboard-response,344,2253160,0.0-19.0-0.5,7484,List2B,black,woman,,,,null,,,,
null,"<img src=""stim_listB/argue6.gif""</stim_listB>",,html-keyboard-response,345,2255177,0.0-19.0-1.5,7484,List2B,black,woman,,,,null,,,,
null,are arguing with each other,,html-keyboard-response,346,2257190,0.0-19.0-2.5,7484,List2B,black,woman,,,,null,,,,
19410,,,survey-text,347,2276605,0.0-19.0-3.5,7484,List2B,black,woman,,,,,"{""Q0"":""luke and mike are arguing with each other""}","<img src=""stim_listB/argue6.gif""</stim_listB>",are arguing with each other,
null,"<div style=""font-size:60px;"">+</div>",,html-keyboard-response,348,2277124,0.0-19.0-0.6,7484,List2B,black,woman,,,,null,,,,
null,"<img src=""stim_listB/fight1.gif""</stim_listB>",,html-keyboard-response,349,2279144,0.0-19.0-1.6,7484,List2B,black,woman,,,,null,,,,
null,is fighting,,html-keyboard-response,350,2281161,0.0-19.0-2.6,7484,List2B,black,woman,,,,null,,,,
12199,,,survey-text,351,2293366,0.0-19.0-3.6,7484,List2B,black,woman,,,,,"{""Q0"":""jane is fighting dave""}","<img src=""stim_listB/fight1.gif""</stim_listB>",is fighting,
null,"<div style=""font-size:60px;"">+</div>",,html-keyboard-response,352,2293872,0.0-19.0-0.7,7484,List2B,black,woman,,,,null,,,,
null,"<img src=""stim_listB/shout5.gif""</stim_listB>",,html-keyboard-response,353,2295888,0.0-19.0-1.7,7484,List2B,black,woman,,,,null,,,,
null,is shouting at,,html-keyboard-response,354,2297896,0.0-19.0-2.7,7484,List2B,black,woman,,,,null,,,,
24903,,,survey-text,355,2322803,0.0-19.0-3.7,7484,List2B,black,woman,,,,,"{""Q0"":""fred is shouting at dave""}","<img src=""stim_listB/shout5.gif""</stim_listB>",is shouting at,
null,"<div style=""font-size:60px;"">+</div>",,html-keyboard-response,356,2323316,0.0-19.0-0.8,7484,List2B,black,woman,,,,null,,,,
null,"<img src=""stim_listB/argue2.gif""</stim_listB>",,html-keyboard-response,357,2325337,0.0-19.0-1.8,7484,List2B,black,woman,,,,null,,,,
null,are arguing with each other,,html-keyboard-response,358,2327351,0.0-19.0-2.8,7484,List2B,black,woman,,,,null,,,,
16479,,,survey-text,359,2343836,0.0-19.0-3.8,7484,List2B,black,woman,,,,,"{""Q0"":""luke and jane are arguin with each other""}","<img src=""stim_listB/argue2.gif""</stim_listB>",are arguing with each other,
null,"<div style=""font-size:60px;"">+</div>",,html-keyboard-response,360,2344364,0.0-19.0-0.9,7484,List2B,black,woman,,,,null,,,,
null,"<img src=""stim_listB/shout6.gif""</stim_listB>",,html-keyboard-response,361,2346386,0.0-19.0-1.9,7484,List2B,black,woman,,,,null,,,,
null,are shouting at each other,,html-keyboard-response,362,2348406,0.0-19.0-2.9,7484,List2B,black,woman,,,,null,,,,
31463,,,survey-text,363,2379874,0.0-19.0-3.9,7484,List2B,black,woman,,,,,"{""Q0"":""luke and beth are touching each other""}","<img src=""stim_listB/shout6.gif""</stim_listB>",are shouting at each other,
null,"<div style=""font-size:60px;"">+</div>",,html-keyboard-response,364,2380386,0.0-19.0-0.10,7484,List2B,black,woman,,,,null,,,,
null,"<img src=""stim_listB/marry6.gif""</stim_listB>",,html-keyboard-response,365,2382408,0.0-19.0-1.10,7484,List2B,black,woman,,,,null,,,,
null,are marrying each other,,html-keyboard-response,366,2384427,0.0-19.0-2.10,7484,List2B,black,woman,,,,null,,,,
16477,,,survey-text,367,2400908,0.0-19.0-3.10,7484,List2B,black,woman,,,,,"{""Q0"":""luke and mike are marrying each other""}","<img src=""stim_listB/marry6.gif""</stim_listB>",are marrying each other,
null,"<div style=""font-size:60px;"">+</div>",,html-keyboard-response,368,2401425,0.0-19.0-0.11,7484,List2B,black,woman,,,,null,,,,
null,"<img src=""stim_listB/fight6.gif""</stim_listB>",,html-keyboard-response,369,2403441,0.0-19.0-1.11,7484,List2B,black,woman,,,,null,,,,
null,are fighting each other,,html-keyboard-response,370,2405446,0.0-19.0-2.11,7484,List2B,black,woman,,,,null,,,,
14881,,,survey-text,371,2420333,0.0-19.0-3.11,7484,List2B,black,woman,,,,,"{""Q0"":""luke and fred are fighting each other""}","<img src=""stim_listB/fight6.gif""</stim_listB>",are fighting each other,
null,"<div style=""font-size:60px;"">+</div>",,html-keyboard-response,372,2420841,0.0-19.0-0.12,7484,List2B,black,woman,,,,null,,,,
null,"<img src=""stim_listB/dance3.gif""</stim_listB>",,html-keyboard-response,373,2422856,0.0-19.0-1.12,7484,List2B,black,woman,,,,null,,,,
null,is dancing with,,html-keyboard-response,374,2424872,0.0-19.0-2.12,7484,List2B,black,woman,,,,null,,,,
13110,,,survey-text,375,2437988,0.0-19.0-3.12,7484,List2B,black,woman,,,,,"{""Q0"":""kate is dancing with fred""}","<img src=""stim_listB/dance3.gif""</stim_listB>",is dancing with,
null,"<div style=""font-size:60px;"">+</div>",,html-keyboard-response,376,2438496,0.0-19.0-0.13,7484,List2B,black,woman,,,,null,,,,
null,"<img src=""stim_listB/shout1.gif""</stim_listB>",,html-keyboard-response,377,2440510,0.0-19.0-1.13,7484,List2B,black,woman,,,,null,,,,
null,is shouting at,,html-keyboard-response,378,2442517,0.0-19.0-2.13,7484,List2B,black,woman,,,,null,,,,
14378,,,survey-text,379,2456902,0.0-19.0-3.13,7484,List2B,black,woman,,,,,"{""Q0"":""luke is shouting at ruth""}","<img src=""stim_listB/shout1.gif""</stim_listB>",is shouting at,
null,"<div style=""font-size:60px;"">+</div>",,html-keyboard-response,380,2457406,0.0-19.0-0.14,7484,List2B,black,woman,,,,null,,,,
null,"<img src=""stim_listB/dance2.gif""</stim_listB>",,html-keyboard-response,381,2459420,0.0-19.0-1.14,7484,List2B,black,woman,,,,null,,,,
null,are dancing with each other,,html-keyboard-response,382,2461438,0.0-19.0-2.14,7484,List2B,black,woman,,,,null,,,,
18524,,,survey-text,383,2479966,0.0-19.0-3.14,7484,List2B,black,woman,,,,,"{""Q0"":""dave and ruth are dancing with each other""}","<img src=""stim_listB/dance2.gif""</stim_listB>",are dancing with each other,
null,"<div style=""font-size:60px;"">+</div>",,html-keyboard-response,384,2480477,0.0-19.0-0.15,7484,List2B,black,woman,,,,null,,,,
null,"<img src=""stim_listB/dance7.gif""</stim_listB>",,html-keyboard-response,385,2482495,0.0-19.0-1.15,7484,List2B,black,woman,,,,null,,,,
null,is dancing with,,html-keyboard-response,386,2484502,0.0-19.0-2.15,7484,List2B,black,woman,,,,null,,,,
19893,,,survey-text,387,2504398,0.0-19.0-3.15,7484,List2B,black,woman,,,,,"{""Q0"":""kate is dancing with ruth""}","<img src=""stim_listB/dance7.gif""</stim_listB>",is dancing with,
null,"<div style=""font-size:60px;"">+</div>",,html-keyboard-response,388,2504908,0.0-19.0-0.16,7484,List2B,black,woman,,,,null,,,,
null,"<img src=""stim_listB/talk7.gif""</stim_listB>",,html-keyboard-response,389,2506914,0.0-19.0-1.16,7484,List2B,black,woman,,,,null,,,,
null,is talking to,,html-keyboard-response,390,2508925,0.0-19.0-2.16,7484,List2B,black,woman,,,,null,,,,
9550,,,survey-text,391,2518485,0.0-19.0-3.16,7484,List2B,black,woman,,,,,"{""Q0"":""ruth is talking to kate""}","<img src=""stim_listB/talk7.gif""</stim_listB>",is talking to,
null,"<div style=""font-size:60px;"">+</div>",,html-keyboard-response,392,2518994,0.0-19.0-0.17,7484,List2B,black,woman,,,,null,,,,
null,"<img src=""stim_listB/meet5.gif""</stim_listB>",,html-keyboard-response,393,2521011,0.0-19.0-1.17,7484,List2B,black,woman,,,,null,,,,
null,is meeting,,html-keyboard-response,394,2523019,0.0-19.0-2.17,7484,List2B,black,woman,,,,null,,,,
10431,,,survey-text,395,2533455,0.0-19.0-3.17,7484,List2B,black,woman,,,,,"{""Q0"":""mike is meeting dave""}","<img src=""stim_listB/meet5.gif""</stim_listB>",is meeting,
null,"<div style=""font-size:60px;"">+</div>",,html-keyboard-response,396,2533962,0.0-19.0-0.18,7484,List2B,black,woman,,,,null,,,,
null,"<img src=""stim_listB/talk2.gif""</stim_listB>",,html-keyboard-response,397,2535977,0.0-19.0-1.18,7484,List2B,black,woman,,,,null,,,,
null,are talking to each other,,html-keyboard-response,398,2537993,0.0-19.0-2.18,7484,List2B,black,woman,,,,null,,,,
16863,,,survey-text,399,2554861,0.0-19.0-3.18,7484,List2B,black,woman,,,,,"{""Q0"":""dave and ruth are talking to each other""}","<img src=""stim_listB/talk2.gif""</stim_listB>",are talking to each other,
null,"<div style=""font-size:60px;"">+</div>",,html-keyboard-response,400,2555369,0.0-19.0-0.19,7484,List2B,black,woman,,,,null,,,,
null,"<img src=""stim_listB/fight8.gif""</stim_listB>",,html-keyboard-response,401,2557378,0.0-19.0-1.19,7484,List2B,black,woman,,,,null,,,,
null,are fighting each other,,html-keyboard-response,402,2559385,0.0-19.0-2.19,7484,List2B,black,woman,,,,null,,,,
19185,,,survey-text,403,2578575,0.0-19.0-3.19,7484,List2B,black,woman,,,,,"{""Q0"":""ruth and beth are fighting each other""}","<img src=""stim_listB/fight8.gif""</stim_listB>",are fighting each other,
5196,<p>Thank you for completing that task.</p><p>The final part of this session is a short questionnaire.</p><p>Press Continue.</p>,0,html-button-response,404,2583775,0.0-20.0,7484,List2B,black,woman,,,,,,,,
38588,,,survey-text,405,2623383,0.0-21.0,7484,List2B,black,woman,,,,,"{""Q0"":""27"",""Q1"":""english"",""Q2"":""english"",""Q3"":""united states"",""Q4"":""black"",""Q5"":""female""}",,,demographics
47454,,,survey-likert,406,2670864,0.0-22.0,7484,List2B,black,woman,,,,,"{""Q0"":6,""Q1"":6,""Q2"":6,""Q3"":6,""Q4"":6,""Q5"":6,""Q6"":6,""Q7"":6,""Q8"":6,""Q9"":6,""Q10"":6,""Q11"":6,""Q12"":6,""Q13"":6}",,,likert_race
34520,,,survey-likert,407,2705407,0.0-23.0,7484,List2B,black,woman,,,,,"{""Q0"":6,""Q1"":6,""Q2"":6,""Q3"":6,""Q4"":6,""Q5"":6,""Q6"":6,""Q7"":6,""Q8"":6,""Q9"":6,""Q10"":6,""Q11"":6,""Q12"":6,""Q13"":6}",,,likert_gender
7915,,,survey-text,408,2713328,0.0-24.0,7484,List2B,black,woman,,,,,"{""Q0"":""ccc""}",,,worker_id
31560,,,external-html,409,2745349,0.0-25.0,7484,List2B,black,woman,debrief.html,,,,,,,
