rt,stimulus,button_pressed,trial_type,trial_index,time_elapsed,internal_node_id,subject,list,ppt_race,ppt_gender,url,first_guess,correct,key_press,responses,image_type,phrase_type,test_part
3707,Welcome to the experiment. Press Continue to begin.,0,html-button-response,0,3712,0.0-0.0,75147,List2B,white,man,,,,,,,,
17168,,,external-html,1,22007,0.0-1.0,75147,List2B,white,man,consent.html,,,,,,,
25268,"<p>On the next page, you will see portraits of 8 people and their names.</p><p>Your first task is to take a few minutes to memorise the names of these people.</p><p>You will have to recall their names during the rest of the experiment, so it is</p><p>essential that you try to memorise these people and their names as best as you can.</p><br><p><strong>You will then be tested on your memory of these names and portraits.</strong></p><br><p>The experiment will start after you have completed this memory test.</p><br><p>Ready?</p>",0,html-button-response,2,47279,0.0-2.0,75147,List2B,white,man,,,,,,,,
14743,"<img src='img/portrait_matrix_list2.JPG' style='width:900px;height:500px;''></img><p>If you have memorised all the portraits and names and are ready to start, press Continue.</p><p><strong>Please note: Your memory of these faces will be tested 4 times during this experiment.</strong></p>",0,html-button-response,3,63027,0.0-3.0-0.0,75147,List2B,white,man,,,,,,,,
9226,"<img src=""portrait/WW1.jpg""style=""width:400px;height:400px;""></img>",1,html-button-response,4,73258,0.0-3.0-1.0,75147,List2B,white,man,,TRUE,1,,,,,
null,CORRECT,,html-keyboard-response,5,74766,0.0-3.0-2.0-0.0,75147,List2B,white,man,,,,null,,,,
4039,"<img src=""portrait/WM1.jpg""style=""width:400px;height:400px;""></img>",6,html-button-response,6,78810,0.0-3.0-4.0,75147,List2B,white,man,,TRUE,6,,,,,
null,CORRECT,,html-keyboard-response,7,80315,0.0-3.0-5.0-0.0,75147,List2B,white,man,,,,null,,,,
4445,"<img src=""portrait/WW2.jpg""style=""width:400px;height:400px;""></img>",3,html-button-response,8,84764,0.0-3.0-7.0,75147,List2B,white,man,,TRUE,3,,,,,
null,CORRECT,,html-keyboard-response,9,86268,0.0-3.0-8.0-0.0,75147,List2B,white,man,,,,null,,,,
3595,"<img src=""portrait/WM2.jpg""style=""width:400px;height:400px;""></img>",7,html-button-response,10,89868,0.0-3.0-10.0,75147,List2B,white,man,,TRUE,7,,,,,
null,CORRECT,,html-keyboard-response,11,91372,0.0-3.0-11.0-0.0,75147,List2B,white,man,,,,null,,,,
3427,"<img src=""portrait/BM1.jpg""style=""width:400px;height:400px;""></img>",4,html-button-response,12,94803,0.0-3.0-13.0,75147,List2B,white,man,,TRUE,4,,,,,
null,CORRECT,,html-keyboard-response,13,96307,0.0-3.0-14.0-0.0,75147,List2B,white,man,,,,null,,,,
4003,"<img src=""portrait/BW1.jpg""style=""width:400px;height:400px;""></img>",0,html-button-response,14,100314,0.0-3.0-16.0,75147,List2B,white,man,,TRUE,0,,,,,
null,CORRECT,,html-keyboard-response,15,101818,0.0-3.0-17.0-0.0,75147,List2B,white,man,,,,null,,,,
3087,"<img src=""portrait/BM2.jpg""style=""width:400px;height:400px;""></img>",5,html-button-response,16,104909,0.0-3.0-19.0,75147,List2B,white,man,,TRUE,5,,,,,
null,CORRECT,,html-keyboard-response,17,106413,0.0-3.0-20.0-0.0,75147,List2B,white,man,,,,null,,,,
3728,"<img src=""portrait/BW2.jpg""style=""width:400px;height:400px;""></img>",2,html-button-response,18,110145,0.0-3.0-22.0,75147,List2B,white,man,,TRUE,2,,,,,
null,CORRECT,,html-keyboard-response,19,111649,0.0-3.0-23.0-0.0,75147,List2B,white,man,,,,null,,,,
2860,<p>You got 8 out of 8 right first time. Press Continue.</p>,0,html-button-response,20,114514,0.0-3.0-25.0,75147,List2B,white,man,,,,,,,,
20305,"<p>In this experiment, you will view photographs of the people from the memory game interacting.</p><p>By using the <strong>exact</strong> phrase given <i>after</i> the photograph appears and recalling the correct names of the people in the photographs, form a sentence describing the interaction. You do not need to capitalise names.</p><p>Type your answer in the space provided. Please complete every sentence before moving onto the next trial.</p><p>You will only have a few seconds to memorise each given photograph and phrase before you can respond, so try your best to focus.</p><p>An example is given below. Press 'Continue' when you are ready.</p><img src='img/speaking_example_v2.jpg' style='width:800px;height:460px;''></img>",0,html-button-response,21,135826,0.0-4.0,75147,List2B,white,man,,,,,,,,
3033,"<p>Before the experiment starts, you will watch two example trials. Press 'Continue'.</p>",0,html-button-response,22,139861,0.0-5.0,75147,List2B,white,man,,,,,,,,
null,<img src='img/speaking_WW.gif'></img>,,html-keyboard-response,23,142865,0.0-6.0,75147,List2B,white,man,,,,null,,,,
null,<p>is speaking to</p>,,html-keyboard-response,24,144868,0.0-7.0,75147,List2B,white,man,,,,null,,,,
5087,<p><b>Answer:</b> jane is speaking to ruth</p>,0,html-button-response,25,149959,0.0-8.0,75147,List2B,white,man,,,,,,,,
null,<img src='img/pointing_BM.gif'></img>,,html-keyboard-response,26,152964,0.0-9.0,75147,List2B,white,man,,,,null,,,,
null,<p>are pointing at each other</p>,,html-keyboard-response,27,154968,0.0-10.0,75147,List2B,white,man,,,,null,,,,
5352,<p><b>Answer:</b> fred and mike are pointing at each other</p>,0,html-button-response,28,160323,0.0-11.0,75147,List2B,white,man,,,,,,,,
12638,"<p>Ready to start the experiment?</p><br><p><strong>Remember to describe the picture using a full sentence,</strong></p><p><strong> that combines the names of the people with the given phrase.</strong></p><p><strong> You do not need to capitalise names or use punctuation.</strong></p><br><p>Press 'Continue' to begin.</p>",0,html-button-response,29,173964,0.0-12.0,75147,List2B,white,man,,,,,,,,
null,"<div style=""font-size:60px;"">+</div>",,html-keyboard-response,30,175468,0.0-13.0-0.0,75147,List2B,white,man,,,,null,,,,
null,"<img src=""stim_listB/kiss7.gif""</stim_listB>",,html-keyboard-response,31,177473,0.0-13.0-1.0,75147,List2B,white,man,,,,null,,,,
null,is kissing,,html-keyboard-response,32,179477,0.0-13.0-2.0,75147,List2B,white,man,,,,null,,,,
14098,,,survey-text,33,193586,0.0-13.0-3.0,75147,List2B,white,man,,,,,"{""Q0"":""Ruth is kissing beth""}","<img src=""stim_listB/kiss7.gif""</stim_listB>",is kissing,
null,"<div style=""font-size:60px;"">+</div>",,html-keyboard-response,34,194089,0.0-13.0-0.1,75147,List2B,white,man,,,,null,,,,
null,"<img src=""stim_listB/hug5.gif""</stim_listB>",,html-keyboard-response,35,196093,0.0-13.0-1.1,75147,List2B,white,man,,,,null,,,,
null,is hugging,,html-keyboard-response,36,198096,0.0-13.0-2.1,75147,List2B,white,man,,,,null,,,,
18512,,,survey-text,37,216616,0.0-13.0-3.1,75147,List2B,white,man,,,,,"{""Q0"":""Luke is hugging mike""}","<img src=""stim_listB/hug5.gif""</stim_listB>",is hugging,
null,"<div style=""font-size:60px;"">+</div>",,html-keyboard-response,38,217119,0.0-13.0-0.2,75147,List2B,white,man,,,,null,,,,
null,"<img src=""stim_listB/meet7.gif""</stim_listB>",,html-keyboard-response,39,219122,0.0-13.0-1.2,75147,List2B,white,man,,,,null,,,,
null,is meeting,,html-keyboard-response,40,221125,0.0-13.0-2.2,75147,List2B,white,man,,,,null,,,,
21201,,,survey-text,41,242329,0.0-13.0-3.2,75147,List2B,white,man,,,,,"{""Q0"":""Kate is meeting beth""}","<img src=""stim_listB/meet7.gif""</stim_listB>",is meeting,
null,"<div style=""font-size:60px;"">+</div>",,html-keyboard-response,42,242831,0.0-13.0-0.3,75147,List2B,white,man,,,,null,,,,
null,"<img src=""stim_listB/marry6.gif""</stim_listB>",,html-keyboard-response,43,244834,0.0-13.0-1.3,75147,List2B,white,man,,,,null,,,,
null,are marrying each other,,html-keyboard-response,44,246837,0.0-13.0-2.3,75147,List2B,white,man,,,,null,,,,
18185,,,survey-text,45,265025,0.0-13.0-3.3,75147,List2B,white,man,,,,,"{""Q0"":""Luke and mike are marrying each other""}","<img src=""stim_listB/marry6.gif""</stim_listB>",are marrying each other,
null,"<div style=""font-size:60px;"">+</div>",,html-keyboard-response,46,265527,0.0-13.0-0.4,75147,List2B,white,man,,,,null,,,,
null,"<img src=""stim_listB/argue4.gif""</stim_listB>",,html-keyboard-response,47,267531,0.0-13.0-1.4,75147,List2B,white,man,,,,null,,,,
null,are arguing with each other,,html-keyboard-response,48,269535,0.0-13.0-2.4,75147,List2B,white,man,,,,null,,,,
22742,,,survey-text,49,292280,0.0-13.0-3.4,75147,List2B,white,man,,,,,"{""Q0"":""Kate and Fred are arguing with each other ""}","<img src=""stim_listB/argue4.gif""</stim_listB>",are arguing with each other,
null,"<div style=""font-size:60px;"">+</div>",,html-keyboard-response,50,292783,0.0-13.0-0.5,75147,List2B,white,man,,,,null,,,,
null,"<img src=""stim_listB/dance4.gif""</stim_listB>",,html-keyboard-response,51,294787,0.0-13.0-1.5,75147,List2B,white,man,,,,null,,,,
null,are dancing with each other,,html-keyboard-response,52,296791,0.0-13.0-2.5,75147,List2B,white,man,,,,null,,,,
16675,,,survey-text,53,313468,0.0-13.0-3.5,75147,List2B,white,man,,,,,"{""Q0"":""Beth and mike are dancing with each other""}","<img src=""stim_listB/dance4.gif""</stim_listB>",are dancing with each other,
null,"<div style=""font-size:60px;"">+</div>",,html-keyboard-response,54,313971,0.0-13.0-0.6,75147,List2B,white,man,,,,null,,,,
null,"<img src=""stim_listB/hug2.gif""</stim_listB>",,html-keyboard-response,55,315974,0.0-13.0-1.6,75147,List2B,white,man,,,,null,,,,
null,are hugging each other,,html-keyboard-response,56,317978,0.0-13.0-2.6,75147,List2B,white,man,,,,null,,,,
32609,,,survey-text,57,350592,0.0-13.0-3.6,75147,List2B,white,man,,,,,"{""Q0"":""Jane and Dave are dancing with each other ""}","<img src=""stim_listB/hug2.gif""</stim_listB>",are hugging each other,
null,"<div style=""font-size:60px;"">+</div>",,html-keyboard-response,58,351095,0.0-13.0-0.7,75147,List2B,white,man,,,,null,,,,
null,"<img src=""stim_listB/fight5.gif""</stim_listB>",,html-keyboard-response,59,353099,0.0-13.0-1.7,75147,List2B,white,man,,,,null,,,,
null,is fighting,,html-keyboard-response,60,355103,0.0-13.0-2.7,75147,List2B,white,man,,,,null,,,,
15372,,,survey-text,61,370478,0.0-13.0-3.7,75147,List2B,white,man,,,,,"{""Q0"":""Dave is fighting mike""}","<img src=""stim_listB/fight5.gif""</stim_listB>",is fighting,
null,"<div style=""font-size:60px;"">+</div>",,html-keyboard-response,62,370981,0.0-13.0-0.8,75147,List2B,white,man,,,,null,,,,
null,"<img src=""stim_listB/touch7.gif""</stim_listB>",,html-keyboard-response,63,372984,0.0-13.0-1.8,75147,List2B,white,man,,,,null,,,,
null,is touching,,html-keyboard-response,64,374987,0.0-13.0-2.8,75147,List2B,white,man,,,,null,,,,
28722,,,survey-text,65,403713,0.0-13.0-3.8,75147,List2B,white,man,,,,,"{""Q0"":""Jane is touching ruth""}","<img src=""stim_listB/touch7.gif""</stim_listB>",is touching,
null,"<div style=""font-size:60px;"">+</div>",,html-keyboard-response,66,404216,0.0-13.0-0.9,75147,List2B,white,man,,,,null,,,,
null,"<img src=""stim_listB/argue1.gif""</stim_listB>",,html-keyboard-response,67,406219,0.0-13.0-1.9,75147,List2B,white,man,,,,null,,,,
null,is arguing with,,html-keyboard-response,68,408223,0.0-13.0-2.9,75147,List2B,white,man,,,,null,,,,
18474,,,survey-text,69,426699,0.0-13.0-3.9,75147,List2B,white,man,,,,,"{""Q0"":""Dave is arguing with ruth""}","<img src=""stim_listB/argue1.gif""</stim_listB>",is arguing with,
null,"<div style=""font-size:60px;"">+</div>",,html-keyboard-response,70,427202,0.0-13.0-0.10,75147,List2B,white,man,,,,null,,,,
null,"<img src=""stim_listB/argue3.gif""</stim_listB>",,html-keyboard-response,71,429204,0.0-13.0-1.10,75147,List2B,white,man,,,,null,,,,
null,is arguing with,,html-keyboard-response,72,431208,0.0-13.0-2.10,75147,List2B,white,man,,,,null,,,,
15822,,,survey-text,73,447033,0.0-13.0-3.10,75147,List2B,white,man,,,,,"{""Q0"":""Beth is arguing with mike""}","<img src=""stim_listB/argue3.gif""</stim_listB>",is arguing with,
null,"<div style=""font-size:60px;"">+</div>",,html-keyboard-response,74,447535,0.0-13.0-0.11,75147,List2B,white,man,,,,null,,,,
null,"<img src=""stim_listB/kiss8.gif""</stim_listB>",,html-keyboard-response,75,449542,0.0-13.0-1.11,75147,List2B,white,man,,,,null,,,,
null,are kissing each other,,html-keyboard-response,76,451545,0.0-13.0-2.11,75147,List2B,white,man,,,,null,,,,
21665,,,survey-text,77,473219,0.0-13.0-3.11,75147,List2B,white,man,,,,,"{""Q0"":"" Kate and Ruth are kissing each other ""}","<img src=""stim_listB/kiss8.gif""</stim_listB>",are kissing each other,
null,"<div style=""font-size:60px;"">+</div>",,html-keyboard-response,78,473723,0.0-13.0-0.12,75147,List2B,white,man,,,,null,,,,
null,"<img src=""stim_listB/hug7.gif""</stim_listB>",,html-keyboard-response,79,475726,0.0-13.0-1.12,75147,List2B,white,man,,,,null,,,,
null,is hugging,,html-keyboard-response,80,477730,0.0-13.0-2.12,75147,List2B,white,man,,,,null,,,,
19932,,,survey-text,81,497666,0.0-13.0-3.12,75147,List2B,white,man,,,,,"{""Q0"":"" Jane is hugging Ruth ""}","<img src=""stim_listB/hug7.gif""</stim_listB>",is hugging,
null,"<div style=""font-size:60px;"">+</div>",,html-keyboard-response,82,498169,0.0-13.0-0.13,75147,List2B,white,man,,,,null,,,,
null,"<img src=""stim_listB/shout5.gif""</stim_listB>",,html-keyboard-response,83,500172,0.0-13.0-1.13,75147,List2B,white,man,,,,null,,,,
null,is shouting at,,html-keyboard-response,84,502175,0.0-13.0-2.13,75147,List2B,white,man,,,,null,,,,
23153,,,survey-text,85,525331,0.0-13.0-3.13,75147,List2B,white,man,,,,,"{""Q0"":"" Luke is shouting at mike""}","<img src=""stim_listB/shout5.gif""</stim_listB>",is shouting at,
null,"<div style=""font-size:60px;"">+</div>",,html-keyboard-response,86,525833,0.0-13.0-0.14,75147,List2B,white,man,,,,null,,,,
null,"<img src=""stim_listB/meet5.gif""</stim_listB>",,html-keyboard-response,87,527836,0.0-13.0-1.14,75147,List2B,white,man,,,,null,,,,
null,is meeting,,html-keyboard-response,88,529840,0.0-13.0-2.14,75147,List2B,white,man,,,,null,,,,
14025,,,survey-text,89,543868,0.0-13.0-3.14,75147,List2B,white,man,,,,,"{""Q0"":"" Mike is meeting Dave ""}","<img src=""stim_listB/meet5.gif""</stim_listB>",is meeting,
null,"<div style=""font-size:60px;"">+</div>",,html-keyboard-response,90,544370,0.0-13.0-0.15,75147,List2B,white,man,,,,null,,,,
null,"<img src=""stim_listB/marry3.gif""</stim_listB>",,html-keyboard-response,91,546372,0.0-13.0-1.15,75147,List2B,white,man,,,,null,,,,
null,is marrying,,html-keyboard-response,92,548376,0.0-13.0-2.15,75147,List2B,white,man,,,,null,,,,
10280,,,survey-text,93,558658,0.0-13.0-3.15,75147,List2B,white,man,,,,,"{""Q0"":"" Mike is marrying Beth ""}","<img src=""stim_listB/marry3.gif""</stim_listB>",is marrying,
null,"<div style=""font-size:60px;"">+</div>",,html-keyboard-response,94,559160,0.0-13.0-0.16,75147,List2B,white,man,,,,null,,,,
null,"<img src=""stim_listB/marry4.gif""</stim_listB>",,html-keyboard-response,95,561164,0.0-13.0-1.16,75147,List2B,white,man,,,,null,,,,
null,are marrying each other,,html-keyboard-response,96,563167,0.0-13.0-2.16,75147,List2B,white,man,,,,null,,,,
18787,,,survey-text,97,581956,0.0-13.0-3.16,75147,List2B,white,man,,,,,"{""Q0"":"" Katie is marrying Dave ""}","<img src=""stim_listB/marry4.gif""</stim_listB>",are marrying each other,
null,"<div style=""font-size:60px;"">+</div>",,html-keyboard-response,98,582458,0.0-13.0-0.17,75147,List2B,white,man,,,,null,,,,
null,"<img src=""stim_listB/kiss4.gif""</stim_listB>",,html-keyboard-response,99,584462,0.0-13.0-1.17,75147,List2B,white,man,,,,null,,,,
null,are kissing each other,,html-keyboard-response,100,586465,0.0-13.0-2.17,75147,List2B,white,man,,,,null,,,,
13225,,,survey-text,101,599694,0.0-13.0-3.17,75147,List2B,white,man,,,,,"{""Q0"":"" Kate and Mike are kissing each other ""}","<img src=""stim_listB/kiss4.gif""</stim_listB>",are kissing each other,
null,"<div style=""font-size:60px;"">+</div>",,html-keyboard-response,102,600197,0.0-13.0-0.18,75147,List2B,white,man,,,,null,,,,
null,"<img src=""stim_listB/shout8.gif""</stim_listB>",,html-keyboard-response,103,602200,0.0-13.0-1.18,75147,List2B,white,man,,,,null,,,,
null,are shouting at each other,,html-keyboard-response,104,604204,0.0-13.0-2.18,75147,List2B,white,man,,,,null,,,,
10920,,,survey-text,105,615128,0.0-13.0-3.18,75147,List2B,white,man,,,,,"{""Q0"":"" Kate and Beth are shouting at each other ""}","<img src=""stim_listB/shout8.gif""</stim_listB>",are shouting at each other,
null,"<div style=""font-size:60px;"">+</div>",,html-keyboard-response,106,615631,0.0-13.0-0.19,75147,List2B,white,man,,,,null,,,,
null,"<img src=""stim_listB/marry1.gif""</stim_listB>",,html-keyboard-response,107,617634,0.0-13.0-1.19,75147,List2B,white,man,,,,null,,,,
null,is marrying,,html-keyboard-response,108,619637,0.0-13.0-2.19,75147,List2B,white,man,,,,null,,,,
24436,,,survey-text,109,644076,0.0-13.0-3.19,75147,List2B,white,man,,,,,"{""Q0"":"" Dave is marrying Jane""}","<img src=""stim_listB/marry1.gif""</stim_listB>",is marrying,
16070,"<img src='img/portrait_matrix_list2.JPG' style='width:900px;height:500px;''></img><p>If you have memorised all the portraits and names and are ready to start, press Continue.</p><p><strong>Please note: Your memory of these faces will be tested 4 times during this experiment.</strong></p>",0,html-button-response,110,660156,0.0-14.0-0.0,75147,List2B,white,man,,,,,,,,
6406,"<img src=""portrait/BW2.jpg""style=""width:400px;height:400px;""></img>",2,html-button-response,111,667569,0.0-14.0-1.0,75147,List2B,white,man,,TRUE,2,,,,,
null,CORRECT,,html-keyboard-response,112,669074,0.0-14.0-2.0-0.0,75147,List2B,white,man,,,,null,,,,
3366,"<img src=""portrait/BM1.jpg""style=""width:400px;height:400px;""></img>",4,html-button-response,113,672447,0.0-14.0-4.0,75147,List2B,white,man,,TRUE,4,,,,,
null,CORRECT,,html-keyboard-response,114,673951,0.0-14.0-5.0-0.0,75147,List2B,white,man,,,,null,,,,
9311,"<img src=""portrait/WW2.jpg""style=""width:400px;height:400px;""></img>",1,html-button-response,115,683270,0.0-14.0-7.0,75147,List2B,white,man,,TRUE,3,,,,,
3555,"<img src=""portrait/WW2.jpg""style=""width:400px;height:400px;""></img>",3,html-button-response,116,687831,0.0-14.0-9.0-0.0,75147,List2B,white,man,,FALSE,3,,,,,
null,CORRECT,,html-keyboard-response,117,689336,0.0-14.0-9.0-1.0-0.0,75147,List2B,white,man,,,,null,,,,
4474,"<img src=""portrait/BM2.jpg""style=""width:400px;height:400px;""></img>",5,html-button-response,118,693817,0.0-14.0-10.0,75147,List2B,white,man,,TRUE,5,,,,,
null,CORRECT,,html-keyboard-response,119,695321,0.0-14.0-11.0-0.0,75147,List2B,white,man,,,,null,,,,
4234,"<img src=""portrait/BW1.jpg""style=""width:400px;height:400px;""></img>",0,html-button-response,120,699562,0.0-14.0-13.0,75147,List2B,white,man,,TRUE,0,,,,,
null,CORRECT,,html-keyboard-response,121,701066,0.0-14.0-14.0-0.0,75147,List2B,white,man,,,,null,,,,
5246,"<img src=""portrait/WM2.jpg""style=""width:400px;height:400px;""></img>",7,html-button-response,122,706325,0.0-14.0-16.0,75147,List2B,white,man,,TRUE,7,,,,,
null,CORRECT,,html-keyboard-response,123,707829,0.0-14.0-17.0-0.0,75147,List2B,white,man,,,,null,,,,
3774,"<img src=""portrait/WM1.jpg""style=""width:400px;height:400px;""></img>",6,html-button-response,124,711610,0.0-14.0-19.0,75147,List2B,white,man,,TRUE,6,,,,,
null,CORRECT,,html-keyboard-response,125,713115,0.0-14.0-20.0-0.0,75147,List2B,white,man,,,,null,,,,
4359,"<img src=""portrait/WW1.jpg""style=""width:400px;height:400px;""></img>",1,html-button-response,126,717480,0.0-14.0-22.0,75147,List2B,white,man,,TRUE,1,,,,,
null,CORRECT,,html-keyboard-response,127,718984,0.0-14.0-23.0-0.0,75147,List2B,white,man,,,,null,,,,
2128,<p>You got 7 out of 8 right first time. Press Continue.</p>,0,html-button-response,128,721115,0.0-14.0-25.0,75147,List2B,white,man,,,,,,,,
4541,"As you did not score 100%, the memory game will repeat. Press Continue.",0,html-button-response,129,726660,0.0-14.0-26.0-0.0,75147,List2B,white,man,,,,,,,,
1913,"<img src='img/portrait_matrix_list2.JPG' style='width:900px;height:500px;''></img><p>If you have memorised all the portraits and names and are ready to start, press Continue.</p><p><strong>Please note: Your memory of these faces will be tested 4 times during this experiment.</strong></p>",0,html-button-response,130,729579,0.0-14.1-0.1,75147,List2B,white,man,,,,,,,,
3256,"<img src=""portrait/BW2.jpg""style=""width:400px;height:400px;""></img>",2,html-button-response,131,733840,0.0-14.1-1.1,75147,List2B,white,man,,TRUE,2,,,,,
null,CORRECT,,html-keyboard-response,132,735344,0.0-14.1-2.1-0.1,75147,List2B,white,man,,,,null,,,,
4287,"<img src=""portrait/BM1.jpg""style=""width:400px;height:400px;""></img>",4,html-button-response,133,739634,0.0-14.1-4.1,75147,List2B,white,man,,TRUE,4,,,,,
null,CORRECT,,html-keyboard-response,134,741138,0.0-14.1-5.1-0.1,75147,List2B,white,man,,,,null,,,,
4304,"<img src=""portrait/WW2.jpg""style=""width:400px;height:400px;""></img>",3,html-button-response,135,745447,0.0-14.1-7.1,75147,List2B,white,man,,TRUE,3,,,,,
null,CORRECT,,html-keyboard-response,136,746951,0.0-14.1-8.1-0.1,75147,List2B,white,man,,,,null,,,,
2203,"<img src=""portrait/BM2.jpg""style=""width:400px;height:400px;""></img>",5,html-button-response,137,749157,0.0-14.1-10.1,75147,List2B,white,man,,TRUE,5,,,,,
null,CORRECT,,html-keyboard-response,138,750661,0.0-14.1-11.1-0.1,75147,List2B,white,man,,,,null,,,,
3720,"<img src=""portrait/BW1.jpg""style=""width:400px;height:400px;""></img>",0,html-button-response,139,754384,0.0-14.1-13.1,75147,List2B,white,man,,TRUE,0,,,,,
null,CORRECT,,html-keyboard-response,140,755888,0.0-14.1-14.1-0.1,75147,List2B,white,man,,,,null,,,,
3037,"<img src=""portrait/WM2.jpg""style=""width:400px;height:400px;""></img>",7,html-button-response,141,758929,0.0-14.1-16.1,75147,List2B,white,man,,TRUE,7,,,,,
null,CORRECT,,html-keyboard-response,142,760433,0.0-14.1-17.1-0.1,75147,List2B,white,man,,,,null,,,,
5521,"<img src=""portrait/WM1.jpg""style=""width:400px;height:400px;""></img>",6,html-button-response,143,765958,0.0-14.1-19.1,75147,List2B,white,man,,TRUE,6,,,,,
null,CORRECT,,html-keyboard-response,144,767462,0.0-14.1-20.1-0.1,75147,List2B,white,man,,,,null,,,,
5137,"<img src=""portrait/WW1.jpg""style=""width:400px;height:400px;""></img>",1,html-button-response,145,772603,0.0-14.1-22.1,75147,List2B,white,man,,TRUE,1,,,,,
null,CORRECT,,html-keyboard-response,146,774107,0.0-14.1-23.1-0.1,75147,List2B,white,man,,,,null,,,,
1402,<p>You got 8 out of 8 right first time. Press Continue.</p>,0,html-button-response,147,775512,0.0-14.1-25.1,75147,List2B,white,man,,,,,,,,
null,"<div style=""font-size:60px;"">+</div>",,html-keyboard-response,148,777025,0.0-15.0-0.0,75147,List2B,white,man,,,,null,,,,
null,"<img src=""stim_listB/meet1.gif""</stim_listB>",,html-keyboard-response,149,779030,0.0-15.0-1.0,75147,List2B,white,man,,,,null,,,,
null,is meeting,,html-keyboard-response,150,781033,0.0-15.0-2.0,75147,List2B,white,man,,,,null,,,,
10462,,,survey-text,151,791498,0.0-15.0-3.0,75147,List2B,white,man,,,,,"{""Q0"":"" Jane is meeting Dave ""}","<img src=""stim_listB/meet1.gif""</stim_listB>",is meeting,
null,"<div style=""font-size:60px;"">+</div>",,html-keyboard-response,152,792000,0.0-15.0-0.1,75147,List2B,white,man,,,,null,,,,
null,"<img src=""stim_listB/fight6.gif""</stim_listB>",,html-keyboard-response,153,794003,0.0-15.0-1.1,75147,List2B,white,man,,,,null,,,,
null,are fighting each other,,html-keyboard-response,154,796006,0.0-15.0-2.1,75147,List2B,white,man,,,,null,,,,
11897,,,survey-text,155,807904,0.0-15.0-3.1,75147,List2B,white,man,,,,,"{""Q0"":"" Luke and Fred are fighting each other ""}","<img src=""stim_listB/fight6.gif""</stim_listB>",are fighting each other,
null,"<div style=""font-size:60px;"">+</div>",,html-keyboard-response,156,808406,0.0-15.0-0.2,75147,List2B,white,man,,,,null,,,,
null,"<img src=""stim_listB/hug8.gif""</stim_listB>",,html-keyboard-response,157,810410,0.0-15.0-1.2,75147,List2B,white,man,,,,null,,,,
null,are hugging each other,,html-keyboard-response,158,812414,0.0-15.0-2.2,75147,List2B,white,man,,,,null,,,,
9043,,,survey-text,159,821459,0.0-15.0-3.2,75147,List2B,white,man,,,,,"{""Q0"":"" Jane and Kate are hugging each other ""}","<img src=""stim_listB/hug8.gif""</stim_listB>",are hugging each other,
null,"<div style=""font-size:60px;"">+</div>",,html-keyboard-response,160,821962,0.0-15.0-0.3,75147,List2B,white,man,,,,null,,,,
null,"<img src=""stim_listB/hug3.gif""</stim_listB>",,html-keyboard-response,161,823965,0.0-15.0-1.3,75147,List2B,white,man,,,,null,,,,
null,is hugging,,html-keyboard-response,162,825968,0.0-15.0-2.3,75147,List2B,white,man,,,,null,,,,
10321,,,survey-text,163,836291,0.0-15.0-3.3,75147,List2B,white,man,,,,,"{""Q0"":"" Beth and Fred are hugging each other ""}","<img src=""stim_listB/hug3.gif""</stim_listB>",is hugging,
null,"<div style=""font-size:60px;"">+</div>",,html-keyboard-response,164,836794,0.0-15.0-0.4,75147,List2B,white,man,,,,null,,,,
null,"<img src=""stim_listB/shout7.gif""</stim_listB>",,html-keyboard-response,165,838797,0.0-15.0-1.4,75147,List2B,white,man,,,,null,,,,
null,is shouting at,,html-keyboard-response,166,840800,0.0-15.0-2.4,75147,List2B,white,man,,,,null,,,,
22544,,,survey-text,167,863349,0.0-15.0-3.4,75147,List2B,white,man,,,,,"{""Q0"":"" Beth is shouting at Jane ""}","<img src=""stim_listB/shout7.gif""</stim_listB>",is shouting at,
null,"<div style=""font-size:60px;"">+</div>",,html-keyboard-response,168,863853,0.0-15.0-0.5,75147,List2B,white,man,,,,null,,,,
null,"<img src=""stim_listB/touch5.gif""</stim_listB>",,html-keyboard-response,169,865856,0.0-15.0-1.5,75147,List2B,white,man,,,,null,,,,
null,is touching,,html-keyboard-response,170,867860,0.0-15.0-2.5,75147,List2B,white,man,,,,null,,,,
17945,,,survey-text,171,885808,0.0-15.0-3.5,75147,List2B,white,man,,,,,"{""Q0"":"" Mike is touching Dave ""}","<img src=""stim_listB/touch5.gif""</stim_listB>",is touching,
null,"<div style=""font-size:60px;"">+</div>",,html-keyboard-response,172,886310,0.0-15.0-0.6,75147,List2B,white,man,,,,null,,,,
null,"<img src=""stim_listB/touch1.gif""</stim_listB>",,html-keyboard-response,173,888314,0.0-15.0-1.6,75147,List2B,white,man,,,,null,,,,
null,is touching,,html-keyboard-response,174,890317,0.0-15.0-2.6,75147,List2B,white,man,,,,null,,,,
9002,,,survey-text,175,899321,0.0-15.0-3.6,75147,List2B,white,man,,,,,"{""Q0"":"" Jane is touching Mike ""}","<img src=""stim_listB/touch1.gif""</stim_listB>",is touching,
null,"<div style=""font-size:60px;"">+</div>",,html-keyboard-response,176,899824,0.0-15.0-0.7,75147,List2B,white,man,,,,null,,,,
null,"<img src=""stim_listB/argue7.gif""</stim_listB>",,html-keyboard-response,177,901827,0.0-15.0-1.7,75147,List2B,white,man,,,,null,,,,
null,is arguing with,,html-keyboard-response,178,903831,0.0-15.0-2.7,75147,List2B,white,man,,,,null,,,,
8551,,,survey-text,179,912384,0.0-15.0-3.7,75147,List2B,white,man,,,,,"{""Q0"":""Jane is arguing with Beth""}","<img src=""stim_listB/argue7.gif""</stim_listB>",is arguing with,
null,"<div style=""font-size:60px;"">+</div>",,html-keyboard-response,180,912888,0.0-15.0-0.8,75147,List2B,white,man,,,,null,,,,
null,"<img src=""stim_listB/talk2.gif""</stim_listB>",,html-keyboard-response,181,914891,0.0-15.0-1.8,75147,List2B,white,man,,,,null,,,,
null,are talking to each other,,html-keyboard-response,182,916895,0.0-15.0-2.8,75147,List2B,white,man,,,,null,,,,
10108,,,survey-text,183,927007,0.0-15.0-3.8,75147,List2B,white,man,,,,,"{""Q0"":"" Ruth and Dave are talking to each other ""}","<img src=""stim_listB/talk2.gif""</stim_listB>",are talking to each other,
null,"<div style=""font-size:60px;"">+</div>",,html-keyboard-response,184,927508,0.0-15.0-0.9,75147,List2B,white,man,,,,null,,,,
null,"<img src=""stim_listB/argue5.gif""</stim_listB>",,html-keyboard-response,185,929512,0.0-15.0-1.9,75147,List2B,white,man,,,,null,,,,
null,is arguing with,,html-keyboard-response,186,931516,0.0-15.0-2.9,75147,List2B,white,man,,,,null,,,,
7812,,,survey-text,187,939331,0.0-15.0-3.9,75147,List2B,white,man,,,,,"{""Q0"":"" Fred is arguing with Dave ""}","<img src=""stim_listB/argue5.gif""</stim_listB>",is arguing with,
null,"<div style=""font-size:60px;"">+</div>",,html-keyboard-response,188,939833,0.0-15.0-0.10,75147,List2B,white,man,,,,null,,,,
null,"<img src=""stim_listB/shout6.gif""</stim_listB>",,html-keyboard-response,189,941837,0.0-15.0-1.10,75147,List2B,white,man,,,,null,,,,
null,are shouting at each other,,html-keyboard-response,190,943840,0.0-15.0-2.10,75147,List2B,white,man,,,,null,,,,
34266,,,survey-text,191,978110,0.0-15.0-3.10,75147,List2B,white,man,,,,,"{""Q0"":""  Dave and Mike are shouting at each other ""}","<img src=""stim_listB/shout6.gif""</stim_listB>",are shouting at each other,
null,"<div style=""font-size:60px;"">+</div>",,html-keyboard-response,192,978612,0.0-15.0-0.11,75147,List2B,white,man,,,,null,,,,
null,"<img src=""stim_listB/talk5.gif""</stim_listB>",,html-keyboard-response,193,980615,0.0-15.0-1.11,75147,List2B,white,man,,,,null,,,,
null,is talking to,,html-keyboard-response,194,982619,0.0-15.0-2.11,75147,List2B,white,man,,,,null,,,,
7961,,,survey-text,195,990582,0.0-15.0-3.11,75147,List2B,white,man,,,,,"{""Q0"":"" Mike is talking to Luke ""}","<img src=""stim_listB/talk5.gif""</stim_listB>",is talking to,
null,"<div style=""font-size:60px;"">+</div>",,html-keyboard-response,196,991085,0.0-15.0-0.12,75147,List2B,white,man,,,,null,,,,
null,"<img src=""stim_listB/hug6.gif""</stim_listB>",,html-keyboard-response,197,993088,0.0-15.0-1.12,75147,List2B,white,man,,,,null,,,,
null,are hugging each other,,html-keyboard-response,198,995092,0.0-15.0-2.12,75147,List2B,white,man,,,,null,,,,
8812,,,survey-text,199,1003907,0.0-15.0-3.12,75147,List2B,white,man,,,,,"{""Q0"":"" Mike and Dave are hugging each other ""}","<img src=""stim_listB/hug6.gif""</stim_listB>",are hugging each other,
null,"<div style=""font-size:60px;"">+</div>",,html-keyboard-response,200,1004410,0.0-15.0-0.13,75147,List2B,white,man,,,,null,,,,
null,"<img src=""stim_listB/meet2.gif""</stim_listB>",,html-keyboard-response,201,1006413,0.0-15.0-1.13,75147,List2B,white,man,,,,null,,,,
null,are meeting each other,,html-keyboard-response,202,1008417,0.0-15.0-2.13,75147,List2B,white,man,,,,null,,,,
11148,,,survey-text,203,1019567,0.0-15.0-3.13,75147,List2B,white,man,,,,,"{""Q0"":"" Mike and Ruth are meeting each other ""}","<img src=""stim_listB/meet2.gif""</stim_listB>",are meeting each other,
null,"<div style=""font-size:60px;"">+</div>",,html-keyboard-response,204,1020070,0.0-15.0-0.14,75147,List2B,white,man,,,,null,,,,
null,"<img src=""stim_listB/fight7.gif""</stim_listB>",,html-keyboard-response,205,1022073,0.0-15.0-1.14,75147,List2B,white,man,,,,null,,,,
null,is fighting,,html-keyboard-response,206,1024076,0.0-15.0-2.14,75147,List2B,white,man,,,,null,,,,
9722,,,survey-text,207,1033801,0.0-15.0-3.14,75147,List2B,white,man,,,,,"{""Q0"":"" Jane is fighting Kate ""}","<img src=""stim_listB/fight7.gif""</stim_listB>",is fighting,
null,"<div style=""font-size:60px;"">+</div>",,html-keyboard-response,208,1034303,0.0-15.0-0.15,75147,List2B,white,man,,,,null,,,,
null,"<img src=""stim_listB/dance7.gif""</stim_listB>",,html-keyboard-response,209,1036307,0.0-15.0-1.15,75147,List2B,white,man,,,,null,,,,
null,is dancing with,,html-keyboard-response,210,1038311,0.0-15.0-2.15,75147,List2B,white,man,,,,null,,,,
8859,,,survey-text,211,1047172,0.0-15.0-3.15,75147,List2B,white,man,,,,,"{""Q0"":"" Ruth is dancing with Kate ""}","<img src=""stim_listB/dance7.gif""</stim_listB>",is dancing with,
null,"<div style=""font-size:60px;"">+</div>",,html-keyboard-response,212,1047673,0.0-15.0-0.16,75147,List2B,white,man,,,,null,,,,
null,"<img src=""stim_listB/meet8.gif""</stim_listB>",,html-keyboard-response,213,1049676,0.0-15.0-1.16,75147,List2B,white,man,,,,null,,,,
null,are meeting each other,,html-keyboard-response,214,1051680,0.0-15.0-2.16,75147,List2B,white,man,,,,null,,,,
8680,,,survey-text,215,1060362,0.0-15.0-3.16,75147,List2B,white,man,,,,,"{""Q0"":"" Beth and Ruth are meeting each other ""}","<img src=""stim_listB/meet8.gif""</stim_listB>",are meeting each other,
null,"<div style=""font-size:60px;"">+</div>",,html-keyboard-response,216,1060864,0.0-15.0-0.17,75147,List2B,white,man,,,,null,,,,
null,"<img src=""stim_listB/meet3.gif""</stim_listB>",,html-keyboard-response,217,1062867,0.0-15.0-1.17,75147,List2B,white,man,,,,null,,,,
null,is meeting,,html-keyboard-response,218,1064879,0.0-15.0-2.17,75147,List2B,white,man,,,,null,,,,
9037,,,survey-text,219,1073918,0.0-15.0-3.17,75147,List2B,white,man,,,,,"{""Q0"":"" Kate is meeting Mike ""}","<img src=""stim_listB/meet3.gif""</stim_listB>",is meeting,
null,"<div style=""font-size:60px;"">+</div>",,html-keyboard-response,220,1074421,0.0-15.0-0.18,75147,List2B,white,man,,,,null,,,,
null,"<img src=""stim_listB/fight8.gif""</stim_listB>",,html-keyboard-response,221,1076424,0.0-15.0-1.18,75147,List2B,white,man,,,,null,,,,
null,are fighting each other,,html-keyboard-response,222,1078427,0.0-15.0-2.18,75147,List2B,white,man,,,,null,,,,
11820,,,survey-text,223,1090250,0.0-15.0-3.18,75147,List2B,white,man,,,,,"{""Q0"":"" Beth is fighting Ruth ""}","<img src=""stim_listB/fight8.gif""</stim_listB>",are fighting each other,
null,"<div style=""font-size:60px;"">+</div>",,html-keyboard-response,224,1090753,0.0-15.0-0.19,75147,List2B,white,man,,,,null,,,,
null,"<img src=""stim_listB/argue6.gif""</stim_listB>",,html-keyboard-response,225,1092756,0.0-15.0-1.19,75147,List2B,white,man,,,,null,,,,
null,are arguing with each other,,html-keyboard-response,226,1094759,0.0-15.0-2.19,75147,List2B,white,man,,,,null,,,,
33993,,,survey-text,227,1128756,0.0-15.0-3.19,75147,List2B,white,man,,,,,"{""Q0"":"" Luke and Mike are arguing with each other ""}","<img src=""stim_listB/argue6.gif""</stim_listB>",are arguing with each other,
11255,"<img src='img/portrait_matrix_list2.JPG' style='width:900px;height:500px;''></img><p>If you have memorised all the portraits and names and are ready to start, press Continue.</p><p><strong>Please note: Your memory of these faces will be tested 4 times during this experiment.</strong></p>",0,html-button-response,228,1140019,0.0-16.0-0.0,75147,List2B,white,man,,,,,,,,
3537,"<img src=""portrait/WM1.jpg""style=""width:400px;height:400px;""></img>",6,html-button-response,229,1144563,0.0-16.0-1.0,75147,List2B,white,man,,TRUE,6,,,,,
null,CORRECT,,html-keyboard-response,230,1146068,0.0-16.0-2.0-0.0,75147,List2B,white,man,,,,null,,,,
4350,"<img src=""portrait/WW2.jpg""style=""width:400px;height:400px;""></img>",3,html-button-response,231,1150425,0.0-16.0-4.0,75147,List2B,white,man,,TRUE,3,,,,,
null,CORRECT,,html-keyboard-response,232,1151929,0.0-16.0-5.0-0.0,75147,List2B,white,man,,,,null,,,,
6719,"<img src=""portrait/WM2.jpg""style=""width:400px;height:400px;""></img>",7,html-button-response,233,1158654,0.0-16.0-7.0,75147,List2B,white,man,,TRUE,7,,,,,
null,CORRECT,,html-keyboard-response,234,1160157,0.0-16.0-8.0-0.0,75147,List2B,white,man,,,,null,,,,
4561,"<img src=""portrait/BW1.jpg""style=""width:400px;height:400px;""></img>",0,html-button-response,235,1164724,0.0-16.0-10.0,75147,List2B,white,man,,TRUE,0,,,,,
null,CORRECT,,html-keyboard-response,236,1166228,0.0-16.0-11.0-0.0,75147,List2B,white,man,,,,null,,,,
3525,"<img src=""portrait/BW2.jpg""style=""width:400px;height:400px;""></img>",2,html-button-response,237,1169760,0.0-16.0-13.0,75147,List2B,white,man,,TRUE,2,,,,,
null,CORRECT,,html-keyboard-response,238,1171265,0.0-16.0-14.0-0.0,75147,List2B,white,man,,,,null,,,,
3909,"<img src=""portrait/BM2.jpg""style=""width:400px;height:400px;""></img>",5,html-button-response,239,1175180,0.0-16.0-16.0,75147,List2B,white,man,,TRUE,5,,,,,
null,CORRECT,,html-keyboard-response,240,1176684,0.0-16.0-17.0-0.0,75147,List2B,white,man,,,,null,,,,
2842,"<img src=""portrait/BM1.jpg""style=""width:400px;height:400px;""></img>",4,html-button-response,241,1179532,0.0-16.0-19.0,75147,List2B,white,man,,TRUE,4,,,,,
null,CORRECT,,html-keyboard-response,242,1181036,0.0-16.0-20.0-0.0,75147,List2B,white,man,,,,null,,,,
4401,"<img src=""portrait/WW1.jpg""style=""width:400px;height:400px;""></img>",1,html-button-response,243,1185444,0.0-16.0-22.0,75147,List2B,white,man,,TRUE,1,,,,,
null,CORRECT,,html-keyboard-response,244,1186947,0.0-16.0-23.0-0.0,75147,List2B,white,man,,,,null,,,,
1561,<p>You got 8 out of 8 right first time. Press Continue.</p>,0,html-button-response,245,1188512,0.0-16.0-25.0,75147,List2B,white,man,,,,,,,,
null,"<div style=""font-size:60px;"">+</div>",,html-keyboard-response,246,1190019,0.0-17.0-0.0,75147,List2B,white,man,,,,null,,,,
null,"<img src=""stim_listB/talk7.gif""</stim_listB>",,html-keyboard-response,247,1192023,0.0-17.0-1.0,75147,List2B,white,man,,,,null,,,,
null,is talking to,,html-keyboard-response,248,1194026,0.0-17.0-2.0,75147,List2B,white,man,,,,null,,,,
8533,,,survey-text,249,1202561,0.0-17.0-3.0,75147,List2B,white,man,,,,,"{""Q0"":"" Ruth is talking to Kate ""}","<img src=""stim_listB/talk7.gif""</stim_listB>",is talking to,
null,"<div style=""font-size:60px;"">+</div>",,html-keyboard-response,250,1203064,0.0-17.0-0.1,75147,List2B,white,man,,,,null,,,,
null,"<img src=""stim_listB/hug1.gif""</stim_listB>",,html-keyboard-response,251,1205068,0.0-17.0-1.1,75147,List2B,white,man,,,,null,,,,
null,is hugging,,html-keyboard-response,252,1207071,0.0-17.0-2.1,75147,List2B,white,man,,,,null,,,,
8325,,,survey-text,253,1215398,0.0-17.0-3.1,75147,List2B,white,man,,,,,"{""Q0"":"" Ruth is hugging Luke ""}","<img src=""stim_listB/hug1.gif""</stim_listB>",is hugging,
null,"<div style=""font-size:60px;"">+</div>",,html-keyboard-response,254,1215901,0.0-17.0-0.2,75147,List2B,white,man,,,,null,,,,
null,"<img src=""stim_listB/marry8.gif""</stim_listB>",,html-keyboard-response,255,1217904,0.0-17.0-1.2,75147,List2B,white,man,,,,null,,,,
null,are marrying each other,,html-keyboard-response,256,1219908,0.0-17.0-2.2,75147,List2B,white,man,,,,null,,,,
9351,,,survey-text,257,1229262,0.0-17.0-3.2,75147,List2B,white,man,,,,,"{""Q0"":"" Kate and Ruth are marrying each other ""}","<img src=""stim_listB/marry8.gif""</stim_listB>",are marrying each other,
null,"<div style=""font-size:60px;"">+</div>",,html-keyboard-response,258,1229764,0.0-17.0-0.3,75147,List2B,white,man,,,,null,,,,
null,"<img src=""stim_listB/talk3.gif""</stim_listB>",,html-keyboard-response,259,1231768,0.0-17.0-1.3,75147,List2B,white,man,,,,null,,,,
null,is talking to,,html-keyboard-response,260,1233771,0.0-17.0-2.3,75147,List2B,white,man,,,,null,,,,
8188,,,survey-text,261,1241962,0.0-17.0-3.3,75147,List2B,white,man,,,,,"{""Q0"":"" Kate is talking to Fred ""}","<img src=""stim_listB/talk3.gif""</stim_listB>",is talking to,
null,"<div style=""font-size:60px;"">+</div>",,html-keyboard-response,262,1242465,0.0-17.0-0.4,75147,List2B,white,man,,,,null,,,,
null,"<img src=""stim_listB/shout1.gif""</stim_listB>",,html-keyboard-response,263,1244469,0.0-17.0-1.4,75147,List2B,white,man,,,,null,,,,
null,is shouting at,,html-keyboard-response,264,1246472,0.0-17.0-2.4,75147,List2B,white,man,,,,null,,,,
9308,,,survey-text,265,1255782,0.0-17.0-3.4,75147,List2B,white,man,,,,,"{""Q0"":"" Ruth is shouting at Luke ""}","<img src=""stim_listB/shout1.gif""</stim_listB>",is shouting at,
null,"<div style=""font-size:60px;"">+</div>",,html-keyboard-response,266,1256285,0.0-17.0-0.5,75147,List2B,white,man,,,,null,,,,
null,"<img src=""stim_listB/dance6.gif""</stim_listB>",,html-keyboard-response,267,1258289,0.0-17.0-1.5,75147,List2B,white,man,,,,null,,,,
null,are dancing with each other,,html-keyboard-response,268,1260292,0.0-17.0-2.5,75147,List2B,white,man,,,,null,,,,
10181,,,survey-text,269,1270477,0.0-17.0-3.5,75147,List2B,white,man,,,,,"{""Q0"":"" Fred and Dave are dancing with each other ""}","<img src=""stim_listB/dance6.gif""</stim_listB>",are dancing with each other,
null,"<div style=""font-size:60px;"">+</div>",,html-keyboard-response,270,1270980,0.0-17.0-0.6,75147,List2B,white,man,,,,null,,,,
null,"<img src=""stim_listB/shout3.gif""</stim_listB>",,html-keyboard-response,271,1272983,0.0-17.0-1.6,75147,List2B,white,man,,,,null,,,,
null,is shouting at,,html-keyboard-response,272,1274986,0.0-17.0-2.6,75147,List2B,white,man,,,,null,,,,
10012,,,survey-text,273,1285001,0.0-17.0-3.6,75147,List2B,white,man,,,,,"{""Q0"":"" Beth is shouting at Fred ""}","<img src=""stim_listB/shout3.gif""</stim_listB>",is shouting at,
null,"<div style=""font-size:60px;"">+</div>",,html-keyboard-response,274,1285502,0.0-17.0-0.7,75147,List2B,white,man,,,,null,,,,
null,"<img src=""stim_listB/shout2.gif""</stim_listB>",,html-keyboard-response,275,1287504,0.0-17.0-1.7,75147,List2B,white,man,,,,null,,,,
null,are shouting at each other,,html-keyboard-response,276,1289507,0.0-17.0-2.7,75147,List2B,white,man,,,,null,,,,
11884,,,survey-text,277,1301394,0.0-17.0-3.7,75147,List2B,white,man,,,,,"{""Q0"":"" Jane and Dave are shouting at each other ""}","<img src=""stim_listB/shout2.gif""</stim_listB>",are shouting at each other,
null,"<div style=""font-size:60px;"">+</div>",,html-keyboard-response,278,1301898,0.0-17.0-0.8,75147,List2B,white,man,,,,null,,,,
null,"<img src=""stim_listB/marry2.gif""</stim_listB>",,html-keyboard-response,279,1303902,0.0-17.0-1.8,75147,List2B,white,man,,,,null,,,,
null,are marrying each other,,html-keyboard-response,280,1305905,0.0-17.0-2.8,75147,List2B,white,man,,,,null,,,,
8398,,,survey-text,281,1314305,0.0-17.0-3.8,75147,List2B,white,man,,,,,"{""Q0"":"" Luke and Jane are marrying each other ""}","<img src=""stim_listB/marry2.gif""</stim_listB>",are marrying each other,
null,"<div style=""font-size:60px;"">+</div>",,html-keyboard-response,282,1314808,0.0-17.0-0.9,75147,List2B,white,man,,,,null,,,,
null,"<img src=""stim_listB/hug4.gif""</stim_listB>",,html-keyboard-response,283,1316809,0.0-17.0-1.9,75147,List2B,white,man,,,,null,,,,
null,are hugging each other,,html-keyboard-response,284,1318812,0.0-17.0-2.9,75147,List2B,white,man,,,,null,,,,
9003,,,survey-text,285,1327818,0.0-17.0-3.9,75147,List2B,white,man,,,,,"{""Q0"":"" Mike and Kate are hugging each other ""}","<img src=""stim_listB/hug4.gif""</stim_listB>",are hugging each other,
null,"<div style=""font-size:60px;"">+</div>",,html-keyboard-response,286,1328321,0.0-17.0-0.10,75147,List2B,white,man,,,,null,,,,
null,"<img src=""stim_listB/dance3.gif""</stim_listB>",,html-keyboard-response,287,1330324,0.0-17.0-1.10,75147,List2B,white,man,,,,null,,,,
null,is dancing with,,html-keyboard-response,288,1332327,0.0-17.0-2.10,75147,List2B,white,man,,,,null,,,,
8194,,,survey-text,289,1340529,0.0-17.0-3.10,75147,List2B,white,man,,,,,"{""Q0"":"" Kate is dancing with Fred ""}","<img src=""stim_listB/dance3.gif""</stim_listB>",is dancing with,
null,"<div style=""font-size:60px;"">+</div>",,html-keyboard-response,290,1341032,0.0-17.0-0.11,75147,List2B,white,man,,,,null,,,,
null,"<img src=""stim_listB/dance1.gif""</stim_listB>",,html-keyboard-response,291,1343035,0.0-17.0-1.11,75147,List2B,white,man,,,,null,,,,
null,is dancing with,,html-keyboard-response,292,1345039,0.0-17.0-2.11,75147,List2B,white,man,,,,null,,,,
7001,,,survey-text,293,1352043,0.0-17.0-3.11,75147,List2B,white,man,,,,,"{""Q0"":"" Jenny is dancing with Luke ""}","<img src=""stim_listB/dance1.gif""</stim_listB>",is dancing with,
null,"<div style=""font-size:60px;"">+</div>",,html-keyboard-response,294,1352545,0.0-17.0-0.12,75147,List2B,white,man,,,,null,,,,
null,"<img src=""stim_listB/fight3.gif""</stim_listB>",,html-keyboard-response,295,1354548,0.0-17.0-1.12,75147,List2B,white,man,,,,null,,,,
null,is fighting,,html-keyboard-response,296,1356551,0.0-17.0-2.12,75147,List2B,white,man,,,,null,,,,
10642,,,survey-text,297,1367196,0.0-17.0-3.12,75147,List2B,white,man,,,,,"{""Q0"":"" Kate is fighting Mike ""}","<img src=""stim_listB/fight3.gif""</stim_listB>",is fighting,
null,"<div style=""font-size:60px;"">+</div>",,html-keyboard-response,298,1367699,0.0-17.0-0.13,75147,List2B,white,man,,,,null,,,,
null,"<img src=""stim_listB/argue8.gif""</stim_listB>",,html-keyboard-response,299,1369702,0.0-17.0-1.13,75147,List2B,white,man,,,,null,,,,
null,are arguing with each other,,html-keyboard-response,300,1371705,0.0-17.0-2.13,75147,List2B,white,man,,,,null,,,,
9569,,,survey-text,301,1381277,0.0-17.0-3.13,75147,List2B,white,man,,,,,"{""Q0"":"" Ruth and Kate are fighting each other ""}","<img src=""stim_listB/argue8.gif""</stim_listB>",are arguing with each other,
null,"<div style=""font-size:60px;"">+</div>",,html-keyboard-response,302,1381780,0.0-17.0-0.14,75147,List2B,white,man,,,,null,,,,
null,"<img src=""stim_listB/marry5.gif""</stim_listB>",,html-keyboard-response,303,1383783,0.0-17.0-1.14,75147,List2B,white,man,,,,null,,,,
null,is marrying,,html-keyboard-response,304,1385786,0.0-17.0-2.14,75147,List2B,white,man,,,,null,,,,
16667,,,survey-text,305,1402456,0.0-17.0-3.14,75147,List2B,white,man,,,,,"{""Q0"":"" Fred is marrying Dave ""}","<img src=""stim_listB/marry5.gif""</stim_listB>",is marrying,
null,"<div style=""font-size:60px;"">+</div>",,html-keyboard-response,306,1402958,0.0-17.0-0.15,75147,List2B,white,man,,,,null,,,,
null,"<img src=""stim_listB/talk6.gif""</stim_listB>",,html-keyboard-response,307,1404961,0.0-17.0-1.15,75147,List2B,white,man,,,,null,,,,
null,are talking to each other,,html-keyboard-response,308,1406965,0.0-17.0-2.15,75147,List2B,white,man,,,,null,,,,
9670,,,survey-text,309,1416638,0.0-17.0-3.15,75147,List2B,white,man,,,,,"{""Q0"":"" Fred and Dave are talking to each other ""}","<img src=""stim_listB/talk6.gif""</stim_listB>",are talking to each other,
null,"<div style=""font-size:60px;"">+</div>",,html-keyboard-response,310,1417140,0.0-17.0-0.16,75147,List2B,white,man,,,,null,,,,
null,"<img src=""stim_listB/kiss3.gif""</stim_listB>",,html-keyboard-response,311,1419143,0.0-17.0-1.16,75147,List2B,white,man,,,,null,,,,
null,is kissing,,html-keyboard-response,312,1421153,0.0-17.0-2.16,75147,List2B,white,man,,,,null,,,,
9414,,,survey-text,313,1430571,0.0-17.0-3.16,75147,List2B,white,man,,,,,"{""Q0"":"" Becky is kissing Fred ""}","<img src=""stim_listB/kiss3.gif""</stim_listB>",is kissing,
null,"<div style=""font-size:60px;"">+</div>",,html-keyboard-response,314,1431074,0.0-17.0-0.17,75147,List2B,white,man,,,,null,,,,
null,"<img src=""stim_listB/kiss5.gif""</stim_listB>",,html-keyboard-response,315,1433078,0.0-17.0-1.17,75147,List2B,white,man,,,,null,,,,
null,is kissing,,html-keyboard-response,316,1435081,0.0-17.0-2.17,75147,List2B,white,man,,,,null,,,,
19989,,,survey-text,317,1455074,0.0-17.0-3.17,75147,List2B,white,man,,,,,"{""Q0"":"" Luke is kissing Fred ""}","<img src=""stim_listB/kiss5.gif""</stim_listB>",is kissing,
null,"<div style=""font-size:60px;"">+</div>",,html-keyboard-response,318,1455577,0.0-17.0-0.18,75147,List2B,white,man,,,,null,,,,
null,"<img src=""stim_listB/meet4.gif""</stim_listB>",,html-keyboard-response,319,1457580,0.0-17.0-1.18,75147,List2B,white,man,,,,null,,,,
null,are meeting each other,,html-keyboard-response,320,1459583,0.0-17.0-2.18,75147,List2B,white,man,,,,null,,,,
10684,,,survey-text,321,1470270,0.0-17.0-3.18,75147,List2B,white,man,,,,,"{""Q0"":"" Fred and Beth are meeting each other ""}","<img src=""stim_listB/meet4.gif""</stim_listB>",are meeting each other,
null,"<div style=""font-size:60px;"">+</div>",,html-keyboard-response,322,1470773,0.0-17.0-0.19,75147,List2B,white,man,,,,null,,,,
null,"<img src=""stim_listB/touch3.gif""</stim_listB>",,html-keyboard-response,323,1472776,0.0-17.0-1.19,75147,List2B,white,man,,,,null,,,,
null,is touching,,html-keyboard-response,324,1474779,0.0-17.0-2.19,75147,List2B,white,man,,,,null,,,,
8853,,,survey-text,325,1483635,0.0-17.0-3.19,75147,List2B,white,man,,,,,"{""Q0"":"" Mike is touching Kate ""}","<img src=""stim_listB/touch3.gif""</stim_listB>",is touching,
1761,"<img src='img/portrait_matrix_list2.JPG' style='width:900px;height:500px;''></img><p>If you have memorised all the portraits and names and are ready to start, press Continue.</p><p><strong>Please note: Your memory of these faces will be tested 4 times during this experiment.</strong></p>",0,html-button-response,326,1485398,0.0-18.0-0.0,75147,List2B,white,man,,,,,,,,
4950,"<img src=""portrait/WW1.jpg""style=""width:400px;height:400px;""></img>",1,html-button-response,327,1491354,0.0-18.0-1.0,75147,List2B,white,man,,TRUE,1,,,,,
null,CORRECT,,html-keyboard-response,328,1492859,0.0-18.0-2.0-0.0,75147,List2B,white,man,,,,null,,,,
2374,"<img src=""portrait/WW2.jpg""style=""width:400px;height:400px;""></img>",3,html-button-response,329,1495239,0.0-18.0-4.0,75147,List2B,white,man,,TRUE,3,,,,,
null,CORRECT,,html-keyboard-response,330,1496744,0.0-18.0-5.0-0.0,75147,List2B,white,man,,,,null,,,,
3242,"<img src=""portrait/WM2.jpg""style=""width:400px;height:400px;""></img>",7,html-button-response,331,1500001,0.0-18.0-7.0,75147,List2B,white,man,,TRUE,7,,,,,
null,CORRECT,,html-keyboard-response,332,1501505,0.0-18.0-8.0-0.0,75147,List2B,white,man,,,,null,,,,
3133,"<img src=""portrait/WM1.jpg""style=""width:400px;height:400px;""></img>",6,html-button-response,333,1504645,0.0-18.0-10.0,75147,List2B,white,man,,TRUE,6,,,,,
null,CORRECT,,html-keyboard-response,334,1506149,0.0-18.0-11.0-0.0,75147,List2B,white,man,,,,null,,,,
2750,"<img src=""portrait/BW2.jpg""style=""width:400px;height:400px;""></img>",2,html-button-response,335,1508906,0.0-18.0-13.0,75147,List2B,white,man,,TRUE,2,,,,,
null,CORRECT,,html-keyboard-response,336,1510409,0.0-18.0-14.0-0.0,75147,List2B,white,man,,,,null,,,,
2976,"<img src=""portrait/BW1.jpg""style=""width:400px;height:400px;""></img>",0,html-button-response,337,1513391,0.0-18.0-16.0,75147,List2B,white,man,,TRUE,0,,,,,
null,CORRECT,,html-keyboard-response,338,1514895,0.0-18.0-17.0-0.0,75147,List2B,white,man,,,,null,,,,
4610,"<img src=""portrait/BM2.jpg""style=""width:400px;height:400px;""></img>",5,html-button-response,339,1519511,0.0-18.0-19.0,75147,List2B,white,man,,TRUE,5,,,,,
null,CORRECT,,html-keyboard-response,340,1521015,0.0-18.0-20.0-0.0,75147,List2B,white,man,,,,null,,,,
2759,"<img src=""portrait/BM1.jpg""style=""width:400px;height:400px;""></img>",4,html-button-response,341,1523780,0.0-18.0-22.0,75147,List2B,white,man,,TRUE,4,,,,,
null,CORRECT,,html-keyboard-response,342,1525284,0.0-18.0-23.0-0.0,75147,List2B,white,man,,,,null,,,,
1434,<p>You got 8 out of 8 right first time. Press Continue.</p>,0,html-button-response,343,1526723,0.0-18.0-25.0,75147,List2B,white,man,,,,,,,,
null,"<div style=""font-size:60px;"">+</div>",,html-keyboard-response,344,1528230,0.0-19.0-0.0,75147,List2B,white,man,,,,null,,,,
null,"<img src=""stim_listB/kiss2.gif""</stim_listB>",,html-keyboard-response,345,1530235,0.0-19.0-1.0,75147,List2B,white,man,,,,null,,,,
null,are kissing each other,,html-keyboard-response,346,1532238,0.0-19.0-2.0,75147,List2B,white,man,,,,null,,,,
11023,,,survey-text,347,1543269,0.0-19.0-3.0,75147,List2B,white,man,,,,,"{""Q0"":"" Jane and Dave are kissing each other ""}","<img src=""stim_listB/kiss2.gif""</stim_listB>",are kissing each other,
null,"<div style=""font-size:60px;"">+</div>",,html-keyboard-response,348,1543773,0.0-19.0-0.1,75147,List2B,white,man,,,,null,,,,
null,"<img src=""stim_listB/touch6.gif""</stim_listB>",,html-keyboard-response,349,1545776,0.0-19.0-1.1,75147,List2B,white,man,,,,null,,,,
null,are touching each other,,html-keyboard-response,350,1547779,0.0-19.0-2.1,75147,List2B,white,man,,,,null,,,,
10830,,,survey-text,351,1558611,0.0-19.0-3.1,75147,List2B,white,man,,,,,"{""Q0"":"" Luke and Fred are touching each other ""}","<img src=""stim_listB/touch6.gif""</stim_listB>",are touching each other,
null,"<div style=""font-size:60px;"">+</div>",,html-keyboard-response,352,1559114,0.0-19.0-0.2,75147,List2B,white,man,,,,null,,,,
null,"<img src=""stim_listB/marry7.gif""</stim_listB>",,html-keyboard-response,353,1561117,0.0-19.0-1.2,75147,List2B,white,man,,,,null,,,,
null,is marrying,,html-keyboard-response,354,1563120,0.0-19.0-2.2,75147,List2B,white,man,,,,null,,,,
8387,,,survey-text,355,1571509,0.0-19.0-3.2,75147,List2B,white,man,,,,,"{""Q0"":"" Beth is marrying Jane ""}","<img src=""stim_listB/marry7.gif""</stim_listB>",is marrying,
null,"<div style=""font-size:60px;"">+</div>",,html-keyboard-response,356,1572012,0.0-19.0-0.3,75147,List2B,white,man,,,,null,,,,
null,"<img src=""stim_listB/kiss6.gif""</stim_listB>",,html-keyboard-response,357,1574016,0.0-19.0-1.3,75147,List2B,white,man,,,,null,,,,
null,are kissing each other,,html-keyboard-response,358,1576019,0.0-19.0-2.3,75147,List2B,white,man,,,,null,,,,
11245,,,survey-text,359,1587267,0.0-19.0-3.3,75147,List2B,white,man,,,,,"{""Q0"":"" Mike and Dave are kissing each other ""}","<img src=""stim_listB/kiss6.gif""</stim_listB>",are kissing each other,
null,"<div style=""font-size:60px;"">+</div>",,html-keyboard-response,360,1587771,0.0-19.0-0.4,75147,List2B,white,man,,,,null,,,,
null,"<img src=""stim_listB/touch2.gif""</stim_listB>",,html-keyboard-response,361,1589774,0.0-19.0-1.4,75147,List2B,white,man,,,,null,,,,
null,are touching each other,,html-keyboard-response,362,1591778,0.0-19.0-2.4,75147,List2B,white,man,,,,null,,,,
10234,,,survey-text,363,1602014,0.0-19.0-3.4,75147,List2B,white,man,,,,,"{""Q0"":"" Luke and Ruth are touching each other ""}","<img src=""stim_listB/touch2.gif""</stim_listB>",are touching each other,
null,"<div style=""font-size:60px;"">+</div>",,html-keyboard-response,364,1602516,0.0-19.0-0.5,75147,List2B,white,man,,,,null,,,,
null,"<img src=""stim_listB/fight1.gif""</stim_listB>",,html-keyboard-response,365,1604520,0.0-19.0-1.5,75147,List2B,white,man,,,,null,,,,
null,is fighting,,html-keyboard-response,366,1606524,0.0-19.0-2.5,75147,List2B,white,man,,,,null,,,,
8598,,,survey-text,367,1615133,0.0-19.0-3.5,75147,List2B,white,man,,,,,"{""Q0"":"" Jane is fighting Dave ""}","<img src=""stim_listB/fight1.gif""</stim_listB>",is fighting,
null,"<div style=""font-size:60px;"">+</div>",,html-keyboard-response,368,1615637,0.0-19.0-0.6,75147,List2B,white,man,,,,null,,,,
null,"<img src=""stim_listB/meet6.gif""</stim_listB>",,html-keyboard-response,369,1617641,0.0-19.0-1.6,75147,List2B,white,man,,,,null,,,,
null,are meeting each other,,html-keyboard-response,370,1619644,0.0-19.0-2.6,75147,List2B,white,man,,,,null,,,,
10462,,,survey-text,371,1630109,0.0-19.0-3.6,75147,List2B,white,man,,,,,"{""Q0"":"" Luke and Fred are meeting each other ""}","<img src=""stim_listB/meet6.gif""</stim_listB>",are meeting each other,
null,"<div style=""font-size:60px;"">+</div>",,html-keyboard-response,372,1630613,0.0-19.0-0.7,75147,List2B,white,man,,,,null,,,,
null,"<img src=""stim_listB/touch4.gif""</stim_listB>",,html-keyboard-response,373,1632616,0.0-19.0-1.7,75147,List2B,white,man,,,,null,,,,
null,are touching each other,,html-keyboard-response,374,1634620,0.0-19.0-2.7,75147,List2B,white,man,,,,null,,,,
9602,,,survey-text,375,1644225,0.0-19.0-3.7,75147,List2B,white,man,,,,,"{""Q0"":"" Beth and Fred are touching each other ""}","<img src=""stim_listB/touch4.gif""</stim_listB>",are touching each other,
null,"<div style=""font-size:60px;"">+</div>",,html-keyboard-response,376,1644728,0.0-19.0-0.8,75147,List2B,white,man,,,,null,,,,
null,"<img src=""stim_listB/dance5.gif""</stim_listB>",,html-keyboard-response,377,1646731,0.0-19.0-1.8,75147,List2B,white,man,,,,null,,,,
null,is dancing with,,html-keyboard-response,378,1648735,0.0-19.0-2.8,75147,List2B,white,man,,,,null,,,,
19460,,,survey-text,379,1668197,0.0-19.0-3.8,75147,List2B,white,man,,,,,"{""Q0"":"" Mike is dancing with Luke ""}","<img src=""stim_listB/dance5.gif""</stim_listB>",is dancing with,
null,"<div style=""font-size:60px;"">+</div>",,html-keyboard-response,380,1668701,0.0-19.0-0.9,75147,List2B,white,man,,,,null,,,,
null,"<img src=""stim_listB/kiss1.gif""</stim_listB>",,html-keyboard-response,381,1670708,0.0-19.0-1.9,75147,List2B,white,man,,,,null,,,,
null,is kissing,,html-keyboard-response,382,1672712,0.0-19.0-2.9,75147,List2B,white,man,,,,null,,,,
10081,,,survey-text,383,1682796,0.0-19.0-3.9,75147,List2B,white,man,,,,,"{""Q0"":"" Ruth is kissing Luke ""}","<img src=""stim_listB/kiss1.gif""</stim_listB>",is kissing,
null,"<div style=""font-size:60px;"">+</div>",,html-keyboard-response,384,1683299,0.0-19.0-0.10,75147,List2B,white,man,,,,null,,,,
null,"<img src=""stim_listB/argue2.gif""</stim_listB>",,html-keyboard-response,385,1685303,0.0-19.0-1.10,75147,List2B,white,man,,,,null,,,,
null,are arguing with each other,,html-keyboard-response,386,1687306,0.0-19.0-2.10,75147,List2B,white,man,,,,null,,,,
11113,,,survey-text,387,1698422,0.0-19.0-3.10,75147,List2B,white,man,,,,,"{""Q0"":"" Jane and Luke are arguing with each other ""}","<img src=""stim_listB/argue2.gif""</stim_listB>",are arguing with each other,
null,"<div style=""font-size:60px;"">+</div>",,html-keyboard-response,388,1698925,0.0-19.0-0.11,75147,List2B,white,man,,,,null,,,,
null,"<img src=""stim_listB/dance8.gif""</stim_listB>",,html-keyboard-response,389,1700932,0.0-19.0-1.11,75147,List2B,white,man,,,,null,,,,
null,are dancing with each other,,html-keyboard-response,390,1702934,0.0-19.0-2.11,75147,List2B,white,man,,,,null,,,,
9282,,,survey-text,391,1712220,0.0-19.0-3.11,75147,List2B,white,man,,,,,"{""Q0"":"" Beth and Jane are dancing with each other ""}","<img src=""stim_listB/dance8.gif""</stim_listB>",are dancing with each other,
null,"<div style=""font-size:60px;"">+</div>",,html-keyboard-response,392,1712723,0.0-19.0-0.12,75147,List2B,white,man,,,,null,,,,
null,"<img src=""stim_listB/talk4.gif""</stim_listB>",,html-keyboard-response,393,1714727,0.0-19.0-1.12,75147,List2B,white,man,,,,null,,,,
null,are talking to each other,,html-keyboard-response,394,1716730,0.0-19.0-2.12,75147,List2B,white,man,,,,null,,,,
11978,,,survey-text,395,1728712,0.0-19.0-3.12,75147,List2B,white,man,,,,,"{""Q0"":"" Beth and Mike are talking to each other ""}","<img src=""stim_listB/talk4.gif""</stim_listB>",are talking to each other,
null,"<div style=""font-size:60px;"">+</div>",,html-keyboard-response,396,1729219,0.0-19.0-0.13,75147,List2B,white,man,,,,null,,,,
null,"<img src=""stim_listB/dance2.gif""</stim_listB>",,html-keyboard-response,397,1731223,0.0-19.0-1.13,75147,List2B,white,man,,,,null,,,,
null,are dancing with each other,,html-keyboard-response,398,1733227,0.0-19.0-2.13,75147,List2B,white,man,,,,null,,,,
11959,,,survey-text,399,1745189,0.0-19.0-3.13,75147,List2B,white,man,,,,,"{""Q0"":"" Ruth and Dave are dancing with each other ""}","<img src=""stim_listB/dance2.gif""</stim_listB>",are dancing with each other,
null,"<div style=""font-size:60px;"">+</div>",,html-keyboard-response,400,1745692,0.0-19.0-0.14,75147,List2B,white,man,,,,null,,,,
null,"<img src=""stim_listB/talk8.gif""</stim_listB>",,html-keyboard-response,401,1747695,0.0-19.0-1.14,75147,List2B,white,man,,,,null,,,,
null,are talking to each other,,html-keyboard-response,402,1749698,0.0-19.0-2.14,75147,List2B,white,man,,,,null,,,,
9578,,,survey-text,403,1759279,0.0-19.0-3.14,75147,List2B,white,man,,,,,"{""Q0"":""Beth and Jane are talking to each other""}","<img src=""stim_listB/talk8.gif""</stim_listB>",are talking to each other,
null,"<div style=""font-size:60px;"">+</div>",,html-keyboard-response,404,1759782,0.0-19.0-0.15,75147,List2B,white,man,,,,null,,,,
null,"<img src=""stim_listB/fight2.gif""</stim_listB>",,html-keyboard-response,405,1761786,0.0-19.0-1.15,75147,List2B,white,man,,,,null,,,,
null,are fighting each other,,html-keyboard-response,406,1763789,0.0-19.0-2.15,75147,List2B,white,man,,,,null,,,,
10329,,,survey-text,407,1774122,0.0-19.0-3.15,75147,List2B,white,man,,,,,"{""Q0"":"" Luke and Ruth are fighting each other ""}","<img src=""stim_listB/fight2.gif""</stim_listB>",are fighting each other,
null,"<div style=""font-size:60px;"">+</div>",,html-keyboard-response,408,1774625,0.0-19.0-0.16,75147,List2B,white,man,,,,null,,,,
null,"<img src=""stim_listB/fight4.gif""</stim_listB>",,html-keyboard-response,409,1776627,0.0-19.0-1.16,75147,List2B,white,man,,,,null,,,,
null,are fighting each other,,html-keyboard-response,410,1778630,0.0-19.0-2.16,75147,List2B,white,man,,,,null,,,,
16855,,,survey-text,411,1795489,0.0-19.0-3.16,75147,List2B,white,man,,,,,"{""Q0"":"" Ruth and Fred are fighting each other ""}","<img src=""stim_listB/fight4.gif""</stim_listB>",are fighting each other,
null,"<div style=""font-size:60px;"">+</div>",,html-keyboard-response,412,1795991,0.0-19.0-0.17,75147,List2B,white,man,,,,null,,,,
null,"<img src=""stim_listB/talk1.gif""</stim_listB>",,html-keyboard-response,413,1797995,0.0-19.0-1.17,75147,List2B,white,man,,,,null,,,,
null,is talking to,,html-keyboard-response,414,1799998,0.0-19.0-2.17,75147,List2B,white,man,,,,null,,,,
14540,,,survey-text,415,1814542,0.0-19.0-3.17,75147,List2B,white,man,,,,,"{""Q0"":"" Fred is talking to Jane ""}","<img src=""stim_listB/talk1.gif""</stim_listB>",is talking to,
null,"<div style=""font-size:60px;"">+</div>",,html-keyboard-response,416,1815044,0.0-19.0-0.18,75147,List2B,white,man,,,,null,,,,
null,"<img src=""stim_listB/shout4.gif""</stim_listB>",,html-keyboard-response,417,1817048,0.0-19.0-1.18,75147,List2B,white,man,,,,null,,,,
null,are shouting at each other,,html-keyboard-response,418,1819051,0.0-19.0-2.18,75147,List2B,white,man,,,,null,,,,
9199,,,survey-text,419,1828253,0.0-19.0-3.18,75147,List2B,white,man,,,,,"{""Q0"":"" Mike and Kate are shouting at each other ""}","<img src=""stim_listB/shout4.gif""</stim_listB>",are shouting at each other,
null,"<div style=""font-size:60px;"">+</div>",,html-keyboard-response,420,1828757,0.0-19.0-0.19,75147,List2B,white,man,,,,null,,,,
null,"<img src=""stim_listB/touch8.gif""</stim_listB>",,html-keyboard-response,421,1830760,0.0-19.0-1.19,75147,List2B,white,man,,,,null,,,,
null,are touching each other,,html-keyboard-response,422,1832764,0.0-19.0-2.19,75147,List2B,white,man,,,,null,,,,
10409,,,survey-text,423,1843175,0.0-19.0-3.19,75147,List2B,white,man,,,,,"{""Q0"":"" Ruth and Beth are touching each other ""}","<img src=""stim_listB/touch8.gif""</stim_listB>",are touching each other,
3390,<p>Thank you for completing that task.</p><p>The final part of this session is a short questionnaire.</p><p>Press Continue.</p>,0,html-button-response,424,1846568,0.0-20.0,75147,List2B,white,man,,,,,,,,
35740,,,survey-text,425,1883313,0.0-21.0,75147,List2B,white,man,,,,,"{""Q0"":""27"",""Q1"":""English"",""Q2"":""English"",""Q3"":""United Kingdom"",""Q4"":"" Caucasian "",""Q5"":""Male""}",,,demographics
47854,,,survey-likert,426,1931181,0.0-22.0,75147,List2B,white,man,,,,,"{""Q0"":3,""Q1"":3,""Q2"":3,""Q3"":3,""Q4"":3,""Q5"":3,""Q6"":3,""Q7"":3,""Q8"":3,""Q9"":3,""Q10"":3,""Q11"":3,""Q12"":3,""Q13"":3}",,,likert_race
64025,,,survey-likert,427,1995214,0.0-23.0,75147,List2B,white,man,,,,,"{""Q0"":3,""Q1"":3,""Q2"":3,""Q3"":3,""Q4"":3,""Q5"":3,""Q6"":3,""Q7"":3,""Q8"":3,""Q9"":6,""Q10"":3,""Q11"":4,""Q12"":1,""Q13"":1}",,,likert_gender
10803,,,survey-text,428,2006023,0.0-24.0,75147,List2B,white,man,,,,,"{""Q0"":""ccc""}",,,worker_id
9600,,,external-html,429,2016017,0.0-25.0,75147,List2B,white,man,debrief.html,,,,,,,
