rt,stimulus,button_pressed,trial_type,trial_index,time_elapsed,internal_node_id,subject,list,ppt_race,ppt_gender,url,first_guess,correct,key_press,responses,image_type,phrase_type,test_part
1958,Welcome to the experiment. Press Continue to begin.,0,html-button-response,0,1971,0.0-0.0,75400,List1B,white,man,,,,,,,,
6261,,,external-html,1,9590,0.0-1.0,75400,List1B,white,man,consent.html,,,,,,,
18051,"<p>On the next page, you will see portraits of 8 people and their names.</p><p>Your first task is to take a few minutes to memorise the names of these people.</p><p>You will have to recall their names during the rest of the experiment, so it is</p><p>essential that you try to memorise these people and their names as best as you can.</p><br><p><strong>You will then be tested on your memory of these names and portraits.</strong></p><br><p>The experiment will start after you have completed this memory test.</p><br><p>Ready?</p>",0,html-button-response,2,27642,0.0-2.0,75400,List1B,white,man,,,,,,,,
59400,"<img src='img/portrait_matrix_list1.JPG' style='width:900px;height:500px;''></img><p>If you have memorised all the portraits and names and are ready to start, press Continue.</p><p><strong>Please note: Your memory of these faces will be tested 4 times during this experiment.</strong></p>",0,html-button-response,3,88045,0.0-3.0-0.0,75400,List1B,white,man,,,,,,,,
8571,"<img src=""portrait/BW1.jpg""style=""width:400px;height:400px;""></img>",0,html-button-response,4,97619,0.0-3.0-1.0,75400,List1B,white,man,,TRUE,0,,,,,
null,CORRECT,,html-keyboard-response,5,99121,0.0-3.0-2.0-0.0,75400,List1B,white,man,,,,null,,,,
4444,"<img src=""portrait/WW2.jpg""style=""width:400px;height:400px;""></img>",3,html-button-response,6,103566,0.0-3.0-4.0,75400,List1B,white,man,,TRUE,3,,,,,
null,CORRECT,,html-keyboard-response,7,105069,0.0-3.0-5.0-0.0,75400,List1B,white,man,,,,null,,,,
5530,"<img src=""portrait/WM1.jpg""style=""width:400px;height:400px;""></img>",6,html-button-response,8,110600,0.0-3.0-7.0,75400,List1B,white,man,,TRUE,6,,,,,
null,CORRECT,,html-keyboard-response,9,112101,0.0-3.0-8.0-0.0,75400,List1B,white,man,,,,null,,,,
5610,"<img src=""portrait/WW1.jpg""style=""width:400px;height:400px;""></img>",1,html-button-response,10,117712,0.0-3.0-10.0,75400,List1B,white,man,,TRUE,1,,,,,
null,CORRECT,,html-keyboard-response,11,119216,0.0-3.0-11.0-0.0,75400,List1B,white,man,,,,null,,,,
7401,"<img src=""portrait/BW2.jpg""style=""width:400px;height:400px;""></img>",2,html-button-response,12,126618,0.0-3.0-13.0,75400,List1B,white,man,,TRUE,2,,,,,
null,CORRECT,,html-keyboard-response,13,128121,0.0-3.0-14.0-0.0,75400,List1B,white,man,,,,null,,,,
5146,"<img src=""portrait/WM2.jpg""style=""width:400px;height:400px;""></img>",7,html-button-response,14,133267,0.0-3.0-16.0,75400,List1B,white,man,,TRUE,7,,,,,
null,CORRECT,,html-keyboard-response,15,134770,0.0-3.0-17.0-0.0,75400,List1B,white,man,,,,null,,,,
9753,"<img src=""portrait/BM1.jpg""style=""width:400px;height:400px;""></img>",4,html-button-response,16,144525,0.0-3.0-19.0,75400,List1B,white,man,,TRUE,4,,,,,
null,CORRECT,,html-keyboard-response,17,146026,0.0-3.0-20.0-0.0,75400,List1B,white,man,,,,null,,,,
5184,"<img src=""portrait/BM2.jpg""style=""width:400px;height:400px;""></img>",5,html-button-response,18,151211,0.0-3.0-22.0,75400,List1B,white,man,,TRUE,5,,,,,
null,CORRECT,,html-keyboard-response,19,152714,0.0-3.0-23.0-0.0,75400,List1B,white,man,,,,null,,,,
2697,<p>You got 8 out of 8 right first time. Press Continue.</p>,0,html-button-response,20,155411,0.0-3.0-25.0,75400,List1B,white,man,,,,,,,,
52595,"<p>In this experiment, you will view photographs of the people from the memory game interacting.</p><p>By using the <strong>exact</strong> phrase given <i>after</i> the photograph appears and recalling the correct names of the people in the photographs, form a sentence describing the interaction. You do not need to capitalise names.</p><p>Type your answer in the space provided. Please complete every sentence before moving onto the next trial.</p><p>You will only have a few seconds to memorise each given photograph and phrase before you can respond, so try your best to focus.</p><p>An example is given below. Press 'Continue' when you are ready.</p><img src='img/speaking_example_v2.jpg' style='width:800px;height:460px;''></img>",0,html-button-response,21,209007,0.0-4.0,75400,List1B,white,man,,,,,,,,
3800,"<p>Before the experiment starts, you will watch two example trials. Press 'Continue'.</p>",0,html-button-response,22,213809,0.0-5.0,75400,List1B,white,man,,,,,,,,
null,<img src='img/speaking_WW.gif'></img>,,html-keyboard-response,23,216810,0.0-6.0,75400,List1B,white,man,,,,null,,,,
null,<p>is speaking to</p>,,html-keyboard-response,24,218811,0.0-7.0,75400,List1B,white,man,,,,null,,,,
5806,<p><b>Answer:</b> kate is speaking to beth</p>,0,html-button-response,25,224618,0.0-8.0,75400,List1B,white,man,,,,,,,,
null,<img src='img/pointing_BM.gif'></img>,,html-keyboard-response,26,227620,0.0-9.0,75400,List1B,white,man,,,,null,,,,
null,<p>are pointing at each other</p>,,html-keyboard-response,27,229620,0.0-10.0,75400,List1B,white,man,,,,null,,,,
1738,<p><b>Answer:</b> luke and dave are pointing at each other</p>,0,html-button-response,28,231360,0.0-11.0,75400,List1B,white,man,,,,,,,,
16309,"<p>Ready to start the experiment?</p><br><p><strong>Remember to describe the picture using a full sentence,</strong></p><p><strong>that combines the names of the people with the given phrase.</strong></p><p><strong>If you do not do this correctly you will not be paid.</strong></p><p><strong> You do not need to capitalise names or use punctuation.</strong></p><br><p>Press 'Continue' to begin.</p>",0,html-button-response,29,248672,0.0-12.0,75400,List1B,white,man,,,,,,,,
null,"<div style=""font-size:60px;"">+</div>",,html-keyboard-response,30,250174,0.0-13.0-0.0,75400,List1B,white,man,,,,null,,,,
null,"<img src=""stim_listB/marry7.gif""</stim_listB>",,html-keyboard-response,31,252176,0.0-13.0-1.0,75400,List1B,white,man,,,,null,,,,
null,is marrying,,html-keyboard-response,32,254178,0.0-13.0-2.0,75400,List1B,white,man,,,,null,,,,
15598,,,survey-text,33,269776,0.0-13.0-3.0,75400,List1B,white,man,,,,,"{""Q0"":""Ruth is holding hands with Kate""}","<img src=""stim_listB/marry7.gif""</stim_listB>",is marrying,
null,"<div style=""font-size:60px;"">+</div>",,html-keyboard-response,34,270276,0.0-13.0-0.1,75400,List1B,white,man,,,,null,,,,
null,"<img src=""stim_listB/shout2.gif""</stim_listB>",,html-keyboard-response,35,272277,0.0-13.0-1.1,75400,List1B,white,man,,,,null,,,,
null,are shouting at each other,,html-keyboard-response,36,274278,0.0-13.0-2.1,75400,List1B,white,man,,,,null,,,,
22204,,,survey-text,37,296482,0.0-13.0-3.1,75400,List1B,white,man,,,,,"{""Q0"":""Mike and Beth are shouting at each other""}","<img src=""stim_listB/shout2.gif""</stim_listB>",are shouting at each other,
null,"<div style=""font-size:60px;"">+</div>",,html-keyboard-response,38,296984,0.0-13.0-0.2,75400,List1B,white,man,,,,null,,,,
null,"<img src=""stim_listB/kiss7.gif""</stim_listB>",,html-keyboard-response,39,298986,0.0-13.0-1.2,75400,List1B,white,man,,,,null,,,,
null,is kissing,,html-keyboard-response,40,300987,0.0-13.0-2.2,75400,List1B,white,man,,,,null,,,,
12225,,,survey-text,41,313212,0.0-13.0-3.2,75400,List1B,white,man,,,,,"{""Q0"":""Ruth is kissing Beth""}","<img src=""stim_listB/kiss7.gif""</stim_listB>",is kissing,
null,"<div style=""font-size:60px;"">+</div>",,html-keyboard-response,42,313715,0.0-13.0-0.3,75400,List1B,white,man,,,,null,,,,
null,"<img src=""stim_listB/marry1.gif""</stim_listB>",,html-keyboard-response,43,315716,0.0-13.0-1.3,75400,List1B,white,man,,,,null,,,,
null,is marrying,,html-keyboard-response,44,317718,0.0-13.0-2.3,75400,List1B,white,man,,,,null,,,,
12770,,,survey-text,45,330490,0.0-13.0-3.3,75400,List1B,white,man,,,,,"{""Q0"":""Mike is marrying Beth""}","<img src=""stim_listB/marry1.gif""</stim_listB>",is marrying,
null,"<div style=""font-size:60px;"">+</div>",,html-keyboard-response,46,330990,0.0-13.0-0.4,75400,List1B,white,man,,,,null,,,,
null,"<img src=""stim_listB/meet8.gif""</stim_listB>",,html-keyboard-response,47,332993,0.0-13.0-1.4,75400,List1B,white,man,,,,null,,,,
null,are meeting each other,,html-keyboard-response,48,334994,0.0-13.0-2.4,75400,List1B,white,man,,,,null,,,,
10691,,,survey-text,49,345686,0.0-13.0-3.4,75400,List1B,white,man,,,,,"{""Q0"":""Ruth and Kate are meeting each other""}","<img src=""stim_listB/meet8.gif""</stim_listB>",are meeting each other,
null,"<div style=""font-size:60px;"">+</div>",,html-keyboard-response,50,346186,0.0-13.0-0.5,75400,List1B,white,man,,,,null,,,,
null,"<img src=""stim_listB/touch1.gif""</stim_listB>",,html-keyboard-response,51,348187,0.0-13.0-1.5,75400,List1B,white,man,,,,null,,,,
null,is touching,,html-keyboard-response,52,350188,0.0-13.0-2.5,75400,List1B,white,man,,,,null,,,,
7261,,,survey-text,53,357449,0.0-13.0-3.5,75400,List1B,white,man,,,,,"{""Q0"":""Mike is touching Kate""}","<img src=""stim_listB/touch1.gif""</stim_listB>",is touching,
null,"<div style=""font-size:60px;"">+</div>",,html-keyboard-response,54,357951,0.0-13.0-0.6,75400,List1B,white,man,,,,null,,,,
null,"<img src=""stim_listB/meet1.gif""</stim_listB>",,html-keyboard-response,55,359951,0.0-13.0-1.6,75400,List1B,white,man,,,,null,,,,
null,is meeting,,html-keyboard-response,56,361952,0.0-13.0-2.6,75400,List1B,white,man,,,,null,,,,
6482,,,survey-text,57,368435,0.0-13.0-3.6,75400,List1B,white,man,,,,,"{""Q0"":""Mike is meeting Kate""}","<img src=""stim_listB/meet1.gif""</stim_listB>",is meeting,
null,"<div style=""font-size:60px;"">+</div>",,html-keyboard-response,58,368936,0.0-13.0-0.7,75400,List1B,white,man,,,,null,,,,
null,"<img src=""stim_listB/hug5.gif""</stim_listB>",,html-keyboard-response,59,370936,0.0-13.0-1.7,75400,List1B,white,man,,,,null,,,,
null,is hugging,,html-keyboard-response,60,372938,0.0-13.0-2.7,75400,List1B,white,man,,,,null,,,,
7173,,,survey-text,61,380111,0.0-13.0-3.7,75400,List1B,white,man,,,,,"{""Q0"":""Luke is hugging Fred""}","<img src=""stim_listB/hug5.gif""</stim_listB>",is hugging,
null,"<div style=""font-size:60px;"">+</div>",,html-keyboard-response,62,380613,0.0-13.0-0.8,75400,List1B,white,man,,,,null,,,,
null,"<img src=""stim_listB/marry4.gif""</stim_listB>",,html-keyboard-response,63,382615,0.0-13.0-1.8,75400,List1B,white,man,,,,null,,,,
null,are marrying each other,,html-keyboard-response,64,384615,0.0-13.0-2.8,75400,List1B,white,man,,,,null,,,,
11018,,,survey-text,65,395633,0.0-13.0-3.8,75400,List1B,white,man,,,,,"{""Q0"":""Luke and Jane are marrying each other""}","<img src=""stim_listB/marry4.gif""</stim_listB>",are marrying each other,
null,"<div style=""font-size:60px;"">+</div>",,html-keyboard-response,66,396134,0.0-13.0-0.9,75400,List1B,white,man,,,,null,,,,
null,"<img src=""stim_listB/shout4.gif""</stim_listB>",,html-keyboard-response,67,398135,0.0-13.0-1.9,75400,List1B,white,man,,,,null,,,,
null,are shouting at each other,,html-keyboard-response,68,400137,0.0-13.0-2.9,75400,List1B,white,man,,,,null,,,,
15082,,,survey-text,69,415219,0.0-13.0-3.9,75400,List1B,white,man,,,,,"{""Q0"":""Luke and Jane are shouting at each other""}","<img src=""stim_listB/shout4.gif""</stim_listB>",are shouting at each other,
null,"<div style=""font-size:60px;"">+</div>",,html-keyboard-response,70,415719,0.0-13.0-0.10,75400,List1B,white,man,,,,null,,,,
null,"<img src=""stim_listB/dance3.gif""</stim_listB>",,html-keyboard-response,71,417720,0.0-13.0-1.10,75400,List1B,white,man,,,,null,,,,
null,is dancing with,,html-keyboard-response,72,419722,0.0-13.0-2.10,75400,List1B,white,man,,,,null,,,,
6399,,,survey-text,73,426121,0.0-13.0-3.10,75400,List1B,white,man,,,,,"{""Q0"":""Jane is dancing with Luke""}","<img src=""stim_listB/dance3.gif""</stim_listB>",is dancing with,
null,"<div style=""font-size:60px;"">+</div>",,html-keyboard-response,74,426623,0.0-13.0-0.11,75400,List1B,white,man,,,,null,,,,
null,"<img src=""stim_listB/talk1.gif""</stim_listB>",,html-keyboard-response,75,428625,0.0-13.0-1.11,75400,List1B,white,man,,,,null,,,,
null,is talking to,,html-keyboard-response,76,430626,0.0-13.0-2.11,75400,List1B,white,man,,,,null,,,,
10939,,,survey-text,77,441566,0.0-13.0-3.11,75400,List1B,white,man,,,,,"{""Q0"":""Fred is talking with Kate""}","<img src=""stim_listB/talk1.gif""</stim_listB>",is talking to,
null,"<div style=""font-size:60px;"">+</div>",,html-keyboard-response,78,442066,0.0-13.0-0.12,75400,List1B,white,man,,,,null,,,,
null,"<img src=""stim_listB/meet6.gif""</stim_listB>",,html-keyboard-response,79,444068,0.0-13.0-1.12,75400,List1B,white,man,,,,null,,,,
null,are meeting each other,,html-keyboard-response,80,446069,0.0-13.0-2.12,75400,List1B,white,man,,,,null,,,,
11961,,,survey-text,81,458031,0.0-13.0-3.12,75400,List1B,white,man,,,,,"{""Q0"":""Luke and Fred are meeting each other""}","<img src=""stim_listB/meet6.gif""</stim_listB>",are meeting each other,
null,"<div style=""font-size:60px;"">+</div>",,html-keyboard-response,82,458533,0.0-13.0-0.13,75400,List1B,white,man,,,,null,,,,
null,"<img src=""stim_listB/shout8.gif""</stim_listB>",,html-keyboard-response,83,460536,0.0-13.0-1.13,75400,List1B,white,man,,,,null,,,,
null,are shouting at each other,,html-keyboard-response,84,462537,0.0-13.0-2.13,75400,List1B,white,man,,,,null,,,,
8221,,,survey-text,85,470759,0.0-13.0-3.13,75400,List1B,white,man,,,,,"{""Q0"":""Jane and Beth are shouting at each other""}","<img src=""stim_listB/shout8.gif""</stim_listB>",are shouting at each other,
null,"<div style=""font-size:60px;"">+</div>",,html-keyboard-response,86,471261,0.0-13.0-0.14,75400,List1B,white,man,,,,null,,,,
null,"<img src=""stim_listB/hug4.gif""</stim_listB>",,html-keyboard-response,87,473262,0.0-13.0-1.14,75400,List1B,white,man,,,,null,,,,
null,are hugging each other,,html-keyboard-response,88,475264,0.0-13.0-2.14,75400,List1B,white,man,,,,null,,,,
11096,,,survey-text,89,486360,0.0-13.0-3.14,75400,List1B,white,man,,,,,"{""Q0"":""Dave and Jane are hugging each other""}","<img src=""stim_listB/hug4.gif""</stim_listB>",are hugging each other,
null,"<div style=""font-size:60px;"">+</div>",,html-keyboard-response,90,486861,0.0-13.0-0.15,75400,List1B,white,man,,,,null,,,,
null,"<img src=""stim_listB/talk8.gif""</stim_listB>",,html-keyboard-response,91,488863,0.0-13.0-1.15,75400,List1B,white,man,,,,null,,,,
null,are talking to each other,,html-keyboard-response,92,490864,0.0-13.0-2.15,75400,List1B,white,man,,,,null,,,,
15747,,,survey-text,93,506611,0.0-13.0-3.15,75400,List1B,white,man,,,,,"{""Q0"":""Beth is talking to Ruth""}","<img src=""stim_listB/talk8.gif""</stim_listB>",are talking to each other,
null,"<div style=""font-size:60px;"">+</div>",,html-keyboard-response,94,507111,0.0-13.0-0.16,75400,List1B,white,man,,,,null,,,,
null,"<img src=""stim_listB/fight6.gif""</stim_listB>",,html-keyboard-response,95,509112,0.0-13.0-1.16,75400,List1B,white,man,,,,null,,,,
null,are fighting each other,,html-keyboard-response,96,511113,0.0-13.0-2.16,75400,List1B,white,man,,,,null,,,,
11672,,,survey-text,97,522785,0.0-13.0-3.16,75400,List1B,white,man,,,,,"{""Q0"":""Luke is fighting with Fred""}","<img src=""stim_listB/fight6.gif""</stim_listB>",are fighting each other,
null,"<div style=""font-size:60px;"">+</div>",,html-keyboard-response,98,523287,0.0-13.0-0.17,75400,List1B,white,man,,,,null,,,,
null,"<img src=""stim_listB/fight1.gif""</stim_listB>",,html-keyboard-response,99,525288,0.0-13.0-1.17,75400,List1B,white,man,,,,null,,,,
null,is fighting,,html-keyboard-response,100,527288,0.0-13.0-2.17,75400,List1B,white,man,,,,null,,,,
13647,,,survey-text,101,540935,0.0-13.0-3.17,75400,List1B,white,man,,,,,"{""Q0"":""Mike is fighting with Kate""}","<img src=""stim_listB/fight1.gif""</stim_listB>",is fighting,
null,"<div style=""font-size:60px;"">+</div>",,html-keyboard-response,102,541437,0.0-13.0-0.18,75400,List1B,white,man,,,,null,,,,
null,"<img src=""stim_listB/argue1.gif""</stim_listB>",,html-keyboard-response,103,543439,0.0-13.0-1.18,75400,List1B,white,man,,,,null,,,,
null,is arguing with,,html-keyboard-response,104,545439,0.0-13.0-2.18,75400,List1B,white,man,,,,null,,,,
9778,,,survey-text,105,555217,0.0-13.0-3.18,75400,List1B,white,man,,,,,"{""Q0"":""Luke is arguing with Beth""}","<img src=""stim_listB/argue1.gif""</stim_listB>",is arguing with,
null,"<div style=""font-size:60px;"">+</div>",,html-keyboard-response,106,555718,0.0-13.0-0.19,75400,List1B,white,man,,,,null,,,,
null,"<img src=""stim_listB/marry5.gif""</stim_listB>",,html-keyboard-response,107,557720,0.0-13.0-1.19,75400,List1B,white,man,,,,null,,,,
null,is marrying,,html-keyboard-response,108,559722,0.0-13.0-2.19,75400,List1B,white,man,,,,null,,,,
7279,,,survey-text,109,567001,0.0-13.0-3.19,75400,List1B,white,man,,,,,"{""Q0"":""Dave is marrying Mike""}","<img src=""stim_listB/marry5.gif""</stim_listB>",is marrying,
35367,"<img src='img/portrait_matrix_list1.JPG' style='width:900px;height:500px;''></img><p>If you have memorised all the portraits and names and are ready to start, press Continue.</p><p><strong>Please note: Your memory of these faces will be tested 4 times during this experiment.</strong></p>",0,html-button-response,110,602369,0.0-14.0-0.0,75400,List1B,white,man,,,,,,,,
3835,"<img src=""portrait/BM2.jpg""style=""width:400px;height:400px;""></img>",5,html-button-response,111,607206,0.0-14.0-1.0,75400,List1B,white,man,,TRUE,5,,,,,
null,CORRECT,,html-keyboard-response,112,608710,0.0-14.0-2.0-0.0,75400,List1B,white,man,,,,null,,,,
1875,"<img src=""portrait/WM2.jpg""style=""width:400px;height:400px;""></img>",7,html-button-response,113,610585,0.0-14.0-4.0,75400,List1B,white,man,,TRUE,7,,,,,
null,CORRECT,,html-keyboard-response,114,612087,0.0-14.0-5.0-0.0,75400,List1B,white,man,,,,null,,,,
4920,"<img src=""portrait/BW2.jpg""style=""width:400px;height:400px;""></img>",2,html-button-response,115,617007,0.0-14.0-7.0,75400,List1B,white,man,,TRUE,2,,,,,
null,CORRECT,,html-keyboard-response,116,618510,0.0-14.0-8.0-0.0,75400,List1B,white,man,,,,null,,,,
8618,"<img src=""portrait/BW1.jpg""style=""width:400px;height:400px;""></img>",0,html-button-response,117,627128,0.0-14.0-10.0,75400,List1B,white,man,,TRUE,0,,,,,
null,CORRECT,,html-keyboard-response,118,628631,0.0-14.0-11.0-0.0,75400,List1B,white,man,,,,null,,,,
5240,"<img src=""portrait/WW2.jpg""style=""width:400px;height:400px;""></img>",3,html-button-response,119,633871,0.0-14.0-13.0,75400,List1B,white,man,,TRUE,3,,,,,
null,CORRECT,,html-keyboard-response,120,635374,0.0-14.0-14.0-0.0,75400,List1B,white,man,,,,null,,,,
5425,"<img src=""portrait/WM1.jpg""style=""width:400px;height:400px;""></img>",6,html-button-response,121,640800,0.0-14.0-16.0,75400,List1B,white,man,,TRUE,6,,,,,
null,CORRECT,,html-keyboard-response,122,642303,0.0-14.0-17.0-0.0,75400,List1B,white,man,,,,null,,,,
2579,"<img src=""portrait/WW1.jpg""style=""width:400px;height:400px;""></img>",1,html-button-response,123,644883,0.0-14.0-19.0,75400,List1B,white,man,,TRUE,1,,,,,
null,CORRECT,,html-keyboard-response,124,646385,0.0-14.0-20.0-0.0,75400,List1B,white,man,,,,null,,,,
3568,"<img src=""portrait/BM1.jpg""style=""width:400px;height:400px;""></img>",4,html-button-response,125,649954,0.0-14.0-22.0,75400,List1B,white,man,,TRUE,4,,,,,
null,CORRECT,,html-keyboard-response,126,651455,0.0-14.0-23.0-0.0,75400,List1B,white,man,,,,null,,,,
3159,<p>You got 8 out of 8 right first time. Press Continue.</p>,0,html-button-response,127,654614,0.0-14.0-25.0,75400,List1B,white,man,,,,,,,,
null,"<div style=""font-size:60px;"">+</div>",,html-keyboard-response,128,656118,0.0-15.0-0.0,75400,List1B,white,man,,,,null,,,,
null,"<img src=""stim_listB/argue2.gif""</stim_listB>",,html-keyboard-response,129,658120,0.0-15.0-1.0,75400,List1B,white,man,,,,null,,,,
null,are arguing with each other,,html-keyboard-response,130,660121,0.0-15.0-2.0,75400,List1B,white,man,,,,null,,,,
9360,,,survey-text,131,669481,0.0-15.0-3.0,75400,List1B,white,man,,,,,"{""Q0"":""Fred and Kate are arguing with each other""}","<img src=""stim_listB/argue2.gif""</stim_listB>",are arguing with each other,
null,"<div style=""font-size:60px;"">+</div>",,html-keyboard-response,132,669983,0.0-15.0-0.1,75400,List1B,white,man,,,,null,,,,
null,"<img src=""stim_listB/meet5.gif""</stim_listB>",,html-keyboard-response,133,671984,0.0-15.0-1.1,75400,List1B,white,man,,,,null,,,,
null,is meeting,,html-keyboard-response,134,673984,0.0-15.0-2.1,75400,List1B,white,man,,,,null,,,,
11579,,,survey-text,135,685563,0.0-15.0-3.1,75400,List1B,white,man,,,,,"{""Q0"":""Dave is meeting Mike""}","<img src=""stim_listB/meet5.gif""</stim_listB>",is meeting,
null,"<div style=""font-size:60px;"">+</div>",,html-keyboard-response,136,686064,0.0-15.0-0.2,75400,List1B,white,man,,,,null,,,,
null,"<img src=""stim_listB/argue6.gif""</stim_listB>",,html-keyboard-response,137,688066,0.0-15.0-1.2,75400,List1B,white,man,,,,null,,,,
null,are arguing with each other,,html-keyboard-response,138,690068,0.0-15.0-2.2,75400,List1B,white,man,,,,null,,,,
11364,,,survey-text,139,701432,0.0-15.0-3.2,75400,List1B,white,man,,,,,"{""Q0"":""Dave and Fred are arguing with each other""}","<img src=""stim_listB/argue6.gif""</stim_listB>",are arguing with each other,
null,"<div style=""font-size:60px;"">+</div>",,html-keyboard-response,140,701934,0.0-15.0-0.3,75400,List1B,white,man,,,,null,,,,
null,"<img src=""stim_listB/argue3.gif""</stim_listB>",,html-keyboard-response,141,703936,0.0-15.0-1.3,75400,List1B,white,man,,,,null,,,,
null,is arguing with,,html-keyboard-response,142,705938,0.0-15.0-2.3,75400,List1B,white,man,,,,null,,,,
8144,,,survey-text,143,714083,0.0-15.0-3.3,75400,List1B,white,man,,,,,"{""Q0"":""Beth is arguing with Dave""}","<img src=""stim_listB/argue3.gif""</stim_listB>",is arguing with,
null,"<div style=""font-size:60px;"">+</div>",,html-keyboard-response,144,714584,0.0-15.0-0.4,75400,List1B,white,man,,,,null,,,,
null,"<img src=""stim_listB/marry8.gif""</stim_listB>",,html-keyboard-response,145,716585,0.0-15.0-1.4,75400,List1B,white,man,,,,null,,,,
null,are marrying each other,,html-keyboard-response,146,718587,0.0-15.0-2.4,75400,List1B,white,man,,,,null,,,,
8428,,,survey-text,147,727015,0.0-15.0-3.4,75400,List1B,white,man,,,,,"{""Q0"":""Beth and Jane are marrying each other""}","<img src=""stim_listB/marry8.gif""</stim_listB>",are marrying each other,
null,"<div style=""font-size:60px;"">+</div>",,html-keyboard-response,148,727517,0.0-15.0-0.5,75400,List1B,white,man,,,,null,,,,
null,"<img src=""stim_listB/fight7.gif""</stim_listB>",,html-keyboard-response,149,729519,0.0-15.0-1.5,75400,List1B,white,man,,,,null,,,,
null,is fighting,,html-keyboard-response,150,731520,0.0-15.0-2.5,75400,List1B,white,man,,,,null,,,,
14910,,,survey-text,151,746430,0.0-15.0-3.5,75400,List1B,white,man,,,,,"{""Q0"":""Kate is fighting Jane""}","<img src=""stim_listB/fight7.gif""</stim_listB>",is fighting,
null,"<div style=""font-size:60px;"">+</div>",,html-keyboard-response,152,746933,0.0-15.0-0.6,75400,List1B,white,man,,,,null,,,,
null,"<img src=""stim_listB/talk6.gif""</stim_listB>",,html-keyboard-response,153,748935,0.0-15.0-1.6,75400,List1B,white,man,,,,null,,,,
null,are talking to each other,,html-keyboard-response,154,750936,0.0-15.0-2.6,75400,List1B,white,man,,,,null,,,,
8866,,,survey-text,155,759802,0.0-15.0-3.6,75400,List1B,white,man,,,,,"{""Q0"":""Mike and Luke are talking to each other""}","<img src=""stim_listB/talk6.gif""</stim_listB>",are talking to each other,
null,"<div style=""font-size:60px;"">+</div>",,html-keyboard-response,156,760302,0.0-15.0-0.7,75400,List1B,white,man,,,,null,,,,
null,"<img src=""stim_listB/dance1.gif""</stim_listB>",,html-keyboard-response,157,762304,0.0-15.0-1.7,75400,List1B,white,man,,,,null,,,,
null,is dancing with,,html-keyboard-response,158,764306,0.0-15.0-2.7,75400,List1B,white,man,,,,null,,,,
7016,,,survey-text,159,771322,0.0-15.0-3.7,75400,List1B,white,man,,,,,"{""Q0"":""Fred is dancing with Kate""}","<img src=""stim_listB/dance1.gif""</stim_listB>",is dancing with,
null,"<div style=""font-size:60px;"">+</div>",,html-keyboard-response,160,771823,0.0-15.0-0.8,75400,List1B,white,man,,,,null,,,,
null,"<img src=""stim_listB/kiss1.gif""</stim_listB>",,html-keyboard-response,161,773824,0.0-15.0-1.8,75400,List1B,white,man,,,,null,,,,
null,is kissing,,html-keyboard-response,162,775826,0.0-15.0-2.8,75400,List1B,white,man,,,,null,,,,
5978,,,survey-text,163,781805,0.0-15.0-3.8,75400,List1B,white,man,,,,,"{""Q0"":""Fred is kissing Beth""}","<img src=""stim_listB/kiss1.gif""</stim_listB>",is kissing,
null,"<div style=""font-size:60px;"">+</div>",,html-keyboard-response,164,782306,0.0-15.0-0.9,75400,List1B,white,man,,,,null,,,,
null,"<img src=""stim_listB/meet3.gif""</stim_listB>",,html-keyboard-response,165,784307,0.0-15.0-1.9,75400,List1B,white,man,,,,null,,,,
null,is meeting,,html-keyboard-response,166,786309,0.0-15.0-2.9,75400,List1B,white,man,,,,null,,,,
7389,,,survey-text,167,793698,0.0-15.0-3.9,75400,List1B,white,man,,,,,"{""Q0"":""Dave is meeting Jane""}","<img src=""stim_listB/meet3.gif""</stim_listB>",is meeting,
null,"<div style=""font-size:60px;"">+</div>",,html-keyboard-response,168,794199,0.0-15.0-0.10,75400,List1B,white,man,,,,null,,,,
null,"<img src=""stim_listB/shout3.gif""</stim_listB>",,html-keyboard-response,169,796201,0.0-15.0-1.10,75400,List1B,white,man,,,,null,,,,
null,is shouting at,,html-keyboard-response,170,798202,0.0-15.0-2.10,75400,List1B,white,man,,,,null,,,,
12655,,,survey-text,171,810858,0.0-15.0-3.10,75400,List1B,white,man,,,,,"{""Q0"":""Luke is shouting at Ruth""}","<img src=""stim_listB/shout3.gif""</stim_listB>",is shouting at,
null,"<div style=""font-size:60px;"">+</div>",,html-keyboard-response,172,811360,0.0-15.0-0.11,75400,List1B,white,man,,,,null,,,,
null,"<img src=""stim_listB/touch7.gif""</stim_listB>",,html-keyboard-response,173,813361,0.0-15.0-1.11,75400,List1B,white,man,,,,null,,,,
null,is touching,,html-keyboard-response,174,815362,0.0-15.0-2.11,75400,List1B,white,man,,,,null,,,,
6492,,,survey-text,175,821855,0.0-15.0-3.11,75400,List1B,white,man,,,,,"{""Q0"":""Jane is touching Kate""}","<img src=""stim_listB/touch7.gif""</stim_listB>",is touching,
null,"<div style=""font-size:60px;"">+</div>",,html-keyboard-response,176,822356,0.0-15.0-0.12,75400,List1B,white,man,,,,null,,,,
null,"<img src=""stim_listB/shout7.gif""</stim_listB>",,html-keyboard-response,177,824357,0.0-15.0-1.12,75400,List1B,white,man,,,,null,,,,
null,is shouting at,,html-keyboard-response,178,826359,0.0-15.0-2.12,75400,List1B,white,man,,,,null,,,,
6596,,,survey-text,179,832955,0.0-15.0-3.12,75400,List1B,white,man,,,,,"{""Q0"":""Ruth is shouting at Beth""}","<img src=""stim_listB/shout7.gif""</stim_listB>",is shouting at,
null,"<div style=""font-size:60px;"">+</div>",,html-keyboard-response,180,833456,0.0-15.0-0.13,75400,List1B,white,man,,,,null,,,,
null,"<img src=""stim_listB/argue7.gif""</stim_listB>",,html-keyboard-response,181,835458,0.0-15.0-1.13,75400,List1B,white,man,,,,null,,,,
null,is arguing with,,html-keyboard-response,182,837459,0.0-15.0-2.13,75400,List1B,white,man,,,,null,,,,
17695,,,survey-text,183,855154,0.0-15.0-3.13,75400,List1B,white,man,,,,,"{""Q0"":""No picture appeared""}","<img src=""stim_listB/argue7.gif""</stim_listB>",is arguing with,
null,"<div style=""font-size:60px;"">+</div>",,html-keyboard-response,184,855656,0.0-15.0-0.14,75400,List1B,white,man,,,,null,,,,
null,"<img src=""stim_listB/kiss8.gif""</stim_listB>",,html-keyboard-response,185,857658,0.0-15.0-1.14,75400,List1B,white,man,,,,null,,,,
null,are kissing each other,,html-keyboard-response,186,859660,0.0-15.0-2.14,75400,List1B,white,man,,,,null,,,,
8943,,,survey-text,187,868603,0.0-15.0-3.14,75400,List1B,white,man,,,,,"{""Q0"":""Jane and Kate are kissing each other""}","<img src=""stim_listB/kiss8.gif""</stim_listB>",are kissing each other,
null,"<div style=""font-size:60px;"">+</div>",,html-keyboard-response,188,869105,0.0-15.0-0.15,75400,List1B,white,man,,,,null,,,,
null,"<img src=""stim_listB/talk7.gif""</stim_listB>",,html-keyboard-response,189,871106,0.0-15.0-1.15,75400,List1B,white,man,,,,null,,,,
null,is talking to,,html-keyboard-response,190,873107,0.0-15.0-2.15,75400,List1B,white,man,,,,null,,,,
8756,,,survey-text,191,881863,0.0-15.0-3.15,75400,List1B,white,man,,,,,"{""Q0"":""Beth is talking to Jane""}","<img src=""stim_listB/talk7.gif""</stim_listB>",is talking to,
null,"<div style=""font-size:60px;"">+</div>",,html-keyboard-response,192,882364,0.0-15.0-0.16,75400,List1B,white,man,,,,null,,,,
null,"<img src=""stim_listB/touch4.gif""</stim_listB>",,html-keyboard-response,193,884366,0.0-15.0-1.16,75400,List1B,white,man,,,,null,,,,
null,are touching each other,,html-keyboard-response,194,886366,0.0-15.0-2.16,75400,List1B,white,man,,,,null,,,,
8303,,,survey-text,195,894670,0.0-15.0-3.16,75400,List1B,white,man,,,,,"{""Q0"":""Ruth and Luke are touching each other""}","<img src=""stim_listB/touch4.gif""</stim_listB>",are touching each other,
null,"<div style=""font-size:60px;"">+</div>",,html-keyboard-response,196,895172,0.0-15.0-0.17,75400,List1B,white,man,,,,null,,,,
null,"<img src=""stim_listB/meet4.gif""</stim_listB>",,html-keyboard-response,197,897173,0.0-15.0-1.17,75400,List1B,white,man,,,,null,,,,
null,are meeting each other,,html-keyboard-response,198,899175,0.0-15.0-2.17,75400,List1B,white,man,,,,null,,,,
8260,,,survey-text,199,907435,0.0-15.0-3.17,75400,List1B,white,man,,,,,"{""Q0"":""Luke and Ruth are meeting each other""}","<img src=""stim_listB/meet4.gif""</stim_listB>",are meeting each other,
null,"<div style=""font-size:60px;"">+</div>",,html-keyboard-response,200,907936,0.0-15.0-0.18,75400,List1B,white,man,,,,null,,,,
null,"<img src=""stim_listB/hug1.gif""</stim_listB>",,html-keyboard-response,201,909936,0.0-15.0-1.18,75400,List1B,white,man,,,,null,,,,
null,is hugging,,html-keyboard-response,202,911938,0.0-15.0-2.18,75400,List1B,white,man,,,,null,,,,
5806,,,survey-text,203,917744,0.0-15.0-3.18,75400,List1B,white,man,,,,,"{""Q0"":""Fred is hugging Beth""}","<img src=""stim_listB/hug1.gif""</stim_listB>",is hugging,
null,"<div style=""font-size:60px;"">+</div>",,html-keyboard-response,204,918246,0.0-15.0-0.19,75400,List1B,white,man,,,,null,,,,
null,"<img src=""stim_listB/touch8.gif""</stim_listB>",,html-keyboard-response,205,920247,0.0-15.0-1.19,75400,List1B,white,man,,,,null,,,,
null,are touching each other,,html-keyboard-response,206,922249,0.0-15.0-2.19,75400,List1B,white,man,,,,null,,,,
9654,,,survey-text,207,931903,0.0-15.0-3.19,75400,List1B,white,man,,,,,"{""Q0"":""Ruth and Beth are touching each other""}","<img src=""stim_listB/touch8.gif""</stim_listB>",are touching each other,
15415,"<img src='img/portrait_matrix_list1.JPG' style='width:900px;height:500px;''></img><p>If you have memorised all the portraits and names and are ready to start, press Continue.</p><p><strong>Please note: Your memory of these faces will be tested 4 times during this experiment.</strong></p>",0,html-button-response,208,947319,0.0-16.0-0.0,75400,List1B,white,man,,,,,,,,
3116,"<img src=""portrait/BW2.jpg""style=""width:400px;height:400px;""></img>",2,html-button-response,209,951436,0.0-16.0-1.0,75400,List1B,white,man,,TRUE,2,,,,,
null,CORRECT,,html-keyboard-response,210,952939,0.0-16.0-2.0-0.0,75400,List1B,white,man,,,,null,,,,
3283,"<img src=""portrait/BM2.jpg""style=""width:400px;height:400px;""></img>",5,html-button-response,211,956223,0.0-16.0-4.0,75400,List1B,white,man,,TRUE,5,,,,,
null,CORRECT,,html-keyboard-response,212,957725,0.0-16.0-5.0-0.0,75400,List1B,white,man,,,,null,,,,
5278,"<img src=""portrait/WW2.jpg""style=""width:400px;height:400px;""></img>",3,html-button-response,213,963004,0.0-16.0-7.0,75400,List1B,white,man,,TRUE,3,,,,,
null,CORRECT,,html-keyboard-response,214,964505,0.0-16.0-8.0-0.0,75400,List1B,white,man,,,,null,,,,
3783,"<img src=""portrait/BW1.jpg""style=""width:400px;height:400px;""></img>",0,html-button-response,215,968289,0.0-16.0-10.0,75400,List1B,white,man,,TRUE,0,,,,,
null,CORRECT,,html-keyboard-response,216,969791,0.0-16.0-11.0-0.0,75400,List1B,white,man,,,,null,,,,
3284,"<img src=""portrait/WM2.jpg""style=""width:400px;height:400px;""></img>",7,html-button-response,217,973076,0.0-16.0-13.0,75400,List1B,white,man,,TRUE,7,,,,,
null,CORRECT,,html-keyboard-response,218,974579,0.0-16.0-14.0-0.0,75400,List1B,white,man,,,,null,,,,
3031,"<img src=""portrait/WW1.jpg""style=""width:400px;height:400px;""></img>",1,html-button-response,219,977612,0.0-16.0-16.0,75400,List1B,white,man,,TRUE,1,,,,,
null,CORRECT,,html-keyboard-response,220,979114,0.0-16.0-17.0-0.0,75400,List1B,white,man,,,,null,,,,
2435,"<img src=""portrait/WM1.jpg""style=""width:400px;height:400px;""></img>",6,html-button-response,221,981550,0.0-16.0-19.0,75400,List1B,white,man,,TRUE,6,,,,,
null,CORRECT,,html-keyboard-response,222,983052,0.0-16.0-20.0-0.0,75400,List1B,white,man,,,,null,,,,
2791,"<img src=""portrait/BM1.jpg""style=""width:400px;height:400px;""></img>",4,html-button-response,223,985844,0.0-16.0-22.0,75400,List1B,white,man,,TRUE,4,,,,,
null,CORRECT,,html-keyboard-response,224,987347,0.0-16.0-23.0-0.0,75400,List1B,white,man,,,,null,,,,
1211,<p>You got 8 out of 8 right first time. Press Continue.</p>,0,html-button-response,225,988559,0.0-16.0-25.0,75400,List1B,white,man,,,,,,,,
null,"<div style=""font-size:60px;"">+</div>",,html-keyboard-response,226,990060,0.0-17.0-0.0,75400,List1B,white,man,,,,null,,,,
null,"<img src=""stim_listB/touch6.gif""</stim_listB>",,html-keyboard-response,227,992061,0.0-17.0-1.0,75400,List1B,white,man,,,,null,,,,
null,are touching each other,,html-keyboard-response,228,994061,0.0-17.0-2.0,75400,List1B,white,man,,,,null,,,,
8360,,,survey-text,229,1002423,0.0-17.0-3.0,75400,List1B,white,man,,,,,"{""Q0"":""Fred and Luke are touching each other""}","<img src=""stim_listB/touch6.gif""</stim_listB>",are touching each other,
null,"<div style=""font-size:60px;"">+</div>",,html-keyboard-response,230,1002924,0.0-17.0-0.1,75400,List1B,white,man,,,,null,,,,
null,"<img src=""stim_listB/marry3.gif""</stim_listB>",,html-keyboard-response,231,1004926,0.0-17.0-1.1,75400,List1B,white,man,,,,null,,,,
null,is marrying,,html-keyboard-response,232,1006928,0.0-17.0-2.1,75400,List1B,white,man,,,,null,,,,
6387,,,survey-text,233,1013316,0.0-17.0-3.1,75400,List1B,white,man,,,,,"{""Q0"":""Dave is marrying Ruth""}","<img src=""stim_listB/marry3.gif""</stim_listB>",is marrying,
null,"<div style=""font-size:60px;"">+</div>",,html-keyboard-response,234,1013818,0.0-17.0-0.2,75400,List1B,white,man,,,,null,,,,
null,"<img src=""stim_listB/talk5.gif""</stim_listB>",,html-keyboard-response,235,1015819,0.0-17.0-1.2,75400,List1B,white,man,,,,null,,,,
null,is talking to,,html-keyboard-response,236,1017820,0.0-17.0-2.2,75400,List1B,white,man,,,,null,,,,
7054,,,survey-text,237,1024876,0.0-17.0-3.2,75400,List1B,white,man,,,,,"{""Q0"":""Dave is talking to Fred""}","<img src=""stim_listB/talk5.gif""</stim_listB>",is talking to,
null,"<div style=""font-size:60px;"">+</div>",,html-keyboard-response,238,1025377,0.0-17.0-0.3,75400,List1B,white,man,,,,null,,,,
null,"<img src=""stim_listB/kiss3.gif""</stim_listB>",,html-keyboard-response,239,1027378,0.0-17.0-1.3,75400,List1B,white,man,,,,null,,,,
null,is kissing,,html-keyboard-response,240,1029380,0.0-17.0-2.3,75400,List1B,white,man,,,,null,,,,
6476,,,survey-text,241,1035857,0.0-17.0-3.3,75400,List1B,white,man,,,,,"{""Q0"":""Ruth is kissing Luke""}","<img src=""stim_listB/kiss3.gif""</stim_listB>",is kissing,
null,"<div style=""font-size:60px;"">+</div>",,html-keyboard-response,242,1036357,0.0-17.0-0.4,75400,List1B,white,man,,,,null,,,,
null,"<img src=""stim_listB/kiss2.gif""</stim_listB>",,html-keyboard-response,243,1038358,0.0-17.0-1.4,75400,List1B,white,man,,,,null,,,,
null,are kissing each other,,html-keyboard-response,244,1040360,0.0-17.0-2.4,75400,List1B,white,man,,,,null,,,,
7311,,,survey-text,245,1047672,0.0-17.0-3.4,75400,List1B,white,man,,,,,"{""Q0"":""Mike and Kate are kissing each other""}","<img src=""stim_listB/kiss2.gif""</stim_listB>",are kissing each other,
null,"<div style=""font-size:60px;"">+</div>",,html-keyboard-response,246,1048174,0.0-17.0-0.5,75400,List1B,white,man,,,,null,,,,
null,"<img src=""stim_listB/touch5.gif""</stim_listB>",,html-keyboard-response,247,1050174,0.0-17.0-1.5,75400,List1B,white,man,,,,null,,,,
null,is touching,,html-keyboard-response,248,1052176,0.0-17.0-2.5,75400,List1B,white,man,,,,null,,,,
6050,,,survey-text,249,1058228,0.0-17.0-3.5,75400,List1B,white,man,,,,,"{""Q0"":""Dave is touching Mike""}","<img src=""stim_listB/touch5.gif""</stim_listB>",is touching,
null,"<div style=""font-size:60px;"">+</div>",,html-keyboard-response,250,1058729,0.0-17.0-0.6,75400,List1B,white,man,,,,null,,,,
null,"<img src=""stim_listB/dance6.gif""</stim_listB>",,html-keyboard-response,251,1060732,0.0-17.0-1.6,75400,List1B,white,man,,,,null,,,,
null,are dancing with each other,,html-keyboard-response,252,1062734,0.0-17.0-2.6,75400,List1B,white,man,,,,null,,,,
8045,,,survey-text,253,1070779,0.0-17.0-3.6,75400,List1B,white,man,,,,,"{""Q0"":""Mike and Luke are dancing with each other""}","<img src=""stim_listB/dance6.gif""</stim_listB>",are dancing with each other,
null,"<div style=""font-size:60px;"">+</div>",,html-keyboard-response,254,1071280,0.0-17.0-0.7,75400,List1B,white,man,,,,null,,,,
null,"<img src=""stim_listB/meet2.gif""</stim_listB>",,html-keyboard-response,255,1073281,0.0-17.0-1.7,75400,List1B,white,man,,,,null,,,,
null,are meeting each other,,html-keyboard-response,256,1075283,0.0-17.0-2.7,75400,List1B,white,man,,,,null,,,,
7364,,,survey-text,257,1082647,0.0-17.0-3.7,75400,List1B,white,man,,,,,"{""Q0"":""Fred and Beth are meeting each other""}","<img src=""stim_listB/meet2.gif""</stim_listB>",are meeting each other,
null,"<div style=""font-size:60px;"">+</div>",,html-keyboard-response,258,1083148,0.0-17.0-0.8,75400,List1B,white,man,,,,null,,,,
null,"<img src=""stim_listB/shout1.gif""</stim_listB>",,html-keyboard-response,259,1085150,0.0-17.0-1.8,75400,List1B,white,man,,,,null,,,,
null,is shouting at,,html-keyboard-response,260,1087152,0.0-17.0-2.8,75400,List1B,white,man,,,,null,,,,
6526,,,survey-text,261,1093678,0.0-17.0-3.8,75400,List1B,white,man,,,,,"{""Q0"":""Fred is shouting at Beth""}","<img src=""stim_listB/shout1.gif""</stim_listB>",is shouting at,
null,"<div style=""font-size:60px;"">+</div>",,html-keyboard-response,262,1094180,0.0-17.0-0.9,75400,List1B,white,man,,,,null,,,,
null,"<img src=""stim_listB/argue8.gif""</stim_listB>",,html-keyboard-response,263,1096182,0.0-17.0-1.9,75400,List1B,white,man,,,,null,,,,
null,are arguing with each other,,html-keyboard-response,264,1098184,0.0-17.0-2.9,75400,List1B,white,man,,,,null,,,,
8643,,,survey-text,265,1106828,0.0-17.0-3.9,75400,List1B,white,man,,,,,"{""Q0"":""Beth and Jane are arguing with each other""}","<img src=""stim_listB/argue8.gif""</stim_listB>",are arguing with each other,
null,"<div style=""font-size:60px;"">+</div>",,html-keyboard-response,266,1107328,0.0-17.0-0.10,75400,List1B,white,man,,,,null,,,,
null,"<img src=""stim_listB/hug7.gif""</stim_listB>",,html-keyboard-response,267,1109330,0.0-17.0-1.10,75400,List1B,white,man,,,,null,,,,
null,is hugging,,html-keyboard-response,268,1111331,0.0-17.0-2.10,75400,List1B,white,man,,,,null,,,,
6590,,,survey-text,269,1117922,0.0-17.0-3.10,75400,List1B,white,man,,,,,"{""Q0"":""Ruth is hugging Beth""}","<img src=""stim_listB/hug7.gif""</stim_listB>",is hugging,
null,"<div style=""font-size:60px;"">+</div>",,html-keyboard-response,270,1118422,0.0-17.0-0.11,75400,List1B,white,man,,,,null,,,,
null,"<img src=""stim_listB/touch3.gif""</stim_listB>",,html-keyboard-response,271,1120424,0.0-17.0-1.11,75400,List1B,white,man,,,,null,,,,
null,is touching,,html-keyboard-response,272,1122425,0.0-17.0-2.11,75400,List1B,white,man,,,,null,,,,
5183,,,survey-text,273,1127610,0.0-17.0-3.11,75400,List1B,white,man,,,,,"{""Q0"":""Dave is touching jane""}","<img src=""stim_listB/touch3.gif""</stim_listB>",is touching,
null,"<div style=""font-size:60px;"">+</div>",,html-keyboard-response,274,1128112,0.0-17.0-0.12,75400,List1B,white,man,,,,null,,,,
null,"<img src=""stim_listB/fight8.gif""</stim_listB>",,html-keyboard-response,275,1130114,0.0-17.0-1.12,75400,List1B,white,man,,,,null,,,,
null,are fighting each other,,html-keyboard-response,276,1132116,0.0-17.0-2.12,75400,List1B,white,man,,,,null,,,,
8967,,,survey-text,277,1141084,0.0-17.0-3.12,75400,List1B,white,man,,,,,"{""Q0"":""Beth and Ruth are fighting each other""}","<img src=""stim_listB/fight8.gif""</stim_listB>",are fighting each other,
null,"<div style=""font-size:60px;"">+</div>",,html-keyboard-response,278,1141586,0.0-17.0-0.13,75400,List1B,white,man,,,,null,,,,
null,"<img src=""stim_listB/fight4.gif""</stim_listB>",,html-keyboard-response,279,1143588,0.0-17.0-1.13,75400,List1B,white,man,,,,null,,,,
null,are fighting each other,,html-keyboard-response,280,1145590,0.0-17.0-2.13,75400,List1B,white,man,,,,null,,,,
8385,,,survey-text,281,1153976,0.0-17.0-3.13,75400,List1B,white,man,,,,,"{""Q0"":""Luke and Ruth are fighting each other""}","<img src=""stim_listB/fight4.gif""</stim_listB>",are fighting each other,
null,"<div style=""font-size:60px;"">+</div>",,html-keyboard-response,282,1154478,0.0-17.0-0.14,75400,List1B,white,man,,,,null,,,,
null,"<img src=""stim_listB/shout5.gif""</stim_listB>",,html-keyboard-response,283,1156480,0.0-17.0-1.14,75400,List1B,white,man,,,,null,,,,
null,is shouting at,,html-keyboard-response,284,1158480,0.0-17.0-2.14,75400,List1B,white,man,,,,null,,,,
5553,,,survey-text,285,1164034,0.0-17.0-3.14,75400,List1B,white,man,,,,,"{""Q0"":""Fred is shouting at Luke""}","<img src=""stim_listB/shout5.gif""</stim_listB>",is shouting at,
null,"<div style=""font-size:60px;"">+</div>",,html-keyboard-response,286,1164536,0.0-17.0-0.15,75400,List1B,white,man,,,,null,,,,
null,"<img src=""stim_listB/dance7.gif""</stim_listB>",,html-keyboard-response,287,1166537,0.0-17.0-1.15,75400,List1B,white,man,,,,null,,,,
null,is dancing with,,html-keyboard-response,288,1168539,0.0-17.0-2.15,75400,List1B,white,man,,,,null,,,,
7086,,,survey-text,289,1175626,0.0-17.0-3.15,75400,List1B,white,man,,,,,"{""Q0"":""Jane is dancing with Beth""}","<img src=""stim_listB/dance7.gif""</stim_listB>",is dancing with,
null,"<div style=""font-size:60px;"">+</div>",,html-keyboard-response,290,1176127,0.0-17.0-0.16,75400,List1B,white,man,,,,null,,,,
null,"<img src=""stim_listB/dance5.gif""</stim_listB>",,html-keyboard-response,291,1178129,0.0-17.0-1.16,75400,List1B,white,man,,,,null,,,,
null,is dancing with,,html-keyboard-response,292,1180130,0.0-17.0-2.16,75400,List1B,white,man,,,,null,,,,
6261,,,survey-text,293,1186391,0.0-17.0-3.16,75400,List1B,white,man,,,,,"{""Q0"":""Fred is dancing with Dave""}","<img src=""stim_listB/dance5.gif""</stim_listB>",is dancing with,
null,"<div style=""font-size:60px;"">+</div>",,html-keyboard-response,294,1186892,0.0-17.0-0.17,75400,List1B,white,man,,,,null,,,,
null,"<img src=""stim_listB/hug6.gif""</stim_listB>",,html-keyboard-response,295,1188893,0.0-17.0-1.17,75400,List1B,white,man,,,,null,,,,
null,are hugging each other,,html-keyboard-response,296,1190895,0.0-17.0-2.17,75400,List1B,white,man,,,,null,,,,
7212,,,survey-text,297,1198108,0.0-17.0-3.17,75400,List1B,white,man,,,,,"{""Q0"":""Mike and Dave are hugging each other""}","<img src=""stim_listB/hug6.gif""</stim_listB>",are hugging each other,
null,"<div style=""font-size:60px;"">+</div>",,html-keyboard-response,298,1198608,0.0-17.0-0.18,75400,List1B,white,man,,,,null,,,,
null,"<img src=""stim_listB/shout6.gif""</stim_listB>",,html-keyboard-response,299,1200610,0.0-17.0-1.18,75400,List1B,white,man,,,,null,,,,
null,are shouting at each other,,html-keyboard-response,300,1202612,0.0-17.0-2.18,75400,List1B,white,man,,,,null,,,,
7270,,,survey-text,301,1209883,0.0-17.0-3.18,75400,List1B,white,man,,,,,"{""Q0"":""Mike and Dave are shouting at each other""}","<img src=""stim_listB/shout6.gif""</stim_listB>",are shouting at each other,
null,"<div style=""font-size:60px;"">+</div>",,html-keyboard-response,302,1210385,0.0-17.0-0.19,75400,List1B,white,man,,,,null,,,,
null,"<img src=""stim_listB/touch2.gif""</stim_listB>",,html-keyboard-response,303,1212385,0.0-17.0-1.19,75400,List1B,white,man,,,,null,,,,
null,are touching each other,,html-keyboard-response,304,1214387,0.0-17.0-2.19,75400,List1B,white,man,,,,null,,,,
7452,,,survey-text,305,1221839,0.0-17.0-3.19,75400,List1B,white,man,,,,,"{""Q0"":""Fred and Beth are touching each other""}","<img src=""stim_listB/touch2.gif""</stim_listB>",are touching each other,
8543,"<img src='img/portrait_matrix_list1.JPG' style='width:900px;height:500px;''></img><p>If you have memorised all the portraits and names and are ready to start, press Continue.</p><p><strong>Please note: Your memory of these faces will be tested 4 times during this experiment.</strong></p>",0,html-button-response,306,1230382,0.0-18.0-0.0,75400,List1B,white,man,,,,,,,,
1647,"<img src=""portrait/WM2.jpg""style=""width:400px;height:400px;""></img>",7,html-button-response,307,1233031,0.0-18.0-1.0,75400,List1B,white,man,,TRUE,7,,,,,
null,CORRECT,,html-keyboard-response,308,1234533,0.0-18.0-2.0-0.0,75400,List1B,white,man,,,,null,,,,
2585,"<img src=""portrait/BW2.jpg""style=""width:400px;height:400px;""></img>",2,html-button-response,309,1237119,0.0-18.0-4.0,75400,List1B,white,man,,TRUE,2,,,,,
null,CORRECT,,html-keyboard-response,310,1238621,0.0-18.0-5.0-0.0,75400,List1B,white,man,,,,null,,,,
1479,"<img src=""portrait/BM2.jpg""style=""width:400px;height:400px;""></img>",5,html-button-response,311,1240100,0.0-18.0-7.0,75400,List1B,white,man,,TRUE,5,,,,,
null,CORRECT,,html-keyboard-response,312,1241601,0.0-18.0-8.0-0.0,75400,List1B,white,man,,,,null,,,,
2171,"<img src=""portrait/WM1.jpg""style=""width:400px;height:400px;""></img>",6,html-button-response,313,1243772,0.0-18.0-10.0,75400,List1B,white,man,,TRUE,6,,,,,
null,CORRECT,,html-keyboard-response,314,1245274,0.0-18.0-11.0-0.0,75400,List1B,white,man,,,,null,,,,
6856,"<img src=""portrait/WW1.jpg""style=""width:400px;height:400px;""></img>",1,html-button-response,315,1252131,0.0-18.0-13.0,75400,List1B,white,man,,TRUE,1,,,,,
null,CORRECT,,html-keyboard-response,316,1253633,0.0-18.0-14.0-0.0,75400,List1B,white,man,,,,null,,,,
1763,"<img src=""portrait/BW1.jpg""style=""width:400px;height:400px;""></img>",0,html-button-response,317,1255396,0.0-18.0-16.0,75400,List1B,white,man,,TRUE,0,,,,,
null,CORRECT,,html-keyboard-response,318,1256898,0.0-18.0-17.0-0.0,75400,List1B,white,man,,,,null,,,,
2719,"<img src=""portrait/WW2.jpg""style=""width:400px;height:400px;""></img>",3,html-button-response,319,1259617,0.0-18.0-19.0,75400,List1B,white,man,,TRUE,3,,,,,
null,CORRECT,,html-keyboard-response,320,1261120,0.0-18.0-20.0-0.0,75400,List1B,white,man,,,,null,,,,
2871,"<img src=""portrait/BM1.jpg""style=""width:400px;height:400px;""></img>",4,html-button-response,321,1263991,0.0-18.0-22.0,75400,List1B,white,man,,TRUE,4,,,,,
null,CORRECT,,html-keyboard-response,322,1265493,0.0-18.0-23.0-0.0,75400,List1B,white,man,,,,null,,,,
1188,<p>You got 8 out of 8 right first time. Press Continue.</p>,0,html-button-response,323,1266682,0.0-18.0-25.0,75400,List1B,white,man,,,,,,,,
null,"<div style=""font-size:60px;"">+</div>",,html-keyboard-response,324,1268184,0.0-19.0-0.0,75400,List1B,white,man,,,,null,,,,
null,"<img src=""stim_listB/dance4.gif""</stim_listB>",,html-keyboard-response,325,1270184,0.0-19.0-1.0,75400,List1B,white,man,,,,null,,,,
null,are dancing with each other,,html-keyboard-response,326,1272185,0.0-19.0-2.0,75400,List1B,white,man,,,,null,,,,
7122,,,survey-text,327,1279308,0.0-19.0-3.0,75400,List1B,white,man,,,,,"{""Q0"":""Dave and Ruth are dancing with each other""}","<img src=""stim_listB/dance4.gif""</stim_listB>",are dancing with each other,
null,"<div style=""font-size:60px;"">+</div>",,html-keyboard-response,328,1279810,0.0-19.0-0.1,75400,List1B,white,man,,,,null,,,,
null,"<img src=""stim_listB/talk2.gif""</stim_listB>",,html-keyboard-response,329,1281811,0.0-19.0-1.1,75400,List1B,white,man,,,,null,,,,
null,are talking to each other,,html-keyboard-response,330,1283812,0.0-19.0-2.1,75400,List1B,white,man,,,,null,,,,
7846,,,survey-text,331,1291658,0.0-19.0-3.1,75400,List1B,white,man,,,,,"{""Q0"":""Mike and Beth are talking to each other""}","<img src=""stim_listB/talk2.gif""</stim_listB>",are talking to each other,
null,"<div style=""font-size:60px;"">+</div>",,html-keyboard-response,332,1292159,0.0-19.0-0.2,75400,List1B,white,man,,,,null,,,,
null,"<img src=""stim_listB/meet7.gif""</stim_listB>",,html-keyboard-response,333,1294162,0.0-19.0-1.2,75400,List1B,white,man,,,,null,,,,
null,is meeting,,html-keyboard-response,334,1296163,0.0-19.0-2.2,75400,List1B,white,man,,,,null,,,,
7484,,,survey-text,335,1303648,0.0-19.0-3.2,75400,List1B,white,man,,,,,"{""Q0"":""Jane is meeting Beth""}","<img src=""stim_listB/meet7.gif""</stim_listB>",is meeting,
null,"<div style=""font-size:60px;"">+</div>",,html-keyboard-response,336,1304148,0.0-19.0-0.3,75400,List1B,white,man,,,,null,,,,
null,"<img src=""stim_listB/hug2.gif""</stim_listB>",,html-keyboard-response,337,1306151,0.0-19.0-1.3,75400,List1B,white,man,,,,null,,,,
null,are hugging each other,,html-keyboard-response,338,1308153,0.0-19.0-2.3,75400,List1B,white,man,,,,null,,,,
7371,,,survey-text,339,1315524,0.0-19.0-3.3,75400,List1B,white,man,,,,,"{""Q0"":""Mike and Kate are hugging each other""}","<img src=""stim_listB/hug2.gif""</stim_listB>",are hugging each other,
null,"<div style=""font-size:60px;"">+</div>",,html-keyboard-response,340,1316026,0.0-19.0-0.4,75400,List1B,white,man,,,,null,,,,
null,"<img src=""stim_listB/marry6.gif""</stim_listB>",,html-keyboard-response,341,1318028,0.0-19.0-1.4,75400,List1B,white,man,,,,null,,,,
null,are marrying each other,,html-keyboard-response,342,1320029,0.0-19.0-2.4,75400,List1B,white,man,,,,null,,,,
8083,,,survey-text,343,1328113,0.0-19.0-3.4,75400,List1B,white,man,,,,,"{""Q0"":""Fred and Dave are marrying each other""}","<img src=""stim_listB/marry6.gif""</stim_listB>",are marrying each other,
null,"<div style=""font-size:60px;"">+</div>",,html-keyboard-response,344,1328613,0.0-19.0-0.5,75400,List1B,white,man,,,,null,,,,
null,"<img src=""stim_listB/talk4.gif""</stim_listB>",,html-keyboard-response,345,1330614,0.0-19.0-1.5,75400,List1B,white,man,,,,null,,,,
null,are talking to each other,,html-keyboard-response,346,1332614,0.0-19.0-2.5,75400,List1B,white,man,,,,null,,,,
6695,,,survey-text,347,1339310,0.0-19.0-3.5,75400,List1B,white,man,,,,,"{""Q0"":""Dave and Ruth are talking to each other""}","<img src=""stim_listB/talk4.gif""</stim_listB>",are talking to each other,
null,"<div style=""font-size:60px;"">+</div>",,html-keyboard-response,348,1339810,0.0-19.0-0.6,75400,List1B,white,man,,,,null,,,,
null,"<img src=""stim_listB/hug8.gif""</stim_listB>",,html-keyboard-response,349,1341811,0.0-19.0-1.6,75400,List1B,white,man,,,,null,,,,
null,are hugging each other,,html-keyboard-response,350,1343812,0.0-19.0-2.6,75400,List1B,white,man,,,,null,,,,
7198,,,survey-text,351,1351010,0.0-19.0-3.6,75400,List1B,white,man,,,,,"{""Q0"":""Kate and Jane are hugging each other""}","<img src=""stim_listB/hug8.gif""</stim_listB>",are hugging each other,
null,"<div style=""font-size:60px;"">+</div>",,html-keyboard-response,352,1351511,0.0-19.0-0.7,75400,List1B,white,man,,,,null,,,,
null,"<img src=""stim_listB/kiss6.gif""</stim_listB>",,html-keyboard-response,353,1353513,0.0-19.0-1.7,75400,List1B,white,man,,,,null,,,,
null,are kissing each other,,html-keyboard-response,354,1355515,0.0-19.0-2.7,75400,List1B,white,man,,,,null,,,,
7087,,,survey-text,355,1362602,0.0-19.0-3.7,75400,List1B,white,man,,,,,"{""Q0"":""Mike and Dave are kissing each other""}","<img src=""stim_listB/kiss6.gif""</stim_listB>",are kissing each other,
null,"<div style=""font-size:60px;"">+</div>",,html-keyboard-response,356,1363104,0.0-19.0-0.8,75400,List1B,white,man,,,,null,,,,
null,"<img src=""stim_listB/dance2.gif""</stim_listB>",,html-keyboard-response,357,1365106,0.0-19.0-1.8,75400,List1B,white,man,,,,null,,,,
null,are dancing with each other,,html-keyboard-response,358,1367108,0.0-19.0-2.8,75400,List1B,white,man,,,,null,,,,
7559,,,survey-text,359,1374668,0.0-19.0-3.8,75400,List1B,white,man,,,,,"{""Q0"":""Mike and Beth are dancing with each other""}","<img src=""stim_listB/dance2.gif""</stim_listB>",are dancing with each other,
null,"<div style=""font-size:60px;"">+</div>",,html-keyboard-response,360,1375169,0.0-19.0-0.9,75400,List1B,white,man,,,,null,,,,
null,"<img src=""stim_listB/fight3.gif""</stim_listB>",,html-keyboard-response,361,1377171,0.0-19.0-1.9,75400,List1B,white,man,,,,null,,,,
null,is fighting,,html-keyboard-response,362,1379171,0.0-19.0-2.9,75400,List1B,white,man,,,,null,,,,
6001,,,survey-text,363,1385172,0.0-19.0-3.9,75400,List1B,white,man,,,,,"{""Q0"":""Jane is fighting Dave""}","<img src=""stim_listB/fight3.gif""</stim_listB>",is fighting,
null,"<div style=""font-size:60px;"">+</div>",,html-keyboard-response,364,1385674,0.0-19.0-0.10,75400,List1B,white,man,,,,null,,,,
null,"<img src=""stim_listB/fight2.gif""</stim_listB>",,html-keyboard-response,365,1387675,0.0-19.0-1.10,75400,List1B,white,man,,,,null,,,,
null,are fighting each other,,html-keyboard-response,366,1389676,0.0-19.0-2.10,75400,List1B,white,man,,,,null,,,,
8658,,,survey-text,367,1398334,0.0-19.0-3.10,75400,List1B,white,man,,,,,"{""Q0"":""Fred and Beth are fighting each other""}","<img src=""stim_listB/fight2.gif""</stim_listB>",are fighting each other,
null,"<div style=""font-size:60px;"">+</div>",,html-keyboard-response,368,1398834,0.0-19.0-0.11,75400,List1B,white,man,,,,null,,,,
null,"<img src=""stim_listB/argue5.gif""</stim_listB>",,html-keyboard-response,369,1400836,0.0-19.0-1.11,75400,List1B,white,man,,,,null,,,,
null,is arguing with,,html-keyboard-response,370,1402837,0.0-19.0-2.11,75400,List1B,white,man,,,,null,,,,
8198,,,survey-text,371,1411035,0.0-19.0-3.11,75400,List1B,white,man,,,,,"{""Q0"":""No picture appeared""}","<img src=""stim_listB/argue5.gif""</stim_listB>",is arguing with,
null,"<div style=""font-size:60px;"">+</div>",,html-keyboard-response,372,1411537,0.0-19.0-0.12,75400,List1B,white,man,,,,null,,,,
null,"<img src=""stim_listB/hug3.gif""</stim_listB>",,html-keyboard-response,373,1413537,0.0-19.0-1.12,75400,List1B,white,man,,,,null,,,,
null,is hugging,,html-keyboard-response,374,1415539,0.0-19.0-2.12,75400,List1B,white,man,,,,null,,,,
5772,,,survey-text,375,1421311,0.0-19.0-3.12,75400,List1B,white,man,,,,,"{""Q0"":""Ruth is hugging Luke""}","<img src=""stim_listB/hug3.gif""</stim_listB>",is hugging,
null,"<div style=""font-size:60px;"">+</div>",,html-keyboard-response,376,1421813,0.0-19.0-0.13,75400,List1B,white,man,,,,null,,,,
null,"<img src=""stim_listB/talk3.gif""</stim_listB>",,html-keyboard-response,377,1423815,0.0-19.0-1.13,75400,List1B,white,man,,,,null,,,,
null,is talking to,,html-keyboard-response,378,1425817,0.0-19.0-2.13,75400,List1B,white,man,,,,null,,,,
5850,,,survey-text,379,1431667,0.0-19.0-3.13,75400,List1B,white,man,,,,,"{""Q0"":""Luke is talking to Jane""}","<img src=""stim_listB/talk3.gif""</stim_listB>",is talking to,
null,"<div style=""font-size:60px;"">+</div>",,html-keyboard-response,380,1432169,0.0-19.0-0.14,75400,List1B,white,man,,,,null,,,,
null,"<img src=""stim_listB/fight5.gif""</stim_listB>",,html-keyboard-response,381,1434172,0.0-19.0-1.14,75400,List1B,white,man,,,,null,,,,
null,is fighting,,html-keyboard-response,382,1436173,0.0-19.0-2.14,75400,List1B,white,man,,,,null,,,,
5053,,,survey-text,383,1441227,0.0-19.0-3.14,75400,List1B,white,man,,,,,"{""Q0"":""Dave is fighting Mike""}","<img src=""stim_listB/fight5.gif""</stim_listB>",is fighting,
null,"<div style=""font-size:60px;"">+</div>",,html-keyboard-response,384,1441729,0.0-19.0-0.15,75400,List1B,white,man,,,,null,,,,
null,"<img src=""stim_listB/kiss4.gif""</stim_listB>",,html-keyboard-response,385,1443731,0.0-19.0-1.15,75400,List1B,white,man,,,,null,,,,
null,are kissing each other,,html-keyboard-response,386,1445733,0.0-19.0-2.15,75400,List1B,white,man,,,,null,,,,
5170,,,survey-text,387,1450904,0.0-19.0-3.15,75400,List1B,white,man,,,,,"{""Q0"":""No picture appeared""}","<img src=""stim_listB/kiss4.gif""</stim_listB>",are kissing each other,
null,"<div style=""font-size:60px;"">+</div>",,html-keyboard-response,388,1451407,0.0-19.0-0.16,75400,List1B,white,man,,,,null,,,,
null,"<img src=""stim_listB/kiss5.gif""</stim_listB>",,html-keyboard-response,389,1453408,0.0-19.0-1.16,75400,List1B,white,man,,,,null,,,,
null,is kissing,,html-keyboard-response,390,1455410,0.0-19.0-2.16,75400,List1B,white,man,,,,null,,,,
6842,,,survey-text,391,1462252,0.0-19.0-3.16,75400,List1B,white,man,,,,,"{""Q0"":""Fred is kissing Luke""}","<img src=""stim_listB/kiss5.gif""</stim_listB>",is kissing,
null,"<div style=""font-size:60px;"">+</div>",,html-keyboard-response,392,1462754,0.0-19.0-0.17,75400,List1B,white,man,,,,null,,,,
null,"<img src=""stim_listB/dance8.gif""</stim_listB>",,html-keyboard-response,393,1464755,0.0-19.0-1.17,75400,List1B,white,man,,,,null,,,,
null,are dancing with each other,,html-keyboard-response,394,1466757,0.0-19.0-2.17,75400,List1B,white,man,,,,null,,,,
6831,,,survey-text,395,1473588,0.0-19.0-3.17,75400,List1B,white,man,,,,,"{""Q0"":""Ruth and Kate are dancing with each other""}","<img src=""stim_listB/dance8.gif""</stim_listB>",are dancing with each other,
null,"<div style=""font-size:60px;"">+</div>",,html-keyboard-response,396,1474090,0.0-19.0-0.18,75400,List1B,white,man,,,,null,,,,
null,"<img src=""stim_listB/marry2.gif""</stim_listB>",,html-keyboard-response,397,1476092,0.0-19.0-1.18,75400,List1B,white,man,,,,null,,,,
null,are marrying each other,,html-keyboard-response,398,1478093,0.0-19.0-2.18,75400,List1B,white,man,,,,null,,,,
6198,,,survey-text,399,1484292,0.0-19.0-3.18,75400,List1B,white,man,,,,,"{""Q0"":""Fred and Kate are marrying each other""}","<img src=""stim_listB/marry2.gif""</stim_listB>",are marrying each other,
null,"<div style=""font-size:60px;"">+</div>",,html-keyboard-response,400,1484793,0.0-19.0-0.19,75400,List1B,white,man,,,,null,,,,
null,"<img src=""stim_listB/argue4.gif""</stim_listB>",,html-keyboard-response,401,1486795,0.0-19.0-1.19,75400,List1B,white,man,,,,null,,,,
null,are arguing with each other,,html-keyboard-response,402,1488797,0.0-19.0-2.19,75400,List1B,white,man,,,,null,,,,
7088,,,survey-text,403,1495886,0.0-19.0-3.19,75400,List1B,white,man,,,,,"{""Q0"":""Luke and Jane are arguing with each other""}","<img src=""stim_listB/argue4.gif""</stim_listB>",are arguing with each other,
2683,<p>Thank you for completing that task.</p><p>The final part of this session is a short questionnaire.</p><p>Press Continue.</p>,0,html-button-response,404,1498570,0.0-20.0,75400,List1B,white,man,,,,,,,,
48639,,,survey-text,405,1548210,0.0-21.0,75400,List1B,white,man,,,,,"{""Q0"":""32"",""Q1"":""English"",""Q2"":""English"",""Q3"":""Canada"",""Q4"":""Caucasian"",""Q5"":""Male""}",,,demographics
70999,,,survey-likert,406,1619212,0.0-22.0,75400,List1B,white,man,,,,,"{""Q0"":1,""Q1"":0,""Q2"":0,""Q3"":3,""Q4"":3,""Q5"":4,""Q6"":1,""Q7"":0,""Q8"":0,""Q9"":0,""Q10"":1,""Q11"":3,""Q12"":1,""Q13"":1}",,,likert_race
64190,,,survey-likert,407,1683406,0.0-23.0,75400,List1B,white,man,,,,,"{""Q0"":0,""Q1"":0,""Q2"":1,""Q3"":1,""Q4"":3,""Q5"":2,""Q6"":3,""Q7"":4,""Q8"":0,""Q9"":1,""Q10"":1,""Q11"":0,""Q12"":4,""Q13"":2}",,,likert_gender
8900,,,survey-text,408,1692308,0.0-24.0,75400,List1B,white,man,,,,,"{""Q0"":""ccc""}",,,worker_id
24708,,,external-html,409,1718075,0.0-25.0,75400,List1B,white,man,debrief.html,,,,,,,
