rt,stimulus,button_pressed,trial_type,trial_index,time_elapsed,internal_node_id,subject,list,ppt_race,ppt_gender,url,first_guess,correct,key_press,responses,image_type,phrase_type,test_part
3372,Welcome to the experiment. Press Continue to begin.,0,html-button-response,0,3376,0.0-0.0,75446,List1B,white,man,,,,,,,,
21938,,,external-html,1,26427,0.0-1.0,75446,List1B,white,man,consent.html,,,,,,,
8796,"<p>On the next page, you will see portraits of 8 people and their names.</p><p>Your first task is to take a few minutes to memorise the names of these people.</p><p>You will have to recall their names during the rest of the experiment, so it is</p><p>essential that you try to memorise these people and their names as best as you can.</p><br><p><strong>You will then be tested on your memory of these names and portraits.</strong></p><br><p>The experiment will start after you have completed this memory test.</p><br><p>Ready?</p>",0,html-button-response,2,35224,0.0-2.0,75446,List1B,white,man,,,,,,,,
49847,"<img src='img/portrait_matrix_list1.JPG' style='width:900px;height:500px;''></img><p>If you have memorised all the portraits and names and are ready to start, press Continue.</p><p><strong>Please note: Your memory of these faces will be tested 4 times during this experiment.</strong></p>",0,html-button-response,3,86078,0.0-3.0-0.0,75446,List1B,white,man,,,,,,,,
4456,"<img src=""portrait/BM2.jpg""style=""width:400px;height:400px;""></img>",5,html-button-response,4,91541,0.0-3.0-1.0,75446,List1B,white,man,,TRUE,5,,,,,
null,CORRECT,,html-keyboard-response,5,93049,0.0-3.0-2.0-0.0,75446,List1B,white,man,,,,null,,,,
4446,"<img src=""portrait/BW2.jpg""style=""width:400px;height:400px;""></img>",2,html-button-response,6,97497,0.0-3.0-4.0,75446,List1B,white,man,,TRUE,2,,,,,
null,CORRECT,,html-keyboard-response,7,99012,0.0-3.0-5.0-0.0,75446,List1B,white,man,,,,null,,,,
5309,"<img src=""portrait/BW1.jpg""style=""width:400px;height:400px;""></img>",3,html-button-response,8,104323,0.0-3.0-7.0,75446,List1B,white,man,,TRUE,0,,,,,
4487,"<img src=""portrait/BW1.jpg""style=""width:400px;height:400px;""></img>",0,html-button-response,9,109818,0.0-3.0-9.0-0.0,75446,List1B,white,man,,FALSE,0,,,,,
null,CORRECT,,html-keyboard-response,10,111322,0.0-3.0-9.0-1.0-0.0,75446,List1B,white,man,,,,null,,,,
3674,"<img src=""portrait/WM2.jpg""style=""width:400px;height:400px;""></img>",7,html-button-response,11,114998,0.0-3.0-10.0,75446,List1B,white,man,,TRUE,7,,,,,
null,CORRECT,,html-keyboard-response,12,116505,0.0-3.0-11.0-0.0,75446,List1B,white,man,,,,null,,,,
5318,"<img src=""portrait/WW2.jpg""style=""width:400px;height:400px;""></img>",3,html-button-response,13,121825,0.0-3.0-13.0,75446,List1B,white,man,,TRUE,3,,,,,
null,CORRECT,,html-keyboard-response,14,123335,0.0-3.0-14.0-0.0,75446,List1B,white,man,,,,null,,,,
3936,"<img src=""portrait/WW1.jpg""style=""width:400px;height:400px;""></img>",1,html-button-response,15,127272,0.0-3.0-16.0,75446,List1B,white,man,,TRUE,1,,,,,
null,CORRECT,,html-keyboard-response,16,128784,0.0-3.0-17.0-0.0,75446,List1B,white,man,,,,null,,,,
3960,"<img src=""portrait/WM1.jpg""style=""width:400px;height:400px;""></img>",6,html-button-response,17,132746,0.0-3.0-19.0,75446,List1B,white,man,,TRUE,6,,,,,
null,CORRECT,,html-keyboard-response,18,134258,0.0-3.0-20.0-0.0,75446,List1B,white,man,,,,null,,,,
4255,"<img src=""portrait/BM1.jpg""style=""width:400px;height:400px;""></img>",4,html-button-response,19,138515,0.0-3.0-22.0,75446,List1B,white,man,,TRUE,4,,,,,
null,CORRECT,,html-keyboard-response,20,140027,0.0-3.0-23.0-0.0,75446,List1B,white,man,,,,null,,,,
1980,<p>You got 7 out of 8 right first time. Press Continue.</p>,0,html-button-response,21,142008,0.0-3.0-25.0,75446,List1B,white,man,,,,,,,,
3094,"As you did not score 100%, the memory game will repeat. Press Continue.",0,html-button-response,22,146110,0.0-3.0-26.0-0.0,75446,List1B,white,man,,,,,,,,
1904,"<img src='img/portrait_matrix_list1.JPG' style='width:900px;height:500px;''></img><p>If you have memorised all the portraits and names and are ready to start, press Continue.</p><p><strong>Please note: Your memory of these faces will be tested 4 times during this experiment.</strong></p>",0,html-button-response,23,149021,0.0-3.1-0.1,75446,List1B,white,man,,,,,,,,
3759,"<img src=""portrait/BM2.jpg""style=""width:400px;height:400px;""></img>",5,html-button-response,24,153784,0.0-3.1-1.1,75446,List1B,white,man,,TRUE,5,,,,,
null,CORRECT,,html-keyboard-response,25,155291,0.0-3.1-2.1-0.1,75446,List1B,white,man,,,,null,,,,
3783,"<img src=""portrait/BW2.jpg""style=""width:400px;height:400px;""></img>",2,html-button-response,26,159077,0.0-3.1-4.1,75446,List1B,white,man,,TRUE,2,,,,,
null,CORRECT,,html-keyboard-response,27,160584,0.0-3.1-5.1-0.1,75446,List1B,white,man,,,,null,,,,
2873,"<img src=""portrait/BW1.jpg""style=""width:400px;height:400px;""></img>",0,html-button-response,28,163459,0.0-3.1-7.1,75446,List1B,white,man,,TRUE,0,,,,,
null,CORRECT,,html-keyboard-response,29,164964,0.0-3.1-8.1-0.1,75446,List1B,white,man,,,,null,,,,
3454,"<img src=""portrait/WM2.jpg""style=""width:400px;height:400px;""></img>",7,html-button-response,30,168421,0.0-3.1-10.1,75446,List1B,white,man,,TRUE,7,,,,,
null,CORRECT,,html-keyboard-response,31,169927,0.0-3.1-11.1-0.1,75446,List1B,white,man,,,,null,,,,
4206,"<img src=""portrait/WW2.jpg""style=""width:400px;height:400px;""></img>",3,html-button-response,32,174135,0.0-3.1-13.1,75446,List1B,white,man,,TRUE,3,,,,,
null,CORRECT,,html-keyboard-response,33,175641,0.0-3.1-14.1-0.1,75446,List1B,white,man,,,,null,,,,
1889,"<img src=""portrait/WW1.jpg""style=""width:400px;height:400px;""></img>",1,html-button-response,34,177532,0.0-3.1-16.1,75446,List1B,white,man,,TRUE,1,,,,,
null,CORRECT,,html-keyboard-response,35,179040,0.0-3.1-17.1-0.1,75446,List1B,white,man,,,,null,,,,
4526,"<img src=""portrait/WM1.jpg""style=""width:400px;height:400px;""></img>",6,html-button-response,36,183568,0.0-3.1-19.1,75446,List1B,white,man,,TRUE,6,,,,,
null,CORRECT,,html-keyboard-response,37,185077,0.0-3.1-20.1-0.1,75446,List1B,white,man,,,,null,,,,
3945,"<img src=""portrait/BM1.jpg""style=""width:400px;height:400px;""></img>",4,html-button-response,38,189023,0.0-3.1-22.1,75446,List1B,white,man,,TRUE,4,,,,,
null,CORRECT,,html-keyboard-response,39,190531,0.0-3.1-23.1-0.1,75446,List1B,white,man,,,,null,,,,
1541,<p>You got 8 out of 8 right first time. Press Continue.</p>,0,html-button-response,40,192074,0.0-3.1-25.1,75446,List1B,white,man,,,,,,,,
32360,"<p>In this experiment, you will view photographs of the people from the memory game interacting.</p><p>By using the <strong>exact</strong> phrase given <i>after</i> the photograph appears and recalling the correct names of the people in the photographs, form a sentence describing the interaction. You do not need to capitalise names.</p><p>Type your answer in the space provided. Please complete every sentence before moving onto the next trial.</p><p>You will only have a few seconds to memorise each given photograph and phrase before you can respond, so try your best to focus.</p><p>An example is given below. Press 'Continue' when you are ready.</p><img src='img/speaking_example_v2.jpg' style='width:800px;height:460px;''></img>",0,html-button-response,41,225440,0.0-4.0,75446,List1B,white,man,,,,,,,,
3200,"<p>Before the experiment starts, you will watch two example trials. Press 'Continue'.</p>",0,html-button-response,42,229643,0.0-5.0,75446,List1B,white,man,,,,,,,,
null,<img src='img/speaking_WW.gif'></img>,,html-keyboard-response,43,232645,0.0-6.0,75446,List1B,white,man,,,,null,,,,
null,<p>is speaking to</p>,,html-keyboard-response,44,234651,0.0-7.0,75446,List1B,white,man,,,,null,,,,
2383,<p><b>Answer:</b> kate is speaking to beth</p>,0,html-button-response,45,237035,0.0-8.0,75446,List1B,white,man,,,,,,,,
null,<img src='img/pointing_BM.gif'></img>,,html-keyboard-response,46,240045,0.0-9.0,75446,List1B,white,man,,,,null,,,,
null,<p>are pointing at each other</p>,,html-keyboard-response,47,242046,0.0-10.0,75446,List1B,white,man,,,,null,,,,
2129,<p><b>Answer:</b> luke and dave are pointing at each other</p>,0,html-button-response,48,244177,0.0-11.0,75446,List1B,white,man,,,,,,,,
14956,"<p>Ready to start the experiment?</p><br><p><strong>Remember to describe the picture using a full sentence,</strong></p><p><strong>that combines the names of the people with the given phrase.</strong></p><p><strong>If you do not do this correctly you will not be paid.</strong></p><p><strong> You do not need to capitalise names or use punctuation.</strong></p><br><p>Press 'Continue' to begin.</p>",0,html-button-response,49,260140,0.0-12.0,75446,List1B,white,man,,,,,,,,
null,"<div style=""font-size:60px;"">+</div>",,html-keyboard-response,50,261648,0.0-13.0-0.0,75446,List1B,white,man,,,,null,,,,
null,"<img src=""stim_listB/hug8.gif""</stim_listB>",,html-keyboard-response,51,263653,0.0-13.0-1.0,75446,List1B,white,man,,,,null,,,,
null,are hugging each other,,html-keyboard-response,52,265657,0.0-13.0-2.0,75446,List1B,white,man,,,,null,,,,
16557,,,survey-text,53,282216,0.0-13.0-3.0,75446,List1B,white,man,,,,,"{""Q0"":""kate is hugging jane""}","<img src=""stim_listB/hug8.gif""</stim_listB>",are hugging each other,
null,"<div style=""font-size:60px;"">+</div>",,html-keyboard-response,54,282721,0.0-13.0-0.1,75446,List1B,white,man,,,,null,,,,
null,"<img src=""stim_listB/meet7.gif""</stim_listB>",,html-keyboard-response,55,284722,0.0-13.0-1.1,75446,List1B,white,man,,,,null,,,,
null,is meeting,,html-keyboard-response,56,286724,0.0-13.0-2.1,75446,List1B,white,man,,,,null,,,,
14319,,,survey-text,57,301044,0.0-13.0-3.1,75446,List1B,white,man,,,,,"{""Q0"":""kate is meeting jane""}","<img src=""stim_listB/meet7.gif""</stim_listB>",is meeting,
null,"<div style=""font-size:60px;"">+</div>",,html-keyboard-response,58,301550,0.0-13.0-0.2,75446,List1B,white,man,,,,null,,,,
null,"<img src=""stim_listB/meet6.gif""</stim_listB>",,html-keyboard-response,59,303554,0.0-13.0-1.2,75446,List1B,white,man,,,,null,,,,
null,are meeting each other,,html-keyboard-response,60,305559,0.0-13.0-2.2,75446,List1B,white,man,,,,null,,,,
22458,,,survey-text,61,328018,0.0-13.0-3.2,75446,List1B,white,man,,,,,"{""Q0"":""fred and luke are meeting eachother""}","<img src=""stim_listB/meet6.gif""</stim_listB>",are meeting each other,
null,"<div style=""font-size:60px;"">+</div>",,html-keyboard-response,62,328525,0.0-13.0-0.3,75446,List1B,white,man,,,,null,,,,
null,"<img src=""stim_listB/shout2.gif""</stim_listB>",,html-keyboard-response,63,330527,0.0-13.0-1.3,75446,List1B,white,man,,,,null,,,,
null,are shouting at each other,,html-keyboard-response,64,332532,0.0-13.0-2.3,75446,List1B,white,man,,,,null,,,,
26378,,,survey-text,65,358911,0.0-13.0-3.3,75446,List1B,white,man,,,,,"{""Q0"":""mike and kate are shouting at eachother""}","<img src=""stim_listB/shout2.gif""</stim_listB>",are shouting at each other,
null,"<div style=""font-size:60px;"">+</div>",,html-keyboard-response,66,359413,0.0-13.0-0.4,75446,List1B,white,man,,,,null,,,,
null,"<img src=""stim_listB/marry2.gif""</stim_listB>",,html-keyboard-response,67,361419,0.0-13.0-1.4,75446,List1B,white,man,,,,null,,,,
null,are marrying each other,,html-keyboard-response,68,363425,0.0-13.0-2.4,75446,List1B,white,man,,,,null,,,,
17923,,,survey-text,69,381348,0.0-13.0-3.4,75446,List1B,white,man,,,,,"{""Q0"":""fred and kate are marrying eachother""}","<img src=""stim_listB/marry2.gif""</stim_listB>",are marrying each other,
null,"<div style=""font-size:60px;"">+</div>",,html-keyboard-response,70,381855,0.0-13.0-0.5,75446,List1B,white,man,,,,null,,,,
null,"<img src=""stim_listB/talk3.gif""</stim_listB>",,html-keyboard-response,71,383859,0.0-13.0-1.5,75446,List1B,white,man,,,,null,,,,
null,is talking to,,html-keyboard-response,72,385860,0.0-13.0-2.5,75446,List1B,white,man,,,,null,,,,
11071,,,survey-text,73,396931,0.0-13.0-3.5,75446,List1B,white,man,,,,,"{""Q0"":""jane is talking to luke""}","<img src=""stim_listB/talk3.gif""</stim_listB>",is talking to,
null,"<div style=""font-size:60px;"">+</div>",,html-keyboard-response,74,397434,0.0-13.0-0.6,75446,List1B,white,man,,,,null,,,,
null,"<img src=""stim_listB/fight5.gif""</stim_listB>",,html-keyboard-response,75,399438,0.0-13.0-1.6,75446,List1B,white,man,,,,null,,,,
null,is fighting,,html-keyboard-response,76,401439,0.0-13.0-2.6,75446,List1B,white,man,,,,null,,,,
11107,,,survey-text,77,412548,0.0-13.0-3.6,75446,List1B,white,man,,,,,"{""Q0"":""dave is fighting mike""}","<img src=""stim_listB/fight5.gif""</stim_listB>",is fighting,
null,"<div style=""font-size:60px;"">+</div>",,html-keyboard-response,78,413051,0.0-13.0-0.7,75446,List1B,white,man,,,,null,,,,
null,"<img src=""stim_listB/marry6.gif""</stim_listB>",,html-keyboard-response,79,415056,0.0-13.0-1.7,75446,List1B,white,man,,,,null,,,,
null,are marrying each other,,html-keyboard-response,80,417062,0.0-13.0-2.7,75446,List1B,white,man,,,,null,,,,
15321,,,survey-text,81,432383,0.0-13.0-3.7,75446,List1B,white,man,,,,,"{""Q0"":""fred and mike are marrying eachother""}","<img src=""stim_listB/marry6.gif""</stim_listB>",are marrying each other,
null,"<div style=""font-size:60px;"">+</div>",,html-keyboard-response,82,432885,0.0-13.0-0.8,75446,List1B,white,man,,,,null,,,,
null,"<img src=""stim_listB/dance8.gif""</stim_listB>",,html-keyboard-response,83,434888,0.0-13.0-1.8,75446,List1B,white,man,,,,null,,,,
null,are dancing with each other,,html-keyboard-response,84,436889,0.0-13.0-2.8,75446,List1B,white,man,,,,null,,,,
17185,,,survey-text,85,454075,0.0-13.0-3.8,75446,List1B,white,man,,,,,"{""Q0"":""kate and ruth are dancing with eachother""}","<img src=""stim_listB/dance8.gif""</stim_listB>",are dancing with each other,
null,"<div style=""font-size:60px;"">+</div>",,html-keyboard-response,86,454579,0.0-13.0-0.9,75446,List1B,white,man,,,,null,,,,
null,"<img src=""stim_listB/hug7.gif""</stim_listB>",,html-keyboard-response,87,456586,0.0-13.0-1.9,75446,List1B,white,man,,,,null,,,,
null,is hugging,,html-keyboard-response,88,458591,0.0-13.0-2.9,75446,List1B,white,man,,,,null,,,,
9413,,,survey-text,89,468005,0.0-13.0-3.9,75446,List1B,white,man,,,,,"{""Q0"":""ruth is hugging beth""}","<img src=""stim_listB/hug7.gif""</stim_listB>",is hugging,
null,"<div style=""font-size:60px;"">+</div>",,html-keyboard-response,90,468511,0.0-13.0-0.10,75446,List1B,white,man,,,,null,,,,
null,"<img src=""stim_listB/touch2.gif""</stim_listB>",,html-keyboard-response,91,470517,0.0-13.0-1.10,75446,List1B,white,man,,,,null,,,,
null,are touching each other,,html-keyboard-response,92,472518,0.0-13.0-2.10,75446,List1B,white,man,,,,null,,,,
15215,,,survey-text,93,487735,0.0-13.0-3.10,75446,List1B,white,man,,,,,"{""Q0"":""fred and beth are touching eachother""}","<img src=""stim_listB/touch2.gif""</stim_listB>",are touching each other,
null,"<div style=""font-size:60px;"">+</div>",,html-keyboard-response,94,488237,0.0-13.0-0.11,75446,List1B,white,man,,,,null,,,,
null,"<img src=""stim_listB/argue1.gif""</stim_listB>",,html-keyboard-response,95,490244,0.0-13.0-1.11,75446,List1B,white,man,,,,null,,,,
null,is arguing with,,html-keyboard-response,96,492249,0.0-13.0-2.11,75446,List1B,white,man,,,,null,,,,
12380,,,survey-text,97,504631,0.0-13.0-3.11,75446,List1B,white,man,,,,,"{""Q0"":""beth is arguing with mike""}","<img src=""stim_listB/argue1.gif""</stim_listB>",is arguing with,
null,"<div style=""font-size:60px;"">+</div>",,html-keyboard-response,98,505137,0.0-13.0-0.12,75446,List1B,white,man,,,,null,,,,
null,"<img src=""stim_listB/marry7.gif""</stim_listB>",,html-keyboard-response,99,507140,0.0-13.0-1.12,75446,List1B,white,man,,,,null,,,,
null,is marrying,,html-keyboard-response,100,509141,0.0-13.0-2.12,75446,List1B,white,man,,,,null,,,,
10483,,,survey-text,101,519624,0.0-13.0-3.12,75446,List1B,white,man,,,,,"{""Q0"":""ruth is marrying kate""}","<img src=""stim_listB/marry7.gif""</stim_listB>",is marrying,
null,"<div style=""font-size:60px;"">+</div>",,html-keyboard-response,102,520126,0.0-13.0-0.13,75446,List1B,white,man,,,,null,,,,
null,"<img src=""stim_listB/kiss3.gif""</stim_listB>",,html-keyboard-response,103,522132,0.0-13.0-1.13,75446,List1B,white,man,,,,null,,,,
null,is kissing,,html-keyboard-response,104,524137,0.0-13.0-2.13,75446,List1B,white,man,,,,null,,,,
13182,,,survey-text,105,537321,0.0-13.0-3.13,75446,List1B,white,man,,,,,"{""Q0"":""ruth is kissing luke""}","<img src=""stim_listB/kiss3.gif""</stim_listB>",is kissing,
null,"<div style=""font-size:60px;"">+</div>",,html-keyboard-response,106,537822,0.0-13.0-0.14,75446,List1B,white,man,,,,null,,,,
null,"<img src=""stim_listB/fight2.gif""</stim_listB>",,html-keyboard-response,107,539829,0.0-13.0-1.14,75446,List1B,white,man,,,,null,,,,
null,are fighting each other,,html-keyboard-response,108,541830,0.0-13.0-2.14,75446,List1B,white,man,,,,null,,,,
13787,,,survey-text,109,555618,0.0-13.0-3.14,75446,List1B,white,man,,,,,"{""Q0"":""fred and beth are fighting eachother""}","<img src=""stim_listB/fight2.gif""</stim_listB>",are fighting each other,
null,"<div style=""font-size:60px;"">+</div>",,html-keyboard-response,110,556120,0.0-13.0-0.15,75446,List1B,white,man,,,,null,,,,
null,"<img src=""stim_listB/shout3.gif""</stim_listB>",,html-keyboard-response,111,558127,0.0-13.0-1.15,75446,List1B,white,man,,,,null,,,,
null,is shouting at,,html-keyboard-response,112,560128,0.0-13.0-2.15,75446,List1B,white,man,,,,null,,,,
11451,,,survey-text,113,571580,0.0-13.0-3.15,75446,List1B,white,man,,,,,"{""Q0"":""ruth is shouting at luke""}","<img src=""stim_listB/shout3.gif""</stim_listB>",is shouting at,
null,"<div style=""font-size:60px;"">+</div>",,html-keyboard-response,114,572081,0.0-13.0-0.16,75446,List1B,white,man,,,,null,,,,
null,"<img src=""stim_listB/shout6.gif""</stim_listB>",,html-keyboard-response,115,574084,0.0-13.0-1.16,75446,List1B,white,man,,,,null,,,,
null,are shouting at each other,,html-keyboard-response,116,576085,0.0-13.0-2.16,75446,List1B,white,man,,,,null,,,,
13713,,,survey-text,117,589800,0.0-13.0-3.16,75446,List1B,white,man,,,,,"{""Q0"":""mike and dave are shouting at eachother""}","<img src=""stim_listB/shout6.gif""</stim_listB>",are shouting at each other,
null,"<div style=""font-size:60px;"">+</div>",,html-keyboard-response,118,590304,0.0-13.0-0.17,75446,List1B,white,man,,,,null,,,,
null,"<img src=""stim_listB/argue2.gif""</stim_listB>",,html-keyboard-response,119,592310,0.0-13.0-1.17,75446,List1B,white,man,,,,null,,,,
null,are arguing with each other,,html-keyboard-response,120,594311,0.0-13.0-2.17,75446,List1B,white,man,,,,null,,,,
25489,,,survey-text,121,619802,0.0-13.0-3.17,75446,List1B,white,man,,,,,"{""Q0"":""fred and kate are arguing with each other""}","<img src=""stim_listB/argue2.gif""</stim_listB>",are arguing with each other,
null,"<div style=""font-size:60px;"">+</div>",,html-keyboard-response,122,620303,0.0-13.0-0.18,75446,List1B,white,man,,,,null,,,,
null,"<img src=""stim_listB/argue7.gif""</stim_listB>",,html-keyboard-response,123,622305,0.0-13.0-1.18,75446,List1B,white,man,,,,null,,,,
null,is arguing with,,html-keyboard-response,124,624308,0.0-13.0-2.18,75446,List1B,white,man,,,,null,,,,
13831,,,survey-text,125,638140,0.0-13.0-3.18,75446,List1B,white,man,,,,,"{""Q0"":""ruth is arguing with kate""}","<img src=""stim_listB/argue7.gif""</stim_listB>",is arguing with,
null,"<div style=""font-size:60px;"">+</div>",,html-keyboard-response,126,638642,0.0-13.0-0.19,75446,List1B,white,man,,,,null,,,,
null,"<img src=""stim_listB/talk6.gif""</stim_listB>",,html-keyboard-response,127,640649,0.0-13.0-1.19,75446,List1B,white,man,,,,null,,,,
null,are talking to each other,,html-keyboard-response,128,642654,0.0-13.0-2.19,75446,List1B,white,man,,,,null,,,,
19701,,,survey-text,129,662356,0.0-13.0-3.19,75446,List1B,white,man,,,,,"{""Q0"":""mike and luke are talking to each other""}","<img src=""stim_listB/talk6.gif""</stim_listB>",are talking to each other,
15543,"<img src='img/portrait_matrix_list1.JPG' style='width:900px;height:500px;''></img><p>If you have memorised all the portraits and names and are ready to start, press Continue.</p><p><strong>Please note: Your memory of these faces will be tested 4 times during this experiment.</strong></p>",0,html-button-response,130,677901,0.0-14.0-0.0,75446,List1B,white,man,,,,,,,,
3380,"<img src=""portrait/BW1.jpg""style=""width:400px;height:400px;""></img>",0,html-button-response,131,682284,0.0-14.0-1.0,75446,List1B,white,man,,TRUE,0,,,,,
null,CORRECT,,html-keyboard-response,132,683785,0.0-14.0-2.0-0.0,75446,List1B,white,man,,,,null,,,,
4501,"<img src=""portrait/WW1.jpg""style=""width:400px;height:400px;""></img>",1,html-button-response,133,688288,0.0-14.0-4.0,75446,List1B,white,man,,TRUE,1,,,,,
null,CORRECT,,html-keyboard-response,134,689790,0.0-14.0-5.0-0.0,75446,List1B,white,man,,,,null,,,,
2950,"<img src=""portrait/WM2.jpg""style=""width:400px;height:400px;""></img>",7,html-button-response,135,692742,0.0-14.0-7.0,75446,List1B,white,man,,TRUE,7,,,,,
null,CORRECT,,html-keyboard-response,136,694254,0.0-14.0-8.0-0.0,75446,List1B,white,man,,,,null,,,,
3490,"<img src=""portrait/BM1.jpg""style=""width:400px;height:400px;""></img>",4,html-button-response,137,697746,0.0-14.0-10.0,75446,List1B,white,man,,TRUE,4,,,,,
null,CORRECT,,html-keyboard-response,138,699253,0.0-14.0-11.0-0.0,75446,List1B,white,man,,,,null,,,,
3444,"<img src=""portrait/WM1.jpg""style=""width:400px;height:400px;""></img>",6,html-button-response,139,702698,0.0-14.0-13.0,75446,List1B,white,man,,TRUE,6,,,,,
null,CORRECT,,html-keyboard-response,140,704205,0.0-14.0-14.0-0.0,75446,List1B,white,man,,,,null,,,,
4306,"<img src=""portrait/BM2.jpg""style=""width:400px;height:400px;""></img>",5,html-button-response,141,708513,0.0-14.0-16.0,75446,List1B,white,man,,TRUE,5,,,,,
null,CORRECT,,html-keyboard-response,142,710021,0.0-14.0-17.0-0.0,75446,List1B,white,man,,,,null,,,,
3169,"<img src=""portrait/WW2.jpg""style=""width:400px;height:400px;""></img>",3,html-button-response,143,713191,0.0-14.0-19.0,75446,List1B,white,man,,TRUE,3,,,,,
null,CORRECT,,html-keyboard-response,144,714699,0.0-14.0-20.0-0.0,75446,List1B,white,man,,,,null,,,,
4167,"<img src=""portrait/BW2.jpg""style=""width:400px;height:400px;""></img>",2,html-button-response,145,718867,0.0-14.0-22.0,75446,List1B,white,man,,TRUE,2,,,,,
null,CORRECT,,html-keyboard-response,146,720375,0.0-14.0-23.0-0.0,75446,List1B,white,man,,,,null,,,,
2218,<p>You got 8 out of 8 right first time. Press Continue.</p>,0,html-button-response,147,722595,0.0-14.0-25.0,75446,List1B,white,man,,,,,,,,
null,"<div style=""font-size:60px;"">+</div>",,html-keyboard-response,148,724101,0.0-15.0-0.0,75446,List1B,white,man,,,,null,,,,
null,"<img src=""stim_listB/talk8.gif""</stim_listB>",,html-keyboard-response,149,726108,0.0-15.0-1.0,75446,List1B,white,man,,,,null,,,,
null,are talking to each other,,html-keyboard-response,150,728113,0.0-15.0-2.0,75446,List1B,white,man,,,,null,,,,
11237,,,survey-text,151,739351,0.0-15.0-3.0,75446,List1B,white,man,,,,,"{""Q0"":""kate and ruth are talking to eachother""}","<img src=""stim_listB/talk8.gif""</stim_listB>",are talking to each other,
null,"<div style=""font-size:60px;"">+</div>",,html-keyboard-response,152,739853,0.0-15.0-0.1,75446,List1B,white,man,,,,null,,,,
null,"<img src=""stim_listB/kiss8.gif""</stim_listB>",,html-keyboard-response,153,741856,0.0-15.0-1.1,75446,List1B,white,man,,,,null,,,,
null,are kissing each other,,html-keyboard-response,154,743857,0.0-15.0-2.1,75446,List1B,white,man,,,,null,,,,
10522,,,survey-text,155,754381,0.0-15.0-3.1,75446,List1B,white,man,,,,,"{""Q0"":""kate and jane are kissing eachother""}","<img src=""stim_listB/kiss8.gif""</stim_listB>",are kissing each other,
null,"<div style=""font-size:60px;"">+</div>",,html-keyboard-response,156,754886,0.0-15.0-0.2,75446,List1B,white,man,,,,null,,,,
null,"<img src=""stim_listB/hug4.gif""</stim_listB>",,html-keyboard-response,157,756893,0.0-15.0-1.2,75446,List1B,white,man,,,,null,,,,
null,are hugging each other,,html-keyboard-response,158,758896,0.0-15.0-2.2,75446,List1B,white,man,,,,null,,,,
14713,,,survey-text,159,773609,0.0-15.0-3.2,75446,List1B,white,man,,,,,"{""Q0"":""dave and jane are hugging eachother""}","<img src=""stim_listB/hug4.gif""</stim_listB>",are hugging each other,
null,"<div style=""font-size:60px;"">+</div>",,html-keyboard-response,160,774113,0.0-15.0-0.3,75446,List1B,white,man,,,,null,,,,
null,"<img src=""stim_listB/argue6.gif""</stim_listB>",,html-keyboard-response,161,776119,0.0-15.0-1.3,75446,List1B,white,man,,,,null,,,,
null,are arguing with each other,,html-keyboard-response,162,778124,0.0-15.0-2.3,75446,List1B,white,man,,,,null,,,,
11343,,,survey-text,163,789468,0.0-15.0-3.3,75446,List1B,white,man,,,,,"{""Q0"":""fred and dave are arguing with eachother""}","<img src=""stim_listB/argue6.gif""</stim_listB>",are arguing with each other,
null,"<div style=""font-size:60px;"">+</div>",,html-keyboard-response,164,789974,0.0-15.0-0.4,75446,List1B,white,man,,,,null,,,,
null,"<img src=""stim_listB/hug2.gif""</stim_listB>",,html-keyboard-response,165,791980,0.0-15.0-1.4,75446,List1B,white,man,,,,null,,,,
null,are hugging each other,,html-keyboard-response,166,793985,0.0-15.0-2.4,75446,List1B,white,man,,,,null,,,,
10625,,,survey-text,167,804612,0.0-15.0-3.4,75446,List1B,white,man,,,,,"{""Q0"":""mike and kate are hugging eachother""}","<img src=""stim_listB/hug2.gif""</stim_listB>",are hugging each other,
null,"<div style=""font-size:60px;"">+</div>",,html-keyboard-response,168,805116,0.0-15.0-0.5,75446,List1B,white,man,,,,null,,,,
null,"<img src=""stim_listB/touch3.gif""</stim_listB>",,html-keyboard-response,169,807121,0.0-15.0-1.5,75446,List1B,white,man,,,,null,,,,
null,is touching,,html-keyboard-response,170,809123,0.0-15.0-2.5,75446,List1B,white,man,,,,null,,,,
9886,,,survey-text,171,819010,0.0-15.0-3.5,75446,List1B,white,man,,,,,"{""Q0"":""dave is touching jane""}","<img src=""stim_listB/touch3.gif""</stim_listB>",is touching,
null,"<div style=""font-size:60px;"">+</div>",,html-keyboard-response,172,819516,0.0-15.0-0.6,75446,List1B,white,man,,,,null,,,,
null,"<img src=""stim_listB/hug1.gif""</stim_listB>",,html-keyboard-response,173,821521,0.0-15.0-1.6,75446,List1B,white,man,,,,null,,,,
null,is hugging,,html-keyboard-response,174,823522,0.0-15.0-2.6,75446,List1B,white,man,,,,null,,,,
6956,,,survey-text,175,830479,0.0-15.0-3.6,75446,List1B,white,man,,,,,"{""Q0"":""fred is hugging beth""}","<img src=""stim_listB/hug1.gif""</stim_listB>",is hugging,
null,"<div style=""font-size:60px;"">+</div>",,html-keyboard-response,176,830980,0.0-15.0-0.7,75446,List1B,white,man,,,,null,,,,
null,"<img src=""stim_listB/talk7.gif""</stim_listB>",,html-keyboard-response,177,832987,0.0-15.0-1.7,75446,List1B,white,man,,,,null,,,,
null,is talking to,,html-keyboard-response,178,834988,0.0-15.0-2.7,75446,List1B,white,man,,,,null,,,,
6845,,,survey-text,179,841834,0.0-15.0-3.7,75446,List1B,white,man,,,,,"{""Q0"":""jane is talking to beth""}","<img src=""stim_listB/talk7.gif""</stim_listB>",is talking to,
null,"<div style=""font-size:60px;"">+</div>",,html-keyboard-response,180,842338,0.0-15.0-0.8,75446,List1B,white,man,,,,null,,,,
null,"<img src=""stim_listB/meet1.gif""</stim_listB>",,html-keyboard-response,181,844344,0.0-15.0-1.8,75446,List1B,white,man,,,,null,,,,
null,is meeting,,html-keyboard-response,182,846345,0.0-15.0-2.8,75446,List1B,white,man,,,,null,,,,
7507,,,survey-text,183,853854,0.0-15.0-3.8,75446,List1B,white,man,,,,,"{""Q0"":""mike is meeting kate""}","<img src=""stim_listB/meet1.gif""</stim_listB>",is meeting,
null,"<div style=""font-size:60px;"">+</div>",,html-keyboard-response,184,854359,0.0-15.0-0.9,75446,List1B,white,man,,,,null,,,,
null,"<img src=""stim_listB/marry5.gif""</stim_listB>",,html-keyboard-response,185,856362,0.0-15.0-1.9,75446,List1B,white,man,,,,null,,,,
null,is marrying,,html-keyboard-response,186,858365,0.0-15.0-2.9,75446,List1B,white,man,,,,null,,,,
10903,,,survey-text,187,869270,0.0-15.0-3.9,75446,List1B,white,man,,,,,"{""Q0"":""mike is marrying luke""}","<img src=""stim_listB/marry5.gif""</stim_listB>",is marrying,
null,"<div style=""font-size:60px;"">+</div>",,html-keyboard-response,188,869776,0.0-15.0-0.10,75446,List1B,white,man,,,,null,,,,
null,"<img src=""stim_listB/hug6.gif""</stim_listB>",,html-keyboard-response,189,871782,0.0-15.0-1.10,75446,List1B,white,man,,,,null,,,,
null,are hugging each other,,html-keyboard-response,190,873787,0.0-15.0-2.10,75446,List1B,white,man,,,,null,,,,
8199,,,survey-text,191,881988,0.0-15.0-3.10,75446,List1B,white,man,,,,,"{""Q0"":""mike and dave are hugging each other""}","<img src=""stim_listB/hug6.gif""</stim_listB>",are hugging each other,
null,"<div style=""font-size:60px;"">+</div>",,html-keyboard-response,192,882492,0.0-15.0-0.11,75446,List1B,white,man,,,,null,,,,
null,"<img src=""stim_listB/kiss2.gif""</stim_listB>",,html-keyboard-response,193,884496,0.0-15.0-1.11,75446,List1B,white,man,,,,null,,,,
null,are kissing each other,,html-keyboard-response,194,886497,0.0-15.0-2.11,75446,List1B,white,man,,,,null,,,,
19228,,,survey-text,195,905727,0.0-15.0-3.11,75446,List1B,white,man,,,,,"{""Q0"":""mike and kate are kissing each other""}","<img src=""stim_listB/kiss2.gif""</stim_listB>",are kissing each other,
null,"<div style=""font-size:60px;"">+</div>",,html-keyboard-response,196,906231,0.0-15.0-0.12,75446,List1B,white,man,,,,null,,,,
null,"<img src=""stim_listB/fight7.gif""</stim_listB>",,html-keyboard-response,197,908236,0.0-15.0-1.12,75446,List1B,white,man,,,,null,,,,
null,is fighting,,html-keyboard-response,198,910242,0.0-15.0-2.12,75446,List1B,white,man,,,,null,,,,
7557,,,survey-text,199,917800,0.0-15.0-3.12,75446,List1B,white,man,,,,,"{""Q0"":""jane is fighting kate""}","<img src=""stim_listB/fight7.gif""</stim_listB>",is fighting,
null,"<div style=""font-size:60px;"">+</div>",,html-keyboard-response,200,918306,0.0-15.0-0.13,75446,List1B,white,man,,,,null,,,,
null,"<img src=""stim_listB/talk4.gif""</stim_listB>",,html-keyboard-response,201,920310,0.0-15.0-1.13,75446,List1B,white,man,,,,null,,,,
null,are talking to each other,,html-keyboard-response,202,922311,0.0-15.0-2.13,75446,List1B,white,man,,,,null,,,,
10315,,,survey-text,203,932627,0.0-15.0-3.13,75446,List1B,white,man,,,,,"{""Q0"":""ruth and dave are talking to eachother""}","<img src=""stim_listB/talk4.gif""</stim_listB>",are talking to each other,
null,"<div style=""font-size:60px;"">+</div>",,html-keyboard-response,204,933133,0.0-15.0-0.14,75446,List1B,white,man,,,,null,,,,
null,"<img src=""stim_listB/dance6.gif""</stim_listB>",,html-keyboard-response,205,935139,0.0-15.0-1.14,75446,List1B,white,man,,,,null,,,,
null,are dancing with each other,,html-keyboard-response,206,937140,0.0-15.0-2.14,75446,List1B,white,man,,,,null,,,,
13382,,,survey-text,207,950524,0.0-15.0-3.14,75446,List1B,white,man,,,,,"{""Q0"":""luke and mike are dancing with each other""}","<img src=""stim_listB/dance6.gif""</stim_listB>",are dancing with each other,
null,"<div style=""font-size:60px;"">+</div>",,html-keyboard-response,208,951026,0.0-15.0-0.15,75446,List1B,white,man,,,,null,,,,
null,"<img src=""stim_listB/argue3.gif""</stim_listB>",,html-keyboard-response,209,953030,0.0-15.0-1.15,75446,List1B,white,man,,,,null,,,,
null,is arguing with,,html-keyboard-response,210,955035,0.0-15.0-2.15,75446,List1B,white,man,,,,null,,,,
10400,,,survey-text,211,965437,0.0-15.0-3.15,75446,List1B,white,man,,,,,"{""Q0"":""dave is arguing with ruth""}","<img src=""stim_listB/argue3.gif""</stim_listB>",is arguing with,
null,"<div style=""font-size:60px;"">+</div>",,html-keyboard-response,212,965943,0.0-15.0-0.16,75446,List1B,white,man,,,,null,,,,
null,"<img src=""stim_listB/talk5.gif""</stim_listB>",,html-keyboard-response,213,967946,0.0-15.0-1.16,75446,List1B,white,man,,,,null,,,,
null,is talking to,,html-keyboard-response,214,969947,0.0-15.0-2.16,75446,List1B,white,man,,,,null,,,,
7371,,,survey-text,215,977319,0.0-15.0-3.16,75446,List1B,white,man,,,,,"{""Q0"":""dave is talking to fred""}","<img src=""stim_listB/talk5.gif""</stim_listB>",is talking to,
null,"<div style=""font-size:60px;"">+</div>",,html-keyboard-response,216,977821,0.0-15.0-0.17,75446,List1B,white,man,,,,null,,,,
null,"<img src=""stim_listB/dance5.gif""</stim_listB>",,html-keyboard-response,217,979827,0.0-15.0-1.17,75446,List1B,white,man,,,,null,,,,
null,is dancing with,,html-keyboard-response,218,981832,0.0-15.0-2.17,75446,List1B,white,man,,,,null,,,,
9044,,,survey-text,219,990877,0.0-15.0-3.17,75446,List1B,white,man,,,,,"{""Q0"":""dave is dancing with fred""}","<img src=""stim_listB/dance5.gif""</stim_listB>",is dancing with,
null,"<div style=""font-size:60px;"">+</div>",,html-keyboard-response,220,991384,0.0-15.0-0.18,75446,List1B,white,man,,,,null,,,,
null,"<img src=""stim_listB/argue4.gif""</stim_listB>",,html-keyboard-response,221,993390,0.0-15.0-1.18,75446,List1B,white,man,,,,null,,,,
null,are arguing with each other,,html-keyboard-response,222,995392,0.0-15.0-2.18,75446,List1B,white,man,,,,null,,,,
13342,,,survey-text,223,1008734,0.0-15.0-3.18,75446,List1B,white,man,,,,,"{""Q0"":""luke is talking to jane""}","<img src=""stim_listB/argue4.gif""</stim_listB>",are arguing with each other,
null,"<div style=""font-size:60px;"">+</div>",,html-keyboard-response,224,1009237,0.0-15.0-0.19,75446,List1B,white,man,,,,null,,,,
null,"<img src=""stim_listB/touch7.gif""</stim_listB>",,html-keyboard-response,225,1011242,0.0-15.0-1.19,75446,List1B,white,man,,,,null,,,,
null,is touching,,html-keyboard-response,226,1013245,0.0-15.0-2.19,75446,List1B,white,man,,,,null,,,,
6003,,,survey-text,227,1019249,0.0-15.0-3.19,75446,List1B,white,man,,,,,"{""Q0"":""jane is touching kate""}","<img src=""stim_listB/touch7.gif""</stim_listB>",is touching,
131252,"<img src='img/portrait_matrix_list1.JPG' style='width:900px;height:500px;''></img><p>If you have memorised all the portraits and names and are ready to start, press Continue.</p><p><strong>Please note: Your memory of these faces will be tested 4 times during this experiment.</strong></p>",0,html-button-response,228,1150503,0.0-16.0-0.0,75446,List1B,white,man,,,,,,,,
3329,"<img src=""portrait/BM1.jpg""style=""width:400px;height:400px;""></img>",4,html-button-response,229,1154837,0.0-16.0-1.0,75446,List1B,white,man,,TRUE,4,,,,,
null,CORRECT,,html-keyboard-response,230,1156341,0.0-16.0-2.0-0.0,75446,List1B,white,man,,,,null,,,,
3207,"<img src=""portrait/WM1.jpg""style=""width:400px;height:400px;""></img>",6,html-button-response,231,1159550,0.0-16.0-4.0,75446,List1B,white,man,,TRUE,6,,,,,
null,CORRECT,,html-keyboard-response,232,1161052,0.0-16.0-5.0-0.0,75446,List1B,white,man,,,,null,,,,
3346,"<img src=""portrait/BW2.jpg""style=""width:400px;height:400px;""></img>",2,html-button-response,233,1164400,0.0-16.0-7.0,75446,List1B,white,man,,TRUE,2,,,,,
null,CORRECT,,html-keyboard-response,234,1165903,0.0-16.0-8.0-0.0,75446,List1B,white,man,,,,null,,,,
2918,"<img src=""portrait/WM2.jpg""style=""width:400px;height:400px;""></img>",7,html-button-response,235,1168823,0.0-16.0-10.0,75446,List1B,white,man,,TRUE,7,,,,,
null,CORRECT,,html-keyboard-response,236,1170331,0.0-16.0-11.0-0.0,75446,List1B,white,man,,,,null,,,,
2638,"<img src=""portrait/WW2.jpg""style=""width:400px;height:400px;""></img>",3,html-button-response,237,1172971,0.0-16.0-13.0,75446,List1B,white,man,,TRUE,3,,,,,
null,CORRECT,,html-keyboard-response,238,1174481,0.0-16.0-14.0-0.0,75446,List1B,white,man,,,,null,,,,
4734,"<img src=""portrait/WW1.jpg""style=""width:400px;height:400px;""></img>",1,html-button-response,239,1179217,0.0-16.0-16.0,75446,List1B,white,man,,TRUE,1,,,,,
null,CORRECT,,html-keyboard-response,240,1180729,0.0-16.0-17.0-0.0,75446,List1B,white,man,,,,null,,,,
3118,"<img src=""portrait/BM2.jpg""style=""width:400px;height:400px;""></img>",5,html-button-response,241,1183849,0.0-16.0-19.0,75446,List1B,white,man,,TRUE,5,,,,,
null,CORRECT,,html-keyboard-response,242,1185354,0.0-16.0-20.0-0.0,75446,List1B,white,man,,,,null,,,,
3568,"<img src=""portrait/BW1.jpg""style=""width:400px;height:400px;""></img>",0,html-button-response,243,1188924,0.0-16.0-22.0,75446,List1B,white,man,,TRUE,0,,,,,
null,CORRECT,,html-keyboard-response,244,1190434,0.0-16.0-23.0-0.0,75446,List1B,white,man,,,,null,,,,
1626,<p>You got 8 out of 8 right first time. Press Continue.</p>,0,html-button-response,245,1192062,0.0-16.0-25.0,75446,List1B,white,man,,,,,,,,
null,"<div style=""font-size:60px;"">+</div>",,html-keyboard-response,246,1193565,0.0-17.0-0.0,75446,List1B,white,man,,,,null,,,,
null,"<img src=""stim_listB/marry1.gif""</stim_listB>",,html-keyboard-response,247,1195570,0.0-17.0-1.0,75446,List1B,white,man,,,,null,,,,
null,is marrying,,html-keyboard-response,248,1197577,0.0-17.0-2.0,75446,List1B,white,man,,,,null,,,,
6629,,,survey-text,249,1204206,0.0-17.0-3.0,75446,List1B,white,man,,,,,"{""Q0"":""mike is marrying beth""}","<img src=""stim_listB/marry1.gif""</stim_listB>",is marrying,
null,"<div style=""font-size:60px;"">+</div>",,html-keyboard-response,250,1204711,0.0-17.0-0.1,75446,List1B,white,man,,,,null,,,,
null,"<img src=""stim_listB/kiss1.gif""</stim_listB>",,html-keyboard-response,251,1206713,0.0-17.0-1.1,75446,List1B,white,man,,,,null,,,,
null,is kissing,,html-keyboard-response,252,1208718,0.0-17.0-2.1,75446,List1B,white,man,,,,null,,,,
6509,,,survey-text,253,1215228,0.0-17.0-3.1,75446,List1B,white,man,,,,,"{""Q0"":""fred is kissing beth""}","<img src=""stim_listB/kiss1.gif""</stim_listB>",is kissing,
null,"<div style=""font-size:60px;"">+</div>",,html-keyboard-response,254,1215732,0.0-17.0-0.2,75446,List1B,white,man,,,,null,,,,
null,"<img src=""stim_listB/touch4.gif""</stim_listB>",,html-keyboard-response,255,1217735,0.0-17.0-1.2,75446,List1B,white,man,,,,null,,,,
null,are touching each other,,html-keyboard-response,256,1219737,0.0-17.0-2.2,75446,List1B,white,man,,,,null,,,,
14663,,,survey-text,257,1234401,0.0-17.0-3.2,75446,List1B,white,man,,,,,"{""Q0"":""luke and ruth are touching each other""}","<img src=""stim_listB/touch4.gif""</stim_listB>",are touching each other,
null,"<div style=""font-size:60px;"">+</div>",,html-keyboard-response,258,1234907,0.0-17.0-0.3,75446,List1B,white,man,,,,null,,,,
null,"<img src=""stim_listB/touch1.gif""</stim_listB>",,html-keyboard-response,259,1236913,0.0-17.0-1.3,75446,List1B,white,man,,,,null,,,,
null,is touching,,html-keyboard-response,260,1238915,0.0-17.0-2.3,75446,List1B,white,man,,,,null,,,,
7311,,,survey-text,261,1246227,0.0-17.0-3.3,75446,List1B,white,man,,,,,"{""Q0"":""kate is touching mike""}","<img src=""stim_listB/touch1.gif""</stim_listB>",is touching,
null,"<div style=""font-size:60px;"">+</div>",,html-keyboard-response,262,1246732,0.0-17.0-0.4,75446,List1B,white,man,,,,null,,,,
null,"<img src=""stim_listB/hug5.gif""</stim_listB>",,html-keyboard-response,263,1248738,0.0-17.0-1.4,75446,List1B,white,man,,,,null,,,,
null,is hugging,,html-keyboard-response,264,1250739,0.0-17.0-2.4,75446,List1B,white,man,,,,null,,,,
7139,,,survey-text,265,1257880,0.0-17.0-3.4,75446,List1B,white,man,,,,,"{""Q0"":""luke is hugging fred""}","<img src=""stim_listB/hug5.gif""</stim_listB>",is hugging,
null,"<div style=""font-size:60px;"">+</div>",,html-keyboard-response,266,1258384,0.0-17.0-0.5,75446,List1B,white,man,,,,null,,,,
null,"<img src=""stim_listB/marry3.gif""</stim_listB>",,html-keyboard-response,267,1260391,0.0-17.0-1.5,75446,List1B,white,man,,,,null,,,,
null,is marrying,,html-keyboard-response,268,1262392,0.0-17.0-2.5,75446,List1B,white,man,,,,null,,,,
6007,,,survey-text,269,1268400,0.0-17.0-3.5,75446,List1B,white,man,,,,,"{""Q0"":""dave is marrying ruth""}","<img src=""stim_listB/marry3.gif""</stim_listB>",is marrying,
null,"<div style=""font-size:60px;"">+</div>",,html-keyboard-response,270,1268906,0.0-17.0-0.6,75446,List1B,white,man,,,,null,,,,
null,"<img src=""stim_listB/kiss5.gif""</stim_listB>",,html-keyboard-response,271,1270908,0.0-17.0-1.6,75446,List1B,white,man,,,,null,,,,
null,is kissing,,html-keyboard-response,272,1272913,0.0-17.0-2.6,75446,List1B,white,man,,,,null,,,,
7613,,,survey-text,273,1280527,0.0-17.0-3.6,75446,List1B,white,man,,,,,"{""Q0"":""luke is kissing fred""}","<img src=""stim_listB/kiss5.gif""</stim_listB>",is kissing,
null,"<div style=""font-size:60px;"">+</div>",,html-keyboard-response,274,1281033,0.0-17.0-0.7,75446,List1B,white,man,,,,null,,,,
null,"<img src=""stim_listB/touch5.gif""</stim_listB>",,html-keyboard-response,275,1283039,0.0-17.0-1.7,75446,List1B,white,man,,,,null,,,,
null,is touching,,html-keyboard-response,276,1285040,0.0-17.0-2.7,75446,List1B,white,man,,,,null,,,,
9557,,,survey-text,277,1294598,0.0-17.0-3.7,75446,List1B,white,man,,,,,"{""Q0"":""mike is touching dave""}","<img src=""stim_listB/touch5.gif""</stim_listB>",is touching,
null,"<div style=""font-size:60px;"">+</div>",,html-keyboard-response,278,1295103,0.0-17.0-0.8,75446,List1B,white,man,,,,null,,,,
null,"<img src=""stim_listB/kiss6.gif""</stim_listB>",,html-keyboard-response,279,1297107,0.0-17.0-1.8,75446,List1B,white,man,,,,null,,,,
null,are kissing each other,,html-keyboard-response,280,1299108,0.0-17.0-2.8,75446,List1B,white,man,,,,null,,,,
8701,,,survey-text,281,1307811,0.0-17.0-3.8,75446,List1B,white,man,,,,,"{""Q0"":""mike and dave are kissing eachother""}","<img src=""stim_listB/kiss6.gif""</stim_listB>",are kissing each other,
null,"<div style=""font-size:60px;"">+</div>",,html-keyboard-response,282,1308316,0.0-17.0-0.9,75446,List1B,white,man,,,,null,,,,
null,"<img src=""stim_listB/hug3.gif""</stim_listB>",,html-keyboard-response,283,1310323,0.0-17.0-1.9,75446,List1B,white,man,,,,null,,,,
null,is hugging,,html-keyboard-response,284,1312324,0.0-17.0-2.9,75446,List1B,white,man,,,,null,,,,
6021,,,survey-text,285,1318346,0.0-17.0-3.9,75446,List1B,white,man,,,,,"{""Q0"":""luke is hugging ruth""}","<img src=""stim_listB/hug3.gif""</stim_listB>",is hugging,
null,"<div style=""font-size:60px;"">+</div>",,html-keyboard-response,286,1318847,0.0-17.0-0.10,75446,List1B,white,man,,,,null,,,,
null,"<img src=""stim_listB/kiss7.gif""</stim_listB>",,html-keyboard-response,287,1320854,0.0-17.0-1.10,75446,List1B,white,man,,,,null,,,,
null,is kissing,,html-keyboard-response,288,1322857,0.0-17.0-2.10,75446,List1B,white,man,,,,null,,,,
6287,,,survey-text,289,1329145,0.0-17.0-3.10,75446,List1B,white,man,,,,,"{""Q0"":""ruth is kissing beth""}","<img src=""stim_listB/kiss7.gif""</stim_listB>",is kissing,
null,"<div style=""font-size:60px;"">+</div>",,html-keyboard-response,290,1329646,0.0-17.0-0.11,75446,List1B,white,man,,,,null,,,,
null,"<img src=""stim_listB/shout1.gif""</stim_listB>",,html-keyboard-response,291,1331652,0.0-17.0-1.11,75446,List1B,white,man,,,,null,,,,
null,is shouting at,,html-keyboard-response,292,1333654,0.0-17.0-2.11,75446,List1B,white,man,,,,null,,,,
14906,,,survey-text,293,1348562,0.0-17.0-3.11,75446,List1B,white,man,,,,,"{""Q0"":""fred and beth are shouting at each other""}","<img src=""stim_listB/shout1.gif""</stim_listB>",is shouting at,
null,"<div style=""font-size:60px;"">+</div>",,html-keyboard-response,294,1349069,0.0-17.0-0.12,75446,List1B,white,man,,,,null,,,,
null,"<img src=""stim_listB/argue8.gif""</stim_listB>",,html-keyboard-response,295,1351071,0.0-17.0-1.12,75446,List1B,white,man,,,,null,,,,
null,are arguing with each other,,html-keyboard-response,296,1353072,0.0-17.0-2.12,75446,List1B,white,man,,,,null,,,,
13078,,,survey-text,297,1366152,0.0-17.0-3.12,75446,List1B,white,man,,,,,"{""Q0"":""beth and jane are arguing with each other""}","<img src=""stim_listB/argue8.gif""</stim_listB>",are arguing with each other,
null,"<div style=""font-size:60px;"">+</div>",,html-keyboard-response,298,1366658,0.0-17.0-0.13,75446,List1B,white,man,,,,null,,,,
null,"<img src=""stim_listB/talk1.gif""</stim_listB>",,html-keyboard-response,299,1368660,0.0-17.0-1.13,75446,List1B,white,man,,,,null,,,,
null,is talking to,,html-keyboard-response,300,1370665,0.0-17.0-2.13,75446,List1B,white,man,,,,null,,,,
6813,,,survey-text,301,1377480,0.0-17.0-3.13,75446,List1B,white,man,,,,,"{""Q0"":""kate is talking to fred""}","<img src=""stim_listB/talk1.gif""</stim_listB>",is talking to,
null,"<div style=""font-size:60px;"">+</div>",,html-keyboard-response,302,1377986,0.0-17.0-0.14,75446,List1B,white,man,,,,null,,,,
null,"<img src=""stim_listB/fight6.gif""</stim_listB>",,html-keyboard-response,303,1379991,0.0-17.0-1.14,75446,List1B,white,man,,,,null,,,,
null,are fighting each other,,html-keyboard-response,304,1381992,0.0-17.0-2.14,75446,List1B,white,man,,,,null,,,,
10566,,,survey-text,305,1392560,0.0-17.0-3.14,75446,List1B,white,man,,,,,"{""Q0"":""luke and fred are fighting with eachother""}","<img src=""stim_listB/fight6.gif""</stim_listB>",are fighting each other,
null,"<div style=""font-size:60px;"">+</div>",,html-keyboard-response,306,1393063,0.0-17.0-0.15,75446,List1B,white,man,,,,null,,,,
null,"<img src=""stim_listB/dance2.gif""</stim_listB>",,html-keyboard-response,307,1395065,0.0-17.0-1.15,75446,List1B,white,man,,,,null,,,,
null,are dancing with each other,,html-keyboard-response,308,1397070,0.0-17.0-2.15,75446,List1B,white,man,,,,null,,,,
10052,,,survey-text,309,1407123,0.0-17.0-3.15,75446,List1B,white,man,,,,,"{""Q0"":""mike and beth are dancing with eachother""}","<img src=""stim_listB/dance2.gif""</stim_listB>",are dancing with each other,
null,"<div style=""font-size:60px;"">+</div>",,html-keyboard-response,310,1407630,0.0-17.0-0.16,75446,List1B,white,man,,,,null,,,,
null,"<img src=""stim_listB/touch8.gif""</stim_listB>",,html-keyboard-response,311,1409636,0.0-17.0-1.16,75446,List1B,white,man,,,,null,,,,
null,are touching each other,,html-keyboard-response,312,1411638,0.0-17.0-2.16,75446,List1B,white,man,,,,null,,,,
9009,,,survey-text,313,1420647,0.0-17.0-3.16,75446,List1B,white,man,,,,,"{""Q0"":""beth and ruth are touching eachother""}","<img src=""stim_listB/touch8.gif""</stim_listB>",are touching each other,
null,"<div style=""font-size:60px;"">+</div>",,html-keyboard-response,314,1421154,0.0-17.0-0.17,75446,List1B,white,man,,,,null,,,,
null,"<img src=""stim_listB/marry4.gif""</stim_listB>",,html-keyboard-response,315,1423160,0.0-17.0-1.17,75446,List1B,white,man,,,,null,,,,
null,are marrying each other,,html-keyboard-response,316,1425165,0.0-17.0-2.17,75446,List1B,white,man,,,,null,,,,
8940,,,survey-text,317,1434106,0.0-17.0-3.17,75446,List1B,white,man,,,,,"{""Q0"":""luke and jane are marrying eachother""}","<img src=""stim_listB/marry4.gif""</stim_listB>",are marrying each other,
null,"<div style=""font-size:60px;"">+</div>",,html-keyboard-response,318,1434611,0.0-17.0-0.18,75446,List1B,white,man,,,,null,,,,
null,"<img src=""stim_listB/shout8.gif""</stim_listB>",,html-keyboard-response,319,1436618,0.0-17.0-1.18,75446,List1B,white,man,,,,null,,,,
null,are shouting at each other,,html-keyboard-response,320,1438620,0.0-17.0-2.18,75446,List1B,white,man,,,,null,,,,
9158,,,survey-text,321,1447780,0.0-17.0-3.18,75446,List1B,white,man,,,,,"{""Q0"":""jane and kate are shouting at each other""}","<img src=""stim_listB/shout8.gif""</stim_listB>",are shouting at each other,
null,"<div style=""font-size:60px;"">+</div>",,html-keyboard-response,322,1448282,0.0-17.0-0.19,75446,List1B,white,man,,,,null,,,,
null,"<img src=""stim_listB/shout5.gif""</stim_listB>",,html-keyboard-response,323,1450285,0.0-17.0-1.19,75446,List1B,white,man,,,,null,,,,
null,is shouting at,,html-keyboard-response,324,1452287,0.0-17.0-2.19,75446,List1B,white,man,,,,null,,,,
7870,,,survey-text,325,1460158,0.0-17.0-3.19,75446,List1B,white,man,,,,,"{""Q0"":""luke is shouting at fred""}","<img src=""stim_listB/shout5.gif""</stim_listB>",is shouting at,
4044,"<img src='img/portrait_matrix_list1.JPG' style='width:900px;height:500px;''></img><p>If you have memorised all the portraits and names and are ready to start, press Continue.</p><p><strong>Please note: Your memory of these faces will be tested 4 times during this experiment.</strong></p>",0,html-button-response,326,1464204,0.0-18.0-0.0,75446,List1B,white,man,,,,,,,,
3540,"<img src=""portrait/WW1.jpg""style=""width:400px;height:400px;""></img>",1,html-button-response,327,1468747,0.0-18.0-1.0,75446,List1B,white,man,,TRUE,1,,,,,
null,CORRECT,,html-keyboard-response,328,1470253,0.0-18.0-2.0-0.0,75446,List1B,white,man,,,,null,,,,
3074,"<img src=""portrait/WM1.jpg""style=""width:400px;height:400px;""></img>",6,html-button-response,329,1473331,0.0-18.0-4.0,75446,List1B,white,man,,TRUE,6,,,,,
null,CORRECT,,html-keyboard-response,330,1474837,0.0-18.0-5.0-0.0,75446,List1B,white,man,,,,null,,,,
2545,"<img src=""portrait/BW1.jpg""style=""width:400px;height:400px;""></img>",0,html-button-response,331,1477382,0.0-18.0-7.0,75446,List1B,white,man,,TRUE,0,,,,,
null,CORRECT,,html-keyboard-response,332,1478885,0.0-18.0-8.0-0.0,75446,List1B,white,man,,,,null,,,,
5168,"<img src=""portrait/WM2.jpg""style=""width:400px;height:400px;""></img>",7,html-button-response,333,1484056,0.0-18.0-10.0,75446,List1B,white,man,,TRUE,7,,,,,
null,CORRECT,,html-keyboard-response,334,1485562,0.0-18.0-11.0-0.0,75446,List1B,white,man,,,,null,,,,
3157,"<img src=""portrait/BW2.jpg""style=""width:400px;height:400px;""></img>",2,html-button-response,335,1488721,0.0-18.0-13.0,75446,List1B,white,man,,TRUE,2,,,,,
null,CORRECT,,html-keyboard-response,336,1490228,0.0-18.0-14.0-0.0,75446,List1B,white,man,,,,null,,,,
2742,"<img src=""portrait/BM2.jpg""style=""width:400px;height:400px;""></img>",5,html-button-response,337,1492973,0.0-18.0-16.0,75446,List1B,white,man,,TRUE,5,,,,,
null,CORRECT,,html-keyboard-response,338,1494480,0.0-18.0-17.0-0.0,75446,List1B,white,man,,,,null,,,,
3310,"<img src=""portrait/BM1.jpg""style=""width:400px;height:400px;""></img>",4,html-button-response,339,1497792,0.0-18.0-19.0,75446,List1B,white,man,,TRUE,4,,,,,
null,CORRECT,,html-keyboard-response,340,1499294,0.0-18.0-20.0-0.0,75446,List1B,white,man,,,,null,,,,
3105,"<img src=""portrait/WW2.jpg""style=""width:400px;height:400px;""></img>",3,html-button-response,341,1502401,0.0-18.0-22.0,75446,List1B,white,man,,TRUE,3,,,,,
null,CORRECT,,html-keyboard-response,342,1503909,0.0-18.0-23.0-0.0,75446,List1B,white,man,,,,null,,,,
1451,<p>You got 8 out of 8 right first time. Press Continue.</p>,0,html-button-response,343,1505362,0.0-18.0-25.0,75446,List1B,white,man,,,,,,,,
null,"<div style=""font-size:60px;"">+</div>",,html-keyboard-response,344,1506865,0.0-19.0-0.0,75446,List1B,white,man,,,,null,,,,
null,"<img src=""stim_listB/touch6.gif""</stim_listB>",,html-keyboard-response,345,1508869,0.0-19.0-1.0,75446,List1B,white,man,,,,null,,,,
null,are touching each other,,html-keyboard-response,346,1510874,0.0-19.0-2.0,75446,List1B,white,man,,,,null,,,,
9724,,,survey-text,347,1520600,0.0-19.0-3.0,75446,List1B,white,man,,,,,"{""Q0"":""fred and luke are touching each other""}","<img src=""stim_listB/touch6.gif""</stim_listB>",are touching each other,
null,"<div style=""font-size:60px;"">+</div>",,html-keyboard-response,348,1521106,0.0-19.0-0.1,75446,List1B,white,man,,,,null,,,,
null,"<img src=""stim_listB/talk2.gif""</stim_listB>",,html-keyboard-response,349,1523111,0.0-19.0-1.1,75446,List1B,white,man,,,,null,,,,
null,are talking to each other,,html-keyboard-response,350,1525115,0.0-19.0-2.1,75446,List1B,white,man,,,,null,,,,
13320,,,survey-text,351,1538437,0.0-19.0-3.1,75446,List1B,white,man,,,,,"{""Q0"":""mike and beth are talking to each other""}","<img src=""stim_listB/talk2.gif""</stim_listB>",are talking to each other,
null,"<div style=""font-size:60px;"">+</div>",,html-keyboard-response,352,1538939,0.0-19.0-0.2,75446,List1B,white,man,,,,null,,,,
null,"<img src=""stim_listB/fight1.gif""</stim_listB>",,html-keyboard-response,353,1540944,0.0-19.0-1.2,75446,List1B,white,man,,,,null,,,,
null,is fighting,,html-keyboard-response,354,1542945,0.0-19.0-2.2,75446,List1B,white,man,,,,null,,,,
8786,,,survey-text,355,1551733,0.0-19.0-3.2,75446,List1B,white,man,,,,,"{""Q0"":""mike is fighting kate""}","<img src=""stim_listB/fight1.gif""</stim_listB>",is fighting,
null,"<div style=""font-size:60px;"">+</div>",,html-keyboard-response,356,1552236,0.0-19.0-0.3,75446,List1B,white,man,,,,null,,,,
null,"<img src=""stim_listB/meet5.gif""</stim_listB>",,html-keyboard-response,357,1554237,0.0-19.0-1.3,75446,List1B,white,man,,,,null,,,,
null,is meeting,,html-keyboard-response,358,1556238,0.0-19.0-2.3,75446,List1B,white,man,,,,null,,,,
6095,,,survey-text,359,1562335,0.0-19.0-3.3,75446,List1B,white,man,,,,,"{""Q0"":""mike is meeting dave""}","<img src=""stim_listB/meet5.gif""</stim_listB>",is meeting,
null,"<div style=""font-size:60px;"">+</div>",,html-keyboard-response,360,1562837,0.0-19.0-0.4,75446,List1B,white,man,,,,null,,,,
null,"<img src=""stim_listB/dance7.gif""</stim_listB>",,html-keyboard-response,361,1564844,0.0-19.0-1.4,75446,List1B,white,man,,,,null,,,,
null,is dancing with,,html-keyboard-response,362,1566849,0.0-19.0-2.4,75446,List1B,white,man,,,,null,,,,
6920,,,survey-text,363,1573770,0.0-19.0-3.4,75446,List1B,white,man,,,,,"{""Q0"":""jane is dancing with beth""}","<img src=""stim_listB/dance7.gif""</stim_listB>",is dancing with,
null,"<div style=""font-size:60px;"">+</div>",,html-keyboard-response,364,1574276,0.0-19.0-0.5,75446,List1B,white,man,,,,null,,,,
null,"<img src=""stim_listB/marry8.gif""</stim_listB>",,html-keyboard-response,365,1576283,0.0-19.0-1.5,75446,List1B,white,man,,,,null,,,,
null,are marrying each other,,html-keyboard-response,366,1578285,0.0-19.0-2.5,75446,List1B,white,man,,,,null,,,,
8792,,,survey-text,367,1587079,0.0-19.0-3.5,75446,List1B,white,man,,,,,"{""Q0"":""jane and beth are marrying eachother""}","<img src=""stim_listB/marry8.gif""</stim_listB>",are marrying each other,
null,"<div style=""font-size:60px;"">+</div>",,html-keyboard-response,368,1587585,0.0-19.0-0.6,75446,List1B,white,man,,,,null,,,,
null,"<img src=""stim_listB/meet3.gif""</stim_listB>",,html-keyboard-response,369,1589588,0.0-19.0-1.6,75446,List1B,white,man,,,,null,,,,
null,is meeting,,html-keyboard-response,370,1591589,0.0-19.0-2.6,75446,List1B,white,man,,,,null,,,,
5721,,,survey-text,371,1597311,0.0-19.0-3.6,75446,List1B,white,man,,,,,"{""Q0"":""jane is meeting dave""}","<img src=""stim_listB/meet3.gif""</stim_listB>",is meeting,
null,"<div style=""font-size:60px;"">+</div>",,html-keyboard-response,372,1597817,0.0-19.0-0.7,75446,List1B,white,man,,,,null,,,,
null,"<img src=""stim_listB/meet8.gif""</stim_listB>",,html-keyboard-response,373,1599824,0.0-19.0-1.7,75446,List1B,white,man,,,,null,,,,
null,are meeting each other,,html-keyboard-response,374,1601829,0.0-19.0-2.7,75446,List1B,white,man,,,,null,,,,
10096,,,survey-text,375,1611927,0.0-19.0-3.7,75446,List1B,white,man,,,,,"{""Q0"":""ruth and beth are meeting each other""}","<img src=""stim_listB/meet8.gif""</stim_listB>",are meeting each other,
null,"<div style=""font-size:60px;"">+</div>",,html-keyboard-response,376,1612433,0.0-19.0-0.8,75446,List1B,white,man,,,,null,,,,
null,"<img src=""stim_listB/argue5.gif""</stim_listB>",,html-keyboard-response,377,1614439,0.0-19.0-1.8,75446,List1B,white,man,,,,null,,,,
null,is arguing with,,html-keyboard-response,378,1616440,0.0-19.0-2.8,75446,List1B,white,man,,,,null,,,,
7039,,,survey-text,379,1623479,0.0-19.0-3.8,75446,List1B,white,man,,,,,"{""Q0"":""mike is arguing with luke""}","<img src=""stim_listB/argue5.gif""</stim_listB>",is arguing with,
null,"<div style=""font-size:60px;"">+</div>",,html-keyboard-response,380,1623985,0.0-19.0-0.9,75446,List1B,white,man,,,,null,,,,
null,"<img src=""stim_listB/meet4.gif""</stim_listB>",,html-keyboard-response,381,1625988,0.0-19.0-1.9,75446,List1B,white,man,,,,null,,,,
null,are meeting each other,,html-keyboard-response,382,1627991,0.0-19.0-2.9,75446,List1B,white,man,,,,null,,,,
9549,,,survey-text,383,1637542,0.0-19.0-3.9,75446,List1B,white,man,,,,,"{""Q0"":""luke and ruth are meeting each other""}","<img src=""stim_listB/meet4.gif""</stim_listB>",are meeting each other,
null,"<div style=""font-size:60px;"">+</div>",,html-keyboard-response,384,1638049,0.0-19.0-0.10,75446,List1B,white,man,,,,null,,,,
null,"<img src=""stim_listB/kiss4.gif""</stim_listB>",,html-keyboard-response,385,1640055,0.0-19.0-1.10,75446,List1B,white,man,,,,null,,,,
null,are kissing each other,,html-keyboard-response,386,1642056,0.0-19.0-2.10,75446,List1B,white,man,,,,null,,,,
9138,,,survey-text,387,1651196,0.0-19.0-3.10,75446,List1B,white,man,,,,,"{""Q0"":""jane and dave are kissing each other""}","<img src=""stim_listB/kiss4.gif""</stim_listB>",are kissing each other,
null,"<div style=""font-size:60px;"">+</div>",,html-keyboard-response,388,1651700,0.0-19.0-0.11,75446,List1B,white,man,,,,null,,,,
null,"<img src=""stim_listB/dance1.gif""</stim_listB>",,html-keyboard-response,389,1653702,0.0-19.0-1.11,75446,List1B,white,man,,,,null,,,,
null,is dancing with,,html-keyboard-response,390,1655703,0.0-19.0-2.11,75446,List1B,white,man,,,,null,,,,
7247,,,survey-text,391,1662952,0.0-19.0-3.11,75446,List1B,white,man,,,,,"{""Q0"":""fred is dancing with kate""}","<img src=""stim_listB/dance1.gif""</stim_listB>",is dancing with,
null,"<div style=""font-size:60px;"">+</div>",,html-keyboard-response,392,1663458,0.0-19.0-0.12,75446,List1B,white,man,,,,null,,,,
null,"<img src=""stim_listB/dance4.gif""</stim_listB>",,html-keyboard-response,393,1665460,0.0-19.0-1.12,75446,List1B,white,man,,,,null,,,,
null,are dancing with each other,,html-keyboard-response,394,1667461,0.0-19.0-2.12,75446,List1B,white,man,,,,null,,,,
11624,,,survey-text,395,1679085,0.0-19.0-3.12,75446,List1B,white,man,,,,,"{""Q0"":""dave and ruth are dancing with each other""}","<img src=""stim_listB/dance4.gif""</stim_listB>",are dancing with each other,
null,"<div style=""font-size:60px;"">+</div>",,html-keyboard-response,396,1679587,0.0-19.0-0.13,75446,List1B,white,man,,,,null,,,,
null,"<img src=""stim_listB/fight4.gif""</stim_listB>",,html-keyboard-response,397,1681591,0.0-19.0-1.13,75446,List1B,white,man,,,,null,,,,
null,are fighting each other,,html-keyboard-response,398,1683596,0.0-19.0-2.13,75446,List1B,white,man,,,,null,,,,
8514,,,survey-text,399,1692111,0.0-19.0-3.13,75446,List1B,white,man,,,,,"{""Q0"":""luke and ruth are fighting each other""}","<img src=""stim_listB/fight4.gif""</stim_listB>",are fighting each other,
null,"<div style=""font-size:60px;"">+</div>",,html-keyboard-response,400,1692613,0.0-19.0-0.14,75446,List1B,white,man,,,,null,,,,
null,"<img src=""stim_listB/dance3.gif""</stim_listB>",,html-keyboard-response,401,1694619,0.0-19.0-1.14,75446,List1B,white,man,,,,null,,,,
null,is dancing with,,html-keyboard-response,402,1696624,0.0-19.0-2.14,75446,List1B,white,man,,,,null,,,,
7042,,,survey-text,403,1703668,0.0-19.0-3.14,75446,List1B,white,man,,,,,"{""Q0"":""luke is dancing with jane""}","<img src=""stim_listB/dance3.gif""</stim_listB>",is dancing with,
null,"<div style=""font-size:60px;"">+</div>",,html-keyboard-response,404,1704174,0.0-19.0-0.15,75446,List1B,white,man,,,,null,,,,
null,"<img src=""stim_listB/fight3.gif""</stim_listB>",,html-keyboard-response,405,1706178,0.0-19.0-1.15,75446,List1B,white,man,,,,null,,,,
null,is fighting,,html-keyboard-response,406,1708182,0.0-19.0-2.15,75446,List1B,white,man,,,,null,,,,
5991,,,survey-text,407,1714174,0.0-19.0-3.15,75446,List1B,white,man,,,,,"{""Q0"":""dave is fighting jane""}","<img src=""stim_listB/fight3.gif""</stim_listB>",is fighting,
null,"<div style=""font-size:60px;"">+</div>",,html-keyboard-response,408,1714680,0.0-19.0-0.16,75446,List1B,white,man,,,,null,,,,
null,"<img src=""stim_listB/meet2.gif""</stim_listB>",,html-keyboard-response,409,1716686,0.0-19.0-1.16,75446,List1B,white,man,,,,null,,,,
null,are meeting each other,,html-keyboard-response,410,1718687,0.0-19.0-2.16,75446,List1B,white,man,,,,null,,,,
11042,,,survey-text,411,1729731,0.0-19.0-3.16,75446,List1B,white,man,,,,,"{""Q0"":""fred and beth are meeting each other""}","<img src=""stim_listB/meet2.gif""</stim_listB>",are meeting each other,
null,"<div style=""font-size:60px;"">+</div>",,html-keyboard-response,412,1730237,0.0-19.0-0.17,75446,List1B,white,man,,,,null,,,,
null,"<img src=""stim_listB/fight8.gif""</stim_listB>",,html-keyboard-response,413,1732243,0.0-19.0-1.17,75446,List1B,white,man,,,,null,,,,
null,are fighting each other,,html-keyboard-response,414,1734245,0.0-19.0-2.17,75446,List1B,white,man,,,,null,,,,
8332,,,survey-text,415,1742579,0.0-19.0-3.17,75446,List1B,white,man,,,,,"{""Q0"":""beth and ruth are fighting each other""}","<img src=""stim_listB/fight8.gif""</stim_listB>",are fighting each other,
null,"<div style=""font-size:60px;"">+</div>",,html-keyboard-response,416,1743085,0.0-19.0-0.18,75446,List1B,white,man,,,,null,,,,
null,"<img src=""stim_listB/shout4.gif""</stim_listB>",,html-keyboard-response,417,1745091,0.0-19.0-1.18,75446,List1B,white,man,,,,null,,,,
null,are shouting at each other,,html-keyboard-response,418,1747096,0.0-19.0-2.18,75446,List1B,white,man,,,,null,,,,
9360,,,survey-text,419,1756457,0.0-19.0-3.18,75446,List1B,white,man,,,,,"{""Q0"":""dave and jane are shouting at each other""}","<img src=""stim_listB/shout4.gif""</stim_listB>",are shouting at each other,
null,"<div style=""font-size:60px;"">+</div>",,html-keyboard-response,420,1756964,0.0-19.0-0.19,75446,List1B,white,man,,,,null,,,,
null,"<img src=""stim_listB/shout7.gif""</stim_listB>",,html-keyboard-response,421,1758969,0.0-19.0-1.19,75446,List1B,white,man,,,,null,,,,
null,is shouting at,,html-keyboard-response,422,1760974,0.0-19.0-2.19,75446,List1B,white,man,,,,null,,,,
11731,,,survey-text,423,1772705,0.0-19.0-3.19,75446,List1B,white,man,,,,,"{""Q0"":""beth is shouting at ruth""}","<img src=""stim_listB/shout7.gif""</stim_listB>",is shouting at,
1989,<p>Thank you for completing that task.</p><p>The final part of this session is a short questionnaire.</p><p>Press Continue.</p>,0,html-button-response,424,1774696,0.0-20.0,75446,List1B,white,man,,,,,,,,
21127,,,survey-text,425,1796826,0.0-21.0,75446,List1B,white,man,,,,,"{""Q0"":""24"",""Q1"":""english"",""Q2"":""english"",""Q3"":""canada"",""Q4"":""white/caucasian"",""Q5"":""male""}",,,demographics
43348,,,survey-likert,426,1840182,0.0-22.0,75446,List1B,white,man,,,,,"{""Q0"":3,""Q1"":4,""Q2"":3,""Q3"":6,""Q4"":5,""Q5"":5,""Q6"":4,""Q7"":3,""Q8"":3,""Q9"":3,""Q10"":3,""Q11"":3,""Q12"":3,""Q13"":3}",,,likert_race
37356,,,survey-likert,427,1877544,0.0-23.0,75446,List1B,white,man,,,,,"{""Q0"":3,""Q1"":4,""Q2"":4,""Q3"":5,""Q4"":5,""Q5"":5,""Q6"":5,""Q7"":4,""Q8"":3,""Q9"":3,""Q10"":4,""Q11"":3,""Q12"":3,""Q13"":3}",,,likert_gender
11622,,,survey-text,428,1889167,0.0-24.0,75446,List1B,white,man,,,,,"{""Q0"":""ccc""}",,,worker_id
29996,,,external-html,429,1919388,0.0-25.0,75446,List1B,white,man,debrief.html,,,,,,,
