rt,stimulus,button_pressed,trial_type,trial_index,time_elapsed,internal_node_id,subject,list,ppt_race,ppt_gender,url,first_guess,correct,key_press,responses,image_type,phrase_type,test_part
1261,Welcome to the experiment. Press Continue to begin.,0,html-button-response,0,1321,0.0-0.0,76326,List1B,white,man,,,,,,,,
8188,,,external-html,1,11121,0.0-1.0,76326,List1B,white,man,consent.html,,,,,,,
5990,"<p>On the next page, you will see portraits of 8 people and their names.</p><p>Your first task is to take a few minutes to memorise the names of these people.</p><p>You will have to recall their names during the rest of the experiment, so it is</p><p>essential that you try to memorise these people and their names as best as you can.</p><br><p><strong>You will then be tested on your memory of these names and portraits.</strong></p><br><p>The experiment will start after you have completed this memory test.</p><br><p>Ready?</p>",0,html-button-response,2,17112,0.0-2.0,76326,List1B,white,man,,,,,,,,
25654,"<img src='img/portrait_matrix_list1.JPG' style='width:900px;height:500px;''></img><p>If you have memorised all the portraits and names and are ready to start, press Continue.</p><p><strong>Please note: Your memory of these faces will be tested 4 times during this experiment.</strong></p>",0,html-button-response,3,43767,0.0-3.0-0.0,76326,List1B,white,man,,,,,,,,
3717,"<img src=""portrait/WM2.jpg""style=""width:400px;height:400px;""></img>",7,html-button-response,4,48486,0.0-3.0-1.0,76326,List1B,white,man,,TRUE,7,,,,,
null,CORRECT,,html-keyboard-response,5,49997,0.0-3.0-2.0-0.0,76326,List1B,white,man,,,,null,,,,
3352,"<img src=""portrait/BW2.jpg""style=""width:400px;height:400px;""></img>",2,html-button-response,6,53350,0.0-3.0-4.0,76326,List1B,white,man,,TRUE,2,,,,,
null,CORRECT,,html-keyboard-response,7,54852,0.0-3.0-5.0-0.0,76326,List1B,white,man,,,,null,,,,
1888,"<img src=""portrait/BM2.jpg""style=""width:400px;height:400px;""></img>",5,html-button-response,8,56742,0.0-3.0-7.0,76326,List1B,white,man,,TRUE,5,,,,,
null,CORRECT,,html-keyboard-response,9,58243,0.0-3.0-8.0-0.0,76326,List1B,white,man,,,,null,,,,
1602,"<img src=""portrait/BW1.jpg""style=""width:400px;height:400px;""></img>",1,html-button-response,10,59846,0.0-3.0-10.0,76326,List1B,white,man,,TRUE,0,,,,,
2828,"<img src=""portrait/BW1.jpg""style=""width:400px;height:400px;""></img>",0,html-button-response,11,63685,0.0-3.0-12.0-0.0,76326,List1B,white,man,,FALSE,0,,,,,
null,CORRECT,,html-keyboard-response,12,65188,0.0-3.0-12.0-1.0-0.0,76326,List1B,white,man,,,,null,,,,
4663,"<img src=""portrait/BM1.jpg""style=""width:400px;height:400px;""></img>",4,html-button-response,13,69853,0.0-3.0-13.0,76326,List1B,white,man,,TRUE,4,,,,,
null,CORRECT,,html-keyboard-response,14,71366,0.0-3.0-14.0-0.0,76326,List1B,white,man,,,,null,,,,
6270,"<img src=""portrait/WW1.jpg""style=""width:400px;height:400px;""></img>",1,html-button-response,15,77636,0.0-3.0-16.0,76326,List1B,white,man,,TRUE,1,,,,,
null,CORRECT,,html-keyboard-response,16,79144,0.0-3.0-17.0-0.0,76326,List1B,white,man,,,,null,,,,
3516,"<img src=""portrait/WW2.jpg""style=""width:400px;height:400px;""></img>",3,html-button-response,17,82660,0.0-3.0-19.0,76326,List1B,white,man,,TRUE,3,,,,,
null,CORRECT,,html-keyboard-response,18,84176,0.0-3.0-20.0-0.0,76326,List1B,white,man,,,,null,,,,
4083,"<img src=""portrait/WM1.jpg""style=""width:400px;height:400px;""></img>",6,html-button-response,19,88260,0.0-3.0-22.0,76326,List1B,white,man,,TRUE,6,,,,,
null,CORRECT,,html-keyboard-response,20,89781,0.0-3.0-23.0-0.0,76326,List1B,white,man,,,,null,,,,
1093,<p>You got 7 out of 8 right first time. Press Continue.</p>,0,html-button-response,21,90876,0.0-3.0-25.0,76326,List1B,white,man,,,,,,,,
2174,"As you did not score 100%, the memory game will repeat. Press Continue.",0,html-button-response,22,94052,0.0-3.0-26.0-0.0,76326,List1B,white,man,,,,,,,,
1357,"<img src='img/portrait_matrix_list1.JPG' style='width:900px;height:500px;''></img><p>If you have memorised all the portraits and names and are ready to start, press Continue.</p><p><strong>Please note: Your memory of these faces will be tested 4 times during this experiment.</strong></p>",0,html-button-response,23,96411,0.0-3.1-0.1,76326,List1B,white,man,,,,,,,,
3360,"<img src=""portrait/WM2.jpg""style=""width:400px;height:400px;""></img>",7,html-button-response,24,100787,0.0-3.1-1.1,76326,List1B,white,man,,TRUE,7,,,,,
null,CORRECT,,html-keyboard-response,25,102301,0.0-3.1-2.1-0.1,76326,List1B,white,man,,,,null,,,,
2334,"<img src=""portrait/BW2.jpg""style=""width:400px;height:400px;""></img>",2,html-button-response,26,104636,0.0-3.1-4.1,76326,List1B,white,man,,TRUE,2,,,,,
null,CORRECT,,html-keyboard-response,27,106138,0.0-3.1-5.1-0.1,76326,List1B,white,man,,,,null,,,,
2312,"<img src=""portrait/BM2.jpg""style=""width:400px;height:400px;""></img>",5,html-button-response,28,108451,0.0-3.1-7.1,76326,List1B,white,man,,TRUE,5,,,,,
null,CORRECT,,html-keyboard-response,29,109952,0.0-3.1-8.1-0.1,76326,List1B,white,man,,,,null,,,,
3795,"<img src=""portrait/BW1.jpg""style=""width:400px;height:400px;""></img>",0,html-button-response,30,113748,0.0-3.1-10.1,76326,List1B,white,man,,TRUE,0,,,,,
null,CORRECT,,html-keyboard-response,31,115270,0.0-3.1-11.1-0.1,76326,List1B,white,man,,,,null,,,,
3046,"<img src=""portrait/BM1.jpg""style=""width:400px;height:400px;""></img>",4,html-button-response,32,118316,0.0-3.1-13.1,76326,List1B,white,man,,TRUE,4,,,,,
null,CORRECT,,html-keyboard-response,33,119828,0.0-3.1-14.1-0.1,76326,List1B,white,man,,,,null,,,,
3422,"<img src=""portrait/WW1.jpg""style=""width:400px;height:400px;""></img>",1,html-button-response,34,123252,0.0-3.1-16.1,76326,List1B,white,man,,TRUE,1,,,,,
null,CORRECT,,html-keyboard-response,35,124765,0.0-3.1-17.1-0.1,76326,List1B,white,man,,,,null,,,,
2261,"<img src=""portrait/WW2.jpg""style=""width:400px;height:400px;""></img>",3,html-button-response,36,127028,0.0-3.1-19.1,76326,List1B,white,man,,TRUE,3,,,,,
null,CORRECT,,html-keyboard-response,37,128540,0.0-3.1-20.1-0.1,76326,List1B,white,man,,,,null,,,,
2574,"<img src=""portrait/WM1.jpg""style=""width:400px;height:400px;""></img>",6,html-button-response,38,131115,0.0-3.1-22.1,76326,List1B,white,man,,TRUE,6,,,,,
null,CORRECT,,html-keyboard-response,39,132623,0.0-3.1-23.1-0.1,76326,List1B,white,man,,,,null,,,,
980,<p>You got 8 out of 8 right first time. Press Continue.</p>,0,html-button-response,40,133603,0.0-3.1-25.1,76326,List1B,white,man,,,,,,,,
15213,"<p>In this experiment, you will view photographs of the people from the memory game interacting.</p><p>By using the <strong>exact</strong> phrase given <i>after</i> the photograph appears and recalling the correct names of the people in the photographs, form a sentence describing the interaction. You do not need to capitalise names.</p><p>Type your answer in the space provided. Please complete every sentence before moving onto the next trial.</p><p>You will only have a few seconds to memorise each given photograph and phrase before you can respond, so try your best to focus.</p><p>An example is given below. Press 'Continue' when you are ready.</p><img src='img/speaking_example_v2.jpg' style='width:800px;height:460px;''></img>",0,html-button-response,41,149818,0.0-4.0,76326,List1B,white,man,,,,,,,,
1215,"<p>Before the experiment starts, you will watch two example trials. Press 'Continue'.</p>",0,html-button-response,42,152034,0.0-5.0,76326,List1B,white,man,,,,,,,,
null,<img src='img/speaking_WW.gif'></img>,,html-keyboard-response,43,155046,0.0-6.0,76326,List1B,white,man,,,,null,,,,
null,<p>is speaking to</p>,,html-keyboard-response,44,157051,0.0-7.0,76326,List1B,white,man,,,,null,,,,
1718,<p><b>Answer:</b> kate is speaking to beth</p>,0,html-button-response,45,158770,0.0-8.0,76326,List1B,white,man,,,,,,,,
null,<img src='img/pointing_BM.gif'></img>,,html-keyboard-response,46,161785,0.0-9.0,76326,List1B,white,man,,,,null,,,,
null,<p>are pointing at each other</p>,,html-keyboard-response,47,163786,0.0-10.0,76326,List1B,white,man,,,,null,,,,
1014,<p><b>Answer:</b> luke and dave are pointing at each other</p>,0,html-button-response,48,164802,0.0-11.0,76326,List1B,white,man,,,,,,,,
3142,"<p>Ready to start the experiment?</p><br><p><strong>Remember to describe the picture using a full sentence,</strong></p><p><strong>that combines the names of the people with the given phrase.</strong></p><p><strong>If you do not do this correctly you will not be paid.</strong></p><p><strong> You do not need to capitalise names or use punctuation.</strong></p><br><p>Press 'Continue' to begin.</p>",0,html-button-response,49,168945,0.0-12.0,76326,List1B,white,man,,,,,,,,
null,"<div style=""font-size:60px;"">+</div>",,html-keyboard-response,50,170455,0.0-13.0-0.0,76326,List1B,white,man,,,,null,,,,
null,"<img src=""stim_listB/touch5.gif""</stim_listB>",,html-keyboard-response,51,172486,0.0-13.0-1.0,76326,List1B,white,man,,,,null,,,,
null,is touching,,html-keyboard-response,52,174494,0.0-13.0-2.0,76326,List1B,white,man,,,,null,,,,
8807,,,survey-text,53,183303,0.0-13.0-3.0,76326,List1B,white,man,,,,,"{""Q0"":""dave is touching mike""}","<img src=""stim_listB/touch5.gif""</stim_listB>",is touching,
null,"<div style=""font-size:60px;"">+</div>",,html-keyboard-response,54,183804,0.0-13.0-0.1,76326,List1B,white,man,,,,null,,,,
null,"<img src=""stim_listB/talk4.gif""</stim_listB>",,html-keyboard-response,55,185811,0.0-13.0-1.1,76326,List1B,white,man,,,,null,,,,
null,are talking to each other,,html-keyboard-response,56,187823,0.0-13.0-2.1,76326,List1B,white,man,,,,null,,,,
6542,,,survey-text,57,194366,0.0-13.0-3.1,76326,List1B,white,man,,,,,"{""Q0"":""dave is talking with kate""}","<img src=""stim_listB/talk4.gif""</stim_listB>",are talking to each other,
null,"<div style=""font-size:60px;"">+</div>",,html-keyboard-response,58,194878,0.0-13.0-0.2,76326,List1B,white,man,,,,null,,,,
null,"<img src=""stim_listB/meet4.gif""</stim_listB>",,html-keyboard-response,59,196893,0.0-13.0-1.2,76326,List1B,white,man,,,,null,,,,
null,are meeting each other,,html-keyboard-response,60,198908,0.0-13.0-2.2,76326,List1B,white,man,,,,null,,,,
5881,,,survey-text,61,204790,0.0-13.0-3.2,76326,List1B,white,man,,,,,"{""Q0"":""ruth is meeting luke""}","<img src=""stim_listB/meet4.gif""</stim_listB>",are meeting each other,
null,"<div style=""font-size:60px;"">+</div>",,html-keyboard-response,62,205293,0.0-13.0-0.3,76326,List1B,white,man,,,,null,,,,
null,"<img src=""stim_listB/fight6.gif""</stim_listB>",,html-keyboard-response,63,207295,0.0-13.0-1.3,76326,List1B,white,man,,,,null,,,,
null,are fighting each other,,html-keyboard-response,64,209300,0.0-13.0-2.3,76326,List1B,white,man,,,,null,,,,
6696,,,survey-text,65,215997,0.0-13.0-3.3,76326,List1B,white,man,,,,,"{""Q0"":""fred is fighting luke""}","<img src=""stim_listB/fight6.gif""</stim_listB>",are fighting each other,
null,"<div style=""font-size:60px;"">+</div>",,html-keyboard-response,66,216501,0.0-13.0-0.4,76326,List1B,white,man,,,,null,,,,
null,"<img src=""stim_listB/fight4.gif""</stim_listB>",,html-keyboard-response,67,218503,0.0-13.0-1.4,76326,List1B,white,man,,,,null,,,,
null,are fighting each other,,html-keyboard-response,68,220508,0.0-13.0-2.4,76326,List1B,white,man,,,,null,,,,
8735,,,survey-text,69,229244,0.0-13.0-3.4,76326,List1B,white,man,,,,,"{""Q0"":""luke is fighting ruth""}","<img src=""stim_listB/fight4.gif""</stim_listB>",are fighting each other,
null,"<div style=""font-size:60px;"">+</div>",,html-keyboard-response,70,229746,0.0-13.0-0.5,76326,List1B,white,man,,,,null,,,,
null,"<img src=""stim_listB/hug5.gif""</stim_listB>",,html-keyboard-response,71,231752,0.0-13.0-1.5,76326,List1B,white,man,,,,null,,,,
null,is hugging,,html-keyboard-response,72,233754,0.0-13.0-2.5,76326,List1B,white,man,,,,null,,,,
4991,,,survey-text,73,238746,0.0-13.0-3.5,76326,List1B,white,man,,,,,"{""Q0"":""fred is hugging luke""}","<img src=""stim_listB/hug5.gif""</stim_listB>",is hugging,
null,"<div style=""font-size:60px;"">+</div>",,html-keyboard-response,74,239246,0.0-13.0-0.6,76326,List1B,white,man,,,,null,,,,
null,"<img src=""stim_listB/marry4.gif""</stim_listB>",,html-keyboard-response,75,241262,0.0-13.0-1.6,76326,List1B,white,man,,,,null,,,,
null,are marrying each other,,html-keyboard-response,76,243264,0.0-13.0-2.6,76326,List1B,white,man,,,,null,,,,
5873,,,survey-text,77,249137,0.0-13.0-3.6,76326,List1B,white,man,,,,,"{""Q0"":""luke is marrying jane""}","<img src=""stim_listB/marry4.gif""</stim_listB>",are marrying each other,
null,"<div style=""font-size:60px;"">+</div>",,html-keyboard-response,78,249638,0.0-13.0-0.7,76326,List1B,white,man,,,,null,,,,
null,"<img src=""stim_listB/shout3.gif""</stim_listB>",,html-keyboard-response,79,251642,0.0-13.0-1.7,76326,List1B,white,man,,,,null,,,,
null,is shouting at,,html-keyboard-response,80,253653,0.0-13.0-2.7,76326,List1B,white,man,,,,null,,,,
11522,,,survey-text,81,265176,0.0-13.0-3.7,76326,List1B,white,man,,,,,"{""Q0"":""ruth is shouting at luke""}","<img src=""stim_listB/shout3.gif""</stim_listB>",is shouting at,
null,"<div style=""font-size:60px;"">+</div>",,html-keyboard-response,82,265686,0.0-13.0-0.8,76326,List1B,white,man,,,,null,,,,
null,"<img src=""stim_listB/hug6.gif""</stim_listB>",,html-keyboard-response,83,267688,0.0-13.0-1.8,76326,List1B,white,man,,,,null,,,,
null,are hugging each other,,html-keyboard-response,84,269702,0.0-13.0-2.8,76326,List1B,white,man,,,,null,,,,
7120,,,survey-text,85,276824,0.0-13.0-3.8,76326,List1B,white,man,,,,,"{""Q0"":""dave is hugging mike""}","<img src=""stim_listB/hug6.gif""</stim_listB>",are hugging each other,
null,"<div style=""font-size:60px;"">+</div>",,html-keyboard-response,86,277326,0.0-13.0-0.9,76326,List1B,white,man,,,,null,,,,
null,"<img src=""stim_listB/hug2.gif""</stim_listB>",,html-keyboard-response,87,279327,0.0-13.0-1.9,76326,List1B,white,man,,,,null,,,,
null,are hugging each other,,html-keyboard-response,88,281341,0.0-13.0-2.9,76326,List1B,white,man,,,,null,,,,
5897,,,survey-text,89,287239,0.0-13.0-3.9,76326,List1B,white,man,,,,,"{""Q0"":""mike is hugging kate""}","<img src=""stim_listB/hug2.gif""</stim_listB>",are hugging each other,
null,"<div style=""font-size:60px;"">+</div>",,html-keyboard-response,90,287742,0.0-13.0-0.10,76326,List1B,white,man,,,,null,,,,
null,"<img src=""stim_listB/marry3.gif""</stim_listB>",,html-keyboard-response,91,289748,0.0-13.0-1.10,76326,List1B,white,man,,,,null,,,,
null,is marrying,,html-keyboard-response,92,291753,0.0-13.0-2.10,76326,List1B,white,man,,,,null,,,,
8141,,,survey-text,93,299894,0.0-13.0-3.10,76326,List1B,white,man,,,,,"{""Q0"":""dave is marrying ruth""}","<img src=""stim_listB/marry3.gif""</stim_listB>",is marrying,
null,"<div style=""font-size:60px;"">+</div>",,html-keyboard-response,94,300397,0.0-13.0-0.11,76326,List1B,white,man,,,,null,,,,
null,"<img src=""stim_listB/dance7.gif""</stim_listB>",,html-keyboard-response,95,302398,0.0-13.0-1.11,76326,List1B,white,man,,,,null,,,,
null,is dancing with,,html-keyboard-response,96,304406,0.0-13.0-2.11,76326,List1B,white,man,,,,null,,,,
11399,,,survey-text,97,315805,0.0-13.0-3.11,76326,List1B,white,man,,,,,"{""Q0"":""kate is dancing with jane""}","<img src=""stim_listB/dance7.gif""</stim_listB>",is dancing with,
null,"<div style=""font-size:60px;"">+</div>",,html-keyboard-response,98,316314,0.0-13.0-0.12,76326,List1B,white,man,,,,null,,,,
null,"<img src=""stim_listB/shout8.gif""</stim_listB>",,html-keyboard-response,99,318316,0.0-13.0-1.12,76326,List1B,white,man,,,,null,,,,
null,are shouting at each other,,html-keyboard-response,100,320319,0.0-13.0-2.12,76326,List1B,white,man,,,,null,,,,
9541,,,survey-text,101,329861,0.0-13.0-3.12,76326,List1B,white,man,,,,,"{""Q0"":""kate is shouting at jane""}","<img src=""stim_listB/shout8.gif""</stim_listB>",are shouting at each other,
null,"<div style=""font-size:60px;"">+</div>",,html-keyboard-response,102,330371,0.0-13.0-0.13,76326,List1B,white,man,,,,null,,,,
null,"<img src=""stim_listB/kiss5.gif""</stim_listB>",,html-keyboard-response,103,332373,0.0-13.0-1.13,76326,List1B,white,man,,,,null,,,,
null,is kissing,,html-keyboard-response,104,334378,0.0-13.0-2.13,76326,List1B,white,man,,,,null,,,,
4410,,,survey-text,105,338788,0.0-13.0-3.13,76326,List1B,white,man,,,,,"{""Q0"":""fred is kissing luke""}","<img src=""stim_listB/kiss5.gif""</stim_listB>",is kissing,
null,"<div style=""font-size:60px;"">+</div>",,html-keyboard-response,106,339292,0.0-13.0-0.14,76326,List1B,white,man,,,,null,,,,
null,"<img src=""stim_listB/talk1.gif""</stim_listB>",,html-keyboard-response,107,341293,0.0-13.0-1.14,76326,List1B,white,man,,,,null,,,,
null,is talking to,,html-keyboard-response,108,343294,0.0-13.0-2.14,76326,List1B,white,man,,,,null,,,,
4532,,,survey-text,109,347827,0.0-13.0-3.14,76326,List1B,white,man,,,,,"{""Q0"":""kate is talking to fred""}","<img src=""stim_listB/talk1.gif""</stim_listB>",is talking to,
null,"<div style=""font-size:60px;"">+</div>",,html-keyboard-response,110,348328,0.0-13.0-0.15,76326,List1B,white,man,,,,null,,,,
null,"<img src=""stim_listB/dance8.gif""</stim_listB>",,html-keyboard-response,111,350329,0.0-13.0-1.15,76326,List1B,white,man,,,,null,,,,
null,are dancing with each other,,html-keyboard-response,112,352330,0.0-13.0-2.15,76326,List1B,white,man,,,,null,,,,
7924,,,survey-text,113,360256,0.0-13.0-3.15,76326,List1B,white,man,,,,,"{""Q0"":""kate is dancing with ruth""}","<img src=""stim_listB/dance8.gif""</stim_listB>",are dancing with each other,
null,"<div style=""font-size:60px;"">+</div>",,html-keyboard-response,114,360764,0.0-13.0-0.16,76326,List1B,white,man,,,,null,,,,
null,"<img src=""stim_listB/shout1.gif""</stim_listB>",,html-keyboard-response,115,362772,0.0-13.0-1.16,76326,List1B,white,man,,,,null,,,,
null,is shouting at,,html-keyboard-response,116,364782,0.0-13.0-2.16,76326,List1B,white,man,,,,null,,,,
5968,,,survey-text,117,370751,0.0-13.0-3.16,76326,List1B,white,man,,,,,"{""Q0"":""fred is shouting at beth""}","<img src=""stim_listB/shout1.gif""</stim_listB>",is shouting at,
null,"<div style=""font-size:60px;"">+</div>",,html-keyboard-response,118,371261,0.0-13.0-0.17,76326,List1B,white,man,,,,null,,,,
null,"<img src=""stim_listB/argue7.gif""</stim_listB>",,html-keyboard-response,119,373277,0.0-13.0-1.17,76326,List1B,white,man,,,,null,,,,
null,is arguing with,,html-keyboard-response,120,375278,0.0-13.0-2.17,76326,List1B,white,man,,,,null,,,,
6359,,,survey-text,121,381639,0.0-13.0-3.17,76326,List1B,white,man,,,,,"{""Q0"":""kate is arguing with ruth""}","<img src=""stim_listB/argue7.gif""</stim_listB>",is arguing with,
null,"<div style=""font-size:60px;"">+</div>",,html-keyboard-response,122,382142,0.0-13.0-0.18,76326,List1B,white,man,,,,null,,,,
null,"<img src=""stim_listB/meet2.gif""</stim_listB>",,html-keyboard-response,123,384155,0.0-13.0-1.18,76326,List1B,white,man,,,,null,,,,
null,are meeting each other,,html-keyboard-response,124,386156,0.0-13.0-2.18,76326,List1B,white,man,,,,null,,,,
7082,,,survey-text,125,393238,0.0-13.0-3.18,76326,List1B,white,man,,,,,"{""Q0"":""fred is meeting beth""}","<img src=""stim_listB/meet2.gif""</stim_listB>",are meeting each other,
null,"<div style=""font-size:60px;"">+</div>",,html-keyboard-response,126,393753,0.0-13.0-0.19,76326,List1B,white,man,,,,null,,,,
null,"<img src=""stim_listB/hug1.gif""</stim_listB>",,html-keyboard-response,127,395762,0.0-13.0-1.19,76326,List1B,white,man,,,,null,,,,
null,is hugging,,html-keyboard-response,128,397763,0.0-13.0-2.19,76326,List1B,white,man,,,,null,,,,
4130,,,survey-text,129,401894,0.0-13.0-3.19,76326,List1B,white,man,,,,,"{""Q0"":""fred is hugging beth""}","<img src=""stim_listB/hug1.gif""</stim_listB>",is hugging,
2934,"<img src='img/portrait_matrix_list1.JPG' style='width:900px;height:500px;''></img><p>If you have memorised all the portraits and names and are ready to start, press Continue.</p><p><strong>Please note: Your memory of these faces will be tested 4 times during this experiment.</strong></p>",0,html-button-response,130,404830,0.0-14.0-0.0,76326,List1B,white,man,,,,,,,,
3493,"<img src=""portrait/WM1.jpg""style=""width:400px;height:400px;""></img>",6,html-button-response,131,409334,0.0-14.0-1.0,76326,List1B,white,man,,TRUE,6,,,,,
null,CORRECT,,html-keyboard-response,132,410848,0.0-14.0-2.0-0.0,76326,List1B,white,man,,,,null,,,,
2476,"<img src=""portrait/BW1.jpg""style=""width:400px;height:400px;""></img>",0,html-button-response,133,413325,0.0-14.0-4.0,76326,List1B,white,man,,TRUE,0,,,,,
null,CORRECT,,html-keyboard-response,134,414855,0.0-14.0-5.0-0.0,76326,List1B,white,man,,,,null,,,,
1305,"<img src=""portrait/WW2.jpg""style=""width:400px;height:400px;""></img>",3,html-button-response,135,416161,0.0-14.0-7.0,76326,List1B,white,man,,TRUE,3,,,,,
null,CORRECT,,html-keyboard-response,136,417670,0.0-14.0-8.0-0.0,76326,List1B,white,man,,,,null,,,,
1562,"<img src=""portrait/BW2.jpg""style=""width:400px;height:400px;""></img>",2,html-button-response,137,419233,0.0-14.0-10.0,76326,List1B,white,man,,TRUE,2,,,,,
null,CORRECT,,html-keyboard-response,138,420741,0.0-14.0-11.0-0.0,76326,List1B,white,man,,,,null,,,,
6226,"<img src=""portrait/WM2.jpg""style=""width:400px;height:400px;""></img>",7,html-button-response,139,426969,0.0-14.0-13.0,76326,List1B,white,man,,TRUE,7,,,,,
null,CORRECT,,html-keyboard-response,140,428487,0.0-14.0-14.0-0.0,76326,List1B,white,man,,,,null,,,,
2425,"<img src=""portrait/BM2.jpg""style=""width:400px;height:400px;""></img>",5,html-button-response,141,430912,0.0-14.0-16.0,76326,List1B,white,man,,TRUE,5,,,,,
null,CORRECT,,html-keyboard-response,142,432429,0.0-14.0-17.0-0.0,76326,List1B,white,man,,,,null,,,,
3073,"<img src=""portrait/WW1.jpg""style=""width:400px;height:400px;""></img>",1,html-button-response,143,435504,0.0-14.0-19.0,76326,List1B,white,man,,TRUE,1,,,,,
null,CORRECT,,html-keyboard-response,144,437020,0.0-14.0-20.0-0.0,76326,List1B,white,man,,,,null,,,,
3331,"<img src=""portrait/BM1.jpg""style=""width:400px;height:400px;""></img>",4,html-button-response,145,440352,0.0-14.0-22.0,76326,List1B,white,man,,TRUE,4,,,,,
null,CORRECT,,html-keyboard-response,146,441860,0.0-14.0-23.0-0.0,76326,List1B,white,man,,,,null,,,,
979,<p>You got 8 out of 8 right first time. Press Continue.</p>,0,html-button-response,147,442840,0.0-14.0-25.0,76326,List1B,white,man,,,,,,,,
null,"<div style=""font-size:60px;"">+</div>",,html-keyboard-response,148,444343,0.0-15.0-0.0,76326,List1B,white,man,,,,null,,,,
null,"<img src=""stim_listB/shout6.gif""</stim_listB>",,html-keyboard-response,149,446344,0.0-15.0-1.0,76326,List1B,white,man,,,,null,,,,
null,are shouting at each other,,html-keyboard-response,150,448355,0.0-15.0-2.0,76326,List1B,white,man,,,,null,,,,
5564,,,survey-text,151,453919,0.0-15.0-3.0,76326,List1B,white,man,,,,,"{""Q0"":""dave is shouting at mike""}","<img src=""stim_listB/shout6.gif""</stim_listB>",are shouting at each other,
null,"<div style=""font-size:60px;"">+</div>",,html-keyboard-response,152,454434,0.0-15.0-0.1,76326,List1B,white,man,,,,null,,,,
null,"<img src=""stim_listB/fight3.gif""</stim_listB>",,html-keyboard-response,153,456440,0.0-15.0-1.1,76326,List1B,white,man,,,,null,,,,
null,is fighting,,html-keyboard-response,154,458455,0.0-15.0-2.1,76326,List1B,white,man,,,,null,,,,
4503,,,survey-text,155,462958,0.0-15.0-3.1,76326,List1B,white,man,,,,,"{""Q0"":""jane is fighting dave""}","<img src=""stim_listB/fight3.gif""</stim_listB>",is fighting,
null,"<div style=""font-size:60px;"">+</div>",,html-keyboard-response,156,463460,0.0-15.0-0.2,76326,List1B,white,man,,,,null,,,,
null,"<img src=""stim_listB/fight7.gif""</stim_listB>",,html-keyboard-response,157,465462,0.0-15.0-1.2,76326,List1B,white,man,,,,null,,,,
null,is fighting,,html-keyboard-response,158,467463,0.0-15.0-2.2,76326,List1B,white,man,,,,null,,,,
4799,,,survey-text,159,472262,0.0-15.0-3.2,76326,List1B,white,man,,,,,"{""Q0"":""jane is fighting kate""}","<img src=""stim_listB/fight7.gif""</stim_listB>",is fighting,
null,"<div style=""font-size:60px;"">+</div>",,html-keyboard-response,160,472763,0.0-15.0-0.3,76326,List1B,white,man,,,,null,,,,
null,"<img src=""stim_listB/fight5.gif""</stim_listB>",,html-keyboard-response,161,474744,0.0-15.0-1.3,76326,List1B,white,man,,,,null,,,,
null,is fighting,,html-keyboard-response,162,476745,0.0-15.0-2.3,76326,List1B,white,man,,,,null,,,,
4190,,,survey-text,163,480935,0.0-15.0-3.3,76326,List1B,white,man,,,,,"{""Q0"":""dave is fighting mike""}","<img src=""stim_listB/fight5.gif""</stim_listB>",is fighting,
null,"<div style=""font-size:60px;"">+</div>",,html-keyboard-response,164,481438,0.0-15.0-0.4,76326,List1B,white,man,,,,null,,,,
null,"<img src=""stim_listB/marry2.gif""</stim_listB>",,html-keyboard-response,165,483446,0.0-15.0-1.4,76326,List1B,white,man,,,,null,,,,
null,are marrying each other,,html-keyboard-response,166,485454,0.0-15.0-2.4,76326,List1B,white,man,,,,null,,,,
5976,,,survey-text,167,491431,0.0-15.0-3.4,76326,List1B,white,man,,,,,"{""Q0"":""fred is marrying kate""}","<img src=""stim_listB/marry2.gif""</stim_listB>",are marrying each other,
null,"<div style=""font-size:60px;"">+</div>",,html-keyboard-response,168,491942,0.0-15.0-0.5,76326,List1B,white,man,,,,null,,,,
null,"<img src=""stim_listB/dance4.gif""</stim_listB>",,html-keyboard-response,169,493944,0.0-15.0-1.5,76326,List1B,white,man,,,,null,,,,
null,are dancing with each other,,html-keyboard-response,170,495950,0.0-15.0-2.5,76326,List1B,white,man,,,,null,,,,
12150,,,survey-text,171,508102,0.0-15.0-3.5,76326,List1B,white,man,,,,,"{""Q0"":""dave and ruth are dancing""}","<img src=""stim_listB/dance4.gif""</stim_listB>",are dancing with each other,
null,"<div style=""font-size:60px;"">+</div>",,html-keyboard-response,172,508616,0.0-15.0-0.6,76326,List1B,white,man,,,,null,,,,
null,"<img src=""stim_listB/argue2.gif""</stim_listB>",,html-keyboard-response,173,510617,0.0-15.0-1.6,76326,List1B,white,man,,,,null,,,,
null,are arguing with each other,,html-keyboard-response,174,512618,0.0-15.0-2.6,76326,List1B,white,man,,,,null,,,,
5499,,,survey-text,175,518118,0.0-15.0-3.6,76326,List1B,white,man,,,,,"{""Q0"":""kate is arguing with fred""}","<img src=""stim_listB/argue2.gif""</stim_listB>",are arguing with each other,
null,"<div style=""font-size:60px;"">+</div>",,html-keyboard-response,176,518619,0.0-15.0-0.7,76326,List1B,white,man,,,,null,,,,
null,"<img src=""stim_listB/kiss1.gif""</stim_listB>",,html-keyboard-response,177,520629,0.0-15.0-1.7,76326,List1B,white,man,,,,null,,,,
null,is kissing,,html-keyboard-response,178,522637,0.0-15.0-2.7,76326,List1B,white,man,,,,null,,,,
5743,,,survey-text,179,528381,0.0-15.0-3.7,76326,List1B,white,man,,,,,"{""Q0"":""beth is kissing fred""}","<img src=""stim_listB/kiss1.gif""</stim_listB>",is kissing,
null,"<div style=""font-size:60px;"">+</div>",,html-keyboard-response,180,528891,0.0-15.0-0.8,76326,List1B,white,man,,,,null,,,,
null,"<img src=""stim_listB/meet8.gif""</stim_listB>",,html-keyboard-response,181,530896,0.0-15.0-1.8,76326,List1B,white,man,,,,null,,,,
null,are meeting each other,,html-keyboard-response,182,532898,0.0-15.0-2.8,76326,List1B,white,man,,,,null,,,,
6119,,,survey-text,183,539020,0.0-15.0-3.8,76326,List1B,white,man,,,,,"{""Q0"":""ruth is meeting kate""}","<img src=""stim_listB/meet8.gif""</stim_listB>",are meeting each other,
null,"<div style=""font-size:60px;"">+</div>",,html-keyboard-response,184,539521,0.0-15.0-0.9,76326,List1B,white,man,,,,null,,,,
null,"<img src=""stim_listB/touch1.gif""</stim_listB>",,html-keyboard-response,185,541908,0.0-15.0-1.9,76326,List1B,white,man,,,,null,,,,
null,is touching,,html-keyboard-response,186,543910,0.0-15.0-2.9,76326,List1B,white,man,,,,null,,,,
10661,,,survey-text,187,554571,0.0-15.0-3.9,76326,List1B,white,man,,,,,"{""Q0"":""missed it""}","<img src=""stim_listB/touch1.gif""</stim_listB>",is touching,
null,"<div style=""font-size:60px;"">+</div>",,html-keyboard-response,188,555072,0.0-15.0-0.10,76326,List1B,white,man,,,,null,,,,
null,"<img src=""stim_listB/kiss2.gif""</stim_listB>",,html-keyboard-response,189,557073,0.0-15.0-1.10,76326,List1B,white,man,,,,null,,,,
null,are kissing each other,,html-keyboard-response,190,559074,0.0-15.0-2.10,76326,List1B,white,man,,,,null,,,,
10168,,,survey-text,191,569242,0.0-15.0-3.10,76326,List1B,white,man,,,,,"{""Q0"":""kate is kissing mike""}","<img src=""stim_listB/kiss2.gif""</stim_listB>",are kissing each other,
null,"<div style=""font-size:60px;"">+</div>",,html-keyboard-response,192,569753,0.0-15.0-0.11,76326,List1B,white,man,,,,null,,,,
null,"<img src=""stim_listB/meet6.gif""</stim_listB>",,html-keyboard-response,193,571761,0.0-15.0-1.11,76326,List1B,white,man,,,,null,,,,
null,are meeting each other,,html-keyboard-response,194,573762,0.0-15.0-2.11,76326,List1B,white,man,,,,null,,,,
4759,,,survey-text,195,578522,0.0-15.0-3.11,76326,List1B,white,man,,,,,"{""Q0"":""fred is meeting luke""}","<img src=""stim_listB/meet6.gif""</stim_listB>",are meeting each other,
null,"<div style=""font-size:60px;"">+</div>",,html-keyboard-response,196,579022,0.0-15.0-0.12,76326,List1B,white,man,,,,null,,,,
null,"<img src=""stim_listB/kiss6.gif""</stim_listB>",,html-keyboard-response,197,581026,0.0-15.0-1.12,76326,List1B,white,man,,,,null,,,,
null,are kissing each other,,html-keyboard-response,198,583904,0.0-15.0-2.12,76326,List1B,white,man,,,,null,,,,
7329,,,survey-text,199,591233,0.0-15.0-3.12,76326,List1B,white,man,,,,,"{""Q0"":""mike is kissing dave""}","<img src=""stim_listB/kiss6.gif""</stim_listB>",are kissing each other,
null,"<div style=""font-size:60px;"">+</div>",,html-keyboard-response,200,591746,0.0-15.0-0.13,76326,List1B,white,man,,,,null,,,,
null,"<img src=""stim_listB/marry6.gif""</stim_listB>",,html-keyboard-response,201,593747,0.0-15.0-1.13,76326,List1B,white,man,,,,null,,,,
null,are marrying each other,,html-keyboard-response,202,595746,0.0-15.0-2.13,76326,List1B,white,man,,,,null,,,,
7708,,,survey-text,203,603455,0.0-15.0-3.13,76326,List1B,white,man,,,,,"{""Q0"":""dave and fred are dancing""}","<img src=""stim_listB/marry6.gif""</stim_listB>",are marrying each other,
null,"<div style=""font-size:60px;"">+</div>",,html-keyboard-response,204,603967,0.0-15.0-0.14,76326,List1B,white,man,,,,null,,,,
null,"<img src=""stim_listB/marry8.gif""</stim_listB>",,html-keyboard-response,205,605968,0.0-15.0-1.14,76326,List1B,white,man,,,,null,,,,
null,are marrying each other,,html-keyboard-response,206,608901,0.0-15.0-2.14,76326,List1B,white,man,,,,null,,,,
9072,,,survey-text,207,617974,0.0-15.0-3.14,76326,List1B,white,man,,,,,"{""Q0"":""jane and kate are marrying""}","<img src=""stim_listB/marry8.gif""</stim_listB>",are marrying each other,
null,"<div style=""font-size:60px;"">+</div>",,html-keyboard-response,208,618475,0.0-15.0-0.15,76326,List1B,white,man,,,,null,,,,
null,"<img src=""stim_listB/meet5.gif""</stim_listB>",,html-keyboard-response,209,620476,0.0-15.0-1.15,76326,List1B,white,man,,,,null,,,,
null,is meeting,,html-keyboard-response,210,622485,0.0-15.0-2.15,76326,List1B,white,man,,,,null,,,,
4143,,,survey-text,211,626629,0.0-15.0-3.15,76326,List1B,white,man,,,,,"{""Q0"":""dave is meeting mike""}","<img src=""stim_listB/meet5.gif""</stim_listB>",is meeting,
null,"<div style=""font-size:60px;"">+</div>",,html-keyboard-response,212,627130,0.0-15.0-0.16,76326,List1B,white,man,,,,null,,,,
null,"<img src=""stim_listB/kiss7.gif""</stim_listB>",,html-keyboard-response,213,629141,0.0-15.0-1.16,76326,List1B,white,man,,,,null,,,,
null,is kissing,,html-keyboard-response,214,631142,0.0-15.0-2.16,76326,List1B,white,man,,,,null,,,,
5309,,,survey-text,215,636453,0.0-15.0-3.16,76326,List1B,white,man,,,,,"{""Q0"":""ruth is kissing kate""}","<img src=""stim_listB/kiss7.gif""</stim_listB>",is kissing,
null,"<div style=""font-size:60px;"">+</div>",,html-keyboard-response,216,636954,0.0-15.0-0.17,76326,List1B,white,man,,,,null,,,,
null,"<img src=""stim_listB/meet1.gif""</stim_listB>",,html-keyboard-response,217,638965,0.0-15.0-1.17,76326,List1B,white,man,,,,null,,,,
null,is meeting,,html-keyboard-response,218,640967,0.0-15.0-2.17,76326,List1B,white,man,,,,null,,,,
6957,,,survey-text,219,647924,0.0-15.0-3.17,76326,List1B,white,man,,,,,"{""Q0"":""kate is meeting mike""}","<img src=""stim_listB/meet1.gif""</stim_listB>",is meeting,
null,"<div style=""font-size:60px;"">+</div>",,html-keyboard-response,220,648438,0.0-15.0-0.18,76326,List1B,white,man,,,,null,,,,
null,"<img src=""stim_listB/argue5.gif""</stim_listB>",,html-keyboard-response,221,650454,0.0-15.0-1.18,76326,List1B,white,man,,,,null,,,,
null,is arguing with,,html-keyboard-response,222,652455,0.0-15.0-2.18,76326,List1B,white,man,,,,null,,,,
4904,,,survey-text,223,657360,0.0-15.0-3.18,76326,List1B,white,man,,,,,"{""Q0"":""mike is aruging with Luke""}","<img src=""stim_listB/argue5.gif""</stim_listB>",is arguing with,
null,"<div style=""font-size:60px;"">+</div>",,html-keyboard-response,224,657870,0.0-15.0-0.19,76326,List1B,white,man,,,,null,,,,
null,"<img src=""stim_listB/dance5.gif""</stim_listB>",,html-keyboard-response,225,659872,0.0-15.0-1.19,76326,List1B,white,man,,,,null,,,,
null,is dancing with,,html-keyboard-response,226,661883,0.0-15.0-2.19,76326,List1B,white,man,,,,null,,,,
7371,,,survey-text,227,669255,0.0-15.0-3.19,76326,List1B,white,man,,,,,"{""Q0"":""fred is dancing with dave""}","<img src=""stim_listB/dance5.gif""</stim_listB>",is dancing with,
2655,"<img src='img/portrait_matrix_list1.JPG' style='width:900px;height:500px;''></img><p>If you have memorised all the portraits and names and are ready to start, press Continue.</p><p><strong>Please note: Your memory of these faces will be tested 4 times during this experiment.</strong></p>",0,html-button-response,228,671911,0.0-16.0-0.0,76326,List1B,white,man,,,,,,,,
3086,"<img src=""portrait/WM1.jpg""style=""width:400px;height:400px;""></img>",6,html-button-response,229,675999,0.0-16.0-1.0,76326,List1B,white,man,,TRUE,6,,,,,
null,CORRECT,,html-keyboard-response,230,677510,0.0-16.0-2.0-0.0,76326,List1B,white,man,,,,null,,,,
1439,"<img src=""portrait/BM1.jpg""style=""width:400px;height:400px;""></img>",4,html-button-response,231,678951,0.0-16.0-4.0,76326,List1B,white,man,,TRUE,4,,,,,
null,CORRECT,,html-keyboard-response,232,680454,0.0-16.0-5.0-0.0,76326,List1B,white,man,,,,null,,,,
1975,"<img src=""portrait/WW1.jpg""style=""width:400px;height:400px;""></img>",1,html-button-response,233,682431,0.0-16.0-7.0,76326,List1B,white,man,,TRUE,1,,,,,
null,CORRECT,,html-keyboard-response,234,683951,0.0-16.0-8.0-0.0,76326,List1B,white,man,,,,null,,,,
1599,"<img src=""portrait/BM2.jpg""style=""width:400px;height:400px;""></img>",5,html-button-response,235,685551,0.0-16.0-10.0,76326,List1B,white,man,,TRUE,5,,,,,
null,CORRECT,,html-keyboard-response,236,687058,0.0-16.0-11.0-0.0,76326,List1B,white,man,,,,null,,,,
2035,"<img src=""portrait/WM2.jpg""style=""width:400px;height:400px;""></img>",7,html-button-response,237,689094,0.0-16.0-13.0,76326,List1B,white,man,,TRUE,7,,,,,
null,CORRECT,,html-keyboard-response,238,690596,0.0-16.0-14.0-0.0,76326,List1B,white,man,,,,null,,,,
3136,"<img src=""portrait/BW1.jpg""style=""width:400px;height:400px;""></img>",0,html-button-response,239,693734,0.0-16.0-16.0,76326,List1B,white,man,,TRUE,0,,,,,
null,CORRECT,,html-keyboard-response,240,695244,0.0-16.0-17.0-0.0,76326,List1B,white,man,,,,null,,,,
2712,"<img src=""portrait/BW2.jpg""style=""width:400px;height:400px;""></img>",2,html-button-response,241,697958,0.0-16.0-19.0,76326,List1B,white,man,,TRUE,2,,,,,
null,CORRECT,,html-keyboard-response,242,699470,0.0-16.0-20.0-0.0,76326,List1B,white,man,,,,null,,,,
1406,"<img src=""portrait/WW2.jpg""style=""width:400px;height:400px;""></img>",3,html-button-response,243,700878,0.0-16.0-22.0,76326,List1B,white,man,,TRUE,3,,,,,
null,CORRECT,,html-keyboard-response,244,702379,0.0-16.0-23.0-0.0,76326,List1B,white,man,,,,null,,,,
1185,<p>You got 8 out of 8 right first time. Press Continue.</p>,0,html-button-response,245,703565,0.0-16.0-25.0,76326,List1B,white,man,,,,,,,,
null,"<div style=""font-size:60px;"">+</div>",,html-keyboard-response,246,705068,0.0-17.0-0.0,76326,List1B,white,man,,,,null,,,,
null,"<img src=""stim_listB/shout2.gif""</stim_listB>",,html-keyboard-response,247,707069,0.0-17.0-1.0,76326,List1B,white,man,,,,null,,,,
null,are shouting at each other,,html-keyboard-response,248,709070,0.0-17.0-2.0,76326,List1B,white,man,,,,null,,,,
5465,,,survey-text,249,714536,0.0-17.0-3.0,76326,List1B,white,man,,,,,"{""Q0"":""mike is shouting at kate""}","<img src=""stim_listB/shout2.gif""</stim_listB>",are shouting at each other,
null,"<div style=""font-size:60px;"">+</div>",,html-keyboard-response,250,715039,0.0-17.0-0.1,76326,List1B,white,man,,,,null,,,,
null,"<img src=""stim_listB/meet7.gif""</stim_listB>",,html-keyboard-response,251,717040,0.0-17.0-1.1,76326,List1B,white,man,,,,null,,,,
null,is meeting,,html-keyboard-response,252,719041,0.0-17.0-2.1,76326,List1B,white,man,,,,null,,,,
4149,,,survey-text,253,723192,0.0-17.0-3.1,76326,List1B,white,man,,,,,"{""Q0"":""jane is meeting kate""}","<img src=""stim_listB/meet7.gif""</stim_listB>",is meeting,
null,"<div style=""font-size:60px;"">+</div>",,html-keyboard-response,254,723703,0.0-17.0-0.2,76326,List1B,white,man,,,,null,,,,
null,"<img src=""stim_listB/touch2.gif""</stim_listB>",,html-keyboard-response,255,725713,0.0-17.0-1.2,76326,List1B,white,man,,,,null,,,,
null,are touching each other,,html-keyboard-response,256,727717,0.0-17.0-2.2,76326,List1B,white,man,,,,null,,,,
4786,,,survey-text,257,732503,0.0-17.0-3.2,76326,List1B,white,man,,,,,"{""Q0"":""fred is touching beth""}","<img src=""stim_listB/touch2.gif""</stim_listB>",are touching each other,
null,"<div style=""font-size:60px;"">+</div>",,html-keyboard-response,258,733008,0.0-17.0-0.3,76326,List1B,white,man,,,,null,,,,
null,"<img src=""stim_listB/marry5.gif""</stim_listB>",,html-keyboard-response,259,735009,0.0-17.0-1.3,76326,List1B,white,man,,,,null,,,,
null,is marrying,,html-keyboard-response,260,737016,0.0-17.0-2.3,76326,List1B,white,man,,,,null,,,,
6454,,,survey-text,261,743471,0.0-17.0-3.3,76326,List1B,white,man,,,,,"{""Q0"":""luke is marrying mike""}","<img src=""stim_listB/marry5.gif""</stim_listB>",is marrying,
null,"<div style=""font-size:60px;"">+</div>",,html-keyboard-response,262,743972,0.0-17.0-0.4,76326,List1B,white,man,,,,null,,,,
null,"<img src=""stim_listB/argue6.gif""</stim_listB>",,html-keyboard-response,263,745984,0.0-17.0-1.4,76326,List1B,white,man,,,,null,,,,
null,are arguing with each other,,html-keyboard-response,264,747985,0.0-17.0-2.4,76326,List1B,white,man,,,,null,,,,
5884,,,survey-text,265,753870,0.0-17.0-3.4,76326,List1B,white,man,,,,,"{""Q0"":""fred is arguging wtih dave""}","<img src=""stim_listB/argue6.gif""</stim_listB>",are arguing with each other,
null,"<div style=""font-size:60px;"">+</div>",,html-keyboard-response,266,754382,0.0-17.0-0.5,76326,List1B,white,man,,,,null,,,,
null,"<img src=""stim_listB/hug4.gif""</stim_listB>",,html-keyboard-response,267,756382,0.0-17.0-1.5,76326,List1B,white,man,,,,null,,,,
null,are hugging each other,,html-keyboard-response,268,758386,0.0-17.0-2.5,76326,List1B,white,man,,,,null,,,,
4506,,,survey-text,269,762894,0.0-17.0-3.5,76326,List1B,white,man,,,,,"{""Q0"":""dave is hugging jane""}","<img src=""stim_listB/hug4.gif""</stim_listB>",are hugging each other,
null,"<div style=""font-size:60px;"">+</div>",,html-keyboard-response,270,763400,0.0-17.0-0.6,76326,List1B,white,man,,,,null,,,,
null,"<img src=""stim_listB/dance6.gif""</stim_listB>",,html-keyboard-response,271,765415,0.0-17.0-1.6,76326,List1B,white,man,,,,null,,,,
null,are dancing with each other,,html-keyboard-response,272,767416,0.0-17.0-2.6,76326,List1B,white,man,,,,null,,,,
6604,,,survey-text,273,774021,0.0-17.0-3.6,76326,List1B,white,man,,,,,"{""Q0"":""luke is dancing with fred""}","<img src=""stim_listB/dance6.gif""</stim_listB>",are dancing with each other,
null,"<div style=""font-size:60px;"">+</div>",,html-keyboard-response,274,774524,0.0-17.0-0.7,76326,List1B,white,man,,,,null,,,,
null,"<img src=""stim_listB/argue4.gif""</stim_listB>",,html-keyboard-response,275,776497,0.0-17.0-1.7,76326,List1B,white,man,,,,null,,,,
null,are arguing with each other,,html-keyboard-response,276,778499,0.0-17.0-2.7,76326,List1B,white,man,,,,null,,,,
9588,,,survey-text,277,788088,0.0-17.0-3.7,76326,List1B,white,man,,,,,"{""Q0"":""jane is arguing with luke""}","<img src=""stim_listB/argue4.gif""</stim_listB>",are arguing with each other,
null,"<div style=""font-size:60px;"">+</div>",,html-keyboard-response,278,788589,0.0-17.0-0.8,76326,List1B,white,man,,,,null,,,,
null,"<img src=""stim_listB/fight2.gif""</stim_listB>",,html-keyboard-response,279,790599,0.0-17.0-1.8,76326,List1B,white,man,,,,null,,,,
null,are fighting each other,,html-keyboard-response,280,792600,0.0-17.0-2.8,76326,List1B,white,man,,,,null,,,,
8135,,,survey-text,281,800735,0.0-17.0-3.8,76326,List1B,white,man,,,,,"{""Q0"":""fred is fighting with beth""}","<img src=""stim_listB/fight2.gif""</stim_listB>",are fighting each other,
null,"<div style=""font-size:60px;"">+</div>",,html-keyboard-response,282,801238,0.0-17.0-0.9,76326,List1B,white,man,,,,null,,,,
null,"<img src=""stim_listB/shout7.gif""</stim_listB>",,html-keyboard-response,283,803247,0.0-17.0-1.9,76326,List1B,white,man,,,,null,,,,
null,is shouting at,,html-keyboard-response,284,805251,0.0-17.0-2.9,76326,List1B,white,man,,,,null,,,,
8723,,,survey-text,285,813974,0.0-17.0-3.9,76326,List1B,white,man,,,,,"{""Q0"":""beth is shouting at ruth""}","<img src=""stim_listB/shout7.gif""</stim_listB>",is shouting at,
null,"<div style=""font-size:60px;"">+</div>",,html-keyboard-response,286,814476,0.0-17.0-0.10,76326,List1B,white,man,,,,null,,,,
null,"<img src=""stim_listB/marry7.gif""</stim_listB>",,html-keyboard-response,287,816477,0.0-17.0-1.10,76326,List1B,white,man,,,,null,,,,
null,is marrying,,html-keyboard-response,288,818479,0.0-17.0-2.10,76326,List1B,white,man,,,,null,,,,
7238,,,survey-text,289,825718,0.0-17.0-3.10,76326,List1B,white,man,,,,,"{""Q0"":""ruth is marrying kate""}","<img src=""stim_listB/marry7.gif""</stim_listB>",is marrying,
null,"<div style=""font-size:60px;"">+</div>",,html-keyboard-response,290,826220,0.0-17.0-0.11,76326,List1B,white,man,,,,null,,,,
null,"<img src=""stim_listB/talk7.gif""</stim_listB>",,html-keyboard-response,291,828232,0.0-17.0-1.11,76326,List1B,white,man,,,,null,,,,
null,is talking to,,html-keyboard-response,292,830234,0.0-17.0-2.11,76326,List1B,white,man,,,,null,,,,
5939,,,survey-text,293,836174,0.0-17.0-3.11,76326,List1B,white,man,,,,,"{""Q0"":""jane is talking to beth""}","<img src=""stim_listB/talk7.gif""</stim_listB>",is talking to,
null,"<div style=""font-size:60px;"">+</div>",,html-keyboard-response,294,836677,0.0-17.0-0.12,76326,List1B,white,man,,,,null,,,,
null,"<img src=""stim_listB/touch8.gif""</stim_listB>",,html-keyboard-response,295,838689,0.0-17.0-1.12,76326,List1B,white,man,,,,null,,,,
null,are touching each other,,html-keyboard-response,296,840693,0.0-17.0-2.12,76326,List1B,white,man,,,,null,,,,
5104,,,survey-text,297,845797,0.0-17.0-3.12,76326,List1B,white,man,,,,,"{""Q0"":""jane is touching ruth""}","<img src=""stim_listB/touch8.gif""</stim_listB>",are touching each other,
null,"<div style=""font-size:60px;"">+</div>",,html-keyboard-response,298,846299,0.0-17.0-0.13,76326,List1B,white,man,,,,null,,,,
null,"<img src=""stim_listB/talk6.gif""</stim_listB>",,html-keyboard-response,299,848300,0.0-17.0-1.13,76326,List1B,white,man,,,,null,,,,
null,are talking to each other,,html-keyboard-response,300,850313,0.0-17.0-2.13,76326,List1B,white,man,,,,null,,,,
6283,,,survey-text,301,856597,0.0-17.0-3.13,76326,List1B,white,man,,,,,"{""Q0"":""luke is talking to mike""}","<img src=""stim_listB/talk6.gif""</stim_listB>",are talking to each other,
null,"<div style=""font-size:60px;"">+</div>",,html-keyboard-response,302,857110,0.0-17.0-0.14,76326,List1B,white,man,,,,null,,,,
null,"<img src=""stim_listB/talk5.gif""</stim_listB>",,html-keyboard-response,303,859125,0.0-17.0-1.14,76326,List1B,white,man,,,,null,,,,
null,is talking to,,html-keyboard-response,304,861126,0.0-17.0-2.14,76326,List1B,white,man,,,,null,,,,
4366,,,survey-text,305,865492,0.0-17.0-3.14,76326,List1B,white,man,,,,,"{""Q0"":""dave is talking to fred""}","<img src=""stim_listB/talk5.gif""</stim_listB>",is talking to,
null,"<div style=""font-size:60px;"">+</div>",,html-keyboard-response,306,865999,0.0-17.0-0.15,76326,List1B,white,man,,,,null,,,,
null,"<img src=""stim_listB/argue3.gif""</stim_listB>",,html-keyboard-response,307,868005,0.0-17.0-1.15,76326,List1B,white,man,,,,null,,,,
null,is arguing with,,html-keyboard-response,308,870006,0.0-17.0-2.15,76326,List1B,white,man,,,,null,,,,
7877,,,survey-text,309,877884,0.0-17.0-3.15,76326,List1B,white,man,,,,,"{""Q0"":""dave is arguing with ruth""}","<img src=""stim_listB/argue3.gif""</stim_listB>",is arguing with,
null,"<div style=""font-size:60px;"">+</div>",,html-keyboard-response,310,878385,0.0-17.0-0.16,76326,List1B,white,man,,,,null,,,,
null,"<img src=""stim_listB/dance3.gif""</stim_listB>",,html-keyboard-response,311,880387,0.0-17.0-1.16,76326,List1B,white,man,,,,null,,,,
null,is dancing with,,html-keyboard-response,312,882392,0.0-17.0-2.16,76326,List1B,white,man,,,,null,,,,
9466,,,survey-text,313,891859,0.0-17.0-3.16,76326,List1B,white,man,,,,,"{""Q0"":""luke is dancing with jane""}","<img src=""stim_listB/dance3.gif""</stim_listB>",is dancing with,
null,"<div style=""font-size:60px;"">+</div>",,html-keyboard-response,314,892375,0.0-17.0-0.17,76326,List1B,white,man,,,,null,,,,
null,"<img src=""stim_listB/meet3.gif""</stim_listB>",,html-keyboard-response,315,894380,0.0-17.0-1.17,76326,List1B,white,man,,,,null,,,,
null,is meeting,,html-keyboard-response,316,896388,0.0-17.0-2.17,76326,List1B,white,man,,,,null,,,,
5332,,,survey-text,317,901720,0.0-17.0-3.17,76326,List1B,white,man,,,,,"{""Q0"":""dave is meeting ruth""}","<img src=""stim_listB/meet3.gif""</stim_listB>",is meeting,
null,"<div style=""font-size:60px;"">+</div>",,html-keyboard-response,318,902235,0.0-17.0-0.18,76326,List1B,white,man,,,,null,,,,
null,"<img src=""stim_listB/kiss8.gif""</stim_listB>",,html-keyboard-response,319,904239,0.0-17.0-1.18,76326,List1B,white,man,,,,null,,,,
null,are kissing each other,,html-keyboard-response,320,906239,0.0-17.0-2.18,76326,List1B,white,man,,,,null,,,,
5143,,,survey-text,321,911384,0.0-17.0-3.18,76326,List1B,white,man,,,,,"{""Q0"":""kate is kissing jane""}","<img src=""stim_listB/kiss8.gif""</stim_listB>",are kissing each other,
null,"<div style=""font-size:60px;"">+</div>",,html-keyboard-response,322,911885,0.0-17.0-0.19,76326,List1B,white,man,,,,null,,,,
null,"<img src=""stim_listB/talk3.gif""</stim_listB>",,html-keyboard-response,323,913886,0.0-17.0-1.19,76326,List1B,white,man,,,,null,,,,
null,is talking to,,html-keyboard-response,324,915891,0.0-17.0-2.19,76326,List1B,white,man,,,,null,,,,
11331,,,survey-text,325,927223,0.0-17.0-3.19,76326,List1B,white,man,,,,,"{""Q0"":""jane is talking to luke""}","<img src=""stim_listB/talk3.gif""</stim_listB>",is talking to,
1431,"<img src='img/portrait_matrix_list1.JPG' style='width:900px;height:500px;''></img><p>If you have memorised all the portraits and names and are ready to start, press Continue.</p><p><strong>Please note: Your memory of these faces will be tested 4 times during this experiment.</strong></p>",0,html-button-response,326,928655,0.0-18.0-0.0,76326,List1B,white,man,,,,,,,,
934,"<img src=""portrait/BW2.jpg""style=""width:400px;height:400px;""></img>",2,html-button-response,327,930591,0.0-18.0-1.0,76326,List1B,white,man,,TRUE,2,,,,,
null,CORRECT,,html-keyboard-response,328,932099,0.0-18.0-2.0-0.0,76326,List1B,white,man,,,,null,,,,
1625,"<img src=""portrait/BM2.jpg""style=""width:400px;height:400px;""></img>",5,html-button-response,329,933727,0.0-18.0-4.0,76326,List1B,white,man,,TRUE,5,,,,,
null,CORRECT,,html-keyboard-response,330,935229,0.0-18.0-5.0-0.0,76326,List1B,white,man,,,,null,,,,
3161,"<img src=""portrait/WM1.jpg""style=""width:400px;height:400px;""></img>",6,html-button-response,331,938391,0.0-18.0-7.0,76326,List1B,white,man,,TRUE,6,,,,,
null,CORRECT,,html-keyboard-response,332,939899,0.0-18.0-8.0-0.0,76326,List1B,white,man,,,,null,,,,
3290,"<img src=""portrait/BM1.jpg""style=""width:400px;height:400px;""></img>",4,html-button-response,333,943190,0.0-18.0-10.0,76326,List1B,white,man,,TRUE,4,,,,,
null,CORRECT,,html-keyboard-response,334,944714,0.0-18.0-11.0-0.0,76326,List1B,white,man,,,,null,,,,
3218,"<img src=""portrait/WM2.jpg""style=""width:400px;height:400px;""></img>",7,html-button-response,335,947934,0.0-18.0-13.0,76326,List1B,white,man,,TRUE,7,,,,,
null,CORRECT,,html-keyboard-response,336,949436,0.0-18.0-14.0-0.0,76326,List1B,white,man,,,,null,,,,
3112,"<img src=""portrait/BW1.jpg""style=""width:400px;height:400px;""></img>",0,html-button-response,337,952550,0.0-18.0-16.0,76326,List1B,white,man,,TRUE,0,,,,,
null,CORRECT,,html-keyboard-response,338,954066,0.0-18.0-17.0-0.0,76326,List1B,white,man,,,,null,,,,
3619,"<img src=""portrait/WW1.jpg""style=""width:400px;height:400px;""></img>",1,html-button-response,339,957686,0.0-18.0-19.0,76326,List1B,white,man,,TRUE,1,,,,,
null,CORRECT,,html-keyboard-response,340,959201,0.0-18.0-20.0-0.0,76326,List1B,white,man,,,,null,,,,
1251,"<img src=""portrait/WW2.jpg""style=""width:400px;height:400px;""></img>",3,html-button-response,341,960454,0.0-18.0-22.0,76326,List1B,white,man,,TRUE,3,,,,,
null,CORRECT,,html-keyboard-response,342,961975,0.0-18.0-23.0-0.0,76326,List1B,white,man,,,,null,,,,
965,<p>You got 8 out of 8 right first time. Press Continue.</p>,0,html-button-response,343,962942,0.0-18.0-25.0,76326,List1B,white,man,,,,,,,,
null,"<div style=""font-size:60px;"">+</div>",,html-keyboard-response,344,964457,0.0-19.0-0.0,76326,List1B,white,man,,,,null,,,,
null,"<img src=""stim_listB/dance2.gif""</stim_listB>",,html-keyboard-response,345,966460,0.0-19.0-1.0,76326,List1B,white,man,,,,null,,,,
null,are dancing with each other,,html-keyboard-response,346,968461,0.0-19.0-2.0,76326,List1B,white,man,,,,null,,,,
6768,,,survey-text,347,975229,0.0-19.0-3.0,76326,List1B,white,man,,,,,"{""Q0"":""ruth is dancing with mike""}","<img src=""stim_listB/dance2.gif""</stim_listB>",are dancing with each other,
null,"<div style=""font-size:60px;"">+</div>",,html-keyboard-response,348,975730,0.0-19.0-0.1,76326,List1B,white,man,,,,null,,,,
null,"<img src=""stim_listB/touch6.gif""</stim_listB>",,html-keyboard-response,349,977738,0.0-19.0-1.1,76326,List1B,white,man,,,,null,,,,
null,are touching each other,,html-keyboard-response,350,979739,0.0-19.0-2.1,76326,List1B,white,man,,,,null,,,,
4424,,,survey-text,351,984165,0.0-19.0-3.1,76326,List1B,white,man,,,,,"{""Q0"":""luke is touching fred""}","<img src=""stim_listB/touch6.gif""</stim_listB>",are touching each other,
null,"<div style=""font-size:60px;"">+</div>",,html-keyboard-response,352,984680,0.0-19.0-0.2,76326,List1B,white,man,,,,null,,,,
null,"<img src=""stim_listB/fight1.gif""</stim_listB>",,html-keyboard-response,353,986691,0.0-19.0-1.2,76326,List1B,white,man,,,,null,,,,
null,is fighting,,html-keyboard-response,354,988692,0.0-19.0-2.2,76326,List1B,white,man,,,,null,,,,
4815,,,survey-text,355,993508,0.0-19.0-3.2,76326,List1B,white,man,,,,,"{""Q0"":""kate is fighting mike""}","<img src=""stim_listB/fight1.gif""</stim_listB>",is fighting,
null,"<div style=""font-size:60px;"">+</div>",,html-keyboard-response,356,994014,0.0-19.0-0.3,76326,List1B,white,man,,,,null,,,,
null,"<img src=""stim_listB/fight8.gif""</stim_listB>",,html-keyboard-response,357,996030,0.0-19.0-1.3,76326,List1B,white,man,,,,null,,,,
null,are fighting each other,,html-keyboard-response,358,998030,0.0-19.0-2.3,76326,List1B,white,man,,,,null,,,,
5492,,,survey-text,359,1003524,0.0-19.0-3.3,76326,List1B,white,man,,,,,"{""Q0"":""beth is fighting jane""}","<img src=""stim_listB/fight8.gif""</stim_listB>",are fighting each other,
null,"<div style=""font-size:60px;"">+</div>",,html-keyboard-response,360,1004029,0.0-19.0-0.4,76326,List1B,white,man,,,,null,,,,
null,"<img src=""stim_listB/kiss4.gif""</stim_listB>",,html-keyboard-response,361,1006042,0.0-19.0-1.4,76326,List1B,white,man,,,,null,,,,
null,are kissing each other,,html-keyboard-response,362,1008043,0.0-19.0-2.4,76326,List1B,white,man,,,,null,,,,
6168,,,survey-text,363,1014211,0.0-19.0-3.4,76326,List1B,white,man,,,,,"{""Q0"":""dave is kissing jane""}","<img src=""stim_listB/kiss4.gif""</stim_listB>",are kissing each other,
null,"<div style=""font-size:60px;"">+</div>",,html-keyboard-response,364,1014713,0.0-19.0-0.5,76326,List1B,white,man,,,,null,,,,
null,"<img src=""stim_listB/talk8.gif""</stim_listB>",,html-keyboard-response,365,1016698,0.0-19.0-1.5,76326,List1B,white,man,,,,null,,,,
null,are talking to each other,,html-keyboard-response,366,1018700,0.0-19.0-2.5,76326,List1B,white,man,,,,null,,,,
7553,,,survey-text,367,1026254,0.0-19.0-3.5,76326,List1B,white,man,,,,,"{""Q0"":""kate is talking to ruth""}","<img src=""stim_listB/talk8.gif""</stim_listB>",are talking to each other,
null,"<div style=""font-size:60px;"">+</div>",,html-keyboard-response,368,1026766,0.0-19.0-0.6,76326,List1B,white,man,,,,null,,,,
null,"<img src=""stim_listB/hug3.gif""</stim_listB>",,html-keyboard-response,369,1028774,0.0-19.0-1.6,76326,List1B,white,man,,,,null,,,,
null,is hugging,,html-keyboard-response,370,1030775,0.0-19.0-2.6,76326,List1B,white,man,,,,null,,,,
6789,,,survey-text,371,1037565,0.0-19.0-3.6,76326,List1B,white,man,,,,,"{""Q0"":""ruth is hugging luke""}","<img src=""stim_listB/hug3.gif""</stim_listB>",is hugging,
null,"<div style=""font-size:60px;"">+</div>",,html-keyboard-response,372,1038076,0.0-19.0-0.7,76326,List1B,white,man,,,,null,,,,
null,"<img src=""stim_listB/marry1.gif""</stim_listB>",,html-keyboard-response,373,1040079,0.0-19.0-1.7,76326,List1B,white,man,,,,null,,,,
null,is marrying,,html-keyboard-response,374,1042083,0.0-19.0-2.7,76326,List1B,white,man,,,,null,,,,
5145,,,survey-text,375,1047229,0.0-19.0-3.7,76326,List1B,white,man,,,,,"{""Q0"":""beth is marrying mike""}","<img src=""stim_listB/marry1.gif""</stim_listB>",is marrying,
null,"<div style=""font-size:60px;"">+</div>",,html-keyboard-response,376,1047731,0.0-19.0-0.8,76326,List1B,white,man,,,,null,,,,
null,"<img src=""stim_listB/touch3.gif""</stim_listB>",,html-keyboard-response,377,1049732,0.0-19.0-1.8,76326,List1B,white,man,,,,null,,,,
null,is touching,,html-keyboard-response,378,1051740,0.0-19.0-2.8,76326,List1B,white,man,,,,null,,,,
3783,,,survey-text,379,1055524,0.0-19.0-3.8,76326,List1B,white,man,,,,,"{""Q0"":""dave is touching jane""}","<img src=""stim_listB/touch3.gif""</stim_listB>",is touching,
null,"<div style=""font-size:60px;"">+</div>",,html-keyboard-response,380,1056032,0.0-19.0-0.9,76326,List1B,white,man,,,,null,,,,
null,"<img src=""stim_listB/dance1.gif""</stim_listB>",,html-keyboard-response,381,1058033,0.0-19.0-1.9,76326,List1B,white,man,,,,null,,,,
null,is dancing with,,html-keyboard-response,382,1060034,0.0-19.0-2.9,76326,List1B,white,man,,,,null,,,,
6113,,,survey-text,383,1066148,0.0-19.0-3.9,76326,List1B,white,man,,,,,"{""Q0"":""fred is dancing with i forget""}","<img src=""stim_listB/dance1.gif""</stim_listB>",is dancing with,
null,"<div style=""font-size:60px;"">+</div>",,html-keyboard-response,384,1066654,0.0-19.0-0.10,76326,List1B,white,man,,,,null,,,,
null,"<img src=""stim_listB/kiss3.gif""</stim_listB>",,html-keyboard-response,385,1068656,0.0-19.0-1.10,76326,List1B,white,man,,,,null,,,,
null,is kissing,,html-keyboard-response,386,1070657,0.0-19.0-2.10,76326,List1B,white,man,,,,null,,,,
7087,,,survey-text,387,1077745,0.0-19.0-3.10,76326,List1B,white,man,,,,,"{""Q0"":""ruth is kissing luke""}","<img src=""stim_listB/kiss3.gif""</stim_listB>",is kissing,
null,"<div style=""font-size:60px;"">+</div>",,html-keyboard-response,388,1078247,0.0-19.0-0.11,76326,List1B,white,man,,,,null,,,,
null,"<img src=""stim_listB/touch4.gif""</stim_listB>",,html-keyboard-response,389,1080260,0.0-19.0-1.11,76326,List1B,white,man,,,,null,,,,
null,are touching each other,,html-keyboard-response,390,1082261,0.0-19.0-2.11,76326,List1B,white,man,,,,null,,,,
5699,,,survey-text,391,1087961,0.0-19.0-3.11,76326,List1B,white,man,,,,,"{""Q0"":""jane is touching luke""}","<img src=""stim_listB/touch4.gif""</stim_listB>",are touching each other,
null,"<div style=""font-size:60px;"">+</div>",,html-keyboard-response,392,1088476,0.0-19.0-0.12,76326,List1B,white,man,,,,null,,,,
null,"<img src=""stim_listB/shout5.gif""</stim_listB>",,html-keyboard-response,393,1090486,0.0-19.0-1.12,76326,List1B,white,man,,,,null,,,,
null,is shouting at,,html-keyboard-response,394,1092487,0.0-19.0-2.12,76326,List1B,white,man,,,,null,,,,
4081,,,survey-text,395,1096568,0.0-19.0-3.12,76326,List1B,white,man,,,,,"{""Q0"":""fred is shouting at luke""}","<img src=""stim_listB/shout5.gif""</stim_listB>",is shouting at,
null,"<div style=""font-size:60px;"">+</div>",,html-keyboard-response,396,1097071,0.0-19.0-0.13,76326,List1B,white,man,,,,null,,,,
null,"<img src=""stim_listB/argue1.gif""</stim_listB>",,html-keyboard-response,397,1099072,0.0-19.0-1.13,76326,List1B,white,man,,,,null,,,,
null,is arguing with,,html-keyboard-response,398,1101081,0.0-19.0-2.13,76326,List1B,white,man,,,,null,,,,
12285,,,survey-text,399,1113367,0.0-19.0-3.13,76326,List1B,white,man,,,,,"{""Q0"":""beth is arguing with mike""}","<img src=""stim_listB/argue1.gif""</stim_listB>",is arguing with,
null,"<div style=""font-size:60px;"">+</div>",,html-keyboard-response,400,1113875,0.0-19.0-0.14,76326,List1B,white,man,,,,null,,,,
null,"<img src=""stim_listB/shout4.gif""</stim_listB>",,html-keyboard-response,401,1115888,0.0-19.0-1.14,76326,List1B,white,man,,,,null,,,,
null,are shouting at each other,,html-keyboard-response,402,1117889,0.0-19.0-2.14,76326,List1B,white,man,,,,null,,,,
4644,,,survey-text,403,1122535,0.0-19.0-3.14,76326,List1B,white,man,,,,,"{""Q0"":""dave is shouting at jane""}","<img src=""stim_listB/shout4.gif""</stim_listB>",are shouting at each other,
null,"<div style=""font-size:60px;"">+</div>",,html-keyboard-response,404,1123037,0.0-19.0-0.15,76326,List1B,white,man,,,,null,,,,
null,"<img src=""stim_listB/talk2.gif""</stim_listB>",,html-keyboard-response,405,1125046,0.0-19.0-1.15,76326,List1B,white,man,,,,null,,,,
null,are talking to each other,,html-keyboard-response,406,1127050,0.0-19.0-2.15,76326,List1B,white,man,,,,null,,,,
11892,,,survey-text,407,1138942,0.0-19.0-3.15,76326,List1B,white,man,,,,,"{""Q0"":""mike is talking to with beth""}","<img src=""stim_listB/talk2.gif""</stim_listB>",are talking to each other,
null,"<div style=""font-size:60px;"">+</div>",,html-keyboard-response,408,1139447,0.0-19.0-0.16,76326,List1B,white,man,,,,null,,,,
null,"<img src=""stim_listB/touch7.gif""</stim_listB>",,html-keyboard-response,409,1141448,0.0-19.0-1.16,76326,List1B,white,man,,,,null,,,,
null,is touching,,html-keyboard-response,410,1143462,0.0-19.0-2.16,76326,List1B,white,man,,,,null,,,,
8631,,,survey-text,411,1152093,0.0-19.0-3.16,76326,List1B,white,man,,,,,"{""Q0"":""kate is touching jane""}","<img src=""stim_listB/touch7.gif""</stim_listB>",is touching,
null,"<div style=""font-size:60px;"">+</div>",,html-keyboard-response,412,1152607,0.0-19.0-0.17,76326,List1B,white,man,,,,null,,,,
null,"<img src=""stim_listB/argue8.gif""</stim_listB>",,html-keyboard-response,413,1154612,0.0-19.0-1.17,76326,List1B,white,man,,,,null,,,,
null,are arguing with each other,,html-keyboard-response,414,1156613,0.0-19.0-2.17,76326,List1B,white,man,,,,null,,,,
6687,,,survey-text,415,1163301,0.0-19.0-3.17,76326,List1B,white,man,,,,,"{""Q0"":""jane is arguing with beth""}","<img src=""stim_listB/argue8.gif""</stim_listB>",are arguing with each other,
null,"<div style=""font-size:60px;"">+</div>",,html-keyboard-response,416,1163803,0.0-19.0-0.18,76326,List1B,white,man,,,,null,,,,
null,"<img src=""stim_listB/hug7.gif""</stim_listB>",,html-keyboard-response,417,1165812,0.0-19.0-1.18,76326,List1B,white,man,,,,null,,,,
null,is hugging,,html-keyboard-response,418,1167814,0.0-19.0-2.18,76326,List1B,white,man,,,,null,,,,
6270,,,survey-text,419,1174084,0.0-19.0-3.18,76326,List1B,white,man,,,,,"{""Q0"":""beth is hugging luke""}","<img src=""stim_listB/hug7.gif""</stim_listB>",is hugging,
null,"<div style=""font-size:60px;"">+</div>",,html-keyboard-response,420,1174585,0.0-19.0-0.19,76326,List1B,white,man,,,,null,,,,
null,"<img src=""stim_listB/hug8.gif""</stim_listB>",,html-keyboard-response,421,1176600,0.0-19.0-1.19,76326,List1B,white,man,,,,null,,,,
null,are hugging each other,,html-keyboard-response,422,1178601,0.0-19.0-2.19,76326,List1B,white,man,,,,null,,,,
4682,,,survey-text,423,1183284,0.0-19.0-3.19,76326,List1B,white,man,,,,,"{""Q0"":""kate is hugging jane""}","<img src=""stim_listB/hug8.gif""</stim_listB>",are hugging each other,
1431,<p>Thank you for completing that task.</p><p>The final part of this session is a short questionnaire.</p><p>Press Continue.</p>,0,html-button-response,424,1184716,0.0-20.0,76326,List1B,white,man,,,,,,,,
16007,,,survey-text,425,1201724,0.0-21.0,76326,List1B,white,man,,,,,"{""Q0"":""39"",""Q1"":""English"",""Q2"":""English"",""Q3"":""UK"",""Q4"":""White Irish"",""Q5"":""Male""}",,,demographics
28085,,,survey-likert,426,1229813,0.0-22.0,76326,List1B,white,man,,,,,"{""Q0"":3,""Q1"":3,""Q2"":3,""Q3"":3,""Q4"":3,""Q5"":3,""Q6"":3,""Q7"":3,""Q8"":3,""Q9"":"""",""Q10"":3,""Q11"":3,""Q12"":3,""Q13"":3}",,,likert_race
21322,,,survey-likert,427,1251148,0.0-23.0,76326,List1B,white,man,,,,,"{""Q0"":3,""Q1"":3,""Q2"":3,""Q3"":4,""Q4"":3,""Q5"":3,""Q6"":3,""Q7"":3,""Q8"":3,""Q9"":3,""Q10"":3,""Q11"":3,""Q12"":3,""Q13"":3}",,,likert_gender
5914,,,survey-text,428,1257076,0.0-24.0,76326,List1B,white,man,,,,,"{""Q0"":""ccc""}",,,worker_id
28533,,,external-html,429,1285658,0.0-25.0,76326,List1B,white,man,debrief.html,,,,,,,
