rt,stimulus,button_pressed,trial_type,trial_index,time_elapsed,internal_node_id,subject,list,ppt_race,ppt_gender,url,first_guess,correct,key_press,responses,image_type,phrase_type,test_part
3233,Welcome to the experiment. Press Continue to begin.,0,html-button-response,0,3426,0.0-0.0,76643,List1B,black,man,,,,,,,,
64011,,,external-html,1,68601,0.0-1.0,76643,List1B,black,man,consent.html,,,,,,,
16226,"<p>On the next page, you will see portraits of 8 people and their names.</p><p>Your first task is to take a few minutes to memorise the names of these people.</p><p>You will have to recall their names during the rest of the experiment, so it is</p><p>essential that you try to memorise these people and their names as best as you can.</p><br><p><strong>You will then be tested on your memory of these names and portraits.</strong></p><br><p>The experiment will start after you have completed this memory test.</p><br><p>Ready?</p>",0,html-button-response,2,84830,0.0-2.0,76643,List1B,black,man,,,,,,,,
62665,"<img src='img/portrait_matrix_list1.JPG' style='width:900px;height:500px;''></img><p>If you have memorised all the portraits and names and are ready to start, press Continue.</p><p><strong>Please note: Your memory of these faces will be tested 4 times during this experiment.</strong></p>",0,html-button-response,3,148500,0.0-3.0-0.0,76643,List1B,black,man,,,,,,,,
36689,"<img src=""portrait/BW1.jpg""style=""width:400px;height:400px;""></img>",0,html-button-response,4,186193,0.0-3.0-1.0,76643,List1B,black,man,,TRUE,0,,,,,
null,CORRECT,,html-keyboard-response,5,187704,0.0-3.0-2.0-0.0,76643,List1B,black,man,,,,null,,,,
11135,"<img src=""portrait/WM2.jpg""style=""width:400px;height:400px;""></img>",7,html-button-response,6,198842,0.0-3.0-4.0,76643,List1B,black,man,,TRUE,7,,,,,
null,CORRECT,,html-keyboard-response,7,200343,0.0-3.0-5.0-0.0,76643,List1B,black,man,,,,null,,,,
10891,"<img src=""portrait/BM2.jpg""style=""width:400px;height:400px;""></img>",5,html-button-response,8,211238,0.0-3.0-7.0,76643,List1B,black,man,,TRUE,5,,,,,
null,CORRECT,,html-keyboard-response,9,212740,0.0-3.0-8.0-0.0,76643,List1B,black,man,,,,null,,,,
8666,"<img src=""portrait/WM1.jpg""style=""width:400px;height:400px;""></img>",6,html-button-response,10,221407,0.0-3.0-10.0,76643,List1B,black,man,,TRUE,6,,,,,
null,CORRECT,,html-keyboard-response,11,222912,0.0-3.0-11.0-0.0,76643,List1B,black,man,,,,null,,,,
7888,"<img src=""portrait/BM1.jpg""style=""width:400px;height:400px;""></img>",4,html-button-response,12,230802,0.0-3.0-13.0,76643,List1B,black,man,,TRUE,4,,,,,
null,CORRECT,,html-keyboard-response,13,232305,0.0-3.0-14.0-0.0,76643,List1B,black,man,,,,null,,,,
8657,"<img src=""portrait/BW2.jpg""style=""width:400px;height:400px;""></img>",2,html-button-response,14,240964,0.0-3.0-16.0,76643,List1B,black,man,,TRUE,2,,,,,
null,CORRECT,,html-keyboard-response,15,242466,0.0-3.0-17.0-0.0,76643,List1B,black,man,,,,null,,,,
9073,"<img src=""portrait/WW2.jpg""style=""width:400px;height:400px;""></img>",3,html-button-response,16,251541,0.0-3.0-19.0,76643,List1B,black,man,,TRUE,3,,,,,
null,CORRECT,,html-keyboard-response,17,253047,0.0-3.0-20.0-0.0,76643,List1B,black,man,,,,null,,,,
7148,"<img src=""portrait/WW1.jpg""style=""width:400px;height:400px;""></img>",1,html-button-response,18,260197,0.0-3.0-22.0,76643,List1B,black,man,,TRUE,1,,,,,
null,CORRECT,,html-keyboard-response,19,261704,0.0-3.0-23.0-0.0,76643,List1B,black,man,,,,null,,,,
2169,<p>You got 8 out of 8 right first time. Press Continue.</p>,0,html-button-response,20,263875,0.0-3.0-25.0,76643,List1B,black,man,,,,,,,,
408376,"<p>In this experiment, you will view photographs of the people from the memory game interacting.</p><p>By using the <strong>exact</strong> phrase given <i>after</i> the photograph appears and recalling the correct names of the people in the photographs, form a sentence describing the interaction. You do not need to capitalise names.</p><p>Type your answer in the space provided. Please complete every sentence before moving onto the next trial.</p><p>You will only have a few seconds to memorise each given photograph and phrase before you can respond, so try your best to focus.</p><p>An example is given below. Press 'Continue' when you are ready.</p><img src='img/speaking_example_v2.jpg' style='width:800px;height:460px;''></img>",0,html-button-response,21,673271,0.0-4.0,76643,List1B,black,man,,,,,,,,
7076,"<p>Before the experiment starts, you will watch two example trials. Press 'Continue'.</p>",0,html-button-response,22,681367,0.0-5.0,76643,List1B,black,man,,,,,,,,
null,<img src='img/speaking_WW.gif'></img>,,html-keyboard-response,23,684375,0.0-6.0,76643,List1B,black,man,,,,null,,,,
null,<p>is speaking to</p>,,html-keyboard-response,24,686378,0.0-7.0,76643,List1B,black,man,,,,null,,,,
5326,<p><b>Answer:</b> kate is speaking to beth</p>,0,html-button-response,25,691705,0.0-8.0,76643,List1B,black,man,,,,,,,,
null,<img src='img/pointing_BM.gif'></img>,,html-keyboard-response,26,694709,0.0-9.0,76643,List1B,black,man,,,,null,,,,
null,<p>are pointing at each other</p>,,html-keyboard-response,27,696710,0.0-10.0,76643,List1B,black,man,,,,null,,,,
26098,<p><b>Answer:</b> luke and dave are pointing at each other</p>,0,html-button-response,28,722811,0.0-11.0,76643,List1B,black,man,,,,,,,,
26264,"<p>Ready to start the experiment?</p><br><p><strong>Remember to describe the picture using a full sentence,</strong></p><p><strong>that combines the names of the people with the given phrase.</strong></p><p><strong>If you do not do this correctly you will not be paid.</strong></p><p><strong> You do not need to capitalise names or use punctuation.</strong></p><br><p>Press 'Continue' to begin.</p>",0,html-button-response,29,750083,0.0-12.0,76643,List1B,black,man,,,,,,,,
null,"<div style=""font-size:60px;"">+</div>",,html-keyboard-response,30,751593,0.0-13.0-0.0,76643,List1B,black,man,,,,null,,,,
null,"<img src=""stim_listB/touch4.gif""</stim_listB>",,html-keyboard-response,31,753622,0.0-13.0-1.0,76643,List1B,black,man,,,,null,,,,
null,are touching each other,,html-keyboard-response,32,755625,0.0-13.0-2.0,76643,List1B,black,man,,,,null,,,,
50455,,,survey-text,33,806121,0.0-13.0-3.0,76643,List1B,black,man,,,,,"{""Q0"":""Luke and jane are touching each other""}","<img src=""stim_listB/touch4.gif""</stim_listB>",are touching each other,
null,"<div style=""font-size:60px;"">+</div>",,html-keyboard-response,34,806624,0.0-13.0-0.1,76643,List1B,black,man,,,,null,,,,
null,"<img src=""stim_listB/argue1.gif""</stim_listB>",,html-keyboard-response,35,808629,0.0-13.0-1.1,76643,List1B,black,man,,,,null,,,,
null,is arguing with,,html-keyboard-response,36,810630,0.0-13.0-2.1,76643,List1B,black,man,,,,null,,,,
22741,,,survey-text,37,833373,0.0-13.0-3.1,76643,List1B,black,man,,,,,"{""Q0"":""Beth is arguing with mike""}","<img src=""stim_listB/argue1.gif""</stim_listB>",is arguing with,
null,"<div style=""font-size:60px;"">+</div>",,html-keyboard-response,38,833877,0.0-13.0-0.2,76643,List1B,black,man,,,,null,,,,
null,"<img src=""stim_listB/argue6.gif""</stim_listB>",,html-keyboard-response,39,835878,0.0-13.0-1.2,76643,List1B,black,man,,,,null,,,,
null,are arguing with each other,,html-keyboard-response,40,837880,0.0-13.0-2.2,76643,List1B,black,man,,,,null,,,,
24500,,,survey-text,41,862381,0.0-13.0-3.2,76643,List1B,black,man,,,,,"{""Q0"":""Fred and Dave are arguing with each other""}","<img src=""stim_listB/argue6.gif""</stim_listB>",are arguing with each other,
null,"<div style=""font-size:60px;"">+</div>",,html-keyboard-response,42,862882,0.0-13.0-0.3,76643,List1B,black,man,,,,null,,,,
null,"<img src=""stim_listB/fight8.gif""</stim_listB>",,html-keyboard-response,43,864886,0.0-13.0-1.3,76643,List1B,black,man,,,,null,,,,
null,are fighting each other,,html-keyboard-response,44,866888,0.0-13.0-2.3,76643,List1B,black,man,,,,null,,,,
30123,,,survey-text,45,897012,0.0-13.0-3.3,76643,List1B,black,man,,,,,"{""Q0"":""Ruth and Kate are fighting each other""}","<img src=""stim_listB/fight8.gif""</stim_listB>",are fighting each other,
null,"<div style=""font-size:60px;"">+</div>",,html-keyboard-response,46,897514,0.0-13.0-0.4,76643,List1B,black,man,,,,null,,,,
null,"<img src=""stim_listB/dance5.gif""</stim_listB>",,html-keyboard-response,47,899515,0.0-13.0-1.4,76643,List1B,black,man,,,,null,,,,
null,is dancing with,,html-keyboard-response,48,901516,0.0-13.0-2.4,76643,List1B,black,man,,,,null,,,,
16073,,,survey-text,49,917592,0.0-13.0-3.4,76643,List1B,black,man,,,,,"{""Q0"":""Fred is dancing with Dave""}","<img src=""stim_listB/dance5.gif""</stim_listB>",is dancing with,
null,"<div style=""font-size:60px;"">+</div>",,html-keyboard-response,50,918098,0.0-13.0-0.5,76643,List1B,black,man,,,,null,,,,
null,"<img src=""stim_listB/meet8.gif""</stim_listB>",,html-keyboard-response,51,920100,0.0-13.0-1.5,76643,List1B,black,man,,,,null,,,,
null,are meeting each other,,html-keyboard-response,52,922103,0.0-13.0-2.5,76643,List1B,black,man,,,,null,,,,
20732,,,survey-text,53,942835,0.0-13.0-3.5,76643,List1B,black,man,,,,,"{""Q0"":""Ruth and kate are meeting each other""}","<img src=""stim_listB/meet8.gif""</stim_listB>",are meeting each other,
null,"<div style=""font-size:60px;"">+</div>",,html-keyboard-response,54,943338,0.0-13.0-0.6,76643,List1B,black,man,,,,null,,,,
null,"<img src=""stim_listB/marry8.gif""</stim_listB>",,html-keyboard-response,55,945340,0.0-13.0-1.6,76643,List1B,black,man,,,,null,,,,
null,are marrying each other,,html-keyboard-response,56,947341,0.0-13.0-2.6,76643,List1B,black,man,,,,null,,,,
41042,,,survey-text,57,988385,0.0-13.0-3.6,76643,List1B,black,man,,,,,"{""Q0"":""Jane and beth are marrying each other""}","<img src=""stim_listB/marry8.gif""</stim_listB>",are marrying each other,
null,"<div style=""font-size:60px;"">+</div>",,html-keyboard-response,58,988890,0.0-13.0-0.7,76643,List1B,black,man,,,,null,,,,
null,"<img src=""stim_listB/kiss2.gif""</stim_listB>",,html-keyboard-response,59,990891,0.0-13.0-1.7,76643,List1B,black,man,,,,null,,,,
null,are kissing each other,,html-keyboard-response,60,992892,0.0-13.0-2.7,76643,List1B,black,man,,,,null,,,,
27655,,,survey-text,61,1020548,0.0-13.0-3.7,76643,List1B,black,man,,,,,"{""Q0"":""Kate and mike are kissing each other""}","<img src=""stim_listB/kiss2.gif""</stim_listB>",are kissing each other,
null,"<div style=""font-size:60px;"">+</div>",,html-keyboard-response,62,1021069,0.0-13.0-0.8,76643,List1B,black,man,,,,null,,,,
null,"<img src=""stim_listB/meet6.gif""</stim_listB>",,html-keyboard-response,63,1023082,0.0-13.0-1.8,76643,List1B,black,man,,,,null,,,,
null,are meeting each other,,html-keyboard-response,64,1025085,0.0-13.0-2.8,76643,List1B,black,man,,,,null,,,,
34745,,,survey-text,65,1059832,0.0-13.0-3.8,76643,List1B,black,man,,,,,"{""Q0"":""Fred and luke are meeting each other""}","<img src=""stim_listB/meet6.gif""</stim_listB>",are meeting each other,
null,"<div style=""font-size:60px;"">+</div>",,html-keyboard-response,66,1060351,0.0-13.0-0.9,76643,List1B,black,man,,,,null,,,,
null,"<img src=""stim_listB/dance1.gif""</stim_listB>",,html-keyboard-response,67,1062354,0.0-13.0-1.9,76643,List1B,black,man,,,,null,,,,
null,is dancing with,,html-keyboard-response,68,1064359,0.0-13.0-2.9,76643,List1B,black,man,,,,null,,,,
20980,,,survey-text,69,1085341,0.0-13.0-3.9,76643,List1B,black,man,,,,,"{""Q0"":""fred is dancing with kate""}","<img src=""stim_listB/dance1.gif""</stim_listB>",is dancing with,
null,"<div style=""font-size:60px;"">+</div>",,html-keyboard-response,70,1085842,0.0-13.0-0.10,76643,List1B,black,man,,,,null,,,,
null,"<img src=""stim_listB/kiss7.gif""</stim_listB>",,html-keyboard-response,71,1087844,0.0-13.0-1.10,76643,List1B,black,man,,,,null,,,,
null,is kissing,,html-keyboard-response,72,1089845,0.0-13.0-2.10,76643,List1B,black,man,,,,null,,,,
31857,,,survey-text,73,1121704,0.0-13.0-3.10,76643,List1B,black,man,,,,,"{""Q0"":""Ruth is kissing kate""}","<img src=""stim_listB/kiss7.gif""</stim_listB>",is kissing,
null,"<div style=""font-size:60px;"">+</div>",,html-keyboard-response,74,1122206,0.0-13.0-0.11,76643,List1B,black,man,,,,null,,,,
null,"<img src=""stim_listB/kiss4.gif""</stim_listB>",,html-keyboard-response,75,1124209,0.0-13.0-1.11,76643,List1B,black,man,,,,null,,,,
null,are kissing each other,,html-keyboard-response,76,1126211,0.0-13.0-2.11,76643,List1B,black,man,,,,null,,,,
26284,,,survey-text,77,1152496,0.0-13.0-3.11,76643,List1B,black,man,,,,,"{""Q0"":""Dave and jane are kissing each other""}","<img src=""stim_listB/kiss4.gif""</stim_listB>",are kissing each other,
null,"<div style=""font-size:60px;"">+</div>",,html-keyboard-response,78,1152998,0.0-13.0-0.12,76643,List1B,black,man,,,,null,,,,
null,"<img src=""stim_listB/hug1.gif""</stim_listB>",,html-keyboard-response,79,1155002,0.0-13.0-1.12,76643,List1B,black,man,,,,null,,,,
null,is hugging,,html-keyboard-response,80,1157006,0.0-13.0-2.12,76643,List1B,black,man,,,,null,,,,
15165,,,survey-text,81,1172174,0.0-13.0-3.12,76643,List1B,black,man,,,,,"{""Q0"":""Fred is hugging Beth""}","<img src=""stim_listB/hug1.gif""</stim_listB>",is hugging,
null,"<div style=""font-size:60px;"">+</div>",,html-keyboard-response,82,1172686,0.0-13.0-0.13,76643,List1B,black,man,,,,null,,,,
null,"<img src=""stim_listB/marry7.gif""</stim_listB>",,html-keyboard-response,83,1174692,0.0-13.0-1.13,76643,List1B,black,man,,,,null,,,,
null,is marrying,,html-keyboard-response,84,1176693,0.0-13.0-2.13,76643,List1B,black,man,,,,null,,,,
20499,,,survey-text,85,1197193,0.0-13.0-3.13,76643,List1B,black,man,,,,,"{""Q0"":""Ruth is marrying Kate""}","<img src=""stim_listB/marry7.gif""</stim_listB>",is marrying,
null,"<div style=""font-size:60px;"">+</div>",,html-keyboard-response,86,1197695,0.0-13.0-0.14,76643,List1B,black,man,,,,null,,,,
null,"<img src=""stim_listB/fight7.gif""</stim_listB>",,html-keyboard-response,87,1199698,0.0-13.0-1.14,76643,List1B,black,man,,,,null,,,,
null,is fighting,,html-keyboard-response,88,1201701,0.0-13.0-2.14,76643,List1B,black,man,,,,null,,,,
26634,,,survey-text,89,1228337,0.0-13.0-3.14,76643,List1B,black,man,,,,,"{""Q0"":""Kate is fighting Jane""}","<img src=""stim_listB/fight7.gif""</stim_listB>",is fighting,
null,"<div style=""font-size:60px;"">+</div>",,html-keyboard-response,90,1228839,0.0-13.0-0.15,76643,List1B,black,man,,,,null,,,,
null,"<img src=""stim_listB/talk2.gif""</stim_listB>",,html-keyboard-response,91,1230842,0.0-13.0-1.15,76643,List1B,black,man,,,,null,,,,
null,are talking to each other,,html-keyboard-response,92,1232847,0.0-13.0-2.15,76643,List1B,black,man,,,,null,,,,
38909,,,survey-text,93,1271759,0.0-13.0-3.15,76643,List1B,black,man,,,,,"{""Q0"":""Beth and Mike are talking to each other""}","<img src=""stim_listB/talk2.gif""</stim_listB>",are talking to each other,
null,"<div style=""font-size:60px;"">+</div>",,html-keyboard-response,94,1272263,0.0-13.0-0.16,76643,List1B,black,man,,,,null,,,,
null,"<img src=""stim_listB/talk1.gif""</stim_listB>",,html-keyboard-response,95,1274276,0.0-13.0-1.16,76643,List1B,black,man,,,,null,,,,
null,is talking to,,html-keyboard-response,96,1276277,0.0-13.0-2.16,76643,List1B,black,man,,,,null,,,,
11621,,,survey-text,97,1287900,0.0-13.0-3.16,76643,List1B,black,man,,,,,"{""Q0"":""Fred is taling to Kate""}","<img src=""stim_listB/talk1.gif""</stim_listB>",is talking to,
null,"<div style=""font-size:60px;"">+</div>",,html-keyboard-response,98,1288402,0.0-13.0-0.17,76643,List1B,black,man,,,,null,,,,
null,"<img src=""stim_listB/marry5.gif""</stim_listB>",,html-keyboard-response,99,1290404,0.0-13.0-1.17,76643,List1B,black,man,,,,null,,,,
null,is marrying,,html-keyboard-response,100,1292405,0.0-13.0-2.17,76643,List1B,black,man,,,,null,,,,
23794,,,survey-text,101,1316201,0.0-13.0-3.17,76643,List1B,black,man,,,,,"{""Q0"":""Luke is marrying mike""}","<img src=""stim_listB/marry5.gif""</stim_listB>",is marrying,
null,"<div style=""font-size:60px;"">+</div>",,html-keyboard-response,102,1316702,0.0-13.0-0.18,76643,List1B,black,man,,,,null,,,,
null,"<img src=""stim_listB/talk8.gif""</stim_listB>",,html-keyboard-response,103,1318705,0.0-13.0-1.18,76643,List1B,black,man,,,,null,,,,
null,are talking to each other,,html-keyboard-response,104,1320706,0.0-13.0-2.18,76643,List1B,black,man,,,,null,,,,
23882,,,survey-text,105,1344588,0.0-13.0-3.18,76643,List1B,black,man,,,,,"{""Q0"":""Ruth and Kate are talking to each other""}","<img src=""stim_listB/talk8.gif""</stim_listB>",are talking to each other,
null,"<div style=""font-size:60px;"">+</div>",,html-keyboard-response,106,1345105,0.0-13.0-0.19,76643,List1B,black,man,,,,null,,,,
null,"<img src=""stim_listB/kiss6.gif""</stim_listB>",,html-keyboard-response,107,1347117,0.0-13.0-1.19,76643,List1B,black,man,,,,null,,,,
null,are kissing each other,,html-keyboard-response,108,1349119,0.0-13.0-2.19,76643,List1B,black,man,,,,null,,,,
44046,,,survey-text,109,1393167,0.0-13.0-3.19,76643,List1B,black,man,,,,,"{""Q0"":""Dave and mike are kissing each other""}","<img src=""stim_listB/kiss6.gif""</stim_listB>",are kissing each other,
29927,"<img src='img/portrait_matrix_list1.JPG' style='width:900px;height:500px;''></img><p>If you have memorised all the portraits and names and are ready to start, press Continue.</p><p><strong>Please note: Your memory of these faces will be tested 4 times during this experiment.</strong></p>",0,html-button-response,110,1423115,0.0-14.0-0.0,76643,List1B,black,man,,,,,,,,
6845,"<img src=""portrait/BW2.jpg""style=""width:400px;height:400px;""></img>",2,html-button-response,111,1430983,0.0-14.0-1.0,76643,List1B,black,man,,TRUE,2,,,,,
null,CORRECT,,html-keyboard-response,112,1432489,0.0-14.0-2.0-0.0,76643,List1B,black,man,,,,null,,,,
2472,"<img src=""portrait/WM2.jpg""style=""width:400px;height:400px;""></img>",7,html-button-response,113,1434964,0.0-14.0-4.0,76643,List1B,black,man,,TRUE,7,,,,,
null,CORRECT,,html-keyboard-response,114,1436473,0.0-14.0-5.0-0.0,76643,List1B,black,man,,,,null,,,,
3725,"<img src=""portrait/WW1.jpg""style=""width:400px;height:400px;""></img>",1,html-button-response,115,1440201,0.0-14.0-7.0,76643,List1B,black,man,,TRUE,1,,,,,
null,CORRECT,,html-keyboard-response,116,1441703,0.0-14.0-8.0-0.0,76643,List1B,black,man,,,,null,,,,
2894,"<img src=""portrait/WM1.jpg""style=""width:400px;height:400px;""></img>",6,html-button-response,117,1444599,0.0-14.0-10.0,76643,List1B,black,man,,TRUE,6,,,,,
null,CORRECT,,html-keyboard-response,118,1446106,0.0-14.0-11.0-0.0,76643,List1B,black,man,,,,null,,,,
2249,"<img src=""portrait/WW2.jpg""style=""width:400px;height:400px;""></img>",3,html-button-response,119,1448358,0.0-14.0-13.0,76643,List1B,black,man,,TRUE,3,,,,,
null,CORRECT,,html-keyboard-response,120,1449864,0.0-14.0-14.0-0.0,76643,List1B,black,man,,,,null,,,,
5979,"<img src=""portrait/BM1.jpg""style=""width:400px;height:400px;""></img>",4,html-button-response,121,1455852,0.0-14.0-16.0,76643,List1B,black,man,,TRUE,4,,,,,
null,CORRECT,,html-keyboard-response,122,1457360,0.0-14.0-17.0-0.0,76643,List1B,black,man,,,,null,,,,
3385,"<img src=""portrait/BM2.jpg""style=""width:400px;height:400px;""></img>",5,html-button-response,123,1460749,0.0-14.0-19.0,76643,List1B,black,man,,TRUE,5,,,,,
null,CORRECT,,html-keyboard-response,124,1462254,0.0-14.0-20.0-0.0,76643,List1B,black,man,,,,null,,,,
4758,"<img src=""portrait/BW1.jpg""style=""width:400px;height:400px;""></img>",0,html-button-response,125,1467014,0.0-14.0-22.0,76643,List1B,black,man,,TRUE,0,,,,,
null,CORRECT,,html-keyboard-response,126,1468517,0.0-14.0-23.0-0.0,76643,List1B,black,man,,,,null,,,,
4332,<p>You got 8 out of 8 right first time. Press Continue.</p>,0,html-button-response,127,1472860,0.0-14.0-25.0,76643,List1B,black,man,,,,,,,,
null,"<div style=""font-size:60px;"">+</div>",,html-keyboard-response,128,1474370,0.0-15.0-0.0,76643,List1B,black,man,,,,null,,,,
null,"<img src=""stim_listB/touch8.gif""</stim_listB>",,html-keyboard-response,129,1476379,0.0-15.0-1.0,76643,List1B,black,man,,,,null,,,,
null,are touching each other,,html-keyboard-response,130,1478381,0.0-15.0-2.0,76643,List1B,black,man,,,,null,,,,
18257,,,survey-text,131,1496639,0.0-15.0-3.0,76643,List1B,black,man,,,,,"{""Q0"":""Ruth and Beth are touching each other""}","<img src=""stim_listB/touch8.gif""</stim_listB>",are touching each other,
null,"<div style=""font-size:60px;"">+</div>",,html-keyboard-response,132,1497140,0.0-15.0-0.1,76643,List1B,black,man,,,,null,,,,
null,"<img src=""stim_listB/fight4.gif""</stim_listB>",,html-keyboard-response,133,1499141,0.0-15.0-1.1,76643,List1B,black,man,,,,null,,,,
null,are fighting each other,,html-keyboard-response,134,1501144,0.0-15.0-2.1,76643,List1B,black,man,,,,null,,,,
28740,,,survey-text,135,1529886,0.0-15.0-3.1,76643,List1B,black,man,,,,,"{""Q0"":""Luke and Ruth are fighting each other""}","<img src=""stim_listB/fight4.gif""</stim_listB>",are fighting each other,
null,"<div style=""font-size:60px;"">+</div>",,html-keyboard-response,136,1530388,0.0-15.0-0.2,76643,List1B,black,man,,,,null,,,,
null,"<img src=""stim_listB/kiss5.gif""</stim_listB>",,html-keyboard-response,137,1532390,0.0-15.0-1.2,76643,List1B,black,man,,,,null,,,,
null,is kissing,,html-keyboard-response,138,1534391,0.0-15.0-2.2,76643,List1B,black,man,,,,null,,,,
13918,,,survey-text,139,1548311,0.0-15.0-3.2,76643,List1B,black,man,,,,,"{""Q0"":""Fred is kissing luke""}","<img src=""stim_listB/kiss5.gif""</stim_listB>",is kissing,
null,"<div style=""font-size:60px;"">+</div>",,html-keyboard-response,140,1548816,0.0-15.0-0.3,76643,List1B,black,man,,,,null,,,,
null,"<img src=""stim_listB/shout7.gif""</stim_listB>",,html-keyboard-response,141,1550818,0.0-15.0-1.3,76643,List1B,black,man,,,,null,,,,
null,is shouting at,,html-keyboard-response,142,1552830,0.0-15.0-2.3,76643,List1B,black,man,,,,null,,,,
16159,,,survey-text,143,1568991,0.0-15.0-3.3,76643,List1B,black,man,,,,,"{""Q0"":""Ruth is shouting at beth""}","<img src=""stim_listB/shout7.gif""</stim_listB>",is shouting at,
null,"<div style=""font-size:60px;"">+</div>",,html-keyboard-response,144,1569495,0.0-15.0-0.4,76643,List1B,black,man,,,,null,,,,
null,"<img src=""stim_listB/hug7.gif""</stim_listB>",,html-keyboard-response,145,1571497,0.0-15.0-1.4,76643,List1B,black,man,,,,null,,,,
null,is hugging,,html-keyboard-response,146,1573498,0.0-15.0-2.4,76643,List1B,black,man,,,,null,,,,
23942,,,survey-text,147,1597441,0.0-15.0-3.4,76643,List1B,black,man,,,,,"{""Q0"":""Ruth is hugging beth""}","<img src=""stim_listB/hug7.gif""</stim_listB>",is hugging,
null,"<div style=""font-size:60px;"">+</div>",,html-keyboard-response,148,1597945,0.0-15.0-0.5,76643,List1B,black,man,,,,null,,,,
null,"<img src=""stim_listB/talk3.gif""</stim_listB>",,html-keyboard-response,149,1599951,0.0-15.0-1.5,76643,List1B,black,man,,,,null,,,,
null,is talking to,,html-keyboard-response,150,1601952,0.0-15.0-2.5,76643,List1B,black,man,,,,null,,,,
21287,,,survey-text,151,1623241,0.0-15.0-3.5,76643,List1B,black,man,,,,,"{""Q0"":""Luke is talking to jane""}","<img src=""stim_listB/talk3.gif""</stim_listB>",is talking to,
null,"<div style=""font-size:60px;"">+</div>",,html-keyboard-response,152,1623742,0.0-15.0-0.6,76643,List1B,black,man,,,,null,,,,
null,"<img src=""stim_listB/hug6.gif""</stim_listB>",,html-keyboard-response,153,1625744,0.0-15.0-1.6,76643,List1B,black,man,,,,null,,,,
null,are hugging each other,,html-keyboard-response,154,1627744,0.0-15.0-2.6,76643,List1B,black,man,,,,null,,,,
12030,,,survey-text,155,1639775,0.0-15.0-3.6,76643,List1B,black,man,,,,,"{""Q0"":""Dave and mike are hugging each other""}","<img src=""stim_listB/hug6.gif""</stim_listB>",are hugging each other,
null,"<div style=""font-size:60px;"">+</div>",,html-keyboard-response,156,1640278,0.0-15.0-0.7,76643,List1B,black,man,,,,null,,,,
null,"<img src=""stim_listB/dance8.gif""</stim_listB>",,html-keyboard-response,157,1642280,0.0-15.0-1.7,76643,List1B,black,man,,,,null,,,,
null,are dancing with each other,,html-keyboard-response,158,1644281,0.0-15.0-2.7,76643,List1B,black,man,,,,null,,,,
12653,,,survey-text,159,1656935,0.0-15.0-3.7,76643,List1B,black,man,,,,,"{""Q0"":""Ruth and Kate are dancing with each other""}","<img src=""stim_listB/dance8.gif""</stim_listB>",are dancing with each other,
null,"<div style=""font-size:60px;"">+</div>",,html-keyboard-response,160,1657436,0.0-15.0-0.8,76643,List1B,black,man,,,,null,,,,
null,"<img src=""stim_listB/meet7.gif""</stim_listB>",,html-keyboard-response,161,1659438,0.0-15.0-1.8,76643,List1B,black,man,,,,null,,,,
null,is meeting,,html-keyboard-response,162,1661441,0.0-15.0-2.8,76643,List1B,black,man,,,,null,,,,
21610,,,survey-text,163,1683052,0.0-15.0-3.8,76643,List1B,black,man,,,,,"{""Q0"":""Kate is meeting jane""}","<img src=""stim_listB/meet7.gif""</stim_listB>",is meeting,
null,"<div style=""font-size:60px;"">+</div>",,html-keyboard-response,164,1683554,0.0-15.0-0.9,76643,List1B,black,man,,,,null,,,,
null,"<img src=""stim_listB/touch5.gif""</stim_listB>",,html-keyboard-response,165,1685557,0.0-15.0-1.9,76643,List1B,black,man,,,,null,,,,
null,is touching,,html-keyboard-response,166,1687560,0.0-15.0-2.9,76643,List1B,black,man,,,,null,,,,
18992,,,survey-text,167,1706553,0.0-15.0-3.9,76643,List1B,black,man,,,,,"{""Q0"":""Dave is touching mike""}","<img src=""stim_listB/touch5.gif""</stim_listB>",is touching,
null,"<div style=""font-size:60px;"">+</div>",,html-keyboard-response,168,1707054,0.0-15.0-0.10,76643,List1B,black,man,,,,null,,,,
null,"<img src=""stim_listB/kiss8.gif""</stim_listB>",,html-keyboard-response,169,1709061,0.0-15.0-1.10,76643,List1B,black,man,,,,null,,,,
null,are kissing each other,,html-keyboard-response,170,1711067,0.0-15.0-2.10,76643,List1B,black,man,,,,null,,,,
21161,,,survey-text,171,1732229,0.0-15.0-3.10,76643,List1B,black,man,,,,,"{""Q0"":""Kate and jane are kissing each other""}","<img src=""stim_listB/kiss8.gif""</stim_listB>",are kissing each other,
null,"<div style=""font-size:60px;"">+</div>",,html-keyboard-response,172,1732731,0.0-15.0-0.11,76643,List1B,black,man,,,,null,,,,
null,"<img src=""stim_listB/shout2.gif""</stim_listB>",,html-keyboard-response,173,1734736,0.0-15.0-1.11,76643,List1B,black,man,,,,null,,,,
null,are shouting at each other,,html-keyboard-response,174,1736738,0.0-15.0-2.11,76643,List1B,black,man,,,,null,,,,
19710,,,survey-text,175,1756450,0.0-15.0-3.11,76643,List1B,black,man,,,,,"{""Q0"":""Kate and mike are shouting at each other""}","<img src=""stim_listB/shout2.gif""</stim_listB>",are shouting at each other,
null,"<div style=""font-size:60px;"">+</div>",,html-keyboard-response,176,1756954,0.0-15.0-0.12,76643,List1B,black,man,,,,null,,,,
null,"<img src=""stim_listB/fight2.gif""</stim_listB>",,html-keyboard-response,177,1758956,0.0-15.0-1.12,76643,List1B,black,man,,,,null,,,,
null,are fighting each other,,html-keyboard-response,178,1760957,0.0-15.0-2.12,76643,List1B,black,man,,,,null,,,,
13782,,,survey-text,179,1774741,0.0-15.0-3.12,76643,List1B,black,man,,,,,"{""Q0"":""Fred and beth are fighting each other""}","<img src=""stim_listB/fight2.gif""</stim_listB>",are fighting each other,
null,"<div style=""font-size:60px;"">+</div>",,html-keyboard-response,180,1775243,0.0-15.0-0.13,76643,List1B,black,man,,,,null,,,,
null,"<img src=""stim_listB/kiss3.gif""</stim_listB>",,html-keyboard-response,181,1777248,0.0-15.0-1.13,76643,List1B,black,man,,,,null,,,,
null,is kissing,,html-keyboard-response,182,1779251,0.0-15.0-2.13,76643,List1B,black,man,,,,null,,,,
17464,,,survey-text,183,1796716,0.0-15.0-3.13,76643,List1B,black,man,,,,,"{""Q0"":""Ruth is kissing luke""}","<img src=""stim_listB/kiss3.gif""</stim_listB>",is kissing,
null,"<div style=""font-size:60px;"">+</div>",,html-keyboard-response,184,1797219,0.0-15.0-0.14,76643,List1B,black,man,,,,null,,,,
null,"<img src=""stim_listB/dance6.gif""</stim_listB>",,html-keyboard-response,185,1799226,0.0-15.0-1.14,76643,List1B,black,man,,,,null,,,,
null,are dancing with each other,,html-keyboard-response,186,1801227,0.0-15.0-2.14,76643,List1B,black,man,,,,null,,,,
17476,,,survey-text,187,1818705,0.0-15.0-3.14,76643,List1B,black,man,,,,,"{""Q0"":""Mike and luke are dancing with each other""}","<img src=""stim_listB/dance6.gif""</stim_listB>",are dancing with each other,
null,"<div style=""font-size:60px;"">+</div>",,html-keyboard-response,188,1819207,0.0-15.0-0.15,76643,List1B,black,man,,,,null,,,,
null,"<img src=""stim_listB/marry6.gif""</stim_listB>",,html-keyboard-response,189,1821210,0.0-15.0-1.15,76643,List1B,black,man,,,,null,,,,
null,are marrying each other,,html-keyboard-response,190,1823214,0.0-15.0-2.15,76643,List1B,black,man,,,,null,,,,
9021,,,survey-text,191,1832236,0.0-15.0-3.15,76643,List1B,black,man,,,,,"{""Q0"":""Dave and Fred are marrying each other""}","<img src=""stim_listB/marry6.gif""</stim_listB>",are marrying each other,
null,"<div style=""font-size:60px;"">+</div>",,html-keyboard-response,192,1832739,0.0-15.0-0.16,76643,List1B,black,man,,,,null,,,,
null,"<img src=""stim_listB/talk4.gif""</stim_listB>",,html-keyboard-response,193,1834744,0.0-15.0-1.16,76643,List1B,black,man,,,,null,,,,
null,are talking to each other,,html-keyboard-response,194,1836745,0.0-15.0-2.16,76643,List1B,black,man,,,,null,,,,
12047,,,survey-text,195,1848793,0.0-15.0-3.16,76643,List1B,black,man,,,,,"{""Q0"":""Dave and Ruth are talking to each other""}","<img src=""stim_listB/talk4.gif""</stim_listB>",are talking to each other,
null,"<div style=""font-size:60px;"">+</div>",,html-keyboard-response,196,1849294,0.0-15.0-0.17,76643,List1B,black,man,,,,null,,,,
null,"<img src=""stim_listB/marry2.gif""</stim_listB>",,html-keyboard-response,197,1851303,0.0-15.0-1.17,76643,List1B,black,man,,,,null,,,,
null,are marrying each other,,html-keyboard-response,198,1853304,0.0-15.0-2.17,76643,List1B,black,man,,,,null,,,,
9489,,,survey-text,199,1862793,0.0-15.0-3.17,76643,List1B,black,man,,,,,"{""Q0"":""Kate and Fred are marrying each other""}","<img src=""stim_listB/marry2.gif""</stim_listB>",are marrying each other,
null,"<div style=""font-size:60px;"">+</div>",,html-keyboard-response,200,1863295,0.0-15.0-0.18,76643,List1B,black,man,,,,null,,,,
null,"<img src=""stim_listB/argue5.gif""</stim_listB>",,html-keyboard-response,201,1865299,0.0-15.0-1.18,76643,List1B,black,man,,,,null,,,,
null,is arguing with,,html-keyboard-response,202,1867301,0.0-15.0-2.18,76643,List1B,black,man,,,,null,,,,
23403,,,survey-text,203,1890705,0.0-15.0-3.18,76643,List1B,black,man,,,,,"{""Q0"":""Luke is arguing with mike""}","<img src=""stim_listB/argue5.gif""</stim_listB>",is arguing with,
null,"<div style=""font-size:60px;"">+</div>",,html-keyboard-response,204,1891207,0.0-15.0-0.19,76643,List1B,black,man,,,,null,,,,
null,"<img src=""stim_listB/touch6.gif""</stim_listB>",,html-keyboard-response,205,1893211,0.0-15.0-1.19,76643,List1B,black,man,,,,null,,,,
null,are touching each other,,html-keyboard-response,206,1895215,0.0-15.0-2.19,76643,List1B,black,man,,,,null,,,,
9919,,,survey-text,207,1905135,0.0-15.0-3.19,76643,List1B,black,man,,,,,"{""Q0"":""Fred and luke are touching each other""}","<img src=""stim_listB/touch6.gif""</stim_listB>",are touching each other,
8800,"<img src='img/portrait_matrix_list1.JPG' style='width:900px;height:500px;''></img><p>If you have memorised all the portraits and names and are ready to start, press Continue.</p><p><strong>Please note: Your memory of these faces will be tested 4 times during this experiment.</strong></p>",0,html-button-response,208,1913946,0.0-16.0-0.0,76643,List1B,black,man,,,,,,,,
4977,"<img src=""portrait/WM2.jpg""style=""width:400px;height:400px;""></img>",7,html-button-response,209,1919934,0.0-16.0-1.0,76643,List1B,black,man,,TRUE,7,,,,,
null,CORRECT,,html-keyboard-response,210,1921446,0.0-16.0-2.0-0.0,76643,List1B,black,man,,,,null,,,,
2983,"<img src=""portrait/WM1.jpg""style=""width:400px;height:400px;""></img>",6,html-button-response,211,1924433,0.0-16.0-4.0,76643,List1B,black,man,,TRUE,6,,,,,
null,CORRECT,,html-keyboard-response,212,1925935,0.0-16.0-5.0-0.0,76643,List1B,black,man,,,,null,,,,
2399,"<img src=""portrait/BM2.jpg""style=""width:400px;height:400px;""></img>",5,html-button-response,213,1928336,0.0-16.0-7.0,76643,List1B,black,man,,TRUE,5,,,,,
null,CORRECT,,html-keyboard-response,214,1929840,0.0-16.0-8.0-0.0,76643,List1B,black,man,,,,null,,,,
6292,"<img src=""portrait/WW2.jpg""style=""width:400px;height:400px;""></img>",3,html-button-response,215,1936135,0.0-16.0-10.0,76643,List1B,black,man,,TRUE,3,,,,,
null,CORRECT,,html-keyboard-response,216,1937646,0.0-16.0-11.0-0.0,76643,List1B,black,man,,,,null,,,,
4207,"<img src=""portrait/BW1.jpg""style=""width:400px;height:400px;""></img>",0,html-button-response,217,1941854,0.0-16.0-13.0,76643,List1B,black,man,,TRUE,0,,,,,
null,CORRECT,,html-keyboard-response,218,1943359,0.0-16.0-14.0-0.0,76643,List1B,black,man,,,,null,,,,
4126,"<img src=""portrait/WW1.jpg""style=""width:400px;height:400px;""></img>",1,html-button-response,219,1947487,0.0-16.0-16.0,76643,List1B,black,man,,TRUE,1,,,,,
null,CORRECT,,html-keyboard-response,220,1948989,0.0-16.0-17.0-0.0,76643,List1B,black,man,,,,null,,,,
3159,"<img src=""portrait/BM1.jpg""style=""width:400px;height:400px;""></img>",4,html-button-response,221,1952150,0.0-16.0-19.0,76643,List1B,black,man,,TRUE,4,,,,,
null,CORRECT,,html-keyboard-response,222,1953655,0.0-16.0-20.0-0.0,76643,List1B,black,man,,,,null,,,,
2435,"<img src=""portrait/BW2.jpg""style=""width:400px;height:400px;""></img>",2,html-button-response,223,1956092,0.0-16.0-22.0,76643,List1B,black,man,,TRUE,2,,,,,
null,CORRECT,,html-keyboard-response,224,1957597,0.0-16.0-23.0-0.0,76643,List1B,black,man,,,,null,,,,
1717,<p>You got 8 out of 8 right first time. Press Continue.</p>,0,html-button-response,225,1959318,0.0-16.0-25.0,76643,List1B,black,man,,,,,,,,
null,"<div style=""font-size:60px;"">+</div>",,html-keyboard-response,226,1960822,0.0-17.0-0.0,76643,List1B,black,man,,,,null,,,,
null,"<img src=""stim_listB/touch2.gif""</stim_listB>",,html-keyboard-response,227,1962828,0.0-17.0-1.0,76643,List1B,black,man,,,,null,,,,
null,are touching each other,,html-keyboard-response,228,1964829,0.0-17.0-2.0,76643,List1B,black,man,,,,null,,,,
10574,,,survey-text,229,1975404,0.0-17.0-3.0,76643,List1B,black,man,,,,,"{""Q0"":""Fred and beth are touching each other""}","<img src=""stim_listB/touch2.gif""</stim_listB>",are touching each other,
null,"<div style=""font-size:60px;"">+</div>",,html-keyboard-response,230,1975906,0.0-17.0-0.1,76643,List1B,black,man,,,,null,,,,
null,"<img src=""stim_listB/dance7.gif""</stim_listB>",,html-keyboard-response,231,1977909,0.0-17.0-1.1,76643,List1B,black,man,,,,null,,,,
null,is dancing with,,html-keyboard-response,232,1979910,0.0-17.0-2.1,76643,List1B,black,man,,,,null,,,,
11493,,,survey-text,233,1991405,0.0-17.0-3.1,76643,List1B,black,man,,,,,"{""Q0"":""Jane is dancing with beth""}","<img src=""stim_listB/dance7.gif""</stim_listB>",is dancing with,
null,"<div style=""font-size:60px;"">+</div>",,html-keyboard-response,234,1991907,0.0-17.0-0.2,76643,List1B,black,man,,,,null,,,,
null,"<img src=""stim_listB/marry4.gif""</stim_listB>",,html-keyboard-response,235,1993910,0.0-17.0-1.2,76643,List1B,black,man,,,,null,,,,
null,are marrying each other,,html-keyboard-response,236,1995911,0.0-17.0-2.2,76643,List1B,black,man,,,,null,,,,
12660,,,survey-text,237,2008573,0.0-17.0-3.2,76643,List1B,black,man,,,,,"{""Q0"":""Luke and jane are marrying each other""}","<img src=""stim_listB/marry4.gif""</stim_listB>",are marrying each other,
null,"<div style=""font-size:60px;"">+</div>",,html-keyboard-response,238,2009080,0.0-17.0-0.3,76643,List1B,black,man,,,,null,,,,
null,"<img src=""stim_listB/hug5.gif""</stim_listB>",,html-keyboard-response,239,2011086,0.0-17.0-1.3,76643,List1B,black,man,,,,null,,,,
null,is hugging,,html-keyboard-response,240,2013095,0.0-17.0-2.3,76643,List1B,black,man,,,,null,,,,
11395,,,survey-text,241,2024491,0.0-17.0-3.3,76643,List1B,black,man,,,,,"{""Q0"":""Fred is hugging luke""}","<img src=""stim_listB/hug5.gif""</stim_listB>",is hugging,
null,"<div style=""font-size:60px;"">+</div>",,html-keyboard-response,242,2024994,0.0-17.0-0.4,76643,List1B,black,man,,,,null,,,,
null,"<img src=""stim_listB/shout3.gif""</stim_listB>",,html-keyboard-response,243,2026999,0.0-17.0-1.4,76643,List1B,black,man,,,,null,,,,
null,is shouting at,,html-keyboard-response,244,2029000,0.0-17.0-2.4,76643,List1B,black,man,,,,null,,,,
16003,,,survey-text,245,2045005,0.0-17.0-3.4,76643,List1B,black,man,,,,,"{""Q0"":""Ruth is shouting at luke""}","<img src=""stim_listB/shout3.gif""</stim_listB>",is shouting at,
null,"<div style=""font-size:60px;"">+</div>",,html-keyboard-response,246,2045506,0.0-17.0-0.5,76643,List1B,black,man,,,,null,,,,
null,"<img src=""stim_listB/touch7.gif""</stim_listB>",,html-keyboard-response,247,2047507,0.0-17.0-1.5,76643,List1B,black,man,,,,null,,,,
null,is touching,,html-keyboard-response,248,2049508,0.0-17.0-2.5,76643,List1B,black,man,,,,null,,,,
10665,,,survey-text,249,2060174,0.0-17.0-3.5,76643,List1B,black,man,,,,,"{""Q0"":""Kate is touching jane""}","<img src=""stim_listB/touch7.gif""</stim_listB>",is touching,
null,"<div style=""font-size:60px;"">+</div>",,html-keyboard-response,250,2060678,0.0-17.0-0.6,76643,List1B,black,man,,,,null,,,,
null,"<img src=""stim_listB/talk5.gif""</stim_listB>",,html-keyboard-response,251,2062681,0.0-17.0-1.6,76643,List1B,black,man,,,,null,,,,
null,is talking to,,html-keyboard-response,252,2064682,0.0-17.0-2.6,76643,List1B,black,man,,,,null,,,,
9776,,,survey-text,253,2074460,0.0-17.0-3.6,76643,List1B,black,man,,,,,"{""Q0"":""Fred is talking to Dave""}","<img src=""stim_listB/talk5.gif""</stim_listB>",is talking to,
null,"<div style=""font-size:60px;"">+</div>",,html-keyboard-response,254,2074962,0.0-17.0-0.7,76643,List1B,black,man,,,,null,,,,
null,"<img src=""stim_listB/dance3.gif""</stim_listB>",,html-keyboard-response,255,2076982,0.0-17.0-1.7,76643,List1B,black,man,,,,null,,,,
null,is dancing with,,html-keyboard-response,256,2078984,0.0-17.0-2.7,76643,List1B,black,man,,,,null,,,,
8446,,,survey-text,257,2087431,0.0-17.0-3.7,76643,List1B,black,man,,,,,"{""Q0"":""Luke is dancing with jane""}","<img src=""stim_listB/dance3.gif""</stim_listB>",is dancing with,
null,"<div style=""font-size:60px;"">+</div>",,html-keyboard-response,258,2087934,0.0-17.0-0.8,76643,List1B,black,man,,,,null,,,,
null,"<img src=""stim_listB/meet4.gif""</stim_listB>",,html-keyboard-response,259,2089936,0.0-17.0-1.8,76643,List1B,black,man,,,,null,,,,
null,are meeting each other,,html-keyboard-response,260,2091940,0.0-17.0-2.8,76643,List1B,black,man,,,,null,,,,
17557,,,survey-text,261,2109497,0.0-17.0-3.8,76643,List1B,black,man,,,,,"{""Q0"":""Ruth and Luke are meeting each other""}","<img src=""stim_listB/meet4.gif""</stim_listB>",are meeting each other,
null,"<div style=""font-size:60px;"">+</div>",,html-keyboard-response,262,2109999,0.0-17.0-0.9,76643,List1B,black,man,,,,null,,,,
null,"<img src=""stim_listB/argue7.gif""</stim_listB>",,html-keyboard-response,263,2112002,0.0-17.0-1.9,76643,List1B,black,man,,,,null,,,,
null,is arguing with,,html-keyboard-response,264,2114003,0.0-17.0-2.9,76643,List1B,black,man,,,,null,,,,
10634,,,survey-text,265,2124639,0.0-17.0-3.9,76643,List1B,black,man,,,,,"{""Q0"":""Kate is arguing with Ruth""}","<img src=""stim_listB/argue7.gif""</stim_listB>",is arguing with,
null,"<div style=""font-size:60px;"">+</div>",,html-keyboard-response,266,2125140,0.0-17.0-0.10,76643,List1B,black,man,,,,null,,,,
null,"<img src=""stim_listB/dance4.gif""</stim_listB>",,html-keyboard-response,267,2127142,0.0-17.0-1.10,76643,List1B,black,man,,,,null,,,,
null,are dancing with each other,,html-keyboard-response,268,2129143,0.0-17.0-2.10,76643,List1B,black,man,,,,null,,,,
11037,,,survey-text,269,2140181,0.0-17.0-3.10,76643,List1B,black,man,,,,,"{""Q0"":""Ruth and Dave are dancing with each other""}","<img src=""stim_listB/dance4.gif""</stim_listB>",are dancing with each other,
null,"<div style=""font-size:60px;"">+</div>",,html-keyboard-response,270,2140685,0.0-17.0-0.11,76643,List1B,black,man,,,,null,,,,
null,"<img src=""stim_listB/shout5.gif""</stim_listB>",,html-keyboard-response,271,2142687,0.0-17.0-1.11,76643,List1B,black,man,,,,null,,,,
null,is shouting at,,html-keyboard-response,272,2144688,0.0-17.0-2.11,76643,List1B,black,man,,,,null,,,,
7497,,,survey-text,273,2152186,0.0-17.0-3.11,76643,List1B,black,man,,,,,"{""Q0"":""Fred is shouting at Luke""}","<img src=""stim_listB/shout5.gif""</stim_listB>",is shouting at,
null,"<div style=""font-size:60px;"">+</div>",,html-keyboard-response,274,2152691,0.0-17.0-0.12,76643,List1B,black,man,,,,null,,,,
null,"<img src=""stim_listB/fight5.gif""</stim_listB>",,html-keyboard-response,275,2154701,0.0-17.0-1.12,76643,List1B,black,man,,,,null,,,,
null,is fighting,,html-keyboard-response,276,2156702,0.0-17.0-2.12,76643,List1B,black,man,,,,null,,,,
7204,,,survey-text,277,2163908,0.0-17.0-3.12,76643,List1B,black,man,,,,,"{""Q0"":""Mike is fighting Dave""}","<img src=""stim_listB/fight5.gif""</stim_listB>",is fighting,
null,"<div style=""font-size:60px;"">+</div>",,html-keyboard-response,278,2164410,0.0-17.0-0.13,76643,List1B,black,man,,,,null,,,,
null,"<img src=""stim_listB/meet5.gif""</stim_listB>",,html-keyboard-response,279,2166412,0.0-17.0-1.13,76643,List1B,black,man,,,,null,,,,
null,is meeting,,html-keyboard-response,280,2168413,0.0-17.0-2.13,76643,List1B,black,man,,,,null,,,,
9055,,,survey-text,281,2177468,0.0-17.0-3.13,76643,List1B,black,man,,,,,"{""Q0"":""Mike is meeting Dave""}","<img src=""stim_listB/meet5.gif""</stim_listB>",is meeting,
null,"<div style=""font-size:60px;"">+</div>",,html-keyboard-response,282,2177970,0.0-17.0-0.14,76643,List1B,black,man,,,,null,,,,
null,"<img src=""stim_listB/shout8.gif""</stim_listB>",,html-keyboard-response,283,2179976,0.0-17.0-1.14,76643,List1B,black,man,,,,null,,,,
null,are shouting at each other,,html-keyboard-response,284,2181977,0.0-17.0-2.14,76643,List1B,black,man,,,,null,,,,
12534,,,survey-text,285,2194511,0.0-17.0-3.14,76643,List1B,black,man,,,,,"{""Q0"":""Kate and Jane are shouting at each other""}","<img src=""stim_listB/shout8.gif""</stim_listB>",are shouting at each other,
null,"<div style=""font-size:60px;"">+</div>",,html-keyboard-response,286,2195012,0.0-17.0-0.15,76643,List1B,black,man,,,,null,,,,
null,"<img src=""stim_listB/shout4.gif""</stim_listB>",,html-keyboard-response,287,2197015,0.0-17.0-1.15,76643,List1B,black,man,,,,null,,,,
null,are shouting at each other,,html-keyboard-response,288,2199016,0.0-17.0-2.15,76643,List1B,black,man,,,,null,,,,
7260,,,survey-text,289,2206278,0.0-17.0-3.15,76643,List1B,black,man,,,,,"{""Q0"":""Jane and dave are shouting at each other""}","<img src=""stim_listB/shout4.gif""</stim_listB>",are shouting at each other,
null,"<div style=""font-size:60px;"">+</div>",,html-keyboard-response,290,2206782,0.0-17.0-0.16,76643,List1B,black,man,,,,null,,,,
null,"<img src=""stim_listB/meet1.gif""</stim_listB>",,html-keyboard-response,291,2208784,0.0-17.0-1.16,76643,List1B,black,man,,,,null,,,,
null,is meeting,,html-keyboard-response,292,2210786,0.0-17.0-2.16,76643,List1B,black,man,,,,null,,,,
16931,,,survey-text,293,2227717,0.0-17.0-3.16,76643,List1B,black,man,,,,,"{""Q0"":""Kate is meeting mike""}","<img src=""stim_listB/meet1.gif""</stim_listB>",is meeting,
null,"<div style=""font-size:60px;"">+</div>",,html-keyboard-response,294,2228220,0.0-17.0-0.17,76643,List1B,black,man,,,,null,,,,
null,"<img src=""stim_listB/talk6.gif""</stim_listB>",,html-keyboard-response,295,2230223,0.0-17.0-1.17,76643,List1B,black,man,,,,null,,,,
null,are talking to each other,,html-keyboard-response,296,2232225,0.0-17.0-2.17,76643,List1B,black,man,,,,null,,,,
10805,,,survey-text,297,2243031,0.0-17.0-3.17,76643,List1B,black,man,,,,,"{""Q0"":""mike and luke are talking to each other""}","<img src=""stim_listB/talk6.gif""</stim_listB>",are talking to each other,
null,"<div style=""font-size:60px;"">+</div>",,html-keyboard-response,298,2243536,0.0-17.0-0.18,76643,List1B,black,man,,,,null,,,,
null,"<img src=""stim_listB/shout1.gif""</stim_listB>",,html-keyboard-response,299,2245540,0.0-17.0-1.18,76643,List1B,black,man,,,,null,,,,
null,is shouting at,,html-keyboard-response,300,2247541,0.0-17.0-2.18,76643,List1B,black,man,,,,null,,,,
13336,,,survey-text,301,2260879,0.0-17.0-3.18,76643,List1B,black,man,,,,,"{""Q0"":""Beth is shouting at Fred""}","<img src=""stim_listB/shout1.gif""</stim_listB>",is shouting at,
null,"<div style=""font-size:60px;"">+</div>",,html-keyboard-response,302,2261380,0.0-17.0-0.19,76643,List1B,black,man,,,,null,,,,
null,"<img src=""stim_listB/kiss1.gif""</stim_listB>",,html-keyboard-response,303,2263383,0.0-17.0-1.19,76643,List1B,black,man,,,,null,,,,
null,is kissing,,html-keyboard-response,304,2265386,0.0-17.0-2.19,76643,List1B,black,man,,,,null,,,,
9260,,,survey-text,305,2274647,0.0-17.0-3.19,76643,List1B,black,man,,,,,"{""Q0"":""Beth is kissing Fred""}","<img src=""stim_listB/kiss1.gif""</stim_listB>",is kissing,
4454,"<img src='img/portrait_matrix_list1.JPG' style='width:900px;height:500px;''></img><p>If you have memorised all the portraits and names and are ready to start, press Continue.</p><p><strong>Please note: Your memory of these faces will be tested 4 times during this experiment.</strong></p>",0,html-button-response,306,2279107,0.0-18.0-0.0,76643,List1B,black,man,,,,,,,,
2774,"<img src=""portrait/BW1.jpg""style=""width:400px;height:400px;""></img>",0,html-button-response,307,2282945,0.0-18.0-1.0,76643,List1B,black,man,,TRUE,0,,,,,
null,CORRECT,,html-keyboard-response,308,2284449,0.0-18.0-2.0-0.0,76643,List1B,black,man,,,,null,,,,
5361,"<img src=""portrait/WM2.jpg""style=""width:400px;height:400px;""></img>",7,html-button-response,309,2289811,0.0-18.0-4.0,76643,List1B,black,man,,TRUE,7,,,,,
null,CORRECT,,html-keyboard-response,310,2291312,0.0-18.0-5.0-0.0,76643,List1B,black,man,,,,null,,,,
2602,"<img src=""portrait/BM2.jpg""style=""width:400px;height:400px;""></img>",5,html-button-response,311,2293932,0.0-18.0-7.0,76643,List1B,black,man,,TRUE,5,,,,,
null,CORRECT,,html-keyboard-response,312,2295440,0.0-18.0-8.0-0.0,76643,List1B,black,man,,,,null,,,,
1812,"<img src=""portrait/BW2.jpg""style=""width:400px;height:400px;""></img>",2,html-button-response,313,2297254,0.0-18.0-10.0,76643,List1B,black,man,,TRUE,2,,,,,
null,CORRECT,,html-keyboard-response,314,2298764,0.0-18.0-11.0-0.0,76643,List1B,black,man,,,,null,,,,
2441,"<img src=""portrait/WM1.jpg""style=""width:400px;height:400px;""></img>",6,html-button-response,315,2301208,0.0-18.0-13.0,76643,List1B,black,man,,TRUE,6,,,,,
null,CORRECT,,html-keyboard-response,316,2302713,0.0-18.0-14.0-0.0,76643,List1B,black,man,,,,null,,,,
2151,"<img src=""portrait/BM1.jpg""style=""width:400px;height:400px;""></img>",4,html-button-response,317,2304866,0.0-18.0-16.0,76643,List1B,black,man,,TRUE,4,,,,,
null,CORRECT,,html-keyboard-response,318,2306371,0.0-18.0-17.0-0.0,76643,List1B,black,man,,,,null,,,,
2195,"<img src=""portrait/WW1.jpg""style=""width:400px;height:400px;""></img>",1,html-button-response,319,2308568,0.0-18.0-19.0,76643,List1B,black,man,,TRUE,1,,,,,
null,CORRECT,,html-keyboard-response,320,2310075,0.0-18.0-20.0-0.0,76643,List1B,black,man,,,,null,,,,
2650,"<img src=""portrait/WW2.jpg""style=""width:400px;height:400px;""></img>",3,html-button-response,321,2312726,0.0-18.0-22.0,76643,List1B,black,man,,TRUE,3,,,,,
null,CORRECT,,html-keyboard-response,322,2314233,0.0-18.0-23.0-0.0,76643,List1B,black,man,,,,null,,,,
1630,<p>You got 8 out of 8 right first time. Press Continue.</p>,0,html-button-response,323,2315868,0.0-18.0-25.0,76643,List1B,black,man,,,,,,,,
null,"<div style=""font-size:60px;"">+</div>",,html-keyboard-response,324,2317381,0.0-19.0-0.0,76643,List1B,black,man,,,,null,,,,
null,"<img src=""stim_listB/meet2.gif""</stim_listB>",,html-keyboard-response,325,2319386,0.0-19.0-1.0,76643,List1B,black,man,,,,null,,,,
null,are meeting each other,,html-keyboard-response,326,2321387,0.0-19.0-2.0,76643,List1B,black,man,,,,null,,,,
7468,,,survey-text,327,2328857,0.0-19.0-3.0,76643,List1B,black,man,,,,,"{""Q0"":""Fred and Beth are meeting each other""}","<img src=""stim_listB/meet2.gif""</stim_listB>",are meeting each other,
null,"<div style=""font-size:60px;"">+</div>",,html-keyboard-response,328,2329360,0.0-19.0-0.1,76643,List1B,black,man,,,,null,,,,
null,"<img src=""stim_listB/touch3.gif""</stim_listB>",,html-keyboard-response,329,2331366,0.0-19.0-1.1,76643,List1B,black,man,,,,null,,,,
null,is touching,,html-keyboard-response,330,2333371,0.0-19.0-2.1,76643,List1B,black,man,,,,null,,,,
8618,,,survey-text,331,2341990,0.0-19.0-3.1,76643,List1B,black,man,,,,,"{""Q0"":""Dave is touching Jane""}","<img src=""stim_listB/touch3.gif""</stim_listB>",is touching,
null,"<div style=""font-size:60px;"">+</div>",,html-keyboard-response,332,2342493,0.0-19.0-0.2,76643,List1B,black,man,,,,null,,,,
null,"<img src=""stim_listB/fight3.gif""</stim_listB>",,html-keyboard-response,333,2344498,0.0-19.0-1.2,76643,List1B,black,man,,,,null,,,,
null,is fighting,,html-keyboard-response,334,2346499,0.0-19.0-2.2,76643,List1B,black,man,,,,null,,,,
6566,,,survey-text,335,2353066,0.0-19.0-3.2,76643,List1B,black,man,,,,,"{""Q0"":""Jane is fighting Dave""}","<img src=""stim_listB/fight3.gif""</stim_listB>",is fighting,
null,"<div style=""font-size:60px;"">+</div>",,html-keyboard-response,336,2353568,0.0-19.0-0.3,76643,List1B,black,man,,,,null,,,,
null,"<img src=""stim_listB/dance2.gif""</stim_listB>",,html-keyboard-response,337,2355573,0.0-19.0-1.3,76643,List1B,black,man,,,,null,,,,
null,are dancing with each other,,html-keyboard-response,338,2357574,0.0-19.0-2.3,76643,List1B,black,man,,,,null,,,,
8728,,,survey-text,339,2366303,0.0-19.0-3.3,76643,List1B,black,man,,,,,"{""Q0"":""Mike and Beth are dancing with each other""}","<img src=""stim_listB/dance2.gif""</stim_listB>",are dancing with each other,
null,"<div style=""font-size:60px;"">+</div>",,html-keyboard-response,340,2366806,0.0-19.0-0.4,76643,List1B,black,man,,,,null,,,,
null,"<img src=""stim_listB/hug2.gif""</stim_listB>",,html-keyboard-response,341,2368807,0.0-19.0-1.4,76643,List1B,black,man,,,,null,,,,
null,are hugging each other,,html-keyboard-response,342,2370809,0.0-19.0-2.4,76643,List1B,black,man,,,,null,,,,
9554,,,survey-text,343,2380364,0.0-19.0-3.4,76643,List1B,black,man,,,,,"{""Q0"":""Mike and Kate are hugging each other""}","<img src=""stim_listB/hug2.gif""</stim_listB>",are hugging each other,
null,"<div style=""font-size:60px;"">+</div>",,html-keyboard-response,344,2380867,0.0-19.0-0.5,76643,List1B,black,man,,,,null,,,,
null,"<img src=""stim_listB/fight6.gif""</stim_listB>",,html-keyboard-response,345,2382870,0.0-19.0-1.5,76643,List1B,black,man,,,,null,,,,
null,are fighting each other,,html-keyboard-response,346,2384872,0.0-19.0-2.5,76643,List1B,black,man,,,,null,,,,
11437,,,survey-text,347,2396310,0.0-19.0-3.5,76643,List1B,black,man,,,,,"{""Q0"":""Fred and Luke are fighting each other""}","<img src=""stim_listB/fight6.gif""</stim_listB>",are fighting each other,
null,"<div style=""font-size:60px;"">+</div>",,html-keyboard-response,348,2396814,0.0-19.0-0.6,76643,List1B,black,man,,,,null,,,,
null,"<img src=""stim_listB/argue4.gif""</stim_listB>",,html-keyboard-response,349,2398816,0.0-19.0-1.6,76643,List1B,black,man,,,,null,,,,
null,are arguing with each other,,html-keyboard-response,350,2400817,0.0-19.0-2.6,76643,List1B,black,man,,,,null,,,,
11670,,,survey-text,351,2412488,0.0-19.0-3.6,76643,List1B,black,man,,,,,"{""Q0"":""Luke and Jane are arguing with each other""}","<img src=""stim_listB/argue4.gif""</stim_listB>",are arguing with each other,
null,"<div style=""font-size:60px;"">+</div>",,html-keyboard-response,352,2412989,0.0-19.0-0.7,76643,List1B,black,man,,,,null,,,,
null,"<img src=""stim_listB/hug3.gif""</stim_listB>",,html-keyboard-response,353,2414991,0.0-19.0-1.7,76643,List1B,black,man,,,,null,,,,
null,is hugging,,html-keyboard-response,354,2416992,0.0-19.0-2.7,76643,List1B,black,man,,,,null,,,,
11479,,,survey-text,355,2428472,0.0-19.0-3.7,76643,List1B,black,man,,,,,"{""Q0"":""Ruth is hugging luke""}","<img src=""stim_listB/hug3.gif""</stim_listB>",is hugging,
null,"<div style=""font-size:60px;"">+</div>",,html-keyboard-response,356,2428974,0.0-19.0-0.8,76643,List1B,black,man,,,,null,,,,
null,"<img src=""stim_listB/hug8.gif""</stim_listB>",,html-keyboard-response,357,2430979,0.0-19.0-1.8,76643,List1B,black,man,,,,null,,,,
null,are hugging each other,,html-keyboard-response,358,2432984,0.0-19.0-2.8,76643,List1B,black,man,,,,null,,,,
8066,,,survey-text,359,2441052,0.0-19.0-3.8,76643,List1B,black,man,,,,,"{""Q0"":""Jane and kate are hugging each other""}","<img src=""stim_listB/hug8.gif""</stim_listB>",are hugging each other,
null,"<div style=""font-size:60px;"">+</div>",,html-keyboard-response,360,2441554,0.0-19.0-0.9,76643,List1B,black,man,,,,null,,,,
null,"<img src=""stim_listB/shout6.gif""</stim_listB>",,html-keyboard-response,361,2443558,0.0-19.0-1.9,76643,List1B,black,man,,,,null,,,,
null,are shouting at each other,,html-keyboard-response,362,2445561,0.0-19.0-2.9,76643,List1B,black,man,,,,null,,,,
7070,,,survey-text,363,2452632,0.0-19.0-3.9,76643,List1B,black,man,,,,,"{""Q0"":""Dave and mike are shouting at each other""}","<img src=""stim_listB/shout6.gif""</stim_listB>",are shouting at each other,
null,"<div style=""font-size:60px;"">+</div>",,html-keyboard-response,364,2453147,0.0-19.0-0.10,76643,List1B,black,man,,,,null,,,,
null,"<img src=""stim_listB/hug4.gif""</stim_listB>",,html-keyboard-response,365,2455152,0.0-19.0-1.10,76643,List1B,black,man,,,,null,,,,
null,are hugging each other,,html-keyboard-response,366,2457154,0.0-19.0-2.10,76643,List1B,black,man,,,,null,,,,
8013,,,survey-text,367,2465169,0.0-19.0-3.10,76643,List1B,black,man,,,,,"{""Q0"":""Dave and Jane are hugging each other""}","<img src=""stim_listB/hug4.gif""</stim_listB>",are hugging each other,
null,"<div style=""font-size:60px;"">+</div>",,html-keyboard-response,368,2465670,0.0-19.0-0.11,76643,List1B,black,man,,,,null,,,,
null,"<img src=""stim_listB/argue3.gif""</stim_listB>",,html-keyboard-response,369,2467673,0.0-19.0-1.11,76643,List1B,black,man,,,,null,,,,
null,is arguing with,,html-keyboard-response,370,2469674,0.0-19.0-2.11,76643,List1B,black,man,,,,null,,,,
7735,,,survey-text,371,2477409,0.0-19.0-3.11,76643,List1B,black,man,,,,,"{""Q0"":""Dave is arguing with Ruth""}","<img src=""stim_listB/argue3.gif""</stim_listB>",is arguing with,
null,"<div style=""font-size:60px;"">+</div>",,html-keyboard-response,372,2477912,0.0-19.0-0.12,76643,List1B,black,man,,,,null,,,,
null,"<img src=""stim_listB/marry3.gif""</stim_listB>",,html-keyboard-response,373,2479917,0.0-19.0-1.12,76643,List1B,black,man,,,,null,,,,
null,is marrying,,html-keyboard-response,374,2481918,0.0-19.0-2.12,76643,List1B,black,man,,,,null,,,,
9382,,,survey-text,375,2491301,0.0-19.0-3.12,76643,List1B,black,man,,,,,"{""Q0"":""Dave is marrying Ruth""}","<img src=""stim_listB/marry3.gif""</stim_listB>",is marrying,
null,"<div style=""font-size:60px;"">+</div>",,html-keyboard-response,376,2491803,0.0-19.0-0.13,76643,List1B,black,man,,,,null,,,,
null,"<img src=""stim_listB/touch1.gif""</stim_listB>",,html-keyboard-response,377,2493807,0.0-19.0-1.13,76643,List1B,black,man,,,,null,,,,
null,is touching,,html-keyboard-response,378,2495808,0.0-19.0-2.13,76643,List1B,black,man,,,,null,,,,
8891,,,survey-text,379,2504704,0.0-19.0-3.13,76643,List1B,black,man,,,,,"{""Q0"":""Kate is touching mike""}","<img src=""stim_listB/touch1.gif""</stim_listB>",is touching,
null,"<div style=""font-size:60px;"">+</div>",,html-keyboard-response,380,2505205,0.0-19.0-0.14,76643,List1B,black,man,,,,null,,,,
null,"<img src=""stim_listB/meet3.gif""</stim_listB>",,html-keyboard-response,381,2507209,0.0-19.0-1.14,76643,List1B,black,man,,,,null,,,,
null,is meeting,,html-keyboard-response,382,2509210,0.0-19.0-2.14,76643,List1B,black,man,,,,null,,,,
9379,,,survey-text,383,2518590,0.0-19.0-3.14,76643,List1B,black,man,,,,,"{""Q0"":""Jane is meeting Dave""}","<img src=""stim_listB/meet3.gif""</stim_listB>",is meeting,
null,"<div style=""font-size:60px;"">+</div>",,html-keyboard-response,384,2519110,0.0-19.0-0.15,76643,List1B,black,man,,,,null,,,,
null,"<img src=""stim_listB/marry1.gif""</stim_listB>",,html-keyboard-response,385,2521111,0.0-19.0-1.15,76643,List1B,black,man,,,,null,,,,
null,is marrying,,html-keyboard-response,386,2523150,0.0-19.0-2.15,76643,List1B,black,man,,,,null,,,,
7037,,,survey-text,387,2530188,0.0-19.0-3.15,76643,List1B,black,man,,,,,"{""Q0"":""Beth is marrying mike""}","<img src=""stim_listB/marry1.gif""</stim_listB>",is marrying,
null,"<div style=""font-size:60px;"">+</div>",,html-keyboard-response,388,2530691,0.0-19.0-0.16,76643,List1B,black,man,,,,null,,,,
null,"<img src=""stim_listB/talk7.gif""</stim_listB>",,html-keyboard-response,389,2532692,0.0-19.0-1.16,76643,List1B,black,man,,,,null,,,,
null,is talking to,,html-keyboard-response,390,2534696,0.0-19.0-2.16,76643,List1B,black,man,,,,null,,,,
8852,,,survey-text,391,2543549,0.0-19.0-3.16,76643,List1B,black,man,,,,,"{""Q0"":""Jane is talking to beth""}","<img src=""stim_listB/talk7.gif""</stim_listB>",is talking to,
null,"<div style=""font-size:60px;"">+</div>",,html-keyboard-response,392,2544052,0.0-19.0-0.17,76643,List1B,black,man,,,,null,,,,
null,"<img src=""stim_listB/argue2.gif""</stim_listB>",,html-keyboard-response,393,2546054,0.0-19.0-1.17,76643,List1B,black,man,,,,null,,,,
null,are arguing with each other,,html-keyboard-response,394,2548058,0.0-19.0-2.17,76643,List1B,black,man,,,,null,,,,
10177,,,survey-text,395,2558235,0.0-19.0-3.17,76643,List1B,black,man,,,,,"{""Q0"":""Fred and Kate are arguing with each other""}","<img src=""stim_listB/argue2.gif""</stim_listB>",are arguing with each other,
null,"<div style=""font-size:60px;"">+</div>",,html-keyboard-response,396,2558740,0.0-19.0-0.18,76643,List1B,black,man,,,,null,,,,
null,"<img src=""stim_listB/argue8.gif""</stim_listB>",,html-keyboard-response,397,2560743,0.0-19.0-1.18,76643,List1B,black,man,,,,null,,,,
null,are arguing with each other,,html-keyboard-response,398,2563055,0.0-19.0-2.18,76643,List1B,black,man,,,,null,,,,
9327,,,survey-text,399,2572401,0.0-19.0-3.18,76643,List1B,black,man,,,,,"{""Q0"":""Jane and beth are arguing with each other""}","<img src=""stim_listB/argue8.gif""</stim_listB>",are arguing with each other,
null,"<div style=""font-size:60px;"">+</div>",,html-keyboard-response,400,2572904,0.0-19.0-0.19,76643,List1B,black,man,,,,null,,,,
null,"<img src=""stim_listB/fight1.gif""</stim_listB>",,html-keyboard-response,401,2574908,0.0-19.0-1.19,76643,List1B,black,man,,,,null,,,,
null,is fighting,,html-keyboard-response,402,2576909,0.0-19.0-2.19,76643,List1B,black,man,,,,null,,,,
10253,,,survey-text,403,2587164,0.0-19.0-3.19,76643,List1B,black,man,,,,,"{""Q0"":""kate is fighting mike""}","<img src=""stim_listB/fight1.gif""</stim_listB>",is fighting,
4062,<p>Thank you for completing that task.</p><p>The final part of this session is a short questionnaire.</p><p>Press Continue.</p>,0,html-button-response,404,2591234,0.0-20.0,76643,List1B,black,man,,,,,,,,
47442,,,survey-text,405,2639689,0.0-21.0,76643,List1B,black,man,,,,,"{""Q0"":""33"",""Q1"":""English"",""Q2"":""English"",""Q3"":""United Kingdom"",""Q4"":""Black"",""Q5"":""Male""}",,,demographics
68247,,,survey-likert,406,2707998,0.0-22.0,76643,List1B,black,man,,,,,"{""Q0"":6,""Q1"":6,""Q2"":6,""Q3"":6,""Q4"":6,""Q5"":6,""Q6"":6,""Q7"":6,""Q8"":6,""Q9"":6,""Q10"":5,""Q11"":5,""Q12"":5,""Q13"":5}",,,likert_race
28587,,,survey-likert,407,2736601,0.0-23.0,76643,List1B,black,man,,,,,"{""Q0"":6,""Q1"":6,""Q2"":6,""Q3"":6,""Q4"":6,""Q5"":6,""Q6"":6,""Q7"":6,""Q8"":6,""Q9"":6,""Q10"":6,""Q11"":6,""Q12"":6,""Q13"":6}",,,likert_gender
16306,,,survey-text,408,2752917,0.0-24.0,76643,List1B,black,man,,,,,"{""Q0"":""ccc""}",,,worker_id
6225,,,external-html,409,2759273,0.0-25.0,76643,List1B,black,man,debrief.html,,,,,,,
