rt,stimulus,button_pressed,trial_type,trial_index,time_elapsed,internal_node_id,subject,list,ppt_race,ppt_gender,url,first_guess,correct,key_press,responses,image_type,phrase_type,test_part
3233,Welcome to the experiment. Press Continue to begin.,0,html-button-response,0,3236,0.0-0.0,76790,List2B,white,woman,,,,,,,,
6772,,,external-html,1,11020,0.0-1.0,76790,List2B,white,woman,consent.html,,,,,,,
2105,"<p>On the next page, you will see portraits of 8 people and their names.</p><p>Your first task is to take a few minutes to memorise the names of these people.</p><p>You will have to recall their names during the rest of the experiment, so it is</p><p>essential that you try to memorise these people and their names as best as you can.</p><br><p><strong>You will then be tested on your memory of these names and portraits.</strong></p><br><p>The experiment will start after you have completed this memory test.</p><br><p>Ready?</p>",0,html-button-response,2,13126,0.0-2.0,76790,List2B,white,woman,,,,,,,,
9392,"<img src='img/portrait_matrix_list2.JPG' style='width:900px;height:500px;''></img><p>If you have memorised all the portraits and names and are ready to start, press Continue.</p><p><strong>Please note: Your memory of these faces will be tested 4 times during this experiment.</strong></p>",0,html-button-response,3,23533,0.0-3.0-0.0,76790,List2B,white,woman,,,,,,,,
4457,"<img src=""portrait/BW1.jpg""style=""width:400px;height:400px;""></img>",0,html-button-response,4,29005,0.0-3.0-1.0,76790,List2B,white,woman,,TRUE,0,,,,,
null,CORRECT,,html-keyboard-response,5,30537,0.0-3.0-2.0-0.0,76790,List2B,white,woman,,,,null,,,,
1794,"<img src=""portrait/WW2.jpg""style=""width:400px;height:400px;""></img>",3,html-button-response,6,32332,0.0-3.0-4.0,76790,List2B,white,woman,,TRUE,3,,,,,
null,CORRECT,,html-keyboard-response,7,33861,0.0-3.0-5.0-0.0,76790,List2B,white,woman,,,,null,,,,
1888,"<img src=""portrait/WW1.jpg""style=""width:400px;height:400px;""></img>",1,html-button-response,8,35753,0.0-3.0-7.0,76790,List2B,white,woman,,TRUE,1,,,,,
null,CORRECT,,html-keyboard-response,9,37280,0.0-3.0-8.0-0.0,76790,List2B,white,woman,,,,null,,,,
2169,"<img src=""portrait/BM2.jpg""style=""width:400px;height:400px;""></img>",5,html-button-response,10,39450,0.0-3.0-10.0,76790,List2B,white,woman,,TRUE,5,,,,,
null,CORRECT,,html-keyboard-response,11,40979,0.0-3.0-11.0-0.0,76790,List2B,white,woman,,,,null,,,,
2916,"<img src=""portrait/BM1.jpg""style=""width:400px;height:400px;""></img>",4,html-button-response,12,43898,0.0-3.0-13.0,76790,List2B,white,woman,,TRUE,4,,,,,
null,CORRECT,,html-keyboard-response,13,45429,0.0-3.0-14.0-0.0,76790,List2B,white,woman,,,,null,,,,
4055,"<img src=""portrait/WM2.jpg""style=""width:400px;height:400px;""></img>",7,html-button-response,14,49485,0.0-3.0-16.0,76790,List2B,white,woman,,TRUE,7,,,,,
null,CORRECT,,html-keyboard-response,15,51014,0.0-3.0-17.0-0.0,76790,List2B,white,woman,,,,null,,,,
1954,"<img src=""portrait/WM1.jpg""style=""width:400px;height:400px;""></img>",6,html-button-response,16,52972,0.0-3.0-19.0,76790,List2B,white,woman,,TRUE,6,,,,,
null,CORRECT,,html-keyboard-response,17,54500,0.0-3.0-20.0-0.0,76790,List2B,white,woman,,,,null,,,,
1662,"<img src=""portrait/BW2.jpg""style=""width:400px;height:400px;""></img>",2,html-button-response,18,56163,0.0-3.0-22.0,76790,List2B,white,woman,,TRUE,2,,,,,
null,CORRECT,,html-keyboard-response,19,57695,0.0-3.0-23.0-0.0,76790,List2B,white,woman,,,,null,,,,
1509,<p>You got 8 out of 8 right first time. Press Continue.</p>,0,html-button-response,20,59206,0.0-3.0-25.0,76790,List2B,white,woman,,,,,,,,
5568,"<p>In this experiment, you will view photographs of the people from the memory game interacting.</p><p>By using the <strong>exact</strong> phrase given <i>after</i> the photograph appears and recalling the correct names of the people in the photographs, form a sentence describing the interaction. You do not need to capitalise names.</p><p>Type your answer in the space provided. Please complete every sentence before moving onto the next trial.</p><p>You will only have a few seconds to memorise each given photograph and phrase before you can respond, so try your best to focus.</p><p>An example is given below. Press 'Continue' when you are ready.</p><img src='img/speaking_example_v2.jpg' style='width:800px;height:460px;''></img>",0,html-button-response,21,65778,0.0-4.0,76790,List2B,white,woman,,,,,,,,
2090,"<p>Before the experiment starts, you will watch two example trials. Press 'Continue'.</p>",0,html-button-response,22,68880,0.0-5.0,76790,List2B,white,woman,,,,,,,,
null,<img src='img/speaking_WW.gif'></img>,,html-keyboard-response,23,71900,0.0-6.0,76790,List2B,white,woman,,,,null,,,,
null,<p>is speaking to</p>,,html-keyboard-response,24,73898,0.0-7.0,76790,List2B,white,woman,,,,null,,,,
4178,<p><b>Answer:</b> jane is speaking to ruth</p>,0,html-button-response,25,78079,0.0-8.0,76790,List2B,white,woman,,,,,,,,
null,<img src='img/pointing_BM.gif'></img>,,html-keyboard-response,26,81097,0.0-9.0,76790,List2B,white,woman,,,,null,,,,
null,<p>are pointing at each other</p>,,html-keyboard-response,27,83092,0.0-10.0,76790,List2B,white,woman,,,,null,,,,
4433,<p><b>Answer:</b> fred and mike are pointing at each other</p>,0,html-button-response,28,87526,0.0-11.0,76790,List2B,white,woman,,,,,,,,
2806,"<p>Ready to start the experiment?</p><br><p><strong>Remember to describe the picture using a full sentence,</strong></p><p><strong>that combines the names of the people with the given phrase.</strong></p><p><strong>If you do not do this correctly you will not be paid.</strong></p><p><strong> You do not need to capitalise names or use punctuation.</strong></p><br><p>Press 'Continue' to begin.</p>",0,html-button-response,29,91335,0.0-12.0,76790,List2B,white,woman,,,,,,,,
null,"<div style=""font-size:60px;"">+</div>",,html-keyboard-response,30,92851,0.0-13.0-0.0,76790,List2B,white,woman,,,,null,,,,
null,"<img src=""stim_listB/dance8.gif""</stim_listB>",,html-keyboard-response,31,94863,0.0-13.0-1.0,76790,List2B,white,woman,,,,null,,,,
null,are dancing with each other,,html-keyboard-response,32,96850,0.0-13.0-2.0,76790,List2B,white,woman,,,,null,,,,
15716,,,survey-text,33,112569,0.0-13.0-3.0,76790,List2B,white,woman,,,,,"{""Q0"":""Beth and Jane are dancing with each other""}","<img src=""stim_listB/dance8.gif""</stim_listB>",are dancing with each other,
null,"<div style=""font-size:60px;"">+</div>",,html-keyboard-response,34,113083,0.0-13.0-0.1,76790,List2B,white,woman,,,,null,,,,
null,"<img src=""stim_listB/touch1.gif""</stim_listB>",,html-keyboard-response,35,115098,0.0-13.0-1.1,76790,List2B,white,woman,,,,null,,,,
null,is touching,,html-keyboard-response,36,117091,0.0-13.0-2.1,76790,List2B,white,woman,,,,null,,,,
21085,,,survey-text,37,138179,0.0-13.0-3.1,76790,List2B,white,woman,,,,,"{""Q0"":""Jane is touching Dave""}","<img src=""stim_listB/touch1.gif""</stim_listB>",is touching,
null,"<div style=""font-size:60px;"">+</div>",,html-keyboard-response,38,138693,0.0-13.0-0.2,76790,List2B,white,woman,,,,null,,,,
null,"<img src=""stim_listB/dance1.gif""</stim_listB>",,html-keyboard-response,39,140702,0.0-13.0-1.2,76790,List2B,white,woman,,,,null,,,,
null,is dancing with,,html-keyboard-response,40,142695,0.0-13.0-2.2,76790,List2B,white,woman,,,,null,,,,
16858,,,survey-text,41,159554,0.0-13.0-3.2,76790,List2B,white,woman,,,,,"{""Q0"":""Luke is dancing with jane""}","<img src=""stim_listB/dance1.gif""</stim_listB>",is dancing with,
null,"<div style=""font-size:60px;"">+</div>",,html-keyboard-response,42,160069,0.0-13.0-0.3,76790,List2B,white,woman,,,,null,,,,
null,"<img src=""stim_listB/hug1.gif""</stim_listB>",,html-keyboard-response,43,162082,0.0-13.0-1.3,76790,List2B,white,woman,,,,null,,,,
null,is hugging,,html-keyboard-response,44,164077,0.0-13.0-2.3,76790,List2B,white,woman,,,,null,,,,
10103,,,survey-text,45,174182,0.0-13.0-3.3,76790,List2B,white,woman,,,,,"{""Q0"":""Like is hugging Ruth""}","<img src=""stim_listB/hug1.gif""</stim_listB>",is hugging,
null,"<div style=""font-size:60px;"">+</div>",,html-keyboard-response,46,174697,0.0-13.0-0.4,76790,List2B,white,woman,,,,null,,,,
null,"<img src=""stim_listB/hug6.gif""</stim_listB>",,html-keyboard-response,47,176709,0.0-13.0-1.4,76790,List2B,white,woman,,,,null,,,,
null,are hugging each other,,html-keyboard-response,48,178710,0.0-13.0-2.4,76790,List2B,white,woman,,,,null,,,,
18815,,,survey-text,49,197527,0.0-13.0-3.4,76790,List2B,white,woman,,,,,"{""Q0"":""Dave and Mike are hugging each other""}","<img src=""stim_listB/hug6.gif""</stim_listB>",are hugging each other,
null,"<div style=""font-size:60px;"">+</div>",,html-keyboard-response,50,198039,0.0-13.0-0.5,76790,List2B,white,woman,,,,null,,,,
null,"<img src=""stim_listB/marry8.gif""</stim_listB>",,html-keyboard-response,51,200046,0.0-13.0-1.5,76790,List2B,white,woman,,,,null,,,,
null,are marrying each other,,html-keyboard-response,52,202056,0.0-13.0-2.5,76790,List2B,white,woman,,,,null,,,,
14999,,,survey-text,53,217057,0.0-13.0-3.5,76790,List2B,white,woman,,,,,"{""Q0"":""Ruth and beth are marrying each other""}","<img src=""stim_listB/marry8.gif""</stim_listB>",are marrying each other,
null,"<div style=""font-size:60px;"">+</div>",,html-keyboard-response,54,217564,0.0-13.0-0.6,76790,List2B,white,woman,,,,null,,,,
null,"<img src=""stim_listB/kiss5.gif""</stim_listB>",,html-keyboard-response,55,219576,0.0-13.0-1.6,76790,List2B,white,woman,,,,null,,,,
null,is kissing,,html-keyboard-response,56,221579,0.0-13.0-2.6,76790,List2B,white,woman,,,,null,,,,
11148,,,survey-text,57,232728,0.0-13.0-3.6,76790,List2B,white,woman,,,,,"{""Q0"":""Fred is kissing Luke""}","<img src=""stim_listB/kiss5.gif""</stim_listB>",is kissing,
null,"<div style=""font-size:60px;"">+</div>",,html-keyboard-response,58,233242,0.0-13.0-0.7,76790,List2B,white,woman,,,,null,,,,
null,"<img src=""stim_listB/argue6.gif""</stim_listB>",,html-keyboard-response,59,235256,0.0-13.0-1.7,76790,List2B,white,woman,,,,null,,,,
null,are arguing with each other,,html-keyboard-response,60,237254,0.0-13.0-2.7,76790,List2B,white,woman,,,,null,,,,
20469,,,survey-text,61,257724,0.0-13.0-3.7,76790,List2B,white,woman,,,,,"{""Q0"":""Luke and Mike are arguing with each other""}","<img src=""stim_listB/argue6.gif""</stim_listB>",are arguing with each other,
null,"<div style=""font-size:60px;"">+</div>",,html-keyboard-response,62,258238,0.0-13.0-0.8,76790,List2B,white,woman,,,,null,,,,
null,"<img src=""stim_listB/touch2.gif""</stim_listB>",,html-keyboard-response,63,260240,0.0-13.0-1.8,76790,List2B,white,woman,,,,null,,,,
null,are touching each other,,html-keyboard-response,64,262249,0.0-13.0-2.8,76790,List2B,white,woman,,,,null,,,,
13157,,,survey-text,65,275408,0.0-13.0-3.8,76790,List2B,white,woman,,,,,"{""Q0"":""Luke and Ruth are touching each other""}","<img src=""stim_listB/touch2.gif""</stim_listB>",are touching each other,
null,"<div style=""font-size:60px;"">+</div>",,html-keyboard-response,66,275921,0.0-13.0-0.9,76790,List2B,white,woman,,,,null,,,,
null,"<img src=""stim_listB/dance7.gif""</stim_listB>",,html-keyboard-response,67,277925,0.0-13.0-1.9,76790,List2B,white,woman,,,,null,,,,
null,is dancing with,,html-keyboard-response,68,279924,0.0-13.0-2.9,76790,List2B,white,woman,,,,null,,,,
10269,,,survey-text,69,290194,0.0-13.0-3.9,76790,List2B,white,woman,,,,,"{""Q0"":""Beth is dancing with ruth""}","<img src=""stim_listB/dance7.gif""</stim_listB>",is dancing with,
null,"<div style=""font-size:60px;"">+</div>",,html-keyboard-response,70,290711,0.0-13.0-0.10,76790,List2B,white,woman,,,,null,,,,
null,"<img src=""stim_listB/marry6.gif""</stim_listB>",,html-keyboard-response,71,292719,0.0-13.0-1.10,76790,List2B,white,woman,,,,null,,,,
null,are marrying each other,,html-keyboard-response,72,294723,0.0-13.0-2.10,76790,List2B,white,woman,,,,null,,,,
17919,,,survey-text,73,312644,0.0-13.0-3.10,76790,List2B,white,woman,,,,,"{""Q0"":""Luke and Mike are marrying each other""}","<img src=""stim_listB/marry6.gif""</stim_listB>",are marrying each other,
null,"<div style=""font-size:60px;"">+</div>",,html-keyboard-response,74,313158,0.0-13.0-0.11,76790,List2B,white,woman,,,,null,,,,
null,"<img src=""stim_listB/marry3.gif""</stim_listB>",,html-keyboard-response,75,315168,0.0-13.0-1.11,76790,List2B,white,woman,,,,null,,,,
null,is marrying,,html-keyboard-response,76,317166,0.0-13.0-2.11,76790,List2B,white,woman,,,,null,,,,
12474,,,survey-text,77,329642,0.0-13.0-3.11,76790,List2B,white,woman,,,,,"{""Q0"":""Beth is marrying Mike""}","<img src=""stim_listB/marry3.gif""</stim_listB>",is marrying,
null,"<div style=""font-size:60px;"">+</div>",,html-keyboard-response,78,330156,0.0-13.0-0.12,76790,List2B,white,woman,,,,null,,,,
null,"<img src=""stim_listB/meet6.gif""</stim_listB>",,html-keyboard-response,79,332162,0.0-13.0-1.12,76790,List2B,white,woman,,,,null,,,,
null,are meeting each other,,html-keyboard-response,80,334160,0.0-13.0-2.12,76790,List2B,white,woman,,,,null,,,,
18899,,,survey-text,81,353062,0.0-13.0-3.12,76790,List2B,white,woman,,,,,"{""Q0"":""Luke and Fred are meeting each other""}","<img src=""stim_listB/meet6.gif""</stim_listB>",are meeting each other,
null,"<div style=""font-size:60px;"">+</div>",,html-keyboard-response,82,353578,0.0-13.0-0.13,76790,List2B,white,woman,,,,null,,,,
null,"<img src=""stim_listB/talk1.gif""</stim_listB>",,html-keyboard-response,83,355579,0.0-13.0-1.13,76790,List2B,white,woman,,,,null,,,,
null,is talking to,,html-keyboard-response,84,357591,0.0-13.0-2.13,76790,List2B,white,woman,,,,null,,,,
9957,,,survey-text,85,367551,0.0-13.0-3.13,76790,List2B,white,woman,,,,,"{""Q0"":""Jane is talking to luke""}","<img src=""stim_listB/talk1.gif""</stim_listB>",is talking to,
null,"<div style=""font-size:60px;"">+</div>",,html-keyboard-response,86,368066,0.0-13.0-0.14,76790,List2B,white,woman,,,,null,,,,
null,"<img src=""stim_listB/shout3.gif""</stim_listB>",,html-keyboard-response,87,370076,0.0-13.0-1.14,76790,List2B,white,woman,,,,null,,,,
null,is shouting at,,html-keyboard-response,88,372075,0.0-13.0-2.14,76790,List2B,white,woman,,,,null,,,,
9813,,,survey-text,89,381891,0.0-13.0-3.14,76790,List2B,white,woman,,,,,"{""Q0"":""Beth is shouting at fred""}","<img src=""stim_listB/shout3.gif""</stim_listB>",is shouting at,
null,"<div style=""font-size:60px;"">+</div>",,html-keyboard-response,90,382407,0.0-13.0-0.15,76790,List2B,white,woman,,,,null,,,,
null,"<img src=""stim_listB/hug3.gif""</stim_listB>",,html-keyboard-response,91,384421,0.0-13.0-1.15,76790,List2B,white,woman,,,,null,,,,
null,is hugging,,html-keyboard-response,92,386416,0.0-13.0-2.15,76790,List2B,white,woman,,,,null,,,,
8202,,,survey-text,93,394621,0.0-13.0-3.15,76790,List2B,white,woman,,,,,"{""Q0"":""Beth is hugging fred""}","<img src=""stim_listB/hug3.gif""</stim_listB>",is hugging,
null,"<div style=""font-size:60px;"">+</div>",,html-keyboard-response,94,395135,0.0-13.0-0.16,76790,List2B,white,woman,,,,null,,,,
null,"<img src=""stim_listB/talk2.gif""</stim_listB>",,html-keyboard-response,95,397137,0.0-13.0-1.16,76790,List2B,white,woman,,,,null,,,,
null,are talking to each other,,html-keyboard-response,96,399134,0.0-13.0-2.16,76790,List2B,white,woman,,,,null,,,,
19553,,,survey-text,97,418689,0.0-13.0-3.16,76790,List2B,white,woman,,,,,"{""Q0"":""Dave and ruth are talking to each other""}","<img src=""stim_listB/talk2.gif""</stim_listB>",are talking to each other,
null,"<div style=""font-size:60px;"">+</div>",,html-keyboard-response,98,419203,0.0-13.0-0.17,76790,List2B,white,woman,,,,null,,,,
null,"<img src=""stim_listB/fight1.gif""</stim_listB>",,html-keyboard-response,99,421210,0.0-13.0-1.17,76790,List2B,white,woman,,,,null,,,,
null,is fighting,,html-keyboard-response,100,423211,0.0-13.0-2.17,76790,List2B,white,woman,,,,null,,,,
9523,,,survey-text,101,432735,0.0-13.0-3.17,76790,List2B,white,woman,,,,,"{""Q0"":""Jane is fighting dave""}","<img src=""stim_listB/fight1.gif""</stim_listB>",is fighting,
null,"<div style=""font-size:60px;"">+</div>",,html-keyboard-response,102,433249,0.0-13.0-0.18,76790,List2B,white,woman,,,,null,,,,
null,"<img src=""stim_listB/touch5.gif""</stim_listB>",,html-keyboard-response,103,435262,0.0-13.0-1.18,76790,List2B,white,woman,,,,null,,,,
null,is touching,,html-keyboard-response,104,437261,0.0-13.0-2.18,76790,List2B,white,woman,,,,null,,,,
9954,,,survey-text,105,447216,0.0-13.0-3.18,76790,List2B,white,woman,,,,,"{""Q0"":""Mike is touching dave""}","<img src=""stim_listB/touch5.gif""</stim_listB>",is touching,
null,"<div style=""font-size:60px;"">+</div>",,html-keyboard-response,106,447731,0.0-13.0-0.19,76790,List2B,white,woman,,,,null,,,,
null,"<img src=""stim_listB/meet3.gif""</stim_listB>",,html-keyboard-response,107,449746,0.0-13.0-1.19,76790,List2B,white,woman,,,,null,,,,
null,is meeting,,html-keyboard-response,108,451746,0.0-13.0-2.19,76790,List2B,white,woman,,,,null,,,,
9873,,,survey-text,109,461620,0.0-13.0-3.19,76790,List2B,white,woman,,,,,"{""Q0"":""Kate is meeting mike""}","<img src=""stim_listB/meet3.gif""</stim_listB>",is meeting,
13400,"<img src='img/portrait_matrix_list2.JPG' style='width:900px;height:500px;''></img><p>If you have memorised all the portraits and names and are ready to start, press Continue.</p><p><strong>Please note: Your memory of these faces will be tested 4 times during this experiment.</strong></p>",0,html-button-response,110,475022,0.0-14.0-0.0,76790,List2B,white,woman,,,,,,,,
3505,"<img src=""portrait/WM1.jpg""style=""width:400px;height:400px;""></img>",6,html-button-response,111,479530,0.0-14.0-1.0,76790,List2B,white,woman,,TRUE,6,,,,,
null,CORRECT,,html-keyboard-response,112,481053,0.0-14.0-2.0-0.0,76790,List2B,white,woman,,,,null,,,,
2686,"<img src=""portrait/BM1.jpg""style=""width:400px;height:400px;""></img>",4,html-button-response,113,483741,0.0-14.0-4.0,76790,List2B,white,woman,,TRUE,4,,,,,
null,CORRECT,,html-keyboard-response,114,485273,0.0-14.0-5.0-0.0,76790,List2B,white,woman,,,,null,,,,
1805,"<img src=""portrait/WW1.jpg""style=""width:400px;height:400px;""></img>",1,html-button-response,115,487082,0.0-14.0-7.0,76790,List2B,white,woman,,TRUE,1,,,,,
null,CORRECT,,html-keyboard-response,116,488614,0.0-14.0-8.0-0.0,76790,List2B,white,woman,,,,null,,,,
1781,"<img src=""portrait/BW1.jpg""style=""width:400px;height:400px;""></img>",0,html-button-response,117,490395,0.0-14.0-10.0,76790,List2B,white,woman,,TRUE,0,,,,,
null,CORRECT,,html-keyboard-response,118,491924,0.0-14.0-11.0-0.0,76790,List2B,white,woman,,,,null,,,,
2181,"<img src=""portrait/BM2.jpg""style=""width:400px;height:400px;""></img>",5,html-button-response,119,494107,0.0-14.0-13.0,76790,List2B,white,woman,,TRUE,5,,,,,
null,CORRECT,,html-keyboard-response,120,495636,0.0-14.0-14.0-0.0,76790,List2B,white,woman,,,,null,,,,
1476,"<img src=""portrait/WW2.jpg""style=""width:400px;height:400px;""></img>",3,html-button-response,121,497113,0.0-14.0-16.0,76790,List2B,white,woman,,TRUE,3,,,,,
null,CORRECT,,html-keyboard-response,122,498642,0.0-14.0-17.0-0.0,76790,List2B,white,woman,,,,null,,,,
1669,"<img src=""portrait/WM2.jpg""style=""width:400px;height:400px;""></img>",7,html-button-response,123,500315,0.0-14.0-19.0,76790,List2B,white,woman,,TRUE,7,,,,,
null,CORRECT,,html-keyboard-response,124,501842,0.0-14.0-20.0-0.0,76790,List2B,white,woman,,,,null,,,,
1265,"<img src=""portrait/BW2.jpg""style=""width:400px;height:400px;""></img>",2,html-button-response,125,503109,0.0-14.0-22.0,76790,List2B,white,woman,,TRUE,2,,,,,
null,CORRECT,,html-keyboard-response,126,504638,0.0-14.0-23.0-0.0,76790,List2B,white,woman,,,,null,,,,
1643,<p>You got 8 out of 8 right first time. Press Continue.</p>,0,html-button-response,127,506283,0.0-14.0-25.0,76790,List2B,white,woman,,,,,,,,
null,"<div style=""font-size:60px;"">+</div>",,html-keyboard-response,128,507785,0.0-15.0-0.0,76790,List2B,white,woman,,,,null,,,,
null,"<img src=""stim_listB/dance3.gif""</stim_listB>",,html-keyboard-response,129,509796,0.0-15.0-1.0,76790,List2B,white,woman,,,,null,,,,
null,is dancing with,,html-keyboard-response,130,511794,0.0-15.0-2.0,76790,List2B,white,woman,,,,null,,,,
12099,,,survey-text,131,523894,0.0-15.0-3.0,76790,List2B,white,woman,,,,,"{""Q0"":""Kate is dancing with fred""}","<img src=""stim_listB/dance3.gif""</stim_listB>",is dancing with,
null,"<div style=""font-size:60px;"">+</div>",,html-keyboard-response,132,524406,0.0-15.0-0.1,76790,List2B,white,woman,,,,null,,,,
null,"<img src=""stim_listB/shout6.gif""</stim_listB>",,html-keyboard-response,133,526412,0.0-15.0-1.1,76790,List2B,white,woman,,,,null,,,,
null,are shouting at each other,,html-keyboard-response,134,528408,0.0-15.0-2.1,76790,List2B,white,woman,,,,null,,,,
15994,,,survey-text,135,544404,0.0-15.0-3.1,76790,List2B,white,woman,,,,,"{""Q0"":""Mike and dave are shouting at each other""}","<img src=""stim_listB/shout6.gif""</stim_listB>",are shouting at each other,
null,"<div style=""font-size:60px;"">+</div>",,html-keyboard-response,136,544916,0.0-15.0-0.2,76790,List2B,white,woman,,,,null,,,,
null,"<img src=""stim_listB/kiss2.gif""</stim_listB>",,html-keyboard-response,137,546934,0.0-15.0-1.2,76790,List2B,white,woman,,,,null,,,,
null,are kissing each other,,html-keyboard-response,138,548920,0.0-15.0-2.2,76790,List2B,white,woman,,,,null,,,,
12282,,,survey-text,139,561203,0.0-15.0-3.2,76790,List2B,white,woman,,,,,"{""Q0"":""Jane and dave are kissing each other""}","<img src=""stim_listB/kiss2.gif""</stim_listB>",are kissing each other,
null,"<div style=""font-size:60px;"">+</div>",,html-keyboard-response,140,561716,0.0-15.0-0.3,76790,List2B,white,woman,,,,null,,,,
null,"<img src=""stim_listB/shout7.gif""</stim_listB>",,html-keyboard-response,141,563723,0.0-15.0-1.3,76790,List2B,white,woman,,,,null,,,,
null,is shouting at,,html-keyboard-response,142,565719,0.0-15.0-2.3,76790,List2B,white,woman,,,,null,,,,
9186,,,survey-text,143,574907,0.0-15.0-3.3,76790,List2B,white,woman,,,,,"{""Q0"":""Beth is shouting at ruth""}","<img src=""stim_listB/shout7.gif""</stim_listB>",is shouting at,
null,"<div style=""font-size:60px;"">+</div>",,html-keyboard-response,144,575411,0.0-15.0-0.4,76790,List2B,white,woman,,,,null,,,,
null,"<img src=""stim_listB/argue3.gif""</stim_listB>",,html-keyboard-response,145,577414,0.0-15.0-1.4,76790,List2B,white,woman,,,,null,,,,
null,is arguing with,,html-keyboard-response,146,579419,0.0-15.0-2.4,76790,List2B,white,woman,,,,null,,,,
9871,,,survey-text,147,589291,0.0-15.0-3.4,76790,List2B,white,woman,,,,,"{""Q0"":""Beth is arguing with mike""}","<img src=""stim_listB/argue3.gif""</stim_listB>",is arguing with,
null,"<div style=""font-size:60px;"">+</div>",,html-keyboard-response,148,589802,0.0-15.0-0.5,76790,List2B,white,woman,,,,null,,,,
null,"<img src=""stim_listB/dance2.gif""</stim_listB>",,html-keyboard-response,149,591819,0.0-15.0-1.5,76790,List2B,white,woman,,,,null,,,,
null,are dancing with each other,,html-keyboard-response,150,593807,0.0-15.0-2.5,76790,List2B,white,woman,,,,null,,,,
13424,,,survey-text,151,607232,0.0-15.0-3.5,76790,List2B,white,woman,,,,,"{""Q0"":""Dave and ruth are dancing with each other""}","<img src=""stim_listB/dance2.gif""</stim_listB>",are dancing with each other,
null,"<div style=""font-size:60px;"">+</div>",,html-keyboard-response,152,607748,0.0-15.0-0.6,76790,List2B,white,woman,,,,null,,,,
null,"<img src=""stim_listB/hug2.gif""</stim_listB>",,html-keyboard-response,153,609757,0.0-15.0-1.6,76790,List2B,white,woman,,,,null,,,,
null,are hugging each other,,html-keyboard-response,154,611758,0.0-15.0-2.6,76790,List2B,white,woman,,,,null,,,,
11894,,,survey-text,155,623654,0.0-15.0-3.6,76790,List2B,white,woman,,,,,"{""Q0"":""Dave and jane are hugging each other""}","<img src=""stim_listB/hug2.gif""</stim_listB>",are hugging each other,
null,"<div style=""font-size:60px;"">+</div>",,html-keyboard-response,156,624169,0.0-15.0-0.7,76790,List2B,white,woman,,,,null,,,,
null,"<img src=""stim_listB/kiss3.gif""</stim_listB>",,html-keyboard-response,157,626178,0.0-15.0-1.7,76790,List2B,white,woman,,,,null,,,,
null,is kissing,,html-keyboard-response,158,628168,0.0-15.0-2.7,76790,List2B,white,woman,,,,null,,,,
8029,,,survey-text,159,636200,0.0-15.0-3.7,76790,List2B,white,woman,,,,,"{""Q0"":""beth is kissing fred""}","<img src=""stim_listB/kiss3.gif""</stim_listB>",is kissing,
null,"<div style=""font-size:60px;"">+</div>",,html-keyboard-response,160,636716,0.0-15.0-0.8,76790,List2B,white,woman,,,,null,,,,
null,"<img src=""stim_listB/hug8.gif""</stim_listB>",,html-keyboard-response,161,638725,0.0-15.0-1.8,76790,List2B,white,woman,,,,null,,,,
null,are hugging each other,,html-keyboard-response,162,640725,0.0-15.0-2.8,76790,List2B,white,woman,,,,null,,,,
11554,,,survey-text,163,652283,0.0-15.0-3.8,76790,List2B,white,woman,,,,,"{""Q0"":""jane and kate are hugging each other""}","<img src=""stim_listB/hug8.gif""</stim_listB>",are hugging each other,
null,"<div style=""font-size:60px;"">+</div>",,html-keyboard-response,164,652794,0.0-15.0-0.9,76790,List2B,white,woman,,,,null,,,,
null,"<img src=""stim_listB/marry7.gif""</stim_listB>",,html-keyboard-response,165,654803,0.0-15.0-1.9,76790,List2B,white,woman,,,,null,,,,
null,is marrying,,html-keyboard-response,166,656798,0.0-15.0-2.9,76790,List2B,white,woman,,,,null,,,,
10059,,,survey-text,167,666859,0.0-15.0-3.9,76790,List2B,white,woman,,,,,"{""Q0"":""Beth is marrying jane""}","<img src=""stim_listB/marry7.gif""</stim_listB>",is marrying,
null,"<div style=""font-size:60px;"">+</div>",,html-keyboard-response,168,667375,0.0-15.0-0.10,76790,List2B,white,woman,,,,null,,,,
null,"<img src=""stim_listB/argue2.gif""</stim_listB>",,html-keyboard-response,169,669381,0.0-15.0-1.10,76790,List2B,white,woman,,,,null,,,,
null,are arguing with each other,,html-keyboard-response,170,671380,0.0-15.0-2.10,76790,List2B,white,woman,,,,null,,,,
12431,,,survey-text,171,683814,0.0-15.0-3.10,76790,List2B,white,woman,,,,,"{""Q0"":""Luke and jane are arguing with each other""}","<img src=""stim_listB/argue2.gif""</stim_listB>",are arguing with each other,
null,"<div style=""font-size:60px;"">+</div>",,html-keyboard-response,172,684327,0.0-15.0-0.11,76790,List2B,white,woman,,,,null,,,,
null,"<img src=""stim_listB/marry2.gif""</stim_listB>",,html-keyboard-response,173,686331,0.0-15.0-1.11,76790,List2B,white,woman,,,,null,,,,
null,are marrying each other,,html-keyboard-response,174,688335,0.0-15.0-2.11,76790,List2B,white,woman,,,,null,,,,
12497,,,survey-text,175,700832,0.0-15.0-3.11,76790,List2B,white,woman,,,,,"{""Q0"":""Luke and jane are marrying each other""}","<img src=""stim_listB/marry2.gif""</stim_listB>",are marrying each other,
null,"<div style=""font-size:60px;"">+</div>",,html-keyboard-response,176,701346,0.0-15.0-0.12,76790,List2B,white,woman,,,,null,,,,
null,"<img src=""stim_listB/meet7.gif""</stim_listB>",,html-keyboard-response,177,703347,0.0-15.0-1.12,76790,List2B,white,woman,,,,null,,,,
null,is meeting,,html-keyboard-response,178,705360,0.0-15.0-2.12,76790,List2B,white,woman,,,,null,,,,
7792,,,survey-text,179,713155,0.0-15.0-3.12,76790,List2B,white,woman,,,,,"{""Q0"":""Kate is meeting jane""}","<img src=""stim_listB/meet7.gif""</stim_listB>",is meeting,
null,"<div style=""font-size:60px;"">+</div>",,html-keyboard-response,180,713669,0.0-15.0-0.13,76790,List2B,white,woman,,,,null,,,,
null,"<img src=""stim_listB/dance6.gif""</stim_listB>",,html-keyboard-response,181,715677,0.0-15.0-1.13,76790,List2B,white,woman,,,,null,,,,
null,are dancing with each other,,html-keyboard-response,182,717676,0.0-15.0-2.13,76790,List2B,white,woman,,,,null,,,,
19429,,,survey-text,183,737107,0.0-15.0-3.13,76790,List2B,white,woman,,,,,"{""Q0"":""dave and fred are dancing with each other""}","<img src=""stim_listB/dance6.gif""</stim_listB>",are dancing with each other,
null,"<div style=""font-size:60px;"">+</div>",,html-keyboard-response,184,737628,0.0-15.0-0.14,76790,List2B,white,woman,,,,null,,,,
null,"<img src=""stim_listB/shout4.gif""</stim_listB>",,html-keyboard-response,185,739630,0.0-15.0-1.14,76790,List2B,white,woman,,,,null,,,,
null,are shouting at each other,,html-keyboard-response,186,741644,0.0-15.0-2.14,76790,List2B,white,woman,,,,null,,,,
12124,,,survey-text,187,753771,0.0-15.0-3.14,76790,List2B,white,woman,,,,,"{""Q0"":""Mike and kate are shouting at each other""}","<img src=""stim_listB/shout4.gif""</stim_listB>",are shouting at each other,
null,"<div style=""font-size:60px;"">+</div>",,html-keyboard-response,188,754284,0.0-15.0-0.15,76790,List2B,white,woman,,,,null,,,,
null,"<img src=""stim_listB/kiss7.gif""</stim_listB>",,html-keyboard-response,189,756287,0.0-15.0-1.15,76790,List2B,white,woman,,,,null,,,,
null,is kissing,,html-keyboard-response,190,758287,0.0-15.0-2.15,76790,List2B,white,woman,,,,null,,,,
7910,,,survey-text,191,766198,0.0-15.0-3.15,76790,List2B,white,woman,,,,,"{""Q0"":""Beth is kissing ruth""}","<img src=""stim_listB/kiss7.gif""</stim_listB>",is kissing,
null,"<div style=""font-size:60px;"">+</div>",,html-keyboard-response,192,766711,0.0-15.0-0.16,76790,List2B,white,woman,,,,null,,,,
null,"<img src=""stim_listB/meet2.gif""</stim_listB>",,html-keyboard-response,193,768718,0.0-15.0-1.16,76790,List2B,white,woman,,,,null,,,,
null,are meeting each other,,html-keyboard-response,194,770716,0.0-15.0-2.16,76790,List2B,white,woman,,,,null,,,,
18783,,,survey-text,195,789500,0.0-15.0-3.16,76790,List2B,white,woman,,,,,"{""Q0"":""Luke and ruth are meeting each other""}","<img src=""stim_listB/meet2.gif""</stim_listB>",are meeting each other,
null,"<div style=""font-size:60px;"">+</div>",,html-keyboard-response,196,790015,0.0-15.0-0.17,76790,List2B,white,woman,,,,null,,,,
null,"<img src=""stim_listB/hug5.gif""</stim_listB>",,html-keyboard-response,197,792024,0.0-15.0-1.17,76790,List2B,white,woman,,,,null,,,,
null,is hugging,,html-keyboard-response,198,794024,0.0-15.0-2.17,76790,List2B,white,woman,,,,null,,,,
7947,,,survey-text,199,801973,0.0-15.0-3.17,76790,List2B,white,woman,,,,,"{""Q0"":""Luke is hugging fred""}","<img src=""stim_listB/hug5.gif""</stim_listB>",is hugging,
null,"<div style=""font-size:60px;"">+</div>",,html-keyboard-response,200,802486,0.0-15.0-0.18,76790,List2B,white,woman,,,,null,,,,
null,"<img src=""stim_listB/dance5.gif""</stim_listB>",,html-keyboard-response,201,804501,0.0-15.0-1.18,76790,List2B,white,woman,,,,null,,,,
null,is dancing with,,html-keyboard-response,202,806494,0.0-15.0-2.18,76790,List2B,white,woman,,,,null,,,,
11335,,,survey-text,203,817831,0.0-15.0-3.18,76790,List2B,white,woman,,,,,"{""Q0"":""Mike is dancing with luke""}","<img src=""stim_listB/dance5.gif""</stim_listB>",is dancing with,
null,"<div style=""font-size:60px;"">+</div>",,html-keyboard-response,204,818344,0.0-15.0-0.19,76790,List2B,white,woman,,,,null,,,,
null,"<img src=""stim_listB/hug7.gif""</stim_listB>",,html-keyboard-response,205,820360,0.0-15.0-1.19,76790,List2B,white,woman,,,,null,,,,
null,is hugging,,html-keyboard-response,206,822352,0.0-15.0-2.19,76790,List2B,white,woman,,,,null,,,,
8386,,,survey-text,207,830739,0.0-15.0-3.19,76790,List2B,white,woman,,,,,"{""Q0"":""Beth is hugging ruth""}","<img src=""stim_listB/hug7.gif""</stim_listB>",is hugging,
10634,"<img src='img/portrait_matrix_list2.JPG' style='width:900px;height:500px;''></img><p>If you have memorised all the portraits and names and are ready to start, press Continue.</p><p><strong>Please note: Your memory of these faces will be tested 4 times during this experiment.</strong></p>",0,html-button-response,208,841374,0.0-16.0-0.0,76790,List2B,white,woman,,,,,,,,
1844,"<img src=""portrait/WW1.jpg""style=""width:400px;height:400px;""></img>",1,html-button-response,209,844234,0.0-16.0-1.0,76790,List2B,white,woman,,TRUE,1,,,,,
null,CORRECT,,html-keyboard-response,210,845764,0.0-16.0-2.0-0.0,76790,List2B,white,woman,,,,null,,,,
2322,"<img src=""portrait/BM1.jpg""style=""width:400px;height:400px;""></img>",4,html-button-response,211,848088,0.0-16.0-4.0,76790,List2B,white,woman,,TRUE,4,,,,,
null,CORRECT,,html-keyboard-response,212,849619,0.0-16.0-5.0-0.0,76790,List2B,white,woman,,,,null,,,,
2052,"<img src=""portrait/WM1.jpg""style=""width:400px;height:400px;""></img>",6,html-button-response,213,851674,0.0-16.0-7.0,76790,List2B,white,woman,,TRUE,6,,,,,
null,CORRECT,,html-keyboard-response,214,853200,0.0-16.0-8.0-0.0,76790,List2B,white,woman,,,,null,,,,
1796,"<img src=""portrait/BM2.jpg""style=""width:400px;height:400px;""></img>",5,html-button-response,215,854998,0.0-16.0-10.0,76790,List2B,white,woman,,TRUE,5,,,,,
null,CORRECT,,html-keyboard-response,216,856526,0.0-16.0-11.0-0.0,76790,List2B,white,woman,,,,null,,,,
1728,"<img src=""portrait/BW2.jpg""style=""width:400px;height:400px;""></img>",2,html-button-response,217,858256,0.0-16.0-13.0,76790,List2B,white,woman,,TRUE,2,,,,,
null,CORRECT,,html-keyboard-response,218,859784,0.0-16.0-14.0-0.0,76790,List2B,white,woman,,,,null,,,,
1661,"<img src=""portrait/BW1.jpg""style=""width:400px;height:400px;""></img>",0,html-button-response,219,861448,0.0-16.0-16.0,76790,List2B,white,woman,,TRUE,0,,,,,
null,CORRECT,,html-keyboard-response,220,862976,0.0-16.0-17.0-0.0,76790,List2B,white,woman,,,,null,,,,
1981,"<img src=""portrait/WM2.jpg""style=""width:400px;height:400px;""></img>",7,html-button-response,221,864960,0.0-16.0-19.0,76790,List2B,white,woman,,TRUE,7,,,,,
null,CORRECT,,html-keyboard-response,222,866470,0.0-16.0-20.0-0.0,76790,List2B,white,woman,,,,null,,,,
1488,"<img src=""portrait/WW2.jpg""style=""width:400px;height:400px;""></img>",3,html-button-response,223,867960,0.0-16.0-22.0,76790,List2B,white,woman,,TRUE,3,,,,,
null,CORRECT,,html-keyboard-response,224,869476,0.0-16.0-23.0-0.0,76790,List2B,white,woman,,,,null,,,,
1812,<p>You got 8 out of 8 right first time. Press Continue.</p>,0,html-button-response,225,871289,0.0-16.0-25.0,76790,List2B,white,woman,,,,,,,,
null,"<div style=""font-size:60px;"">+</div>",,html-keyboard-response,226,872809,0.0-17.0-0.0,76790,List2B,white,woman,,,,null,,,,
null,"<img src=""stim_listB/touch4.gif""</stim_listB>",,html-keyboard-response,227,874824,0.0-17.0-1.0,76790,List2B,white,woman,,,,null,,,,
null,are touching each other,,html-keyboard-response,228,876821,0.0-17.0-2.0,76790,List2B,white,woman,,,,null,,,,
12991,,,survey-text,229,889814,0.0-17.0-3.0,76790,List2B,white,woman,,,,,"{""Q0"":""Fred and beth are touching each other""}","<img src=""stim_listB/touch4.gif""</stim_listB>",are touching each other,
null,"<div style=""font-size:60px;"">+</div>",,html-keyboard-response,230,890330,0.0-17.0-0.1,76790,List2B,white,woman,,,,null,,,,
null,"<img src=""stim_listB/argue5.gif""</stim_listB>",,html-keyboard-response,231,892334,0.0-17.0-1.1,76790,List2B,white,woman,,,,null,,,,
null,is arguing with,,html-keyboard-response,232,894333,0.0-17.0-2.1,76790,List2B,white,woman,,,,null,,,,
9565,,,survey-text,233,903900,0.0-17.0-3.1,76790,List2B,white,woman,,,,,"{""Q0"":""Fred is arguing with dave""}","<img src=""stim_listB/argue5.gif""</stim_listB>",is arguing with,
null,"<div style=""font-size:60px;"">+</div>",,html-keyboard-response,234,904422,0.0-17.0-0.2,76790,List2B,white,woman,,,,null,,,,
null,"<img src=""stim_listB/fight3.gif""</stim_listB>",,html-keyboard-response,235,906438,0.0-17.0-1.2,76790,List2B,white,woman,,,,null,,,,
null,is fighting,,html-keyboard-response,236,908436,0.0-17.0-2.2,76790,List2B,white,woman,,,,null,,,,
9546,,,survey-text,237,917983,0.0-17.0-3.2,76790,List2B,white,woman,,,,,"{""Q0"":""Kate is fighting Mike""}","<img src=""stim_listB/fight3.gif""</stim_listB>",is fighting,
null,"<div style=""font-size:60px;"">+</div>",,html-keyboard-response,238,918499,0.0-17.0-0.3,76790,List2B,white,woman,,,,null,,,,
null,"<img src=""stim_listB/shout5.gif""</stim_listB>",,html-keyboard-response,239,920511,0.0-17.0-1.3,76790,List2B,white,woman,,,,null,,,,
null,is shouting at,,html-keyboard-response,240,922510,0.0-17.0-2.3,76790,List2B,white,woman,,,,null,,,,
10068,,,survey-text,241,932579,0.0-17.0-3.3,76790,List2B,white,woman,,,,,"{""Q0"":""Fred is shouting at luke""}","<img src=""stim_listB/shout5.gif""</stim_listB>",is shouting at,
null,"<div style=""font-size:60px;"">+</div>",,html-keyboard-response,242,933095,0.0-17.0-0.4,76790,List2B,white,woman,,,,null,,,,
null,"<img src=""stim_listB/kiss4.gif""</stim_listB>",,html-keyboard-response,243,935106,0.0-17.0-1.4,76790,List2B,white,woman,,,,null,,,,
null,are kissing each other,,html-keyboard-response,244,937098,0.0-17.0-2.4,76790,List2B,white,woman,,,,null,,,,
12582,,,survey-text,245,949683,0.0-17.0-3.4,76790,List2B,white,woman,,,,,"{""Q0"":""Mike and kate are kissing each other""}","<img src=""stim_listB/kiss4.gif""</stim_listB>",are kissing each other,
null,"<div style=""font-size:60px;"">+</div>",,html-keyboard-response,246,950199,0.0-17.0-0.5,76790,List2B,white,woman,,,,null,,,,
null,"<img src=""stim_listB/kiss6.gif""</stim_listB>",,html-keyboard-response,247,952216,0.0-17.0-1.5,76790,List2B,white,woman,,,,null,,,,
null,are kissing each other,,html-keyboard-response,248,954216,0.0-17.0-2.5,76790,List2B,white,woman,,,,null,,,,
11498,,,survey-text,249,965716,0.0-17.0-3.5,76790,List2B,white,woman,,,,,"{""Q0"":""Dave and mike are kissing each other""}","<img src=""stim_listB/kiss6.gif""</stim_listB>",are kissing each other,
null,"<div style=""font-size:60px;"">+</div>",,html-keyboard-response,250,966230,0.0-17.0-0.6,76790,List2B,white,woman,,,,null,,,,
null,"<img src=""stim_listB/shout2.gif""</stim_listB>",,html-keyboard-response,251,968246,0.0-17.0-1.6,76790,List2B,white,woman,,,,null,,,,
null,are shouting at each other,,html-keyboard-response,252,970239,0.0-17.0-2.6,76790,List2B,white,woman,,,,null,,,,
12412,,,survey-text,253,982652,0.0-17.0-3.6,76790,List2B,white,woman,,,,,"{""Q0"":""Dave and jane are shouting at each other""}","<img src=""stim_listB/shout2.gif""</stim_listB>",are shouting at each other,
null,"<div style=""font-size:60px;"">+</div>",,html-keyboard-response,254,983167,0.0-17.0-0.7,76790,List2B,white,woman,,,,null,,,,
null,"<img src=""stim_listB/meet4.gif""</stim_listB>",,html-keyboard-response,255,985171,0.0-17.0-1.7,76790,List2B,white,woman,,,,null,,,,
null,are meeting each other,,html-keyboard-response,256,987177,0.0-17.0-2.7,76790,List2B,white,woman,,,,null,,,,
11280,,,survey-text,257,998459,0.0-17.0-3.7,76790,List2B,white,woman,,,,,"{""Q0"":""fred and beth are meeting each other""}","<img src=""stim_listB/meet4.gif""</stim_listB>",are meeting each other,
null,"<div style=""font-size:60px;"">+</div>",,html-keyboard-response,258,998973,0.0-17.0-0.8,76790,List2B,white,woman,,,,null,,,,
null,"<img src=""stim_listB/fight8.gif""</stim_listB>",,html-keyboard-response,259,1000983,0.0-17.0-1.8,76790,List2B,white,woman,,,,null,,,,
null,are fighting each other,,html-keyboard-response,260,1002984,0.0-17.0-2.8,76790,List2B,white,woman,,,,null,,,,
11464,,,survey-text,261,1014449,0.0-17.0-3.8,76790,List2B,white,woman,,,,,"{""Q0"":""ruth and beth are fighting each other""}","<img src=""stim_listB/fight8.gif""</stim_listB>",are fighting each other,
null,"<div style=""font-size:60px;"">+</div>",,html-keyboard-response,262,1014965,0.0-17.0-0.9,76790,List2B,white,woman,,,,null,,,,
null,"<img src=""stim_listB/marry4.gif""</stim_listB>",,html-keyboard-response,263,1016979,0.0-17.0-1.9,76790,List2B,white,woman,,,,null,,,,
null,are marrying each other,,html-keyboard-response,264,1018971,0.0-17.0-2.9,76790,List2B,white,woman,,,,null,,,,
11117,,,survey-text,265,1030089,0.0-17.0-3.9,76790,List2B,white,woman,,,,,"{""Q0"":""fred and kate are marrying each other""}","<img src=""stim_listB/marry4.gif""</stim_listB>",are marrying each other,
null,"<div style=""font-size:60px;"">+</div>",,html-keyboard-response,266,1030602,0.0-17.0-0.10,76790,List2B,white,woman,,,,null,,,,
null,"<img src=""stim_listB/argue1.gif""</stim_listB>",,html-keyboard-response,267,1032608,0.0-17.0-1.10,76790,List2B,white,woman,,,,null,,,,
null,is arguing with,,html-keyboard-response,268,1034611,0.0-17.0-2.10,76790,List2B,white,woman,,,,null,,,,
9744,,,survey-text,269,1044357,0.0-17.0-3.10,76790,List2B,white,woman,,,,,"{""Q0"":""ruth is arguing with dave""}","<img src=""stim_listB/argue1.gif""</stim_listB>",is arguing with,
null,"<div style=""font-size:60px;"">+</div>",,html-keyboard-response,270,1044874,0.0-17.0-0.11,76790,List2B,white,woman,,,,null,,,,
null,"<img src=""stim_listB/meet5.gif""</stim_listB>",,html-keyboard-response,271,1046890,0.0-17.0-1.11,76790,List2B,white,woman,,,,null,,,,
null,is meeting,,html-keyboard-response,272,1048891,0.0-17.0-2.11,76790,List2B,white,woman,,,,null,,,,
7992,,,survey-text,273,1056886,0.0-17.0-3.11,76790,List2B,white,woman,,,,,"{""Q0"":""mike is meeting dave""}","<img src=""stim_listB/meet5.gif""</stim_listB>",is meeting,
null,"<div style=""font-size:60px;"">+</div>",,html-keyboard-response,274,1057390,0.0-17.0-0.12,76790,List2B,white,woman,,,,null,,,,
null,"<img src=""stim_listB/dance4.gif""</stim_listB>",,html-keyboard-response,275,1059402,0.0-17.0-1.12,76790,List2B,white,woman,,,,null,,,,
null,are dancing with each other,,html-keyboard-response,276,1061403,0.0-17.0-2.12,76790,List2B,white,woman,,,,null,,,,
11814,,,survey-text,277,1073219,0.0-17.0-3.12,76790,List2B,white,woman,,,,,"{""Q0"":""mike and beth are dancing with each other""}","<img src=""stim_listB/dance4.gif""</stim_listB>",are dancing with each other,
null,"<div style=""font-size:60px;"">+</div>",,html-keyboard-response,278,1073734,0.0-17.0-0.13,76790,List2B,white,woman,,,,null,,,,
null,"<img src=""stim_listB/hug4.gif""</stim_listB>",,html-keyboard-response,279,1075742,0.0-17.0-1.13,76790,List2B,white,woman,,,,null,,,,
null,are hugging each other,,html-keyboard-response,280,1077746,0.0-17.0-2.13,76790,List2B,white,woman,,,,null,,,,
10712,,,survey-text,281,1088460,0.0-17.0-3.13,76790,List2B,white,woman,,,,,"{""Q0"":""mike and kate are hugging each other""}","<img src=""stim_listB/hug4.gif""</stim_listB>",are hugging each other,
null,"<div style=""font-size:60px;"">+</div>",,html-keyboard-response,282,1088974,0.0-17.0-0.14,76790,List2B,white,woman,,,,null,,,,
null,"<img src=""stim_listB/talk5.gif""</stim_listB>",,html-keyboard-response,283,1090990,0.0-17.0-1.14,76790,List2B,white,woman,,,,null,,,,
null,is talking to,,html-keyboard-response,284,1092984,0.0-17.0-2.14,76790,List2B,white,woman,,,,null,,,,
11619,,,survey-text,285,1104606,0.0-17.0-3.14,76790,List2B,white,woman,,,,,"{""Q0"":""mike is talking to luke ""}","<img src=""stim_listB/talk5.gif""</stim_listB>",is talking to,
null,"<div style=""font-size:60px;"">+</div>",,html-keyboard-response,286,1105120,0.0-17.0-0.15,76790,List2B,white,woman,,,,null,,,,
null,"<img src=""stim_listB/fight4.gif""</stim_listB>",,html-keyboard-response,287,1107131,0.0-17.0-1.15,76790,List2B,white,woman,,,,null,,,,
null,are fighting each other,,html-keyboard-response,288,1109121,0.0-17.0-2.15,76790,List2B,white,woman,,,,null,,,,
20049,,,survey-text,289,1129172,0.0-17.0-3.15,76790,List2B,white,woman,,,,,"{""Q0"":""fred and beth are fighting each other""}","<img src=""stim_listB/fight4.gif""</stim_listB>",are fighting each other,
null,"<div style=""font-size:60px;"">+</div>",,html-keyboard-response,290,1129688,0.0-17.0-0.16,76790,List2B,white,woman,,,,null,,,,
null,"<img src=""stim_listB/talk8.gif""</stim_listB>",,html-keyboard-response,291,1131694,0.0-17.0-1.16,76790,List2B,white,woman,,,,null,,,,
null,are talking to each other,,html-keyboard-response,292,1133699,0.0-17.0-2.16,76790,List2B,white,woman,,,,null,,,,
12519,,,survey-text,293,1146219,0.0-17.0-3.16,76790,List2B,white,woman,,,,,"{""Q0"":""jane and beth are talking to each other""}","<img src=""stim_listB/talk8.gif""</stim_listB>",are talking to each other,
null,"<div style=""font-size:60px;"">+</div>",,html-keyboard-response,294,1146734,0.0-17.0-0.17,76790,List2B,white,woman,,,,null,,,,
null,"<img src=""stim_listB/fight7.gif""</stim_listB>",,html-keyboard-response,295,1148747,0.0-17.0-1.17,76790,List2B,white,woman,,,,null,,,,
null,is fighting,,html-keyboard-response,296,1150738,0.0-17.0-2.17,76790,List2B,white,woman,,,,null,,,,
9434,,,survey-text,297,1160175,0.0-17.0-3.17,76790,List2B,white,woman,,,,,"{""Q0"":""kate is fighting jane""}","<img src=""stim_listB/fight7.gif""</stim_listB>",is fighting,
null,"<div style=""font-size:60px;"">+</div>",,html-keyboard-response,298,1160690,0.0-17.0-0.18,76790,List2B,white,woman,,,,null,,,,
null,"<img src=""stim_listB/argue8.gif""</stim_listB>",,html-keyboard-response,299,1162699,0.0-17.0-1.18,76790,List2B,white,woman,,,,null,,,,
null,are arguing with each other,,html-keyboard-response,300,1164695,0.0-17.0-2.18,76790,List2B,white,woman,,,,null,,,,
17791,,,survey-text,301,1182489,0.0-17.0-3.18,76790,List2B,white,woman,,,,,"{""Q0"":""kate and ruth are arguing with each other""}","<img src=""stim_listB/argue8.gif""</stim_listB>",are arguing with each other,
null,"<div style=""font-size:60px;"">+</div>",,html-keyboard-response,302,1183005,0.0-17.0-0.19,76790,List2B,white,woman,,,,null,,,,
null,"<img src=""stim_listB/talk4.gif""</stim_listB>",,html-keyboard-response,303,1185011,0.0-17.0-1.19,76790,List2B,white,woman,,,,null,,,,
null,are talking to each other,,html-keyboard-response,304,1187018,0.0-17.0-2.19,76790,List2B,white,woman,,,,null,,,,
12870,,,survey-text,305,1199890,0.0-17.0-3.19,76790,List2B,white,woman,,,,,"{""Q0"":""mike and beth are talking to each other""}","<img src=""stim_listB/talk4.gif""</stim_listB>",are talking to each other,
26955,"<img src='img/portrait_matrix_list2.JPG' style='width:900px;height:500px;''></img><p>If you have memorised all the portraits and names and are ready to start, press Continue.</p><p><strong>Please note: Your memory of these faces will be tested 4 times during this experiment.</strong></p>",0,html-button-response,306,1226846,0.0-18.0-0.0,76790,List2B,white,woman,,,,,,,,
1933,"<img src=""portrait/WW1.jpg""style=""width:400px;height:400px;""></img>",1,html-button-response,307,1229783,0.0-18.0-1.0,76790,List2B,white,woman,,TRUE,1,,,,,
null,CORRECT,,html-keyboard-response,308,1231312,0.0-18.0-2.0-0.0,76790,List2B,white,woman,,,,null,,,,
1640,"<img src=""portrait/WM2.jpg""style=""width:400px;height:400px;""></img>",7,html-button-response,309,1232955,0.0-18.0-4.0,76790,List2B,white,woman,,TRUE,7,,,,,
null,CORRECT,,html-keyboard-response,310,1234474,0.0-18.0-5.0-0.0,76790,List2B,white,woman,,,,null,,,,
1525,"<img src=""portrait/BW2.jpg""style=""width:400px;height:400px;""></img>",2,html-button-response,311,1236001,0.0-18.0-7.0,76790,List2B,white,woman,,TRUE,2,,,,,
null,CORRECT,,html-keyboard-response,312,1237528,0.0-18.0-8.0-0.0,76790,List2B,white,woman,,,,null,,,,
1919,"<img src=""portrait/WM1.jpg""style=""width:400px;height:400px;""></img>",6,html-button-response,313,1239451,0.0-18.0-10.0,76790,List2B,white,woman,,TRUE,6,,,,,
null,CORRECT,,html-keyboard-response,314,1240981,0.0-18.0-11.0-0.0,76790,List2B,white,woman,,,,null,,,,
1539,"<img src=""portrait/BM2.jpg""style=""width:400px;height:400px;""></img>",5,html-button-response,315,1242523,0.0-18.0-13.0,76790,List2B,white,woman,,TRUE,5,,,,,
null,CORRECT,,html-keyboard-response,316,1244052,0.0-18.0-14.0-0.0,76790,List2B,white,woman,,,,null,,,,
2045,"<img src=""portrait/BW1.jpg""style=""width:400px;height:400px;""></img>",0,html-button-response,317,1246099,0.0-18.0-16.0,76790,List2B,white,woman,,TRUE,0,,,,,
null,CORRECT,,html-keyboard-response,318,1247614,0.0-18.0-17.0-0.0,76790,List2B,white,woman,,,,null,,,,
1625,"<img src=""portrait/WW2.jpg""style=""width:400px;height:400px;""></img>",3,html-button-response,319,1249241,0.0-18.0-19.0,76790,List2B,white,woman,,TRUE,3,,,,,
null,CORRECT,,html-keyboard-response,320,1250753,0.0-18.0-20.0-0.0,76790,List2B,white,woman,,,,null,,,,
3702,"<img src=""portrait/BM1.jpg""style=""width:400px;height:400px;""></img>",4,html-button-response,321,1254457,0.0-18.0-22.0,76790,List2B,white,woman,,TRUE,4,,,,,
null,CORRECT,,html-keyboard-response,322,1255986,0.0-18.0-23.0-0.0,76790,List2B,white,woman,,,,null,,,,
3688,<p>You got 8 out of 8 right first time. Press Continue.</p>,0,html-button-response,323,1259677,0.0-18.0-25.0,76790,List2B,white,woman,,,,,,,,
null,"<div style=""font-size:60px;"">+</div>",,html-keyboard-response,324,1261192,0.0-19.0-0.0,76790,List2B,white,woman,,,,null,,,,
null,"<img src=""stim_listB/fight5.gif""</stim_listB>",,html-keyboard-response,325,1263196,0.0-19.0-1.0,76790,List2B,white,woman,,,,null,,,,
null,is fighting,,html-keyboard-response,326,1265196,0.0-19.0-2.0,76790,List2B,white,woman,,,,null,,,,
18346,,,survey-text,327,1283544,0.0-19.0-3.0,76790,List2B,white,woman,,,,,"{""Q0"":""Mike is fighting dave""}","<img src=""stim_listB/fight5.gif""</stim_listB>",is fighting,
null,"<div style=""font-size:60px;"">+</div>",,html-keyboard-response,328,1284057,0.0-19.0-0.1,76790,List2B,white,woman,,,,null,,,,
null,"<img src=""stim_listB/meet8.gif""</stim_listB>",,html-keyboard-response,329,1286071,0.0-19.0-1.1,76790,List2B,white,woman,,,,null,,,,
null,are meeting each other,,html-keyboard-response,330,1288073,0.0-19.0-2.1,76790,List2B,white,woman,,,,null,,,,
15117,,,survey-text,331,1303193,0.0-19.0-3.1,76790,List2B,white,woman,,,,,"{""Q0"":""ruth and beth are meeting each other""}","<img src=""stim_listB/meet8.gif""</stim_listB>",are meeting each other,
null,"<div style=""font-size:60px;"">+</div>",,html-keyboard-response,332,1303708,0.0-19.0-0.2,76790,List2B,white,woman,,,,null,,,,
null,"<img src=""stim_listB/shout1.gif""</stim_listB>",,html-keyboard-response,333,1305712,0.0-19.0-1.2,76790,List2B,white,woman,,,,null,,,,
null,is shouting at,,html-keyboard-response,334,1307711,0.0-19.0-2.2,76790,List2B,white,woman,,,,null,,,,
10377,,,survey-text,335,1318089,0.0-19.0-3.2,76790,List2B,white,woman,,,,,"{""Q0"":""ruth is shouting at luke""}","<img src=""stim_listB/shout1.gif""</stim_listB>",is shouting at,
null,"<div style=""font-size:60px;"">+</div>",,html-keyboard-response,336,1318604,0.0-19.0-0.3,76790,List2B,white,woman,,,,null,,,,
null,"<img src=""stim_listB/touch8.gif""</stim_listB>",,html-keyboard-response,337,1320615,0.0-19.0-1.3,76790,List2B,white,woman,,,,null,,,,
null,are touching each other,,html-keyboard-response,338,1322617,0.0-19.0-2.3,76790,List2B,white,woman,,,,null,,,,
16980,,,survey-text,339,1339598,0.0-19.0-3.3,76790,List2B,white,woman,,,,,"{""Q0"":""ruth and beth are touching each other""}","<img src=""stim_listB/touch8.gif""</stim_listB>",are touching each other,
null,"<div style=""font-size:60px;"">+</div>",,html-keyboard-response,340,1340114,0.0-19.0-0.4,76790,List2B,white,woman,,,,null,,,,
null,"<img src=""stim_listB/kiss8.gif""</stim_listB>",,html-keyboard-response,341,1342125,0.0-19.0-1.4,76790,List2B,white,woman,,,,null,,,,
null,are kissing each other,,html-keyboard-response,342,1344124,0.0-19.0-2.4,76790,List2B,white,woman,,,,null,,,,
17680,,,survey-text,343,1361806,0.0-19.0-3.4,76790,List2B,white,woman,,,,,"{""Q0"":""jane and kate are kissing each other""}","<img src=""stim_listB/kiss8.gif""</stim_listB>",are kissing each other,
null,"<div style=""font-size:60px;"">+</div>",,html-keyboard-response,344,1362320,0.0-19.0-0.5,76790,List2B,white,woman,,,,null,,,,
null,"<img src=""stim_listB/talk7.gif""</stim_listB>",,html-keyboard-response,345,1364335,0.0-19.0-1.5,76790,List2B,white,woman,,,,null,,,,
null,is talking to,,html-keyboard-response,346,1366335,0.0-19.0-2.5,76790,List2B,white,woman,,,,null,,,,
9312,,,survey-text,347,1375649,0.0-19.0-3.5,76790,List2B,white,woman,,,,,"{""Q0"":""ruth is talking to kate""}","<img src=""stim_listB/talk7.gif""</stim_listB>",is talking to,
null,"<div style=""font-size:60px;"">+</div>",,html-keyboard-response,348,1376163,0.0-19.0-0.6,76790,List2B,white,woman,,,,null,,,,
null,"<img src=""stim_listB/talk3.gif""</stim_listB>",,html-keyboard-response,349,1378175,0.0-19.0-1.6,76790,List2B,white,woman,,,,null,,,,
null,is talking to,,html-keyboard-response,350,1380175,0.0-19.0-2.6,76790,List2B,white,woman,,,,null,,,,
12088,,,survey-text,351,1392265,0.0-19.0-3.6,76790,List2B,white,woman,,,,,"{""Q0"":""kate is talking to fred ""}","<img src=""stim_listB/talk3.gif""</stim_listB>",is talking to,
null,"<div style=""font-size:60px;"">+</div>",,html-keyboard-response,352,1392778,0.0-19.0-0.7,76790,List2B,white,woman,,,,null,,,,
null,"<img src=""stim_listB/touch6.gif""</stim_listB>",,html-keyboard-response,353,1394787,0.0-19.0-1.7,76790,List2B,white,woman,,,,null,,,,
null,are touching each other,,html-keyboard-response,354,1396791,0.0-19.0-2.7,76790,List2B,white,woman,,,,null,,,,
15376,,,survey-text,355,1412169,0.0-19.0-3.7,76790,List2B,white,woman,,,,,"{""Q0"":""luke and fred are touching each other""}","<img src=""stim_listB/touch6.gif""</stim_listB>",are touching each other,
null,"<div style=""font-size:60px;"">+</div>",,html-keyboard-response,356,1412683,0.0-19.0-0.8,76790,List2B,white,woman,,,,null,,,,
null,"<img src=""stim_listB/touch7.gif""</stim_listB>",,html-keyboard-response,357,1414688,0.0-19.0-1.8,76790,List2B,white,woman,,,,null,,,,
null,is touching,,html-keyboard-response,358,1416691,0.0-19.0-2.8,76790,List2B,white,woman,,,,null,,,,
9470,,,survey-text,359,1426164,0.0-19.0-3.8,76790,List2B,white,woman,,,,,"{""Q0"":""kate is touching jane""}","<img src=""stim_listB/touch7.gif""</stim_listB>",is touching,
null,"<div style=""font-size:60px;"">+</div>",,html-keyboard-response,360,1426679,0.0-19.0-0.9,76790,List2B,white,woman,,,,null,,,,
null,"<img src=""stim_listB/shout8.gif""</stim_listB>",,html-keyboard-response,361,1428692,0.0-19.0-1.9,76790,List2B,white,woman,,,,null,,,,
null,are shouting at each other,,html-keyboard-response,362,1430692,0.0-19.0-2.9,76790,List2B,white,woman,,,,null,,,,
16786,,,survey-text,363,1447480,0.0-19.0-3.9,76790,List2B,white,woman,,,,,"{""Q0"":""kate and jane are shouting at each other""}","<img src=""stim_listB/shout8.gif""</stim_listB>",are shouting at each other,
null,"<div style=""font-size:60px;"">+</div>",,html-keyboard-response,364,1447995,0.0-19.0-0.10,76790,List2B,white,woman,,,,null,,,,
null,"<img src=""stim_listB/talk6.gif""</stim_listB>",,html-keyboard-response,365,1449998,0.0-19.0-1.10,76790,List2B,white,woman,,,,null,,,,
null,are talking to each other,,html-keyboard-response,366,1452004,0.0-19.0-2.10,76790,List2B,white,woman,,,,null,,,,
14931,,,survey-text,367,1466936,0.0-19.0-3.10,76790,List2B,white,woman,,,,,"{""Q0"":""dave and fred are talking to each other""}","<img src=""stim_listB/talk6.gif""</stim_listB>",are talking to each other,
null,"<div style=""font-size:60px;"">+</div>",,html-keyboard-response,368,1467454,0.0-19.0-0.11,76790,List2B,white,woman,,,,null,,,,
null,"<img src=""stim_listB/kiss1.gif""</stim_listB>",,html-keyboard-response,369,1469470,0.0-19.0-1.11,76790,List2B,white,woman,,,,null,,,,
null,is kissing,,html-keyboard-response,370,1471465,0.0-19.0-2.11,76790,List2B,white,woman,,,,null,,,,
8740,,,survey-text,371,1480206,0.0-19.0-3.11,76790,List2B,white,woman,,,,,"{""Q0"":""jane is kissing luke""}","<img src=""stim_listB/kiss1.gif""</stim_listB>",is kissing,
null,"<div style=""font-size:60px;"">+</div>",,html-keyboard-response,372,1480723,0.0-19.0-0.12,76790,List2B,white,woman,,,,null,,,,
null,"<img src=""stim_listB/meet1.gif""</stim_listB>",,html-keyboard-response,373,1482735,0.0-19.0-1.12,76790,List2B,white,woman,,,,null,,,,
null,is meeting,,html-keyboard-response,374,1484731,0.0-19.0-2.12,76790,List2B,white,woman,,,,null,,,,
7792,,,survey-text,375,1492525,0.0-19.0-3.12,76790,List2B,white,woman,,,,,"{""Q0"":""jane is meeting dave""}","<img src=""stim_listB/meet1.gif""</stim_listB>",is meeting,
null,"<div style=""font-size:60px;"">+</div>",,html-keyboard-response,376,1493037,0.0-19.0-0.13,76790,List2B,white,woman,,,,null,,,,
null,"<img src=""stim_listB/fight2.gif""</stim_listB>",,html-keyboard-response,377,1495048,0.0-19.0-1.13,76790,List2B,white,woman,,,,null,,,,
null,are fighting each other,,html-keyboard-response,378,1497045,0.0-19.0-2.13,76790,List2B,white,woman,,,,null,,,,
14693,,,survey-text,379,1511740,0.0-19.0-3.13,76790,List2B,white,woman,,,,,"{""Q0"":""luke and ruth are fighting each other""}","<img src=""stim_listB/fight2.gif""</stim_listB>",are fighting each other,
null,"<div style=""font-size:60px;"">+</div>",,html-keyboard-response,380,1512254,0.0-19.0-0.14,76790,List2B,white,woman,,,,null,,,,
null,"<img src=""stim_listB/marry1.gif""</stim_listB>",,html-keyboard-response,381,1514262,0.0-19.0-1.14,76790,List2B,white,woman,,,,null,,,,
null,is marrying,,html-keyboard-response,382,1516262,0.0-19.0-2.14,76790,List2B,white,woman,,,,null,,,,
8752,,,survey-text,383,1525017,0.0-19.0-3.14,76790,List2B,white,woman,,,,,"{""Q0"":""ruth is marrying dave""}","<img src=""stim_listB/marry1.gif""</stim_listB>",is marrying,
null,"<div style=""font-size:60px;"">+</div>",,html-keyboard-response,384,1525532,0.0-19.0-0.15,76790,List2B,white,woman,,,,null,,,,
null,"<img src=""stim_listB/fight6.gif""</stim_listB>",,html-keyboard-response,385,1527546,0.0-19.0-1.15,76790,List2B,white,woman,,,,null,,,,
null,are fighting each other,,html-keyboard-response,386,1529548,0.0-19.0-2.15,76790,List2B,white,woman,,,,null,,,,
14873,,,survey-text,387,1544423,0.0-19.0-3.15,76790,List2B,white,woman,,,,,"{""Q0"":""luke and fred are fighting each other""}","<img src=""stim_listB/fight6.gif""</stim_listB>",are fighting each other,
null,"<div style=""font-size:60px;"">+</div>",,html-keyboard-response,388,1544939,0.0-19.0-0.16,76790,List2B,white,woman,,,,null,,,,
null,"<img src=""stim_listB/argue4.gif""</stim_listB>",,html-keyboard-response,389,1546951,0.0-19.0-1.16,76790,List2B,white,woman,,,,null,,,,
null,are arguing with each other,,html-keyboard-response,390,1548941,0.0-19.0-2.16,76790,List2B,white,woman,,,,null,,,,
16750,,,survey-text,391,1565692,0.0-19.0-3.16,76790,List2B,white,woman,,,,,"{""Q0"":""fred and kate are arguing with each other""}","<img src=""stim_listB/argue4.gif""</stim_listB>",are arguing with each other,
null,"<div style=""font-size:60px;"">+</div>",,html-keyboard-response,392,1566208,0.0-19.0-0.17,76790,List2B,white,woman,,,,null,,,,
null,"<img src=""stim_listB/marry5.gif""</stim_listB>",,html-keyboard-response,393,1568216,0.0-19.0-1.17,76790,List2B,white,woman,,,,null,,,,
null,is marrying,,html-keyboard-response,394,1570212,0.0-19.0-2.17,76790,List2B,white,woman,,,,null,,,,
8183,,,survey-text,395,1578398,0.0-19.0-3.17,76790,List2B,white,woman,,,,,"{""Q0"":""fred is marrying dave""}","<img src=""stim_listB/marry5.gif""</stim_listB>",is marrying,
null,"<div style=""font-size:60px;"">+</div>",,html-keyboard-response,396,1578910,0.0-19.0-0.18,76790,List2B,white,woman,,,,null,,,,
null,"<img src=""stim_listB/touch3.gif""</stim_listB>",,html-keyboard-response,397,1580922,0.0-19.0-1.18,76790,List2B,white,woman,,,,null,,,,
null,is touching,,html-keyboard-response,398,1582917,0.0-19.0-2.18,76790,List2B,white,woman,,,,null,,,,
8073,,,survey-text,399,1590991,0.0-19.0-3.18,76790,List2B,white,woman,,,,,"{""Q0"":""kate is touching mike""}","<img src=""stim_listB/touch3.gif""</stim_listB>",is touching,
null,"<div style=""font-size:60px;"">+</div>",,html-keyboard-response,400,1591505,0.0-19.0-0.19,76790,List2B,white,woman,,,,null,,,,
null,"<img src=""stim_listB/argue7.gif""</stim_listB>",,html-keyboard-response,401,1593518,0.0-19.0-1.19,76790,List2B,white,woman,,,,null,,,,
null,is arguing with,,html-keyboard-response,402,1595520,0.0-19.0-2.19,76790,List2B,white,woman,,,,null,,,,
10218,,,survey-text,403,1605739,0.0-19.0-3.19,76790,List2B,white,woman,,,,,"{""Q0"":""beth is arguing with jane""}","<img src=""stim_listB/argue7.gif""</stim_listB>",is arguing with,
2359,<p>Thank you for completing that task.</p><p>The final part of this session is a short questionnaire.</p><p>Press Continue.</p>,0,html-button-response,404,1608099,0.0-20.0,76790,List2B,white,woman,,,,,,,,
31775,,,survey-text,405,1640889,0.0-21.0,76790,List2B,white,woman,,,,,"{""Q0"":""58"",""Q1"":""English"",""Q2"":""English"",""Q3"":""Australia"",""Q4"":""Scottish"",""Q5"":""Female""}",,,demographics
36250,,,survey-likert,406,1677143,0.0-22.0,76790,List2B,white,woman,,,,,"{""Q0"":6,""Q1"":6,""Q2"":"""",""Q3"":6,""Q4"":6,""Q5"":6,""Q6"":6,""Q7"":5,""Q8"":6,""Q9"":5,""Q10"":5,""Q11"":5,""Q12"":5,""Q13"":5}",,,likert_race
42360,,,survey-likert,407,1719509,0.0-23.0,76790,List2B,white,woman,,,,,"{""Q0"":3,""Q1"":"""",""Q2"":4,""Q3"":5,""Q4"":5,""Q5"":5,""Q6"":5,""Q7"":3,""Q8"":4,""Q9"":5,""Q10"":4,""Q11"":4,""Q12"":4,""Q13"":3}",,,likert_gender
6406,,,survey-text,408,1725917,0.0-24.0,76790,List2B,white,woman,,,,,"{""Q0"":""ccc""}",,,worker_id
27807,,,external-html,409,1754376,0.0-25.0,76790,List2B,white,woman,debrief.html,,,,,,,
