rt,stimulus,button_pressed,trial_type,trial_index,time_elapsed,internal_node_id,subject,list,ppt_race,ppt_gender,url,first_guess,correct,key_press,responses,image_type,phrase_type,test_part
2274,Welcome to the experiment. Press Continue to begin.,0,html-button-response,0,2277,0.0-0.0,77012,List1A,black,woman,,,,,,,,
12830,,,external-html,1,16247,0.0-1.0,77012,List1A,black,woman,consent.html,,,,,,,
5568,"<p>On the next page, you will see portraits of 8 people and their names.</p><p>Your first task is to take a few minutes to memorise the names of these people.</p><p>You will have to recall their names during the rest of the experiment, so it is</p><p>essential that you try to memorise these people and their names as best as you can.</p><br><p><strong>You will then be tested on your memory of these names and portraits.</strong></p><br><p>The experiment will start after you have completed this memory test.</p><br><p>Ready?</p>",0,html-button-response,2,21817,0.0-2.0,77012,List1A,black,woman,,,,,,,,
44216,"<img src='img/portrait_matrix_list1.JPG' style='width:900px;height:500px;''></img><p>If you have memorised all the portraits and names and are ready to start, press Continue.</p><p><strong>Please note: Your memory of these faces will be tested 4 times during this experiment.</strong></p>",0,html-button-response,3,67036,0.0-3.0-0.0,77012,List1A,black,woman,,,,,,,,
9210,"<img src=""portrait/BM1.jpg""style=""width:400px;height:400px;""></img>",4,html-button-response,4,77247,0.0-3.0-1.0,77012,List1A,black,woman,,TRUE,4,,,,,
null,CORRECT,,html-keyboard-response,5,78750,0.0-3.0-2.0-0.0,77012,List1A,black,woman,,,,null,,,,
3076,"<img src=""portrait/BM2.jpg""style=""width:400px;height:400px;""></img>",5,html-button-response,6,81826,0.0-3.0-4.0,77012,List1A,black,woman,,TRUE,5,,,,,
null,CORRECT,,html-keyboard-response,7,83329,0.0-3.0-5.0-0.0,77012,List1A,black,woman,,,,null,,,,
5333,"<img src=""portrait/WM1.jpg""style=""width:400px;height:400px;""></img>",6,html-button-response,8,88663,0.0-3.0-7.0,77012,List1A,black,woman,,TRUE,6,,,,,
null,CORRECT,,html-keyboard-response,9,90167,0.0-3.0-8.0-0.0,77012,List1A,black,woman,,,,null,,,,
3864,"<img src=""portrait/WM2.jpg""style=""width:400px;height:400px;""></img>",7,html-button-response,10,94031,0.0-3.0-10.0,77012,List1A,black,woman,,TRUE,7,,,,,
null,CORRECT,,html-keyboard-response,11,95533,0.0-3.0-11.0-0.0,77012,List1A,black,woman,,,,null,,,,
4675,"<img src=""portrait/BW2.jpg""style=""width:400px;height:400px;""></img>",2,html-button-response,12,100210,0.0-3.0-13.0,77012,List1A,black,woman,,TRUE,2,,,,,
null,CORRECT,,html-keyboard-response,13,101714,0.0-3.0-14.0-0.0,77012,List1A,black,woman,,,,null,,,,
9216,"<img src=""portrait/WW1.jpg""style=""width:400px;height:400px;""></img>",3,html-button-response,14,110930,0.0-3.0-16.0,77012,List1A,black,woman,,TRUE,1,,,,,
4821,"<img src=""portrait/WW1.jpg""style=""width:400px;height:400px;""></img>",1,html-button-response,15,116754,0.0-3.0-18.0-0.0,77012,List1A,black,woman,,FALSE,1,,,,,
null,CORRECT,,html-keyboard-response,16,118256,0.0-3.0-18.0-1.0-0.0,77012,List1A,black,woman,,,,null,,,,
4939,"<img src=""portrait/BW1.jpg""style=""width:400px;height:400px;""></img>",0,html-button-response,17,123196,0.0-3.0-19.0,77012,List1A,black,woman,,TRUE,0,,,,,
null,CORRECT,,html-keyboard-response,18,124697,0.0-3.0-20.0-0.0,77012,List1A,black,woman,,,,null,,,,
3988,"<img src=""portrait/WW2.jpg""style=""width:400px;height:400px;""></img>",3,html-button-response,19,128685,0.0-3.0-22.0,77012,List1A,black,woman,,TRUE,3,,,,,
null,CORRECT,,html-keyboard-response,20,130187,0.0-3.0-23.0-0.0,77012,List1A,black,woman,,,,null,,,,
2913,<p>You got 7 out of 8 right first time. Press Continue.</p>,0,html-button-response,21,133101,0.0-3.0-25.0,77012,List1A,black,woman,,,,,,,,
4092,"As you did not score 100%, the memory game will repeat. Press Continue.",0,html-button-response,22,138195,0.0-3.0-26.0-0.0,77012,List1A,black,woman,,,,,,,,
38008,"<img src='img/portrait_matrix_list1.JPG' style='width:900px;height:500px;''></img><p>If you have memorised all the portraits and names and are ready to start, press Continue.</p><p><strong>Please note: Your memory of these faces will be tested 4 times during this experiment.</strong></p>",0,html-button-response,23,177207,0.0-3.1-0.1,77012,List1A,black,woman,,,,,,,,
4095,"<img src=""portrait/BM1.jpg""style=""width:400px;height:400px;""></img>",4,html-button-response,24,182303,0.0-3.1-1.1,77012,List1A,black,woman,,TRUE,4,,,,,
null,CORRECT,,html-keyboard-response,25,183806,0.0-3.1-2.1-0.1,77012,List1A,black,woman,,,,null,,,,
2848,"<img src=""portrait/BM2.jpg""style=""width:400px;height:400px;""></img>",5,html-button-response,26,186654,0.0-3.1-4.1,77012,List1A,black,woman,,TRUE,5,,,,,
null,CORRECT,,html-keyboard-response,27,188157,0.0-3.1-5.1-0.1,77012,List1A,black,woman,,,,null,,,,
8626,"<img src=""portrait/WM1.jpg""style=""width:400px;height:400px;""></img>",5,html-button-response,28,196783,0.0-3.1-7.1,77012,List1A,black,woman,,TRUE,6,,,,,
3110,"<img src=""portrait/WM1.jpg""style=""width:400px;height:400px;""></img>",6,html-button-response,29,200895,0.0-3.1-9.1-0.1,77012,List1A,black,woman,,FALSE,6,,,,,
null,CORRECT,,html-keyboard-response,30,202397,0.0-3.1-9.1-1.1-0.1,77012,List1A,black,woman,,,,null,,,,
2158,"<img src=""portrait/WM2.jpg""style=""width:400px;height:400px;""></img>",7,html-button-response,31,204556,0.0-3.1-10.1,77012,List1A,black,woman,,TRUE,7,,,,,
null,CORRECT,,html-keyboard-response,32,206060,0.0-3.1-11.1-0.1,77012,List1A,black,woman,,,,null,,,,
3240,"<img src=""portrait/BW2.jpg""style=""width:400px;height:400px;""></img>",2,html-button-response,33,209301,0.0-3.1-13.1,77012,List1A,black,woman,,TRUE,2,,,,,
null,CORRECT,,html-keyboard-response,34,210803,0.0-3.1-14.1-0.1,77012,List1A,black,woman,,,,null,,,,
7274,"<img src=""portrait/WW1.jpg""style=""width:400px;height:400px;""></img>",1,html-button-response,35,218078,0.0-3.1-16.1,77012,List1A,black,woman,,TRUE,1,,,,,
null,CORRECT,,html-keyboard-response,36,219581,0.0-3.1-17.1-0.1,77012,List1A,black,woman,,,,null,,,,
4225,"<img src=""portrait/BW1.jpg""style=""width:400px;height:400px;""></img>",0,html-button-response,37,223808,0.0-3.1-19.1,77012,List1A,black,woman,,TRUE,0,,,,,
null,CORRECT,,html-keyboard-response,38,225311,0.0-3.1-20.1-0.1,77012,List1A,black,woman,,,,null,,,,
11922,"<img src=""portrait/WW2.jpg""style=""width:400px;height:400px;""></img>",3,html-button-response,39,237233,0.0-3.1-22.1,77012,List1A,black,woman,,TRUE,3,,,,,
null,CORRECT,,html-keyboard-response,40,238736,0.0-3.1-23.1-0.1,77012,List1A,black,woman,,,,null,,,,
2578,<p>You got 7 out of 8 right first time. Press Continue.</p>,0,html-button-response,41,241314,0.0-3.1-25.1,77012,List1A,black,woman,,,,,,,,
1896,"As you did not score 100%, the memory game will repeat. Press Continue.",0,html-button-response,42,244212,0.0-3.1-26.1-0.1,77012,List1A,black,woman,,,,,,,,
1930,"<img src='img/portrait_matrix_list1.JPG' style='width:900px;height:500px;''></img><p>If you have memorised all the portraits and names and are ready to start, press Continue.</p><p><strong>Please note: Your memory of these faces will be tested 4 times during this experiment.</strong></p>",0,html-button-response,43,247144,0.0-3.2-0.2,77012,List1A,black,woman,,,,,,,,
2515,"<img src=""portrait/BM1.jpg""style=""width:400px;height:400px;""></img>",4,html-button-response,44,250662,0.0-3.2-1.2,77012,List1A,black,woman,,TRUE,4,,,,,
null,CORRECT,,html-keyboard-response,45,252164,0.0-3.2-2.2-0.2,77012,List1A,black,woman,,,,null,,,,
3095,"<img src=""portrait/BM2.jpg""style=""width:400px;height:400px;""></img>",5,html-button-response,46,255259,0.0-3.2-4.2,77012,List1A,black,woman,,TRUE,5,,,,,
null,CORRECT,,html-keyboard-response,47,256762,0.0-3.2-5.2-0.2,77012,List1A,black,woman,,,,null,,,,
3110,"<img src=""portrait/WM1.jpg""style=""width:400px;height:400px;""></img>",6,html-button-response,48,259872,0.0-3.2-7.2,77012,List1A,black,woman,,TRUE,6,,,,,
null,CORRECT,,html-keyboard-response,49,261375,0.0-3.2-8.2-0.2,77012,List1A,black,woman,,,,null,,,,
1636,"<img src=""portrait/WM2.jpg""style=""width:400px;height:400px;""></img>",7,html-button-response,50,263012,0.0-3.2-10.2,77012,List1A,black,woman,,TRUE,7,,,,,
null,CORRECT,,html-keyboard-response,51,264519,0.0-3.2-11.2-0.2,77012,List1A,black,woman,,,,null,,,,
6050,"<img src=""portrait/BW2.jpg""style=""width:400px;height:400px;""></img>",2,html-button-response,52,270570,0.0-3.2-13.2,77012,List1A,black,woman,,TRUE,2,,,,,
null,CORRECT,,html-keyboard-response,53,272071,0.0-3.2-14.2-0.2,77012,List1A,black,woman,,,,null,,,,
2505,"<img src=""portrait/WW1.jpg""style=""width:400px;height:400px;""></img>",1,html-button-response,54,274577,0.0-3.2-16.2,77012,List1A,black,woman,,TRUE,1,,,,,
null,CORRECT,,html-keyboard-response,55,276079,0.0-3.2-17.2-0.2,77012,List1A,black,woman,,,,null,,,,
4113,"<img src=""portrait/BW1.jpg""style=""width:400px;height:400px;""></img>",0,html-button-response,56,280193,0.0-3.2-19.2,77012,List1A,black,woman,,TRUE,0,,,,,
null,CORRECT,,html-keyboard-response,57,281696,0.0-3.2-20.2-0.2,77012,List1A,black,woman,,,,null,,,,
2700,"<img src=""portrait/WW2.jpg""style=""width:400px;height:400px;""></img>",3,html-button-response,58,284396,0.0-3.2-22.2,77012,List1A,black,woman,,TRUE,3,,,,,
null,CORRECT,,html-keyboard-response,59,285900,0.0-3.2-23.2-0.2,77012,List1A,black,woman,,,,null,,,,
1835,<p>You got 8 out of 8 right first time. Press Continue.</p>,0,html-button-response,60,287735,0.0-3.2-25.2,77012,List1A,black,woman,,,,,,,,
101847,"<p>In this experiment, you will view photographs of the people from the memory game interacting.</p><p>By using the <strong>exact</strong> phrase given <i>after</i> the photograph appears and recalling the correct names of the people in the photographs, form a sentence describing the interaction. You do not need to capitalise names.</p><p>Type your answer in the space provided. Please complete every sentence before moving onto the next trial.</p><p>You will only have a few seconds to memorise each given photograph and phrase before you can respond, so try your best to focus.</p><p>An example is given below. Press 'Continue' when you are ready.</p><img src='img/speaking_example_v2.jpg' style='width:800px;height:460px;''></img>",0,html-button-response,61,390584,0.0-4.0,77012,List1A,black,woman,,,,,,,,
2404,"<p>Before the experiment starts, you will watch two example trials. Press 'Continue'.</p>",0,html-button-response,62,393990,0.0-5.0,77012,List1A,black,woman,,,,,,,,
null,<img src='img/speaking_WW.gif'></img>,,html-keyboard-response,63,396992,0.0-6.0,77012,List1A,black,woman,,,,null,,,,
null,<p>is speaking to</p>,,html-keyboard-response,64,398995,0.0-7.0,77012,List1A,black,woman,,,,null,,,,
18539,<p><b>Answer:</b> kate is speaking to beth</p>,0,html-button-response,65,417534,0.0-8.0,77012,List1A,black,woman,,,,,,,,
null,<img src='img/pointing_BM.gif'></img>,,html-keyboard-response,66,420536,0.0-9.0,77012,List1A,black,woman,,,,null,,,,
null,<p>are pointing at each other</p>,,html-keyboard-response,67,422536,0.0-10.0,77012,List1A,black,woman,,,,null,,,,
1651,<p><b>Answer:</b> luke and dave are pointing at each other</p>,0,html-button-response,68,424188,0.0-11.0,77012,List1A,black,woman,,,,,,,,
4989,"<p>Ready to start the experiment?</p><br><p><strong>Remember to describe the picture using a full sentence,</strong></p><p><strong> that combines the names of the people with the given phrase.</strong></p><p><strong> You do not need to capitalise names or use punctuation.</strong></p><br><p>Press 'Continue' to begin.</p>",0,html-button-response,69,430178,0.0-12.0,77012,List1A,black,woman,,,,,,,,
null,"<div style=""font-size:60px;"">+</div>",,html-keyboard-response,70,431680,0.0-13.0-0.0,77012,List1A,black,woman,,,,null,,,,
null,"<img src=""stim_listA/meet2.gif""</stim_listA>",,html-keyboard-response,71,433683,0.0-13.0-1.0,77012,List1A,black,woman,,,,null,,,,
null,are meeting each other,,html-keyboard-response,72,435683,0.0-13.0-2.0,77012,List1A,black,woman,,,,null,,,,
12530,,,survey-text,73,448214,0.0-13.0-3.0,77012,List1A,black,woman,,,,,"{""Q0"":""Fred is shaking hands with Beth.""}","<img src=""stim_listA/meet2.gif""</stim_listA>",are meeting each other,
null,"<div style=""font-size:60px;"">+</div>",,html-keyboard-response,74,448716,0.0-13.0-0.1,77012,List1A,black,woman,,,,null,,,,
null,"<img src=""stim_listA/marry2.gif""</stim_listA>",,html-keyboard-response,75,450718,0.0-13.0-1.1,77012,List1A,black,woman,,,,null,,,,
null,are marrying each other,,html-keyboard-response,76,452718,0.0-13.0-2.1,77012,List1A,black,woman,,,,null,,,,
10828,,,survey-text,77,463548,0.0-13.0-3.1,77012,List1A,black,woman,,,,,"{""Q0"":""Fred is shaking hands with Kate.""}","<img src=""stim_listA/marry2.gif""</stim_listA>",are marrying each other,
null,"<div style=""font-size:60px;"">+</div>",,html-keyboard-response,78,464049,0.0-13.0-0.2,77012,List1A,black,woman,,,,null,,,,
null,"<img src=""stim_listA/hug7.gif""</stim_listA>",,html-keyboard-response,79,466050,0.0-13.0-1.2,77012,List1A,black,woman,,,,null,,,,
null,is hugging,,html-keyboard-response,80,468052,0.0-13.0-2.2,77012,List1A,black,woman,,,,null,,,,
6801,,,survey-text,81,474853,0.0-13.0-3.2,77012,List1A,black,woman,,,,,"{""Q0"":""Beth is hugging Ruth.""}","<img src=""stim_listA/hug7.gif""</stim_listA>",is hugging,
null,"<div style=""font-size:60px;"">+</div>",,html-keyboard-response,82,475354,0.0-13.0-0.3,77012,List1A,black,woman,,,,null,,,,
null,"<img src=""stim_listA/talk2.gif""</stim_listA>",,html-keyboard-response,83,477355,0.0-13.0-1.3,77012,List1A,black,woman,,,,null,,,,
null,are talking to each other,,html-keyboard-response,84,479357,0.0-13.0-2.3,77012,List1A,black,woman,,,,null,,,,
8091,,,survey-text,85,487450,0.0-13.0-3.3,77012,List1A,black,woman,,,,,"{""Q0"":""Beth is speaking to Mike.""}","<img src=""stim_listA/talk2.gif""</stim_listA>",are talking to each other,
null,"<div style=""font-size:60px;"">+</div>",,html-keyboard-response,86,487951,0.0-13.0-0.4,77012,List1A,black,woman,,,,null,,,,
null,"<img src=""stim_listA/talk1.gif""</stim_listA>",,html-keyboard-response,87,489952,0.0-13.0-1.4,77012,List1A,black,woman,,,,null,,,,
null,is talking to,,html-keyboard-response,88,491954,0.0-13.0-2.4,77012,List1A,black,woman,,,,null,,,,
6901,,,survey-text,89,498856,0.0-13.0-3.4,77012,List1A,black,woman,,,,,"{""Q0"":""Fred is talking to Kate.""}","<img src=""stim_listA/talk1.gif""</stim_listA>",is talking to,
null,"<div style=""font-size:60px;"">+</div>",,html-keyboard-response,90,499357,0.0-13.0-0.5,77012,List1A,black,woman,,,,null,,,,
null,"<img src=""stim_listA/kiss5.gif""</stim_listA>",,html-keyboard-response,91,501357,0.0-13.0-1.5,77012,List1A,black,woman,,,,null,,,,
null,is kissing,,html-keyboard-response,92,503360,0.0-13.0-2.5,77012,List1A,black,woman,,,,null,,,,
10553,,,survey-text,93,513913,0.0-13.0-3.5,77012,List1A,black,woman,,,,,"{""Q0"":""Fred is kissing Luke.""}","<img src=""stim_listA/kiss5.gif""</stim_listA>",is kissing,
null,"<div style=""font-size:60px;"">+</div>",,html-keyboard-response,94,514416,0.0-13.0-0.6,77012,List1A,black,woman,,,,null,,,,
null,"<img src=""stim_listA/shout4.gif""</stim_listA>",,html-keyboard-response,95,516417,0.0-13.0-1.6,77012,List1A,black,woman,,,,null,,,,
null,are shouting at each other,,html-keyboard-response,96,518418,0.0-13.0-2.6,77012,List1A,black,woman,,,,null,,,,
10015,,,survey-text,97,528433,0.0-13.0-3.6,77012,List1A,black,woman,,,,,"{""Q0"":""Dave is shouting at Jane.""}","<img src=""stim_listA/shout4.gif""</stim_listA>",are shouting at each other,
null,"<div style=""font-size:60px;"">+</div>",,html-keyboard-response,98,528935,0.0-13.0-0.7,77012,List1A,black,woman,,,,null,,,,
null,"<img src=""stim_listA/kiss4.gif""</stim_listA>",,html-keyboard-response,99,530937,0.0-13.0-1.7,77012,List1A,black,woman,,,,null,,,,
null,are kissing each other,,html-keyboard-response,100,532939,0.0-13.0-2.7,77012,List1A,black,woman,,,,null,,,,
6561,,,survey-text,101,539502,0.0-13.0-3.7,77012,List1A,black,woman,,,,,"{""Q0"":""Dave is kissing Jane.""}","<img src=""stim_listA/kiss4.gif""</stim_listA>",are kissing each other,
null,"<div style=""font-size:60px;"">+</div>",,html-keyboard-response,102,540003,0.0-13.0-0.8,77012,List1A,black,woman,,,,null,,,,
null,"<img src=""stim_listA/shout3.gif""</stim_listA>",,html-keyboard-response,103,542004,0.0-13.0-1.8,77012,List1A,black,woman,,,,null,,,,
null,is shouting at,,html-keyboard-response,104,544006,0.0-13.0-2.8,77012,List1A,black,woman,,,,null,,,,
14499,,,survey-text,105,558506,0.0-13.0-3.8,77012,List1A,black,woman,,,,,"{""Q0"":""Dave is shouting at Ruth.""}","<img src=""stim_listA/shout3.gif""</stim_listA>",is shouting at,
null,"<div style=""font-size:60px;"">+</div>",,html-keyboard-response,106,559007,0.0-13.0-0.9,77012,List1A,black,woman,,,,null,,,,
null,"<img src=""stim_listA/argue7.gif""</stim_listA>",,html-keyboard-response,107,561008,0.0-13.0-1.9,77012,List1A,black,woman,,,,null,,,,
null,is arguing with,,html-keyboard-response,108,563010,0.0-13.0-2.9,77012,List1A,black,woman,,,,null,,,,
10403,,,survey-text,109,573414,0.0-13.0-3.9,77012,List1A,black,woman,,,,,"{""Q0"":""Kate is arguing with Ruth.""}","<img src=""stim_listA/argue7.gif""</stim_listA>",is arguing with,
null,"<div style=""font-size:60px;"">+</div>",,html-keyboard-response,110,573915,0.0-13.0-0.10,77012,List1A,black,woman,,,,null,,,,
null,"<img src=""stim_listA/marry7.gif""</stim_listA>",,html-keyboard-response,111,575915,0.0-13.0-1.10,77012,List1A,black,woman,,,,null,,,,
null,is marrying,,html-keyboard-response,112,577918,0.0-13.0-2.10,77012,List1A,black,woman,,,,null,,,,
9008,,,survey-text,113,586926,0.0-13.0-3.10,77012,List1A,black,woman,,,,,"{""Q0"":""Kate is marrying Ruth.""}","<img src=""stim_listA/marry7.gif""</stim_listA>",is marrying,
null,"<div style=""font-size:60px;"">+</div>",,html-keyboard-response,114,587430,0.0-13.0-0.11,77012,List1A,black,woman,,,,null,,,,
null,"<img src=""stim_listA/fight7.gif""</stim_listA>",,html-keyboard-response,115,589431,0.0-13.0-1.11,77012,List1A,black,woman,,,,null,,,,
null,is fighting,,html-keyboard-response,116,591431,0.0-13.0-2.11,77012,List1A,black,woman,,,,null,,,,
11158,,,survey-text,117,602590,0.0-13.0-3.11,77012,List1A,black,woman,,,,,"{""Q0"":""Kate is fighting Jane.""}","<img src=""stim_listA/fight7.gif""</stim_listA>",is fighting,
null,"<div style=""font-size:60px;"">+</div>",,html-keyboard-response,118,603092,0.0-13.0-0.12,77012,List1A,black,woman,,,,null,,,,
null,"<img src=""stim_listA/argue2.gif""</stim_listA>",,html-keyboard-response,119,605093,0.0-13.0-1.12,77012,List1A,black,woman,,,,null,,,,
null,are arguing with each other,,html-keyboard-response,120,607094,0.0-13.0-2.12,77012,List1A,black,woman,,,,null,,,,
13286,,,survey-text,121,620381,0.0-13.0-3.12,77012,List1A,black,woman,,,,,"{""Q0"":""Fred is arguing with Kate.""}","<img src=""stim_listA/argue2.gif""</stim_listA>",are arguing with each other,
null,"<div style=""font-size:60px;"">+</div>",,html-keyboard-response,122,620883,0.0-13.0-0.13,77012,List1A,black,woman,,,,null,,,,
null,"<img src=""stim_listA/shout1.gif""</stim_listA>",,html-keyboard-response,123,622884,0.0-13.0-1.13,77012,List1A,black,woman,,,,null,,,,
null,is shouting at,,html-keyboard-response,124,624886,0.0-13.0-2.13,77012,List1A,black,woman,,,,null,,,,
6455,,,survey-text,125,631342,0.0-13.0-3.13,77012,List1A,black,woman,,,,,"{""Q0"":""Beth is shouting at Fred.""}","<img src=""stim_listA/shout1.gif""</stim_listA>",is shouting at,
null,"<div style=""font-size:60px;"">+</div>",,html-keyboard-response,126,631843,0.0-13.0-0.14,77012,List1A,black,woman,,,,null,,,,
null,"<img src=""stim_listA/marry4.gif""</stim_listA>",,html-keyboard-response,127,633845,0.0-13.0-1.14,77012,List1A,black,woman,,,,null,,,,
null,are marrying each other,,html-keyboard-response,128,635846,0.0-13.0-2.14,77012,List1A,black,woman,,,,null,,,,
8075,,,survey-text,129,643922,0.0-13.0-3.14,77012,List1A,black,woman,,,,,"{""Q0"":""Luke is marrying Jane.""}","<img src=""stim_listA/marry4.gif""</stim_listA>",are marrying each other,
null,"<div style=""font-size:60px;"">+</div>",,html-keyboard-response,130,644423,0.0-13.0-0.15,77012,List1A,black,woman,,,,null,,,,
null,"<img src=""stim_listA/talk8.gif""</stim_listA>",,html-keyboard-response,131,646425,0.0-13.0-1.15,77012,List1A,black,woman,,,,null,,,,
null,are talking to each other,,html-keyboard-response,132,648426,0.0-13.0-2.15,77012,List1A,black,woman,,,,null,,,,
12889,,,survey-text,133,661315,0.0-13.0-3.15,77012,List1A,black,woman,,,,,"{""Q0"":""Ruth and Beth are talking to eachother.""}","<img src=""stim_listA/talk8.gif""</stim_listA>",are talking to each other,
null,"<div style=""font-size:60px;"">+</div>",,html-keyboard-response,134,661817,0.0-13.0-0.16,77012,List1A,black,woman,,,,null,,,,
null,"<img src=""stim_listA/hug3.gif""</stim_listA>",,html-keyboard-response,135,663820,0.0-13.0-1.16,77012,List1A,black,woman,,,,null,,,,
null,is hugging,,html-keyboard-response,136,665822,0.0-13.0-2.16,77012,List1A,black,woman,,,,null,,,,
6793,,,survey-text,137,672615,0.0-13.0-3.16,77012,List1A,black,woman,,,,,"{""Q0"":""Ruth and Luke are hugging.""}","<img src=""stim_listA/hug3.gif""</stim_listA>",is hugging,
null,"<div style=""font-size:60px;"">+</div>",,html-keyboard-response,138,673116,0.0-13.0-0.17,77012,List1A,black,woman,,,,null,,,,
null,"<img src=""stim_listA/shout8.gif""</stim_listA>",,html-keyboard-response,139,675117,0.0-13.0-1.17,77012,List1A,black,woman,,,,null,,,,
null,are shouting at each other,,html-keyboard-response,140,677117,0.0-13.0-2.17,77012,List1A,black,woman,,,,null,,,,
12227,,,survey-text,141,689345,0.0-13.0-3.17,77012,List1A,black,woman,,,,,"{""Q0"":""Kate and Jane are shouting at eachother.""}","<img src=""stim_listA/shout8.gif""</stim_listA>",are shouting at each other,
null,"<div style=""font-size:60px;"">+</div>",,html-keyboard-response,142,689847,0.0-13.0-0.18,77012,List1A,black,woman,,,,null,,,,
null,"<img src=""stim_listA/dance8.gif""</stim_listA>",,html-keyboard-response,143,691849,0.0-13.0-1.18,77012,List1A,black,woman,,,,null,,,,
null,are dancing with each other,,html-keyboard-response,144,693850,0.0-13.0-2.18,77012,List1A,black,woman,,,,null,,,,
10370,,,survey-text,145,704222,0.0-13.0-3.18,77012,List1A,black,woman,,,,,"{""Q0"":""Kate and Ruth are dancing with eachother.""}","<img src=""stim_listA/dance8.gif""</stim_listA>",are dancing with each other,
null,"<div style=""font-size:60px;"">+</div>",,html-keyboard-response,146,704722,0.0-13.0-0.19,77012,List1A,black,woman,,,,null,,,,
null,"<img src=""stim_listA/hug8.gif""</stim_listA>",,html-keyboard-response,147,706724,0.0-13.0-1.19,77012,List1A,black,woman,,,,null,,,,
null,are hugging each other,,html-keyboard-response,148,708724,0.0-13.0-2.19,77012,List1A,black,woman,,,,null,,,,
9639,,,survey-text,149,718363,0.0-13.0-3.19,77012,List1A,black,woman,,,,,"{""Q0"":""Jane and Kate are hugging eachother.""}","<img src=""stim_listA/hug8.gif""</stim_listA>",are hugging each other,
8638,"<img src='img/portrait_matrix_list1.JPG' style='width:900px;height:500px;''></img><p>If you have memorised all the portraits and names and are ready to start, press Continue.</p><p><strong>Please note: Your memory of these faces will be tested 4 times during this experiment.</strong></p>",0,html-button-response,150,727003,0.0-14.0-0.0,77012,List1A,black,woman,,,,,,,,
5156,"<img src=""portrait/WM1.jpg""style=""width:400px;height:400px;""></img>",6,html-button-response,151,733160,0.0-14.0-1.0,77012,List1A,black,woman,,TRUE,6,,,,,
null,CORRECT,,html-keyboard-response,152,734662,0.0-14.0-2.0-0.0,77012,List1A,black,woman,,,,null,,,,
2872,"<img src=""portrait/WW2.jpg""style=""width:400px;height:400px;""></img>",3,html-button-response,153,737535,0.0-14.0-4.0,77012,List1A,black,woman,,TRUE,3,,,,,
null,CORRECT,,html-keyboard-response,154,739039,0.0-14.0-5.0-0.0,77012,List1A,black,woman,,,,null,,,,
3052,"<img src=""portrait/BW2.jpg""style=""width:400px;height:400px;""></img>",2,html-button-response,155,742092,0.0-14.0-7.0,77012,List1A,black,woman,,TRUE,2,,,,,
null,CORRECT,,html-keyboard-response,156,743595,0.0-14.0-8.0-0.0,77012,List1A,black,woman,,,,null,,,,
4340,"<img src=""portrait/BW1.jpg""style=""width:400px;height:400px;""></img>",0,html-button-response,157,747935,0.0-14.0-10.0,77012,List1A,black,woman,,TRUE,0,,,,,
null,CORRECT,,html-keyboard-response,158,749437,0.0-14.0-11.0-0.0,77012,List1A,black,woman,,,,null,,,,
3156,"<img src=""portrait/WW1.jpg""style=""width:400px;height:400px;""></img>",1,html-button-response,159,752593,0.0-14.0-13.0,77012,List1A,black,woman,,TRUE,1,,,,,
null,CORRECT,,html-keyboard-response,160,754095,0.0-14.0-14.0-0.0,77012,List1A,black,woman,,,,null,,,,
3338,"<img src=""portrait/BM1.jpg""style=""width:400px;height:400px;""></img>",4,html-button-response,161,757434,0.0-14.0-16.0,77012,List1A,black,woman,,TRUE,4,,,,,
null,CORRECT,,html-keyboard-response,162,758936,0.0-14.0-17.0-0.0,77012,List1A,black,woman,,,,null,,,,
4521,"<img src=""portrait/WM2.jpg""style=""width:400px;height:400px;""></img>",7,html-button-response,163,763458,0.0-14.0-19.0,77012,List1A,black,woman,,TRUE,7,,,,,
null,CORRECT,,html-keyboard-response,164,764960,0.0-14.0-20.0-0.0,77012,List1A,black,woman,,,,null,,,,
2640,"<img src=""portrait/BM2.jpg""style=""width:400px;height:400px;""></img>",5,html-button-response,165,767601,0.0-14.0-22.0,77012,List1A,black,woman,,TRUE,5,,,,,
null,CORRECT,,html-keyboard-response,166,769103,0.0-14.0-23.0-0.0,77012,List1A,black,woman,,,,null,,,,
1873,<p>You got 8 out of 8 right first time. Press Continue.</p>,0,html-button-response,167,770978,0.0-14.0-25.0,77012,List1A,black,woman,,,,,,,,
null,"<div style=""font-size:60px;"">+</div>",,html-keyboard-response,168,772481,0.0-15.0-0.0,77012,List1A,black,woman,,,,null,,,,
null,"<img src=""stim_listA/meet6.gif""</stim_listA>",,html-keyboard-response,169,774483,0.0-15.0-1.0,77012,List1A,black,woman,,,,null,,,,
null,are meeting each other,,html-keyboard-response,170,776485,0.0-15.0-2.0,77012,List1A,black,woman,,,,null,,,,
10453,,,survey-text,171,786939,0.0-15.0-3.0,77012,List1A,black,woman,,,,,"{""Q0"":""Fred and Dave are meeting eachother.""}","<img src=""stim_listA/meet6.gif""</stim_listA>",are meeting each other,
null,"<div style=""font-size:60px;"">+</div>",,html-keyboard-response,172,787440,0.0-15.0-0.1,77012,List1A,black,woman,,,,null,,,,
null,"<img src=""stim_listA/meet1.gif""</stim_listA>",,html-keyboard-response,173,789443,0.0-15.0-1.1,77012,List1A,black,woman,,,,null,,,,
null,is meeting,,html-keyboard-response,174,791444,0.0-15.0-2.1,77012,List1A,black,woman,,,,null,,,,
6229,,,survey-text,175,797673,0.0-15.0-3.1,77012,List1A,black,woman,,,,,"{""Q0"":""Mike is meeting Kate.""}","<img src=""stim_listA/meet1.gif""</stim_listA>",is meeting,
null,"<div style=""font-size:60px;"">+</div>",,html-keyboard-response,176,798173,0.0-15.0-0.2,77012,List1A,black,woman,,,,null,,,,
null,"<img src=""stim_listA/kiss1.gif""</stim_listA>",,html-keyboard-response,177,800174,0.0-15.0-1.2,77012,List1A,black,woman,,,,null,,,,
null,is kissing,,html-keyboard-response,178,802176,0.0-15.0-2.2,77012,List1A,black,woman,,,,null,,,,
19709,,,survey-text,179,821886,0.0-15.0-3.2,77012,List1A,black,woman,,,,,"{""Q0"":""Beth is kissing Fred.""}","<img src=""stim_listA/kiss1.gif""</stim_listA>",is kissing,
null,"<div style=""font-size:60px;"">+</div>",,html-keyboard-response,180,822387,0.0-15.0-0.3,77012,List1A,black,woman,,,,null,,,,
null,"<img src=""stim_listA/touch1.gif""</stim_listA>",,html-keyboard-response,181,824389,0.0-15.0-1.3,77012,List1A,black,woman,,,,null,,,,
null,is touching,,html-keyboard-response,182,826390,0.0-15.0-2.3,77012,List1A,black,woman,,,,null,,,,
6727,,,survey-text,183,833118,0.0-15.0-3.3,77012,List1A,black,woman,,,,,"{""Q0"":""Mike is touching Kate.""}","<img src=""stim_listA/touch1.gif""</stim_listA>",is touching,
null,"<div style=""font-size:60px;"">+</div>",,html-keyboard-response,184,833620,0.0-15.0-0.4,77012,List1A,black,woman,,,,null,,,,
null,"<img src=""stim_listA/fight1.gif""</stim_listA>",,html-keyboard-response,185,835621,0.0-15.0-1.4,77012,List1A,black,woman,,,,null,,,,
null,is fighting,,html-keyboard-response,186,837624,0.0-15.0-2.4,77012,List1A,black,woman,,,,null,,,,
6006,,,survey-text,187,843630,0.0-15.0-3.4,77012,List1A,black,woman,,,,,"{""Q0"":""Mike is fighting Kate.""}","<img src=""stim_listA/fight1.gif""</stim_listA>",is fighting,
null,"<div style=""font-size:60px;"">+</div>",,html-keyboard-response,188,844132,0.0-15.0-0.5,77012,List1A,black,woman,,,,null,,,,
null,"<img src=""stim_listA/talk3.gif""</stim_listA>",,html-keyboard-response,189,846134,0.0-15.0-1.5,77012,List1A,black,woman,,,,null,,,,
null,is talking to,,html-keyboard-response,190,848134,0.0-15.0-2.5,77012,List1A,black,woman,,,,null,,,,
13033,,,survey-text,191,861169,0.0-15.0-3.5,77012,List1A,black,woman,,,,,"{""Q0"":""Luke is fighting Jane.""}","<img src=""stim_listA/talk3.gif""</stim_listA>",is talking to,
null,"<div style=""font-size:60px;"">+</div>",,html-keyboard-response,192,861670,0.0-15.0-0.6,77012,List1A,black,woman,,,,null,,,,
null,"<img src=""stim_listA/fight4.gif""</stim_listA>",,html-keyboard-response,193,863672,0.0-15.0-1.6,77012,List1A,black,woman,,,,null,,,,
null,are fighting each other,,html-keyboard-response,194,865674,0.0-15.0-2.6,77012,List1A,black,woman,,,,null,,,,
10074,,,survey-text,195,875749,0.0-15.0-3.6,77012,List1A,black,woman,,,,,"{""Q0"":""Ruth is fighting Luke.""}","<img src=""stim_listA/fight4.gif""</stim_listA>",are fighting each other,
null,"<div style=""font-size:60px;"">+</div>",,html-keyboard-response,196,876251,0.0-15.0-0.7,77012,List1A,black,woman,,,,null,,,,
null,"<img src=""stim_listA/argue5.gif""</stim_listA>",,html-keyboard-response,197,878254,0.0-15.0-1.7,77012,List1A,black,woman,,,,null,,,,
null,is arguing with,,html-keyboard-response,198,880255,0.0-15.0-2.7,77012,List1A,black,woman,,,,null,,,,
7057,,,survey-text,199,887313,0.0-15.0-3.7,77012,List1A,black,woman,,,,,"{""Q0"":""Luke is arguing with Mike.""}","<img src=""stim_listA/argue5.gif""</stim_listA>",is arguing with,
null,"<div style=""font-size:60px;"">+</div>",,html-keyboard-response,200,887814,0.0-15.0-0.8,77012,List1A,black,woman,,,,null,,,,
null,"<img src=""stim_listA/argue8.gif""</stim_listA>",,html-keyboard-response,201,889815,0.0-15.0-1.8,77012,List1A,black,woman,,,,null,,,,
null,are arguing with each other,,html-keyboard-response,202,891817,0.0-15.0-2.8,77012,List1A,black,woman,,,,null,,,,
12870,,,survey-text,203,904689,0.0-15.0-3.8,77012,List1A,black,woman,,,,,"{""Q0"":""Jane and Beth are arguing with eachother.""}","<img src=""stim_listA/argue8.gif""</stim_listA>",are arguing with each other,
null,"<div style=""font-size:60px;"">+</div>",,html-keyboard-response,204,905190,0.0-15.0-0.9,77012,List1A,black,woman,,,,null,,,,
null,"<img src=""stim_listA/marry3.gif""</stim_listA>",,html-keyboard-response,205,907191,0.0-15.0-1.9,77012,List1A,black,woman,,,,null,,,,
null,is marrying,,html-keyboard-response,206,909191,0.0-15.0-2.9,77012,List1A,black,woman,,,,null,,,,
9967,,,survey-text,207,919159,0.0-15.0-3.9,77012,List1A,black,woman,,,,,"{""Q0"":""Dave is marrying Ruth.""}","<img src=""stim_listA/marry3.gif""</stim_listA>",is marrying,
null,"<div style=""font-size:60px;"">+</div>",,html-keyboard-response,208,919661,0.0-15.0-0.10,77012,List1A,black,woman,,,,null,,,,
null,"<img src=""stim_listA/kiss6.gif""</stim_listA>",,html-keyboard-response,209,921662,0.0-15.0-1.10,77012,List1A,black,woman,,,,null,,,,
null,are kissing each other,,html-keyboard-response,210,923665,0.0-15.0-2.10,77012,List1A,black,woman,,,,null,,,,
9850,,,survey-text,211,933516,0.0-15.0-3.10,77012,List1A,black,woman,,,,,"{""Q0"":""Mike and Dave are kissing eachother.""}","<img src=""stim_listA/kiss6.gif""</stim_listA>",are kissing each other,
null,"<div style=""font-size:60px;"">+</div>",,html-keyboard-response,212,934017,0.0-15.0-0.11,77012,List1A,black,woman,,,,null,,,,
null,"<img src=""stim_listA/dance4.gif""</stim_listA>",,html-keyboard-response,213,936019,0.0-15.0-1.11,77012,List1A,black,woman,,,,null,,,,
null,are dancing with each other,,html-keyboard-response,214,938020,0.0-15.0-2.11,77012,List1A,black,woman,,,,null,,,,
9555,,,survey-text,215,947575,0.0-15.0-3.11,77012,List1A,black,woman,,,,,"{""Q0"":""Dave and Ruth are dancing with eachother.""}","<img src=""stim_listA/dance4.gif""</stim_listA>",are dancing with each other,
null,"<div style=""font-size:60px;"">+</div>",,html-keyboard-response,216,948077,0.0-15.0-0.12,77012,List1A,black,woman,,,,null,,,,
null,"<img src=""stim_listA/meet8.gif""</stim_listA>",,html-keyboard-response,217,950078,0.0-15.0-1.12,77012,List1A,black,woman,,,,null,,,,
null,are meeting each other,,html-keyboard-response,218,952079,0.0-15.0-2.12,77012,List1A,black,woman,,,,null,,,,
10294,,,survey-text,219,962374,0.0-15.0-3.12,77012,List1A,black,woman,,,,,"{""Q0"":""Beth and Ruth are meeting each other.""}","<img src=""stim_listA/meet8.gif""</stim_listA>",are meeting each other,
null,"<div style=""font-size:60px;"">+</div>",,html-keyboard-response,220,962875,0.0-15.0-0.13,77012,List1A,black,woman,,,,null,,,,
null,"<img src=""stim_listA/talk5.gif""</stim_listA>",,html-keyboard-response,221,964877,0.0-15.0-1.13,77012,List1A,black,woman,,,,null,,,,
null,is talking to,,html-keyboard-response,222,966879,0.0-15.0-2.13,77012,List1A,black,woman,,,,null,,,,
6669,,,survey-text,223,973548,0.0-15.0-3.13,77012,List1A,black,woman,,,,,"{""Q0"":""Fred is talking to Dave.""}","<img src=""stim_listA/talk5.gif""</stim_listA>",is talking to,
null,"<div style=""font-size:60px;"">+</div>",,html-keyboard-response,224,974049,0.0-15.0-0.14,77012,List1A,black,woman,,,,null,,,,
null,"<img src=""stim_listA/meet4.gif""</stim_listA>",,html-keyboard-response,225,976051,0.0-15.0-1.14,77012,List1A,black,woman,,,,null,,,,
null,are meeting each other,,html-keyboard-response,226,978051,0.0-15.0-2.14,77012,List1A,black,woman,,,,null,,,,
8790,,,survey-text,227,986843,0.0-15.0-3.14,77012,List1A,black,woman,,,,,"{""Q0"":""Luke and Ruth are meeting each other.""}","<img src=""stim_listA/meet4.gif""</stim_listA>",are meeting each other,
null,"<div style=""font-size:60px;"">+</div>",,html-keyboard-response,228,987344,0.0-15.0-0.15,77012,List1A,black,woman,,,,null,,,,
null,"<img src=""stim_listA/touch4.gif""</stim_listA>",,html-keyboard-response,229,989346,0.0-15.0-1.15,77012,List1A,black,woman,,,,null,,,,
null,are touching each other,,html-keyboard-response,230,991349,0.0-15.0-2.15,77012,List1A,black,woman,,,,null,,,,
13098,,,survey-text,231,1004447,0.0-15.0-3.15,77012,List1A,black,woman,,,,,"{""Q0"":""Luke and Ruth are touching each other.""}","<img src=""stim_listA/touch4.gif""</stim_listA>",are touching each other,
null,"<div style=""font-size:60px;"">+</div>",,html-keyboard-response,232,1004949,0.0-15.0-0.16,77012,List1A,black,woman,,,,null,,,,
null,"<img src=""stim_listA/talk7.gif""</stim_listA>",,html-keyboard-response,233,1006950,0.0-15.0-1.16,77012,List1A,black,woman,,,,null,,,,
null,is talking to,,html-keyboard-response,234,1008951,0.0-15.0-2.16,77012,List1A,black,woman,,,,null,,,,
20990,,,survey-text,235,1029942,0.0-15.0-3.16,77012,List1A,black,woman,,,,,"{""Q0"":""Kate and Jane are arguing with each other.""}","<img src=""stim_listA/talk7.gif""</stim_listA>",is talking to,
null,"<div style=""font-size:60px;"">+</div>",,html-keyboard-response,236,1030444,0.0-15.0-0.17,77012,List1A,black,woman,,,,null,,,,
null,"<img src=""stim_listA/dance2.gif""</stim_listA>",,html-keyboard-response,237,1032445,0.0-15.0-1.17,77012,List1A,black,woman,,,,null,,,,
null,are dancing with each other,,html-keyboard-response,238,1034447,0.0-15.0-2.17,77012,List1A,black,woman,,,,null,,,,
14556,,,survey-text,239,1049003,0.0-15.0-3.17,77012,List1A,black,woman,,,,,"{""Q0"":""Beth and Mike are dancing with each other.""}","<img src=""stim_listA/dance2.gif""</stim_listA>",are dancing with each other,
null,"<div style=""font-size:60px;"">+</div>",,html-keyboard-response,240,1049504,0.0-15.0-0.18,77012,List1A,black,woman,,,,null,,,,
null,"<img src=""stim_listA/hug1.gif""</stim_listA>",,html-keyboard-response,241,1051505,0.0-15.0-1.18,77012,List1A,black,woman,,,,null,,,,
null,is hugging,,html-keyboard-response,242,1053507,0.0-15.0-2.18,77012,List1A,black,woman,,,,null,,,,
15553,,,survey-text,243,1069060,0.0-15.0-3.18,77012,List1A,black,woman,,,,,"{""Q0"":""Fred is hugging Beth.""}","<img src=""stim_listA/hug1.gif""</stim_listA>",is hugging,
null,"<div style=""font-size:60px;"">+</div>",,html-keyboard-response,244,1069563,0.0-15.0-0.19,77012,List1A,black,woman,,,,null,,,,
null,"<img src=""stim_listA/marry8.gif""</stim_listA>",,html-keyboard-response,245,1071566,0.0-15.0-1.19,77012,List1A,black,woman,,,,null,,,,
null,are marrying each other,,html-keyboard-response,246,1073567,0.0-15.0-2.19,77012,List1A,black,woman,,,,null,,,,
17947,,,survey-text,247,1091515,0.0-15.0-3.19,77012,List1A,black,woman,,,,,"{""Q0"":""Ruth and Beth are marrying each other.""}","<img src=""stim_listA/marry8.gif""</stim_listA>",are marrying each other,
10307,"<img src='img/portrait_matrix_list1.JPG' style='width:900px;height:500px;''></img><p>If you have memorised all the portraits and names and are ready to start, press Continue.</p><p><strong>Please note: Your memory of these faces will be tested 4 times during this experiment.</strong></p>",0,html-button-response,248,1101823,0.0-16.0-0.0,77012,List1A,black,woman,,,,,,,,
3142,"<img src=""portrait/WM2.jpg""style=""width:400px;height:400px;""></img>",7,html-button-response,249,1105967,0.0-16.0-1.0,77012,List1A,black,woman,,TRUE,7,,,,,
null,CORRECT,,html-keyboard-response,250,1107468,0.0-16.0-2.0-0.0,77012,List1A,black,woman,,,,null,,,,
7179,"<img src=""portrait/BM2.jpg""style=""width:400px;height:400px;""></img>",5,html-button-response,251,1114648,0.0-16.0-4.0,77012,List1A,black,woman,,TRUE,5,,,,,
null,CORRECT,,html-keyboard-response,252,1116150,0.0-16.0-5.0-0.0,77012,List1A,black,woman,,,,null,,,,
2877,"<img src=""portrait/WW2.jpg""style=""width:400px;height:400px;""></img>",3,html-button-response,253,1119027,0.0-16.0-7.0,77012,List1A,black,woman,,TRUE,3,,,,,
null,CORRECT,,html-keyboard-response,254,1120530,0.0-16.0-8.0-0.0,77012,List1A,black,woman,,,,null,,,,
2246,"<img src=""portrait/WW1.jpg""style=""width:400px;height:400px;""></img>",1,html-button-response,255,1122777,0.0-16.0-10.0,77012,List1A,black,woman,,TRUE,1,,,,,
null,CORRECT,,html-keyboard-response,256,1124278,0.0-16.0-11.0-0.0,77012,List1A,black,woman,,,,null,,,,
2277,"<img src=""portrait/BW2.jpg""style=""width:400px;height:400px;""></img>",2,html-button-response,257,1126555,0.0-16.0-13.0,77012,List1A,black,woman,,TRUE,2,,,,,
null,CORRECT,,html-keyboard-response,258,1128057,0.0-16.0-14.0-0.0,77012,List1A,black,woman,,,,null,,,,
2676,"<img src=""portrait/WM1.jpg""style=""width:400px;height:400px;""></img>",6,html-button-response,259,1130734,0.0-16.0-16.0,77012,List1A,black,woman,,TRUE,6,,,,,
null,CORRECT,,html-keyboard-response,260,1132235,0.0-16.0-17.0-0.0,77012,List1A,black,woman,,,,null,,,,
2517,"<img src=""portrait/BW1.jpg""style=""width:400px;height:400px;""></img>",0,html-button-response,261,1134753,0.0-16.0-19.0,77012,List1A,black,woman,,TRUE,0,,,,,
null,CORRECT,,html-keyboard-response,262,1136257,0.0-16.0-20.0-0.0,77012,List1A,black,woman,,,,null,,,,
2275,"<img src=""portrait/BM1.jpg""style=""width:400px;height:400px;""></img>",4,html-button-response,263,1138532,0.0-16.0-22.0,77012,List1A,black,woman,,TRUE,4,,,,,
null,CORRECT,,html-keyboard-response,264,1140035,0.0-16.0-23.0-0.0,77012,List1A,black,woman,,,,null,,,,
1519,<p>You got 8 out of 8 right first time. Press Continue.</p>,0,html-button-response,265,1141555,0.0-16.0-25.0,77012,List1A,black,woman,,,,,,,,
null,"<div style=""font-size:60px;"">+</div>",,html-keyboard-response,266,1143056,0.0-17.0-0.0,77012,List1A,black,woman,,,,null,,,,
null,"<img src=""stim_listA/fight6.gif""</stim_listA>",,html-keyboard-response,267,1145059,0.0-17.0-1.0,77012,List1A,black,woman,,,,null,,,,
null,are fighting each other,,html-keyboard-response,268,1147060,0.0-17.0-2.0,77012,List1A,black,woman,,,,null,,,,
32175,,,survey-text,269,1179235,0.0-17.0-3.0,77012,List1A,black,woman,,,,,"{""Q0"":""Luke and Fred are fighting each other.""}","<img src=""stim_listA/fight6.gif""</stim_listA>",are fighting each other,
null,"<div style=""font-size:60px;"">+</div>",,html-keyboard-response,270,1179736,0.0-17.0-0.1,77012,List1A,black,woman,,,,null,,,,
null,"<img src=""stim_listA/marry5.gif""</stim_listA>",,html-keyboard-response,271,1181737,0.0-17.0-1.1,77012,List1A,black,woman,,,,null,,,,
null,is marrying,,html-keyboard-response,272,1183738,0.0-17.0-2.1,77012,List1A,black,woman,,,,null,,,,
11211,,,survey-text,273,1194950,0.0-17.0-3.1,77012,List1A,black,woman,,,,,"{""Q0"":""Luke is marrying Mike.""}","<img src=""stim_listA/marry5.gif""</stim_listA>",is marrying,
null,"<div style=""font-size:60px;"">+</div>",,html-keyboard-response,274,1195452,0.0-17.0-0.2,77012,List1A,black,woman,,,,null,,,,
null,"<img src=""stim_listA/hug4.gif""</stim_listA>",,html-keyboard-response,275,1197455,0.0-17.0-1.2,77012,List1A,black,woman,,,,null,,,,
null,are hugging each other,,html-keyboard-response,276,1199457,0.0-17.0-2.2,77012,List1A,black,woman,,,,null,,,,
11308,,,survey-text,277,1210766,0.0-17.0-3.2,77012,List1A,black,woman,,,,,"{""Q0"":""Jane and Dave are hugging each other.""}","<img src=""stim_listA/hug4.gif""</stim_listA>",are hugging each other,
null,"<div style=""font-size:60px;"">+</div>",,html-keyboard-response,278,1211268,0.0-17.0-0.3,77012,List1A,black,woman,,,,null,,,,
null,"<img src=""stim_listA/argue3.gif""</stim_listA>",,html-keyboard-response,279,1213269,0.0-17.0-1.3,77012,List1A,black,woman,,,,null,,,,
null,is arguing with,,html-keyboard-response,280,1215270,0.0-17.0-2.3,77012,List1A,black,woman,,,,null,,,,
10347,,,survey-text,281,1225618,0.0-17.0-3.3,77012,List1A,black,woman,,,,,"{""Q0"":""Dave is arguing with Ruth.""}","<img src=""stim_listA/argue3.gif""</stim_listA>",is arguing with,
null,"<div style=""font-size:60px;"">+</div>",,html-keyboard-response,282,1226120,0.0-17.0-0.4,77012,List1A,black,woman,,,,null,,,,
null,"<img src=""stim_listA/shout6.gif""</stim_listA>",,html-keyboard-response,283,1228121,0.0-17.0-1.4,77012,List1A,black,woman,,,,null,,,,
null,are shouting at each other,,html-keyboard-response,284,1230123,0.0-17.0-2.4,77012,List1A,black,woman,,,,null,,,,
8406,,,survey-text,285,1238530,0.0-17.0-3.4,77012,List1A,black,woman,,,,,"{""Q0"":""Dave and Mike are shouting at each other.""}","<img src=""stim_listA/shout6.gif""</stim_listA>",are shouting at each other,
null,"<div style=""font-size:60px;"">+</div>",,html-keyboard-response,286,1239031,0.0-17.0-0.5,77012,List1A,black,woman,,,,null,,,,
null,"<img src=""stim_listA/kiss8.gif""</stim_listA>",,html-keyboard-response,287,1241033,0.0-17.0-1.5,77012,List1A,black,woman,,,,null,,,,
null,are kissing each other,,html-keyboard-response,288,1243034,0.0-17.0-2.5,77012,List1A,black,woman,,,,null,,,,
11142,,,survey-text,289,1254176,0.0-17.0-3.5,77012,List1A,black,woman,,,,,"{""Q0"":""Kate and Jane are kissing each other.""}","<img src=""stim_listA/kiss8.gif""</stim_listA>",are kissing each other,
null,"<div style=""font-size:60px;"">+</div>",,html-keyboard-response,290,1254679,0.0-17.0-0.6,77012,List1A,black,woman,,,,null,,,,
null,"<img src=""stim_listA/fight8.gif""</stim_listA>",,html-keyboard-response,291,1256681,0.0-17.0-1.6,77012,List1A,black,woman,,,,null,,,,
null,are fighting each other,,html-keyboard-response,292,1258683,0.0-17.0-2.6,77012,List1A,black,woman,,,,null,,,,
12606,,,survey-text,293,1271289,0.0-17.0-3.6,77012,List1A,black,woman,,,,,"{""Q0"":""Ruth and Beth are fighting each other.""}","<img src=""stim_listA/fight8.gif""</stim_listA>",are fighting each other,
null,"<div style=""font-size:60px;"">+</div>",,html-keyboard-response,294,1271792,0.0-17.0-0.7,77012,List1A,black,woman,,,,null,,,,
null,"<img src=""stim_listA/touch5.gif""</stim_listA>",,html-keyboard-response,295,1273793,0.0-17.0-1.7,77012,List1A,black,woman,,,,null,,,,
null,is touching,,html-keyboard-response,296,1275795,0.0-17.0-2.7,77012,List1A,black,woman,,,,null,,,,
10082,,,survey-text,297,1285877,0.0-17.0-3.7,77012,List1A,black,woman,,,,,"{""Q0"":""Mike is touching Dave.""}","<img src=""stim_listA/touch5.gif""</stim_listA>",is touching,
null,"<div style=""font-size:60px;"">+</div>",,html-keyboard-response,298,1286379,0.0-17.0-0.8,77012,List1A,black,woman,,,,null,,,,
null,"<img src=""stim_listA/touch7.gif""</stim_listA>",,html-keyboard-response,299,1288381,0.0-17.0-1.8,77012,List1A,black,woman,,,,null,,,,
null,is touching,,html-keyboard-response,300,1290383,0.0-17.0-2.8,77012,List1A,black,woman,,,,null,,,,
5921,,,survey-text,301,1296304,0.0-17.0-3.8,77012,List1A,black,woman,,,,,"{""Q0"":""Jane is touching Kate.""}","<img src=""stim_listA/touch7.gif""</stim_listA>",is touching,
null,"<div style=""font-size:60px;"">+</div>",,html-keyboard-response,302,1296807,0.0-17.0-0.9,77012,List1A,black,woman,,,,null,,,,
null,"<img src=""stim_listA/talk6.gif""</stim_listA>",,html-keyboard-response,303,1298809,0.0-17.0-1.9,77012,List1A,black,woman,,,,null,,,,
null,are talking to each other,,html-keyboard-response,304,1300810,0.0-17.0-2.9,77012,List1A,black,woman,,,,null,,,,
12882,,,survey-text,305,1313694,0.0-17.0-3.9,77012,List1A,black,woman,,,,,"{""Q0"":""Mike and Luke are talking to each other.""}","<img src=""stim_listA/talk6.gif""</stim_listA>",are talking to each other,
null,"<div style=""font-size:60px;"">+</div>",,html-keyboard-response,306,1314195,0.0-17.0-0.10,77012,List1A,black,woman,,,,null,,,,
null,"<img src=""stim_listA/fight3.gif""</stim_listA>",,html-keyboard-response,307,1316196,0.0-17.0-1.10,77012,List1A,black,woman,,,,null,,,,
null,is fighting,,html-keyboard-response,308,1318198,0.0-17.0-2.10,77012,List1A,black,woman,,,,null,,,,
4989,,,survey-text,309,1323187,0.0-17.0-3.10,77012,List1A,black,woman,,,,,"{""Q0"":""Jane is fighting Dave.""}","<img src=""stim_listA/fight3.gif""</stim_listA>",is fighting,
null,"<div style=""font-size:60px;"">+</div>",,html-keyboard-response,310,1323689,0.0-17.0-0.11,77012,List1A,black,woman,,,,null,,,,
null,"<img src=""stim_listA/dance5.gif""</stim_listA>",,html-keyboard-response,311,1325691,0.0-17.0-1.11,77012,List1A,black,woman,,,,null,,,,
null,is dancing with,,html-keyboard-response,312,1327692,0.0-17.0-2.11,77012,List1A,black,woman,,,,null,,,,
16115,,,survey-text,313,1343808,0.0-17.0-3.11,77012,List1A,black,woman,,,,,"{""Q0"":""Fred is dancing with Dave.""}","<img src=""stim_listA/dance5.gif""</stim_listA>",is dancing with,
null,"<div style=""font-size:60px;"">+</div>",,html-keyboard-response,314,1344309,0.0-17.0-0.12,77012,List1A,black,woman,,,,null,,,,
null,"<img src=""stim_listA/hug6.gif""</stim_listA>",,html-keyboard-response,315,1346312,0.0-17.0-1.12,77012,List1A,black,woman,,,,null,,,,
null,are hugging each other,,html-keyboard-response,316,1348312,0.0-17.0-2.12,77012,List1A,black,woman,,,,null,,,,
11881,,,survey-text,317,1360195,0.0-17.0-3.12,77012,List1A,black,woman,,,,,"{""Q0"":""Fred and Dave are hugging each other.""}","<img src=""stim_listA/hug6.gif""</stim_listA>",are hugging each other,
null,"<div style=""font-size:60px;"">+</div>",,html-keyboard-response,318,1360696,0.0-17.0-0.13,77012,List1A,black,woman,,,,null,,,,
null,"<img src=""stim_listA/meet3.gif""</stim_listA>",,html-keyboard-response,319,1362699,0.0-17.0-1.13,77012,List1A,black,woman,,,,null,,,,
null,is meeting,,html-keyboard-response,320,1364700,0.0-17.0-2.13,77012,List1A,black,woman,,,,null,,,,
14079,,,survey-text,321,1378779,0.0-17.0-3.13,77012,List1A,black,woman,,,,,"{""Q0"":""Dave is meeting Jane.""}","<img src=""stim_listA/meet3.gif""</stim_listA>",is meeting,
null,"<div style=""font-size:60px;"">+</div>",,html-keyboard-response,322,1379281,0.0-17.0-0.14,77012,List1A,black,woman,,,,null,,,,
null,"<img src=""stim_listA/fight5.gif""</stim_listA>",,html-keyboard-response,323,1381283,0.0-17.0-1.14,77012,List1A,black,woman,,,,null,,,,
null,is fighting,,html-keyboard-response,324,1383285,0.0-17.0-2.14,77012,List1A,black,woman,,,,null,,,,
7861,,,survey-text,325,1391147,0.0-17.0-3.14,77012,List1A,black,woman,,,,,"{""Q0"":""Mike is fighting Dave.""}","<img src=""stim_listA/fight5.gif""</stim_listA>",is fighting,
null,"<div style=""font-size:60px;"">+</div>",,html-keyboard-response,326,1391648,0.0-17.0-0.15,77012,List1A,black,woman,,,,null,,,,
null,"<img src=""stim_listA/fight2.gif""</stim_listA>",,html-keyboard-response,327,1393649,0.0-17.0-1.15,77012,List1A,black,woman,,,,null,,,,
null,are fighting each other,,html-keyboard-response,328,1395651,0.0-17.0-2.15,77012,List1A,black,woman,,,,null,,,,
8958,,,survey-text,329,1404609,0.0-17.0-3.15,77012,List1A,black,woman,,,,,"{""Q0"":""Fred and Beth are fighting each other.""}","<img src=""stim_listA/fight2.gif""</stim_listA>",are fighting each other,
null,"<div style=""font-size:60px;"">+</div>",,html-keyboard-response,330,1405111,0.0-17.0-0.16,77012,List1A,black,woman,,,,null,,,,
null,"<img src=""stim_listA/argue1.gif""</stim_listA>",,html-keyboard-response,331,1407112,0.0-17.0-1.16,77012,List1A,black,woman,,,,null,,,,
null,is arguing with,,html-keyboard-response,332,1409113,0.0-17.0-2.16,77012,List1A,black,woman,,,,null,,,,
8567,,,survey-text,333,1417680,0.0-17.0-3.16,77012,List1A,black,woman,,,,,"{""Q0"":""Mike is arguing with Beth.""}","<img src=""stim_listA/argue1.gif""</stim_listA>",is arguing with,
null,"<div style=""font-size:60px;"">+</div>",,html-keyboard-response,334,1418181,0.0-17.0-0.17,77012,List1A,black,woman,,,,null,,,,
null,"<img src=""stim_listA/kiss2.gif""</stim_listA>",,html-keyboard-response,335,1420181,0.0-17.0-1.17,77012,List1A,black,woman,,,,null,,,,
null,are kissing each other,,html-keyboard-response,336,1422182,0.0-17.0-2.17,77012,List1A,black,woman,,,,null,,,,
35443,,,survey-text,337,1457625,0.0-17.0-3.17,77012,List1A,black,woman,,,,,"{""Q0"":""Mike and Kate are kissing each other.""}","<img src=""stim_listA/kiss2.gif""</stim_listA>",are kissing each other,
null,"<div style=""font-size:60px;"">+</div>",,html-keyboard-response,338,1458127,0.0-17.0-0.18,77012,List1A,black,woman,,,,null,,,,
null,"<img src=""stim_listA/talk4.gif""</stim_listA>",,html-keyboard-response,339,1460131,0.0-17.0-1.18,77012,List1A,black,woman,,,,null,,,,
null,are talking to each other,,html-keyboard-response,340,1462137,0.0-17.0-2.18,77012,List1A,black,woman,,,,null,,,,
7767,,,survey-text,341,1469906,0.0-17.0-3.18,77012,List1A,black,woman,,,,,"{""Q0"":""Ruth and Dave are talking to each other.""}","<img src=""stim_listA/talk4.gif""</stim_listA>",are talking to each other,
null,"<div style=""font-size:60px;"">+</div>",,html-keyboard-response,342,1470407,0.0-17.0-0.19,77012,List1A,black,woman,,,,null,,,,
null,"<img src=""stim_listA/argue4.gif""</stim_listA>",,html-keyboard-response,343,1472409,0.0-17.0-1.19,77012,List1A,black,woman,,,,null,,,,
null,are arguing with each other,,html-keyboard-response,344,1474413,0.0-17.0-2.19,77012,List1A,black,woman,,,,null,,,,
151907,,,survey-text,345,1626320,0.0-17.0-3.19,77012,List1A,black,woman,,,,,"{""Q0"":""Jane and Luke are arguing with each other.""}","<img src=""stim_listA/argue4.gif""</stim_listA>",are arguing with each other,
7785,"<img src='img/portrait_matrix_list1.JPG' style='width:900px;height:500px;''></img><p>If you have memorised all the portraits and names and are ready to start, press Continue.</p><p><strong>Please note: Your memory of these faces will be tested 4 times during this experiment.</strong></p>",0,html-button-response,346,1634106,0.0-18.0-0.0,77012,List1A,black,woman,,,,,,,,
2227,"<img src=""portrait/WM2.jpg""style=""width:400px;height:400px;""></img>",7,html-button-response,347,1637336,0.0-18.0-1.0,77012,List1A,black,woman,,TRUE,7,,,,,
null,CORRECT,,html-keyboard-response,348,1638844,0.0-18.0-2.0-0.0,77012,List1A,black,woman,,,,null,,,,
2691,"<img src=""portrait/BM1.jpg""style=""width:400px;height:400px;""></img>",4,html-button-response,349,1641537,0.0-18.0-4.0,77012,List1A,black,woman,,TRUE,4,,,,,
null,CORRECT,,html-keyboard-response,350,1643045,0.0-18.0-5.0-0.0,77012,List1A,black,woman,,,,null,,,,
3330,"<img src=""portrait/BW1.jpg""style=""width:400px;height:400px;""></img>",0,html-button-response,351,1646376,0.0-18.0-7.0,77012,List1A,black,woman,,TRUE,0,,,,,
null,CORRECT,,html-keyboard-response,352,1647882,0.0-18.0-8.0-0.0,77012,List1A,black,woman,,,,null,,,,
3309,"<img src=""portrait/BM2.jpg""style=""width:400px;height:400px;""></img>",5,html-button-response,353,1651194,0.0-18.0-10.0,77012,List1A,black,woman,,TRUE,5,,,,,
null,CORRECT,,html-keyboard-response,354,1652702,0.0-18.0-11.0-0.0,77012,List1A,black,woman,,,,null,,,,
2356,"<img src=""portrait/WW2.jpg""style=""width:400px;height:400px;""></img>",3,html-button-response,355,1655061,0.0-18.0-13.0,77012,List1A,black,woman,,TRUE,3,,,,,
null,CORRECT,,html-keyboard-response,356,1656567,0.0-18.0-14.0-0.0,77012,List1A,black,woman,,,,null,,,,
2893,"<img src=""portrait/WW1.jpg""style=""width:400px;height:400px;""></img>",1,html-button-response,357,1659464,0.0-18.0-16.0,77012,List1A,black,woman,,TRUE,1,,,,,
null,CORRECT,,html-keyboard-response,358,1660972,0.0-18.0-17.0-0.0,77012,List1A,black,woman,,,,null,,,,
2904,"<img src=""portrait/WM1.jpg""style=""width:400px;height:400px;""></img>",6,html-button-response,359,1663877,0.0-18.0-19.0,77012,List1A,black,woman,,TRUE,6,,,,,
null,CORRECT,,html-keyboard-response,360,1665384,0.0-18.0-20.0-0.0,77012,List1A,black,woman,,,,null,,,,
2389,"<img src=""portrait/BW2.jpg""style=""width:400px;height:400px;""></img>",2,html-button-response,361,1667774,0.0-18.0-22.0,77012,List1A,black,woman,,TRUE,2,,,,,
null,CORRECT,,html-keyboard-response,362,1669281,0.0-18.0-23.0-0.0,77012,List1A,black,woman,,,,null,,,,
1507,<p>You got 8 out of 8 right first time. Press Continue.</p>,0,html-button-response,363,1670790,0.0-18.0-25.0,77012,List1A,black,woman,,,,,,,,
null,"<div style=""font-size:60px;"">+</div>",,html-keyboard-response,364,1672297,0.0-19.0-0.0,77012,List1A,black,woman,,,,null,,,,
null,"<img src=""stim_listA/touch8.gif""</stim_listA>",,html-keyboard-response,365,1674301,0.0-19.0-1.0,77012,List1A,black,woman,,,,null,,,,
null,are touching each other,,html-keyboard-response,366,1676306,0.0-19.0-2.0,77012,List1A,black,woman,,,,null,,,,
13280,,,survey-text,367,1689587,0.0-19.0-3.0,77012,List1A,black,woman,,,,,"{""Q0"":""Ruth and Beth are touching each other.""}","<img src=""stim_listA/touch8.gif""</stim_listA>",are touching each other,
null,"<div style=""font-size:60px;"">+</div>",,html-keyboard-response,368,1690091,0.0-19.0-0.1,77012,List1A,black,woman,,,,null,,,,
null,"<img src=""stim_listA/dance3.gif""</stim_listA>",,html-keyboard-response,369,1692095,0.0-19.0-1.1,77012,List1A,black,woman,,,,null,,,,
null,is dancing with,,html-keyboard-response,370,1694099,0.0-19.0-2.1,77012,List1A,black,woman,,,,null,,,,
7463,,,survey-text,371,1701563,0.0-19.0-3.1,77012,List1A,black,woman,,,,,"{""Q0"":""Luke is dancing with Jane.""}","<img src=""stim_listA/dance3.gif""</stim_listA>",is dancing with,
null,"<div style=""font-size:60px;"">+</div>",,html-keyboard-response,372,1702064,0.0-19.0-0.2,77012,List1A,black,woman,,,,null,,,,
null,"<img src=""stim_listA/marry1.gif""</stim_listA>",,html-keyboard-response,373,1704068,0.0-19.0-1.2,77012,List1A,black,woman,,,,null,,,,
null,is marrying,,html-keyboard-response,374,1706072,0.0-19.0-2.2,77012,List1A,black,woman,,,,null,,,,
29239,,,survey-text,375,1735312,0.0-19.0-3.2,77012,List1A,black,woman,,,,,"{""Q0"":""Mike is marrying Beth.""}","<img src=""stim_listA/marry1.gif""</stim_listA>",is marrying,
null,"<div style=""font-size:60px;"">+</div>",,html-keyboard-response,376,1735813,0.0-19.0-0.3,77012,List1A,black,woman,,,,null,,,,
null,"<img src=""stim_listA/dance1.gif""</stim_listA>",,html-keyboard-response,377,1737817,0.0-19.0-1.3,77012,List1A,black,woman,,,,null,,,,
null,is dancing with,,html-keyboard-response,378,1739822,0.0-19.0-2.3,77012,List1A,black,woman,,,,null,,,,
20931,,,survey-text,379,1760754,0.0-19.0-3.3,77012,List1A,black,woman,,,,,"{""Q0"":""Fred is dancing with Kate.""}","<img src=""stim_listA/dance1.gif""</stim_listA>",is dancing with,
null,"<div style=""font-size:60px;"">+</div>",,html-keyboard-response,380,1761258,0.0-19.0-0.4,77012,List1A,black,woman,,,,null,,,,
null,"<img src=""stim_listA/hug5.gif""</stim_listA>",,html-keyboard-response,381,1763262,0.0-19.0-1.4,77012,List1A,black,woman,,,,null,,,,
null,is hugging,,html-keyboard-response,382,1765267,0.0-19.0-2.4,77012,List1A,black,woman,,,,null,,,,
7547,,,survey-text,383,1772815,0.0-19.0-3.4,77012,List1A,black,woman,,,,,"{""Q0"":""Fred is hugging Luke.""}","<img src=""stim_listA/hug5.gif""</stim_listA>",is hugging,
null,"<div style=""font-size:60px;"">+</div>",,html-keyboard-response,384,1773319,0.0-19.0-0.5,77012,List1A,black,woman,,,,null,,,,
null,"<img src=""stim_listA/touch6.gif""</stim_listA>",,html-keyboard-response,385,1775323,0.0-19.0-1.5,77012,List1A,black,woman,,,,null,,,,
null,are touching each other,,html-keyboard-response,386,1777328,0.0-19.0-2.5,77012,List1A,black,woman,,,,null,,,,
8157,,,survey-text,387,1785486,0.0-19.0-3.5,77012,List1A,black,woman,,,,,"{""Q0"":""Fred and Luke are touching each other.""}","<img src=""stim_listA/touch6.gif""</stim_listA>",are touching each other,
null,"<div style=""font-size:60px;"">+</div>",,html-keyboard-response,388,1785989,0.0-19.0-0.6,77012,List1A,black,woman,,,,null,,,,
null,"<img src=""stim_listA/kiss7.gif""</stim_listA>",,html-keyboard-response,389,1787993,0.0-19.0-1.6,77012,List1A,black,woman,,,,null,,,,
null,is kissing,,html-keyboard-response,390,1789998,0.0-19.0-2.6,77012,List1A,black,woman,,,,null,,,,
9588,,,survey-text,391,1799587,0.0-19.0-3.6,77012,List1A,black,woman,,,,,"{""Q0"":""Ruth is kissing Beth.""}","<img src=""stim_listA/kiss7.gif""</stim_listA>",is kissing,
null,"<div style=""font-size:60px;"">+</div>",,html-keyboard-response,392,1800091,0.0-19.0-0.7,77012,List1A,black,woman,,,,null,,,,
null,"<img src=""stim_listA/argue6.gif""</stim_listA>",,html-keyboard-response,393,1802095,0.0-19.0-1.7,77012,List1A,black,woman,,,,null,,,,
null,are arguing with each other,,html-keyboard-response,394,1804099,0.0-19.0-2.7,77012,List1A,black,woman,,,,null,,,,
10946,,,survey-text,395,1815047,0.0-19.0-3.7,77012,List1A,black,woman,,,,,"{""Q0"":""Fred and Dave are arguing with each other.""}","<img src=""stim_listA/argue6.gif""</stim_listA>",are arguing with each other,
null,"<div style=""font-size:60px;"">+</div>",,html-keyboard-response,396,1815548,0.0-19.0-0.8,77012,List1A,black,woman,,,,null,,,,
null,"<img src=""stim_listA/meet5.gif""</stim_listA>",,html-keyboard-response,397,1817552,0.0-19.0-1.8,77012,List1A,black,woman,,,,null,,,,
null,is meeting,,html-keyboard-response,398,1819557,0.0-19.0-2.8,77012,List1A,black,woman,,,,null,,,,
5204,,,survey-text,399,1824763,0.0-19.0-3.8,77012,List1A,black,woman,,,,,"{""Q0"":""Mike is meeting Dave.""}","<img src=""stim_listA/meet5.gif""</stim_listA>",is meeting,
null,"<div style=""font-size:60px;"">+</div>",,html-keyboard-response,400,1825266,0.0-19.0-0.9,77012,List1A,black,woman,,,,null,,,,
null,"<img src=""stim_listA/marry6.gif""</stim_listA>",,html-keyboard-response,401,1827270,0.0-19.0-1.9,77012,List1A,black,woman,,,,null,,,,
null,are marrying each other,,html-keyboard-response,402,1829275,0.0-19.0-2.9,77012,List1A,black,woman,,,,null,,,,
7216,,,survey-text,403,1836492,0.0-19.0-3.9,77012,List1A,black,woman,,,,,"{""Q0"":""Dave is marrying Fred.""}","<img src=""stim_listA/marry6.gif""</stim_listA>",are marrying each other,
null,"<div style=""font-size:60px;"">+</div>",,html-keyboard-response,404,1836996,0.0-19.0-0.10,77012,List1A,black,woman,,,,null,,,,
null,"<img src=""stim_listA/dance6.gif""</stim_listA>",,html-keyboard-response,405,1839000,0.0-19.0-1.10,77012,List1A,black,woman,,,,null,,,,
null,are dancing with each other,,html-keyboard-response,406,1841005,0.0-19.0-2.10,77012,List1A,black,woman,,,,null,,,,
10674,,,survey-text,407,1851680,0.0-19.0-3.10,77012,List1A,black,woman,,,,,"{""Q0"":""Luke and Mike are dancing with each other.""}","<img src=""stim_listA/dance6.gif""</stim_listA>",are dancing with each other,
null,"<div style=""font-size:60px;"">+</div>",,html-keyboard-response,408,1852181,0.0-19.0-0.11,77012,List1A,black,woman,,,,null,,,,
null,"<img src=""stim_listA/shout5.gif""</stim_listA>",,html-keyboard-response,409,1854186,0.0-19.0-1.11,77012,List1A,black,woman,,,,null,,,,
null,is shouting at,,html-keyboard-response,410,1856190,0.0-19.0-2.11,77012,List1A,black,woman,,,,null,,,,
7073,,,survey-text,411,1863265,0.0-19.0-3.11,77012,List1A,black,woman,,,,,"{""Q0"":""Fred is shouting at Luke.""}","<img src=""stim_listA/shout5.gif""</stim_listA>",is shouting at,
null,"<div style=""font-size:60px;"">+</div>",,html-keyboard-response,412,1863767,0.0-19.0-0.12,77012,List1A,black,woman,,,,null,,,,
null,"<img src=""stim_listA/dance7.gif""</stim_listA>",,html-keyboard-response,413,1865771,0.0-19.0-1.12,77012,List1A,black,woman,,,,null,,,,
null,is dancing with,,html-keyboard-response,414,1867776,0.0-19.0-2.12,77012,List1A,black,woman,,,,null,,,,
6804,,,survey-text,415,1874582,0.0-19.0-3.12,77012,List1A,black,woman,,,,,"{""Q0"":""Jane is dancing with Beth.""}","<img src=""stim_listA/dance7.gif""</stim_listA>",is dancing with,
null,"<div style=""font-size:60px;"">+</div>",,html-keyboard-response,416,1875085,0.0-19.0-0.13,77012,List1A,black,woman,,,,null,,,,
null,"<img src=""stim_listA/kiss3.gif""</stim_listA>",,html-keyboard-response,417,1877090,0.0-19.0-1.13,77012,List1A,black,woman,,,,null,,,,
null,is kissing,,html-keyboard-response,418,1879094,0.0-19.0-2.13,77012,List1A,black,woman,,,,null,,,,
7909,,,survey-text,419,1887004,0.0-19.0-3.13,77012,List1A,black,woman,,,,,"{""Q0"":""luke is kissing Ruth.""}","<img src=""stim_listA/kiss3.gif""</stim_listA>",is kissing,
null,"<div style=""font-size:60px;"">+</div>",,html-keyboard-response,420,1887507,0.0-19.0-0.14,77012,List1A,black,woman,,,,null,,,,
null,"<img src=""stim_listA/shout2.gif""</stim_listA>",,html-keyboard-response,421,1889512,0.0-19.0-1.14,77012,List1A,black,woman,,,,null,,,,
null,are shouting at each other,,html-keyboard-response,422,1891516,0.0-19.0-2.14,77012,List1A,black,woman,,,,null,,,,
18682,,,survey-text,423,1910200,0.0-19.0-3.14,77012,List1A,black,woman,,,,,"{""Q0"":""Mike and Beth are shouting at each other.""}","<img src=""stim_listA/shout2.gif""</stim_listA>",are shouting at each other,
null,"<div style=""font-size:60px;"">+</div>",,html-keyboard-response,424,1910702,0.0-19.0-0.15,77012,List1A,black,woman,,,,null,,,,
null,"<img src=""stim_listA/meet7.gif""</stim_listA>",,html-keyboard-response,425,1912707,0.0-19.0-1.15,77012,List1A,black,woman,,,,null,,,,
null,is meeting,,html-keyboard-response,426,1914711,0.0-19.0-2.15,77012,List1A,black,woman,,,,null,,,,
7751,,,survey-text,427,1922463,0.0-19.0-3.15,77012,List1A,black,woman,,,,,"{""Q0"":""Kate is meeting Jane.""}","<img src=""stim_listA/meet7.gif""</stim_listA>",is meeting,
null,"<div style=""font-size:60px;"">+</div>",,html-keyboard-response,428,1922968,0.0-19.0-0.16,77012,List1A,black,woman,,,,null,,,,
null,"<img src=""stim_listA/shout7.gif""</stim_listA>",,html-keyboard-response,429,1924972,0.0-19.0-1.16,77012,List1A,black,woman,,,,null,,,,
null,is shouting at,,html-keyboard-response,430,1926976,0.0-19.0-2.16,77012,List1A,black,woman,,,,null,,,,
6645,,,survey-text,431,1933623,0.0-19.0-3.16,77012,List1A,black,woman,,,,,"{""Q0"":""Ruth is shouting at Kate.""}","<img src=""stim_listA/shout7.gif""</stim_listA>",is shouting at,
null,"<div style=""font-size:60px;"">+</div>",,html-keyboard-response,432,1934127,0.0-19.0-0.17,77012,List1A,black,woman,,,,null,,,,
null,"<img src=""stim_listA/hug2.gif""</stim_listA>",,html-keyboard-response,433,1936131,0.0-19.0-1.17,77012,List1A,black,woman,,,,null,,,,
null,are hugging each other,,html-keyboard-response,434,1938136,0.0-19.0-2.17,77012,List1A,black,woman,,,,null,,,,
8768,,,survey-text,435,1946904,0.0-19.0-3.17,77012,List1A,black,woman,,,,,"{""Q0"":""Kate and Mike are hugging eachother.""}","<img src=""stim_listA/hug2.gif""</stim_listA>",are hugging each other,
null,"<div style=""font-size:60px;"">+</div>",,html-keyboard-response,436,1947409,0.0-19.0-0.18,77012,List1A,black,woman,,,,null,,,,
null,"<img src=""stim_listA/touch3.gif""</stim_listA>",,html-keyboard-response,437,1949413,0.0-19.0-1.18,77012,List1A,black,woman,,,,null,,,,
null,is touching,,html-keyboard-response,438,1951417,0.0-19.0-2.18,77012,List1A,black,woman,,,,null,,,,
11053,,,survey-text,439,1962471,0.0-19.0-3.18,77012,List1A,black,woman,,,,,"{""Q0"":""Dave is touching Kate.""}","<img src=""stim_listA/touch3.gif""</stim_listA>",is touching,
null,"<div style=""font-size:60px;"">+</div>",,html-keyboard-response,440,1962975,0.0-19.0-0.19,77012,List1A,black,woman,,,,null,,,,
null,"<img src=""stim_listA/touch2.gif""</stim_listA>",,html-keyboard-response,441,1964979,0.0-19.0-1.19,77012,List1A,black,woman,,,,null,,,,
null,are touching each other,,html-keyboard-response,442,1966983,0.0-19.0-2.19,77012,List1A,black,woman,,,,null,,,,
10076,,,survey-text,443,1977061,0.0-19.0-3.19,77012,List1A,black,woman,,,,,"{""Q0"":""Fred and Beth are touching each other.""}","<img src=""stim_listA/touch2.gif""</stim_listA>",are touching each other,
4075,<p>Thank you for completing that task.</p><p>The final part of this session is a short questionnaire.</p><p>Press Continue.</p>,0,html-button-response,444,1981136,0.0-20.0,77012,List1A,black,woman,,,,,,,,
26207,,,survey-text,445,2008349,0.0-21.0,77012,List1A,black,woman,,,,,"{""Q0"":""28"",""Q1"":""English"",""Q2"":""English"",""Q3"":""United States"",""Q4"":""Black"",""Q5"":""female""}",,,demographics
53643,,,survey-likert,446,2061998,0.0-22.0,77012,List1A,black,woman,,,,,"{""Q0"":6,""Q1"":6,""Q2"":6,""Q3"":6,""Q4"":6,""Q5"":4,""Q6"":6,""Q7"":6,""Q8"":6,""Q9"":6,""Q10"":4,""Q11"":3,""Q12"":5,""Q13"":1}",,,likert_race
61812,,,survey-likert,447,2123815,0.0-23.0,77012,List1A,black,woman,,,,,"{""Q0"":5,""Q1"":5,""Q2"":5,""Q3"":5,""Q4"":5,""Q5"":5,""Q6"":5,""Q7"":4,""Q8"":5,""Q9"":6,""Q10"":4,""Q11"":1,""Q12"":3,""Q13"":1}",,,likert_gender
4515,,,survey-text,448,2128332,0.0-24.0,77012,List1A,black,woman,,,,,"{""Q0"":""ccc""}",,,worker_id
14865,,,external-html,449,2143658,0.0-25.0,77012,List1A,black,woman,debrief.html,,,,,,,
