rt,stimulus,button_pressed,trial_type,trial_index,time_elapsed,internal_node_id,subject,list,ppt_race,ppt_gender,url,first_guess,correct,key_press,responses,image_type,phrase_type,test_part
21142,Welcome to the experiment. Press Continue to begin.,0,html-button-response,0,21184,0.0-0.0,77121,List1A,black,woman,,,,,,,,
85869,,,external-html,1,108197,0.0-1.0,77121,List1A,black,woman,consent.html,,,,,,,
420861,"<p>On the next page, you will see portraits of 8 people and their names.</p><p>Your first task is to take a few minutes to memorise the names of these people.</p><p>You will have to recall their names during the rest of the experiment, so it is</p><p>essential that you try to memorise these people and their names as best as you can.</p><br><p><strong>You will then be tested on your memory of these names and portraits.</strong></p><br><p>The experiment will start after you have completed this memory test.</p><br><p>Ready?</p>",0,html-button-response,2,529061,0.0-2.0,77121,List1A,black,woman,,,,,,,,
53882,"<img src='img/portrait_matrix_list1.JPG' style='width:900px;height:500px;''></img><p>If you have memorised all the portraits and names and are ready to start, press Continue.</p><p><strong>Please note: Your memory of these faces will be tested 4 times during this experiment.</strong></p>",0,html-button-response,3,583947,0.0-3.0-0.0,77121,List1A,black,woman,,,,,,,,
20789,"<img src=""portrait/BM1.jpg""style=""width:400px;height:400px;""></img>",5,html-button-response,4,605738,0.0-3.0-1.0,77121,List1A,black,woman,,TRUE,4,,,,,
6141,"<img src=""portrait/BM1.jpg""style=""width:400px;height:400px;""></img>",4,html-button-response,5,612882,0.0-3.0-3.0-0.0,77121,List1A,black,woman,,FALSE,4,,,,,
null,CORRECT,,html-keyboard-response,6,614385,0.0-3.0-3.0-1.0-0.0,77121,List1A,black,woman,,,,null,,,,
2168,"<img src=""portrait/BM2.jpg""style=""width:400px;height:400px;""></img>",5,html-button-response,7,616554,0.0-3.0-4.0,77121,List1A,black,woman,,TRUE,5,,,,,
null,CORRECT,,html-keyboard-response,8,618057,0.0-3.0-5.0-0.0,77121,List1A,black,woman,,,,null,,,,
5841,"<img src=""portrait/BW1.jpg""style=""width:400px;height:400px;""></img>",0,html-button-response,9,623898,0.0-3.0-7.0,77121,List1A,black,woman,,TRUE,0,,,,,
null,CORRECT,,html-keyboard-response,10,625408,0.0-3.0-8.0-0.0,77121,List1A,black,woman,,,,null,,,,
9311,"<img src=""portrait/WW1.jpg""style=""width:400px;height:400px;""></img>",3,html-button-response,11,634722,0.0-3.0-10.0,77121,List1A,black,woman,,TRUE,1,,,,,
2637,"<img src=""portrait/WW1.jpg""style=""width:400px;height:400px;""></img>",1,html-button-response,12,638362,0.0-3.0-12.0-0.0,77121,List1A,black,woman,,FALSE,1,,,,,
null,CORRECT,,html-keyboard-response,13,639865,0.0-3.0-12.0-1.0-0.0,77121,List1A,black,woman,,,,null,,,,
4976,"<img src=""portrait/WW2.jpg""style=""width:400px;height:400px;""></img>",1,html-button-response,14,644842,0.0-3.0-13.0,77121,List1A,black,woman,,TRUE,3,,,,,
1726,"<img src=""portrait/WW2.jpg""style=""width:400px;height:400px;""></img>",3,html-button-response,15,647570,0.0-3.0-15.0-0.0,77121,List1A,black,woman,,FALSE,3,,,,,
null,CORRECT,,html-keyboard-response,16,649073,0.0-3.0-15.0-1.0-0.0,77121,List1A,black,woman,,,,null,,,,
10240,"<img src=""portrait/WM1.jpg""style=""width:400px;height:400px;""></img>",6,html-button-response,17,659315,0.0-3.0-16.0,77121,List1A,black,woman,,TRUE,6,,,,,
null,CORRECT,,html-keyboard-response,18,660817,0.0-3.0-17.0-0.0,77121,List1A,black,woman,,,,null,,,,
1809,"<img src=""portrait/WM2.jpg""style=""width:400px;height:400px;""></img>",7,html-button-response,19,662626,0.0-3.0-19.0,77121,List1A,black,woman,,TRUE,7,,,,,
null,CORRECT,,html-keyboard-response,20,664129,0.0-3.0-20.0-0.0,77121,List1A,black,woman,,,,null,,,,
13993,"<img src=""portrait/BW2.jpg""style=""width:400px;height:400px;""></img>",2,html-button-response,21,678122,0.0-3.0-22.0,77121,List1A,black,woman,,TRUE,2,,,,,
null,CORRECT,,html-keyboard-response,22,679624,0.0-3.0-23.0-0.0,77121,List1A,black,woman,,,,null,,,,
2456,<p>You got 5 out of 8 right first time. Press Continue.</p>,0,html-button-response,23,682082,0.0-3.0-25.0,77121,List1A,black,woman,,,,,,,,
3143,"As you did not score 100%, the memory game will repeat. Press Continue.",0,html-button-response,24,686226,0.0-3.0-26.0-0.0,77121,List1A,black,woman,,,,,,,,
126803,"<img src='img/portrait_matrix_list1.JPG' style='width:900px;height:500px;''></img><p>If you have memorised all the portraits and names and are ready to start, press Continue.</p><p><strong>Please note: Your memory of these faces will be tested 4 times during this experiment.</strong></p>",0,html-button-response,25,814034,0.0-3.1-0.1,77121,List1A,black,woman,,,,,,,,
1750,"<img src=""portrait/BM1.jpg""style=""width:400px;height:400px;""></img>",4,html-button-response,26,816786,0.0-3.1-1.1,77121,List1A,black,woman,,TRUE,4,,,,,
null,CORRECT,,html-keyboard-response,27,818289,0.0-3.1-2.1-0.1,77121,List1A,black,woman,,,,null,,,,
6728,"<img src=""portrait/BM2.jpg""style=""width:400px;height:400px;""></img>",5,html-button-response,28,825018,0.0-3.1-4.1,77121,List1A,black,woman,,TRUE,5,,,,,
null,CORRECT,,html-keyboard-response,29,826521,0.0-3.1-5.1-0.1,77121,List1A,black,woman,,,,null,,,,
13024,"<img src=""portrait/BW1.jpg""style=""width:400px;height:400px;""></img>",0,html-button-response,30,839545,0.0-3.1-7.1,77121,List1A,black,woman,,TRUE,0,,,,,
null,CORRECT,,html-keyboard-response,31,841049,0.0-3.1-8.1-0.1,77121,List1A,black,woman,,,,null,,,,
9807,"<img src=""portrait/WW1.jpg""style=""width:400px;height:400px;""></img>",1,html-button-response,32,850857,0.0-3.1-10.1,77121,List1A,black,woman,,TRUE,1,,,,,
null,CORRECT,,html-keyboard-response,33,852360,0.0-3.1-11.1-0.1,77121,List1A,black,woman,,,,null,,,,
3120,"<img src=""portrait/WW2.jpg""style=""width:400px;height:400px;""></img>",3,html-button-response,34,855481,0.0-3.1-13.1,77121,List1A,black,woman,,TRUE,3,,,,,
null,CORRECT,,html-keyboard-response,35,856984,0.0-3.1-14.1-0.1,77121,List1A,black,woman,,,,null,,,,
5912,"<img src=""portrait/WM1.jpg""style=""width:400px;height:400px;""></img>",6,html-button-response,36,862897,0.0-3.1-16.1,77121,List1A,black,woman,,TRUE,6,,,,,
null,CORRECT,,html-keyboard-response,37,864401,0.0-3.1-17.1-0.1,77121,List1A,black,woman,,,,null,,,,
4351,"<img src=""portrait/WM2.jpg""style=""width:400px;height:400px;""></img>",7,html-button-response,38,868754,0.0-3.1-19.1,77121,List1A,black,woman,,TRUE,7,,,,,
null,CORRECT,,html-keyboard-response,39,870256,0.0-3.1-20.1-0.1,77121,List1A,black,woman,,,,null,,,,
4087,"<img src=""portrait/BW2.jpg""style=""width:400px;height:400px;""></img>",2,html-button-response,40,874345,0.0-3.1-22.1,77121,List1A,black,woman,,TRUE,2,,,,,
null,CORRECT,,html-keyboard-response,41,875851,0.0-3.1-23.1-0.1,77121,List1A,black,woman,,,,null,,,,
1652,<p>You got 8 out of 8 right first time. Press Continue.</p>,0,html-button-response,42,877505,0.0-3.1-25.1,77121,List1A,black,woman,,,,,,,,
92430,"<p>In this experiment, you will view photographs of the people from the memory game interacting.</p><p>By using the <strong>exact</strong> phrase given <i>after</i> the photograph appears and recalling the correct names of the people in the photographs, form a sentence describing the interaction. You do not need to capitalise names.</p><p>Type your answer in the space provided. Please complete every sentence before moving onto the next trial.</p><p>You will only have a few seconds to memorise each given photograph and phrase before you can respond, so try your best to focus.</p><p>An example is given below. Press 'Continue' when you are ready.</p><img src='img/speaking_example_v2.jpg' style='width:800px;height:460px;''></img>",0,html-button-response,43,970937,0.0-4.0,77121,List1A,black,woman,,,,,,,,
2557,"<p>Before the experiment starts, you will watch two example trials. Press 'Continue'.</p>",0,html-button-response,44,974496,0.0-5.0,77121,List1A,black,woman,,,,,,,,
null,<img src='img/speaking_WW.gif'></img>,,html-keyboard-response,45,977499,0.0-6.0,77121,List1A,black,woman,,,,null,,,,
null,<p>is speaking to</p>,,html-keyboard-response,46,979502,0.0-7.0,77121,List1A,black,woman,,,,null,,,,
5746,<p><b>Answer:</b> kate is speaking to beth</p>,0,html-button-response,47,985249,0.0-8.0,77121,List1A,black,woman,,,,,,,,
null,<img src='img/pointing_BM.gif'></img>,,html-keyboard-response,48,988251,0.0-9.0,77121,List1A,black,woman,,,,null,,,,
null,<p>are pointing at each other</p>,,html-keyboard-response,49,990253,0.0-10.0,77121,List1A,black,woman,,,,null,,,,
5347,<p><b>Answer:</b> luke and dave are pointing at each other</p>,0,html-button-response,50,995600,0.0-11.0,77121,List1A,black,woman,,,,,,,,
11615,"<p>Ready to start the experiment?</p><br><p><strong>Remember to describe the picture using a full sentence,</strong></p><p><strong> that combines the names of the people with the given phrase.</strong></p><p><strong> You do not need to capitalise names or use punctuation.</strong></p><br><p>Press 'Continue' to begin.</p>",0,html-button-response,51,1008216,0.0-12.0,77121,List1A,black,woman,,,,,,,,
null,"<div style=""font-size:60px;"">+</div>",,html-keyboard-response,52,1009720,0.0-13.0-0.0,77121,List1A,black,woman,,,,null,,,,
null,"<img src=""stim_listA/meet8.gif""</stim_listA>",,html-keyboard-response,53,1011722,0.0-13.0-1.0,77121,List1A,black,woman,,,,null,,,,
null,are meeting each other,,html-keyboard-response,54,1013723,0.0-13.0-2.0,77121,List1A,black,woman,,,,null,,,,
51100,,,survey-text,55,1064824,0.0-13.0-3.0,77121,List1A,black,woman,,,,,"{""Q0"":""ruth is meeting beth""}","<img src=""stim_listA/meet8.gif""</stim_listA>",are meeting each other,
null,"<div style=""font-size:60px;"">+</div>",,html-keyboard-response,56,1065327,0.0-13.0-0.1,77121,List1A,black,woman,,,,null,,,,
null,"<img src=""stim_listA/marry3.gif""</stim_listA>",,html-keyboard-response,57,1067329,0.0-13.0-1.1,77121,List1A,black,woman,,,,null,,,,
null,is marrying,,html-keyboard-response,58,1069333,0.0-13.0-2.1,77121,List1A,black,woman,,,,null,,,,
26186,,,survey-text,59,1095519,0.0-13.0-3.1,77121,List1A,black,woman,,,,,"{""Q0"":""ruth is marrying dave""}","<img src=""stim_listA/marry3.gif""</stim_listA>",is marrying,
null,"<div style=""font-size:60px;"">+</div>",,html-keyboard-response,60,1096021,0.0-13.0-0.2,77121,List1A,black,woman,,,,null,,,,
null,"<img src=""stim_listA/meet2.gif""</stim_listA>",,html-keyboard-response,61,1098024,0.0-13.0-1.2,77121,List1A,black,woman,,,,null,,,,
null,are meeting each other,,html-keyboard-response,62,1100026,0.0-13.0-2.2,77121,List1A,black,woman,,,,null,,,,
27068,,,survey-text,63,1127095,0.0-13.0-3.2,77121,List1A,black,woman,,,,,"{""Q0"":""fred is meeting beth""}","<img src=""stim_listA/meet2.gif""</stim_listA>",are meeting each other,
null,"<div style=""font-size:60px;"">+</div>",,html-keyboard-response,64,1127597,0.0-13.0-0.3,77121,List1A,black,woman,,,,null,,,,
null,"<img src=""stim_listA/touch3.gif""</stim_listA>",,html-keyboard-response,65,1129598,0.0-13.0-1.3,77121,List1A,black,woman,,,,null,,,,
null,is touching,,html-keyboard-response,66,1131601,0.0-13.0-2.3,77121,List1A,black,woman,,,,null,,,,
17302,,,survey-text,67,1148903,0.0-13.0-3.3,77121,List1A,black,woman,,,,,"{""Q0"":""dave is touching jane""}","<img src=""stim_listA/touch3.gif""</stim_listA>",is touching,
null,"<div style=""font-size:60px;"">+</div>",,html-keyboard-response,68,1149406,0.0-13.0-0.4,77121,List1A,black,woman,,,,null,,,,
null,"<img src=""stim_listA/fight7.gif""</stim_listA>",,html-keyboard-response,69,1151407,0.0-13.0-1.4,77121,List1A,black,woman,,,,null,,,,
null,is fighting,,html-keyboard-response,70,1153409,0.0-13.0-2.4,77121,List1A,black,woman,,,,null,,,,
23494,,,survey-text,71,1176903,0.0-13.0-3.4,77121,List1A,black,woman,,,,,"{""Q0"":""jane is fighting beth""}","<img src=""stim_listA/fight7.gif""</stim_listA>",is fighting,
null,"<div style=""font-size:60px;"">+</div>",,html-keyboard-response,72,1177405,0.0-13.0-0.5,77121,List1A,black,woman,,,,null,,,,
null,"<img src=""stim_listA/hug1.gif""</stim_listA>",,html-keyboard-response,73,1179408,0.0-13.0-1.5,77121,List1A,black,woman,,,,null,,,,
null,is hugging,,html-keyboard-response,74,1181409,0.0-13.0-2.5,77121,List1A,black,woman,,,,null,,,,
31405,,,survey-text,75,1212815,0.0-13.0-3.5,77121,List1A,black,woman,,,,,"{""Q0"":""kate is hugging mike""}","<img src=""stim_listA/hug1.gif""</stim_listA>",is hugging,
null,"<div style=""font-size:60px;"">+</div>",,html-keyboard-response,76,1213316,0.0-13.0-0.6,77121,List1A,black,woman,,,,null,,,,
null,"<img src=""stim_listA/marry6.gif""</stim_listA>",,html-keyboard-response,77,1215318,0.0-13.0-1.6,77121,List1A,black,woman,,,,null,,,,
null,are marrying each other,,html-keyboard-response,78,1217319,0.0-13.0-2.6,77121,List1A,black,woman,,,,null,,,,
19399,,,survey-text,79,1236718,0.0-13.0-3.6,77121,List1A,black,woman,,,,,"{""Q0"":""dave is marrying fred""}","<img src=""stim_listA/marry6.gif""</stim_listA>",are marrying each other,
null,"<div style=""font-size:60px;"">+</div>",,html-keyboard-response,80,1237220,0.0-13.0-0.7,77121,List1A,black,woman,,,,null,,,,
null,"<img src=""stim_listA/shout6.gif""</stim_listA>",,html-keyboard-response,81,1239223,0.0-13.0-1.7,77121,List1A,black,woman,,,,null,,,,
null,are shouting at each other,,html-keyboard-response,82,1241224,0.0-13.0-2.7,77121,List1A,black,woman,,,,null,,,,
15118,,,survey-text,83,1256342,0.0-13.0-3.7,77121,List1A,black,woman,,,,,"{""Q0"":""dave is shouting at mike""}","<img src=""stim_listA/shout6.gif""</stim_listA>",are shouting at each other,
null,"<div style=""font-size:60px;"">+</div>",,html-keyboard-response,84,1256843,0.0-13.0-0.8,77121,List1A,black,woman,,,,null,,,,
null,"<img src=""stim_listA/dance5.gif""</stim_listA>",,html-keyboard-response,85,1258845,0.0-13.0-1.8,77121,List1A,black,woman,,,,null,,,,
null,is dancing with,,html-keyboard-response,86,1260847,0.0-13.0-2.8,77121,List1A,black,woman,,,,null,,,,
15862,,,survey-text,87,1276710,0.0-13.0-3.8,77121,List1A,black,woman,,,,,"{""Q0"":""dave is dancing with fred""}","<img src=""stim_listA/dance5.gif""</stim_listA>",is dancing with,
null,"<div style=""font-size:60px;"">+</div>",,html-keyboard-response,88,1277211,0.0-13.0-0.9,77121,List1A,black,woman,,,,null,,,,
null,"<img src=""stim_listA/dance3.gif""</stim_listA>",,html-keyboard-response,89,1279213,0.0-13.0-1.9,77121,List1A,black,woman,,,,null,,,,
null,is dancing with,,html-keyboard-response,90,1281216,0.0-13.0-2.9,77121,List1A,black,woman,,,,null,,,,
22677,,,survey-text,91,1303895,0.0-13.0-3.9,77121,List1A,black,woman,,,,,"{""Q0"":""jane is dancing with luke""}","<img src=""stim_listA/dance3.gif""</stim_listA>",is dancing with,
null,"<div style=""font-size:60px;"">+</div>",,html-keyboard-response,92,1304396,0.0-13.0-0.10,77121,List1A,black,woman,,,,null,,,,
null,"<img src=""stim_listA/touch4.gif""</stim_listA>",,html-keyboard-response,93,1306398,0.0-13.0-1.10,77121,List1A,black,woman,,,,null,,,,
null,are touching each other,,html-keyboard-response,94,1308399,0.0-13.0-2.10,77121,List1A,black,woman,,,,null,,,,
14918,,,survey-text,95,1323318,0.0-13.0-3.10,77121,List1A,black,woman,,,,,"{""Q0"":""ruth is touching luke""}","<img src=""stim_listA/touch4.gif""</stim_listA>",are touching each other,
null,"<div style=""font-size:60px;"">+</div>",,html-keyboard-response,96,1323820,0.0-13.0-0.11,77121,List1A,black,woman,,,,null,,,,
null,"<img src=""stim_listA/shout4.gif""</stim_listA>",,html-keyboard-response,97,1325822,0.0-13.0-1.11,77121,List1A,black,woman,,,,null,,,,
null,are shouting at each other,,html-keyboard-response,98,1327824,0.0-13.0-2.11,77121,List1A,black,woman,,,,null,,,,
19564,,,survey-text,99,1347390,0.0-13.0-3.11,77121,List1A,black,woman,,,,,"{""Q0"":""jane is shouting at dave""}","<img src=""stim_listA/shout4.gif""</stim_listA>",are shouting at each other,
null,"<div style=""font-size:60px;"">+</div>",,html-keyboard-response,100,1347892,0.0-13.0-0.12,77121,List1A,black,woman,,,,null,,,,
null,"<img src=""stim_listA/shout7.gif""</stim_listA>",,html-keyboard-response,101,1349894,0.0-13.0-1.12,77121,List1A,black,woman,,,,null,,,,
null,is shouting at,,html-keyboard-response,102,1351896,0.0-13.0-2.12,77121,List1A,black,woman,,,,null,,,,
31476,,,survey-text,103,1383374,0.0-13.0-3.12,77121,List1A,black,woman,,,,,"{""Q0"":""ruth is shouting at beth""}","<img src=""stim_listA/shout7.gif""</stim_listA>",is shouting at,
null,"<div style=""font-size:60px;"">+</div>",,html-keyboard-response,104,1383875,0.0-13.0-0.13,77121,List1A,black,woman,,,,null,,,,
null,"<img src=""stim_listA/fight5.gif""</stim_listA>",,html-keyboard-response,105,1385877,0.0-13.0-1.13,77121,List1A,black,woman,,,,null,,,,
null,is fighting,,html-keyboard-response,106,1387878,0.0-13.0-2.13,77121,List1A,black,woman,,,,null,,,,
15999,,,survey-text,107,1403877,0.0-13.0-3.13,77121,List1A,black,woman,,,,,"{""Q0"":""dave is fighting with mike""}","<img src=""stim_listA/fight5.gif""</stim_listA>",is fighting,
null,"<div style=""font-size:60px;"">+</div>",,html-keyboard-response,108,1404379,0.0-13.0-0.14,77121,List1A,black,woman,,,,null,,,,
null,"<img src=""stim_listA/talk2.gif""</stim_listA>",,html-keyboard-response,109,1406380,0.0-13.0-1.14,77121,List1A,black,woman,,,,null,,,,
null,are talking to each other,,html-keyboard-response,110,1408382,0.0-13.0-2.14,77121,List1A,black,woman,,,,null,,,,
30325,,,survey-text,111,1438709,0.0-13.0-3.14,77121,List1A,black,woman,,,,,"{""Q0"":""mike is taking with beth""}","<img src=""stim_listA/talk2.gif""</stim_listA>",are talking to each other,
null,"<div style=""font-size:60px;"">+</div>",,html-keyboard-response,112,1439210,0.0-13.0-0.15,77121,List1A,black,woman,,,,null,,,,
null,"<img src=""stim_listA/shout5.gif""</stim_listA>",,html-keyboard-response,113,1441213,0.0-13.0-1.15,77121,List1A,black,woman,,,,null,,,,
null,is shouting at,,html-keyboard-response,114,1443215,0.0-13.0-2.15,77121,List1A,black,woman,,,,null,,,,
25269,,,survey-text,115,1468485,0.0-13.0-3.15,77121,List1A,black,woman,,,,,"{""Q0"":""fred is shouting at luke""}","<img src=""stim_listA/shout5.gif""</stim_listA>",is shouting at,
null,"<div style=""font-size:60px;"">+</div>",,html-keyboard-response,116,1468988,0.0-13.0-0.16,77121,List1A,black,woman,,,,null,,,,
null,"<img src=""stim_listA/hug6.gif""</stim_listA>",,html-keyboard-response,117,1470989,0.0-13.0-1.16,77121,List1A,black,woman,,,,null,,,,
null,are hugging each other,,html-keyboard-response,118,1472991,0.0-13.0-2.16,77121,List1A,black,woman,,,,null,,,,
17950,,,survey-text,119,1490941,0.0-13.0-3.16,77121,List1A,black,woman,,,,,"{""Q0"":""dave is hugging mike""}","<img src=""stim_listA/hug6.gif""</stim_listA>",are hugging each other,
null,"<div style=""font-size:60px;"">+</div>",,html-keyboard-response,120,1491443,0.0-13.0-0.17,77121,List1A,black,woman,,,,null,,,,
null,"<img src=""stim_listA/meet3.gif""</stim_listA>",,html-keyboard-response,121,1493444,0.0-13.0-1.17,77121,List1A,black,woman,,,,null,,,,
null,is meeting,,html-keyboard-response,122,1495445,0.0-13.0-2.17,77121,List1A,black,woman,,,,null,,,,
16007,,,survey-text,123,1511453,0.0-13.0-3.17,77121,List1A,black,woman,,,,,"{""Q0"":""dave is meeting jane""}","<img src=""stim_listA/meet3.gif""</stim_listA>",is meeting,
null,"<div style=""font-size:60px;"">+</div>",,html-keyboard-response,124,1511955,0.0-13.0-0.18,77121,List1A,black,woman,,,,null,,,,
null,"<img src=""stim_listA/shout8.gif""</stim_listA>",,html-keyboard-response,125,1513958,0.0-13.0-1.18,77121,List1A,black,woman,,,,null,,,,
null,are shouting at each other,,html-keyboard-response,126,1515959,0.0-13.0-2.18,77121,List1A,black,woman,,,,null,,,,
12596,,,survey-text,127,1528557,0.0-13.0-3.18,77121,List1A,black,woman,,,,,"{""Q0"":""jane is shouting at kate""}","<img src=""stim_listA/shout8.gif""</stim_listA>",are shouting at each other,
null,"<div style=""font-size:60px;"">+</div>",,html-keyboard-response,128,1529059,0.0-13.0-0.19,77121,List1A,black,woman,,,,null,,,,
null,"<img src=""stim_listA/touch6.gif""</stim_listA>",,html-keyboard-response,129,1531061,0.0-13.0-1.19,77121,List1A,black,woman,,,,null,,,,
null,are touching each other,,html-keyboard-response,130,1533062,0.0-13.0-2.19,77121,List1A,black,woman,,,,null,,,,
17286,,,survey-text,131,1550349,0.0-13.0-3.19,77121,List1A,black,woman,,,,,"{""Q0"":""fred is touching luke""}","<img src=""stim_listA/touch6.gif""</stim_listA>",are touching each other,
476166,"<img src='img/portrait_matrix_list1.JPG' style='width:900px;height:500px;''></img><p>If you have memorised all the portraits and names and are ready to start, press Continue.</p><p><strong>Please note: Your memory of these faces will be tested 4 times during this experiment.</strong></p>",0,html-button-response,132,2026516,0.0-14.0-0.0,77121,List1A,black,woman,,,,,,,,
4563,"<img src=""portrait/BW2.jpg""style=""width:400px;height:400px;""></img>",2,html-button-response,133,2032083,0.0-14.0-1.0,77121,List1A,black,woman,,TRUE,2,,,,,
null,CORRECT,,html-keyboard-response,134,2033587,0.0-14.0-2.0-0.0,77121,List1A,black,woman,,,,null,,,,
3318,"<img src=""portrait/WM1.jpg""style=""width:400px;height:400px;""></img>",6,html-button-response,135,2036907,0.0-14.0-4.0,77121,List1A,black,woman,,TRUE,6,,,,,
null,CORRECT,,html-keyboard-response,136,2038410,0.0-14.0-5.0-0.0,77121,List1A,black,woman,,,,null,,,,
6063,"<img src=""portrait/WW1.jpg""style=""width:400px;height:400px;""></img>",1,html-button-response,137,2044475,0.0-14.0-7.0,77121,List1A,black,woman,,TRUE,1,,,,,
null,CORRECT,,html-keyboard-response,138,2045978,0.0-14.0-8.0-0.0,77121,List1A,black,woman,,,,null,,,,
3719,"<img src=""portrait/BM2.jpg""style=""width:400px;height:400px;""></img>",5,html-button-response,139,2049699,0.0-14.0-10.0,77121,List1A,black,woman,,TRUE,5,,,,,
null,CORRECT,,html-keyboard-response,140,2051201,0.0-14.0-11.0-0.0,77121,List1A,black,woman,,,,null,,,,
5328,"<img src=""portrait/BM1.jpg""style=""width:400px;height:400px;""></img>",4,html-button-response,141,2056531,0.0-14.0-13.0,77121,List1A,black,woman,,TRUE,4,,,,,
null,CORRECT,,html-keyboard-response,142,2058034,0.0-14.0-14.0-0.0,77121,List1A,black,woman,,,,null,,,,
3095,"<img src=""portrait/WW2.jpg""style=""width:400px;height:400px;""></img>",3,html-button-response,143,2061131,0.0-14.0-16.0,77121,List1A,black,woman,,TRUE,3,,,,,
null,CORRECT,,html-keyboard-response,144,2062633,0.0-14.0-17.0-0.0,77121,List1A,black,woman,,,,null,,,,
5960,"<img src=""portrait/BW1.jpg""style=""width:400px;height:400px;""></img>",0,html-button-response,145,2068595,0.0-14.0-19.0,77121,List1A,black,woman,,TRUE,0,,,,,
null,CORRECT,,html-keyboard-response,146,2070099,0.0-14.0-20.0-0.0,77121,List1A,black,woman,,,,null,,,,
2782,"<img src=""portrait/WM2.jpg""style=""width:400px;height:400px;""></img>",7,html-button-response,147,2072883,0.0-14.0-22.0,77121,List1A,black,woman,,TRUE,7,,,,,
null,CORRECT,,html-keyboard-response,148,2074385,0.0-14.0-23.0-0.0,77121,List1A,black,woman,,,,null,,,,
1656,<p>You got 8 out of 8 right first time. Press Continue.</p>,0,html-button-response,149,2076043,0.0-14.0-25.0,77121,List1A,black,woman,,,,,,,,
null,"<div style=""font-size:60px;"">+</div>",,html-keyboard-response,150,2077546,0.0-15.0-0.0,77121,List1A,black,woman,,,,null,,,,
null,"<img src=""stim_listA/dance7.gif""</stim_listA>",,html-keyboard-response,151,2079549,0.0-15.0-1.0,77121,List1A,black,woman,,,,null,,,,
null,is dancing with,,html-keyboard-response,152,2081551,0.0-15.0-2.0,77121,List1A,black,woman,,,,null,,,,
27538,,,survey-text,153,2109090,0.0-15.0-3.0,77121,List1A,black,woman,,,,,"{""Q0"":""jane is dancing with beth""}","<img src=""stim_listA/dance7.gif""</stim_listA>",is dancing with,
null,"<div style=""font-size:60px;"">+</div>",,html-keyboard-response,154,2109593,0.0-15.0-0.1,77121,List1A,black,woman,,,,null,,,,
null,"<img src=""stim_listA/dance1.gif""</stim_listA>",,html-keyboard-response,155,2111595,0.0-15.0-1.1,77121,List1A,black,woman,,,,null,,,,
null,is dancing with,,html-keyboard-response,156,2113597,0.0-15.0-2.1,77121,List1A,black,woman,,,,null,,,,
29124,,,survey-text,157,2142722,0.0-15.0-3.1,77121,List1A,black,woman,,,,,"{""Q0"":""fred is dancing with kate""}","<img src=""stim_listA/dance1.gif""</stim_listA>",is dancing with,
null,"<div style=""font-size:60px;"">+</div>",,html-keyboard-response,158,2143224,0.0-15.0-0.2,77121,List1A,black,woman,,,,null,,,,
null,"<img src=""stim_listA/kiss1.gif""</stim_listA>",,html-keyboard-response,159,2145225,0.0-15.0-1.2,77121,List1A,black,woman,,,,null,,,,
null,is kissing,,html-keyboard-response,160,2147227,0.0-15.0-2.2,77121,List1A,black,woman,,,,null,,,,
27694,,,survey-text,161,2174921,0.0-15.0-3.2,77121,List1A,black,woman,,,,,"{""Q0"":""fred is kissing beth""}","<img src=""stim_listA/kiss1.gif""</stim_listA>",is kissing,
null,"<div style=""font-size:60px;"">+</div>",,html-keyboard-response,162,2175423,0.0-15.0-0.3,77121,List1A,black,woman,,,,null,,,,
null,"<img src=""stim_listA/fight4.gif""</stim_listA>",,html-keyboard-response,163,2177426,0.0-15.0-1.3,77121,List1A,black,woman,,,,null,,,,
null,are fighting each other,,html-keyboard-response,164,2179427,0.0-15.0-2.3,77121,List1A,black,woman,,,,null,,,,
20116,,,survey-text,165,2199545,0.0-15.0-3.3,77121,List1A,black,woman,,,,,"{""Q0"":""ruth is fighting luke""}","<img src=""stim_listA/fight4.gif""</stim_listA>",are fighting each other,
null,"<div style=""font-size:60px;"">+</div>",,html-keyboard-response,166,2200047,0.0-15.0-0.4,77121,List1A,black,woman,,,,null,,,,
null,"<img src=""stim_listA/meet6.gif""</stim_listA>",,html-keyboard-response,167,2202050,0.0-15.0-1.4,77121,List1A,black,woman,,,,null,,,,
null,are meeting each other,,html-keyboard-response,168,2204051,0.0-15.0-2.4,77121,List1A,black,woman,,,,null,,,,
13462,,,survey-text,169,2217514,0.0-15.0-3.4,77121,List1A,black,woman,,,,,"{""Q0"":""luke is meeting fred""}","<img src=""stim_listA/meet6.gif""</stim_listA>",are meeting each other,
null,"<div style=""font-size:60px;"">+</div>",,html-keyboard-response,170,2218015,0.0-15.0-0.5,77121,List1A,black,woman,,,,null,,,,
null,"<img src=""stim_listA/shout2.gif""</stim_listA>",,html-keyboard-response,171,2220016,0.0-15.0-1.5,77121,List1A,black,woman,,,,null,,,,
null,are shouting at each other,,html-keyboard-response,172,2222017,0.0-15.0-2.5,77121,List1A,black,woman,,,,null,,,,
14983,,,survey-text,173,2237002,0.0-15.0-3.5,77121,List1A,black,woman,,,,,"{""Q0"":""kate is shouting at mike""}","<img src=""stim_listA/shout2.gif""</stim_listA>",are shouting at each other,
null,"<div style=""font-size:60px;"">+</div>",,html-keyboard-response,174,2237503,0.0-15.0-0.6,77121,List1A,black,woman,,,,null,,,,
null,"<img src=""stim_listA/talk7.gif""</stim_listA>",,html-keyboard-response,175,2239505,0.0-15.0-1.6,77121,List1A,black,woman,,,,null,,,,
null,is talking to,,html-keyboard-response,176,2241506,0.0-15.0-2.6,77121,List1A,black,woman,,,,null,,,,
34149,,,survey-text,177,2275657,0.0-15.0-3.6,77121,List1A,black,woman,,,,,"{""Q0"":""jane is talking to beth""}","<img src=""stim_listA/talk7.gif""</stim_listA>",is talking to,
null,"<div style=""font-size:60px;"">+</div>",,html-keyboard-response,178,2276159,0.0-15.0-0.7,77121,List1A,black,woman,,,,null,,,,
null,"<img src=""stim_listA/dance8.gif""</stim_listA>",,html-keyboard-response,179,2278161,0.0-15.0-1.7,77121,List1A,black,woman,,,,null,,,,
null,are dancing with each other,,html-keyboard-response,180,2280163,0.0-15.0-2.7,77121,List1A,black,woman,,,,null,,,,
35621,,,survey-text,181,2315785,0.0-15.0-3.7,77121,List1A,black,woman,,,,,"{""Q0"":""kate is dancing with ruth ""}","<img src=""stim_listA/dance8.gif""</stim_listA>",are dancing with each other,
null,"<div style=""font-size:60px;"">+</div>",,html-keyboard-response,182,2316286,0.0-15.0-0.8,77121,List1A,black,woman,,,,null,,,,
null,"<img src=""stim_listA/marry8.gif""</stim_listA>",,html-keyboard-response,183,2318287,0.0-15.0-1.8,77121,List1A,black,woman,,,,null,,,,
null,are marrying each other,,html-keyboard-response,184,2320290,0.0-15.0-2.8,77121,List1A,black,woman,,,,null,,,,
23390,,,survey-text,185,2343680,0.0-15.0-3.8,77121,List1A,black,woman,,,,,"{""Q0"":""jane is marrying beth""}","<img src=""stim_listA/marry8.gif""</stim_listA>",are marrying each other,
null,"<div style=""font-size:60px;"">+</div>",,html-keyboard-response,186,2344182,0.0-15.0-0.9,77121,List1A,black,woman,,,,null,,,,
null,"<img src=""stim_listA/hug4.gif""</stim_listA>",,html-keyboard-response,187,2346183,0.0-15.0-1.9,77121,List1A,black,woman,,,,null,,,,
null,are hugging each other,,html-keyboard-response,188,2348185,0.0-15.0-2.9,77121,List1A,black,woman,,,,null,,,,
17621,,,survey-text,189,2365808,0.0-15.0-3.9,77121,List1A,black,woman,,,,,"{""Q0"":""jane is hugging dave""}","<img src=""stim_listA/hug4.gif""</stim_listA>",are hugging each other,
null,"<div style=""font-size:60px;"">+</div>",,html-keyboard-response,190,2366310,0.0-15.0-0.10,77121,List1A,black,woman,,,,null,,,,
null,"<img src=""stim_listA/touch2.gif""</stim_listA>",,html-keyboard-response,191,2368313,0.0-15.0-1.10,77121,List1A,black,woman,,,,null,,,,
null,are touching each other,,html-keyboard-response,192,2370315,0.0-15.0-2.10,77121,List1A,black,woman,,,,null,,,,
16923,,,survey-text,193,2387240,0.0-15.0-3.10,77121,List1A,black,woman,,,,,"{""Q0"":""fred is touching beth""}","<img src=""stim_listA/touch2.gif""</stim_listA>",are touching each other,
null,"<div style=""font-size:60px;"">+</div>",,html-keyboard-response,194,2387742,0.0-15.0-0.11,77121,List1A,black,woman,,,,null,,,,
null,"<img src=""stim_listA/talk4.gif""</stim_listA>",,html-keyboard-response,195,2389744,0.0-15.0-1.11,77121,List1A,black,woman,,,,null,,,,
null,are talking to each other,,html-keyboard-response,196,2391745,0.0-15.0-2.11,77121,List1A,black,woman,,,,null,,,,
30606,,,survey-text,197,2422352,0.0-15.0-3.11,77121,List1A,black,woman,,,,,"{""Q0"":""dave is talking to ruth ""}","<img src=""stim_listA/talk4.gif""</stim_listA>",are talking to each other,
null,"<div style=""font-size:60px;"">+</div>",,html-keyboard-response,198,2422853,0.0-15.0-0.12,77121,List1A,black,woman,,,,null,,,,
null,"<img src=""stim_listA/fight6.gif""</stim_listA>",,html-keyboard-response,199,2424855,0.0-15.0-1.12,77121,List1A,black,woman,,,,null,,,,
null,are fighting each other,,html-keyboard-response,200,2426856,0.0-15.0-2.12,77121,List1A,black,woman,,,,null,,,,
15254,,,survey-text,201,2442112,0.0-15.0-3.12,77121,List1A,black,woman,,,,,"{""Q0"":""luke is fighting with fred""}","<img src=""stim_listA/fight6.gif""</stim_listA>",are fighting each other,
null,"<div style=""font-size:60px;"">+</div>",,html-keyboard-response,202,2442614,0.0-15.0-0.13,77121,List1A,black,woman,,,,null,,,,
null,"<img src=""stim_listA/meet1.gif""</stim_listA>",,html-keyboard-response,203,2444617,0.0-15.0-1.13,77121,List1A,black,woman,,,,null,,,,
null,is meeting,,html-keyboard-response,204,2446618,0.0-15.0-2.13,77121,List1A,black,woman,,,,null,,,,
11324,,,survey-text,205,2457944,0.0-15.0-3.13,77121,List1A,black,woman,,,,,"{""Q0"":""kate is meeting mike""}","<img src=""stim_listA/meet1.gif""</stim_listA>",is meeting,
null,"<div style=""font-size:60px;"">+</div>",,html-keyboard-response,206,2458445,0.0-15.0-0.14,77121,List1A,black,woman,,,,null,,,,
null,"<img src=""stim_listA/hug8.gif""</stim_listA>",,html-keyboard-response,207,2460449,0.0-15.0-1.14,77121,List1A,black,woman,,,,null,,,,
null,are hugging each other,,html-keyboard-response,208,2462450,0.0-15.0-2.14,77121,List1A,black,woman,,,,null,,,,
11172,,,survey-text,209,2473624,0.0-15.0-3.14,77121,List1A,black,woman,,,,,"{""Q0"":""kate is hugging jane""}","<img src=""stim_listA/hug8.gif""</stim_listA>",are hugging each other,
null,"<div style=""font-size:60px;"">+</div>",,html-keyboard-response,210,2474125,0.0-15.0-0.15,77121,List1A,black,woman,,,,null,,,,
null,"<img src=""stim_listA/shout1.gif""</stim_listA>",,html-keyboard-response,211,2476127,0.0-15.0-1.15,77121,List1A,black,woman,,,,null,,,,
null,is shouting at,,html-keyboard-response,212,2478129,0.0-15.0-2.15,77121,List1A,black,woman,,,,null,,,,
17575,,,survey-text,213,2495704,0.0-15.0-3.15,77121,List1A,black,woman,,,,,"{""Q0"":""beth is shouting at fred""}","<img src=""stim_listA/shout1.gif""</stim_listA>",is shouting at,
null,"<div style=""font-size:60px;"">+</div>",,html-keyboard-response,214,2496206,0.0-15.0-0.16,77121,List1A,black,woman,,,,null,,,,
null,"<img src=""stim_listA/talk6.gif""</stim_listA>",,html-keyboard-response,215,2498208,0.0-15.0-1.16,77121,List1A,black,woman,,,,null,,,,
null,are talking to each other,,html-keyboard-response,216,2500209,0.0-15.0-2.16,77121,List1A,black,woman,,,,null,,,,
18142,,,survey-text,217,2518352,0.0-15.0-3.16,77121,List1A,black,woman,,,,,"{""Q0"":""luke is talking to mike""}","<img src=""stim_listA/talk6.gif""</stim_listA>",are talking to each other,
null,"<div style=""font-size:60px;"">+</div>",,html-keyboard-response,218,2518853,0.0-15.0-0.17,77121,List1A,black,woman,,,,null,,,,
null,"<img src=""stim_listA/touch1.gif""</stim_listA>",,html-keyboard-response,219,2520855,0.0-15.0-1.17,77121,List1A,black,woman,,,,null,,,,
null,is touching,,html-keyboard-response,220,2522856,0.0-15.0-2.17,77121,List1A,black,woman,,,,null,,,,
14471,,,survey-text,221,2537327,0.0-15.0-3.17,77121,List1A,black,woman,,,,,"{""Q0"":""kate is touching mike""}","<img src=""stim_listA/touch1.gif""</stim_listA>",is touching,
null,"<div style=""font-size:60px;"">+</div>",,html-keyboard-response,222,2537829,0.0-15.0-0.18,77121,List1A,black,woman,,,,null,,,,
null,"<img src=""stim_listA/hug3.gif""</stim_listA>",,html-keyboard-response,223,2539833,0.0-15.0-1.18,77121,List1A,black,woman,,,,null,,,,
null,is hugging,,html-keyboard-response,224,2541838,0.0-15.0-2.18,77121,List1A,black,woman,,,,null,,,,
33216,,,survey-text,225,2575055,0.0-15.0-3.18,77121,List1A,black,woman,,,,,"{""Q0"":""ruth is hugging luke""}","<img src=""stim_listA/hug3.gif""</stim_listA>",is hugging,
null,"<div style=""font-size:60px;"">+</div>",,html-keyboard-response,226,2575557,0.0-15.0-0.19,77121,List1A,black,woman,,,,null,,,,
null,"<img src=""stim_listA/marry4.gif""</stim_listA>",,html-keyboard-response,227,2577558,0.0-15.0-1.19,77121,List1A,black,woman,,,,null,,,,
null,are marrying each other,,html-keyboard-response,228,2579561,0.0-15.0-2.19,77121,List1A,black,woman,,,,null,,,,
33966,,,survey-text,229,2613527,0.0-15.0-3.19,77121,List1A,black,woman,,,,,"{""Q0"":""jane is marrying luke""}","<img src=""stim_listA/marry4.gif""</stim_listA>",are marrying each other,
3503,"<img src='img/portrait_matrix_list1.JPG' style='width:900px;height:500px;''></img><p>If you have memorised all the portraits and names and are ready to start, press Continue.</p><p><strong>Please note: Your memory of these faces will be tested 4 times during this experiment.</strong></p>",0,html-button-response,230,2617031,0.0-16.0-0.0,77121,List1A,black,woman,,,,,,,,
3996,"<img src=""portrait/BM2.jpg""style=""width:400px;height:400px;""></img>",5,html-button-response,231,2622031,0.0-16.0-1.0,77121,List1A,black,woman,,TRUE,5,,,,,
null,CORRECT,,html-keyboard-response,232,2623533,0.0-16.0-2.0-0.0,77121,List1A,black,woman,,,,null,,,,
6096,"<img src=""portrait/BW1.jpg""style=""width:400px;height:400px;""></img>",0,html-button-response,233,2629631,0.0-16.0-4.0,77121,List1A,black,woman,,TRUE,0,,,,,
null,CORRECT,,html-keyboard-response,234,2631133,0.0-16.0-5.0-0.0,77121,List1A,black,woman,,,,null,,,,
4824,"<img src=""portrait/WW1.jpg""style=""width:400px;height:400px;""></img>",1,html-button-response,235,2635959,0.0-16.0-7.0,77121,List1A,black,woman,,TRUE,1,,,,,
null,CORRECT,,html-keyboard-response,236,2637461,0.0-16.0-8.0-0.0,77121,List1A,black,woman,,,,null,,,,
2488,"<img src=""portrait/WW2.jpg""style=""width:400px;height:400px;""></img>",3,html-button-response,237,2639951,0.0-16.0-10.0,77121,List1A,black,woman,,TRUE,3,,,,,
null,CORRECT,,html-keyboard-response,238,2641453,0.0-16.0-11.0-0.0,77121,List1A,black,woman,,,,null,,,,
3528,"<img src=""portrait/WM2.jpg""style=""width:400px;height:400px;""></img>",7,html-button-response,239,2644983,0.0-16.0-13.0,77121,List1A,black,woman,,TRUE,7,,,,,
null,CORRECT,,html-keyboard-response,240,2646485,0.0-16.0-14.0-0.0,77121,List1A,black,woman,,,,null,,,,
3360,"<img src=""portrait/BM1.jpg""style=""width:400px;height:400px;""></img>",4,html-button-response,241,2649847,0.0-16.0-16.0,77121,List1A,black,woman,,TRUE,4,,,,,
null,CORRECT,,html-keyboard-response,242,2651350,0.0-16.0-17.0-0.0,77121,List1A,black,woman,,,,null,,,,
3239,"<img src=""portrait/BW2.jpg""style=""width:400px;height:400px;""></img>",2,html-button-response,243,2654590,0.0-16.0-19.0,77121,List1A,black,woman,,TRUE,2,,,,,
null,CORRECT,,html-keyboard-response,244,2656093,0.0-16.0-20.0-0.0,77121,List1A,black,woman,,,,null,,,,
3496,"<img src=""portrait/WM1.jpg""style=""width:400px;height:400px;""></img>",6,html-button-response,245,2659591,0.0-16.0-22.0,77121,List1A,black,woman,,TRUE,6,,,,,
null,CORRECT,,html-keyboard-response,246,2661094,0.0-16.0-23.0-0.0,77121,List1A,black,woman,,,,null,,,,
1295,<p>You got 8 out of 8 right first time. Press Continue.</p>,0,html-button-response,247,2662390,0.0-16.0-25.0,77121,List1A,black,woman,,,,,,,,
null,"<div style=""font-size:60px;"">+</div>",,html-keyboard-response,248,2663893,0.0-17.0-0.0,77121,List1A,black,woman,,,,null,,,,
null,"<img src=""stim_listA/fight1.gif""</stim_listA>",,html-keyboard-response,249,2665895,0.0-17.0-1.0,77121,List1A,black,woman,,,,null,,,,
null,is fighting,,html-keyboard-response,250,2667897,0.0-17.0-2.0,77121,List1A,black,woman,,,,null,,,,
17077,,,survey-text,251,2684974,0.0-17.0-3.0,77121,List1A,black,woman,,,,,"{""Q0"":""kate is fighting with mike""}","<img src=""stim_listA/fight1.gif""</stim_listA>",is fighting,
null,"<div style=""font-size:60px;"">+</div>",,html-keyboard-response,252,2685476,0.0-17.0-0.1,77121,List1A,black,woman,,,,null,,,,
null,"<img src=""stim_listA/argue1.gif""</stim_listA>",,html-keyboard-response,253,2687478,0.0-17.0-1.1,77121,List1A,black,woman,,,,null,,,,
null,is arguing with,,html-keyboard-response,254,2689480,0.0-17.0-2.1,77121,List1A,black,woman,,,,null,,,,
20454,,,survey-text,255,2709934,0.0-17.0-3.1,77121,List1A,black,woman,,,,,"{""Q0"":""beth is arguing with mike""}","<img src=""stim_listA/argue1.gif""</stim_listA>",is arguing with,
null,"<div style=""font-size:60px;"">+</div>",,html-keyboard-response,256,2710436,0.0-17.0-0.2,77121,List1A,black,woman,,,,null,,,,
null,"<img src=""stim_listA/kiss3.gif""</stim_listA>",,html-keyboard-response,257,2712438,0.0-17.0-1.2,77121,List1A,black,woman,,,,null,,,,
null,is kissing,,html-keyboard-response,258,2714439,0.0-17.0-2.2,77121,List1A,black,woman,,,,null,,,,
16574,,,survey-text,259,2731014,0.0-17.0-3.2,77121,List1A,black,woman,,,,,"{""Q0"":""ruth is kissing luke""}","<img src=""stim_listA/kiss3.gif""</stim_listA>",is kissing,
null,"<div style=""font-size:60px;"">+</div>",,html-keyboard-response,260,2731515,0.0-17.0-0.3,77121,List1A,black,woman,,,,null,,,,
null,"<img src=""stim_listA/talk5.gif""</stim_listA>",,html-keyboard-response,261,2733518,0.0-17.0-1.3,77121,List1A,black,woman,,,,null,,,,
null,is talking to,,html-keyboard-response,262,2735520,0.0-17.0-2.3,77121,List1A,black,woman,,,,null,,,,
12678,,,survey-text,263,2748198,0.0-17.0-3.3,77121,List1A,black,woman,,,,,"{""Q0"":""dave is talking to fred""}","<img src=""stim_listA/talk5.gif""</stim_listA>",is talking to,
null,"<div style=""font-size:60px;"">+</div>",,html-keyboard-response,264,2748701,0.0-17.0-0.4,77121,List1A,black,woman,,,,null,,,,
null,"<img src=""stim_listA/dance2.gif""</stim_listA>",,html-keyboard-response,265,2750703,0.0-17.0-1.4,77121,List1A,black,woman,,,,null,,,,
null,are dancing with each other,,html-keyboard-response,266,2752705,0.0-17.0-2.4,77121,List1A,black,woman,,,,null,,,,
16219,,,survey-text,267,2768926,0.0-17.0-3.4,77121,List1A,black,woman,,,,,"{""Q0"":""beth is dancing with mike""}","<img src=""stim_listA/dance2.gif""</stim_listA>",are dancing with each other,
null,"<div style=""font-size:60px;"">+</div>",,html-keyboard-response,268,2769427,0.0-17.0-0.5,77121,List1A,black,woman,,,,null,,,,
null,"<img src=""stim_listA/argue5.gif""</stim_listA>",,html-keyboard-response,269,2771429,0.0-17.0-1.5,77121,List1A,black,woman,,,,null,,,,
null,is arguing with,,html-keyboard-response,270,2773432,0.0-17.0-2.5,77121,List1A,black,woman,,,,null,,,,
17989,,,survey-text,271,2791422,0.0-17.0-3.5,77121,List1A,black,woman,,,,,"{""Q0"":""luke is arguing with mike""}","<img src=""stim_listA/argue5.gif""</stim_listA>",is arguing with,
null,"<div style=""font-size:60px;"">+</div>",,html-keyboard-response,272,2791923,0.0-17.0-0.6,77121,List1A,black,woman,,,,null,,,,
null,"<img src=""stim_listA/meet4.gif""</stim_listA>",,html-keyboard-response,273,2793925,0.0-17.0-1.6,77121,List1A,black,woman,,,,null,,,,
null,are meeting each other,,html-keyboard-response,274,2795926,0.0-17.0-2.6,77121,List1A,black,woman,,,,null,,,,
16190,,,survey-text,275,2812117,0.0-17.0-3.6,77121,List1A,black,woman,,,,,"{""Q0"":""ruth is meeting luke""}","<img src=""stim_listA/meet4.gif""</stim_listA>",are meeting each other,
null,"<div style=""font-size:60px;"">+</div>",,html-keyboard-response,276,2812619,0.0-17.0-0.7,77121,List1A,black,woman,,,,null,,,,
null,"<img src=""stim_listA/meet7.gif""</stim_listA>",,html-keyboard-response,277,2814622,0.0-17.0-1.7,77121,List1A,black,woman,,,,null,,,,
null,is meeting,,html-keyboard-response,278,2816624,0.0-17.0-2.7,77121,List1A,black,woman,,,,null,,,,
11733,,,survey-text,279,2828357,0.0-17.0-3.7,77121,List1A,black,woman,,,,,"{""Q0"":""kate is meeting jane""}","<img src=""stim_listA/meet7.gif""</stim_listA>",is meeting,
null,"<div style=""font-size:60px;"">+</div>",,html-keyboard-response,280,2828860,0.0-17.0-0.8,77121,List1A,black,woman,,,,null,,,,
null,"<img src=""stim_listA/talk1.gif""</stim_listA>",,html-keyboard-response,281,2830861,0.0-17.0-1.8,77121,List1A,black,woman,,,,null,,,,
null,is talking to,,html-keyboard-response,282,2832863,0.0-17.0-2.8,77121,List1A,black,woman,,,,null,,,,
18550,,,survey-text,283,2851413,0.0-17.0-3.8,77121,List1A,black,woman,,,,,"{""Q0"":""kate is talking to fred""}","<img src=""stim_listA/talk1.gif""</stim_listA>",is talking to,
null,"<div style=""font-size:60px;"">+</div>",,html-keyboard-response,284,2851914,0.0-17.0-0.9,77121,List1A,black,woman,,,,null,,,,
null,"<img src=""stim_listA/argue6.gif""</stim_listA>",,html-keyboard-response,285,2853916,0.0-17.0-1.9,77121,List1A,black,woman,,,,null,,,,
null,are arguing with each other,,html-keyboard-response,286,2855918,0.0-17.0-2.9,77121,List1A,black,woman,,,,null,,,,
15333,,,survey-text,287,2871253,0.0-17.0-3.9,77121,List1A,black,woman,,,,,"{""Q0"":""dave is arguing with fred""}","<img src=""stim_listA/argue6.gif""</stim_listA>",are arguing with each other,
null,"<div style=""font-size:60px;"">+</div>",,html-keyboard-response,288,2871755,0.0-17.0-0.10,77121,List1A,black,woman,,,,null,,,,
null,"<img src=""stim_listA/hug7.gif""</stim_listA>",,html-keyboard-response,289,2873757,0.0-17.0-1.10,77121,List1A,black,woman,,,,null,,,,
null,is hugging,,html-keyboard-response,290,2875758,0.0-17.0-2.10,77121,List1A,black,woman,,,,null,,,,
24205,,,survey-text,291,2899965,0.0-17.0-3.10,77121,List1A,black,woman,,,,,"{""Q0"":""beth is hugging ruth""}","<img src=""stim_listA/hug7.gif""</stim_listA>",is hugging,
null,"<div style=""font-size:60px;"">+</div>",,html-keyboard-response,292,2900467,0.0-17.0-0.11,77121,List1A,black,woman,,,,null,,,,
null,"<img src=""stim_listA/argue2.gif""</stim_listA>",,html-keyboard-response,293,2902469,0.0-17.0-1.11,77121,List1A,black,woman,,,,null,,,,
null,are arguing with each other,,html-keyboard-response,294,2904470,0.0-17.0-2.11,77121,List1A,black,woman,,,,null,,,,
11349,,,survey-text,295,2915821,0.0-17.0-3.11,77121,List1A,black,woman,,,,,"{""Q0"":""kate is arguing with fred""}","<img src=""stim_listA/argue2.gif""</stim_listA>",are arguing with each other,
null,"<div style=""font-size:60px;"">+</div>",,html-keyboard-response,296,2916323,0.0-17.0-0.12,77121,List1A,black,woman,,,,null,,,,
null,"<img src=""stim_listA/meet5.gif""</stim_listA>",,html-keyboard-response,297,2918325,0.0-17.0-1.12,77121,List1A,black,woman,,,,null,,,,
null,is meeting,,html-keyboard-response,298,2920327,0.0-17.0-2.12,77121,List1A,black,woman,,,,null,,,,
16116,,,survey-text,299,2936445,0.0-17.0-3.12,77121,List1A,black,woman,,,,,"{""Q0"":""dave is meeting mike""}","<img src=""stim_listA/meet5.gif""</stim_listA>",is meeting,
null,"<div style=""font-size:60px;"">+</div>",,html-keyboard-response,300,2936946,0.0-17.0-0.13,77121,List1A,black,woman,,,,null,,,,
null,"<img src=""stim_listA/kiss7.gif""</stim_listA>",,html-keyboard-response,301,2938948,0.0-17.0-1.13,77121,List1A,black,woman,,,,null,,,,
null,is kissing,,html-keyboard-response,302,2940949,0.0-17.0-2.13,77121,List1A,black,woman,,,,null,,,,
16702,,,survey-text,303,2957653,0.0-17.0-3.13,77121,List1A,black,woman,,,,,"{""Q0"":""beth is kissing ruth""}","<img src=""stim_listA/kiss7.gif""</stim_listA>",is kissing,
null,"<div style=""font-size:60px;"">+</div>",,html-keyboard-response,304,2958154,0.0-17.0-0.14,77121,List1A,black,woman,,,,null,,,,
null,"<img src=""stim_listA/dance6.gif""</stim_listA>",,html-keyboard-response,305,2960157,0.0-17.0-1.14,77121,List1A,black,woman,,,,null,,,,
null,are dancing with each other,,html-keyboard-response,306,2962158,0.0-17.0-2.14,77121,List1A,black,woman,,,,null,,,,
21078,,,survey-text,307,2983237,0.0-17.0-3.14,77121,List1A,black,woman,,,,,"{""Q0"":""luke is dancing with mike""}","<img src=""stim_listA/dance6.gif""</stim_listA>",are dancing with each other,
null,"<div style=""font-size:60px;"">+</div>",,html-keyboard-response,308,2983739,0.0-17.0-0.15,77121,List1A,black,woman,,,,null,,,,
null,"<img src=""stim_listA/argue3.gif""</stim_listA>",,html-keyboard-response,309,2985741,0.0-17.0-1.15,77121,List1A,black,woman,,,,null,,,,
null,is arguing with,,html-keyboard-response,310,2987743,0.0-17.0-2.15,77121,List1A,black,woman,,,,null,,,,
16684,,,survey-text,311,3004428,0.0-17.0-3.15,77121,List1A,black,woman,,,,,"{""Q0"":""dave is arguing with ruth""}","<img src=""stim_listA/argue3.gif""</stim_listA>",is arguing with,
null,"<div style=""font-size:60px;"">+</div>",,html-keyboard-response,312,3004929,0.0-17.0-0.16,77121,List1A,black,woman,,,,null,,,,
null,"<img src=""stim_listA/marry5.gif""</stim_listA>",,html-keyboard-response,313,3006931,0.0-17.0-1.16,77121,List1A,black,woman,,,,null,,,,
null,is marrying,,html-keyboard-response,314,3008933,0.0-17.0-2.16,77121,List1A,black,woman,,,,null,,,,
21574,,,survey-text,315,3030508,0.0-17.0-3.16,77121,List1A,black,woman,,,,,"{""Q0"":""luke is marrying mike""}","<img src=""stim_listA/marry5.gif""</stim_listA>",is marrying,
null,"<div style=""font-size:60px;"">+</div>",,html-keyboard-response,316,3031010,0.0-17.0-0.17,77121,List1A,black,woman,,,,null,,,,
null,"<img src=""stim_listA/touch7.gif""</stim_listA>",,html-keyboard-response,317,3033011,0.0-17.0-1.17,77121,List1A,black,woman,,,,null,,,,
null,is touching,,html-keyboard-response,318,3035013,0.0-17.0-2.17,77121,List1A,black,woman,,,,null,,,,
24917,,,survey-text,319,3059932,0.0-17.0-3.17,77121,List1A,black,woman,,,,,"{""Q0"":""kate is touching jane""}","<img src=""stim_listA/touch7.gif""</stim_listA>",is touching,
null,"<div style=""font-size:60px;"">+</div>",,html-keyboard-response,320,3060434,0.0-17.0-0.18,77121,List1A,black,woman,,,,null,,,,
null,"<img src=""stim_listA/argue8.gif""</stim_listA>",,html-keyboard-response,321,3062435,0.0-17.0-1.18,77121,List1A,black,woman,,,,null,,,,
null,are arguing with each other,,html-keyboard-response,322,3064436,0.0-17.0-2.18,77121,List1A,black,woman,,,,null,,,,
18535,,,survey-text,323,3082972,0.0-17.0-3.18,77121,List1A,black,woman,,,,,"{""Q0"":""jane is arguing with beth""}","<img src=""stim_listA/argue8.gif""</stim_listA>",are arguing with each other,
null,"<div style=""font-size:60px;"">+</div>",,html-keyboard-response,324,3083474,0.0-17.0-0.19,77121,List1A,black,woman,,,,null,,,,
null,"<img src=""stim_listA/talk8.gif""</stim_listA>",,html-keyboard-response,325,3085476,0.0-17.0-1.19,77121,List1A,black,woman,,,,null,,,,
null,are talking to each other,,html-keyboard-response,326,3087478,0.0-17.0-2.19,77121,List1A,black,woman,,,,null,,,,
23380,,,survey-text,327,3110860,0.0-17.0-3.19,77121,List1A,black,woman,,,,,"{""Q0"":""ruth is talking to kate""}","<img src=""stim_listA/talk8.gif""</stim_listA>",are talking to each other,
4759,"<img src='img/portrait_matrix_list1.JPG' style='width:900px;height:500px;''></img><p>If you have memorised all the portraits and names and are ready to start, press Continue.</p><p><strong>Please note: Your memory of these faces will be tested 4 times during this experiment.</strong></p>",0,html-button-response,328,3115620,0.0-18.0-0.0,77121,List1A,black,woman,,,,,,,,
5645,"<img src=""portrait/BM2.jpg""style=""width:400px;height:400px;""></img>",5,html-button-response,329,3122268,0.0-18.0-1.0,77121,List1A,black,woman,,TRUE,5,,,,,
null,CORRECT,,html-keyboard-response,330,3123771,0.0-18.0-2.0-0.0,77121,List1A,black,woman,,,,null,,,,
2759,"<img src=""portrait/WM2.jpg""style=""width:400px;height:400px;""></img>",7,html-button-response,331,3126532,0.0-18.0-4.0,77121,List1A,black,woman,,TRUE,7,,,,,
null,CORRECT,,html-keyboard-response,332,3128035,0.0-18.0-5.0-0.0,77121,List1A,black,woman,,,,null,,,,
2560,"<img src=""portrait/WW2.jpg""style=""width:400px;height:400px;""></img>",3,html-button-response,333,3130596,0.0-18.0-7.0,77121,List1A,black,woman,,TRUE,3,,,,,
null,CORRECT,,html-keyboard-response,334,3132099,0.0-18.0-8.0-0.0,77121,List1A,black,woman,,,,null,,,,
2679,"<img src=""portrait/BM1.jpg""style=""width:400px;height:400px;""></img>",4,html-button-response,335,3134780,0.0-18.0-10.0,77121,List1A,black,woman,,TRUE,4,,,,,
null,CORRECT,,html-keyboard-response,336,3136282,0.0-18.0-11.0-0.0,77121,List1A,black,woman,,,,null,,,,
3192,"<img src=""portrait/BW2.jpg""style=""width:400px;height:400px;""></img>",2,html-button-response,337,3139476,0.0-18.0-13.0,77121,List1A,black,woman,,TRUE,2,,,,,
null,CORRECT,,html-keyboard-response,338,3140981,0.0-18.0-14.0-0.0,77121,List1A,black,woman,,,,null,,,,
6606,"<img src=""portrait/WW1.jpg""style=""width:400px;height:400px;""></img>",1,html-button-response,339,3147589,0.0-18.0-16.0,77121,List1A,black,woman,,TRUE,1,,,,,
null,CORRECT,,html-keyboard-response,340,3149091,0.0-18.0-17.0-0.0,77121,List1A,black,woman,,,,null,,,,
2744,"<img src=""portrait/WM1.jpg""style=""width:400px;height:400px;""></img>",6,html-button-response,341,3151836,0.0-18.0-19.0,77121,List1A,black,woman,,TRUE,6,,,,,
null,CORRECT,,html-keyboard-response,342,3153340,0.0-18.0-20.0-0.0,77121,List1A,black,woman,,,,null,,,,
5526,"<img src=""portrait/BW1.jpg""style=""width:400px;height:400px;""></img>",0,html-button-response,343,3158869,0.0-18.0-22.0,77121,List1A,black,woman,,TRUE,0,,,,,
null,CORRECT,,html-keyboard-response,344,3160371,0.0-18.0-23.0-0.0,77121,List1A,black,woman,,,,null,,,,
1583,<p>You got 8 out of 8 right first time. Press Continue.</p>,0,html-button-response,345,3161956,0.0-18.0-25.0,77121,List1A,black,woman,,,,,,,,
null,"<div style=""font-size:60px;"">+</div>",,html-keyboard-response,346,3163459,0.0-19.0-0.0,77121,List1A,black,woman,,,,null,,,,
null,"<img src=""stim_listA/fight3.gif""</stim_listA>",,html-keyboard-response,347,3165461,0.0-19.0-1.0,77121,List1A,black,woman,,,,null,,,,
null,is fighting,,html-keyboard-response,348,3167462,0.0-19.0-2.0,77121,List1A,black,woman,,,,null,,,,
17436,,,survey-text,349,3184901,0.0-19.0-3.0,77121,List1A,black,woman,,,,,"{""Q0"":""dave is fighting with jane""}","<img src=""stim_listA/fight3.gif""</stim_listA>",is fighting,
null,"<div style=""font-size:60px;"">+</div>",,html-keyboard-response,350,3185415,0.0-19.0-0.1,77121,List1A,black,woman,,,,null,,,,
null,"<img src=""stim_listA/fight2.gif""</stim_listA>",,html-keyboard-response,351,3187417,0.0-19.0-1.1,77121,List1A,black,woman,,,,null,,,,
null,are fighting each other,,html-keyboard-response,352,3189419,0.0-19.0-2.1,77121,List1A,black,woman,,,,null,,,,
13280,,,survey-text,353,3202700,0.0-19.0-3.1,77121,List1A,black,woman,,,,,"{""Q0"":""beth is fighting with fred""}","<img src=""stim_listA/fight2.gif""</stim_listA>",are fighting each other,
null,"<div style=""font-size:60px;"">+</div>",,html-keyboard-response,354,3203201,0.0-19.0-0.2,77121,List1A,black,woman,,,,null,,,,
null,"<img src=""stim_listA/argue4.gif""</stim_listA>",,html-keyboard-response,355,3205203,0.0-19.0-1.2,77121,List1A,black,woman,,,,null,,,,
null,are arguing with each other,,html-keyboard-response,356,3207204,0.0-19.0-2.2,77121,List1A,black,woman,,,,null,,,,
16270,,,survey-text,357,3223475,0.0-19.0-3.2,77121,List1A,black,woman,,,,,"{""Q0"":""jane is arguing with luke""}","<img src=""stim_listA/argue4.gif""</stim_listA>",are arguing with each other,
null,"<div style=""font-size:60px;"">+</div>",,html-keyboard-response,358,3223977,0.0-19.0-0.3,77121,List1A,black,woman,,,,null,,,,
null,"<img src=""stim_listA/kiss4.gif""</stim_listA>",,html-keyboard-response,359,3225979,0.0-19.0-1.3,77121,List1A,black,woman,,,,null,,,,
null,are kissing each other,,html-keyboard-response,360,3227980,0.0-19.0-2.3,77121,List1A,black,woman,,,,null,,,,
16230,,,survey-text,361,3244211,0.0-19.0-3.3,77121,List1A,black,woman,,,,,"{""Q0"":""dave is kissing jane""}","<img src=""stim_listA/kiss4.gif""</stim_listA>",are kissing each other,
null,"<div style=""font-size:60px;"">+</div>",,html-keyboard-response,362,3244713,0.0-19.0-0.4,77121,List1A,black,woman,,,,null,,,,
null,"<img src=""stim_listA/kiss6.gif""</stim_listA>",,html-keyboard-response,363,3246714,0.0-19.0-1.4,77121,List1A,black,woman,,,,null,,,,
null,are kissing each other,,html-keyboard-response,364,3248715,0.0-19.0-2.4,77121,List1A,black,woman,,,,null,,,,
11526,,,survey-text,365,3260243,0.0-19.0-3.4,77121,List1A,black,woman,,,,,"{""Q0"":""dave is kissing mike""}","<img src=""stim_listA/kiss6.gif""</stim_listA>",are kissing each other,
null,"<div style=""font-size:60px;"">+</div>",,html-keyboard-response,366,3260744,0.0-19.0-0.5,77121,List1A,black,woman,,,,null,,,,
null,"<img src=""stim_listA/marry7.gif""</stim_listA>",,html-keyboard-response,367,3262746,0.0-19.0-1.5,77121,List1A,black,woman,,,,null,,,,
null,is marrying,,html-keyboard-response,368,3264747,0.0-19.0-2.5,77121,List1A,black,woman,,,,null,,,,
14094,,,survey-text,369,3278842,0.0-19.0-3.5,77121,List1A,black,woman,,,,,"{""Q0"":""kate is marrying ruth""}","<img src=""stim_listA/marry7.gif""</stim_listA>",is marrying,
null,"<div style=""font-size:60px;"">+</div>",,html-keyboard-response,370,3279344,0.0-19.0-0.6,77121,List1A,black,woman,,,,null,,,,
null,"<img src=""stim_listA/kiss8.gif""</stim_listA>",,html-keyboard-response,371,3281346,0.0-19.0-1.6,77121,List1A,black,woman,,,,null,,,,
null,are kissing each other,,html-keyboard-response,372,3283348,0.0-19.0-2.6,77121,List1A,black,woman,,,,null,,,,
13374,,,survey-text,373,3296722,0.0-19.0-3.6,77121,List1A,black,woman,,,,,"{""Q0"":""jane is kissing kate""}","<img src=""stim_listA/kiss8.gif""</stim_listA>",are kissing each other,
null,"<div style=""font-size:60px;"">+</div>",,html-keyboard-response,374,3297224,0.0-19.0-0.7,77121,List1A,black,woman,,,,null,,,,
null,"<img src=""stim_listA/dance4.gif""</stim_listA>",,html-keyboard-response,375,3299225,0.0-19.0-1.7,77121,List1A,black,woman,,,,null,,,,
null,are dancing with each other,,html-keyboard-response,376,3301227,0.0-19.0-2.7,77121,List1A,black,woman,,,,null,,,,
13047,,,survey-text,377,3314274,0.0-19.0-3.7,77121,List1A,black,woman,,,,,"{""Q0"":""ruth is dancing with dave""}","<img src=""stim_listA/dance4.gif""</stim_listA>",are dancing with each other,
null,"<div style=""font-size:60px;"">+</div>",,html-keyboard-response,378,3314776,0.0-19.0-0.8,77121,List1A,black,woman,,,,null,,,,
null,"<img src=""stim_listA/marry1.gif""</stim_listA>",,html-keyboard-response,379,3316779,0.0-19.0-1.8,77121,List1A,black,woman,,,,null,,,,
null,is marrying,,html-keyboard-response,380,3318779,0.0-19.0-2.8,77121,List1A,black,woman,,,,null,,,,
16158,,,survey-text,381,3334938,0.0-19.0-3.8,77121,List1A,black,woman,,,,,"{""Q0"":""beth is marrying mike""}","<img src=""stim_listA/marry1.gif""</stim_listA>",is marrying,
null,"<div style=""font-size:60px;"">+</div>",,html-keyboard-response,382,3335439,0.0-19.0-0.9,77121,List1A,black,woman,,,,null,,,,
null,"<img src=""stim_listA/fight8.gif""</stim_listA>",,html-keyboard-response,383,3337441,0.0-19.0-1.9,77121,List1A,black,woman,,,,null,,,,
null,are fighting each other,,html-keyboard-response,384,3339443,0.0-19.0-2.9,77121,List1A,black,woman,,,,null,,,,
11902,,,survey-text,385,3351346,0.0-19.0-3.9,77121,List1A,black,woman,,,,,"{""Q0"":""ruth is fighting beth""}","<img src=""stim_listA/fight8.gif""</stim_listA>",are fighting each other,
null,"<div style=""font-size:60px;"">+</div>",,html-keyboard-response,386,3351847,0.0-19.0-0.10,77121,List1A,black,woman,,,,null,,,,
null,"<img src=""stim_listA/kiss2.gif""</stim_listA>",,html-keyboard-response,387,3353851,0.0-19.0-1.10,77121,List1A,black,woman,,,,null,,,,
null,are kissing each other,,html-keyboard-response,388,3355852,0.0-19.0-2.10,77121,List1A,black,woman,,,,null,,,,
9469,,,survey-text,389,3365323,0.0-19.0-3.10,77121,List1A,black,woman,,,,,"{""Q0"":""kate is kissing mike""}","<img src=""stim_listA/kiss2.gif""</stim_listA>",are kissing each other,
null,"<div style=""font-size:60px;"">+</div>",,html-keyboard-response,390,3365825,0.0-19.0-0.11,77121,List1A,black,woman,,,,null,,,,
null,"<img src=""stim_listA/argue7.gif""</stim_listA>",,html-keyboard-response,391,3367828,0.0-19.0-1.11,77121,List1A,black,woman,,,,null,,,,
null,is arguing with,,html-keyboard-response,392,3369829,0.0-19.0-2.11,77121,List1A,black,woman,,,,null,,,,
12500,,,survey-text,393,3382330,0.0-19.0-3.11,77121,List1A,black,woman,,,,,"{""Q0"":""kate is arguing with ruth""}","<img src=""stim_listA/argue7.gif""</stim_listA>",is arguing with,
null,"<div style=""font-size:60px;"">+</div>",,html-keyboard-response,394,3382833,0.0-19.0-0.12,77121,List1A,black,woman,,,,null,,,,
null,"<img src=""stim_listA/kiss5.gif""</stim_listA>",,html-keyboard-response,395,3384835,0.0-19.0-1.12,77121,List1A,black,woman,,,,null,,,,
null,is kissing,,html-keyboard-response,396,3386837,0.0-19.0-2.12,77121,List1A,black,woman,,,,null,,,,
12421,,,survey-text,397,3399258,0.0-19.0-3.12,77121,List1A,black,woman,,,,,"{""Q0"":""beth is kissing mike""}","<img src=""stim_listA/kiss5.gif""</stim_listA>",is kissing,
null,"<div style=""font-size:60px;"">+</div>",,html-keyboard-response,398,3399760,0.0-19.0-0.13,77121,List1A,black,woman,,,,null,,,,
null,"<img src=""stim_listA/hug5.gif""</stim_listA>",,html-keyboard-response,399,3401761,0.0-19.0-1.13,77121,List1A,black,woman,,,,null,,,,
null,is hugging,,html-keyboard-response,400,3403763,0.0-19.0-2.13,77121,List1A,black,woman,,,,null,,,,
12943,,,survey-text,401,3416706,0.0-19.0-3.13,77121,List1A,black,woman,,,,,"{""Q0"":""fred is hugging luke""}","<img src=""stim_listA/hug5.gif""</stim_listA>",is hugging,
null,"<div style=""font-size:60px;"">+</div>",,html-keyboard-response,402,3417208,0.0-19.0-0.14,77121,List1A,black,woman,,,,null,,,,
null,"<img src=""stim_listA/touch5.gif""</stim_listA>",,html-keyboard-response,403,3419209,0.0-19.0-1.14,77121,List1A,black,woman,,,,null,,,,
null,is touching,,html-keyboard-response,404,3421210,0.0-19.0-2.14,77121,List1A,black,woman,,,,null,,,,
10414,,,survey-text,405,3431626,0.0-19.0-3.14,77121,List1A,black,woman,,,,,"{""Q0"":""dave is touching mike""}","<img src=""stim_listA/touch5.gif""</stim_listA>",is touching,
null,"<div style=""font-size:60px;"">+</div>",,html-keyboard-response,406,3432128,0.0-19.0-0.15,77121,List1A,black,woman,,,,null,,,,
null,"<img src=""stim_listA/marry2.gif""</stim_listA>",,html-keyboard-response,407,3434129,0.0-19.0-1.15,77121,List1A,black,woman,,,,null,,,,
null,are marrying each other,,html-keyboard-response,408,3436131,0.0-19.0-2.15,77121,List1A,black,woman,,,,null,,,,
8877,,,survey-text,409,3445010,0.0-19.0-3.15,77121,List1A,black,woman,,,,,"{""Q0"":""kate is marrying fred""}","<img src=""stim_listA/marry2.gif""</stim_listA>",are marrying each other,
null,"<div style=""font-size:60px;"">+</div>",,html-keyboard-response,410,3445512,0.0-19.0-0.16,77121,List1A,black,woman,,,,null,,,,
null,"<img src=""stim_listA/hug2.gif""</stim_listA>",,html-keyboard-response,411,3447514,0.0-19.0-1.16,77121,List1A,black,woman,,,,null,,,,
null,are hugging each other,,html-keyboard-response,412,3449515,0.0-19.0-2.16,77121,List1A,black,woman,,,,null,,,,
7845,,,survey-text,413,3457362,0.0-19.0-3.16,77121,List1A,black,woman,,,,,"{""Q0"":""kate is hugging mike""}","<img src=""stim_listA/hug2.gif""</stim_listA>",are hugging each other,
null,"<div style=""font-size:60px;"">+</div>",,html-keyboard-response,414,3457863,0.0-19.0-0.17,77121,List1A,black,woman,,,,null,,,,
null,"<img src=""stim_listA/touch8.gif""</stim_listA>",,html-keyboard-response,415,3459864,0.0-19.0-1.17,77121,List1A,black,woman,,,,null,,,,
null,are touching each other,,html-keyboard-response,416,3461867,0.0-19.0-2.17,77121,List1A,black,woman,,,,null,,,,
12590,,,survey-text,417,3474458,0.0-19.0-3.17,77121,List1A,black,woman,,,,,"{""Q0"":""ruth is touching beth""}","<img src=""stim_listA/touch8.gif""</stim_listA>",are touching each other,
null,"<div style=""font-size:60px;"">+</div>",,html-keyboard-response,418,3474959,0.0-19.0-0.18,77121,List1A,black,woman,,,,null,,,,
null,"<img src=""stim_listA/talk3.gif""</stim_listA>",,html-keyboard-response,419,3476961,0.0-19.0-1.18,77121,List1A,black,woman,,,,null,,,,
null,is talking to,,html-keyboard-response,420,3478962,0.0-19.0-2.18,77121,List1A,black,woman,,,,null,,,,
11031,,,survey-text,421,3489993,0.0-19.0-3.18,77121,List1A,black,woman,,,,,"{""Q0"":""jane is talking to luke""}","<img src=""stim_listA/talk3.gif""</stim_listA>",is talking to,
null,"<div style=""font-size:60px;"">+</div>",,html-keyboard-response,422,3490495,0.0-19.0-0.19,77121,List1A,black,woman,,,,null,,,,
null,"<img src=""stim_listA/shout3.gif""</stim_listA>",,html-keyboard-response,423,3492497,0.0-19.0-1.19,77121,List1A,black,woman,,,,null,,,,
null,is shouting at,,html-keyboard-response,424,3494498,0.0-19.0-2.19,77121,List1A,black,woman,,,,null,,,,
12039,,,survey-text,425,3506537,0.0-19.0-3.19,77121,List1A,black,woman,,,,,"{""Q0"":""luke is shouting at ruth""}","<img src=""stim_listA/shout3.gif""</stim_listA>",is shouting at,
1455,<p>Thank you for completing that task.</p><p>The final part of this session is a short questionnaire.</p><p>Press Continue.</p>,0,html-button-response,426,3507993,0.0-20.0,77121,List1A,black,woman,,,,,,,,
29517,,,survey-text,427,3538513,0.0-21.0,77121,List1A,black,woman,,,,,"{""Q0"":""39"",""Q1"":""English"",""Q2"":""English"",""Q3"":""UK"",""Q4"":""Black"",""Q5"":""Female""}",,,demographics
32573,,,survey-likert,428,3571094,0.0-22.0,77121,List1A,black,woman,,,,,"{""Q0"":6,""Q1"":6,""Q2"":6,""Q3"":6,""Q4"":6,""Q5"":6,""Q6"":6,""Q7"":1,""Q8"":6,""Q9"":6,""Q10"":6,""Q11"":4,""Q12"":6,""Q13"":5}",,,likert_race
33469,,,survey-likert,429,3604573,0.0-23.0,77121,List1A,black,woman,,,,,"{""Q0"":5,""Q1"":5,""Q2"":5,""Q3"":5,""Q4"":5,""Q5"":5,""Q6"":5,""Q7"":5,""Q8"":5,""Q9"":5,""Q10"":6,""Q11"":6,""Q12"":6,""Q13"":6}",,,likert_gender
3134,,,survey-text,430,3607713,0.0-24.0,77121,List1A,black,woman,,,,,"{""Q0"":""ccc""}",,,worker_id
3298,,,external-html,431,3611385,0.0-25.0,77121,List1A,black,woman,debrief.html,,,,,,,
