rt,stimulus,button_pressed,trial_type,trial_index,time_elapsed,internal_node_id,subject,list,ppt_race,ppt_gender,url,first_guess,correct,key_press,responses,image_type,phrase_type,test_part
3809,Welcome to the experiment. Press Continue to begin.,0,html-button-response,0,3858,0.0-0.0,77520,List2B,black,woman,,,,,,,,
35502,,,external-html,1,40437,0.0-1.0,77520,List2B,black,woman,consent.html,,,,,,,
6640,"<p>On the next page, you will see portraits of 8 people and their names.</p><p>Your first task is to take a few minutes to memorise the names of these people.</p><p>You will have to recall their names during the rest of the experiment, so it is</p><p>essential that you try to memorise these people and their names as best as you can.</p><br><p><strong>You will then be tested on your memory of these names and portraits.</strong></p><br><p>The experiment will start after you have completed this memory test.</p><br><p>Ready?</p>",0,html-button-response,2,47080,0.0-2.0,77520,List2B,black,woman,,,,,,,,
25192,"<img src='img/portrait_matrix_list2.JPG' style='width:900px;height:500px;''></img><p>If you have memorised all the portraits and names and are ready to start, press Continue.</p><p><strong>Please note: Your memory of these faces will be tested 4 times during this experiment.</strong></p>",0,html-button-response,3,73281,0.0-3.0-0.0,77520,List2B,black,woman,,,,,,,,
7575,"<img src=""portrait/BM1.jpg""style=""width:400px;height:400px;""></img>",4,html-button-response,4,81862,0.0-3.0-1.0,77520,List2B,black,woman,,TRUE,4,,,,,
null,CORRECT,,html-keyboard-response,5,83373,0.0-3.0-2.0-0.0,77520,List2B,black,woman,,,,null,,,,
6627,"<img src=""portrait/BW2.jpg""style=""width:400px;height:400px;""></img>",2,html-button-response,6,90003,0.0-3.0-4.0,77520,List2B,black,woman,,TRUE,2,,,,,
null,CORRECT,,html-keyboard-response,7,91505,0.0-3.0-5.0-0.0,77520,List2B,black,woman,,,,null,,,,
9648,"<img src=""portrait/WW1.jpg""style=""width:400px;height:400px;""></img>",1,html-button-response,8,101156,0.0-3.0-7.0,77520,List2B,black,woman,,TRUE,1,,,,,
null,CORRECT,,html-keyboard-response,9,102662,0.0-3.0-8.0-0.0,77520,List2B,black,woman,,,,null,,,,
12890,"<img src=""portrait/BM2.jpg""style=""width:400px;height:400px;""></img>",5,html-button-response,10,115554,0.0-3.0-10.0,77520,List2B,black,woman,,TRUE,5,,,,,
null,CORRECT,,html-keyboard-response,11,117058,0.0-3.0-11.0-0.0,77520,List2B,black,woman,,,,null,,,,
14369,"<img src=""portrait/BW1.jpg""style=""width:400px;height:400px;""></img>",0,html-button-response,12,131428,0.0-3.0-13.0,77520,List2B,black,woman,,TRUE,0,,,,,
null,CORRECT,,html-keyboard-response,13,132933,0.0-3.0-14.0-0.0,77520,List2B,black,woman,,,,null,,,,
16093,"<img src=""portrait/WM2.jpg""style=""width:400px;height:400px;""></img>",7,html-button-response,14,149030,0.0-3.0-16.0,77520,List2B,black,woman,,TRUE,7,,,,,
null,CORRECT,,html-keyboard-response,15,150541,0.0-3.0-17.0-0.0,77520,List2B,black,woman,,,,null,,,,
3638,"<img src=""portrait/WW2.jpg""style=""width:400px;height:400px;""></img>",3,html-button-response,16,154181,0.0-3.0-19.0,77520,List2B,black,woman,,TRUE,3,,,,,
null,CORRECT,,html-keyboard-response,17,155690,0.0-3.0-20.0-0.0,77520,List2B,black,woman,,,,null,,,,
18475,"<img src=""portrait/WM1.jpg""style=""width:400px;height:400px;""></img>",6,html-button-response,18,174167,0.0-3.0-22.0,77520,List2B,black,woman,,TRUE,6,,,,,
null,CORRECT,,html-keyboard-response,19,175676,0.0-3.0-23.0-0.0,77520,List2B,black,woman,,,,null,,,,
1862,<p>You got 8 out of 8 right first time. Press Continue.</p>,0,html-button-response,20,177541,0.0-3.0-25.0,77520,List2B,black,woman,,,,,,,,
12544,"<p>In this experiment, you will view photographs of the people from the memory game interacting.</p><p>By using the <strong>exact</strong> phrase given <i>after</i> the photograph appears and recalling the correct names of the people in the photographs, form a sentence describing the interaction. You do not need to capitalise names.</p><p>Type your answer in the space provided. Please complete every sentence before moving onto the next trial.</p><p>You will only have a few seconds to memorise each given photograph and phrase before you can respond, so try your best to focus.</p><p>An example is given below. Press 'Continue' when you are ready.</p><img src='img/speaking_example_v2.jpg' style='width:800px;height:460px;''></img>",0,html-button-response,21,191093,0.0-4.0,77520,List2B,black,woman,,,,,,,,
1924,"<p>Before the experiment starts, you will watch two example trials. Press 'Continue'.</p>",0,html-button-response,22,194022,0.0-5.0,77520,List2B,black,woman,,,,,,,,
null,<img src='img/speaking_WW.gif'></img>,,html-keyboard-response,23,197028,0.0-6.0,77520,List2B,black,woman,,,,null,,,,
null,<p>is speaking to</p>,,html-keyboard-response,24,199031,0.0-7.0,77520,List2B,black,woman,,,,null,,,,
2040,<p><b>Answer:</b> jane is speaking to ruth</p>,0,html-button-response,25,201073,0.0-8.0,77520,List2B,black,woman,,,,,,,,
null,<img src='img/pointing_BM.gif'></img>,,html-keyboard-response,26,204078,0.0-9.0,77520,List2B,black,woman,,,,null,,,,
null,<p>are pointing at each other</p>,,html-keyboard-response,27,206079,0.0-10.0,77520,List2B,black,woman,,,,null,,,,
2043,<p><b>Answer:</b> fred and mike are pointing at each other</p>,0,html-button-response,28,208124,0.0-11.0,77520,List2B,black,woman,,,,,,,,
9931,"<p>Ready to start the experiment?</p><br><p><strong>Remember to describe the picture using a full sentence,</strong></p><p><strong>that combines the names of the people with the given phrase.</strong></p><p><strong>If you do not do this correctly you will not be paid.</strong></p><p><strong> You do not need to capitalise names or use punctuation.</strong></p><br><p>Press 'Continue' to begin.</p>",0,html-button-response,29,219060,0.0-12.0,77520,List2B,black,woman,,,,,,,,
null,"<div style=""font-size:60px;"">+</div>",,html-keyboard-response,30,220566,0.0-13.0-0.0,77520,List2B,black,woman,,,,null,,,,
null,"<img src=""stim_listB/hug5.gif""</stim_listB>",,html-keyboard-response,31,222569,0.0-13.0-1.0,77520,List2B,black,woman,,,,null,,,,
null,is hugging,,html-keyboard-response,32,224570,0.0-13.0-2.0,77520,List2B,black,woman,,,,null,,,,
12999,,,survey-text,33,237573,0.0-13.0-3.0,77520,List2B,black,woman,,,,,"{""Q0"":""fred is hugging luke""}","<img src=""stim_listB/hug5.gif""</stim_listB>",is hugging,
null,"<div style=""font-size:60px;"">+</div>",,html-keyboard-response,34,238077,0.0-13.0-0.1,77520,List2B,black,woman,,,,null,,,,
null,"<img src=""stim_listB/shout5.gif""</stim_listB>",,html-keyboard-response,35,240082,0.0-13.0-1.1,77520,List2B,black,woman,,,,null,,,,
null,is shouting at,,html-keyboard-response,36,242085,0.0-13.0-2.1,77520,List2B,black,woman,,,,null,,,,
15790,,,survey-text,37,257877,0.0-13.0-3.1,77520,List2B,black,woman,,,,,"{""Q0"":""fred is shouting at luke""}","<img src=""stim_listB/shout5.gif""</stim_listB>",is shouting at,
null,"<div style=""font-size:60px;"">+</div>",,html-keyboard-response,38,258379,0.0-13.0-0.2,77520,List2B,black,woman,,,,null,,,,
null,"<img src=""stim_listB/meet8.gif""</stim_listB>",,html-keyboard-response,39,260385,0.0-13.0-1.2,77520,List2B,black,woman,,,,null,,,,
null,are meeting each other,,html-keyboard-response,40,262389,0.0-13.0-2.2,77520,List2B,black,woman,,,,null,,,,
21718,,,survey-text,41,284109,0.0-13.0-3.2,77520,List2B,black,woman,,,,,"{""Q0"":""beth and ruth are meeting each other""}","<img src=""stim_listB/meet8.gif""</stim_listB>",are meeting each other,
null,"<div style=""font-size:60px;"">+</div>",,html-keyboard-response,42,284611,0.0-13.0-0.3,77520,List2B,black,woman,,,,null,,,,
null,"<img src=""stim_listB/fight7.gif""</stim_listB>",,html-keyboard-response,43,286614,0.0-13.0-1.3,77520,List2B,black,woman,,,,null,,,,
null,is fighting,,html-keyboard-response,44,288620,0.0-13.0-2.3,77520,List2B,black,woman,,,,null,,,,
17299,,,survey-text,45,305920,0.0-13.0-3.3,77520,List2B,black,woman,,,,,"{""Q0"":""jane is fighting kate""}","<img src=""stim_listB/fight7.gif""</stim_listB>",is fighting,
null,"<div style=""font-size:60px;"">+</div>",,html-keyboard-response,46,306424,0.0-13.0-0.4,77520,List2B,black,woman,,,,null,,,,
null,"<img src=""stim_listB/talk1.gif""</stim_listB>",,html-keyboard-response,47,308431,0.0-13.0-1.4,77520,List2B,black,woman,,,,null,,,,
null,is talking to,,html-keyboard-response,48,310432,0.0-13.0-2.4,77520,List2B,black,woman,,,,null,,,,
11177,,,survey-text,49,321612,0.0-13.0-3.4,77520,List2B,black,woman,,,,,"{""Q0"":""jane is talking to luke""}","<img src=""stim_listB/talk1.gif""</stim_listB>",is talking to,
null,"<div style=""font-size:60px;"">+</div>",,html-keyboard-response,50,322114,0.0-13.0-0.5,77520,List2B,black,woman,,,,null,,,,
null,"<img src=""stim_listB/kiss3.gif""</stim_listB>",,html-keyboard-response,51,324116,0.0-13.0-1.5,77520,List2B,black,woman,,,,null,,,,
null,is kissing,,html-keyboard-response,52,326119,0.0-13.0-2.5,77520,List2B,black,woman,,,,null,,,,
14773,,,survey-text,53,340893,0.0-13.0-3.5,77520,List2B,black,woman,,,,,"{""Q0"":""beth is kissing fred""}","<img src=""stim_listB/kiss3.gif""</stim_listB>",is kissing,
null,"<div style=""font-size:60px;"">+</div>",,html-keyboard-response,54,341395,0.0-13.0-0.6,77520,List2B,black,woman,,,,null,,,,
null,"<img src=""stim_listB/touch1.gif""</stim_listB>",,html-keyboard-response,55,343401,0.0-13.0-1.6,77520,List2B,black,woman,,,,null,,,,
null,is touching,,html-keyboard-response,56,345404,0.0-13.0-2.6,77520,List2B,black,woman,,,,null,,,,
34247,,,survey-text,57,379652,0.0-13.0-3.6,77520,List2B,black,woman,,,,,"{""Q0"":""beth is touching dave""}","<img src=""stim_listB/touch1.gif""</stim_listB>",is touching,
null,"<div style=""font-size:60px;"">+</div>",,html-keyboard-response,58,380154,0.0-13.0-0.7,77520,List2B,black,woman,,,,null,,,,
null,"<img src=""stim_listB/meet6.gif""</stim_listB>",,html-keyboard-response,59,382158,0.0-13.0-1.7,77520,List2B,black,woman,,,,null,,,,
null,are meeting each other,,html-keyboard-response,60,384159,0.0-13.0-2.7,77520,List2B,black,woman,,,,null,,,,
14286,,,survey-text,61,398447,0.0-13.0-3.7,77520,List2B,black,woman,,,,,"{""Q0"":""luke and fred are meeting each other""}","<img src=""stim_listB/meet6.gif""</stim_listB>",are meeting each other,
null,"<div style=""font-size:60px;"">+</div>",,html-keyboard-response,62,398950,0.0-13.0-0.8,77520,List2B,black,woman,,,,null,,,,
null,"<img src=""stim_listB/hug4.gif""</stim_listB>",,html-keyboard-response,63,400952,0.0-13.0-1.8,77520,List2B,black,woman,,,,null,,,,
null,are hugging each other,,html-keyboard-response,64,402953,0.0-13.0-2.8,77520,List2B,black,woman,,,,null,,,,
17217,,,survey-text,65,420171,0.0-13.0-3.8,77520,List2B,black,woman,,,,,"{""Q0"":""katie and mike are hugging each other""}","<img src=""stim_listB/hug4.gif""</stim_listB>",are hugging each other,
null,"<div style=""font-size:60px;"">+</div>",,html-keyboard-response,66,420677,0.0-13.0-0.9,77520,List2B,black,woman,,,,null,,,,
null,"<img src=""stim_listB/hug8.gif""</stim_listB>",,html-keyboard-response,67,422682,0.0-13.0-1.9,77520,List2B,black,woman,,,,null,,,,
null,are hugging each other,,html-keyboard-response,68,424685,0.0-13.0-2.9,77520,List2B,black,woman,,,,null,,,,
25789,,,survey-text,69,450476,0.0-13.0-3.9,77520,List2B,black,woman,,,,,"{""Q0"":""kate and jane are hugging each other""}","<img src=""stim_listB/hug8.gif""</stim_listB>",are hugging each other,
null,"<div style=""font-size:60px;"">+</div>",,html-keyboard-response,70,450979,0.0-13.0-0.10,77520,List2B,black,woman,,,,null,,,,
null,"<img src=""stim_listB/hug2.gif""</stim_listB>",,html-keyboard-response,71,452982,0.0-13.0-1.10,77520,List2B,black,woman,,,,null,,,,
null,are hugging each other,,html-keyboard-response,72,454987,0.0-13.0-2.10,77520,List2B,black,woman,,,,null,,,,
15748,,,survey-text,73,470736,0.0-13.0-3.10,77520,List2B,black,woman,,,,,"{""Q0"":""jane and dave are hugging each other""}","<img src=""stim_listB/hug2.gif""</stim_listB>",are hugging each other,
null,"<div style=""font-size:60px;"">+</div>",,html-keyboard-response,74,471238,0.0-13.0-0.11,77520,List2B,black,woman,,,,null,,,,
null,"<img src=""stim_listB/kiss2.gif""</stim_listB>",,html-keyboard-response,75,473240,0.0-13.0-1.11,77520,List2B,black,woman,,,,null,,,,
null,are kissing each other,,html-keyboard-response,76,475245,0.0-13.0-2.11,77520,List2B,black,woman,,,,null,,,,
24310,,,survey-text,77,499556,0.0-13.0-3.11,77520,List2B,black,woman,,,,,"{""Q0"":""jane and dave are kissing each other""}","<img src=""stim_listB/kiss2.gif""</stim_listB>",are kissing each other,
null,"<div style=""font-size:60px;"">+</div>",,html-keyboard-response,78,500059,0.0-13.0-0.12,77520,List2B,black,woman,,,,null,,,,
null,"<img src=""stim_listB/marry7.gif""</stim_listB>",,html-keyboard-response,79,502064,0.0-13.0-1.12,77520,List2B,black,woman,,,,null,,,,
null,is marrying,,html-keyboard-response,80,504069,0.0-13.0-2.12,77520,List2B,black,woman,,,,null,,,,
17419,,,survey-text,81,521489,0.0-13.0-3.12,77520,List2B,black,woman,,,,,"{""Q0"":""beth is marrying jane""}","<img src=""stim_listB/marry7.gif""</stim_listB>",is marrying,
null,"<div style=""font-size:60px;"">+</div>",,html-keyboard-response,82,521991,0.0-13.0-0.13,77520,List2B,black,woman,,,,null,,,,
null,"<img src=""stim_listB/dance2.gif""</stim_listB>",,html-keyboard-response,83,523993,0.0-13.0-1.13,77520,List2B,black,woman,,,,null,,,,
null,are dancing with each other,,html-keyboard-response,84,525995,0.0-13.0-2.13,77520,List2B,black,woman,,,,null,,,,
13756,,,survey-text,85,539751,0.0-13.0-3.13,77520,List2B,black,woman,,,,,"{""Q0"":""ruth and dave are dancing with each other""}","<img src=""stim_listB/dance2.gif""</stim_listB>",are dancing with each other,
null,"<div style=""font-size:60px;"">+</div>",,html-keyboard-response,86,540253,0.0-13.0-0.14,77520,List2B,black,woman,,,,null,,,,
null,"<img src=""stim_listB/meet7.gif""</stim_listB>",,html-keyboard-response,87,542255,0.0-13.0-1.14,77520,List2B,black,woman,,,,null,,,,
null,is meeting,,html-keyboard-response,88,544259,0.0-13.0-2.14,77520,List2B,black,woman,,,,null,,,,
10690,,,survey-text,89,554950,0.0-13.0-3.14,77520,List2B,black,woman,,,,,"{""Q0"":""jane is meeting kate""}","<img src=""stim_listB/meet7.gif""</stim_listB>",is meeting,
null,"<div style=""font-size:60px;"">+</div>",,html-keyboard-response,90,555452,0.0-13.0-0.15,77520,List2B,black,woman,,,,null,,,,
null,"<img src=""stim_listB/marry3.gif""</stim_listB>",,html-keyboard-response,91,557456,0.0-13.0-1.15,77520,List2B,black,woman,,,,null,,,,
null,is marrying,,html-keyboard-response,92,559458,0.0-13.0-2.15,77520,List2B,black,woman,,,,null,,,,
19206,,,survey-text,93,578666,0.0-13.0-3.15,77520,List2B,black,woman,,,,,"{""Q0"":""mike is marrying beth""}","<img src=""stim_listB/marry3.gif""</stim_listB>",is marrying,
null,"<div style=""font-size:60px;"">+</div>",,html-keyboard-response,94,579169,0.0-13.0-0.16,77520,List2B,black,woman,,,,null,,,,
null,"<img src=""stim_listB/shout6.gif""</stim_listB>",,html-keyboard-response,95,581171,0.0-13.0-1.16,77520,List2B,black,woman,,,,null,,,,
null,are shouting at each other,,html-keyboard-response,96,583177,0.0-13.0-2.16,77520,List2B,black,woman,,,,null,,,,
28070,,,survey-text,97,611247,0.0-13.0-3.16,77520,List2B,black,woman,,,,,"{""Q0"":""dave and fred are shouting at each other""}","<img src=""stim_listB/shout6.gif""</stim_listB>",are shouting at each other,
null,"<div style=""font-size:60px;"">+</div>",,html-keyboard-response,98,611749,0.0-13.0-0.17,77520,List2B,black,woman,,,,null,,,,
null,"<img src=""stim_listB/talk6.gif""</stim_listB>",,html-keyboard-response,99,613753,0.0-13.0-1.17,77520,List2B,black,woman,,,,null,,,,
null,are talking to each other,,html-keyboard-response,100,615756,0.0-13.0-2.17,77520,List2B,black,woman,,,,null,,,,
20902,,,survey-text,101,636661,0.0-13.0-3.17,77520,List2B,black,woman,,,,,"{""Q0"":""dave and mike are talking to each other""}","<img src=""stim_listB/talk6.gif""</stim_listB>",are talking to each other,
null,"<div style=""font-size:60px;"">+</div>",,html-keyboard-response,102,637163,0.0-13.0-0.18,77520,List2B,black,woman,,,,null,,,,
null,"<img src=""stim_listB/meet1.gif""</stim_listB>",,html-keyboard-response,103,639168,0.0-13.0-1.18,77520,List2B,black,woman,,,,null,,,,
null,is meeting,,html-keyboard-response,104,641170,0.0-13.0-2.18,77520,List2B,black,woman,,,,null,,,,
11597,,,survey-text,105,652769,0.0-13.0-3.18,77520,List2B,black,woman,,,,,"{""Q0"":""jane is meeting dave""}","<img src=""stim_listB/meet1.gif""</stim_listB>",is meeting,
null,"<div style=""font-size:60px;"">+</div>",,html-keyboard-response,106,653273,0.0-13.0-0.19,77520,List2B,black,woman,,,,null,,,,
null,"<img src=""stim_listB/shout1.gif""</stim_listB>",,html-keyboard-response,107,655275,0.0-13.0-1.19,77520,List2B,black,woman,,,,null,,,,
null,is shouting at,,html-keyboard-response,108,657276,0.0-13.0-2.19,77520,List2B,black,woman,,,,null,,,,
15566,,,survey-text,109,672843,0.0-13.0-3.19,77520,List2B,black,woman,,,,,"{""Q0"":""ruth is shouting at luke""}","<img src=""stim_listB/shout1.gif""</stim_listB>",is shouting at,
9600,"<img src='img/portrait_matrix_list2.JPG' style='width:900px;height:500px;''></img><p>If you have memorised all the portraits and names and are ready to start, press Continue.</p><p><strong>Please note: Your memory of these faces will be tested 4 times during this experiment.</strong></p>",0,html-button-response,110,682445,0.0-14.0-0.0,77520,List2B,black,woman,,,,,,,,
5094,"<img src=""portrait/BW1.jpg""style=""width:400px;height:400px;""></img>",1,html-button-response,111,688547,0.0-14.0-1.0,77520,List2B,black,woman,,TRUE,0,,,,,
10568,"<img src=""portrait/BW1.jpg""style=""width:400px;height:400px;""></img>",0,html-button-response,112,700122,0.0-14.0-3.0-0.0,77520,List2B,black,woman,,FALSE,0,,,,,
null,CORRECT,,html-keyboard-response,113,701633,0.0-14.0-3.0-1.0-0.0,77520,List2B,black,woman,,,,null,,,,
4059,"<img src=""portrait/BM1.jpg""style=""width:400px;height:400px;""></img>",4,html-button-response,114,705694,0.0-14.0-4.0,77520,List2B,black,woman,,TRUE,4,,,,,
null,CORRECT,,html-keyboard-response,115,707199,0.0-14.0-5.0-0.0,77520,List2B,black,woman,,,,null,,,,
4335,"<img src=""portrait/WW2.jpg""style=""width:400px;height:400px;""></img>",3,html-button-response,116,711537,0.0-14.0-7.0,77520,List2B,black,woman,,TRUE,3,,,,,
null,CORRECT,,html-keyboard-response,117,713043,0.0-14.0-8.0-0.0,77520,List2B,black,woman,,,,null,,,,
4645,"<img src=""portrait/WW1.jpg""style=""width:400px;height:400px;""></img>",1,html-button-response,118,717690,0.0-14.0-10.0,77520,List2B,black,woman,,TRUE,1,,,,,
null,CORRECT,,html-keyboard-response,119,719194,0.0-14.0-11.0-0.0,77520,List2B,black,woman,,,,null,,,,
3314,"<img src=""portrait/BW2.jpg""style=""width:400px;height:400px;""></img>",2,html-button-response,120,722510,0.0-14.0-13.0,77520,List2B,black,woman,,TRUE,2,,,,,
null,CORRECT,,html-keyboard-response,121,724017,0.0-14.0-14.0-0.0,77520,List2B,black,woman,,,,null,,,,
7252,"<img src=""portrait/WM2.jpg""style=""width:400px;height:400px;""></img>",7,html-button-response,122,731272,0.0-14.0-16.0,77520,List2B,black,woman,,TRUE,7,,,,,
null,CORRECT,,html-keyboard-response,123,732774,0.0-14.0-17.0-0.0,77520,List2B,black,woman,,,,null,,,,
6438,"<img src=""portrait/BM2.jpg""style=""width:400px;height:400px;""></img>",5,html-button-response,124,739215,0.0-14.0-19.0,77520,List2B,black,woman,,TRUE,5,,,,,
null,CORRECT,,html-keyboard-response,125,740725,0.0-14.0-20.0-0.0,77520,List2B,black,woman,,,,null,,,,
4774,"<img src=""portrait/WM1.jpg""style=""width:400px;height:400px;""></img>",6,html-button-response,126,745502,0.0-14.0-22.0,77520,List2B,black,woman,,TRUE,6,,,,,
null,CORRECT,,html-keyboard-response,127,747006,0.0-14.0-23.0-0.0,77520,List2B,black,woman,,,,null,,,,
1794,<p>You got 7 out of 8 right first time. Press Continue.</p>,0,html-button-response,128,748802,0.0-14.0-25.0,77520,List2B,black,woman,,,,,,,,
3340,"As you did not score 100%, the memory game will repeat. Press Continue.",0,html-button-response,129,753144,0.0-14.0-26.0-0.0,77520,List2B,black,woman,,,,,,,,
2440,"<img src='img/portrait_matrix_list2.JPG' style='width:900px;height:500px;''></img><p>If you have memorised all the portraits and names and are ready to start, press Continue.</p><p><strong>Please note: Your memory of these faces will be tested 4 times during this experiment.</strong></p>",0,html-button-response,130,756593,0.0-14.1-0.1,77520,List2B,black,woman,,,,,,,,
4843,"<img src=""portrait/BW1.jpg""style=""width:400px;height:400px;""></img>",0,html-button-response,131,762443,0.0-14.1-1.1,77520,List2B,black,woman,,TRUE,0,,,,,
null,CORRECT,,html-keyboard-response,132,763954,0.0-14.1-2.1-0.1,77520,List2B,black,woman,,,,null,,,,
2832,"<img src=""portrait/BM1.jpg""style=""width:400px;height:400px;""></img>",4,html-button-response,133,766789,0.0-14.1-4.1,77520,List2B,black,woman,,TRUE,4,,,,,
null,CORRECT,,html-keyboard-response,134,768296,0.0-14.1-5.1-0.1,77520,List2B,black,woman,,,,null,,,,
2660,"<img src=""portrait/WW2.jpg""style=""width:400px;height:400px;""></img>",3,html-button-response,135,770958,0.0-14.1-7.1,77520,List2B,black,woman,,TRUE,3,,,,,
null,CORRECT,,html-keyboard-response,136,772461,0.0-14.1-8.1-0.1,77520,List2B,black,woman,,,,null,,,,
3344,"<img src=""portrait/WW1.jpg""style=""width:400px;height:400px;""></img>",1,html-button-response,137,775807,0.0-14.1-10.1,77520,List2B,black,woman,,TRUE,1,,,,,
null,CORRECT,,html-keyboard-response,138,777313,0.0-14.1-11.1-0.1,77520,List2B,black,woman,,,,null,,,,
2468,"<img src=""portrait/BW2.jpg""style=""width:400px;height:400px;""></img>",2,html-button-response,139,779785,0.0-14.1-13.1,77520,List2B,black,woman,,TRUE,2,,,,,
null,CORRECT,,html-keyboard-response,140,781291,0.0-14.1-14.1-0.1,77520,List2B,black,woman,,,,null,,,,
3842,"<img src=""portrait/WM2.jpg""style=""width:400px;height:400px;""></img>",7,html-button-response,141,785135,0.0-14.1-16.1,77520,List2B,black,woman,,TRUE,7,,,,,
null,CORRECT,,html-keyboard-response,142,786642,0.0-14.1-17.1-0.1,77520,List2B,black,woman,,,,null,,,,
3118,"<img src=""portrait/BM2.jpg""style=""width:400px;height:400px;""></img>",5,html-button-response,143,789762,0.0-14.1-19.1,77520,List2B,black,woman,,TRUE,5,,,,,
null,CORRECT,,html-keyboard-response,144,791271,0.0-14.1-20.1-0.1,77520,List2B,black,woman,,,,null,,,,
5916,"<img src=""portrait/WM1.jpg""style=""width:400px;height:400px;""></img>",6,html-button-response,145,797189,0.0-14.1-22.1,77520,List2B,black,woman,,TRUE,6,,,,,
null,CORRECT,,html-keyboard-response,146,798695,0.0-14.1-23.1-0.1,77520,List2B,black,woman,,,,null,,,,
1409,<p>You got 8 out of 8 right first time. Press Continue.</p>,0,html-button-response,147,800106,0.0-14.1-25.1,77520,List2B,black,woman,,,,,,,,
null,"<div style=""font-size:60px;"">+</div>",,html-keyboard-response,148,801614,0.0-15.0-0.0,77520,List2B,black,woman,,,,null,,,,
null,"<img src=""stim_listB/argue4.gif""</stim_listB>",,html-keyboard-response,149,803617,0.0-15.0-1.0,77520,List2B,black,woman,,,,null,,,,
null,are arguing with each other,,html-keyboard-response,150,805618,0.0-15.0-2.0,77520,List2B,black,woman,,,,null,,,,
20435,,,survey-text,151,826054,0.0-15.0-3.0,77520,List2B,black,woman,,,,,"{""Q0"":""kate and fred are arguing with each other""}","<img src=""stim_listB/argue4.gif""</stim_listB>",are arguing with each other,
null,"<div style=""font-size:60px;"">+</div>",,html-keyboard-response,152,826557,0.0-15.0-0.1,77520,List2B,black,woman,,,,null,,,,
null,"<img src=""stim_listB/talk7.gif""</stim_listB>",,html-keyboard-response,153,828561,0.0-15.0-1.1,77520,List2B,black,woman,,,,null,,,,
null,is talking to,,html-keyboard-response,154,830565,0.0-15.0-2.1,77520,List2B,black,woman,,,,null,,,,
10305,,,survey-text,155,840872,0.0-15.0-3.1,77520,List2B,black,woman,,,,,"{""Q0"":""kate is talking to ruth""}","<img src=""stim_listB/talk7.gif""</stim_listB>",is talking to,
null,"<div style=""font-size:60px;"">+</div>",,html-keyboard-response,156,841375,0.0-15.0-0.2,77520,List2B,black,woman,,,,null,,,,
null,"<img src=""stim_listB/argue6.gif""</stim_listB>",,html-keyboard-response,157,843377,0.0-15.0-1.2,77520,List2B,black,woman,,,,null,,,,
null,are arguing with each other,,html-keyboard-response,158,845380,0.0-15.0-2.2,77520,List2B,black,woman,,,,null,,,,
13749,,,survey-text,159,859130,0.0-15.0-3.2,77520,List2B,black,woman,,,,,"{""Q0"":""luke and mike are arguing with each other""}","<img src=""stim_listB/argue6.gif""</stim_listB>",are arguing with each other,
null,"<div style=""font-size:60px;"">+</div>",,html-keyboard-response,160,859632,0.0-15.0-0.3,77520,List2B,black,woman,,,,null,,,,
null,"<img src=""stim_listB/fight5.gif""</stim_listB>",,html-keyboard-response,161,861637,0.0-15.0-1.3,77520,List2B,black,woman,,,,null,,,,
null,is fighting,,html-keyboard-response,162,863638,0.0-15.0-2.3,77520,List2B,black,woman,,,,null,,,,
9448,,,survey-text,163,873088,0.0-15.0-3.3,77520,List2B,black,woman,,,,,"{""Q0"":""dave is fighting mike""}","<img src=""stim_listB/fight5.gif""</stim_listB>",is fighting,
null,"<div style=""font-size:60px;"">+</div>",,html-keyboard-response,164,873590,0.0-15.0-0.4,77520,List2B,black,woman,,,,null,,,,
null,"<img src=""stim_listB/argue2.gif""</stim_listB>",,html-keyboard-response,165,875596,0.0-15.0-1.4,77520,List2B,black,woman,,,,null,,,,
null,are arguing with each other,,html-keyboard-response,166,877597,0.0-15.0-2.4,77520,List2B,black,woman,,,,null,,,,
15849,,,survey-text,167,893447,0.0-15.0-3.4,77520,List2B,black,woman,,,,,"{""Q0"":""jane and luke are arguing with each other""}","<img src=""stim_listB/argue2.gif""</stim_listB>",are arguing with each other,
null,"<div style=""font-size:60px;"">+</div>",,html-keyboard-response,168,893951,0.0-15.0-0.5,77520,List2B,black,woman,,,,null,,,,
null,"<img src=""stim_listB/hug7.gif""</stim_listB>",,html-keyboard-response,169,895953,0.0-15.0-1.5,77520,List2B,black,woman,,,,null,,,,
null,is hugging,,html-keyboard-response,170,897956,0.0-15.0-2.5,77520,List2B,black,woman,,,,null,,,,
13129,,,survey-text,171,911086,0.0-15.0-3.5,77520,List2B,black,woman,,,,,"{""Q0"":""beth is hugging jane""}","<img src=""stim_listB/hug7.gif""</stim_listB>",is hugging,
null,"<div style=""font-size:60px;"">+</div>",,html-keyboard-response,172,911591,0.0-15.0-0.6,77520,List2B,black,woman,,,,null,,,,
null,"<img src=""stim_listB/fight6.gif""</stim_listB>",,html-keyboard-response,173,913596,0.0-15.0-1.6,77520,List2B,black,woman,,,,null,,,,
null,are fighting each other,,html-keyboard-response,174,915599,0.0-15.0-2.6,77520,List2B,black,woman,,,,null,,,,
18027,,,survey-text,175,933628,0.0-15.0-3.6,77520,List2B,black,woman,,,,,"{""Q0"":""luke and fred are fighting each other""}","<img src=""stim_listB/fight6.gif""</stim_listB>",are fighting each other,
null,"<div style=""font-size:60px;"">+</div>",,html-keyboard-response,176,934131,0.0-15.0-0.7,77520,List2B,black,woman,,,,null,,,,
null,"<img src=""stim_listB/kiss1.gif""</stim_listB>",,html-keyboard-response,177,936136,0.0-15.0-1.7,77520,List2B,black,woman,,,,null,,,,
null,is kissing,,html-keyboard-response,178,938140,0.0-15.0-2.7,77520,List2B,black,woman,,,,null,,,,
8966,,,survey-text,179,947108,0.0-15.0-3.7,77520,List2B,black,woman,,,,,"{""Q0"":""luke is kissing jane""}","<img src=""stim_listB/kiss1.gif""</stim_listB>",is kissing,
null,"<div style=""font-size:60px;"">+</div>",,html-keyboard-response,180,947612,0.0-15.0-0.8,77520,List2B,black,woman,,,,null,,,,
null,"<img src=""stim_listB/talk8.gif""</stim_listB>",,html-keyboard-response,181,949618,0.0-15.0-1.8,77520,List2B,black,woman,,,,null,,,,
null,are talking to each other,,html-keyboard-response,182,951620,0.0-15.0-2.8,77520,List2B,black,woman,,,,null,,,,
14835,,,survey-text,183,966457,0.0-15.0-3.8,77520,List2B,black,woman,,,,,"{""Q0"":""jane and beth are talking to each other""}","<img src=""stim_listB/talk8.gif""</stim_listB>",are talking to each other,
null,"<div style=""font-size:60px;"">+</div>",,html-keyboard-response,184,966959,0.0-15.0-0.9,77520,List2B,black,woman,,,,null,,,,
null,"<img src=""stim_listB/kiss6.gif""</stim_listB>",,html-keyboard-response,185,968963,0.0-15.0-1.9,77520,List2B,black,woman,,,,null,,,,
null,are kissing each other,,html-keyboard-response,186,970965,0.0-15.0-2.9,77520,List2B,black,woman,,,,null,,,,
24355,,,survey-text,187,995322,0.0-15.0-3.9,77520,List2B,black,woman,,,,,"{""Q0"":""dave and mike are kissing each other""}","<img src=""stim_listB/kiss6.gif""</stim_listB>",are kissing each other,
null,"<div style=""font-size:60px;"">+</div>",,html-keyboard-response,188,995825,0.0-15.0-0.10,77520,List2B,black,woman,,,,null,,,,
null,"<img src=""stim_listB/fight4.gif""</stim_listB>",,html-keyboard-response,189,997828,0.0-15.0-1.10,77520,List2B,black,woman,,,,null,,,,
null,are fighting each other,,html-keyboard-response,190,999830,0.0-15.0-2.10,77520,List2B,black,woman,,,,null,,,,
13515,,,survey-text,191,1013347,0.0-15.0-3.10,77520,List2B,black,woman,,,,,"{""Q0"":""fred and beth are fighting each other""}","<img src=""stim_listB/fight4.gif""</stim_listB>",are fighting each other,
null,"<div style=""font-size:60px;"">+</div>",,html-keyboard-response,192,1013848,0.0-15.0-0.11,77520,List2B,black,woman,,,,null,,,,
null,"<img src=""stim_listB/argue8.gif""</stim_listB>",,html-keyboard-response,193,1015850,0.0-15.0-1.11,77520,List2B,black,woman,,,,null,,,,
null,are arguing with each other,,html-keyboard-response,194,1017852,0.0-15.0-2.11,77520,List2B,black,woman,,,,null,,,,
15313,,,survey-text,195,1033166,0.0-15.0-3.11,77520,List2B,black,woman,,,,,"{""Q0"":""kate and ruth are arguing with each other""}","<img src=""stim_listB/argue8.gif""</stim_listB>",are arguing with each other,
null,"<div style=""font-size:60px;"">+</div>",,html-keyboard-response,196,1033668,0.0-15.0-0.12,77520,List2B,black,woman,,,,null,,,,
null,"<img src=""stim_listB/marry2.gif""</stim_listB>",,html-keyboard-response,197,1035673,0.0-15.0-1.12,77520,List2B,black,woman,,,,null,,,,
null,are marrying each other,,html-keyboard-response,198,1037675,0.0-15.0-2.12,77520,List2B,black,woman,,,,null,,,,
12232,,,survey-text,199,1049909,0.0-15.0-3.12,77520,List2B,black,woman,,,,,"{""Q0"":""jane and luke are marrying each other""}","<img src=""stim_listB/marry2.gif""</stim_listB>",are marrying each other,
null,"<div style=""font-size:60px;"">+</div>",,html-keyboard-response,200,1050411,0.0-15.0-0.13,77520,List2B,black,woman,,,,null,,,,
null,"<img src=""stim_listB/marry6.gif""</stim_listB>",,html-keyboard-response,201,1052417,0.0-15.0-1.13,77520,List2B,black,woman,,,,null,,,,
null,are marrying each other,,html-keyboard-response,202,1054418,0.0-15.0-2.13,77520,List2B,black,woman,,,,null,,,,
22454,,,survey-text,203,1076874,0.0-15.0-3.13,77520,List2B,black,woman,,,,,"{""Q0"":""mike and luke are marrying each other""}","<img src=""stim_listB/marry6.gif""</stim_listB>",are marrying each other,
null,"<div style=""font-size:60px;"">+</div>",,html-keyboard-response,204,1077375,0.0-15.0-0.14,77520,List2B,black,woman,,,,null,,,,
null,"<img src=""stim_listB/touch2.gif""</stim_listB>",,html-keyboard-response,205,1079380,0.0-15.0-1.14,77520,List2B,black,woman,,,,null,,,,
null,are touching each other,,html-keyboard-response,206,1081384,0.0-15.0-2.14,77520,List2B,black,woman,,,,null,,,,
11580,,,survey-text,207,1092966,0.0-15.0-3.14,77520,List2B,black,woman,,,,,"{""Q0"":""ruth and luke are touching each other""}","<img src=""stim_listB/touch2.gif""</stim_listB>",are touching each other,
null,"<div style=""font-size:60px;"">+</div>",,html-keyboard-response,208,1093468,0.0-15.0-0.15,77520,List2B,black,woman,,,,null,,,,
null,"<img src=""stim_listB/talk5.gif""</stim_listB>",,html-keyboard-response,209,1095472,0.0-15.0-1.15,77520,List2B,black,woman,,,,null,,,,
null,is talking to,,html-keyboard-response,210,1097474,0.0-15.0-2.15,77520,List2B,black,woman,,,,null,,,,
8964,,,survey-text,211,1106439,0.0-15.0-3.15,77520,List2B,black,woman,,,,,"{""Q0"":""mike is talking to luke""}","<img src=""stim_listB/talk5.gif""</stim_listB>",is talking to,
null,"<div style=""font-size:60px;"">+</div>",,html-keyboard-response,212,1106940,0.0-15.0-0.16,77520,List2B,black,woman,,,,null,,,,
null,"<img src=""stim_listB/dance6.gif""</stim_listB>",,html-keyboard-response,213,1108947,0.0-15.0-1.16,77520,List2B,black,woman,,,,null,,,,
null,are dancing with each other,,html-keyboard-response,214,1110948,0.0-15.0-2.16,77520,List2B,black,woman,,,,null,,,,
15012,,,survey-text,215,1125961,0.0-15.0-3.16,77520,List2B,black,woman,,,,,"{""Q0"":""dave and fred are dancing with each other""}","<img src=""stim_listB/dance6.gif""</stim_listB>",are dancing with each other,
null,"<div style=""font-size:60px;"">+</div>",,html-keyboard-response,216,1126464,0.0-15.0-0.17,77520,List2B,black,woman,,,,null,,,,
null,"<img src=""stim_listB/argue1.gif""</stim_listB>",,html-keyboard-response,217,1128468,0.0-15.0-1.17,77520,List2B,black,woman,,,,null,,,,
null,is arguing with,,html-keyboard-response,218,1130474,0.0-15.0-2.17,77520,List2B,black,woman,,,,null,,,,
8964,,,survey-text,219,1139439,0.0-15.0-3.17,77520,List2B,black,woman,,,,,"{""Q0"":""Dave is arguing with ruth""}","<img src=""stim_listB/argue1.gif""</stim_listB>",is arguing with,
null,"<div style=""font-size:60px;"">+</div>",,html-keyboard-response,220,1139942,0.0-15.0-0.18,77520,List2B,black,woman,,,,null,,,,
null,"<img src=""stim_listB/hug3.gif""</stim_listB>",,html-keyboard-response,221,1141948,0.0-15.0-1.18,77520,List2B,black,woman,,,,null,,,,
null,is hugging,,html-keyboard-response,222,1143950,0.0-15.0-2.18,77520,List2B,black,woman,,,,null,,,,
12919,,,survey-text,223,1156871,0.0-15.0-3.18,77520,List2B,black,woman,,,,,"{""Q0"":""Fred is hugging Beth""}","<img src=""stim_listB/hug3.gif""</stim_listB>",is hugging,
null,"<div style=""font-size:60px;"">+</div>",,html-keyboard-response,224,1157372,0.0-15.0-0.19,77520,List2B,black,woman,,,,null,,,,
null,"<img src=""stim_listB/marry4.gif""</stim_listB>",,html-keyboard-response,225,1159375,0.0-15.0-1.19,77520,List2B,black,woman,,,,null,,,,
null,are marrying each other,,html-keyboard-response,226,1161378,0.0-15.0-2.19,77520,List2B,black,woman,,,,null,,,,
21708,,,survey-text,227,1183087,0.0-15.0-3.19,77520,List2B,black,woman,,,,,"{""Q0"":""Kate and Fred are marrying each other""}","<img src=""stim_listB/marry4.gif""</stim_listB>",are marrying each other,
10069,"<img src='img/portrait_matrix_list2.JPG' style='width:900px;height:500px;''></img><p>If you have memorised all the portraits and names and are ready to start, press Continue.</p><p><strong>Please note: Your memory of these faces will be tested 4 times during this experiment.</strong></p>",0,html-button-response,228,1193159,0.0-16.0-0.0,77520,List2B,black,woman,,,,,,,,
3749,"<img src=""portrait/BM2.jpg""style=""width:400px;height:400px;""></img>",5,html-button-response,229,1197915,0.0-16.0-1.0,77520,List2B,black,woman,,TRUE,5,,,,,
null,CORRECT,,html-keyboard-response,230,1199421,0.0-16.0-2.0-0.0,77520,List2B,black,woman,,,,null,,,,
3191,"<img src=""portrait/BW1.jpg""style=""width:400px;height:400px;""></img>",0,html-button-response,231,1202616,0.0-16.0-4.0,77520,List2B,black,woman,,TRUE,0,,,,,
null,CORRECT,,html-keyboard-response,232,1204121,0.0-16.0-5.0-0.0,77520,List2B,black,woman,,,,null,,,,
2516,"<img src=""portrait/WW2.jpg""style=""width:400px;height:400px;""></img>",3,html-button-response,233,1206640,0.0-16.0-7.0,77520,List2B,black,woman,,TRUE,3,,,,,
null,CORRECT,,html-keyboard-response,234,1208149,0.0-16.0-8.0-0.0,77520,List2B,black,woman,,,,null,,,,
3801,"<img src=""portrait/BW2.jpg""style=""width:400px;height:400px;""></img>",2,html-button-response,235,1211952,0.0-16.0-10.0,77520,List2B,black,woman,,TRUE,2,,,,,
null,CORRECT,,html-keyboard-response,236,1213462,0.0-16.0-11.0-0.0,77520,List2B,black,woman,,,,null,,,,
3893,"<img src=""portrait/BM1.jpg""style=""width:400px;height:400px;""></img>",4,html-button-response,237,1217357,0.0-16.0-13.0,77520,List2B,black,woman,,TRUE,4,,,,,
null,CORRECT,,html-keyboard-response,238,1218866,0.0-16.0-14.0-0.0,77520,List2B,black,woman,,,,null,,,,
3397,"<img src=""portrait/WM2.jpg""style=""width:400px;height:400px;""></img>",7,html-button-response,239,1222265,0.0-16.0-16.0,77520,List2B,black,woman,,TRUE,7,,,,,
null,CORRECT,,html-keyboard-response,240,1223773,0.0-16.0-17.0-0.0,77520,List2B,black,woman,,,,null,,,,
3822,"<img src=""portrait/WM1.jpg""style=""width:400px;height:400px;""></img>",6,html-button-response,241,1227597,0.0-16.0-19.0,77520,List2B,black,woman,,TRUE,6,,,,,
null,CORRECT,,html-keyboard-response,242,1229105,0.0-16.0-20.0-0.0,77520,List2B,black,woman,,,,null,,,,
4108,"<img src=""portrait/WW1.jpg""style=""width:400px;height:400px;""></img>",1,html-button-response,243,1233215,0.0-16.0-22.0,77520,List2B,black,woman,,TRUE,1,,,,,
null,CORRECT,,html-keyboard-response,244,1234726,0.0-16.0-23.0-0.0,77520,List2B,black,woman,,,,null,,,,
1588,<p>You got 8 out of 8 right first time. Press Continue.</p>,0,html-button-response,245,1236316,0.0-16.0-25.0,77520,List2B,black,woman,,,,,,,,
null,"<div style=""font-size:60px;"">+</div>",,html-keyboard-response,246,1237821,0.0-17.0-0.0,77520,List2B,black,woman,,,,null,,,,
null,"<img src=""stim_listB/argue3.gif""</stim_listB>",,html-keyboard-response,247,1239823,0.0-17.0-1.0,77520,List2B,black,woman,,,,null,,,,
null,is arguing with,,html-keyboard-response,248,1241824,0.0-17.0-2.0,77520,List2B,black,woman,,,,null,,,,
9836,,,survey-text,249,1251662,0.0-17.0-3.0,77520,List2B,black,woman,,,,,"{""Q0"":""mike is arguing with beth""}","<img src=""stim_listB/argue3.gif""</stim_listB>",is arguing with,
null,"<div style=""font-size:60px;"">+</div>",,html-keyboard-response,250,1252164,0.0-17.0-0.1,77520,List2B,black,woman,,,,null,,,,
null,"<img src=""stim_listB/meet2.gif""</stim_listB>",,html-keyboard-response,251,1254171,0.0-17.0-1.1,77520,List2B,black,woman,,,,null,,,,
null,are meeting each other,,html-keyboard-response,252,1256176,0.0-17.0-2.1,77520,List2B,black,woman,,,,null,,,,
16467,,,survey-text,253,1272645,0.0-17.0-3.1,77520,List2B,black,woman,,,,,"{""Q0"":""ruth and luke are meeting each other""}","<img src=""stim_listB/meet2.gif""</stim_listB>",are meeting each other,
null,"<div style=""font-size:60px;"">+</div>",,html-keyboard-response,254,1273147,0.0-17.0-0.2,77520,List2B,black,woman,,,,null,,,,
null,"<img src=""stim_listB/dance3.gif""</stim_listB>",,html-keyboard-response,255,1275153,0.0-17.0-1.2,77520,List2B,black,woman,,,,null,,,,
null,is dancing with,,html-keyboard-response,256,1277154,0.0-17.0-2.2,77520,List2B,black,woman,,,,null,,,,
7735,,,survey-text,257,1284891,0.0-17.0-3.2,77520,List2B,black,woman,,,,,"{""Q0"":""kate is dancing with fred""}","<img src=""stim_listB/dance3.gif""</stim_listB>",is dancing with,
null,"<div style=""font-size:60px;"">+</div>",,html-keyboard-response,258,1285393,0.0-17.0-0.3,77520,List2B,black,woman,,,,null,,,,
null,"<img src=""stim_listB/marry5.gif""</stim_listB>",,html-keyboard-response,259,1287399,0.0-17.0-1.3,77520,List2B,black,woman,,,,null,,,,
null,is marrying,,html-keyboard-response,260,1289402,0.0-17.0-2.3,77520,List2B,black,woman,,,,null,,,,
7726,,,survey-text,261,1297130,0.0-17.0-3.3,77520,List2B,black,woman,,,,,"{""Q0"":""fred is marrying dave""}","<img src=""stim_listB/marry5.gif""</stim_listB>",is marrying,
null,"<div style=""font-size:60px;"">+</div>",,html-keyboard-response,262,1297632,0.0-17.0-0.4,77520,List2B,black,woman,,,,null,,,,
null,"<img src=""stim_listB/meet5.gif""</stim_listB>",,html-keyboard-response,263,1299635,0.0-17.0-1.4,77520,List2B,black,woman,,,,null,,,,
null,is meeting,,html-keyboard-response,264,1301641,0.0-17.0-2.4,77520,List2B,black,woman,,,,null,,,,
6231,,,survey-text,265,1307873,0.0-17.0-3.4,77520,List2B,black,woman,,,,,"{""Q0"":""dave is meeting mike""}","<img src=""stim_listB/meet5.gif""</stim_listB>",is meeting,
null,"<div style=""font-size:60px;"">+</div>",,html-keyboard-response,266,1308377,0.0-17.0-0.5,77520,List2B,black,woman,,,,null,,,,
null,"<img src=""stim_listB/touch3.gif""</stim_listB>",,html-keyboard-response,267,1310385,0.0-17.0-1.5,77520,List2B,black,woman,,,,null,,,,
null,is touching,,html-keyboard-response,268,1312390,0.0-17.0-2.5,77520,List2B,black,woman,,,,null,,,,
6124,,,survey-text,269,1318516,0.0-17.0-3.5,77520,List2B,black,woman,,,,,"{""Q0"":""mike is touching kate""}","<img src=""stim_listB/touch3.gif""</stim_listB>",is touching,
null,"<div style=""font-size:60px;"">+</div>",,html-keyboard-response,270,1319018,0.0-17.0-0.6,77520,List2B,black,woman,,,,null,,,,
null,"<img src=""stim_listB/shout2.gif""</stim_listB>",,html-keyboard-response,271,1321021,0.0-17.0-1.6,77520,List2B,black,woman,,,,null,,,,
null,are shouting at each other,,html-keyboard-response,272,1323022,0.0-17.0-2.6,77520,List2B,black,woman,,,,null,,,,
11624,,,survey-text,273,1334649,0.0-17.0-3.6,77520,List2B,black,woman,,,,,"{""Q0"":""dave and jane are shouting at each other""}","<img src=""stim_listB/shout2.gif""</stim_listB>",are shouting at each other,
null,"<div style=""font-size:60px;"">+</div>",,html-keyboard-response,274,1335152,0.0-17.0-0.7,77520,List2B,black,woman,,,,null,,,,
null,"<img src=""stim_listB/fight8.gif""</stim_listB>",,html-keyboard-response,275,1337156,0.0-17.0-1.7,77520,List2B,black,woman,,,,null,,,,
null,are fighting each other,,html-keyboard-response,276,1339158,0.0-17.0-2.7,77520,List2B,black,woman,,,,null,,,,
12621,,,survey-text,277,1351781,0.0-17.0-3.7,77520,List2B,black,woman,,,,,"{""Q0"":""beth and jane are fighting each other""}","<img src=""stim_listB/fight8.gif""</stim_listB>",are fighting each other,
null,"<div style=""font-size:60px;"">+</div>",,html-keyboard-response,278,1352283,0.0-17.0-0.8,77520,List2B,black,woman,,,,null,,,,
null,"<img src=""stim_listB/marry8.gif""</stim_listB>",,html-keyboard-response,279,1354288,0.0-17.0-1.8,77520,List2B,black,woman,,,,null,,,,
null,are marrying each other,,html-keyboard-response,280,1356289,0.0-17.0-2.8,77520,List2B,black,woman,,,,null,,,,
16209,,,survey-text,281,1372499,0.0-17.0-3.8,77520,List2B,black,woman,,,,,"{""Q0"":""jane and kate are marrying each other""}","<img src=""stim_listB/marry8.gif""</stim_listB>",are marrying each other,
null,"<div style=""font-size:60px;"">+</div>",,html-keyboard-response,282,1373001,0.0-17.0-0.9,77520,List2B,black,woman,,,,null,,,,
null,"<img src=""stim_listB/kiss7.gif""</stim_listB>",,html-keyboard-response,283,1375004,0.0-17.0-1.9,77520,List2B,black,woman,,,,null,,,,
null,is kissing,,html-keyboard-response,284,1377008,0.0-17.0-2.9,77520,List2B,black,woman,,,,null,,,,
8270,,,survey-text,285,1385280,0.0-17.0-3.9,77520,List2B,black,woman,,,,,"{""Q0"":""ruth is kissing beth""}","<img src=""stim_listB/kiss7.gif""</stim_listB>",is kissing,
null,"<div style=""font-size:60px;"">+</div>",,html-keyboard-response,286,1385782,0.0-17.0-0.10,77520,List2B,black,woman,,,,null,,,,
null,"<img src=""stim_listB/marry1.gif""</stim_listB>",,html-keyboard-response,287,1387785,0.0-17.0-1.10,77520,List2B,black,woman,,,,null,,,,
null,is marrying,,html-keyboard-response,288,1389789,0.0-17.0-2.10,77520,List2B,black,woman,,,,null,,,,
9933,,,survey-text,289,1399723,0.0-17.0-3.10,77520,List2B,black,woman,,,,,"{""Q0"":""dave is marrying ruth""}","<img src=""stim_listB/marry1.gif""</stim_listB>",is marrying,
null,"<div style=""font-size:60px;"">+</div>",,html-keyboard-response,290,1400226,0.0-17.0-0.11,77520,List2B,black,woman,,,,null,,,,
null,"<img src=""stim_listB/fight2.gif""</stim_listB>",,html-keyboard-response,291,1402228,0.0-17.0-1.11,77520,List2B,black,woman,,,,null,,,,
null,are fighting each other,,html-keyboard-response,292,1404229,0.0-17.0-2.11,77520,List2B,black,woman,,,,null,,,,
161,,,survey-text,293,1404392,0.0-17.0-3.11,77520,List2B,black,woman,,,,,"{""Q0"":""""}","<img src=""stim_listB/fight2.gif""</stim_listB>",are fighting each other,
null,"<div style=""font-size:60px;"">+</div>",,html-keyboard-response,294,1404894,0.0-17.0-0.12,77520,List2B,black,woman,,,,null,,,,
null,"<img src=""stim_listB/touch4.gif""</stim_listB>",,html-keyboard-response,295,1406899,0.0-17.0-1.12,77520,List2B,black,woman,,,,null,,,,
null,are touching each other,,html-keyboard-response,296,1408904,0.0-17.0-2.12,77520,List2B,black,woman,,,,null,,,,
14351,,,survey-text,297,1423257,0.0-17.0-3.12,77520,List2B,black,woman,,,,,"{""Q0"":""beth and fred are touching each other""}","<img src=""stim_listB/touch4.gif""</stim_listB>",are touching each other,
null,"<div style=""font-size:60px;"">+</div>",,html-keyboard-response,298,1423759,0.0-17.0-0.13,77520,List2B,black,woman,,,,null,,,,
null,"<img src=""stim_listB/dance1.gif""</stim_listB>",,html-keyboard-response,299,1425762,0.0-17.0-1.13,77520,List2B,black,woman,,,,null,,,,
null,is dancing with,,html-keyboard-response,300,1427766,0.0-17.0-2.13,77520,List2B,black,woman,,,,null,,,,
11342,,,survey-text,301,1439110,0.0-17.0-3.13,77520,List2B,black,woman,,,,,"{""Q0"":""luke is dancing with ruth""}","<img src=""stim_listB/dance1.gif""</stim_listB>",is dancing with,
null,"<div style=""font-size:60px;"">+</div>",,html-keyboard-response,302,1439612,0.0-17.0-0.14,77520,List2B,black,woman,,,,null,,,,
null,"<img src=""stim_listB/touch5.gif""</stim_listB>",,html-keyboard-response,303,1441614,0.0-17.0-1.14,77520,List2B,black,woman,,,,null,,,,
null,is touching,,html-keyboard-response,304,1443615,0.0-17.0-2.14,77520,List2B,black,woman,,,,null,,,,
9748,,,survey-text,305,1453365,0.0-17.0-3.14,77520,List2B,black,woman,,,,,"{""Q0"":""dave is touching mike""}","<img src=""stim_listB/touch5.gif""</stim_listB>",is touching,
null,"<div style=""font-size:60px;"">+</div>",,html-keyboard-response,306,1453868,0.0-17.0-0.15,77520,List2B,black,woman,,,,null,,,,
null,"<img src=""stim_listB/talk2.gif""</stim_listB>",,html-keyboard-response,307,1455874,0.0-17.0-1.15,77520,List2B,black,woman,,,,null,,,,
null,are talking to each other,,html-keyboard-response,308,1457877,0.0-17.0-2.15,77520,List2B,black,woman,,,,null,,,,
14073,,,survey-text,309,1471952,0.0-17.0-3.15,77520,List2B,black,woman,,,,,"{""Q0"":""dave and ruth are talking to each other""}","<img src=""stim_listB/talk2.gif""</stim_listB>",are talking to each other,
null,"<div style=""font-size:60px;"">+</div>",,html-keyboard-response,310,1472454,0.0-17.0-0.16,77520,List2B,black,woman,,,,null,,,,
null,"<img src=""stim_listB/kiss4.gif""</stim_listB>",,html-keyboard-response,311,1474459,0.0-17.0-1.16,77520,List2B,black,woman,,,,null,,,,
null,are kissing each other,,html-keyboard-response,312,1476464,0.0-17.0-2.16,77520,List2B,black,woman,,,,null,,,,
16105,,,survey-text,313,1492571,0.0-17.0-3.16,77520,List2B,black,woman,,,,,"{""Q0"":""kate and mike are kissing each other""}","<img src=""stim_listB/kiss4.gif""</stim_listB>",are kissing each other,
null,"<div style=""font-size:60px;"">+</div>",,html-keyboard-response,314,1493075,0.0-17.0-0.17,77520,List2B,black,woman,,,,null,,,,
null,"<img src=""stim_listB/touch7.gif""</stim_listB>",,html-keyboard-response,315,1495079,0.0-17.0-1.17,77520,List2B,black,woman,,,,null,,,,
null,is touching,,html-keyboard-response,316,1497082,0.0-17.0-2.17,77520,List2B,black,woman,,,,null,,,,
9047,,,survey-text,317,1506130,0.0-17.0-3.17,77520,List2B,black,woman,,,,,"{""Q0"":""kate is touching jane""}","<img src=""stim_listB/touch7.gif""</stim_listB>",is touching,
null,"<div style=""font-size:60px;"">+</div>",,html-keyboard-response,318,1506632,0.0-17.0-0.18,77520,List2B,black,woman,,,,null,,,,
null,"<img src=""stim_listB/dance8.gif""</stim_listB>",,html-keyboard-response,319,1508637,0.0-17.0-1.18,77520,List2B,black,woman,,,,null,,,,
null,are dancing with each other,,html-keyboard-response,320,1510639,0.0-17.0-2.18,77520,List2B,black,woman,,,,null,,,,
10926,,,survey-text,321,1521566,0.0-17.0-3.18,77520,List2B,black,woman,,,,,"{""Q0"":""jane and beth are dancing with each other""}","<img src=""stim_listB/dance8.gif""</stim_listB>",are dancing with each other,
null,"<div style=""font-size:60px;"">+</div>",,html-keyboard-response,322,1522069,0.0-17.0-0.19,77520,List2B,black,woman,,,,null,,,,
null,"<img src=""stim_listB/hug1.gif""</stim_listB>",,html-keyboard-response,323,1524071,0.0-17.0-1.19,77520,List2B,black,woman,,,,null,,,,
null,is hugging,,html-keyboard-response,324,1526076,0.0-17.0-2.19,77520,List2B,black,woman,,,,null,,,,
8601,,,survey-text,325,1534678,0.0-17.0-3.19,77520,List2B,black,woman,,,,,"{""Q0"":""ruth is hugging luke""}","<img src=""stim_listB/hug1.gif""</stim_listB>",is hugging,
3546,"<img src='img/portrait_matrix_list2.JPG' style='width:900px;height:500px;''></img><p>If you have memorised all the portraits and names and are ready to start, press Continue.</p><p><strong>Please note: Your memory of these faces will be tested 4 times during this experiment.</strong></p>",0,html-button-response,326,1538227,0.0-18.0-0.0,77520,List2B,black,woman,,,,,,,,
3404,"<img src=""portrait/WW1.jpg""style=""width:400px;height:400px;""></img>",1,html-button-response,327,1542636,0.0-18.0-1.0,77520,List2B,black,woman,,TRUE,1,,,,,
null,CORRECT,,html-keyboard-response,328,1544143,0.0-18.0-2.0-0.0,77520,List2B,black,woman,,,,null,,,,
4971,"<img src=""portrait/BW1.jpg""style=""width:400px;height:400px;""></img>",0,html-button-response,329,1549116,0.0-18.0-4.0,77520,List2B,black,woman,,TRUE,0,,,,,
null,CORRECT,,html-keyboard-response,330,1550623,0.0-18.0-5.0-0.0,77520,List2B,black,woman,,,,null,,,,
3980,"<img src=""portrait/BM1.jpg""style=""width:400px;height:400px;""></img>",4,html-button-response,331,1554606,0.0-18.0-7.0,77520,List2B,black,woman,,TRUE,4,,,,,
null,CORRECT,,html-keyboard-response,332,1556113,0.0-18.0-8.0-0.0,77520,List2B,black,woman,,,,null,,,,
2574,"<img src=""portrait/WW2.jpg""style=""width:400px;height:400px;""></img>",3,html-button-response,333,1558689,0.0-18.0-10.0,77520,List2B,black,woman,,TRUE,3,,,,,
null,CORRECT,,html-keyboard-response,334,1560193,0.0-18.0-11.0-0.0,77520,List2B,black,woman,,,,null,,,,
3288,"<img src=""portrait/BW2.jpg""style=""width:400px;height:400px;""></img>",2,html-button-response,335,1563483,0.0-18.0-13.0,77520,List2B,black,woman,,TRUE,2,,,,,
null,CORRECT,,html-keyboard-response,336,1564994,0.0-18.0-14.0-0.0,77520,List2B,black,woman,,,,null,,,,
2786,"<img src=""portrait/BM2.jpg""style=""width:400px;height:400px;""></img>",5,html-button-response,337,1567783,0.0-18.0-16.0,77520,List2B,black,woman,,TRUE,5,,,,,
null,CORRECT,,html-keyboard-response,338,1569291,0.0-18.0-17.0-0.0,77520,List2B,black,woman,,,,null,,,,
1704,"<img src=""portrait/WM2.jpg""style=""width:400px;height:400px;""></img>",7,html-button-response,339,1570998,0.0-18.0-19.0,77520,List2B,black,woman,,TRUE,7,,,,,
null,CORRECT,,html-keyboard-response,340,1572508,0.0-18.0-20.0-0.0,77520,List2B,black,woman,,,,null,,,,
1118,"<img src=""portrait/WM1.jpg""style=""width:400px;height:400px;""></img>",6,html-button-response,341,1573629,0.0-18.0-22.0,77520,List2B,black,woman,,TRUE,6,,,,,
null,CORRECT,,html-keyboard-response,342,1575137,0.0-18.0-23.0-0.0,77520,List2B,black,woman,,,,null,,,,
1311,<p>You got 8 out of 8 right first time. Press Continue.</p>,0,html-button-response,343,1576450,0.0-18.0-25.0,77520,List2B,black,woman,,,,,,,,
null,"<div style=""font-size:60px;"">+</div>",,html-keyboard-response,344,1577957,0.0-19.0-0.0,77520,List2B,black,woman,,,,null,,,,
null,"<img src=""stim_listB/shout3.gif""</stim_listB>",,html-keyboard-response,345,1579962,0.0-19.0-1.0,77520,List2B,black,woman,,,,null,,,,
null,is shouting at,,html-keyboard-response,346,1581968,0.0-19.0-2.0,77520,List2B,black,woman,,,,null,,,,
16607,,,survey-text,347,1598576,0.0-19.0-3.0,77520,List2B,black,woman,,,,,"{""Q0"":""beth is shouting at fred""}","<img src=""stim_listB/shout3.gif""</stim_listB>",is shouting at,
null,"<div style=""font-size:60px;"">+</div>",,html-keyboard-response,348,1599079,0.0-19.0-0.1,77520,List2B,black,woman,,,,null,,,,
null,"<img src=""stim_listB/meet4.gif""</stim_listB>",,html-keyboard-response,349,1601081,0.0-19.0-1.1,77520,List2B,black,woman,,,,null,,,,
null,are meeting each other,,html-keyboard-response,350,1603083,0.0-19.0-2.1,77520,List2B,black,woman,,,,null,,,,
10107,,,survey-text,351,1613192,0.0-19.0-3.1,77520,List2B,black,woman,,,,,"{""Q0"":""beth and fred are meeting each other""}","<img src=""stim_listB/meet4.gif""</stim_listB>",are meeting each other,
null,"<div style=""font-size:60px;"">+</div>",,html-keyboard-response,352,1613695,0.0-19.0-0.2,77520,List2B,black,woman,,,,null,,,,
null,"<img src=""stim_listB/dance7.gif""</stim_listB>",,html-keyboard-response,353,1615698,0.0-19.0-1.2,77520,List2B,black,woman,,,,null,,,,
null,is dancing with,,html-keyboard-response,354,1617703,0.0-19.0-2.2,77520,List2B,black,woman,,,,null,,,,
29236,,,survey-text,355,1646940,0.0-19.0-3.2,77520,List2B,black,woman,,,,,"{""Q0"":""kate is dancing with jane""}","<img src=""stim_listB/dance7.gif""</stim_listB>",is dancing with,
null,"<div style=""font-size:60px;"">+</div>",,html-keyboard-response,356,1647443,0.0-19.0-0.3,77520,List2B,black,woman,,,,null,,,,
null,"<img src=""stim_listB/argue7.gif""</stim_listB>",,html-keyboard-response,357,1649450,0.0-19.0-1.3,77520,List2B,black,woman,,,,null,,,,
null,is arguing with,,html-keyboard-response,358,1651454,0.0-19.0-2.3,77520,List2B,black,woman,,,,null,,,,
8724,,,survey-text,359,1660179,0.0-19.0-3.3,77520,List2B,black,woman,,,,,"{""Q0"":""beth is arguing with jane""}","<img src=""stim_listB/argue7.gif""</stim_listB>",is arguing with,
null,"<div style=""font-size:60px;"">+</div>",,html-keyboard-response,360,1660682,0.0-19.0-0.4,77520,List2B,black,woman,,,,null,,,,
null,"<img src=""stim_listB/shout8.gif""</stim_listB>",,html-keyboard-response,361,1662686,0.0-19.0-1.4,77520,List2B,black,woman,,,,null,,,,
null,are shouting at each other,,html-keyboard-response,362,1664691,0.0-19.0-2.4,77520,List2B,black,woman,,,,null,,,,
11891,,,survey-text,363,1676584,0.0-19.0-3.4,77520,List2B,black,woman,,,,,"{""Q0"":""kate and jane are shouting at each other""}","<img src=""stim_listB/shout8.gif""</stim_listB>",are shouting at each other,
null,"<div style=""font-size:60px;"">+</div>",,html-keyboard-response,364,1677086,0.0-19.0-0.5,77520,List2B,black,woman,,,,null,,,,
null,"<img src=""stim_listB/hug6.gif""</stim_listB>",,html-keyboard-response,365,1679091,0.0-19.0-1.5,77520,List2B,black,woman,,,,null,,,,
null,are hugging each other,,html-keyboard-response,366,1681096,0.0-19.0-2.5,77520,List2B,black,woman,,,,null,,,,
11380,,,survey-text,367,1692478,0.0-19.0-3.5,77520,List2B,black,woman,,,,,"{""Q0"":""dave and mike are hugging each other""}","<img src=""stim_listB/hug6.gif""</stim_listB>",are hugging each other,
null,"<div style=""font-size:60px;"">+</div>",,html-keyboard-response,368,1692981,0.0-19.0-0.6,77520,List2B,black,woman,,,,null,,,,
null,"<img src=""stim_listB/talk4.gif""</stim_listB>",,html-keyboard-response,369,1694986,0.0-19.0-1.6,77520,List2B,black,woman,,,,null,,,,
null,are talking to each other,,html-keyboard-response,370,1696987,0.0-19.0-2.6,77520,List2B,black,woman,,,,null,,,,
11590,,,survey-text,371,1708578,0.0-19.0-3.6,77520,List2B,black,woman,,,,,"{""Q0"":""mike and beth are talking to each other""}","<img src=""stim_listB/talk4.gif""</stim_listB>",are talking to each other,
null,"<div style=""font-size:60px;"">+</div>",,html-keyboard-response,372,1709081,0.0-19.0-0.7,77520,List2B,black,woman,,,,null,,,,
null,"<img src=""stim_listB/kiss8.gif""</stim_listB>",,html-keyboard-response,373,1711084,0.0-19.0-1.7,77520,List2B,black,woman,,,,null,,,,
null,are kissing each other,,html-keyboard-response,374,1713085,0.0-19.0-2.7,77520,List2B,black,woman,,,,null,,,,
11283,,,survey-text,375,1724371,0.0-19.0-3.7,77520,List2B,black,woman,,,,,"{""Q0"":""kate and jane are kissing each other""}","<img src=""stim_listB/kiss8.gif""</stim_listB>",are kissing each other,
null,"<div style=""font-size:60px;"">+</div>",,html-keyboard-response,376,1724874,0.0-19.0-0.8,77520,List2B,black,woman,,,,null,,,,
null,"<img src=""stim_listB/touch6.gif""</stim_listB>",,html-keyboard-response,377,1726879,0.0-19.0-1.8,77520,List2B,black,woman,,,,null,,,,
null,are touching each other,,html-keyboard-response,378,1728882,0.0-19.0-2.8,77520,List2B,black,woman,,,,null,,,,
10347,,,survey-text,379,1739231,0.0-19.0-3.8,77520,List2B,black,woman,,,,,"{""Q0"":""luke and fred are touching each other""}","<img src=""stim_listB/touch6.gif""</stim_listB>",are touching each other,
null,"<div style=""font-size:60px;"">+</div>",,html-keyboard-response,380,1739734,0.0-19.0-0.9,77520,List2B,black,woman,,,,null,,,,
null,"<img src=""stim_listB/dance5.gif""</stim_listB>",,html-keyboard-response,381,1741736,0.0-19.0-1.9,77520,List2B,black,woman,,,,null,,,,
null,is dancing with,,html-keyboard-response,382,1743737,0.0-19.0-2.9,77520,List2B,black,woman,,,,null,,,,
6734,,,survey-text,383,1750472,0.0-19.0-3.9,77520,List2B,black,woman,,,,,"{""Q0"":""luke is dancing with mike""}","<img src=""stim_listB/dance5.gif""</stim_listB>",is dancing with,
null,"<div style=""font-size:60px;"">+</div>",,html-keyboard-response,384,1750974,0.0-19.0-0.10,77520,List2B,black,woman,,,,null,,,,
null,"<img src=""stim_listB/kiss5.gif""</stim_listB>",,html-keyboard-response,385,1752979,0.0-19.0-1.10,77520,List2B,black,woman,,,,null,,,,
null,is kissing,,html-keyboard-response,386,1754980,0.0-19.0-2.10,77520,List2B,black,woman,,,,null,,,,
7258,,,survey-text,387,1762240,0.0-19.0-3.10,77520,List2B,black,woman,,,,,"{""Q0"":""luke is kissing fred""}","<img src=""stim_listB/kiss5.gif""</stim_listB>",is kissing,
null,"<div style=""font-size:60px;"">+</div>",,html-keyboard-response,388,1762742,0.0-19.0-0.11,77520,List2B,black,woman,,,,null,,,,
null,"<img src=""stim_listB/fight3.gif""</stim_listB>",,html-keyboard-response,389,1764744,0.0-19.0-1.11,77520,List2B,black,woman,,,,null,,,,
null,is fighting,,html-keyboard-response,390,1766745,0.0-19.0-2.11,77520,List2B,black,woman,,,,null,,,,
5547,,,survey-text,391,1772294,0.0-19.0-3.11,77520,List2B,black,woman,,,,,"{""Q0"":""kate is fighting mike""}","<img src=""stim_listB/fight3.gif""</stim_listB>",is fighting,
null,"<div style=""font-size:60px;"">+</div>",,html-keyboard-response,392,1772797,0.0-19.0-0.12,77520,List2B,black,woman,,,,null,,,,
null,"<img src=""stim_listB/meet3.gif""</stim_listB>",,html-keyboard-response,393,1774800,0.0-19.0-1.12,77520,List2B,black,woman,,,,null,,,,
null,is meeting,,html-keyboard-response,394,1776803,0.0-19.0-2.12,77520,List2B,black,woman,,,,null,,,,
8512,,,survey-text,395,1785317,0.0-19.0-3.12,77520,List2B,black,woman,,,,,"{""Q0"":""kate is meeting mike""}","<img src=""stim_listB/meet3.gif""</stim_listB>",is meeting,
null,"<div style=""font-size:60px;"">+</div>",,html-keyboard-response,396,1785819,0.0-19.0-0.13,77520,List2B,black,woman,,,,null,,,,
null,"<img src=""stim_listB/argue5.gif""</stim_listB>",,html-keyboard-response,397,1787822,0.0-19.0-1.13,77520,List2B,black,woman,,,,null,,,,
null,is arguing with,,html-keyboard-response,398,1789823,0.0-19.0-2.13,77520,List2B,black,woman,,,,null,,,,
9204,,,survey-text,399,1799029,0.0-19.0-3.13,77520,List2B,black,woman,,,,,"{""Q0"":""fred is arguing with dave""}","<img src=""stim_listB/argue5.gif""</stim_listB>",is arguing with,
null,"<div style=""font-size:60px;"">+</div>",,html-keyboard-response,400,1799531,0.0-19.0-0.14,77520,List2B,black,woman,,,,null,,,,
null,"<img src=""stim_listB/dance4.gif""</stim_listB>",,html-keyboard-response,401,1801534,0.0-19.0-1.14,77520,List2B,black,woman,,,,null,,,,
null,are dancing with each other,,html-keyboard-response,402,1803538,0.0-19.0-2.14,77520,List2B,black,woman,,,,null,,,,
11041,,,survey-text,403,1814580,0.0-19.0-3.14,77520,List2B,black,woman,,,,,"{""Q0"":""mike and beth are dancing with each other""}","<img src=""stim_listB/dance4.gif""</stim_listB>",are dancing with each other,
null,"<div style=""font-size:60px;"">+</div>",,html-keyboard-response,404,1815083,0.0-19.0-0.15,77520,List2B,black,woman,,,,null,,,,
null,"<img src=""stim_listB/shout7.gif""</stim_listB>",,html-keyboard-response,405,1817088,0.0-19.0-1.15,77520,List2B,black,woman,,,,null,,,,
null,is shouting at,,html-keyboard-response,406,1819092,0.0-19.0-2.15,77520,List2B,black,woman,,,,null,,,,
12551,,,survey-text,407,1831645,0.0-19.0-3.15,77520,List2B,black,woman,,,,,"{""Q0"":""beth is shouting at ruth""}","<img src=""stim_listB/shout7.gif""</stim_listB>",is shouting at,
null,"<div style=""font-size:60px;"">+</div>",,html-keyboard-response,408,1832147,0.0-19.0-0.16,77520,List2B,black,woman,,,,null,,,,
null,"<img src=""stim_listB/shout4.gif""</stim_listB>",,html-keyboard-response,409,1834153,0.0-19.0-1.16,77520,List2B,black,woman,,,,null,,,,
null,are shouting at each other,,html-keyboard-response,410,1836155,0.0-19.0-2.16,77520,List2B,black,woman,,,,null,,,,
10440,,,survey-text,411,1846596,0.0-19.0-3.16,77520,List2B,black,woman,,,,,"{""Q0"":""kate and mike are shouting at each other""}","<img src=""stim_listB/shout4.gif""</stim_listB>",are shouting at each other,
null,"<div style=""font-size:60px;"">+</div>",,html-keyboard-response,412,1847099,0.0-19.0-0.17,77520,List2B,black,woman,,,,null,,,,
null,"<img src=""stim_listB/fight1.gif""</stim_listB>",,html-keyboard-response,413,1849104,0.0-19.0-1.17,77520,List2B,black,woman,,,,null,,,,
null,is fighting,,html-keyboard-response,414,1851109,0.0-19.0-2.17,77520,List2B,black,woman,,,,null,,,,
5582,,,survey-text,415,1856694,0.0-19.0-3.17,77520,List2B,black,woman,,,,,"{""Q0"":""jane is fighting dave""}","<img src=""stim_listB/fight1.gif""</stim_listB>",is fighting,
null,"<div style=""font-size:60px;"">+</div>",,html-keyboard-response,416,1857196,0.0-19.0-0.18,77520,List2B,black,woman,,,,null,,,,
null,"<img src=""stim_listB/touch8.gif""</stim_listB>",,html-keyboard-response,417,1859202,0.0-19.0-1.18,77520,List2B,black,woman,,,,null,,,,
null,are touching each other,,html-keyboard-response,418,1861204,0.0-19.0-2.18,77520,List2B,black,woman,,,,null,,,,
9019,,,survey-text,419,1870225,0.0-19.0-3.18,77520,List2B,black,woman,,,,,"{""Q0"":""ruth and beth are touching each other""}","<img src=""stim_listB/touch8.gif""</stim_listB>",are touching each other,
null,"<div style=""font-size:60px;"">+</div>",,html-keyboard-response,420,1870728,0.0-19.0-0.19,77520,List2B,black,woman,,,,null,,,,
null,"<img src=""stim_listB/talk3.gif""</stim_listB>",,html-keyboard-response,421,1872732,0.0-19.0-1.19,77520,List2B,black,woman,,,,null,,,,
null,is talking to,,html-keyboard-response,422,1874737,0.0-19.0-2.19,77520,List2B,black,woman,,,,null,,,,
11026,,,survey-text,423,1885765,0.0-19.0-3.19,77520,List2B,black,woman,,,,,"{""Q0"":""kate is talking to fred""}","<img src=""stim_listB/talk3.gif""</stim_listB>",is talking to,
2376,<p>Thank you for completing that task.</p><p>The final part of this session is a short questionnaire.</p><p>Press Continue.</p>,0,html-button-response,424,1888143,0.0-20.0,77520,List2B,black,woman,,,,,,,,
27643,,,survey-text,425,1916792,0.0-21.0,77520,List2B,black,woman,,,,,"{""Q0"":""20"",""Q1"":""English"",""Q2"":""English"",""Q3"":""United Kingdom"",""Q4"":""Black"",""Q5"":""Female""}",,,demographics
38475,,,survey-likert,426,1955275,0.0-22.0,77520,List2B,black,woman,,,,,"{""Q0"":6,""Q1"":6,""Q2"":6,""Q3"":6,""Q4"":6,""Q5"":4,""Q6"":6,""Q7"":4,""Q8"":4,""Q9"":4,""Q10"":5,""Q11"":5,""Q12"":5,""Q13"":5}",,,likert_race
36260,,,survey-likert,427,1991543,0.0-23.0,77520,List2B,black,woman,,,,,"{""Q0"":6,""Q1"":6,""Q2"":6,""Q3"":6,""Q4"":6,""Q5"":6,""Q6"":6,""Q7"":4,""Q8"":4,""Q9"":5,""Q10"":4,""Q11"":4,""Q12"":4,""Q13"":4}",,,likert_gender
9564,,,survey-text,428,2001114,0.0-24.0,77520,List2B,black,woman,,,,,"{""Q0"":""ccc""}",,,worker_id
18135,,,external-html,429,2019296,0.0-25.0,77520,List2B,black,woman,debrief.html,,,,,,,
