rt,stimulus,button_pressed,trial_type,trial_index,time_elapsed,internal_node_id,subject,list,ppt_race,ppt_gender,url,first_guess,correct,key_press,responses,image_type,phrase_type,test_part
2175,Welcome to the experiment. Press Continue to begin.,0,html-button-response,0,2178,0.0-0.0,77653,List2B,white,man,,,,,,,,
86081,,,external-html,1,89297,0.0-1.0,77653,List2B,white,man,consent.html,,,,,,,
8551,"<p>On the next page, you will see portraits of 8 people and their names.</p><p>Your first task is to take a few minutes to memorise the names of these people.</p><p>You will have to recall their names during the rest of the experiment, so it is</p><p>essential that you try to memorise these people and their names as best as you can.</p><br><p><strong>You will then be tested on your memory of these names and portraits.</strong></p><br><p>The experiment will start after you have completed this memory test.</p><br><p>Ready?</p>",0,html-button-response,2,97849,0.0-2.0,77653,List2B,white,man,,,,,,,,
300997,"<img src='img/portrait_matrix_list2.JPG' style='width:900px;height:500px;''></img><p>If you have memorised all the portraits and names and are ready to start, press Continue.</p><p><strong>Please note: Your memory of these faces will be tested 4 times during this experiment.</strong></p>",0,html-button-response,3,399847,0.0-3.0-0.0,77653,List2B,white,man,,,,,,,,
5230,"<img src=""portrait/WW2.jpg""style=""width:400px;height:400px;""></img>",3,html-button-response,4,406080,0.0-3.0-1.0,77653,List2B,white,man,,TRUE,3,,,,,
null,CORRECT,,html-keyboard-response,5,407589,0.0-3.0-2.0-0.0,77653,List2B,white,man,,,,null,,,,
2817,"<img src=""portrait/BW2.jpg""style=""width:400px;height:400px;""></img>",2,html-button-response,6,410407,0.0-3.0-4.0,77653,List2B,white,man,,TRUE,2,,,,,
null,CORRECT,,html-keyboard-response,7,411911,0.0-3.0-5.0-0.0,77653,List2B,white,man,,,,null,,,,
1662,"<img src=""portrait/WW1.jpg""style=""width:400px;height:400px;""></img>",1,html-button-response,8,413575,0.0-3.0-7.0,77653,List2B,white,man,,TRUE,1,,,,,
null,CORRECT,,html-keyboard-response,9,415097,0.0-3.0-8.0-0.0,77653,List2B,white,man,,,,null,,,,
1669,"<img src=""portrait/BW1.jpg""style=""width:400px;height:400px;""></img>",0,html-button-response,10,416767,0.0-3.0-10.0,77653,List2B,white,man,,TRUE,0,,,,,
null,CORRECT,,html-keyboard-response,11,418277,0.0-3.0-11.0-0.0,77653,List2B,white,man,,,,null,,,,
1665,"<img src=""portrait/BM1.jpg""style=""width:400px;height:400px;""></img>",4,html-button-response,12,419943,0.0-3.0-13.0,77653,List2B,white,man,,TRUE,4,,,,,
null,CORRECT,,html-keyboard-response,13,421454,0.0-3.0-14.0-0.0,77653,List2B,white,man,,,,null,,,,
1568,"<img src=""portrait/WM1.jpg""style=""width:400px;height:400px;""></img>",6,html-button-response,14,423023,0.0-3.0-16.0,77653,List2B,white,man,,TRUE,6,,,,,
null,CORRECT,,html-keyboard-response,15,424540,0.0-3.0-17.0-0.0,77653,List2B,white,man,,,,null,,,,
1706,"<img src=""portrait/WM2.jpg""style=""width:400px;height:400px;""></img>",7,html-button-response,16,426247,0.0-3.0-19.0,77653,List2B,white,man,,TRUE,7,,,,,
null,CORRECT,,html-keyboard-response,17,427750,0.0-3.0-20.0-0.0,77653,List2B,white,man,,,,null,,,,
1065,"<img src=""portrait/BM2.jpg""style=""width:400px;height:400px;""></img>",5,html-button-response,18,428816,0.0-3.0-22.0,77653,List2B,white,man,,TRUE,5,,,,,
null,CORRECT,,html-keyboard-response,19,430319,0.0-3.0-23.0-0.0,77653,List2B,white,man,,,,null,,,,
918,<p>You got 8 out of 8 right first time. Press Continue.</p>,0,html-button-response,20,431239,0.0-3.0-25.0,77653,List2B,white,man,,,,,,,,
19515,"<p>In this experiment, you will view photographs of the people from the memory game interacting.</p><p>By using the <strong>exact</strong> phrase given <i>after</i> the photograph appears and recalling the correct names of the people in the photographs, form a sentence describing the interaction. You do not need to capitalise names.</p><p>Type your answer in the space provided. Please complete every sentence before moving onto the next trial.</p><p>You will only have a few seconds to memorise each given photograph and phrase before you can respond, so try your best to focus.</p><p>An example is given below. Press 'Continue' when you are ready.</p><img src='img/speaking_example_v2.jpg' style='width:800px;height:460px;''></img>",0,html-button-response,21,451759,0.0-4.0,77653,List2B,white,man,,,,,,,,
1718,"<p>Before the experiment starts, you will watch two example trials. Press 'Continue'.</p>",0,html-button-response,22,454479,0.0-5.0,77653,List2B,white,man,,,,,,,,
null,<img src='img/speaking_WW.gif'></img>,,html-keyboard-response,23,457507,0.0-6.0,77653,List2B,white,man,,,,null,,,,
null,<p>is speaking to</p>,,html-keyboard-response,24,459518,0.0-7.0,77653,List2B,white,man,,,,null,,,,
9190,<p><b>Answer:</b> jane is speaking to ruth</p>,0,html-button-response,25,468709,0.0-8.0,77653,List2B,white,man,,,,,,,,
null,<img src='img/pointing_BM.gif'></img>,,html-keyboard-response,26,471716,0.0-9.0,77653,List2B,white,man,,,,null,,,,
null,<p>are pointing at each other</p>,,html-keyboard-response,27,473717,0.0-10.0,77653,List2B,white,man,,,,null,,,,
3990,<p><b>Answer:</b> fred and mike are pointing at each other</p>,0,html-button-response,28,477709,0.0-11.0,77653,List2B,white,man,,,,,,,,
4870,"<p>Ready to start the experiment?</p><br><p><strong>Remember to describe the picture using a full sentence,</strong></p><p><strong> that combines the names of the people with the given phrase.</strong></p><p><strong> You do not need to capitalise names or use punctuation.</strong></p><br><p>Press 'Continue' to begin.</p>",0,html-button-response,29,483581,0.0-12.0,77653,List2B,white,man,,,,,,,,
null,"<div style=""font-size:60px;"">+</div>",,html-keyboard-response,30,485096,0.0-13.0-0.0,77653,List2B,white,man,,,,null,,,,
null,"<img src=""stim_listB/meet3.gif""</stim_listB>",,html-keyboard-response,31,487100,0.0-13.0-1.0,77653,List2B,white,man,,,,null,,,,
null,is meeting,,html-keyboard-response,32,489101,0.0-13.0-2.0,77653,List2B,white,man,,,,null,,,,
9181,,,survey-text,33,498285,0.0-13.0-3.0,77653,List2B,white,man,,,,,"{""Q0"":""mike is meeting kate""}","<img src=""stim_listB/meet3.gif""</stim_listB>",is meeting,
null,"<div style=""font-size:60px;"">+</div>",,html-keyboard-response,34,498786,0.0-13.0-0.1,77653,List2B,white,man,,,,null,,,,
null,"<img src=""stim_listB/kiss8.gif""</stim_listB>",,html-keyboard-response,35,500788,0.0-13.0-1.1,77653,List2B,white,man,,,,null,,,,
null,are kissing each other,,html-keyboard-response,36,502797,0.0-13.0-2.1,77653,List2B,white,man,,,,null,,,,
11038,,,survey-text,37,513837,0.0-13.0-3.1,77653,List2B,white,man,,,,,"{""Q0"":""kate and jane are kissing each other""}","<img src=""stim_listB/kiss8.gif""</stim_listB>",are kissing each other,
null,"<div style=""font-size:60px;"">+</div>",,html-keyboard-response,38,514350,0.0-13.0-0.2,77653,List2B,white,man,,,,null,,,,
null,"<img src=""stim_listB/touch1.gif""</stim_listB>",,html-keyboard-response,39,516360,0.0-13.0-1.2,77653,List2B,white,man,,,,null,,,,
null,is touching,,html-keyboard-response,40,518375,0.0-13.0-2.2,77653,List2B,white,man,,,,null,,,,
6212,,,survey-text,41,524589,0.0-13.0-3.2,77653,List2B,white,man,,,,,"{""Q0"":""kate is touching dave""}","<img src=""stim_listB/touch1.gif""</stim_listB>",is touching,
null,"<div style=""font-size:60px;"">+</div>",,html-keyboard-response,42,525102,0.0-13.0-0.3,77653,List2B,white,man,,,,null,,,,
null,"<img src=""stim_listB/shout8.gif""</stim_listB>",,html-keyboard-response,43,527117,0.0-13.0-1.3,77653,List2B,white,man,,,,null,,,,
null,are shouting at each other,,html-keyboard-response,44,529122,0.0-13.0-2.3,77653,List2B,white,man,,,,null,,,,
7675,,,survey-text,45,536798,0.0-13.0-3.3,77653,List2B,white,man,,,,,"{""Q0"":""kate and jane are shouting at each other""}","<img src=""stim_listB/shout8.gif""</stim_listB>",are shouting at each other,
null,"<div style=""font-size:60px;"">+</div>",,html-keyboard-response,46,537303,0.0-13.0-0.4,77653,List2B,white,man,,,,null,,,,
null,"<img src=""stim_listB/dance1.gif""</stim_listB>",,html-keyboard-response,47,539320,0.0-13.0-1.4,77653,List2B,white,man,,,,null,,,,
null,is dancing with,,html-keyboard-response,48,541322,0.0-13.0-2.4,77653,List2B,white,man,,,,null,,,,
7275,,,survey-text,49,548598,0.0-13.0-3.4,77653,List2B,white,man,,,,,"{""Q0"":""jane is dancing with luke""}","<img src=""stim_listB/dance1.gif""</stim_listB>",is dancing with,
null,"<div style=""font-size:60px;"">+</div>",,html-keyboard-response,50,549110,0.0-13.0-0.5,77653,List2B,white,man,,,,null,,,,
null,"<img src=""stim_listB/talk1.gif""</stim_listB>",,html-keyboard-response,51,551113,0.0-13.0-1.5,77653,List2B,white,man,,,,null,,,,
null,is talking to,,html-keyboard-response,52,553114,0.0-13.0-2.5,77653,List2B,white,man,,,,null,,,,
5460,,,survey-text,53,558574,0.0-13.0-3.5,77653,List2B,white,man,,,,,"{""Q0"":""jane is talking to luke""}","<img src=""stim_listB/talk1.gif""</stim_listB>",is talking to,
null,"<div style=""font-size:60px;"">+</div>",,html-keyboard-response,54,559076,0.0-13.0-0.6,77653,List2B,white,man,,,,null,,,,
null,"<img src=""stim_listB/marry3.gif""</stim_listB>",,html-keyboard-response,55,561078,0.0-13.0-1.6,77653,List2B,white,man,,,,null,,,,
null,is marrying,,html-keyboard-response,56,563088,0.0-13.0-2.6,77653,List2B,white,man,,,,null,,,,
5749,,,survey-text,57,568838,0.0-13.0-3.6,77653,List2B,white,man,,,,,"{""Q0"":""beth is marrying mike""}","<img src=""stim_listB/marry3.gif""</stim_listB>",is marrying,
null,"<div style=""font-size:60px;"">+</div>",,html-keyboard-response,58,569347,0.0-13.0-0.7,77653,List2B,white,man,,,,null,,,,
null,"<img src=""stim_listB/hug1.gif""</stim_listB>",,html-keyboard-response,59,571354,0.0-13.0-1.7,77653,List2B,white,man,,,,null,,,,
null,is hugging,,html-keyboard-response,60,573355,0.0-13.0-2.7,77653,List2B,white,man,,,,null,,,,
5426,,,survey-text,61,578782,0.0-13.0-3.7,77653,List2B,white,man,,,,,"{""Q0"":""luke is hugging ruth""}","<img src=""stim_listB/hug1.gif""</stim_listB>",is hugging,
null,"<div style=""font-size:60px;"">+</div>",,html-keyboard-response,62,579298,0.0-13.0-0.8,77653,List2B,white,man,,,,null,,,,
null,"<img src=""stim_listB/argue6.gif""</stim_listB>",,html-keyboard-response,63,581311,0.0-13.0-1.8,77653,List2B,white,man,,,,null,,,,
null,are arguing with each other,,html-keyboard-response,64,583327,0.0-13.0-2.8,77653,List2B,white,man,,,,null,,,,
7734,,,survey-text,65,591063,0.0-13.0-3.8,77653,List2B,white,man,,,,,"{""Q0"":""mike and luke are arguing with each other""}","<img src=""stim_listB/argue6.gif""</stim_listB>",are arguing with each other,
null,"<div style=""font-size:60px;"">+</div>",,html-keyboard-response,66,591579,0.0-13.0-0.9,77653,List2B,white,man,,,,null,,,,
null,"<img src=""stim_listB/marry6.gif""</stim_listB>",,html-keyboard-response,67,593587,0.0-13.0-1.9,77653,List2B,white,man,,,,null,,,,
null,are marrying each other,,html-keyboard-response,68,595594,0.0-13.0-2.9,77653,List2B,white,man,,,,null,,,,
7204,,,survey-text,69,602799,0.0-13.0-3.9,77653,List2B,white,man,,,,,"{""Q0"":""mike and luke are marrying each other""}","<img src=""stim_listB/marry6.gif""</stim_listB>",are marrying each other,
null,"<div style=""font-size:60px;"">+</div>",,html-keyboard-response,70,603310,0.0-13.0-0.10,77653,List2B,white,man,,,,null,,,,
null,"<img src=""stim_listB/kiss4.gif""</stim_listB>",,html-keyboard-response,71,605327,0.0-13.0-1.10,77653,List2B,white,man,,,,null,,,,
null,are kissing each other,,html-keyboard-response,72,607343,0.0-13.0-2.10,77653,List2B,white,man,,,,null,,,,
8655,,,survey-text,73,615999,0.0-13.0-3.10,77653,List2B,white,man,,,,,"{""Q0"":""mike and kate are kissing each other""}","<img src=""stim_listB/kiss4.gif""</stim_listB>",are kissing each other,
null,"<div style=""font-size:60px;"">+</div>",,html-keyboard-response,74,616509,0.0-13.0-0.11,77653,List2B,white,man,,,,null,,,,
null,"<img src=""stim_listB/argue7.gif""</stim_listB>",,html-keyboard-response,75,618526,0.0-13.0-1.11,77653,List2B,white,man,,,,null,,,,
null,is arguing with,,html-keyboard-response,76,620527,0.0-13.0-2.11,77653,List2B,white,man,,,,null,,,,
6870,,,survey-text,77,627399,0.0-13.0-3.11,77653,List2B,white,man,,,,,"{""Q0"":""beth is arguing with jane""}","<img src=""stim_listB/argue7.gif""</stim_listB>",is arguing with,
null,"<div style=""font-size:60px;"">+</div>",,html-keyboard-response,78,627900,0.0-13.0-0.12,77653,List2B,white,man,,,,null,,,,
null,"<img src=""stim_listB/touch4.gif""</stim_listB>",,html-keyboard-response,79,629902,0.0-13.0-1.12,77653,List2B,white,man,,,,null,,,,
null,are touching each other,,html-keyboard-response,80,631904,0.0-13.0-2.12,77653,List2B,white,man,,,,null,,,,
6549,,,survey-text,81,638455,0.0-13.0-3.12,77653,List2B,white,man,,,,,"{""Q0"":""beth and mike are touching each other""}","<img src=""stim_listB/touch4.gif""</stim_listB>",are touching each other,
null,"<div style=""font-size:60px;"">+</div>",,html-keyboard-response,82,638956,0.0-13.0-0.13,77653,List2B,white,man,,,,null,,,,
null,"<img src=""stim_listB/meet5.gif""</stim_listB>",,html-keyboard-response,83,640959,0.0-13.0-1.13,77653,List2B,white,man,,,,null,,,,
null,is meeting,,html-keyboard-response,84,642960,0.0-13.0-2.13,77653,List2B,white,man,,,,null,,,,
4487,,,survey-text,85,647447,0.0-13.0-3.13,77653,List2B,white,man,,,,,"{""Q0"":""mike is meeting dave""}","<img src=""stim_listB/meet5.gif""</stim_listB>",is meeting,
null,"<div style=""font-size:60px;"">+</div>",,html-keyboard-response,86,647948,0.0-13.0-0.14,77653,List2B,white,man,,,,null,,,,
null,"<img src=""stim_listB/touch6.gif""</stim_listB>",,html-keyboard-response,87,649949,0.0-13.0-1.14,77653,List2B,white,man,,,,null,,,,
null,are touching each other,,html-keyboard-response,88,651951,0.0-13.0-2.14,77653,List2B,white,man,,,,null,,,,
6247,,,survey-text,89,658198,0.0-13.0-3.14,77653,List2B,white,man,,,,,"{""Q0"":""luke and fred are touching each other""}","<img src=""stim_listB/touch6.gif""</stim_listB>",are touching each other,
null,"<div style=""font-size:60px;"">+</div>",,html-keyboard-response,90,658710,0.0-13.0-0.15,77653,List2B,white,man,,,,null,,,,
null,"<img src=""stim_listB/touch3.gif""</stim_listB>",,html-keyboard-response,91,660714,0.0-13.0-1.15,77653,List2B,white,man,,,,null,,,,
null,is touching,,html-keyboard-response,92,662718,0.0-13.0-2.15,77653,List2B,white,man,,,,null,,,,
4728,,,survey-text,93,667446,0.0-13.0-3.15,77653,List2B,white,man,,,,,"{""Q0"":""mike is touching jane""}","<img src=""stim_listB/touch3.gif""</stim_listB>",is touching,
null,"<div style=""font-size:60px;"">+</div>",,html-keyboard-response,94,667947,0.0-13.0-0.16,77653,List2B,white,man,,,,null,,,,
null,"<img src=""stim_listB/hug8.gif""</stim_listB>",,html-keyboard-response,95,669949,0.0-13.0-1.16,77653,List2B,white,man,,,,null,,,,
null,are hugging each other,,html-keyboard-response,96,671951,0.0-13.0-2.16,77653,List2B,white,man,,,,null,,,,
6063,,,survey-text,97,678014,0.0-13.0-3.16,77653,List2B,white,man,,,,,"{""Q0"":""jane and kate are hugging each other""}","<img src=""stim_listB/hug8.gif""</stim_listB>",are hugging each other,
null,"<div style=""font-size:60px;"">+</div>",,html-keyboard-response,98,678515,0.0-13.0-0.17,77653,List2B,white,man,,,,null,,,,
null,"<img src=""stim_listB/meet7.gif""</stim_listB>",,html-keyboard-response,99,680517,0.0-13.0-1.17,77653,List2B,white,man,,,,null,,,,
null,is meeting,,html-keyboard-response,100,682528,0.0-13.0-2.17,77653,List2B,white,man,,,,null,,,,
5349,,,survey-text,101,687878,0.0-13.0-3.17,77653,List2B,white,man,,,,,"{""Q0"":""jane is meeting kate""}","<img src=""stim_listB/meet7.gif""</stim_listB>",is meeting,
null,"<div style=""font-size:60px;"">+</div>",,html-keyboard-response,102,688379,0.0-13.0-0.18,77653,List2B,white,man,,,,null,,,,
null,"<img src=""stim_listB/hug5.gif""</stim_listB>",,html-keyboard-response,103,690388,0.0-13.0-1.18,77653,List2B,white,man,,,,null,,,,
null,is hugging,,html-keyboard-response,104,692400,0.0-13.0-2.18,77653,List2B,white,man,,,,null,,,,
4677,,,survey-text,105,697078,0.0-13.0-3.18,77653,List2B,white,man,,,,,"{""Q0"":""luke is hugging fred""}","<img src=""stim_listB/hug5.gif""</stim_listB>",is hugging,
null,"<div style=""font-size:60px;"">+</div>",,html-keyboard-response,106,697579,0.0-13.0-0.19,77653,List2B,white,man,,,,null,,,,
null,"<img src=""stim_listB/hug3.gif""</stim_listB>",,html-keyboard-response,107,699587,0.0-13.0-1.19,77653,List2B,white,man,,,,null,,,,
null,is hugging,,html-keyboard-response,108,701588,0.0-13.0-2.19,77653,List2B,white,man,,,,null,,,,
4537,,,survey-text,109,706126,0.0-13.0-3.19,77653,List2B,white,man,,,,,"{""Q0"":""fred is hugging beth""}","<img src=""stim_listB/hug3.gif""</stim_listB>",is hugging,
9151,"<img src='img/portrait_matrix_list2.JPG' style='width:900px;height:500px;''></img><p>If you have memorised all the portraits and names and are ready to start, press Continue.</p><p><strong>Please note: Your memory of these faces will be tested 4 times during this experiment.</strong></p>",0,html-button-response,110,715278,0.0-14.0-0.0,77653,List2B,white,man,,,,,,,,
2839,"<img src=""portrait/WM1.jpg""style=""width:400px;height:400px;""></img>",6,html-button-response,111,719134,0.0-14.0-1.0,77653,List2B,white,man,,TRUE,6,,,,,
null,CORRECT,,html-keyboard-response,112,720661,0.0-14.0-2.0-0.0,77653,List2B,white,man,,,,null,,,,
1463,"<img src=""portrait/WM2.jpg""style=""width:400px;height:400px;""></img>",7,html-button-response,113,722126,0.0-14.0-4.0,77653,List2B,white,man,,TRUE,7,,,,,
null,CORRECT,,html-keyboard-response,114,723644,0.0-14.0-5.0-0.0,77653,List2B,white,man,,,,null,,,,
1200,"<img src=""portrait/BM1.jpg""style=""width:400px;height:400px;""></img>",4,html-button-response,115,724846,0.0-14.0-7.0,77653,List2B,white,man,,TRUE,4,,,,,
null,CORRECT,,html-keyboard-response,116,726360,0.0-14.0-8.0-0.0,77653,List2B,white,man,,,,null,,,,
6933,"<img src=""portrait/WW2.jpg""style=""width:400px;height:400px;""></img>",3,html-button-response,117,733295,0.0-14.0-10.0,77653,List2B,white,man,,TRUE,3,,,,,
null,CORRECT,,html-keyboard-response,118,734799,0.0-14.0-11.0-0.0,77653,List2B,white,man,,,,null,,,,
1694,"<img src=""portrait/BW2.jpg""style=""width:400px;height:400px;""></img>",2,html-button-response,119,736494,0.0-14.0-13.0,77653,List2B,white,man,,TRUE,2,,,,,
null,CORRECT,,html-keyboard-response,120,738009,0.0-14.0-14.0-0.0,77653,List2B,white,man,,,,null,,,,
3628,"<img src=""portrait/BM2.jpg""style=""width:400px;height:400px;""></img>",5,html-button-response,121,741639,0.0-14.0-16.0,77653,List2B,white,man,,TRUE,5,,,,,
null,CORRECT,,html-keyboard-response,122,743169,0.0-14.0-17.0-0.0,77653,List2B,white,man,,,,null,,,,
1492,"<img src=""portrait/BW1.jpg""style=""width:400px;height:400px;""></img>",0,html-button-response,123,744663,0.0-14.0-19.0,77653,List2B,white,man,,TRUE,0,,,,,
null,CORRECT,,html-keyboard-response,124,746165,0.0-14.0-20.0-0.0,77653,List2B,white,man,,,,null,,,,
1096,"<img src=""portrait/WW1.jpg""style=""width:400px;height:400px;""></img>",1,html-button-response,125,747263,0.0-14.0-22.0,77653,List2B,white,man,,TRUE,1,,,,,
null,CORRECT,,html-keyboard-response,126,748766,0.0-14.0-23.0-0.0,77653,List2B,white,man,,,,null,,,,
1102,<p>You got 8 out of 8 right first time. Press Continue.</p>,0,html-button-response,127,749870,0.0-14.0-25.0,77653,List2B,white,man,,,,,,,,
null,"<div style=""font-size:60px;"">+</div>",,html-keyboard-response,128,751373,0.0-15.0-0.0,77653,List2B,white,man,,,,null,,,,
null,"<img src=""stim_listB/talk4.gif""</stim_listB>",,html-keyboard-response,129,753378,0.0-15.0-1.0,77653,List2B,white,man,,,,null,,,,
null,are talking to each other,,html-keyboard-response,130,755391,0.0-15.0-2.0,77653,List2B,white,man,,,,null,,,,
7318,,,survey-text,131,762710,0.0-15.0-3.0,77653,List2B,white,man,,,,,"{""Q0"":""beth and mike are talking to each other""}","<img src=""stim_listB/talk4.gif""</stim_listB>",are talking to each other,
null,"<div style=""font-size:60px;"">+</div>",,html-keyboard-response,132,763211,0.0-15.0-0.1,77653,List2B,white,man,,,,null,,,,
null,"<img src=""stim_listB/marry4.gif""</stim_listB>",,html-keyboard-response,133,765228,0.0-15.0-1.1,77653,List2B,white,man,,,,null,,,,
null,are marrying each other,,html-keyboard-response,134,767238,0.0-15.0-2.1,77653,List2B,white,man,,,,null,,,,
7063,,,survey-text,135,774302,0.0-15.0-3.1,77653,List2B,white,man,,,,,"{""Q0"":""fred and kate are marrying each other""}","<img src=""stim_listB/marry4.gif""</stim_listB>",are marrying each other,
null,"<div style=""font-size:60px;"">+</div>",,html-keyboard-response,136,774803,0.0-15.0-0.2,77653,List2B,white,man,,,,null,,,,
null,"<img src=""stim_listB/marry2.gif""</stim_listB>",,html-keyboard-response,137,776819,0.0-15.0-1.2,77653,List2B,white,man,,,,null,,,,
null,are marrying each other,,html-keyboard-response,138,778821,0.0-15.0-2.2,77653,List2B,white,man,,,,null,,,,
7721,,,survey-text,139,786543,0.0-15.0-3.2,77653,List2B,white,man,,,,,"{""Q0"":""luke and jane are marrying each other""}","<img src=""stim_listB/marry2.gif""</stim_listB>",are marrying each other,
null,"<div style=""font-size:60px;"">+</div>",,html-keyboard-response,140,787044,0.0-15.0-0.3,77653,List2B,white,man,,,,null,,,,
null,"<img src=""stim_listB/talk8.gif""</stim_listB>",,html-keyboard-response,141,789047,0.0-15.0-1.3,77653,List2B,white,man,,,,null,,,,
null,are talking to each other,,html-keyboard-response,142,791048,0.0-15.0-2.3,77653,List2B,white,man,,,,null,,,,
6645,,,survey-text,143,797695,0.0-15.0-3.3,77653,List2B,white,man,,,,,"{""Q0"":""jane and beth are talking to each other""}","<img src=""stim_listB/talk8.gif""</stim_listB>",are talking to each other,
null,"<div style=""font-size:60px;"">+</div>",,html-keyboard-response,144,798196,0.0-15.0-0.4,77653,List2B,white,man,,,,null,,,,
null,"<img src=""stim_listB/argue1.gif""</stim_listB>",,html-keyboard-response,145,800201,0.0-15.0-1.4,77653,List2B,white,man,,,,null,,,,
null,is arguing with,,html-keyboard-response,146,802203,0.0-15.0-2.4,77653,List2B,white,man,,,,null,,,,
5426,,,survey-text,147,807631,0.0-15.0-3.4,77653,List2B,white,man,,,,,"{""Q0"":""ruth is arguing with dave""}","<img src=""stim_listB/argue1.gif""</stim_listB>",is arguing with,
null,"<div style=""font-size:60px;"">+</div>",,html-keyboard-response,148,808131,0.0-15.0-0.5,77653,List2B,white,man,,,,null,,,,
null,"<img src=""stim_listB/kiss6.gif""</stim_listB>",,html-keyboard-response,149,810135,0.0-15.0-1.5,77653,List2B,white,man,,,,null,,,,
null,are kissing each other,,html-keyboard-response,150,812137,0.0-15.0-2.5,77653,List2B,white,man,,,,null,,,,
6013,,,survey-text,151,818151,0.0-15.0-3.5,77653,List2B,white,man,,,,,"{""Q0"":""dave and mike are kissing each other""}","<img src=""stim_listB/kiss6.gif""</stim_listB>",are kissing each other,
null,"<div style=""font-size:60px;"">+</div>",,html-keyboard-response,152,818656,0.0-15.0-0.6,77653,List2B,white,man,,,,null,,,,
null,"<img src=""stim_listB/kiss1.gif""</stim_listB>",,html-keyboard-response,153,820662,0.0-15.0-1.6,77653,List2B,white,man,,,,null,,,,
null,is kissing,,html-keyboard-response,154,822666,0.0-15.0-2.6,77653,List2B,white,man,,,,null,,,,
4939,,,survey-text,155,827607,0.0-15.0-3.6,77653,List2B,white,man,,,,,"{""Q0"":""ruth is kissing luke""}","<img src=""stim_listB/kiss1.gif""</stim_listB>",is kissing,
null,"<div style=""font-size:60px;"">+</div>",,html-keyboard-response,156,828108,0.0-15.0-0.7,77653,List2B,white,man,,,,null,,,,
null,"<img src=""stim_listB/argue4.gif""</stim_listB>",,html-keyboard-response,157,830119,0.0-15.0-1.7,77653,List2B,white,man,,,,null,,,,
null,are arguing with each other,,html-keyboard-response,158,832121,0.0-15.0-2.7,77653,List2B,white,man,,,,null,,,,
7849,,,survey-text,159,839970,0.0-15.0-3.7,77653,List2B,white,man,,,,,"{""Q0"":""fred and kate are arguing with each other""}","<img src=""stim_listB/argue4.gif""</stim_listB>",are arguing with each other,
null,"<div style=""font-size:60px;"">+</div>",,html-keyboard-response,160,840471,0.0-15.0-0.8,77653,List2B,white,man,,,,null,,,,
null,"<img src=""stim_listB/kiss2.gif""</stim_listB>",,html-keyboard-response,161,842482,0.0-15.0-1.8,77653,List2B,white,man,,,,null,,,,
null,are kissing each other,,html-keyboard-response,162,844493,0.0-15.0-2.8,77653,List2B,white,man,,,,null,,,,
5748,,,survey-text,163,850242,0.0-15.0-3.8,77653,List2B,white,man,,,,,"{""Q0"":""jane and dave are kissing each other""}","<img src=""stim_listB/kiss2.gif""</stim_listB>",are kissing each other,
null,"<div style=""font-size:60px;"">+</div>",,html-keyboard-response,164,850744,0.0-15.0-0.9,77653,List2B,white,man,,,,null,,,,
null,"<img src=""stim_listB/meet8.gif""</stim_listB>",,html-keyboard-response,165,852747,0.0-15.0-1.9,77653,List2B,white,man,,,,null,,,,
null,are meeting each other,,html-keyboard-response,166,854748,0.0-15.0-2.9,77653,List2B,white,man,,,,null,,,,
6773,,,survey-text,167,861522,0.0-15.0-3.9,77653,List2B,white,man,,,,,"{""Q0"":""ruth and beth are meeting each other""}","<img src=""stim_listB/meet8.gif""</stim_listB>",are meeting each other,
null,"<div style=""font-size:60px;"">+</div>",,html-keyboard-response,168,862023,0.0-15.0-0.10,77653,List2B,white,man,,,,null,,,,
null,"<img src=""stim_listB/hug7.gif""</stim_listB>",,html-keyboard-response,169,864026,0.0-15.0-1.10,77653,List2B,white,man,,,,null,,,,
null,is hugging,,html-keyboard-response,170,866028,0.0-15.0-2.10,77653,List2B,white,man,,,,null,,,,
4860,,,survey-text,171,870890,0.0-15.0-3.10,77653,List2B,white,man,,,,,"{""Q0"":""ruth is hugging beth""}","<img src=""stim_listB/hug7.gif""</stim_listB>",is hugging,
null,"<div style=""font-size:60px;"">+</div>",,html-keyboard-response,172,871404,0.0-15.0-0.11,77653,List2B,white,man,,,,null,,,,
null,"<img src=""stim_listB/fight1.gif""</stim_listB>",,html-keyboard-response,173,873408,0.0-15.0-1.11,77653,List2B,white,man,,,,null,,,,
null,is fighting,,html-keyboard-response,174,875410,0.0-15.0-2.11,77653,List2B,white,man,,,,null,,,,
5256,,,survey-text,175,880666,0.0-15.0-3.11,77653,List2B,white,man,,,,,"{""Q0"":""jane is fighting dave""}","<img src=""stim_listB/fight1.gif""</stim_listB>",is fighting,
null,"<div style=""font-size:60px;"">+</div>",,html-keyboard-response,176,881167,0.0-15.0-0.12,77653,List2B,white,man,,,,null,,,,
null,"<img src=""stim_listB/shout1.gif""</stim_listB>",,html-keyboard-response,177,883182,0.0-15.0-1.12,77653,List2B,white,man,,,,null,,,,
null,is shouting at,,html-keyboard-response,178,885183,0.0-15.0-2.12,77653,List2B,white,man,,,,null,,,,
6097,,,survey-text,179,891282,0.0-15.0-3.12,77653,List2B,white,man,,,,,"{""Q0"":""ruth is shouting at luke""}","<img src=""stim_listB/shout1.gif""</stim_listB>",is shouting at,
null,"<div style=""font-size:60px;"">+</div>",,html-keyboard-response,180,891783,0.0-15.0-0.13,77653,List2B,white,man,,,,null,,,,
null,"<img src=""stim_listB/meet1.gif""</stim_listB>",,html-keyboard-response,181,893786,0.0-15.0-1.13,77653,List2B,white,man,,,,null,,,,
null,is meeting,,html-keyboard-response,182,895803,0.0-15.0-2.13,77653,List2B,white,man,,,,null,,,,
4042,,,survey-text,183,899846,0.0-15.0-3.13,77653,List2B,white,man,,,,,"{""Q0"":""jane is meeting dave""}","<img src=""stim_listB/meet1.gif""</stim_listB>",is meeting,
null,"<div style=""font-size:60px;"">+</div>",,html-keyboard-response,184,900349,0.0-15.0-0.14,77653,List2B,white,man,,,,null,,,,
null,"<img src=""stim_listB/meet4.gif""</stim_listB>",,html-keyboard-response,185,902353,0.0-15.0-1.14,77653,List2B,white,man,,,,null,,,,
null,are meeting each other,,html-keyboard-response,186,904356,0.0-15.0-2.14,77653,List2B,white,man,,,,null,,,,
6289,,,survey-text,187,910646,0.0-15.0-3.14,77653,List2B,white,man,,,,,"{""Q0"":""fred and beth are meeting each other""}","<img src=""stim_listB/meet4.gif""</stim_listB>",are meeting each other,
null,"<div style=""font-size:60px;"">+</div>",,html-keyboard-response,188,911148,0.0-15.0-0.15,77653,List2B,white,man,,,,null,,,,
null,"<img src=""stim_listB/dance4.gif""</stim_listB>",,html-keyboard-response,189,913166,0.0-15.0-1.15,77653,List2B,white,man,,,,null,,,,
null,are dancing with each other,,html-keyboard-response,190,915167,0.0-15.0-2.15,77653,List2B,white,man,,,,null,,,,
7046,,,survey-text,191,922214,0.0-15.0-3.15,77653,List2B,white,man,,,,,"{""Q0"":""beth and mike are dancing with each other""}","<img src=""stim_listB/dance4.gif""</stim_listB>",are dancing with each other,
null,"<div style=""font-size:60px;"">+</div>",,html-keyboard-response,192,922716,0.0-15.0-0.16,77653,List2B,white,man,,,,null,,,,
null,"<img src=""stim_listB/talk3.gif""</stim_listB>",,html-keyboard-response,193,924719,0.0-15.0-1.16,77653,List2B,white,man,,,,null,,,,
null,is talking to,,html-keyboard-response,194,926722,0.0-15.0-2.16,77653,List2B,white,man,,,,null,,,,
4900,,,survey-text,195,931622,0.0-15.0-3.16,77653,List2B,white,man,,,,,"{""Q0"":""fred is talking to jane""}","<img src=""stim_listB/talk3.gif""</stim_listB>",is talking to,
null,"<div style=""font-size:60px;"">+</div>",,html-keyboard-response,196,932132,0.0-15.0-0.17,77653,List2B,white,man,,,,null,,,,
null,"<img src=""stim_listB/dance3.gif""</stim_listB>",,html-keyboard-response,197,934136,0.0-15.0-1.17,77653,List2B,white,man,,,,null,,,,
null,is dancing with,,html-keyboard-response,198,936138,0.0-15.0-2.17,77653,List2B,white,man,,,,null,,,,
5835,,,survey-text,199,941974,0.0-15.0-3.17,77653,List2B,white,man,,,,,"{""Q0"":""fred is dancing with kate""}","<img src=""stim_listB/dance3.gif""</stim_listB>",is dancing with,
null,"<div style=""font-size:60px;"">+</div>",,html-keyboard-response,200,942475,0.0-15.0-0.18,77653,List2B,white,man,,,,null,,,,
null,"<img src=""stim_listB/hug2.gif""</stim_listB>",,html-keyboard-response,201,944491,0.0-15.0-1.18,77653,List2B,white,man,,,,null,,,,
null,are hugging each other,,html-keyboard-response,202,946496,0.0-15.0-2.18,77653,List2B,white,man,,,,null,,,,
6221,,,survey-text,203,952718,0.0-15.0-3.18,77653,List2B,white,man,,,,,"{""Q0"":""jane and dave are hugging each other""}","<img src=""stim_listB/hug2.gif""</stim_listB>",are hugging each other,
null,"<div style=""font-size:60px;"">+</div>",,html-keyboard-response,204,953219,0.0-15.0-0.19,77653,List2B,white,man,,,,null,,,,
null,"<img src=""stim_listB/fight7.gif""</stim_listB>",,html-keyboard-response,205,955222,0.0-15.0-1.19,77653,List2B,white,man,,,,null,,,,
null,is fighting,,html-keyboard-response,206,957228,0.0-15.0-2.19,77653,List2B,white,man,,,,null,,,,
4361,,,survey-text,207,961590,0.0-15.0-3.19,77653,List2B,white,man,,,,,"{""Q0"":""jane is fighting kate""}","<img src=""stim_listB/fight7.gif""</stim_listB>",is fighting,
1376,"<img src='img/portrait_matrix_list2.JPG' style='width:900px;height:500px;''></img><p>If you have memorised all the portraits and names and are ready to start, press Continue.</p><p><strong>Please note: Your memory of these faces will be tested 4 times during this experiment.</strong></p>",0,html-button-response,208,962966,0.0-16.0-0.0,77653,List2B,white,man,,,,,,,,
1654,"<img src=""portrait/BW1.jpg""style=""width:400px;height:400px;""></img>",0,html-button-response,209,965622,0.0-16.0-1.0,77653,List2B,white,man,,TRUE,0,,,,,
null,CORRECT,,html-keyboard-response,210,967134,0.0-16.0-2.0-0.0,77653,List2B,white,man,,,,null,,,,
1918,"<img src=""portrait/BM2.jpg""style=""width:400px;height:400px;""></img>",5,html-button-response,211,969054,0.0-16.0-4.0,77653,List2B,white,man,,TRUE,5,,,,,
null,CORRECT,,html-keyboard-response,212,970559,0.0-16.0-5.0-0.0,77653,List2B,white,man,,,,null,,,,
1199,"<img src=""portrait/WM1.jpg""style=""width:400px;height:400px;""></img>",6,html-button-response,213,971758,0.0-16.0-7.0,77653,List2B,white,man,,TRUE,6,,,,,
null,CORRECT,,html-keyboard-response,214,973275,0.0-16.0-8.0-0.0,77653,List2B,white,man,,,,null,,,,
1170,"<img src=""portrait/BM1.jpg""style=""width:400px;height:400px;""></img>",4,html-button-response,215,974446,0.0-16.0-10.0,77653,List2B,white,man,,TRUE,4,,,,,
null,CORRECT,,html-keyboard-response,216,975959,0.0-16.0-11.0-0.0,77653,List2B,white,man,,,,null,,,,
1606,"<img src=""portrait/WM2.jpg""style=""width:400px;height:400px;""></img>",7,html-button-response,217,977566,0.0-16.0-13.0,77653,List2B,white,man,,TRUE,7,,,,,
null,CORRECT,,html-keyboard-response,218,979068,0.0-16.0-14.0-0.0,77653,List2B,white,man,,,,null,,,,
1465,"<img src=""portrait/WW1.jpg""style=""width:400px;height:400px;""></img>",1,html-button-response,219,980534,0.0-16.0-16.0,77653,List2B,white,man,,TRUE,1,,,,,
null,CORRECT,,html-keyboard-response,220,982049,0.0-16.0-17.0-0.0,77653,List2B,white,man,,,,null,,,,
2108,"<img src=""portrait/WW2.jpg""style=""width:400px;height:400px;""></img>",3,html-button-response,221,984158,0.0-16.0-19.0,77653,List2B,white,man,,TRUE,3,,,,,
null,CORRECT,,html-keyboard-response,222,985664,0.0-16.0-20.0-0.0,77653,List2B,white,man,,,,null,,,,
765,"<img src=""portrait/BW2.jpg""style=""width:400px;height:400px;""></img>",2,html-button-response,223,986430,0.0-16.0-22.0,77653,List2B,white,man,,TRUE,2,,,,,
null,CORRECT,,html-keyboard-response,224,987933,0.0-16.0-23.0-0.0,77653,List2B,white,man,,,,null,,,,
2056,<p>You got 8 out of 8 right first time. Press Continue.</p>,0,html-button-response,225,989990,0.0-16.0-25.0,77653,List2B,white,man,,,,,,,,
null,"<div style=""font-size:60px;"">+</div>",,html-keyboard-response,226,991506,0.0-17.0-0.0,77653,List2B,white,man,,,,null,,,,
null,"<img src=""stim_listB/touch5.gif""</stim_listB>",,html-keyboard-response,227,993519,0.0-17.0-1.0,77653,List2B,white,man,,,,null,,,,
null,is touching,,html-keyboard-response,228,995523,0.0-17.0-2.0,77653,List2B,white,man,,,,null,,,,
4434,,,survey-text,229,999958,0.0-17.0-3.0,77653,List2B,white,man,,,,,"{""Q0"":""dave is touching mike""}","<img src=""stim_listB/touch5.gif""</stim_listB>",is touching,
null,"<div style=""font-size:60px;"">+</div>",,html-keyboard-response,230,1000467,0.0-17.0-0.1,77653,List2B,white,man,,,,null,,,,
null,"<img src=""stim_listB/shout2.gif""</stim_listB>",,html-keyboard-response,231,1002482,0.0-17.0-1.1,77653,List2B,white,man,,,,null,,,,
null,are shouting at each other,,html-keyboard-response,232,1004496,0.0-17.0-2.1,77653,List2B,white,man,,,,null,,,,
9717,,,survey-text,233,1014214,0.0-17.0-3.1,77653,List2B,white,man,,,,,"{""Q0"":""dave and jane are shouting at each other""}","<img src=""stim_listB/shout2.gif""</stim_listB>",are shouting at each other,
null,"<div style=""font-size:60px;"">+</div>",,html-keyboard-response,234,1014716,0.0-17.0-0.2,77653,List2B,white,man,,,,null,,,,
null,"<img src=""stim_listB/shout7.gif""</stim_listB>",,html-keyboard-response,235,1016719,0.0-17.0-1.2,77653,List2B,white,man,,,,null,,,,
null,is shouting at,,html-keyboard-response,236,1018721,0.0-17.0-2.2,77653,List2B,white,man,,,,null,,,,
5324,,,survey-text,237,1024046,0.0-17.0-3.2,77653,List2B,white,man,,,,,"{""Q0"":""ruth is shouting at beth""}","<img src=""stim_listB/shout7.gif""</stim_listB>",is shouting at,
null,"<div style=""font-size:60px;"">+</div>",,html-keyboard-response,238,1024560,0.0-17.0-0.3,77653,List2B,white,man,,,,null,,,,
null,"<img src=""stim_listB/marry1.gif""</stim_listB>",,html-keyboard-response,239,1026572,0.0-17.0-1.3,77653,List2B,white,man,,,,null,,,,
null,is marrying,,html-keyboard-response,240,1028583,0.0-17.0-2.3,77653,List2B,white,man,,,,null,,,,
5605,,,survey-text,241,1034190,0.0-17.0-3.3,77653,List2B,white,man,,,,,"{""Q0"":""ruth is marrying dave""}","<img src=""stim_listB/marry1.gif""</stim_listB>",is marrying,
null,"<div style=""font-size:60px;"">+</div>",,html-keyboard-response,242,1034698,0.0-17.0-0.4,77653,List2B,white,man,,,,null,,,,
null,"<img src=""stim_listB/talk6.gif""</stim_listB>",,html-keyboard-response,243,1036705,0.0-17.0-1.4,77653,List2B,white,man,,,,null,,,,
null,are talking to each other,,html-keyboard-response,244,1038716,0.0-17.0-2.4,77653,List2B,white,man,,,,null,,,,
6097,,,survey-text,245,1044814,0.0-17.0-3.4,77653,List2B,white,man,,,,,"{""Q0"":""dave and fred are talking to each other""}","<img src=""stim_listB/talk6.gif""</stim_listB>",are talking to each other,
null,"<div style=""font-size:60px;"">+</div>",,html-keyboard-response,246,1045314,0.0-17.0-0.5,77653,List2B,white,man,,,,null,,,,
null,"<img src=""stim_listB/dance8.gif""</stim_listB>",,html-keyboard-response,247,1047321,0.0-17.0-1.5,77653,List2B,white,man,,,,null,,,,
null,are dancing with each other,,html-keyboard-response,248,1049323,0.0-17.0-2.5,77653,List2B,white,man,,,,null,,,,
7050,,,survey-text,249,1056374,0.0-17.0-3.5,77653,List2B,white,man,,,,,"{""Q0"":""jane and beth are dancing with each other""}","<img src=""stim_listB/dance8.gif""</stim_listB>",are dancing with each other,
null,"<div style=""font-size:60px;"">+</div>",,html-keyboard-response,250,1056874,0.0-17.0-0.6,77653,List2B,white,man,,,,null,,,,
null,"<img src=""stim_listB/talk2.gif""</stim_listB>",,html-keyboard-response,251,1058877,0.0-17.0-1.6,77653,List2B,white,man,,,,null,,,,
null,are talking to each other,,html-keyboard-response,252,1060879,0.0-17.0-2.6,77653,List2B,white,man,,,,null,,,,
6678,,,survey-text,253,1067558,0.0-17.0-3.6,77653,List2B,white,man,,,,,"{""Q0"":""dave and ruth are talking to each other""}","<img src=""stim_listB/talk2.gif""</stim_listB>",are talking to each other,
null,"<div style=""font-size:60px;"">+</div>",,html-keyboard-response,254,1068059,0.0-17.0-0.7,77653,List2B,white,man,,,,null,,,,
null,"<img src=""stim_listB/talk5.gif""</stim_listB>",,html-keyboard-response,255,1070061,0.0-17.0-1.7,77653,List2B,white,man,,,,null,,,,
null,is talking to,,html-keyboard-response,256,1072062,0.0-17.0-2.7,77653,List2B,white,man,,,,null,,,,
4910,,,survey-text,257,1076973,0.0-17.0-3.7,77653,List2B,white,man,,,,,"{""Q0"":""luke is talking to mike""}","<img src=""stim_listB/talk5.gif""</stim_listB>",is talking to,
null,"<div style=""font-size:60px;"">+</div>",,html-keyboard-response,258,1077476,0.0-17.0-0.8,77653,List2B,white,man,,,,null,,,,
null,"<img src=""stim_listB/shout3.gif""</stim_listB>",,html-keyboard-response,259,1079485,0.0-17.0-1.8,77653,List2B,white,man,,,,null,,,,
null,is shouting at,,html-keyboard-response,260,1081492,0.0-17.0-2.8,77653,List2B,white,man,,,,null,,,,
8808,,,survey-text,261,1090301,0.0-17.0-3.8,77653,List2B,white,man,,,,,"{""Q0"":""fred is shouting at beth""}","<img src=""stim_listB/shout3.gif""</stim_listB>",is shouting at,
null,"<div style=""font-size:60px;"">+</div>",,html-keyboard-response,262,1090803,0.0-17.0-0.9,77653,List2B,white,man,,,,null,,,,
null,"<img src=""stim_listB/dance2.gif""</stim_listB>",,html-keyboard-response,263,1092806,0.0-17.0-1.9,77653,List2B,white,man,,,,null,,,,
null,are dancing with each other,,html-keyboard-response,264,1094807,0.0-17.0-2.9,77653,List2B,white,man,,,,null,,,,
8117,,,survey-text,265,1102925,0.0-17.0-3.9,77653,List2B,white,man,,,,,"{""Q0"":""dave and ruth are dancing with each other""}","<img src=""stim_listB/dance2.gif""</stim_listB>",are dancing with each other,
null,"<div style=""font-size:60px;"">+</div>",,html-keyboard-response,266,1103440,0.0-17.0-0.10,77653,List2B,white,man,,,,null,,,,
null,"<img src=""stim_listB/shout6.gif""</stim_listB>",,html-keyboard-response,267,1105455,0.0-17.0-1.10,77653,List2B,white,man,,,,null,,,,
null,are shouting at each other,,html-keyboard-response,268,1107458,0.0-17.0-2.10,77653,List2B,white,man,,,,null,,,,
7059,,,survey-text,269,1114517,0.0-17.0-3.10,77653,List2B,white,man,,,,,"{""Q0"":""dave and mike are shouting at each other""}","<img src=""stim_listB/shout6.gif""</stim_listB>",are shouting at each other,
null,"<div style=""font-size:60px;"">+</div>",,html-keyboard-response,270,1115018,0.0-17.0-0.11,77653,List2B,white,man,,,,null,,,,
null,"<img src=""stim_listB/fight4.gif""</stim_listB>",,html-keyboard-response,271,1117021,0.0-17.0-1.11,77653,List2B,white,man,,,,null,,,,
null,are fighting each other,,html-keyboard-response,272,1119022,0.0-17.0-2.11,77653,List2B,white,man,,,,null,,,,
7678,,,survey-text,273,1126701,0.0-17.0-3.11,77653,List2B,white,man,,,,,"{""Q0"":""mike and beth are fighting each other""}","<img src=""stim_listB/fight4.gif""</stim_listB>",are fighting each other,
null,"<div style=""font-size:60px;"">+</div>",,html-keyboard-response,274,1127203,0.0-17.0-0.12,77653,List2B,white,man,,,,null,,,,
null,"<img src=""stim_listB/touch2.gif""</stim_listB>",,html-keyboard-response,275,1129206,0.0-17.0-1.12,77653,List2B,white,man,,,,null,,,,
null,are touching each other,,html-keyboard-response,276,1131207,0.0-17.0-2.12,77653,List2B,white,man,,,,null,,,,
7309,,,survey-text,277,1138517,0.0-17.0-3.12,77653,List2B,white,man,,,,,"{""Q0"":""luke and ruth are touching each other""}","<img src=""stim_listB/touch2.gif""</stim_listB>",are touching each other,
null,"<div style=""font-size:60px;"">+</div>",,html-keyboard-response,278,1139022,0.0-17.0-0.13,77653,List2B,white,man,,,,null,,,,
null,"<img src=""stim_listB/talk7.gif""</stim_listB>",,html-keyboard-response,279,1141024,0.0-17.0-1.13,77653,List2B,white,man,,,,null,,,,
null,is talking to,,html-keyboard-response,280,1143026,0.0-17.0-2.13,77653,List2B,white,man,,,,null,,,,
4827,,,survey-text,281,1147853,0.0-17.0-3.13,77653,List2B,white,man,,,,,"{""Q0"":""kate is talking to ruth""}","<img src=""stim_listB/talk7.gif""</stim_listB>",is talking to,
null,"<div style=""font-size:60px;"">+</div>",,html-keyboard-response,282,1148359,0.0-17.0-0.14,77653,List2B,white,man,,,,null,,,,
null,"<img src=""stim_listB/argue2.gif""</stim_listB>",,html-keyboard-response,283,1150372,0.0-17.0-1.14,77653,List2B,white,man,,,,null,,,,
null,are arguing with each other,,html-keyboard-response,284,1152387,0.0-17.0-2.14,77653,List2B,white,man,,,,null,,,,
7657,,,survey-text,285,1160045,0.0-17.0-3.14,77653,List2B,white,man,,,,,"{""Q0"":""jane and luke are arguing with each other""}","<img src=""stim_listB/argue2.gif""</stim_listB>",are arguing with each other,
null,"<div style=""font-size:60px;"">+</div>",,html-keyboard-response,286,1160545,0.0-17.0-0.15,77653,List2B,white,man,,,,null,,,,
null,"<img src=""stim_listB/dance7.gif""</stim_listB>",,html-keyboard-response,287,1162560,0.0-17.0-1.15,77653,List2B,white,man,,,,null,,,,
null,is dancing with,,html-keyboard-response,288,1164570,0.0-17.0-2.15,77653,List2B,white,man,,,,null,,,,
5178,,,survey-text,289,1169749,0.0-17.0-3.15,77653,List2B,white,man,,,,,"{""Q0"":""kate is dancing with ruth""}","<img src=""stim_listB/dance7.gif""</stim_listB>",is dancing with,
null,"<div style=""font-size:60px;"">+</div>",,html-keyboard-response,290,1170250,0.0-17.0-0.16,77653,List2B,white,man,,,,null,,,,
null,"<img src=""stim_listB/fight2.gif""</stim_listB>",,html-keyboard-response,291,1172262,0.0-17.0-1.16,77653,List2B,white,man,,,,null,,,,
null,are fighting each other,,html-keyboard-response,292,1174264,0.0-17.0-2.16,77653,List2B,white,man,,,,null,,,,
6732,,,survey-text,293,1180997,0.0-17.0-3.16,77653,List2B,white,man,,,,,"{""Q0"":""luke and ruth are fighting each other""}","<img src=""stim_listB/fight2.gif""</stim_listB>",are fighting each other,
null,"<div style=""font-size:60px;"">+</div>",,html-keyboard-response,294,1181498,0.0-17.0-0.17,77653,List2B,white,man,,,,null,,,,
null,"<img src=""stim_listB/shout5.gif""</stim_listB>",,html-keyboard-response,295,1183501,0.0-17.0-1.17,77653,List2B,white,man,,,,null,,,,
null,is shouting at,,html-keyboard-response,296,1185515,0.0-17.0-2.17,77653,List2B,white,man,,,,null,,,,
5673,,,survey-text,297,1191189,0.0-17.0-3.17,77653,List2B,white,man,,,,,"{""Q0"":""fred is shouting at luke""}","<img src=""stim_listB/shout5.gif""</stim_listB>",is shouting at,
null,"<div style=""font-size:60px;"">+</div>",,html-keyboard-response,298,1191690,0.0-17.0-0.18,77653,List2B,white,man,,,,null,,,,
null,"<img src=""stim_listB/argue5.gif""</stim_listB>",,html-keyboard-response,299,1193694,0.0-17.0-1.18,77653,List2B,white,man,,,,null,,,,
null,is arguing with,,html-keyboard-response,300,1195702,0.0-17.0-2.18,77653,List2B,white,man,,,,null,,,,
5549,,,survey-text,301,1201252,0.0-17.0-3.18,77653,List2B,white,man,,,,,"{""Q0"":""fred is arguing with dave""}","<img src=""stim_listB/argue5.gif""</stim_listB>",is arguing with,
null,"<div style=""font-size:60px;"">+</div>",,html-keyboard-response,302,1201753,0.0-17.0-0.19,77653,List2B,white,man,,,,null,,,,
null,"<img src=""stim_listB/dance5.gif""</stim_listB>",,html-keyboard-response,303,1203755,0.0-17.0-1.19,77653,List2B,white,man,,,,null,,,,
null,is dancing with,,html-keyboard-response,304,1205756,0.0-17.0-2.19,77653,List2B,white,man,,,,null,,,,
4807,,,survey-text,305,1210564,0.0-17.0-3.19,77653,List2B,white,man,,,,,"{""Q0"":""mike is dancing with luke""}","<img src=""stim_listB/dance5.gif""</stim_listB>",is dancing with,
1904,"<img src='img/portrait_matrix_list2.JPG' style='width:900px;height:500px;''></img><p>If you have memorised all the portraits and names and are ready to start, press Continue.</p><p><strong>Please note: Your memory of these faces will be tested 4 times during this experiment.</strong></p>",0,html-button-response,306,1212468,0.0-18.0-0.0,77653,List2B,white,man,,,,,,,,
3123,"<img src=""portrait/WW2.jpg""style=""width:400px;height:400px;""></img>",3,html-button-response,307,1216604,0.0-18.0-1.0,77653,List2B,white,man,,TRUE,3,,,,,
null,CORRECT,,html-keyboard-response,308,1218112,0.0-18.0-2.0-0.0,77653,List2B,white,man,,,,null,,,,
1851,"<img src=""portrait/BM2.jpg""style=""width:400px;height:400px;""></img>",5,html-button-response,309,1219964,0.0-18.0-4.0,77653,List2B,white,man,,TRUE,5,,,,,
null,CORRECT,,html-keyboard-response,310,1221467,0.0-18.0-5.0-0.0,77653,List2B,white,man,,,,null,,,,
1608,"<img src=""portrait/WM1.jpg""style=""width:400px;height:400px;""></img>",6,html-button-response,311,1223076,0.0-18.0-7.0,77653,List2B,white,man,,TRUE,6,,,,,
null,CORRECT,,html-keyboard-response,312,1224588,0.0-18.0-8.0-0.0,77653,List2B,white,man,,,,null,,,,
1654,"<img src=""portrait/WW1.jpg""style=""width:400px;height:400px;""></img>",1,html-button-response,313,1226244,0.0-18.0-10.0,77653,List2B,white,man,,TRUE,1,,,,,
null,CORRECT,,html-keyboard-response,314,1227746,0.0-18.0-11.0-0.0,77653,List2B,white,man,,,,null,,,,
1386,"<img src=""portrait/WM2.jpg""style=""width:400px;height:400px;""></img>",7,html-button-response,315,1229132,0.0-18.0-13.0,77653,List2B,white,man,,TRUE,7,,,,,
null,CORRECT,,html-keyboard-response,316,1230649,0.0-18.0-14.0-0.0,77653,List2B,white,man,,,,null,,,,
1338,"<img src=""portrait/BW1.jpg""style=""width:400px;height:400px;""></img>",0,html-button-response,317,1231988,0.0-18.0-16.0,77653,List2B,white,man,,TRUE,0,,,,,
null,CORRECT,,html-keyboard-response,318,1233499,0.0-18.0-17.0-0.0,77653,List2B,white,man,,,,null,,,,
1336,"<img src=""portrait/BM1.jpg""style=""width:400px;height:400px;""></img>",4,html-button-response,319,1234836,0.0-18.0-19.0,77653,List2B,white,man,,TRUE,4,,,,,
null,CORRECT,,html-keyboard-response,320,1236351,0.0-18.0-20.0-0.0,77653,List2B,white,man,,,,null,,,,
1500,"<img src=""portrait/BW2.jpg""style=""width:400px;height:400px;""></img>",2,html-button-response,321,1237852,0.0-18.0-22.0,77653,List2B,white,man,,TRUE,2,,,,,
null,CORRECT,,html-keyboard-response,322,1239355,0.0-18.0-23.0-0.0,77653,List2B,white,man,,,,null,,,,
1215,<p>You got 8 out of 8 right first time. Press Continue.</p>,0,html-button-response,323,1240572,0.0-18.0-25.0,77653,List2B,white,man,,,,,,,,
null,"<div style=""font-size:60px;"">+</div>",,html-keyboard-response,324,1242078,0.0-19.0-0.0,77653,List2B,white,man,,,,null,,,,
null,"<img src=""stim_listB/touch8.gif""</stim_listB>",,html-keyboard-response,325,1244080,0.0-19.0-1.0,77653,List2B,white,man,,,,null,,,,
null,are touching each other,,html-keyboard-response,326,1246083,0.0-19.0-2.0,77653,List2B,white,man,,,,null,,,,
7664,,,survey-text,327,1253748,0.0-19.0-3.0,77653,List2B,white,man,,,,,"{""Q0"":""ruth and beth are touching each other""}","<img src=""stim_listB/touch8.gif""</stim_listB>",are touching each other,
null,"<div style=""font-size:60px;"">+</div>",,html-keyboard-response,328,1254251,0.0-19.0-0.1,77653,List2B,white,man,,,,null,,,,
null,"<img src=""stim_listB/fight5.gif""</stim_listB>",,html-keyboard-response,329,1256253,0.0-19.0-1.1,77653,List2B,white,man,,,,null,,,,
null,is fighting,,html-keyboard-response,330,1258255,0.0-19.0-2.1,77653,List2B,white,man,,,,null,,,,
5469,,,survey-text,331,1263724,0.0-19.0-3.1,77653,List2B,white,man,,,,,"{""Q0"":""dave is fighting mike""}","<img src=""stim_listB/fight5.gif""</stim_listB>",is fighting,
null,"<div style=""font-size:60px;"">+</div>",,html-keyboard-response,332,1264239,0.0-19.0-0.2,77653,List2B,white,man,,,,null,,,,
null,"<img src=""stim_listB/fight6.gif""</stim_listB>",,html-keyboard-response,333,1266242,0.0-19.0-1.2,77653,List2B,white,man,,,,null,,,,
null,are fighting each other,,html-keyboard-response,334,1268243,0.0-19.0-2.2,77653,List2B,white,man,,,,null,,,,
6776,,,survey-text,335,1275020,0.0-19.0-3.2,77653,List2B,white,man,,,,,"{""Q0"":""fred and luke are fighting each other""}","<img src=""stim_listB/fight6.gif""</stim_listB>",are fighting each other,
null,"<div style=""font-size:60px;"">+</div>",,html-keyboard-response,336,1275535,0.0-19.0-0.3,77653,List2B,white,man,,,,null,,,,
null,"<img src=""stim_listB/fight3.gif""</stim_listB>",,html-keyboard-response,337,1277542,0.0-19.0-1.3,77653,List2B,white,man,,,,null,,,,
null,is fighting,,html-keyboard-response,338,1279543,0.0-19.0-2.3,77653,List2B,white,man,,,,null,,,,
4700,,,survey-text,339,1284244,0.0-19.0-3.3,77653,List2B,white,man,,,,,"{""Q0"":""mike is fighting kate""}","<img src=""stim_listB/fight3.gif""</stim_listB>",is fighting,
null,"<div style=""font-size:60px;"">+</div>",,html-keyboard-response,340,1284745,0.0-19.0-0.4,77653,List2B,white,man,,,,null,,,,
null,"<img src=""stim_listB/fight8.gif""</stim_listB>",,html-keyboard-response,341,1286748,0.0-19.0-1.4,77653,List2B,white,man,,,,null,,,,
null,are fighting each other,,html-keyboard-response,342,1288749,0.0-19.0-2.4,77653,List2B,white,man,,,,null,,,,
6486,,,survey-text,343,1295236,0.0-19.0-3.4,77653,List2B,white,man,,,,,"{""Q0"":""ruth and beth are fighting each other""}","<img src=""stim_listB/fight8.gif""</stim_listB>",are fighting each other,
null,"<div style=""font-size:60px;"">+</div>",,html-keyboard-response,344,1295737,0.0-19.0-0.5,77653,List2B,white,man,,,,null,,,,
null,"<img src=""stim_listB/kiss5.gif""</stim_listB>",,html-keyboard-response,345,1297740,0.0-19.0-1.5,77653,List2B,white,man,,,,null,,,,
null,is kissing,,html-keyboard-response,346,1299742,0.0-19.0-2.5,77653,List2B,white,man,,,,null,,,,
4550,,,survey-text,347,1304292,0.0-19.0-3.5,77653,List2B,white,man,,,,,"{""Q0"":""luke is kissing fred""}","<img src=""stim_listB/kiss5.gif""</stim_listB>",is kissing,
null,"<div style=""font-size:60px;"">+</div>",,html-keyboard-response,348,1304794,0.0-19.0-0.6,77653,List2B,white,man,,,,null,,,,
null,"<img src=""stim_listB/marry7.gif""</stim_listB>",,html-keyboard-response,349,1306801,0.0-19.0-1.6,77653,List2B,white,man,,,,null,,,,
null,is marrying,,html-keyboard-response,350,1308803,0.0-19.0-2.6,77653,List2B,white,man,,,,null,,,,
4640,,,survey-text,351,1313444,0.0-19.0-3.6,77653,List2B,white,man,,,,,"{""Q0"":""beth is marrying jane""}","<img src=""stim_listB/marry7.gif""</stim_listB>",is marrying,
null,"<div style=""font-size:60px;"">+</div>",,html-keyboard-response,352,1313946,0.0-19.0-0.7,77653,List2B,white,man,,,,null,,,,
null,"<img src=""stim_listB/hug6.gif""</stim_listB>",,html-keyboard-response,353,1315948,0.0-19.0-1.7,77653,List2B,white,man,,,,null,,,,
null,are hugging each other,,html-keyboard-response,354,1317950,0.0-19.0-2.7,77653,List2B,white,man,,,,null,,,,
6014,,,survey-text,355,1323964,0.0-19.0-3.7,77653,List2B,white,man,,,,,"{""Q0"":""mike and dave are hugging each other""}","<img src=""stim_listB/hug6.gif""</stim_listB>",are hugging each other,
null,"<div style=""font-size:60px;"">+</div>",,html-keyboard-response,356,1324469,0.0-19.0-0.8,77653,List2B,white,man,,,,null,,,,
null,"<img src=""stim_listB/meet6.gif""</stim_listB>",,html-keyboard-response,357,1326480,0.0-19.0-1.8,77653,List2B,white,man,,,,null,,,,
null,are meeting each other,,html-keyboard-response,358,1328484,0.0-19.0-2.8,77653,List2B,white,man,,,,null,,,,
5583,,,survey-text,359,1334068,0.0-19.0-3.8,77653,List2B,white,man,,,,,"{""Q0"":""fred and luke are meeting each other""}","<img src=""stim_listB/meet6.gif""</stim_listB>",are meeting each other,
null,"<div style=""font-size:60px;"">+</div>",,html-keyboard-response,360,1334576,0.0-19.0-0.9,77653,List2B,white,man,,,,null,,,,
null,"<img src=""stim_listB/kiss3.gif""</stim_listB>",,html-keyboard-response,361,1336579,0.0-19.0-1.9,77653,List2B,white,man,,,,null,,,,
null,is kissing,,html-keyboard-response,362,1338582,0.0-19.0-2.9,77653,List2B,white,man,,,,null,,,,
4461,,,survey-text,363,1343044,0.0-19.0-3.9,77653,List2B,white,man,,,,,"{""Q0"":""fred is kissing beth""}","<img src=""stim_listB/kiss3.gif""</stim_listB>",is kissing,
null,"<div style=""font-size:60px;"">+</div>",,html-keyboard-response,364,1343549,0.0-19.0-0.10,77653,List2B,white,man,,,,null,,,,
null,"<img src=""stim_listB/marry5.gif""</stim_listB>",,html-keyboard-response,365,1345552,0.0-19.0-1.10,77653,List2B,white,man,,,,null,,,,
null,is marrying,,html-keyboard-response,366,1347569,0.0-19.0-2.10,77653,List2B,white,man,,,,null,,,,
6378,,,survey-text,367,1353948,0.0-19.0-3.10,77653,List2B,white,man,,,,,"{""Q0"":""fred is marrying dave""}","<img src=""stim_listB/marry5.gif""</stim_listB>",is marrying,
null,"<div style=""font-size:60px;"">+</div>",,html-keyboard-response,368,1354451,0.0-19.0-0.11,77653,List2B,white,man,,,,null,,,,
null,"<img src=""stim_listB/shout4.gif""</stim_listB>",,html-keyboard-response,369,1356464,0.0-19.0-1.11,77653,List2B,white,man,,,,null,,,,
null,are shouting at each other,,html-keyboard-response,370,1358476,0.0-19.0-2.11,77653,List2B,white,man,,,,null,,,,
7112,,,survey-text,371,1365588,0.0-19.0-3.11,77653,List2B,white,man,,,,,"{""Q0"":""mike and kate are shouting at each other""}","<img src=""stim_listB/shout4.gif""</stim_listB>",are shouting at each other,
null,"<div style=""font-size:60px;"">+</div>",,html-keyboard-response,372,1366089,0.0-19.0-0.12,77653,List2B,white,man,,,,null,,,,
null,"<img src=""stim_listB/argue3.gif""</stim_listB>",,html-keyboard-response,373,1368102,0.0-19.0-1.12,77653,List2B,white,man,,,,null,,,,
null,is arguing with,,html-keyboard-response,374,1370105,0.0-19.0-2.12,77653,List2B,white,man,,,,null,,,,
5091,,,survey-text,375,1375196,0.0-19.0-3.12,77653,List2B,white,man,,,,,"{""Q0"":""beth is arguing with mike""}","<img src=""stim_listB/argue3.gif""</stim_listB>",is arguing with,
null,"<div style=""font-size:60px;"">+</div>",,html-keyboard-response,376,1375698,0.0-19.0-0.13,77653,List2B,white,man,,,,null,,,,
null,"<img src=""stim_listB/hug4.gif""</stim_listB>",,html-keyboard-response,377,1377700,0.0-19.0-1.13,77653,List2B,white,man,,,,null,,,,
null,are hugging each other,,html-keyboard-response,378,1379716,0.0-19.0-2.13,77653,List2B,white,man,,,,null,,,,
6190,,,survey-text,379,1385908,0.0-19.0-3.13,77653,List2B,white,man,,,,,"{""Q0"":""mike and kate are hugging each other""}","<img src=""stim_listB/hug4.gif""</stim_listB>",are hugging each other,
null,"<div style=""font-size:60px;"">+</div>",,html-keyboard-response,380,1386414,0.0-19.0-0.14,77653,List2B,white,man,,,,null,,,,
null,"<img src=""stim_listB/meet2.gif""</stim_listB>",,html-keyboard-response,381,1388422,0.0-19.0-1.14,77653,List2B,white,man,,,,null,,,,
null,are meeting each other,,html-keyboard-response,382,1390423,0.0-19.0-2.14,77653,List2B,white,man,,,,null,,,,
7987,,,survey-text,383,1398412,0.0-19.0-3.14,77653,List2B,white,man,,,,,"{""Q0"":""luke and ruth are meeting each other""}","<img src=""stim_listB/meet2.gif""</stim_listB>",are meeting each other,
null,"<div style=""font-size:60px;"">+</div>",,html-keyboard-response,384,1398913,0.0-19.0-0.15,77653,List2B,white,man,,,,null,,,,
null,"<img src=""stim_listB/kiss7.gif""</stim_listB>",,html-keyboard-response,385,1400915,0.0-19.0-1.15,77653,List2B,white,man,,,,null,,,,
null,is kissing,,html-keyboard-response,386,1402916,0.0-19.0-2.15,77653,List2B,white,man,,,,null,,,,
5694,,,survey-text,387,1408612,0.0-19.0-3.15,77653,List2B,white,man,,,,,"{""Q0"":""beth is kissing ruth""}","<img src=""stim_listB/kiss7.gif""</stim_listB>",is kissing,
null,"<div style=""font-size:60px;"">+</div>",,html-keyboard-response,388,1409113,0.0-19.0-0.16,77653,List2B,white,man,,,,null,,,,
null,"<img src=""stim_listB/marry8.gif""</stim_listB>",,html-keyboard-response,389,1411116,0.0-19.0-1.16,77653,List2B,white,man,,,,null,,,,
null,are marrying each other,,html-keyboard-response,390,1413118,0.0-19.0-2.16,77653,List2B,white,man,,,,null,,,,
6428,,,survey-text,391,1419548,0.0-19.0-3.16,77653,List2B,white,man,,,,,"{""Q0"":""ruth and kate are marrying each other""}","<img src=""stim_listB/marry8.gif""</stim_listB>",are marrying each other,
null,"<div style=""font-size:60px;"">+</div>",,html-keyboard-response,392,1420049,0.0-19.0-0.17,77653,List2B,white,man,,,,null,,,,
null,"<img src=""stim_listB/touch7.gif""</stim_listB>",,html-keyboard-response,393,1422051,0.0-19.0-1.17,77653,List2B,white,man,,,,null,,,,
null,is touching,,html-keyboard-response,394,1424052,0.0-19.0-2.17,77653,List2B,white,man,,,,null,,,,
5094,,,survey-text,395,1429148,0.0-19.0-3.17,77653,List2B,white,man,,,,,"{""Q0"":""kate is touching jane""}","<img src=""stim_listB/touch7.gif""</stim_listB>",is touching,
null,"<div style=""font-size:60px;"">+</div>",,html-keyboard-response,396,1429650,0.0-19.0-0.18,77653,List2B,white,man,,,,null,,,,
null,"<img src=""stim_listB/dance6.gif""</stim_listB>",,html-keyboard-response,397,1431653,0.0-19.0-1.18,77653,List2B,white,man,,,,null,,,,
null,are dancing with each other,,html-keyboard-response,398,1433663,0.0-19.0-2.18,77653,List2B,white,man,,,,null,,,,
7347,,,survey-text,399,1441012,0.0-19.0-3.18,77653,List2B,white,man,,,,,"{""Q0"":""dave and fred are dancing with each other""}","<img src=""stim_listB/dance6.gif""</stim_listB>",are dancing with each other,
null,"<div style=""font-size:60px;"">+</div>",,html-keyboard-response,400,1441513,0.0-19.0-0.19,77653,List2B,white,man,,,,null,,,,
null,"<img src=""stim_listB/argue8.gif""</stim_listB>",,html-keyboard-response,401,1443515,0.0-19.0-1.19,77653,List2B,white,man,,,,null,,,,
null,are arguing with each other,,html-keyboard-response,402,1445516,0.0-19.0-2.19,77653,List2B,white,man,,,,null,,,,
8350,,,survey-text,403,1453868,0.0-19.0-3.19,77653,List2B,white,man,,,,,"{""Q0"":""ruth and kate are arguing with each other""}","<img src=""stim_listB/argue8.gif""</stim_listB>",are arguing with each other,
1551,<p>Thank you for completing that task.</p><p>The final part of this session is a short questionnaire.</p><p>Press Continue.</p>,0,html-button-response,404,1455420,0.0-20.0,77653,List2B,white,man,,,,,,,,
12091,,,survey-text,405,1468516,0.0-21.0,77653,List2B,white,man,,,,,"{""Q0"":""31"",""Q1"":""English"",""Q2"":""English"",""Q3"":""UK"",""Q4"":""White"",""Q5"":""Male""}",,,demographics
50462,,,survey-likert,406,1518981,0.0-22.0,77653,List2B,white,man,,,,,"{""Q0"":3,""Q1"":2,""Q2"":2,""Q3"":3,""Q4"":3,""Q5"":3,""Q6"":2,""Q7"":0,""Q8"":2,""Q9"":2,""Q10"":2,""Q11"":2,""Q12"":4,""Q13"":3}",,,likert_race
39773,,,survey-likert,407,1558757,0.0-23.0,77653,List2B,white,man,,,,,"{""Q0"":1,""Q1"":1,""Q2"":1,""Q3"":3,""Q4"":1,""Q5"":3,""Q6"":3,""Q7"":1,""Q8"":1,""Q9"":1,""Q10"":1,""Q11"":1,""Q12"":4,""Q13"":3}",,,likert_gender
6349,,,survey-text,408,1565107,0.0-24.0,77653,List2B,white,man,,,,,"{""Q0"":""ccc""}",,,worker_id
23833,,,external-html,409,1588979,0.0-25.0,77653,List2B,white,man,debrief.html,,,,,,,
