rt,stimulus,button_pressed,trial_type,trial_index,time_elapsed,internal_node_id,subject,list,ppt_race,ppt_gender,url,first_guess,correct,key_press,responses,image_type,phrase_type,test_part
1696,Welcome to the experiment. Press Continue to begin.,0,html-button-response,0,1699,0.0-0.0,78526,List1A,white,man,,,,,,,,
44438,,,external-html,1,47258,0.0-1.0,78526,List1A,white,man,consent.html,,,,,,,
9558,"<p>On the next page, you will see portraits of 8 people and their names.</p><p>Your first task is to take a few minutes to memorise the names of these people.</p><p>You will have to recall their names during the rest of the experiment, so it is</p><p>essential that you try to memorise these people and their names as best as you can.</p><br><p><strong>You will then be tested on your memory of these names and portraits.</strong></p><br><p>The experiment will start after you have completed this memory test.</p><br><p>Ready?</p>",0,html-button-response,2,56818,0.0-2.0,78526,List1A,white,man,,,,,,,,
74324,"<img src='img/portrait_matrix_list1.JPG' style='width:900px;height:500px;''></img><p>If you have memorised all the portraits and names and are ready to start, press Continue.</p><p><strong>Please note: Your memory of these faces will be tested 4 times during this experiment.</strong></p>",0,html-button-response,3,132144,0.0-3.0-0.0,78526,List1A,white,man,,,,,,,,
2804,"<img src=""portrait/WM2.jpg""style=""width:400px;height:400px;""></img>",7,html-button-response,4,135950,0.0-3.0-1.0,78526,List1A,white,man,,TRUE,7,,,,,
null,CORRECT,,html-keyboard-response,5,137453,0.0-3.0-2.0-0.0,78526,List1A,white,man,,,,null,,,,
3495,"<img src=""portrait/WM1.jpg""style=""width:400px;height:400px;""></img>",6,html-button-response,6,140950,0.0-3.0-4.0,78526,List1A,white,man,,TRUE,6,,,,,
null,CORRECT,,html-keyboard-response,7,142453,0.0-3.0-5.0-0.0,78526,List1A,white,man,,,,null,,,,
1756,"<img src=""portrait/BM2.jpg""style=""width:400px;height:400px;""></img>",5,html-button-response,8,144210,0.0-3.0-7.0,78526,List1A,white,man,,TRUE,5,,,,,
null,CORRECT,,html-keyboard-response,9,145713,0.0-3.0-8.0-0.0,78526,List1A,white,man,,,,null,,,,
2388,"<img src=""portrait/BW2.jpg""style=""width:400px;height:400px;""></img>",2,html-button-response,10,148102,0.0-3.0-10.0,78526,List1A,white,man,,TRUE,2,,,,,
null,CORRECT,,html-keyboard-response,11,149604,0.0-3.0-11.0-0.0,78526,List1A,white,man,,,,null,,,,
1975,"<img src=""portrait/BW1.jpg""style=""width:400px;height:400px;""></img>",0,html-button-response,12,151580,0.0-3.0-13.0,78526,List1A,white,man,,TRUE,0,,,,,
null,CORRECT,,html-keyboard-response,13,153083,0.0-3.0-14.0-0.0,78526,List1A,white,man,,,,null,,,,
3225,"<img src=""portrait/BM1.jpg""style=""width:400px;height:400px;""></img>",4,html-button-response,14,156310,0.0-3.0-16.0,78526,List1A,white,man,,TRUE,4,,,,,
null,CORRECT,,html-keyboard-response,15,157814,0.0-3.0-17.0-0.0,78526,List1A,white,man,,,,null,,,,
2861,"<img src=""portrait/WW1.jpg""style=""width:400px;height:400px;""></img>",1,html-button-response,16,160676,0.0-3.0-19.0,78526,List1A,white,man,,TRUE,1,,,,,
null,CORRECT,,html-keyboard-response,17,162180,0.0-3.0-20.0-0.0,78526,List1A,white,man,,,,null,,,,
1973,"<img src=""portrait/WW2.jpg""style=""width:400px;height:400px;""></img>",3,html-button-response,18,164154,0.0-3.0-22.0,78526,List1A,white,man,,TRUE,3,,,,,
null,CORRECT,,html-keyboard-response,19,165657,0.0-3.0-23.0-0.0,78526,List1A,white,man,,,,null,,,,
1525,<p>You got 8 out of 8 right first time. Press Continue.</p>,0,html-button-response,20,167184,0.0-3.0-25.0,78526,List1A,white,man,,,,,,,,
36335,"<p>In this experiment, you will view photographs of the people from the memory game interacting.</p><p>By using the <strong>exact</strong> phrase given <i>after</i> the photograph appears and recalling the correct names of the people in the photographs, form a sentence describing the interaction. You do not need to capitalise names.</p><p>Type your answer in the space provided. Please complete every sentence before moving onto the next trial.</p><p>You will only have a few seconds to memorise each given photograph and phrase before you can respond, so try your best to focus.</p><p>An example is given below. Press 'Continue' when you are ready.</p><img src='img/speaking_example_v2.jpg' style='width:800px;height:460px;''></img>",0,html-button-response,21,204522,0.0-4.0,78526,List1A,white,man,,,,,,,,
2447,"<p>Before the experiment starts, you will watch two example trials. Press 'Continue'.</p>",0,html-button-response,22,207969,0.0-5.0,78526,List1A,white,man,,,,,,,,
null,<img src='img/speaking_WW.gif'></img>,,html-keyboard-response,23,210971,0.0-6.0,78526,List1A,white,man,,,,null,,,,
null,<p>is speaking to</p>,,html-keyboard-response,24,212973,0.0-7.0,78526,List1A,white,man,,,,null,,,,
3786,<p><b>Answer:</b> kate is speaking to beth</p>,0,html-button-response,25,216760,0.0-8.0,78526,List1A,white,man,,,,,,,,
null,<img src='img/pointing_BM.gif'></img>,,html-keyboard-response,26,219761,0.0-9.0,78526,List1A,white,man,,,,null,,,,
null,<p>are pointing at each other</p>,,html-keyboard-response,27,221762,0.0-10.0,78526,List1A,white,man,,,,null,,,,
1843,<p><b>Answer:</b> luke and dave are pointing at each other</p>,0,html-button-response,28,223605,0.0-11.0,78526,List1A,white,man,,,,,,,,
15975,"<p>Ready to start the experiment?</p><br><p><strong>Remember to describe the picture using a full sentence,</strong></p><p><strong>that combines the names of the people with the given phrase.</strong></p><p><strong>If you do not do this correctly you will not be paid.</strong></p><p><strong> You do not need to capitalise names or use punctuation.</strong></p><br><p>Press 'Continue' to begin.</p>",0,html-button-response,29,240583,0.0-12.0,78526,List1A,white,man,,,,,,,,
null,"<div style=""font-size:60px;"">+</div>",,html-keyboard-response,30,242087,0.0-13.0-0.0,78526,List1A,white,man,,,,null,,,,
null,"<img src=""stim_listA/dance2.gif""</stim_listA>",,html-keyboard-response,31,244090,0.0-13.0-1.0,78526,List1A,white,man,,,,null,,,,
null,are dancing with each other,,html-keyboard-response,32,246091,0.0-13.0-2.0,78526,List1A,white,man,,,,null,,,,
11399,,,survey-text,33,257491,0.0-13.0-3.0,78526,List1A,white,man,,,,,"{""Q0"":""beth is dancing with mike""}","<img src=""stim_listA/dance2.gif""</stim_listA>",are dancing with each other,
null,"<div style=""font-size:60px;"">+</div>",,html-keyboard-response,34,257994,0.0-13.0-0.1,78526,List1A,white,man,,,,null,,,,
null,"<img src=""stim_listA/argue2.gif""</stim_listA>",,html-keyboard-response,35,259997,0.0-13.0-1.1,78526,List1A,white,man,,,,null,,,,
null,are arguing with each other,,html-keyboard-response,36,261998,0.0-13.0-2.1,78526,List1A,white,man,,,,null,,,,
12734,,,survey-text,37,274733,0.0-13.0-3.1,78526,List1A,white,man,,,,,"{""Q0"":""kate and fred are arguing with eachother""}","<img src=""stim_listA/argue2.gif""</stim_listA>",are arguing with each other,
null,"<div style=""font-size:60px;"">+</div>",,html-keyboard-response,38,275234,0.0-13.0-0.2,78526,List1A,white,man,,,,null,,,,
null,"<img src=""stim_listA/argue6.gif""</stim_listA>",,html-keyboard-response,39,277237,0.0-13.0-1.2,78526,List1A,white,man,,,,null,,,,
null,are arguing with each other,,html-keyboard-response,40,279238,0.0-13.0-2.2,78526,List1A,white,man,,,,null,,,,
8512,,,survey-text,41,287751,0.0-13.0-3.2,78526,List1A,white,man,,,,,"{""Q0"":""fred and david are arguing with eachother""}","<img src=""stim_listA/argue6.gif""</stim_listA>",are arguing with each other,
null,"<div style=""font-size:60px;"">+</div>",,html-keyboard-response,42,288252,0.0-13.0-0.3,78526,List1A,white,man,,,,null,,,,
null,"<img src=""stim_listA/hug7.gif""</stim_listA>",,html-keyboard-response,43,290255,0.0-13.0-1.3,78526,List1A,white,man,,,,null,,,,
null,is hugging,,html-keyboard-response,44,292256,0.0-13.0-2.3,78526,List1A,white,man,,,,null,,,,
5636,,,survey-text,45,297893,0.0-13.0-3.3,78526,List1A,white,man,,,,,"{""Q0"":""ruth is hugging beth""}","<img src=""stim_listA/hug7.gif""</stim_listA>",is hugging,
null,"<div style=""font-size:60px;"">+</div>",,html-keyboard-response,46,298394,0.0-13.0-0.4,78526,List1A,white,man,,,,null,,,,
null,"<img src=""stim_listA/hug8.gif""</stim_listA>",,html-keyboard-response,47,300396,0.0-13.0-1.4,78526,List1A,white,man,,,,null,,,,
null,are hugging each other,,html-keyboard-response,48,302398,0.0-13.0-2.4,78526,List1A,white,man,,,,null,,,,
7075,,,survey-text,49,309473,0.0-13.0-3.4,78526,List1A,white,man,,,,,"{""Q0"":""jane and kate are hugging eachother""}","<img src=""stim_listA/hug8.gif""</stim_listA>",are hugging each other,
null,"<div style=""font-size:60px;"">+</div>",,html-keyboard-response,50,309974,0.0-13.0-0.5,78526,List1A,white,man,,,,null,,,,
null,"<img src=""stim_listA/meet7.gif""</stim_listA>",,html-keyboard-response,51,311977,0.0-13.0-1.5,78526,List1A,white,man,,,,null,,,,
null,is meeting,,html-keyboard-response,52,313979,0.0-13.0-2.5,78526,List1A,white,man,,,,null,,,,
8440,,,survey-text,53,322419,0.0-13.0-3.5,78526,List1A,white,man,,,,,"{""Q0"":""kate is meeting jane""}","<img src=""stim_listA/meet7.gif""</stim_listA>",is meeting,
null,"<div style=""font-size:60px;"">+</div>",,html-keyboard-response,54,322921,0.0-13.0-0.6,78526,List1A,white,man,,,,null,,,,
null,"<img src=""stim_listA/marry6.gif""</stim_listA>",,html-keyboard-response,55,324924,0.0-13.0-1.6,78526,List1A,white,man,,,,null,,,,
null,are marrying each other,,html-keyboard-response,56,326926,0.0-13.0-2.6,78526,List1A,white,man,,,,null,,,,
8171,,,survey-text,57,335097,0.0-13.0-3.6,78526,List1A,white,man,,,,,"{""Q0"":""david and fred are marrying eachother""}","<img src=""stim_listA/marry6.gif""</stim_listA>",are marrying each other,
null,"<div style=""font-size:60px;"">+</div>",,html-keyboard-response,58,335599,0.0-13.0-0.7,78526,List1A,white,man,,,,null,,,,
null,"<img src=""stim_listA/shout8.gif""</stim_listA>",,html-keyboard-response,59,337602,0.0-13.0-1.7,78526,List1A,white,man,,,,null,,,,
null,are shouting at each other,,html-keyboard-response,60,339603,0.0-13.0-2.7,78526,List1A,white,man,,,,null,,,,
10276,,,survey-text,61,349880,0.0-13.0-3.7,78526,List1A,white,man,,,,,"{""Q0"":""kate and jane are shouting at eachother""}","<img src=""stim_listA/shout8.gif""</stim_listA>",are shouting at each other,
null,"<div style=""font-size:60px;"">+</div>",,html-keyboard-response,62,350382,0.0-13.0-0.8,78526,List1A,white,man,,,,null,,,,
null,"<img src=""stim_listA/argue3.gif""</stim_listA>",,html-keyboard-response,63,352385,0.0-13.0-1.8,78526,List1A,white,man,,,,null,,,,
null,is arguing with,,html-keyboard-response,64,354387,0.0-13.0-2.8,78526,List1A,white,man,,,,null,,,,
9232,,,survey-text,65,363619,0.0-13.0-3.8,78526,List1A,white,man,,,,,"{""Q0"":""ruth is arguing with david""}","<img src=""stim_listA/argue3.gif""</stim_listA>",is arguing with,
null,"<div style=""font-size:60px;"">+</div>",,html-keyboard-response,66,364122,0.0-13.0-0.9,78526,List1A,white,man,,,,null,,,,
null,"<img src=""stim_listA/marry3.gif""</stim_listA>",,html-keyboard-response,67,366123,0.0-13.0-1.9,78526,List1A,white,man,,,,null,,,,
null,is marrying,,html-keyboard-response,68,368125,0.0-13.0-2.9,78526,List1A,white,man,,,,null,,,,
6397,,,survey-text,69,374524,0.0-13.0-3.9,78526,List1A,white,man,,,,,"{""Q0"":""ruth is marrying david""}","<img src=""stim_listA/marry3.gif""</stim_listA>",is marrying,
null,"<div style=""font-size:60px;"">+</div>",,html-keyboard-response,70,375026,0.0-13.0-0.10,78526,List1A,white,man,,,,null,,,,
null,"<img src=""stim_listA/talk1.gif""</stim_listA>",,html-keyboard-response,71,377027,0.0-13.0-1.10,78526,List1A,white,man,,,,null,,,,
null,is talking to,,html-keyboard-response,72,379029,0.0-13.0-2.10,78526,List1A,white,man,,,,null,,,,
4656,,,survey-text,73,383686,0.0-13.0-3.10,78526,List1A,white,man,,,,,"{""Q0"":""kate is talking to fred""}","<img src=""stim_listA/talk1.gif""</stim_listA>",is talking to,
null,"<div style=""font-size:60px;"">+</div>",,html-keyboard-response,74,384186,0.0-13.0-0.11,78526,List1A,white,man,,,,null,,,,
null,"<img src=""stim_listA/argue8.gif""</stim_listA>",,html-keyboard-response,75,386188,0.0-13.0-1.11,78526,List1A,white,man,,,,null,,,,
null,are arguing with each other,,html-keyboard-response,76,388189,0.0-13.0-2.11,78526,List1A,white,man,,,,null,,,,
8660,,,survey-text,77,396849,0.0-13.0-3.11,78526,List1A,white,man,,,,,"{""Q0"":""beth and jane are arguing with eachother""}","<img src=""stim_listA/argue8.gif""</stim_listA>",are arguing with each other,
null,"<div style=""font-size:60px;"">+</div>",,html-keyboard-response,78,397351,0.0-13.0-0.12,78526,List1A,white,man,,,,null,,,,
null,"<img src=""stim_listA/dance1.gif""</stim_listA>",,html-keyboard-response,79,399354,0.0-13.0-1.12,78526,List1A,white,man,,,,null,,,,
null,is dancing with,,html-keyboard-response,80,401364,0.0-13.0-2.12,78526,List1A,white,man,,,,null,,,,
6364,,,survey-text,81,407729,0.0-13.0-3.12,78526,List1A,white,man,,,,,"{""Q0"":""fred is dancing with kate""}","<img src=""stim_listA/dance1.gif""</stim_listA>",is dancing with,
null,"<div style=""font-size:60px;"">+</div>",,html-keyboard-response,82,408232,0.0-13.0-0.13,78526,List1A,white,man,,,,null,,,,
null,"<img src=""stim_listA/kiss5.gif""</stim_listA>",,html-keyboard-response,83,410234,0.0-13.0-1.13,78526,List1A,white,man,,,,null,,,,
null,is kissing,,html-keyboard-response,84,412237,0.0-13.0-2.13,78526,List1A,white,man,,,,null,,,,
5220,,,survey-text,85,417457,0.0-13.0-3.13,78526,List1A,white,man,,,,,"{""Q0"":""luke is kissing fred""}","<img src=""stim_listA/kiss5.gif""</stim_listA>",is kissing,
null,"<div style=""font-size:60px;"">+</div>",,html-keyboard-response,86,417958,0.0-13.0-0.14,78526,List1A,white,man,,,,null,,,,
null,"<img src=""stim_listA/shout5.gif""</stim_listA>",,html-keyboard-response,87,419959,0.0-13.0-1.14,78526,List1A,white,man,,,,null,,,,
null,is shouting at,,html-keyboard-response,88,421960,0.0-13.0-2.14,78526,List1A,white,man,,,,null,,,,
5555,,,survey-text,89,427515,0.0-13.0-3.14,78526,List1A,white,man,,,,,"{""Q0"":""luke is shouting at fred""}","<img src=""stim_listA/shout5.gif""</stim_listA>",is shouting at,
null,"<div style=""font-size:60px;"">+</div>",,html-keyboard-response,90,428016,0.0-13.0-0.15,78526,List1A,white,man,,,,null,,,,
null,"<img src=""stim_listA/dance4.gif""</stim_listA>",,html-keyboard-response,91,430018,0.0-13.0-1.15,78526,List1A,white,man,,,,null,,,,
null,are dancing with each other,,html-keyboard-response,92,432019,0.0-13.0-2.15,78526,List1A,white,man,,,,null,,,,
9313,,,survey-text,93,441333,0.0-13.0-3.15,78526,List1A,white,man,,,,,"{""Q0"":""ruth and david are dancing with eachother""}","<img src=""stim_listA/dance4.gif""</stim_listA>",are dancing with each other,
null,"<div style=""font-size:60px;"">+</div>",,html-keyboard-response,94,441835,0.0-13.0-0.16,78526,List1A,white,man,,,,null,,,,
null,"<img src=""stim_listA/touch8.gif""</stim_listA>",,html-keyboard-response,95,443838,0.0-13.0-1.16,78526,List1A,white,man,,,,null,,,,
null,are touching each other,,html-keyboard-response,96,445839,0.0-13.0-2.16,78526,List1A,white,man,,,,null,,,,
7860,,,survey-text,97,453699,0.0-13.0-3.16,78526,List1A,white,man,,,,,"{""Q0"":""beth and ruth are touching eachother""}","<img src=""stim_listA/touch8.gif""</stim_listA>",are touching each other,
null,"<div style=""font-size:60px;"">+</div>",,html-keyboard-response,98,454201,0.0-13.0-0.17,78526,List1A,white,man,,,,null,,,,
null,"<img src=""stim_listA/marry5.gif""</stim_listA>",,html-keyboard-response,99,456203,0.0-13.0-1.17,78526,List1A,white,man,,,,null,,,,
null,is marrying,,html-keyboard-response,100,458204,0.0-13.0-2.17,78526,List1A,white,man,,,,null,,,,
6316,,,survey-text,101,464522,0.0-13.0-3.17,78526,List1A,white,man,,,,,"{""Q0"":""mike is marrying luke""}","<img src=""stim_listA/marry5.gif""</stim_listA>",is marrying,
null,"<div style=""font-size:60px;"">+</div>",,html-keyboard-response,102,465023,0.0-13.0-0.18,78526,List1A,white,man,,,,null,,,,
null,"<img src=""stim_listA/touch2.gif""</stim_listA>",,html-keyboard-response,103,467026,0.0-13.0-1.18,78526,List1A,white,man,,,,null,,,,
null,are touching each other,,html-keyboard-response,104,469027,0.0-13.0-2.18,78526,List1A,white,man,,,,null,,,,
6832,,,survey-text,105,475860,0.0-13.0-3.18,78526,List1A,white,man,,,,,"{""Q0"":""beth and fred are touching eachother""}","<img src=""stim_listA/touch2.gif""</stim_listA>",are touching each other,
null,"<div style=""font-size:60px;"">+</div>",,html-keyboard-response,106,476361,0.0-13.0-0.19,78526,List1A,white,man,,,,null,,,,
null,"<img src=""stim_listA/meet8.gif""</stim_listA>",,html-keyboard-response,107,478363,0.0-13.0-1.19,78526,List1A,white,man,,,,null,,,,
null,are meeting each other,,html-keyboard-response,108,480365,0.0-13.0-2.19,78526,List1A,white,man,,,,null,,,,
5784,,,survey-text,109,486149,0.0-13.0-3.19,78526,List1A,white,man,,,,,"{""Q0"":""ruth and beth are meeting eachother""}","<img src=""stim_listA/meet8.gif""</stim_listA>",are meeting each other,
60351,"<img src='img/portrait_matrix_list1.JPG' style='width:900px;height:500px;''></img><p>If you have memorised all the portraits and names and are ready to start, press Continue.</p><p><strong>Please note: Your memory of these faces will be tested 4 times during this experiment.</strong></p>",0,html-button-response,110,546501,0.0-14.0-0.0,78526,List1A,white,man,,,,,,,,
2338,"<img src=""portrait/WW2.jpg""style=""width:400px;height:400px;""></img>",3,html-button-response,111,549841,0.0-14.0-1.0,78526,List1A,white,man,,TRUE,3,,,,,
null,CORRECT,,html-keyboard-response,112,551343,0.0-14.0-2.0-0.0,78526,List1A,white,man,,,,null,,,,
3082,"<img src=""portrait/BW2.jpg""style=""width:400px;height:400px;""></img>",2,html-button-response,113,554425,0.0-14.0-4.0,78526,List1A,white,man,,TRUE,2,,,,,
null,CORRECT,,html-keyboard-response,114,555928,0.0-14.0-5.0-0.0,78526,List1A,white,man,,,,null,,,,
1670,"<img src=""portrait/BM1.jpg""style=""width:400px;height:400px;""></img>",4,html-button-response,115,557599,0.0-14.0-7.0,78526,List1A,white,man,,TRUE,4,,,,,
null,CORRECT,,html-keyboard-response,116,559101,0.0-14.0-8.0-0.0,78526,List1A,white,man,,,,null,,,,
2236,"<img src=""portrait/BM2.jpg""style=""width:400px;height:400px;""></img>",5,html-button-response,117,561337,0.0-14.0-10.0,78526,List1A,white,man,,TRUE,5,,,,,
null,CORRECT,,html-keyboard-response,118,562839,0.0-14.0-11.0-0.0,78526,List1A,white,man,,,,null,,,,
2039,"<img src=""portrait/WM2.jpg""style=""width:400px;height:400px;""></img>",7,html-button-response,119,564879,0.0-14.0-13.0,78526,List1A,white,man,,TRUE,7,,,,,
null,CORRECT,,html-keyboard-response,120,566380,0.0-14.0-14.0-0.0,78526,List1A,white,man,,,,null,,,,
1610,"<img src=""portrait/BW1.jpg""style=""width:400px;height:400px;""></img>",0,html-button-response,121,567991,0.0-14.0-16.0,78526,List1A,white,man,,TRUE,0,,,,,
null,CORRECT,,html-keyboard-response,122,569494,0.0-14.0-17.0-0.0,78526,List1A,white,man,,,,null,,,,
2585,"<img src=""portrait/WM1.jpg""style=""width:400px;height:400px;""></img>",6,html-button-response,123,572079,0.0-14.0-19.0,78526,List1A,white,man,,TRUE,6,,,,,
null,CORRECT,,html-keyboard-response,124,573581,0.0-14.0-20.0-0.0,78526,List1A,white,man,,,,null,,,,
2549,"<img src=""portrait/WW1.jpg""style=""width:400px;height:400px;""></img>",1,html-button-response,125,576131,0.0-14.0-22.0,78526,List1A,white,man,,TRUE,1,,,,,
null,CORRECT,,html-keyboard-response,126,577634,0.0-14.0-23.0-0.0,78526,List1A,white,man,,,,null,,,,
1757,<p>You got 8 out of 8 right first time. Press Continue.</p>,0,html-button-response,127,579391,0.0-14.0-25.0,78526,List1A,white,man,,,,,,,,
null,"<div style=""font-size:60px;"">+</div>",,html-keyboard-response,128,580895,0.0-15.0-0.0,78526,List1A,white,man,,,,null,,,,
null,"<img src=""stim_listA/kiss2.gif""</stim_listA>",,html-keyboard-response,129,582896,0.0-15.0-1.0,78526,List1A,white,man,,,,null,,,,
null,are kissing each other,,html-keyboard-response,130,584897,0.0-15.0-2.0,78526,List1A,white,man,,,,null,,,,
6300,,,survey-text,131,591197,0.0-15.0-3.0,78526,List1A,white,man,,,,,"{""Q0"":""kate and mike are kissing eachother""}","<img src=""stim_listA/kiss2.gif""</stim_listA>",are kissing each other,
null,"<div style=""font-size:60px;"">+</div>",,html-keyboard-response,132,591698,0.0-15.0-0.1,78526,List1A,white,man,,,,null,,,,
null,"<img src=""stim_listA/talk6.gif""</stim_listA>",,html-keyboard-response,133,593699,0.0-15.0-1.1,78526,List1A,white,man,,,,null,,,,
null,are talking to each other,,html-keyboard-response,134,595701,0.0-15.0-2.1,78526,List1A,white,man,,,,null,,,,
6244,,,survey-text,135,601945,0.0-15.0-3.1,78526,List1A,white,man,,,,,"{""Q0"":""luke and mike are talking to eachother""}","<img src=""stim_listA/talk6.gif""</stim_listA>",are talking to each other,
null,"<div style=""font-size:60px;"">+</div>",,html-keyboard-response,136,602447,0.0-15.0-0.2,78526,List1A,white,man,,,,null,,,,
null,"<img src=""stim_listA/kiss8.gif""</stim_listA>",,html-keyboard-response,137,604448,0.0-15.0-1.2,78526,List1A,white,man,,,,null,,,,
null,are kissing each other,,html-keyboard-response,138,606449,0.0-15.0-2.2,78526,List1A,white,man,,,,null,,,,
7439,,,survey-text,139,613889,0.0-15.0-3.2,78526,List1A,white,man,,,,,"{""Q0"":""kate and jane are kissing each other""}","<img src=""stim_listA/kiss8.gif""</stim_listA>",are kissing each other,
null,"<div style=""font-size:60px;"">+</div>",,html-keyboard-response,140,614391,0.0-15.0-0.3,78526,List1A,white,man,,,,null,,,,
null,"<img src=""stim_listA/dance8.gif""</stim_listA>",,html-keyboard-response,141,616393,0.0-15.0-1.3,78526,List1A,white,man,,,,null,,,,
null,are dancing with each other,,html-keyboard-response,142,618394,0.0-15.0-2.3,78526,List1A,white,man,,,,null,,,,
6351,,,survey-text,143,624745,0.0-15.0-3.3,78526,List1A,white,man,,,,,"{""Q0"":""ruth and kate are dancing with each other""}","<img src=""stim_listA/dance8.gif""</stim_listA>",are dancing with each other,
null,"<div style=""font-size:60px;"">+</div>",,html-keyboard-response,144,625247,0.0-15.0-0.4,78526,List1A,white,man,,,,null,,,,
null,"<img src=""stim_listA/touch6.gif""</stim_listA>",,html-keyboard-response,145,627248,0.0-15.0-1.4,78526,List1A,white,man,,,,null,,,,
null,are touching each other,,html-keyboard-response,146,629250,0.0-15.0-2.4,78526,List1A,white,man,,,,null,,,,
7492,,,survey-text,147,636744,0.0-15.0-3.4,78526,List1A,white,man,,,,,"{""Q0"":""luke and fred are touching each other""}","<img src=""stim_listA/touch6.gif""</stim_listA>",are touching each other,
null,"<div style=""font-size:60px;"">+</div>",,html-keyboard-response,148,637246,0.0-15.0-0.5,78526,List1A,white,man,,,,null,,,,
null,"<img src=""stim_listA/fight5.gif""</stim_listA>",,html-keyboard-response,149,639247,0.0-15.0-1.5,78526,List1A,white,man,,,,null,,,,
null,is fighting,,html-keyboard-response,150,641249,0.0-15.0-2.5,78526,List1A,white,man,,,,null,,,,
5093,,,survey-text,151,646344,0.0-15.0-3.5,78526,List1A,white,man,,,,,"{""Q0"":""mike is fighting dave""}","<img src=""stim_listA/fight5.gif""</stim_listA>",is fighting,
null,"<div style=""font-size:60px;"">+</div>",,html-keyboard-response,152,646844,0.0-15.0-0.6,78526,List1A,white,man,,,,null,,,,
null,"<img src=""stim_listA/meet3.gif""</stim_listA>",,html-keyboard-response,153,648846,0.0-15.0-1.6,78526,List1A,white,man,,,,null,,,,
null,is meeting,,html-keyboard-response,154,650847,0.0-15.0-2.6,78526,List1A,white,man,,,,null,,,,
4532,,,survey-text,155,655380,0.0-15.0-3.6,78526,List1A,white,man,,,,,"{""Q0"":""dave is meeting jane""}","<img src=""stim_listA/meet3.gif""</stim_listA>",is meeting,
null,"<div style=""font-size:60px;"">+</div>",,html-keyboard-response,156,655881,0.0-15.0-0.7,78526,List1A,white,man,,,,null,,,,
null,"<img src=""stim_listA/touch4.gif""</stim_listA>",,html-keyboard-response,157,657883,0.0-15.0-1.7,78526,List1A,white,man,,,,null,,,,
null,are touching each other,,html-keyboard-response,158,659885,0.0-15.0-2.7,78526,List1A,white,man,,,,null,,,,
6394,,,survey-text,159,666280,0.0-15.0-3.7,78526,List1A,white,man,,,,,"{""Q0"":""ruth and luke are touching each other""}","<img src=""stim_listA/touch4.gif""</stim_listA>",are touching each other,
null,"<div style=""font-size:60px;"">+</div>",,html-keyboard-response,160,666782,0.0-15.0-0.8,78526,List1A,white,man,,,,null,,,,
null,"<img src=""stim_listA/shout6.gif""</stim_listA>",,html-keyboard-response,161,668784,0.0-15.0-1.8,78526,List1A,white,man,,,,null,,,,
null,are shouting at each other,,html-keyboard-response,162,670786,0.0-15.0-2.8,78526,List1A,white,man,,,,null,,,,
7376,,,survey-text,163,678164,0.0-15.0-3.8,78526,List1A,white,man,,,,,"{""Q0"":""dave and mike are shouting at each other""}","<img src=""stim_listA/shout6.gif""</stim_listA>",are shouting at each other,
null,"<div style=""font-size:60px;"">+</div>",,html-keyboard-response,164,678666,0.0-15.0-0.9,78526,List1A,white,man,,,,null,,,,
null,"<img src=""stim_listA/shout4.gif""</stim_listA>",,html-keyboard-response,165,680667,0.0-15.0-1.9,78526,List1A,white,man,,,,null,,,,
null,are shouting at each other,,html-keyboard-response,166,682669,0.0-15.0-2.9,78526,List1A,white,man,,,,null,,,,
6181,,,survey-text,167,688851,0.0-15.0-3.9,78526,List1A,white,man,,,,,"{""Q0"":""dave and jane are shouting at eachother""}","<img src=""stim_listA/shout4.gif""</stim_listA>",are shouting at each other,
null,"<div style=""font-size:60px;"">+</div>",,html-keyboard-response,168,689353,0.0-15.0-0.10,78526,List1A,white,man,,,,null,,,,
null,"<img src=""stim_listA/talk3.gif""</stim_listA>",,html-keyboard-response,169,691355,0.0-15.0-1.10,78526,List1A,white,man,,,,null,,,,
null,is talking to,,html-keyboard-response,170,693357,0.0-15.0-2.10,78526,List1A,white,man,,,,null,,,,
4864,,,survey-text,171,698222,0.0-15.0-3.10,78526,List1A,white,man,,,,,"{""Q0"":""jane is talking to luke""}","<img src=""stim_listA/talk3.gif""</stim_listA>",is talking to,
null,"<div style=""font-size:60px;"">+</div>",,html-keyboard-response,172,698723,0.0-15.0-0.11,78526,List1A,white,man,,,,null,,,,
null,"<img src=""stim_listA/marry2.gif""</stim_listA>",,html-keyboard-response,173,700726,0.0-15.0-1.11,78526,List1A,white,man,,,,null,,,,
null,are marrying each other,,html-keyboard-response,174,702726,0.0-15.0-2.11,78526,List1A,white,man,,,,null,,,,
8384,,,survey-text,175,711111,0.0-15.0-3.11,78526,List1A,white,man,,,,,"{""Q0"":""kate and fred are marrying each other""}","<img src=""stim_listA/marry2.gif""</stim_listA>",are marrying each other,
null,"<div style=""font-size:60px;"">+</div>",,html-keyboard-response,176,711612,0.0-15.0-0.12,78526,List1A,white,man,,,,null,,,,
null,"<img src=""stim_listA/hug1.gif""</stim_listA>",,html-keyboard-response,177,713614,0.0-15.0-1.12,78526,List1A,white,man,,,,null,,,,
null,is hugging,,html-keyboard-response,178,715617,0.0-15.0-2.12,78526,List1A,white,man,,,,null,,,,
4708,,,survey-text,179,720325,0.0-15.0-3.12,78526,List1A,white,man,,,,,"{""Q0"":""fred is hugging beth""}","<img src=""stim_listA/hug1.gif""</stim_listA>",is hugging,
null,"<div style=""font-size:60px;"">+</div>",,html-keyboard-response,180,720826,0.0-15.0-0.13,78526,List1A,white,man,,,,null,,,,
null,"<img src=""stim_listA/meet6.gif""</stim_listA>",,html-keyboard-response,181,722828,0.0-15.0-1.13,78526,List1A,white,man,,,,null,,,,
null,are meeting each other,,html-keyboard-response,182,724829,0.0-15.0-2.13,78526,List1A,white,man,,,,null,,,,
6308,,,survey-text,183,731137,0.0-15.0-3.13,78526,List1A,white,man,,,,,"{""Q0"":""fred and luke are meeting each other""}","<img src=""stim_listA/meet6.gif""</stim_listA>",are meeting each other,
null,"<div style=""font-size:60px;"">+</div>",,html-keyboard-response,184,731638,0.0-15.0-0.14,78526,List1A,white,man,,,,null,,,,
null,"<img src=""stim_listA/marry4.gif""</stim_listA>",,html-keyboard-response,185,733641,0.0-15.0-1.14,78526,List1A,white,man,,,,null,,,,
null,are marrying each other,,html-keyboard-response,186,735642,0.0-15.0-2.14,78526,List1A,white,man,,,,null,,,,
6231,,,survey-text,187,741873,0.0-15.0-3.14,78526,List1A,white,man,,,,,"{""Q0"":""jane and luke are marrying each other""}","<img src=""stim_listA/marry4.gif""</stim_listA>",are marrying each other,
null,"<div style=""font-size:60px;"">+</div>",,html-keyboard-response,188,742375,0.0-15.0-0.15,78526,List1A,white,man,,,,null,,,,
null,"<img src=""stim_listA/fight1.gif""</stim_listA>",,html-keyboard-response,189,744376,0.0-15.0-1.15,78526,List1A,white,man,,,,null,,,,
null,is fighting,,html-keyboard-response,190,746377,0.0-15.0-2.15,78526,List1A,white,man,,,,null,,,,
5882,,,survey-text,191,752259,0.0-15.0-3.15,78526,List1A,white,man,,,,,"{""Q0"":""kate is fighting mike""}","<img src=""stim_listA/fight1.gif""</stim_listA>",is fighting,
null,"<div style=""font-size:60px;"">+</div>",,html-keyboard-response,192,752760,0.0-15.0-0.16,78526,List1A,white,man,,,,null,,,,
null,"<img src=""stim_listA/dance7.gif""</stim_listA>",,html-keyboard-response,193,754762,0.0-15.0-1.16,78526,List1A,white,man,,,,null,,,,
null,is dancing with,,html-keyboard-response,194,756763,0.0-15.0-2.16,78526,List1A,white,man,,,,null,,,,
6479,,,survey-text,195,763243,0.0-15.0-3.16,78526,List1A,white,man,,,,,"{""Q0"":""beth is dancing with jane""}","<img src=""stim_listA/dance7.gif""</stim_listA>",is dancing with,
null,"<div style=""font-size:60px;"">+</div>",,html-keyboard-response,196,763745,0.0-15.0-0.17,78526,List1A,white,man,,,,null,,,,
null,"<img src=""stim_listA/fight6.gif""</stim_listA>",,html-keyboard-response,197,765746,0.0-15.0-1.17,78526,List1A,white,man,,,,null,,,,
null,are fighting each other,,html-keyboard-response,198,767748,0.0-15.0-2.17,78526,List1A,white,man,,,,null,,,,
9225,,,survey-text,199,776973,0.0-15.0-3.17,78526,List1A,white,man,,,,,"{""Q0"":""fred and luke are fighting each other""}","<img src=""stim_listA/fight6.gif""</stim_listA>",are fighting each other,
null,"<div style=""font-size:60px;"">+</div>",,html-keyboard-response,200,777475,0.0-15.0-0.18,78526,List1A,white,man,,,,null,,,,
null,"<img src=""stim_listA/fight3.gif""</stim_listA>",,html-keyboard-response,201,779477,0.0-15.0-1.18,78526,List1A,white,man,,,,null,,,,
null,is fighting,,html-keyboard-response,202,781478,0.0-15.0-2.18,78526,List1A,white,man,,,,null,,,,
6447,,,survey-text,203,787925,0.0-15.0-3.18,78526,List1A,white,man,,,,,"{""Q0"":""dave is fighting jane""}","<img src=""stim_listA/fight3.gif""</stim_listA>",is fighting,
null,"<div style=""font-size:60px;"">+</div>",,html-keyboard-response,204,788426,0.0-15.0-0.19,78526,List1A,white,man,,,,null,,,,
null,"<img src=""stim_listA/meet2.gif""</stim_listA>",,html-keyboard-response,205,790429,0.0-15.0-1.19,78526,List1A,white,man,,,,null,,,,
null,are meeting each other,,html-keyboard-response,206,792431,0.0-15.0-2.19,78526,List1A,white,man,,,,null,,,,
6724,,,survey-text,207,799155,0.0-15.0-3.19,78526,List1A,white,man,,,,,"{""Q0"":""beth and fred are meeting each other""}","<img src=""stim_listA/meet2.gif""</stim_listA>",are meeting each other,
49744,"<img src='img/portrait_matrix_list1.JPG' style='width:900px;height:500px;''></img><p>If you have memorised all the portraits and names and are ready to start, press Continue.</p><p><strong>Please note: Your memory of these faces will be tested 4 times during this experiment.</strong></p>",0,html-button-response,208,848900,0.0-16.0-0.0,78526,List1A,white,man,,,,,,,,
1806,"<img src=""portrait/WW1.jpg""style=""width:400px;height:400px;""></img>",1,html-button-response,209,851708,0.0-16.0-1.0,78526,List1A,white,man,,TRUE,1,,,,,
null,CORRECT,,html-keyboard-response,210,853211,0.0-16.0-2.0-0.0,78526,List1A,white,man,,,,null,,,,
3436,"<img src=""portrait/BM2.jpg""style=""width:400px;height:400px;""></img>",5,html-button-response,211,856648,0.0-16.0-4.0,78526,List1A,white,man,,TRUE,5,,,,,
null,CORRECT,,html-keyboard-response,212,858150,0.0-16.0-5.0-0.0,78526,List1A,white,man,,,,null,,,,
1573,"<img src=""portrait/BW2.jpg""style=""width:400px;height:400px;""></img>",2,html-button-response,213,859724,0.0-16.0-7.0,78526,List1A,white,man,,TRUE,2,,,,,
null,CORRECT,,html-keyboard-response,214,861226,0.0-16.0-8.0-0.0,78526,List1A,white,man,,,,null,,,,
1607,"<img src=""portrait/BM1.jpg""style=""width:400px;height:400px;""></img>",4,html-button-response,215,862834,0.0-16.0-10.0,78526,List1A,white,man,,TRUE,4,,,,,
null,CORRECT,,html-keyboard-response,216,864336,0.0-16.0-11.0-0.0,78526,List1A,white,man,,,,null,,,,
1880,"<img src=""portrait/WM1.jpg""style=""width:400px;height:400px;""></img>",6,html-button-response,217,866218,0.0-16.0-13.0,78526,List1A,white,man,,TRUE,6,,,,,
null,CORRECT,,html-keyboard-response,218,867720,0.0-16.0-14.0-0.0,78526,List1A,white,man,,,,null,,,,
1808,"<img src=""portrait/WW2.jpg""style=""width:400px;height:400px;""></img>",3,html-button-response,219,869530,0.0-16.0-16.0,78526,List1A,white,man,,TRUE,3,,,,,
null,CORRECT,,html-keyboard-response,220,871033,0.0-16.0-17.0-0.0,78526,List1A,white,man,,,,null,,,,
2256,"<img src=""portrait/BW1.jpg""style=""width:400px;height:400px;""></img>",0,html-button-response,221,873290,0.0-16.0-19.0,78526,List1A,white,man,,TRUE,0,,,,,
null,CORRECT,,html-keyboard-response,222,874791,0.0-16.0-20.0-0.0,78526,List1A,white,man,,,,null,,,,
1514,"<img src=""portrait/WM2.jpg""style=""width:400px;height:400px;""></img>",7,html-button-response,223,876306,0.0-16.0-22.0,78526,List1A,white,man,,TRUE,7,,,,,
null,CORRECT,,html-keyboard-response,224,877807,0.0-16.0-23.0-0.0,78526,List1A,white,man,,,,null,,,,
1156,<p>You got 8 out of 8 right first time. Press Continue.</p>,0,html-button-response,225,878966,0.0-16.0-25.0,78526,List1A,white,man,,,,,,,,
null,"<div style=""font-size:60px;"">+</div>",,html-keyboard-response,226,880469,0.0-17.0-0.0,78526,List1A,white,man,,,,null,,,,
null,"<img src=""stim_listA/dance6.gif""</stim_listA>",,html-keyboard-response,227,882470,0.0-17.0-1.0,78526,List1A,white,man,,,,null,,,,
null,are dancing with each other,,html-keyboard-response,228,884472,0.0-17.0-2.0,78526,List1A,white,man,,,,null,,,,
8329,,,survey-text,229,892803,0.0-17.0-3.0,78526,List1A,white,man,,,,,"{""Q0"":""mike and luke are dancing with each other""}","<img src=""stim_listA/dance6.gif""</stim_listA>",are dancing with each other,
null,"<div style=""font-size:60px;"">+</div>",,html-keyboard-response,230,893304,0.0-17.0-0.1,78526,List1A,white,man,,,,null,,,,
null,"<img src=""stim_listA/dance5.gif""</stim_listA>",,html-keyboard-response,231,895307,0.0-17.0-1.1,78526,List1A,white,man,,,,null,,,,
null,is dancing with,,html-keyboard-response,232,897307,0.0-17.0-2.1,78526,List1A,white,man,,,,null,,,,
5236,,,survey-text,233,902545,0.0-17.0-3.1,78526,List1A,white,man,,,,,"{""Q0"":""dave is dancing with fred""}","<img src=""stim_listA/dance5.gif""</stim_listA>",is dancing with,
null,"<div style=""font-size:60px;"">+</div>",,html-keyboard-response,234,903047,0.0-17.0-0.2,78526,List1A,white,man,,,,null,,,,
null,"<img src=""stim_listA/touch7.gif""</stim_listA>",,html-keyboard-response,235,905049,0.0-17.0-1.2,78526,List1A,white,man,,,,null,,,,
null,is touching,,html-keyboard-response,236,907049,0.0-17.0-2.2,78526,List1A,white,man,,,,null,,,,
5102,,,survey-text,237,912153,0.0-17.0-3.2,78526,List1A,white,man,,,,,"{""Q0"":""kate is touching jane""}","<img src=""stim_listA/touch7.gif""</stim_listA>",is touching,
null,"<div style=""font-size:60px;"">+</div>",,html-keyboard-response,238,912654,0.0-17.0-0.3,78526,List1A,white,man,,,,null,,,,
null,"<img src=""stim_listA/talk7.gif""</stim_listA>",,html-keyboard-response,239,914656,0.0-17.0-1.3,78526,List1A,white,man,,,,null,,,,
null,is talking to,,html-keyboard-response,240,916658,0.0-17.0-2.3,78526,List1A,white,man,,,,null,,,,
5132,,,survey-text,241,921791,0.0-17.0-3.3,78526,List1A,white,man,,,,,"{""Q0"":""beth is talking to jane""}","<img src=""stim_listA/talk7.gif""</stim_listA>",is talking to,
null,"<div style=""font-size:60px;"">+</div>",,html-keyboard-response,242,922292,0.0-17.0-0.4,78526,List1A,white,man,,,,null,,,,
null,"<img src=""stim_listA/hug3.gif""</stim_listA>",,html-keyboard-response,243,924293,0.0-17.0-1.4,78526,List1A,white,man,,,,null,,,,
null,is hugging,,html-keyboard-response,244,926294,0.0-17.0-2.4,78526,List1A,white,man,,,,null,,,,
5174,,,survey-text,245,931468,0.0-17.0-3.4,78526,List1A,white,man,,,,,"{""Q0"":""luke is hugging ruth""}","<img src=""stim_listA/hug3.gif""</stim_listA>",is hugging,
null,"<div style=""font-size:60px;"">+</div>",,html-keyboard-response,246,931970,0.0-17.0-0.5,78526,List1A,white,man,,,,null,,,,
null,"<img src=""stim_listA/kiss4.gif""</stim_listA>",,html-keyboard-response,247,933972,0.0-17.0-1.5,78526,List1A,white,man,,,,null,,,,
null,are kissing each other,,html-keyboard-response,248,935973,0.0-17.0-2.5,78526,List1A,white,man,,,,null,,,,
7051,,,survey-text,249,943025,0.0-17.0-3.5,78526,List1A,white,man,,,,,"{""Q0"":""jane and dave are kissing each other""}","<img src=""stim_listA/kiss4.gif""</stim_listA>",are kissing each other,
null,"<div style=""font-size:60px;"">+</div>",,html-keyboard-response,250,943527,0.0-17.0-0.6,78526,List1A,white,man,,,,null,,,,
null,"<img src=""stim_listA/meet1.gif""</stim_listA>",,html-keyboard-response,251,945528,0.0-17.0-1.6,78526,List1A,white,man,,,,null,,,,
null,is meeting,,html-keyboard-response,252,947529,0.0-17.0-2.6,78526,List1A,white,man,,,,null,,,,
4350,,,survey-text,253,951881,0.0-17.0-3.6,78526,List1A,white,man,,,,,"{""Q0"":""mike is meeting kate""}","<img src=""stim_listA/meet1.gif""</stim_listA>",is meeting,
null,"<div style=""font-size:60px;"">+</div>",,html-keyboard-response,254,952382,0.0-17.0-0.7,78526,List1A,white,man,,,,null,,,,
null,"<img src=""stim_listA/shout7.gif""</stim_listA>",,html-keyboard-response,255,954385,0.0-17.0-1.7,78526,List1A,white,man,,,,null,,,,
null,is shouting at,,html-keyboard-response,256,956387,0.0-17.0-2.7,78526,List1A,white,man,,,,null,,,,
6506,,,survey-text,257,962895,0.0-17.0-3.7,78526,List1A,white,man,,,,,"{""Q0"":""beth is shouting at ruth""}","<img src=""stim_listA/shout7.gif""</stim_listA>",is shouting at,
null,"<div style=""font-size:60px;"">+</div>",,html-keyboard-response,258,963397,0.0-17.0-0.8,78526,List1A,white,man,,,,null,,,,
null,"<img src=""stim_listA/marry8.gif""</stim_listA>",,html-keyboard-response,259,965399,0.0-17.0-1.8,78526,List1A,white,man,,,,null,,,,
null,are marrying each other,,html-keyboard-response,260,967399,0.0-17.0-2.8,78526,List1A,white,man,,,,null,,,,
8936,,,survey-text,261,976337,0.0-17.0-3.8,78526,List1A,white,man,,,,,"{""Q0"":""jane and beth are marrying each other""}","<img src=""stim_listA/marry8.gif""</stim_listA>",are marrying each other,
null,"<div style=""font-size:60px;"">+</div>",,html-keyboard-response,262,976839,0.0-17.0-0.9,78526,List1A,white,man,,,,null,,,,
null,"<img src=""stim_listA/talk4.gif""</stim_listA>",,html-keyboard-response,263,978841,0.0-17.0-1.9,78526,List1A,white,man,,,,null,,,,
null,are talking to each other,,html-keyboard-response,264,980843,0.0-17.0-2.9,78526,List1A,white,man,,,,null,,,,
9241,,,survey-text,265,990085,0.0-17.0-3.9,78526,List1A,white,man,,,,,"{""Q0"":""ruth and dave are talking to each other""}","<img src=""stim_listA/talk4.gif""</stim_listA>",are talking to each other,
null,"<div style=""font-size:60px;"">+</div>",,html-keyboard-response,266,990587,0.0-17.0-0.10,78526,List1A,white,man,,,,null,,,,
null,"<img src=""stim_listA/argue4.gif""</stim_listA>",,html-keyboard-response,267,992588,0.0-17.0-1.10,78526,List1A,white,man,,,,null,,,,
null,are arguing with each other,,html-keyboard-response,268,994588,0.0-17.0-2.10,78526,List1A,white,man,,,,null,,,,
7671,,,survey-text,269,1002261,0.0-17.0-3.10,78526,List1A,white,man,,,,,"{""Q0"":""luke and jane are arguing with each other""}","<img src=""stim_listA/argue4.gif""</stim_listA>",are arguing with each other,
null,"<div style=""font-size:60px;"">+</div>",,html-keyboard-response,270,1002761,0.0-17.0-0.11,78526,List1A,white,man,,,,null,,,,
null,"<img src=""stim_listA/kiss7.gif""</stim_listA>",,html-keyboard-response,271,1004763,0.0-17.0-1.11,78526,List1A,white,man,,,,null,,,,
null,is kissing,,html-keyboard-response,272,1006766,0.0-17.0-2.11,78526,List1A,white,man,,,,null,,,,
4309,,,survey-text,273,1011075,0.0-17.0-3.11,78526,List1A,white,man,,,,,"{""Q0"":""beth is kissing ruth""}","<img src=""stim_listA/kiss7.gif""</stim_listA>",is kissing,
null,"<div style=""font-size:60px;"">+</div>",,html-keyboard-response,274,1011577,0.0-17.0-0.12,78526,List1A,white,man,,,,null,,,,
null,"<img src=""stim_listA/marry1.gif""</stim_listA>",,html-keyboard-response,275,1013578,0.0-17.0-1.12,78526,List1A,white,man,,,,null,,,,
null,is marrying,,html-keyboard-response,276,1015578,0.0-17.0-2.12,78526,List1A,white,man,,,,null,,,,
4470,,,survey-text,277,1020049,0.0-17.0-3.12,78526,List1A,white,man,,,,,"{""Q0"":""mike is marrying beth""}","<img src=""stim_listA/marry1.gif""</stim_listA>",is marrying,
null,"<div style=""font-size:60px;"">+</div>",,html-keyboard-response,278,1020551,0.0-17.0-0.13,78526,List1A,white,man,,,,null,,,,
null,"<img src=""stim_listA/kiss1.gif""</stim_listA>",,html-keyboard-response,279,1022552,0.0-17.0-1.13,78526,List1A,white,man,,,,null,,,,
null,is kissing,,html-keyboard-response,280,1024552,0.0-17.0-2.13,78526,List1A,white,man,,,,null,,,,
5006,,,survey-text,281,1029559,0.0-17.0-3.13,78526,List1A,white,man,,,,,"{""Q0"":""beth is kissing fred""}","<img src=""stim_listA/kiss1.gif""</stim_listA>",is kissing,
null,"<div style=""font-size:60px;"">+</div>",,html-keyboard-response,282,1030062,0.0-17.0-0.14,78526,List1A,white,man,,,,null,,,,
null,"<img src=""stim_listA/argue1.gif""</stim_listA>",,html-keyboard-response,283,1032064,0.0-17.0-1.14,78526,List1A,white,man,,,,null,,,,
null,is arguing with,,html-keyboard-response,284,1034066,0.0-17.0-2.14,78526,List1A,white,man,,,,null,,,,
7077,,,survey-text,285,1041143,0.0-17.0-3.14,78526,List1A,white,man,,,,,"{""Q0"":""beth is arguing with mike""}","<img src=""stim_listA/argue1.gif""</stim_listA>",is arguing with,
null,"<div style=""font-size:60px;"">+</div>",,html-keyboard-response,286,1041644,0.0-17.0-0.15,78526,List1A,white,man,,,,null,,,,
null,"<img src=""stim_listA/hug5.gif""</stim_listA>",,html-keyboard-response,287,1043647,0.0-17.0-1.15,78526,List1A,white,man,,,,null,,,,
null,is hugging,,html-keyboard-response,288,1045647,0.0-17.0-2.15,78526,List1A,white,man,,,,null,,,,
7203,,,survey-text,289,1052851,0.0-17.0-3.15,78526,List1A,white,man,,,,,"{""Q0"":""fred is hugging luke""}","<img src=""stim_listA/hug5.gif""</stim_listA>",is hugging,
null,"<div style=""font-size:60px;"">+</div>",,html-keyboard-response,290,1053352,0.0-17.0-0.16,78526,List1A,white,man,,,,null,,,,
null,"<img src=""stim_listA/kiss3.gif""</stim_listA>",,html-keyboard-response,291,1055353,0.0-17.0-1.16,78526,List1A,white,man,,,,null,,,,
null,is kissing,,html-keyboard-response,292,1057355,0.0-17.0-2.16,78526,List1A,white,man,,,,null,,,,
6982,,,survey-text,293,1064337,0.0-17.0-3.16,78526,List1A,white,man,,,,,"{""Q0"":""ruth is kissing luke""}","<img src=""stim_listA/kiss3.gif""</stim_listA>",is kissing,
null,"<div style=""font-size:60px;"">+</div>",,html-keyboard-response,294,1064838,0.0-17.0-0.17,78526,List1A,white,man,,,,null,,,,
null,"<img src=""stim_listA/fight8.gif""</stim_listA>",,html-keyboard-response,295,1066839,0.0-17.0-1.17,78526,List1A,white,man,,,,null,,,,
null,are fighting each other,,html-keyboard-response,296,1068840,0.0-17.0-2.17,78526,List1A,white,man,,,,null,,,,
10450,,,survey-text,297,1079291,0.0-17.0-3.17,78526,List1A,white,man,,,,,"{""Q0"":""beth and ruth are fighting each other""}","<img src=""stim_listA/fight8.gif""</stim_listA>",are fighting each other,
null,"<div style=""font-size:60px;"">+</div>",,html-keyboard-response,298,1079792,0.0-17.0-0.18,78526,List1A,white,man,,,,null,,,,
null,"<img src=""stim_listA/fight7.gif""</stim_listA>",,html-keyboard-response,299,1081794,0.0-17.0-1.18,78526,List1A,white,man,,,,null,,,,
null,is fighting,,html-keyboard-response,300,1083794,0.0-17.0-2.18,78526,List1A,white,man,,,,null,,,,
4824,,,survey-text,301,1088619,0.0-17.0-3.18,78526,List1A,white,man,,,,,"{""Q0"":""kate is fighting jane""}","<img src=""stim_listA/fight7.gif""</stim_listA>",is fighting,
null,"<div style=""font-size:60px;"">+</div>",,html-keyboard-response,302,1089120,0.0-17.0-0.19,78526,List1A,white,man,,,,null,,,,
null,"<img src=""stim_listA/kiss6.gif""</stim_listA>",,html-keyboard-response,303,1091121,0.0-17.0-1.19,78526,List1A,white,man,,,,null,,,,
null,are kissing each other,,html-keyboard-response,304,1093122,0.0-17.0-2.19,78526,List1A,white,man,,,,null,,,,
6597,,,survey-text,305,1099719,0.0-17.0-3.19,78526,List1A,white,man,,,,,"{""Q0"":""dave and mike are kissing each other""}","<img src=""stim_listA/kiss6.gif""</stim_listA>",are kissing each other,
56722,"<img src='img/portrait_matrix_list1.JPG' style='width:900px;height:500px;''></img><p>If you have memorised all the portraits and names and are ready to start, press Continue.</p><p><strong>Please note: Your memory of these faces will be tested 4 times during this experiment.</strong></p>",0,html-button-response,306,1156442,0.0-18.0-0.0,78526,List1A,white,man,,,,,,,,
2813,"<img src=""portrait/WM1.jpg""style=""width:400px;height:400px;""></img>",6,html-button-response,307,1160257,0.0-18.0-1.0,78526,List1A,white,man,,TRUE,6,,,,,
null,CORRECT,,html-keyboard-response,308,1161761,0.0-18.0-2.0-0.0,78526,List1A,white,man,,,,null,,,,
2427,"<img src=""portrait/WW1.jpg""style=""width:400px;height:400px;""></img>",1,html-button-response,309,1164189,0.0-18.0-4.0,78526,List1A,white,man,,TRUE,1,,,,,
null,CORRECT,,html-keyboard-response,310,1165692,0.0-18.0-5.0-0.0,78526,List1A,white,man,,,,null,,,,
1584,"<img src=""portrait/BM1.jpg""style=""width:400px;height:400px;""></img>",4,html-button-response,311,1167276,0.0-18.0-7.0,78526,List1A,white,man,,TRUE,4,,,,,
null,CORRECT,,html-keyboard-response,312,1168778,0.0-18.0-8.0-0.0,78526,List1A,white,man,,,,null,,,,
2011,"<img src=""portrait/BW2.jpg""style=""width:400px;height:400px;""></img>",2,html-button-response,313,1170790,0.0-18.0-10.0,78526,List1A,white,man,,TRUE,2,,,,,
null,CORRECT,,html-keyboard-response,314,1172293,0.0-18.0-11.0-0.0,78526,List1A,white,man,,,,null,,,,
1418,"<img src=""portrait/WM2.jpg""style=""width:400px;height:400px;""></img>",7,html-button-response,315,1173713,0.0-18.0-13.0,78526,List1A,white,man,,TRUE,7,,,,,
null,CORRECT,,html-keyboard-response,316,1175217,0.0-18.0-14.0-0.0,78526,List1A,white,man,,,,null,,,,
2129,"<img src=""portrait/BW1.jpg""style=""width:400px;height:400px;""></img>",0,html-button-response,317,1177346,0.0-18.0-16.0,78526,List1A,white,man,,TRUE,0,,,,,
null,CORRECT,,html-keyboard-response,318,1178849,0.0-18.0-17.0-0.0,78526,List1A,white,man,,,,null,,,,
1129,"<img src=""portrait/WW2.jpg""style=""width:400px;height:400px;""></img>",3,html-button-response,319,1179979,0.0-18.0-19.0,78526,List1A,white,man,,TRUE,3,,,,,
null,CORRECT,,html-keyboard-response,320,1181482,0.0-18.0-20.0-0.0,78526,List1A,white,man,,,,null,,,,
1684,"<img src=""portrait/BM2.jpg""style=""width:400px;height:400px;""></img>",5,html-button-response,321,1183167,0.0-18.0-22.0,78526,List1A,white,man,,TRUE,5,,,,,
null,CORRECT,,html-keyboard-response,322,1184670,0.0-18.0-23.0-0.0,78526,List1A,white,man,,,,null,,,,
963,<p>You got 8 out of 8 right first time. Press Continue.</p>,0,html-button-response,323,1185634,0.0-18.0-25.0,78526,List1A,white,man,,,,,,,,
null,"<div style=""font-size:60px;"">+</div>",,html-keyboard-response,324,1187137,0.0-19.0-0.0,78526,List1A,white,man,,,,null,,,,
null,"<img src=""stim_listA/marry7.gif""</stim_listA>",,html-keyboard-response,325,1189138,0.0-19.0-1.0,78526,List1A,white,man,,,,null,,,,
null,is marrying,,html-keyboard-response,326,1191141,0.0-19.0-2.0,78526,List1A,white,man,,,,null,,,,
7105,,,survey-text,327,1198246,0.0-19.0-3.0,78526,List1A,white,man,,,,,"{""Q0"":""kate is marrying ruth""}","<img src=""stim_listA/marry7.gif""</stim_listA>",is marrying,
null,"<div style=""font-size:60px;"">+</div>",,html-keyboard-response,328,1198747,0.0-19.0-0.1,78526,List1A,white,man,,,,null,,,,
null,"<img src=""stim_listA/shout2.gif""</stim_listA>",,html-keyboard-response,329,1200748,0.0-19.0-1.1,78526,List1A,white,man,,,,null,,,,
null,are shouting at each other,,html-keyboard-response,330,1202749,0.0-19.0-2.1,78526,List1A,white,man,,,,null,,,,
7682,,,survey-text,331,1210432,0.0-19.0-3.1,78526,List1A,white,man,,,,,"{""Q0"":""kate and mike are shouting at each other""}","<img src=""stim_listA/shout2.gif""</stim_listA>",are shouting at each other,
null,"<div style=""font-size:60px;"">+</div>",,html-keyboard-response,332,1210935,0.0-19.0-0.2,78526,List1A,white,man,,,,null,,,,
null,"<img src=""stim_listA/shout1.gif""</stim_listA>",,html-keyboard-response,333,1212936,0.0-19.0-1.2,78526,List1A,white,man,,,,null,,,,
null,is shouting at,,html-keyboard-response,334,1214937,0.0-19.0-2.2,78526,List1A,white,man,,,,null,,,,
5560,,,survey-text,335,1220498,0.0-19.0-3.2,78526,List1A,white,man,,,,,"{""Q0"":""beth is shouting at fred""}","<img src=""stim_listA/shout1.gif""</stim_listA>",is shouting at,
null,"<div style=""font-size:60px;"">+</div>",,html-keyboard-response,336,1220999,0.0-19.0-0.3,78526,List1A,white,man,,,,null,,,,
null,"<img src=""stim_listA/dance3.gif""</stim_listA>",,html-keyboard-response,337,1223001,0.0-19.0-1.3,78526,List1A,white,man,,,,null,,,,
null,is dancing with,,html-keyboard-response,338,1225003,0.0-19.0-2.3,78526,List1A,white,man,,,,null,,,,
5054,,,survey-text,339,1230058,0.0-19.0-3.3,78526,List1A,white,man,,,,,"{""Q0"":""luke is dancing with jane""}","<img src=""stim_listA/dance3.gif""</stim_listA>",is dancing with,
null,"<div style=""font-size:60px;"">+</div>",,html-keyboard-response,340,1230559,0.0-19.0-0.4,78526,List1A,white,man,,,,null,,,,
null,"<img src=""stim_listA/talk5.gif""</stim_listA>",,html-keyboard-response,341,1232561,0.0-19.0-1.4,78526,List1A,white,man,,,,null,,,,
null,is talking to,,html-keyboard-response,342,1234562,0.0-19.0-2.4,78526,List1A,white,man,,,,null,,,,
4254,,,survey-text,343,1238816,0.0-19.0-3.4,78526,List1A,white,man,,,,,"{""Q0"":""dave is talking to fred""}","<img src=""stim_listA/talk5.gif""</stim_listA>",is talking to,
null,"<div style=""font-size:60px;"">+</div>",,html-keyboard-response,344,1239318,0.0-19.0-0.5,78526,List1A,white,man,,,,null,,,,
null,"<img src=""stim_listA/talk8.gif""</stim_listA>",,html-keyboard-response,345,1241319,0.0-19.0-1.5,78526,List1A,white,man,,,,null,,,,
null,are talking to each other,,html-keyboard-response,346,1243327,0.0-19.0-2.5,78526,List1A,white,man,,,,null,,,,
7591,,,survey-text,347,1250918,0.0-19.0-3.5,78526,List1A,white,man,,,,,"{""Q0"":""ruth and kate are talking to each other""}","<img src=""stim_listA/talk8.gif""</stim_listA>",are talking to each other,
null,"<div style=""font-size:60px;"">+</div>",,html-keyboard-response,348,1251420,0.0-19.0-0.6,78526,List1A,white,man,,,,null,,,,
null,"<img src=""stim_listA/hug4.gif""</stim_listA>",,html-keyboard-response,349,1253422,0.0-19.0-1.6,78526,List1A,white,man,,,,null,,,,
null,are hugging each other,,html-keyboard-response,350,1255424,0.0-19.0-2.6,78526,List1A,white,man,,,,null,,,,
7347,,,survey-text,351,1262772,0.0-19.0-3.6,78526,List1A,white,man,,,,,"{""Q0"":""jane and dave are hugging each other""}","<img src=""stim_listA/hug4.gif""</stim_listA>",are hugging each other,
null,"<div style=""font-size:60px;"">+</div>",,html-keyboard-response,352,1263274,0.0-19.0-0.7,78526,List1A,white,man,,,,null,,,,
null,"<img src=""stim_listA/fight2.gif""</stim_listA>",,html-keyboard-response,353,1265274,0.0-19.0-1.7,78526,List1A,white,man,,,,null,,,,
null,are fighting each other,,html-keyboard-response,354,1267277,0.0-19.0-2.7,78526,List1A,white,man,,,,null,,,,
8215,,,survey-text,355,1275492,0.0-19.0-3.7,78526,List1A,white,man,,,,,"{""Q0"":""beth and fred are fighting each other""}","<img src=""stim_listA/fight2.gif""</stim_listA>",are fighting each other,
null,"<div style=""font-size:60px;"">+</div>",,html-keyboard-response,356,1275994,0.0-19.0-0.8,78526,List1A,white,man,,,,null,,,,
null,"<img src=""stim_listA/touch1.gif""</stim_listA>",,html-keyboard-response,357,1277995,0.0-19.0-1.8,78526,List1A,white,man,,,,null,,,,
null,is touching,,html-keyboard-response,358,1279997,0.0-19.0-2.8,78526,List1A,white,man,,,,null,,,,
5513,,,survey-text,359,1285510,0.0-19.0-3.8,78526,List1A,white,man,,,,,"{""Q0"":""mike is touching kate""}","<img src=""stim_listA/touch1.gif""</stim_listA>",is touching,
null,"<div style=""font-size:60px;"">+</div>",,html-keyboard-response,360,1286011,0.0-19.0-0.9,78526,List1A,white,man,,,,null,,,,
null,"<img src=""stim_listA/fight4.gif""</stim_listA>",,html-keyboard-response,361,1288012,0.0-19.0-1.9,78526,List1A,white,man,,,,null,,,,
null,are fighting each other,,html-keyboard-response,362,1290014,0.0-19.0-2.9,78526,List1A,white,man,,,,null,,,,
8266,,,survey-text,363,1298280,0.0-19.0-3.9,78526,List1A,white,man,,,,,"{""Q0"":""ruth and luke are fighting each other""}","<img src=""stim_listA/fight4.gif""</stim_listA>",are fighting each other,
null,"<div style=""font-size:60px;"">+</div>",,html-keyboard-response,364,1298783,0.0-19.0-0.10,78526,List1A,white,man,,,,null,,,,
null,"<img src=""stim_listA/touch3.gif""</stim_listA>",,html-keyboard-response,365,1300785,0.0-19.0-1.10,78526,List1A,white,man,,,,null,,,,
null,is touching,,html-keyboard-response,366,1302787,0.0-19.0-2.10,78526,List1A,white,man,,,,null,,,,
4828,,,survey-text,367,1307616,0.0-19.0-3.10,78526,List1A,white,man,,,,,"{""Q0"":""dave is touching jane""}","<img src=""stim_listA/touch3.gif""</stim_listA>",is touching,
null,"<div style=""font-size:60px;"">+</div>",,html-keyboard-response,368,1308117,0.0-19.0-0.11,78526,List1A,white,man,,,,null,,,,
null,"<img src=""stim_listA/argue7.gif""</stim_listA>",,html-keyboard-response,369,1310120,0.0-19.0-1.11,78526,List1A,white,man,,,,null,,,,
null,is arguing with,,html-keyboard-response,370,1312121,0.0-19.0-2.11,78526,List1A,white,man,,,,null,,,,
5916,,,survey-text,371,1318037,0.0-19.0-3.11,78526,List1A,white,man,,,,,"{""Q0"":""kate is arguing with ruth""}","<img src=""stim_listA/argue7.gif""</stim_listA>",is arguing with,
null,"<div style=""font-size:60px;"">+</div>",,html-keyboard-response,372,1318538,0.0-19.0-0.12,78526,List1A,white,man,,,,null,,,,
null,"<img src=""stim_listA/hug2.gif""</stim_listA>",,html-keyboard-response,373,1320540,0.0-19.0-1.12,78526,List1A,white,man,,,,null,,,,
null,are hugging each other,,html-keyboard-response,374,1322542,0.0-19.0-2.12,78526,List1A,white,man,,,,null,,,,
10406,,,survey-text,375,1332949,0.0-19.0-3.12,78526,List1A,white,man,,,,,"{""Q0"":""kate and mike are hugging each other""}","<img src=""stim_listA/hug2.gif""</stim_listA>",are hugging each other,
null,"<div style=""font-size:60px;"">+</div>",,html-keyboard-response,376,1333451,0.0-19.0-0.13,78526,List1A,white,man,,,,null,,,,
null,"<img src=""stim_listA/argue5.gif""</stim_listA>",,html-keyboard-response,377,1335453,0.0-19.0-1.13,78526,List1A,white,man,,,,null,,,,
null,is arguing with,,html-keyboard-response,378,1337455,0.0-19.0-2.13,78526,List1A,white,man,,,,null,,,,
5989,,,survey-text,379,1343445,0.0-19.0-3.13,78526,List1A,white,man,,,,,"{""Q0"":""mike is arguing with luke""}","<img src=""stim_listA/argue5.gif""</stim_listA>",is arguing with,
null,"<div style=""font-size:60px;"">+</div>",,html-keyboard-response,380,1343946,0.0-19.0-0.14,78526,List1A,white,man,,,,null,,,,
null,"<img src=""stim_listA/meet5.gif""</stim_listA>",,html-keyboard-response,381,1345947,0.0-19.0-1.14,78526,List1A,white,man,,,,null,,,,
null,is meeting,,html-keyboard-response,382,1347948,0.0-19.0-2.14,78526,List1A,white,man,,,,null,,,,
5866,,,survey-text,383,1353815,0.0-19.0-3.14,78526,List1A,white,man,,,,,"{""Q0"":""mike is meeting dave""}","<img src=""stim_listA/meet5.gif""</stim_listA>",is meeting,
null,"<div style=""font-size:60px;"">+</div>",,html-keyboard-response,384,1354316,0.0-19.0-0.15,78526,List1A,white,man,,,,null,,,,
null,"<img src=""stim_listA/hug6.gif""</stim_listA>",,html-keyboard-response,385,1356318,0.0-19.0-1.15,78526,List1A,white,man,,,,null,,,,
null,are hugging each other,,html-keyboard-response,386,1358320,0.0-19.0-2.15,78526,List1A,white,man,,,,null,,,,
6911,,,survey-text,387,1365232,0.0-19.0-3.15,78526,List1A,white,man,,,,,"{""Q0"":""dave and mike are hugging each other""}","<img src=""stim_listA/hug6.gif""</stim_listA>",are hugging each other,
null,"<div style=""font-size:60px;"">+</div>",,html-keyboard-response,388,1365733,0.0-19.0-0.16,78526,List1A,white,man,,,,null,,,,
null,"<img src=""stim_listA/touch5.gif""</stim_listA>",,html-keyboard-response,389,1367734,0.0-19.0-1.16,78526,List1A,white,man,,,,null,,,,
null,is touching,,html-keyboard-response,390,1369735,0.0-19.0-2.16,78526,List1A,white,man,,,,null,,,,
5415,,,survey-text,391,1375150,0.0-19.0-3.16,78526,List1A,white,man,,,,,"{""Q0"":""mike is touching dave""}","<img src=""stim_listA/touch5.gif""</stim_listA>",is touching,
null,"<div style=""font-size:60px;"">+</div>",,html-keyboard-response,392,1375651,0.0-19.0-0.17,78526,List1A,white,man,,,,null,,,,
null,"<img src=""stim_listA/talk2.gif""</stim_listA>",,html-keyboard-response,393,1377652,0.0-19.0-1.17,78526,List1A,white,man,,,,null,,,,
null,are talking to each other,,html-keyboard-response,394,1379653,0.0-19.0-2.17,78526,List1A,white,man,,,,null,,,,
7268,,,survey-text,395,1386922,0.0-19.0-3.17,78526,List1A,white,man,,,,,"{""Q0"":""beth and mike are talking to each other""}","<img src=""stim_listA/talk2.gif""</stim_listA>",are talking to each other,
null,"<div style=""font-size:60px;"">+</div>",,html-keyboard-response,396,1387423,0.0-19.0-0.18,78526,List1A,white,man,,,,null,,,,
null,"<img src=""stim_listA/meet4.gif""</stim_listA>",,html-keyboard-response,397,1389425,0.0-19.0-1.18,78526,List1A,white,man,,,,null,,,,
null,are meeting each other,,html-keyboard-response,398,1391426,0.0-19.0-2.18,78526,List1A,white,man,,,,null,,,,
6745,,,survey-text,399,1398172,0.0-19.0-3.18,78526,List1A,white,man,,,,,"{""Q0"":""ruth and luke are meeting each other""}","<img src=""stim_listA/meet4.gif""</stim_listA>",are meeting each other,
null,"<div style=""font-size:60px;"">+</div>",,html-keyboard-response,400,1398673,0.0-19.0-0.19,78526,List1A,white,man,,,,null,,,,
null,"<img src=""stim_listA/shout3.gif""</stim_listA>",,html-keyboard-response,401,1400676,0.0-19.0-1.19,78526,List1A,white,man,,,,null,,,,
null,is shouting at,,html-keyboard-response,402,1402677,0.0-19.0-2.19,78526,List1A,white,man,,,,null,,,,
8099,,,survey-text,403,1410776,0.0-19.0-3.19,78526,List1A,white,man,,,,,"{""Q0"":""ruth is shouting at luke""}","<img src=""stim_listA/shout3.gif""</stim_listA>",is shouting at,
2031,<p>Thank you for completing that task.</p><p>The final part of this session is a short questionnaire.</p><p>Press Continue.</p>,0,html-button-response,404,1412808,0.0-20.0,78526,List1A,white,man,,,,,,,,
16814,,,survey-text,405,1430624,0.0-21.0,78526,List1A,white,man,,,,,"{""Q0"":""30"",""Q1"":""English"",""Q2"":""English"",""Q3"":""Canada"",""Q4"":""White/Caucasian"",""Q5"":""Male""}",,,demographics
53751,,,survey-likert,406,1484380,0.0-22.0,78526,List1A,white,man,,,,,"{""Q0"":3,""Q1"":3,""Q2"":3,""Q3"":5,""Q4"":3,""Q5"":5,""Q6"":3,""Q7"":1,""Q8"":1,""Q9"":1,""Q10"":5,""Q11"":5,""Q12"":2,""Q13"":1}",,,likert_race
50445,,,survey-likert,407,1534830,0.0-23.0,78526,List1A,white,man,,,,,"{""Q0"":4,""Q1"":3,""Q2"":5,""Q3"":5,""Q4"":5,""Q5"":5,""Q6"":4,""Q7"":1,""Q8"":3,""Q9"":1,""Q10"":5,""Q11"":5,""Q12"":4,""Q13"":1}",,,likert_gender
5873,,,survey-text,408,1540704,0.0-24.0,78526,List1A,white,man,,,,,"{""Q0"":""ccc""}",,,worker_id
41014,,,external-html,409,1582070,0.0-25.0,78526,List1A,white,man,debrief.html,,,,,,,
