rt,stimulus,button_pressed,trial_type,trial_index,time_elapsed,internal_node_id,subject,list,ppt_race,ppt_gender,url,first_guess,correct,key_press,responses,image_type,phrase_type,test_part
2233,Welcome to the experiment. Press Continue to begin.,0,html-button-response,0,2237,0.0-0.0,78985,List1A,black,woman,,,,,,,,
28499,,,external-html,1,31855,0.0-1.0,78985,List1A,black,woman,consent.html,,,,,,,
15858,"<p>On the next page, you will see portraits of 8 people and their names.</p><p>Your first task is to take a few minutes to memorise the names of these people.</p><p>You will have to recall their names during the rest of the experiment, so it is</p><p>essential that you try to memorise these people and their names as best as you can.</p><br><p><strong>You will then be tested on your memory of these names and portraits.</strong></p><br><p>The experiment will start after you have completed this memory test.</p><br><p>Ready?</p>",0,html-button-response,2,47716,0.0-2.0,78985,List1A,black,woman,,,,,,,,
83985,"<img src='img/portrait_matrix_list1.JPG' style='width:900px;height:500px;''></img><p>If you have memorised all the portraits and names and are ready to start, press Continue.</p><p><strong>Please note: Your memory of these faces will be tested 4 times during this experiment.</strong></p>",0,html-button-response,3,132704,0.0-3.0-0.0,78985,List1A,black,woman,,,,,,,,
3016,"<img src=""portrait/BW1.jpg""style=""width:400px;height:400px;""></img>",0,html-button-response,4,136726,0.0-3.0-1.0,78985,List1A,black,woman,,TRUE,0,,,,,
null,CORRECT,,html-keyboard-response,5,138235,0.0-3.0-2.0-0.0,78985,List1A,black,woman,,,,null,,,,
2687,"<img src=""portrait/WW1.jpg""style=""width:400px;height:400px;""></img>",1,html-button-response,6,140926,0.0-3.0-4.0,78985,List1A,black,woman,,TRUE,1,,,,,
null,CORRECT,,html-keyboard-response,7,142430,0.0-3.0-5.0-0.0,78985,List1A,black,woman,,,,null,,,,
7093,"<img src=""portrait/BM1.jpg""style=""width:400px;height:400px;""></img>",4,html-button-response,8,149526,0.0-3.0-7.0,78985,List1A,black,woman,,TRUE,4,,,,,
null,CORRECT,,html-keyboard-response,9,151037,0.0-3.0-8.0-0.0,78985,List1A,black,woman,,,,null,,,,
2770,"<img src=""portrait/BW2.jpg""style=""width:400px;height:400px;""></img>",2,html-button-response,10,153810,0.0-3.0-10.0,78985,List1A,black,woman,,TRUE,2,,,,,
null,CORRECT,,html-keyboard-response,11,155315,0.0-3.0-11.0-0.0,78985,List1A,black,woman,,,,null,,,,
2982,"<img src=""portrait/WM1.jpg""style=""width:400px;height:400px;""></img>",6,html-button-response,12,158303,0.0-3.0-13.0,78985,List1A,black,woman,,TRUE,6,,,,,
null,CORRECT,,html-keyboard-response,13,159808,0.0-3.0-14.0-0.0,78985,List1A,black,woman,,,,null,,,,
2549,"<img src=""portrait/WW2.jpg""style=""width:400px;height:400px;""></img>",3,html-button-response,14,162361,0.0-3.0-16.0,78985,List1A,black,woman,,TRUE,3,,,,,
null,CORRECT,,html-keyboard-response,15,163865,0.0-3.0-17.0-0.0,78985,List1A,black,woman,,,,null,,,,
2767,"<img src=""portrait/BM2.jpg""style=""width:400px;height:400px;""></img>",5,html-button-response,16,166637,0.0-3.0-19.0,78985,List1A,black,woman,,TRUE,5,,,,,
null,CORRECT,,html-keyboard-response,17,168141,0.0-3.0-20.0-0.0,78985,List1A,black,woman,,,,null,,,,
2609,"<img src=""portrait/WM2.jpg""style=""width:400px;height:400px;""></img>",7,html-button-response,18,170754,0.0-3.0-22.0,78985,List1A,black,woman,,TRUE,7,,,,,
null,CORRECT,,html-keyboard-response,19,172258,0.0-3.0-23.0-0.0,78985,List1A,black,woman,,,,null,,,,
3718,<p>You got 8 out of 8 right first time. Press Continue.</p>,0,html-button-response,20,175980,0.0-3.0-25.0,78985,List1A,black,woman,,,,,,,,
49623,"<p>In this experiment, you will view photographs of the people from the memory game interacting.</p><p>By using the <strong>exact</strong> phrase given <i>after</i> the photograph appears and recalling the correct names of the people in the photographs, form a sentence describing the interaction. You do not need to capitalise names.</p><p>Type your answer in the space provided. Please complete every sentence before moving onto the next trial.</p><p>You will only have a few seconds to memorise each given photograph and phrase before you can respond, so try your best to focus.</p><p>An example is given below. Press 'Continue' when you are ready.</p><img src='img/speaking_example_v2.jpg' style='width:800px;height:460px;''></img>",0,html-button-response,21,226610,0.0-4.0,78985,List1A,black,woman,,,,,,,,
4939,"<p>Before the experiment starts, you will watch two example trials. Press 'Continue'.</p>",0,html-button-response,22,232552,0.0-5.0,78985,List1A,black,woman,,,,,,,,
null,<img src='img/speaking_WW.gif'></img>,,html-keyboard-response,23,235557,0.0-6.0,78985,List1A,black,woman,,,,null,,,,
null,<p>is speaking to</p>,,html-keyboard-response,24,237560,0.0-7.0,78985,List1A,black,woman,,,,null,,,,
4889,<p><b>Answer:</b> kate is speaking to beth</p>,0,html-button-response,25,242453,0.0-8.0,78985,List1A,black,woman,,,,,,,,
null,<img src='img/pointing_BM.gif'></img>,,html-keyboard-response,26,245456,0.0-9.0,78985,List1A,black,woman,,,,null,,,,
null,<p>are pointing at each other</p>,,html-keyboard-response,27,247464,0.0-10.0,78985,List1A,black,woman,,,,null,,,,
6311,<p><b>Answer:</b> luke and dave are pointing at each other</p>,0,html-button-response,28,253779,0.0-11.0,78985,List1A,black,woman,,,,,,,,
9131,"<p>Ready to start the experiment?</p><br><p><strong>Remember to describe the picture using a full sentence,</strong></p><p><strong> that combines the names of the people with the given phrase.</strong></p><p><strong> You do not need to capitalise names or use punctuation.</strong></p><br><p>Press 'Continue' to begin.</p>",0,html-button-response,29,263914,0.0-12.0,78985,List1A,black,woman,,,,,,,,
null,"<div style=""font-size:60px;"">+</div>",,html-keyboard-response,30,265418,0.0-13.0-0.0,78985,List1A,black,woman,,,,null,,,,
null,"<img src=""stim_listA/shout1.gif""</stim_listA>",,html-keyboard-response,31,267424,0.0-13.0-1.0,78985,List1A,black,woman,,,,null,,,,
null,is shouting at,,html-keyboard-response,32,269428,0.0-13.0-2.0,78985,List1A,black,woman,,,,null,,,,
27322,,,survey-text,33,296756,0.0-13.0-3.0,78985,List1A,black,woman,,,,,"{""Q0"":""Fred and Beth are shouting at each other.""}","<img src=""stim_listA/shout1.gif""</stim_listA>",is shouting at,
null,"<div style=""font-size:60px;"">+</div>",,html-keyboard-response,34,297260,0.0-13.0-0.1,78985,List1A,black,woman,,,,null,,,,
null,"<img src=""stim_listA/kiss6.gif""</stim_listA>",,html-keyboard-response,35,299264,0.0-13.0-1.1,78985,List1A,black,woman,,,,null,,,,
null,are kissing each other,,html-keyboard-response,36,301268,0.0-13.0-2.1,78985,List1A,black,woman,,,,null,,,,
39145,,,survey-text,37,340417,0.0-13.0-3.1,78985,List1A,black,woman,,,,,"{""Q0"":""Dave and Mike are kissing each other.""}","<img src=""stim_listA/kiss6.gif""</stim_listA>",are kissing each other,
null,"<div style=""font-size:60px;"">+</div>",,html-keyboard-response,38,340920,0.0-13.0-0.2,78985,List1A,black,woman,,,,null,,,,
null,"<img src=""stim_listA/fight8.gif""</stim_listA>",,html-keyboard-response,39,342924,0.0-13.0-1.2,78985,List1A,black,woman,,,,null,,,,
null,are fighting each other,,html-keyboard-response,40,344928,0.0-13.0-2.2,78985,List1A,black,woman,,,,null,,,,
24382,,,survey-text,41,369313,0.0-13.0-3.2,78985,List1A,black,woman,,,,,"{""Q0"":""Ruth and Beth are fighting each other.""}","<img src=""stim_listA/fight8.gif""</stim_listA>",are fighting each other,
null,"<div style=""font-size:60px;"">+</div>",,html-keyboard-response,42,369816,0.0-13.0-0.3,78985,List1A,black,woman,,,,null,,,,
null,"<img src=""stim_listA/meet1.gif""</stim_listA>",,html-keyboard-response,43,371820,0.0-13.0-1.3,78985,List1A,black,woman,,,,null,,,,
null,is meeting,,html-keyboard-response,44,373824,0.0-13.0-2.3,78985,List1A,black,woman,,,,null,,,,
21130,,,survey-text,45,394957,0.0-13.0-3.3,78985,List1A,black,woman,,,,,"{""Q0"":""Mike is meeting Kate.""}","<img src=""stim_listA/meet1.gif""</stim_listA>",is meeting,
null,"<div style=""font-size:60px;"">+</div>",,html-keyboard-response,46,395460,0.0-13.0-0.4,78985,List1A,black,woman,,,,null,,,,
null,"<img src=""stim_listA/fight4.gif""</stim_listA>",,html-keyboard-response,47,397465,0.0-13.0-1.4,78985,List1A,black,woman,,,,null,,,,
null,are fighting each other,,html-keyboard-response,48,399468,0.0-13.0-2.4,78985,List1A,black,woman,,,,null,,,,
18379,,,survey-text,49,417851,0.0-13.0-3.4,78985,List1A,black,woman,,,,,"{""Q0"":""Ruth and Luke are fighting each other.""}","<img src=""stim_listA/fight4.gif""</stim_listA>",are fighting each other,
null,"<div style=""font-size:60px;"">+</div>",,html-keyboard-response,50,418355,0.0-13.0-0.5,78985,List1A,black,woman,,,,null,,,,
null,"<img src=""stim_listA/kiss3.gif""</stim_listA>",,html-keyboard-response,51,420359,0.0-13.0-1.5,78985,List1A,black,woman,,,,null,,,,
null,is kissing,,html-keyboard-response,52,422363,0.0-13.0-2.5,78985,List1A,black,woman,,,,null,,,,
16537,,,survey-text,53,438903,0.0-13.0-3.5,78985,List1A,black,woman,,,,,"{""Q0"":""Ruth and Dave are kissing each other.""}","<img src=""stim_listA/kiss3.gif""</stim_listA>",is kissing,
null,"<div style=""font-size:60px;"">+</div>",,html-keyboard-response,54,439409,0.0-13.0-0.6,78985,List1A,black,woman,,,,null,,,,
null,"<img src=""stim_listA/shout8.gif""</stim_listA>",,html-keyboard-response,55,441413,0.0-13.0-1.6,78985,List1A,black,woman,,,,null,,,,
null,are shouting at each other,,html-keyboard-response,56,443417,0.0-13.0-2.6,78985,List1A,black,woman,,,,null,,,,
14051,,,survey-text,57,457472,0.0-13.0-3.6,78985,List1A,black,woman,,,,,"{""Q0"":""Jane and Kate are shouting at each other.""}","<img src=""stim_listA/shout8.gif""</stim_listA>",are shouting at each other,
null,"<div style=""font-size:60px;"">+</div>",,html-keyboard-response,58,457976,0.0-13.0-0.7,78985,List1A,black,woman,,,,null,,,,
null,"<img src=""stim_listA/fight6.gif""</stim_listA>",,html-keyboard-response,59,459980,0.0-13.0-1.7,78985,List1A,black,woman,,,,null,,,,
null,are fighting each other,,html-keyboard-response,60,461984,0.0-13.0-2.7,78985,List1A,black,woman,,,,null,,,,
13828,,,survey-text,61,475815,0.0-13.0-3.7,78985,List1A,black,woman,,,,,"{""Q0"":""Fred and Luke are fighting each other.""}","<img src=""stim_listA/fight6.gif""</stim_listA>",are fighting each other,
null,"<div style=""font-size:60px;"">+</div>",,html-keyboard-response,62,476318,0.0-13.0-0.8,78985,List1A,black,woman,,,,null,,,,
null,"<img src=""stim_listA/dance3.gif""</stim_listA>",,html-keyboard-response,63,478322,0.0-13.0-1.8,78985,List1A,black,woman,,,,null,,,,
null,is dancing with,,html-keyboard-response,64,480326,0.0-13.0-2.8,78985,List1A,black,woman,,,,null,,,,
10962,,,survey-text,65,491290,0.0-13.0-3.8,78985,List1A,black,woman,,,,,"{""Q0"":""Jane is dancing with Luke.""}","<img src=""stim_listA/dance3.gif""</stim_listA>",is dancing with,
null,"<div style=""font-size:60px;"">+</div>",,html-keyboard-response,66,491794,0.0-13.0-0.9,78985,List1A,black,woman,,,,null,,,,
null,"<img src=""stim_listA/touch8.gif""</stim_listA>",,html-keyboard-response,67,493798,0.0-13.0-1.9,78985,List1A,black,woman,,,,null,,,,
null,are touching each other,,html-keyboard-response,68,495802,0.0-13.0-2.9,78985,List1A,black,woman,,,,null,,,,
12496,,,survey-text,69,508301,0.0-13.0-3.9,78985,List1A,black,woman,,,,,"{""Q0"":""Ruth and Beth are touching each other.""}","<img src=""stim_listA/touch8.gif""</stim_listA>",are touching each other,
null,"<div style=""font-size:60px;"">+</div>",,html-keyboard-response,70,508805,0.0-13.0-0.10,78985,List1A,black,woman,,,,null,,,,
null,"<img src=""stim_listA/fight3.gif""</stim_listA>",,html-keyboard-response,71,510809,0.0-13.0-1.10,78985,List1A,black,woman,,,,null,,,,
null,is fighting,,html-keyboard-response,72,512813,0.0-13.0-2.10,78985,List1A,black,woman,,,,null,,,,
9671,,,survey-text,73,522487,0.0-13.0-3.10,78985,List1A,black,woman,,,,,"{""Q0"":""Jane is fighting Dave.""}","<img src=""stim_listA/fight3.gif""</stim_listA>",is fighting,
null,"<div style=""font-size:60px;"">+</div>",,html-keyboard-response,74,522990,0.0-13.0-0.11,78985,List1A,black,woman,,,,null,,,,
null,"<img src=""stim_listA/dance5.gif""</stim_listA>",,html-keyboard-response,75,524994,0.0-13.0-1.11,78985,List1A,black,woman,,,,null,,,,
null,is dancing with,,html-keyboard-response,76,526998,0.0-13.0-2.11,78985,List1A,black,woman,,,,null,,,,
15561,,,survey-text,77,542563,0.0-13.0-3.11,78985,List1A,black,woman,,,,,"{""Q0"":""Fred is dancing with Dave.""}","<img src=""stim_listA/dance5.gif""</stim_listA>",is dancing with,
null,"<div style=""font-size:60px;"">+</div>",,html-keyboard-response,78,543066,0.0-13.0-0.12,78985,List1A,black,woman,,,,null,,,,
null,"<img src=""stim_listA/talk5.gif""</stim_listA>",,html-keyboard-response,79,545070,0.0-13.0-1.12,78985,List1A,black,woman,,,,null,,,,
null,is talking to,,html-keyboard-response,80,547074,0.0-13.0-2.12,78985,List1A,black,woman,,,,null,,,,
9396,,,survey-text,81,556473,0.0-13.0-3.12,78985,List1A,black,woman,,,,,"{""Q0"":""Fred is talking to Dave.""}","<img src=""stim_listA/talk5.gif""</stim_listA>",is talking to,
null,"<div style=""font-size:60px;"">+</div>",,html-keyboard-response,82,556977,0.0-13.0-0.13,78985,List1A,black,woman,,,,null,,,,
null,"<img src=""stim_listA/argue6.gif""</stim_listA>",,html-keyboard-response,83,558980,0.0-13.0-1.13,78985,List1A,black,woman,,,,null,,,,
null,are arguing with each other,,html-keyboard-response,84,560984,0.0-13.0-2.13,78985,List1A,black,woman,,,,null,,,,
15022,,,survey-text,85,576010,0.0-13.0-3.13,78985,List1A,black,woman,,,,,"{""Q0"":""Fred and Dave are arguing with each other.""}","<img src=""stim_listA/argue6.gif""</stim_listA>",are arguing with each other,
null,"<div style=""font-size:60px;"">+</div>",,html-keyboard-response,86,576516,0.0-13.0-0.14,78985,List1A,black,woman,,,,null,,,,
null,"<img src=""stim_listA/marry2.gif""</stim_listA>",,html-keyboard-response,87,578520,0.0-13.0-1.14,78985,List1A,black,woman,,,,null,,,,
null,are marrying each other,,html-keyboard-response,88,580525,0.0-13.0-2.14,78985,List1A,black,woman,,,,null,,,,
16984,,,survey-text,89,597512,0.0-13.0-3.14,78985,List1A,black,woman,,,,,"{""Q0"":""Fred and Kate are marrying each other.""}","<img src=""stim_listA/marry2.gif""</stim_listA>",are marrying each other,
null,"<div style=""font-size:60px;"">+</div>",,html-keyboard-response,90,598015,0.0-13.0-0.15,78985,List1A,black,woman,,,,null,,,,
null,"<img src=""stim_listA/meet7.gif""</stim_listA>",,html-keyboard-response,91,600019,0.0-13.0-1.15,78985,List1A,black,woman,,,,null,,,,
null,is meeting,,html-keyboard-response,92,602022,0.0-13.0-2.15,78985,List1A,black,woman,,,,null,,,,
9112,,,survey-text,93,611138,0.0-13.0-3.15,78985,List1A,black,woman,,,,,"{""Q0"":""Jane is meeting Kate.""}","<img src=""stim_listA/meet7.gif""</stim_listA>",is meeting,
null,"<div style=""font-size:60px;"">+</div>",,html-keyboard-response,94,611641,0.0-13.0-0.16,78985,List1A,black,woman,,,,null,,,,
null,"<img src=""stim_listA/hug4.gif""</stim_listA>",,html-keyboard-response,95,613645,0.0-13.0-1.16,78985,List1A,black,woman,,,,null,,,,
null,are hugging each other,,html-keyboard-response,96,615648,0.0-13.0-2.16,78985,List1A,black,woman,,,,null,,,,
15421,,,survey-text,97,631073,0.0-13.0-3.16,78985,List1A,black,woman,,,,,"{""Q0"":""Jane and Dave are hugging each other.""}","<img src=""stim_listA/hug4.gif""</stim_listA>",are hugging each other,
null,"<div style=""font-size:60px;"">+</div>",,html-keyboard-response,98,631576,0.0-13.0-0.17,78985,List1A,black,woman,,,,null,,,,
null,"<img src=""stim_listA/dance2.gif""</stim_listA>",,html-keyboard-response,99,633580,0.0-13.0-1.17,78985,List1A,black,woman,,,,null,,,,
null,are dancing with each other,,html-keyboard-response,100,635584,0.0-13.0-2.17,78985,List1A,black,woman,,,,null,,,,
16023,,,survey-text,101,651610,0.0-13.0-3.17,78985,List1A,black,woman,,,,,"{""Q0"":""Beth and Luke are dancing with each other.""}","<img src=""stim_listA/dance2.gif""</stim_listA>",are dancing with each other,
null,"<div style=""font-size:60px;"">+</div>",,html-keyboard-response,102,652114,0.0-13.0-0.18,78985,List1A,black,woman,,,,null,,,,
null,"<img src=""stim_listA/touch6.gif""</stim_listA>",,html-keyboard-response,103,654118,0.0-13.0-1.18,78985,List1A,black,woman,,,,null,,,,
null,are touching each other,,html-keyboard-response,104,656122,0.0-13.0-2.18,78985,List1A,black,woman,,,,null,,,,
14827,,,survey-text,105,670953,0.0-13.0-3.18,78985,List1A,black,woman,,,,,"{""Q0"":""Luke and Fred are touching each other.""}","<img src=""stim_listA/touch6.gif""</stim_listA>",are touching each other,
null,"<div style=""font-size:60px;"">+</div>",,html-keyboard-response,106,671457,0.0-13.0-0.19,78985,List1A,black,woman,,,,null,,,,
null,"<img src=""stim_listA/kiss1.gif""</stim_listA>",,html-keyboard-response,107,673461,0.0-13.0-1.19,78985,List1A,black,woman,,,,null,,,,
null,is kissing,,html-keyboard-response,108,675465,0.0-13.0-2.19,78985,List1A,black,woman,,,,null,,,,
9186,,,survey-text,109,684654,0.0-13.0-3.19,78985,List1A,black,woman,,,,,"{""Q0"":""Beth is kissing Fred.""}","<img src=""stim_listA/kiss1.gif""</stim_listA>",is kissing,
19608,"<img src='img/portrait_matrix_list1.JPG' style='width:900px;height:500px;''></img><p>If you have memorised all the portraits and names and are ready to start, press Continue.</p><p><strong>Please note: Your memory of these faces will be tested 4 times during this experiment.</strong></p>",0,html-button-response,110,704267,0.0-14.0-0.0,78985,List1A,black,woman,,,,,,,,
2437,"<img src=""portrait/WM1.jpg""style=""width:400px;height:400px;""></img>",6,html-button-response,111,707709,0.0-14.0-1.0,78985,List1A,black,woman,,TRUE,6,,,,,
null,CORRECT,,html-keyboard-response,112,709213,0.0-14.0-2.0-0.0,78985,List1A,black,woman,,,,null,,,,
2644,"<img src=""portrait/WW1.jpg""style=""width:400px;height:400px;""></img>",1,html-button-response,113,711863,0.0-14.0-4.0,78985,List1A,black,woman,,TRUE,1,,,,,
null,CORRECT,,html-keyboard-response,114,713367,0.0-14.0-5.0-0.0,78985,List1A,black,woman,,,,null,,,,
2365,"<img src=""portrait/WW2.jpg""style=""width:400px;height:400px;""></img>",3,html-button-response,115,715739,0.0-14.0-7.0,78985,List1A,black,woman,,TRUE,3,,,,,
null,CORRECT,,html-keyboard-response,116,717243,0.0-14.0-8.0-0.0,78985,List1A,black,woman,,,,null,,,,
6328,"<img src=""portrait/WM2.jpg""style=""width:400px;height:400px;""></img>",7,html-button-response,117,723581,0.0-14.0-10.0,78985,List1A,black,woman,,TRUE,7,,,,,
null,CORRECT,,html-keyboard-response,118,725086,0.0-14.0-11.0-0.0,78985,List1A,black,woman,,,,null,,,,
4623,"<img src=""portrait/BM2.jpg""style=""width:400px;height:400px;""></img>",5,html-button-response,119,729714,0.0-14.0-13.0,78985,List1A,black,woman,,TRUE,5,,,,,
null,CORRECT,,html-keyboard-response,120,731218,0.0-14.0-14.0-0.0,78985,List1A,black,woman,,,,null,,,,
2291,"<img src=""portrait/BW2.jpg""style=""width:400px;height:400px;""></img>",2,html-button-response,121,733514,0.0-14.0-16.0,78985,List1A,black,woman,,TRUE,2,,,,,
null,CORRECT,,html-keyboard-response,122,735019,0.0-14.0-17.0-0.0,78985,List1A,black,woman,,,,null,,,,
2258,"<img src=""portrait/BW1.jpg""style=""width:400px;height:400px;""></img>",0,html-button-response,123,737282,0.0-14.0-19.0,78985,List1A,black,woman,,TRUE,0,,,,,
null,CORRECT,,html-keyboard-response,124,738786,0.0-14.0-20.0-0.0,78985,List1A,black,woman,,,,null,,,,
4442,"<img src=""portrait/BM1.jpg""style=""width:400px;height:400px;""></img>",4,html-button-response,125,743233,0.0-14.0-22.0,78985,List1A,black,woman,,TRUE,4,,,,,
null,CORRECT,,html-keyboard-response,126,744737,0.0-14.0-23.0-0.0,78985,List1A,black,woman,,,,null,,,,
4292,<p>You got 8 out of 8 right first time. Press Continue.</p>,0,html-button-response,127,749033,0.0-14.0-25.0,78985,List1A,black,woman,,,,,,,,
null,"<div style=""font-size:60px;"">+</div>",,html-keyboard-response,128,750539,0.0-15.0-0.0,78985,List1A,black,woman,,,,null,,,,
null,"<img src=""stim_listA/marry8.gif""</stim_listA>",,html-keyboard-response,129,752544,0.0-15.0-1.0,78985,List1A,black,woman,,,,null,,,,
null,are marrying each other,,html-keyboard-response,130,754548,0.0-15.0-2.0,78985,List1A,black,woman,,,,null,,,,
13778,,,survey-text,131,768329,0.0-15.0-3.0,78985,List1A,black,woman,,,,,"{""Q0"":""Jane and Beth are marrying each other.""}","<img src=""stim_listA/marry8.gif""</stim_listA>",are marrying each other,
null,"<div style=""font-size:60px;"">+</div>",,html-keyboard-response,132,768833,0.0-15.0-0.1,78985,List1A,black,woman,,,,null,,,,
null,"<img src=""stim_listA/fight2.gif""</stim_listA>",,html-keyboard-response,133,770837,0.0-15.0-1.1,78985,List1A,black,woman,,,,null,,,,
null,are fighting each other,,html-keyboard-response,134,772842,0.0-15.0-2.1,78985,List1A,black,woman,,,,null,,,,
11821,,,survey-text,135,784666,0.0-15.0-3.1,78985,List1A,black,woman,,,,,"{""Q0"":""Fred and Beth are fighting each other.""}","<img src=""stim_listA/fight2.gif""</stim_listA>",are fighting each other,
null,"<div style=""font-size:60px;"">+</div>",,html-keyboard-response,136,785173,0.0-15.0-0.2,78985,List1A,black,woman,,,,null,,,,
null,"<img src=""stim_listA/meet5.gif""</stim_listA>",,html-keyboard-response,137,787177,0.0-15.0-1.2,78985,List1A,black,woman,,,,null,,,,
null,is meeting,,html-keyboard-response,138,789182,0.0-15.0-2.2,78985,List1A,black,woman,,,,null,,,,
16424,,,survey-text,139,805609,0.0-15.0-3.2,78985,List1A,black,woman,,,,,"{""Q0"":""Mike is meeting Dave.""}","<img src=""stim_listA/meet5.gif""</stim_listA>",is meeting,
null,"<div style=""font-size:60px;"">+</div>",,html-keyboard-response,140,806112,0.0-15.0-0.3,78985,List1A,black,woman,,,,null,,,,
null,"<img src=""stim_listA/dance8.gif""</stim_listA>",,html-keyboard-response,141,808115,0.0-15.0-1.3,78985,List1A,black,woman,,,,null,,,,
null,are dancing with each other,,html-keyboard-response,142,810119,0.0-15.0-2.3,78985,List1A,black,woman,,,,null,,,,
15866,,,survey-text,143,825989,0.0-15.0-3.3,78985,List1A,black,woman,,,,,"{""Q0"":""Ruth and Kate are dancing with each other.""}","<img src=""stim_listA/dance8.gif""</stim_listA>",are dancing with each other,
null,"<div style=""font-size:60px;"">+</div>",,html-keyboard-response,144,826495,0.0-15.0-0.4,78985,List1A,black,woman,,,,null,,,,
null,"<img src=""stim_listA/shout4.gif""</stim_listA>",,html-keyboard-response,145,828499,0.0-15.0-1.4,78985,List1A,black,woman,,,,null,,,,
null,are shouting at each other,,html-keyboard-response,146,830503,0.0-15.0-2.4,78985,List1A,black,woman,,,,null,,,,
13415,,,survey-text,147,843922,0.0-15.0-3.4,78985,List1A,black,woman,,,,,"{""Q0"":""Jane and Dave are shouting at each other.""}","<img src=""stim_listA/shout4.gif""</stim_listA>",are shouting at each other,
null,"<div style=""font-size:60px;"">+</div>",,html-keyboard-response,148,844425,0.0-15.0-0.5,78985,List1A,black,woman,,,,null,,,,
null,"<img src=""stim_listA/shout5.gif""</stim_listA>",,html-keyboard-response,149,846429,0.0-15.0-1.5,78985,List1A,black,woman,,,,null,,,,
null,is shouting at,,html-keyboard-response,150,848433,0.0-15.0-2.5,78985,List1A,black,woman,,,,null,,,,
14618,,,survey-text,151,863055,0.0-15.0-3.5,78985,List1A,black,woman,,,,,"{""Q0"":""Fred is shouting at Luke.""}","<img src=""stim_listA/shout5.gif""</stim_listA>",is shouting at,
null,"<div style=""font-size:60px;"">+</div>",,html-keyboard-response,152,863558,0.0-15.0-0.6,78985,List1A,black,woman,,,,null,,,,
null,"<img src=""stim_listA/touch2.gif""</stim_listA>",,html-keyboard-response,153,865561,0.0-15.0-1.6,78985,List1A,black,woman,,,,null,,,,
null,are touching each other,,html-keyboard-response,154,867564,0.0-15.0-2.6,78985,List1A,black,woman,,,,null,,,,
13192,,,survey-text,155,880760,0.0-15.0-3.6,78985,List1A,black,woman,,,,,"{""Q0"":""Beth and Fred are touching each other.""}","<img src=""stim_listA/touch2.gif""</stim_listA>",are touching each other,
null,"<div style=""font-size:60px;"">+</div>",,html-keyboard-response,156,881263,0.0-15.0-0.7,78985,List1A,black,woman,,,,null,,,,
null,"<img src=""stim_listA/meet8.gif""</stim_listA>",,html-keyboard-response,157,883267,0.0-15.0-1.7,78985,List1A,black,woman,,,,null,,,,
null,are meeting each other,,html-keyboard-response,158,885270,0.0-15.0-2.7,78985,List1A,black,woman,,,,null,,,,
12245,,,survey-text,159,897519,0.0-15.0-3.7,78985,List1A,black,woman,,,,,"{""Q0"":""Ruth And Beth are meeting each other.""}","<img src=""stim_listA/meet8.gif""</stim_listA>",are meeting each other,
null,"<div style=""font-size:60px;"">+</div>",,html-keyboard-response,160,898022,0.0-15.0-0.8,78985,List1A,black,woman,,,,null,,,,
null,"<img src=""stim_listA/hug2.gif""</stim_listA>",,html-keyboard-response,161,900026,0.0-15.0-1.8,78985,List1A,black,woman,,,,null,,,,
null,are hugging each other,,html-keyboard-response,162,902030,0.0-15.0-2.8,78985,List1A,black,woman,,,,null,,,,
11211,,,survey-text,163,913245,0.0-15.0-3.8,78985,List1A,black,woman,,,,,"{""Q0"":""Mike and Kate are hugging each other.""}","<img src=""stim_listA/hug2.gif""</stim_listA>",are hugging each other,
null,"<div style=""font-size:60px;"">+</div>",,html-keyboard-response,164,913748,0.0-15.0-0.9,78985,List1A,black,woman,,,,null,,,,
null,"<img src=""stim_listA/argue5.gif""</stim_listA>",,html-keyboard-response,165,915752,0.0-15.0-1.9,78985,List1A,black,woman,,,,null,,,,
null,is arguing with,,html-keyboard-response,166,917756,0.0-15.0-2.9,78985,List1A,black,woman,,,,null,,,,
12266,,,survey-text,167,930030,0.0-15.0-3.9,78985,List1A,black,woman,,,,,"{""Q0"":""Mike is arguing with Luke.""}","<img src=""stim_listA/argue5.gif""</stim_listA>",is arguing with,
null,"<div style=""font-size:60px;"">+</div>",,html-keyboard-response,168,930534,0.0-15.0-0.10,78985,List1A,black,woman,,,,null,,,,
null,"<img src=""stim_listA/hug6.gif""</stim_listA>",,html-keyboard-response,169,932538,0.0-15.0-1.10,78985,List1A,black,woman,,,,null,,,,
null,are hugging each other,,html-keyboard-response,170,934542,0.0-15.0-2.10,78985,List1A,black,woman,,,,null,,,,
14728,,,survey-text,171,949273,0.0-15.0-3.10,78985,List1A,black,woman,,,,,"{""Q0"":""Dave and Mike are hugging each other.""}","<img src=""stim_listA/hug6.gif""</stim_listA>",are hugging each other,
null,"<div style=""font-size:60px;"">+</div>",,html-keyboard-response,172,949777,0.0-15.0-0.11,78985,List1A,black,woman,,,,null,,,,
null,"<img src=""stim_listA/marry7.gif""</stim_listA>",,html-keyboard-response,173,951781,0.0-15.0-1.11,78985,List1A,black,woman,,,,null,,,,
null,is marrying,,html-keyboard-response,174,953785,0.0-15.0-2.11,78985,List1A,black,woman,,,,null,,,,
10911,,,survey-text,175,964700,0.0-15.0-3.11,78985,List1A,black,woman,,,,,"{""Q0"":""Ruth is marrying Kate.""}","<img src=""stim_listA/marry7.gif""</stim_listA>",is marrying,
null,"<div style=""font-size:60px;"">+</div>",,html-keyboard-response,176,965203,0.0-15.0-0.12,78985,List1A,black,woman,,,,null,,,,
null,"<img src=""stim_listA/dance7.gif""</stim_listA>",,html-keyboard-response,177,967207,0.0-15.0-1.12,78985,List1A,black,woman,,,,null,,,,
null,is dancing with,,html-keyboard-response,178,969211,0.0-15.0-2.12,78985,List1A,black,woman,,,,null,,,,
9946,,,survey-text,179,979161,0.0-15.0-3.12,78985,List1A,black,woman,,,,,"{""Q0"":""Jane is dancing with Beth.""}","<img src=""stim_listA/dance7.gif""</stim_listA>",is dancing with,
null,"<div style=""font-size:60px;"">+</div>",,html-keyboard-response,180,979665,0.0-15.0-0.13,78985,List1A,black,woman,,,,null,,,,
null,"<img src=""stim_listA/marry3.gif""</stim_listA>",,html-keyboard-response,181,981669,0.0-15.0-1.13,78985,List1A,black,woman,,,,null,,,,
null,is marrying,,html-keyboard-response,182,983673,0.0-15.0-2.13,78985,List1A,black,woman,,,,null,,,,
32030,,,survey-text,183,1015705,0.0-15.0-3.13,78985,List1A,black,woman,,,,,"{""Q0"":""Dave is marrying beth.""}","<img src=""stim_listA/marry3.gif""</stim_listA>",is marrying,
null,"<div style=""font-size:60px;"">+</div>",,html-keyboard-response,184,1016209,0.0-15.0-0.14,78985,List1A,black,woman,,,,null,,,,
null,"<img src=""stim_listA/kiss4.gif""</stim_listA>",,html-keyboard-response,185,1018212,0.0-15.0-1.14,78985,List1A,black,woman,,,,null,,,,
null,are kissing each other,,html-keyboard-response,186,1020216,0.0-15.0-2.14,78985,List1A,black,woman,,,,null,,,,
12013,,,survey-text,187,1032232,0.0-15.0-3.14,78985,List1A,black,woman,,,,,"{""Q0"":""Jane and Dave are kissing each other.""}","<img src=""stim_listA/kiss4.gif""</stim_listA>",are kissing each other,
null,"<div style=""font-size:60px;"">+</div>",,html-keyboard-response,188,1032740,0.0-15.0-0.15,78985,List1A,black,woman,,,,null,,,,
null,"<img src=""stim_listA/hug7.gif""</stim_listA>",,html-keyboard-response,189,1034744,0.0-15.0-1.15,78985,List1A,black,woman,,,,null,,,,
null,is hugging,,html-keyboard-response,190,1036749,0.0-15.0-2.15,78985,List1A,black,woman,,,,null,,,,
8465,,,survey-text,191,1045217,0.0-15.0-3.15,78985,List1A,black,woman,,,,,"{""Q0"":""Beth is hugging Ruth.""}","<img src=""stim_listA/hug7.gif""</stim_listA>",is hugging,
null,"<div style=""font-size:60px;"">+</div>",,html-keyboard-response,192,1045721,0.0-15.0-0.16,78985,List1A,black,woman,,,,null,,,,
null,"<img src=""stim_listA/hug8.gif""</stim_listA>",,html-keyboard-response,193,1047725,0.0-15.0-1.16,78985,List1A,black,woman,,,,null,,,,
null,are hugging each other,,html-keyboard-response,194,1049729,0.0-15.0-2.16,78985,List1A,black,woman,,,,null,,,,
13855,,,survey-text,195,1063587,0.0-15.0-3.16,78985,List1A,black,woman,,,,,"{""Q0"":""Jane and Kate are hugging each other.""}","<img src=""stim_listA/hug8.gif""</stim_listA>",are hugging each other,
null,"<div style=""font-size:60px;"">+</div>",,html-keyboard-response,196,1064091,0.0-15.0-0.17,78985,List1A,black,woman,,,,null,,,,
null,"<img src=""stim_listA/touch4.gif""</stim_listA>",,html-keyboard-response,197,1066095,0.0-15.0-1.17,78985,List1A,black,woman,,,,null,,,,
null,are touching each other,,html-keyboard-response,198,1068099,0.0-15.0-2.17,78985,List1A,black,woman,,,,null,,,,
11995,,,survey-text,199,1080097,0.0-15.0-3.17,78985,List1A,black,woman,,,,,"{""Q0"":""Ruth and Luke are touching each other.""}","<img src=""stim_listA/touch4.gif""</stim_listA>",are touching each other,
null,"<div style=""font-size:60px;"">+</div>",,html-keyboard-response,200,1080601,0.0-15.0-0.18,78985,List1A,black,woman,,,,null,,,,
null,"<img src=""stim_listA/marry1.gif""</stim_listA>",,html-keyboard-response,201,1082605,0.0-15.0-1.18,78985,List1A,black,woman,,,,null,,,,
null,is marrying,,html-keyboard-response,202,1084609,0.0-15.0-2.18,78985,List1A,black,woman,,,,null,,,,
8653,,,survey-text,203,1093265,0.0-15.0-3.18,78985,List1A,black,woman,,,,,"{""Q0"":""Mike is marrying Beth.""}","<img src=""stim_listA/marry1.gif""</stim_listA>",is marrying,
null,"<div style=""font-size:60px;"">+</div>",,html-keyboard-response,204,1093769,0.0-15.0-0.19,78985,List1A,black,woman,,,,null,,,,
null,"<img src=""stim_listA/argue7.gif""</stim_listA>",,html-keyboard-response,205,1095773,0.0-15.0-1.19,78985,List1A,black,woman,,,,null,,,,
null,is arguing with,,html-keyboard-response,206,1097777,0.0-15.0-2.19,78985,List1A,black,woman,,,,null,,,,
11161,,,survey-text,207,1108941,0.0-15.0-3.19,78985,List1A,black,woman,,,,,"{""Q0"":""Ruth is arguing with Kate.""}","<img src=""stim_listA/argue7.gif""</stim_listA>",is arguing with,
11502,"<img src='img/portrait_matrix_list1.JPG' style='width:900px;height:500px;''></img><p>If you have memorised all the portraits and names and are ready to start, press Continue.</p><p><strong>Please note: Your memory of these faces will be tested 4 times during this experiment.</strong></p>",0,html-button-response,208,1120448,0.0-16.0-0.0,78985,List1A,black,woman,,,,,,,,
3067,"<img src=""portrait/BM2.jpg""style=""width:400px;height:400px;""></img>",5,html-button-response,209,1124524,0.0-16.0-1.0,78985,List1A,black,woman,,TRUE,5,,,,,
null,CORRECT,,html-keyboard-response,210,1126028,0.0-16.0-2.0-0.0,78985,List1A,black,woman,,,,null,,,,
2798,"<img src=""portrait/BW2.jpg""style=""width:400px;height:400px;""></img>",2,html-button-response,211,1128833,0.0-16.0-4.0,78985,List1A,black,woman,,TRUE,2,,,,,
null,CORRECT,,html-keyboard-response,212,1130337,0.0-16.0-5.0-0.0,78985,List1A,black,woman,,,,null,,,,
5665,"<img src=""portrait/WW2.jpg""style=""width:400px;height:400px;""></img>",3,html-button-response,213,1136008,0.0-16.0-7.0,78985,List1A,black,woman,,TRUE,3,,,,,
null,CORRECT,,html-keyboard-response,214,1137513,0.0-16.0-8.0-0.0,78985,List1A,black,woman,,,,null,,,,
2524,"<img src=""portrait/BW1.jpg""style=""width:400px;height:400px;""></img>",0,html-button-response,215,1140043,0.0-16.0-10.0,78985,List1A,black,woman,,TRUE,0,,,,,
null,CORRECT,,html-keyboard-response,216,1141547,0.0-16.0-11.0-0.0,78985,List1A,black,woman,,,,null,,,,
2487,"<img src=""portrait/WM1.jpg""style=""width:400px;height:400px;""></img>",6,html-button-response,217,1144038,0.0-16.0-13.0,78985,List1A,black,woman,,TRUE,6,,,,,
null,CORRECT,,html-keyboard-response,218,1145546,0.0-16.0-14.0-0.0,78985,List1A,black,woman,,,,null,,,,
1971,"<img src=""portrait/WW1.jpg""style=""width:400px;height:400px;""></img>",1,html-button-response,219,1147522,0.0-16.0-16.0,78985,List1A,black,woman,,TRUE,1,,,,,
null,CORRECT,,html-keyboard-response,220,1149026,0.0-16.0-17.0-0.0,78985,List1A,black,woman,,,,null,,,,
2825,"<img src=""portrait/BM1.jpg""style=""width:400px;height:400px;""></img>",4,html-button-response,221,1151856,0.0-16.0-19.0,78985,List1A,black,woman,,TRUE,4,,,,,
null,CORRECT,,html-keyboard-response,222,1153360,0.0-16.0-20.0-0.0,78985,List1A,black,woman,,,,null,,,,
2212,"<img src=""portrait/WM2.jpg""style=""width:400px;height:400px;""></img>",7,html-button-response,223,1155577,0.0-16.0-22.0,78985,List1A,black,woman,,TRUE,7,,,,,
null,CORRECT,,html-keyboard-response,224,1157081,0.0-16.0-23.0-0.0,78985,List1A,black,woman,,,,null,,,,
3492,<p>You got 8 out of 8 right first time. Press Continue.</p>,0,html-button-response,225,1160578,0.0-16.0-25.0,78985,List1A,black,woman,,,,,,,,
null,"<div style=""font-size:60px;"">+</div>",,html-keyboard-response,226,1162083,0.0-17.0-0.0,78985,List1A,black,woman,,,,null,,,,
null,"<img src=""stim_listA/marry5.gif""</stim_listA>",,html-keyboard-response,227,1164087,0.0-17.0-1.0,78985,List1A,black,woman,,,,null,,,,
null,is marrying,,html-keyboard-response,228,1166092,0.0-17.0-2.0,78985,List1A,black,woman,,,,null,,,,
8803,,,survey-text,229,1174898,0.0-17.0-3.0,78985,List1A,black,woman,,,,,"{""Q0"":""Luke is marrying Mike.""}","<img src=""stim_listA/marry5.gif""</stim_listA>",is marrying,
null,"<div style=""font-size:60px;"">+</div>",,html-keyboard-response,230,1175401,0.0-17.0-0.1,78985,List1A,black,woman,,,,null,,,,
null,"<img src=""stim_listA/argue3.gif""</stim_listA>",,html-keyboard-response,231,1177405,0.0-17.0-1.1,78985,List1A,black,woman,,,,null,,,,
null,is arguing with,,html-keyboard-response,232,1179409,0.0-17.0-2.1,78985,List1A,black,woman,,,,null,,,,
10305,,,survey-text,233,1189717,0.0-17.0-3.1,78985,List1A,black,woman,,,,,"{""Q0"":""Dave is arguing with Ruth.""}","<img src=""stim_listA/argue3.gif""</stim_listA>",is arguing with,
null,"<div style=""font-size:60px;"">+</div>",,html-keyboard-response,234,1190221,0.0-17.0-0.2,78985,List1A,black,woman,,,,null,,,,
null,"<img src=""stim_listA/shout6.gif""</stim_listA>",,html-keyboard-response,235,1192225,0.0-17.0-1.2,78985,List1A,black,woman,,,,null,,,,
null,are shouting at each other,,html-keyboard-response,236,1194229,0.0-17.0-2.2,78985,List1A,black,woman,,,,null,,,,
8738,,,survey-text,237,1202976,0.0-17.0-3.2,78985,List1A,black,woman,,,,,"{""Q0"":""Dave is shouting at Mike.""}","<img src=""stim_listA/shout6.gif""</stim_listA>",are shouting at each other,
null,"<div style=""font-size:60px;"">+</div>",,html-keyboard-response,238,1203480,0.0-17.0-0.3,78985,List1A,black,woman,,,,null,,,,
null,"<img src=""stim_listA/kiss5.gif""</stim_listA>",,html-keyboard-response,239,1205484,0.0-17.0-1.3,78985,List1A,black,woman,,,,null,,,,
null,is kissing,,html-keyboard-response,240,1207488,0.0-17.0-2.3,78985,List1A,black,woman,,,,null,,,,
8494,,,survey-text,241,1215986,0.0-17.0-3.3,78985,List1A,black,woman,,,,,"{""Q0"":""Luke is kissing Fred.""}","<img src=""stim_listA/kiss5.gif""</stim_listA>",is kissing,
null,"<div style=""font-size:60px;"">+</div>",,html-keyboard-response,242,1216489,0.0-17.0-0.4,78985,List1A,black,woman,,,,null,,,,
null,"<img src=""stim_listA/kiss2.gif""</stim_listA>",,html-keyboard-response,243,1218493,0.0-17.0-1.4,78985,List1A,black,woman,,,,null,,,,
null,are kissing each other,,html-keyboard-response,244,1220497,0.0-17.0-2.4,78985,List1A,black,woman,,,,null,,,,
11501,,,survey-text,245,1232002,0.0-17.0-3.4,78985,List1A,black,woman,,,,,"{""Q0"":""Kate and Mike are kissing each other.""}","<img src=""stim_listA/kiss2.gif""</stim_listA>",are kissing each other,
null,"<div style=""font-size:60px;"">+</div>",,html-keyboard-response,246,1232504,0.0-17.0-0.5,78985,List1A,black,woman,,,,null,,,,
null,"<img src=""stim_listA/marry4.gif""</stim_listA>",,html-keyboard-response,247,1234509,0.0-17.0-1.5,78985,List1A,black,woman,,,,null,,,,
null,are marrying each other,,html-keyboard-response,248,1236513,0.0-17.0-2.5,78985,List1A,black,woman,,,,null,,,,
20549,,,survey-text,249,1257065,0.0-17.0-3.5,78985,List1A,black,woman,,,,,"{""Q0"":""Jane and Luke are marrying each other.""}","<img src=""stim_listA/marry4.gif""</stim_listA>",are marrying each other,
null,"<div style=""font-size:60px;"">+</div>",,html-keyboard-response,250,1257568,0.0-17.0-0.6,78985,List1A,black,woman,,,,null,,,,
null,"<img src=""stim_listA/shout2.gif""</stim_listA>",,html-keyboard-response,251,1259572,0.0-17.0-1.6,78985,List1A,black,woman,,,,null,,,,
null,are shouting at each other,,html-keyboard-response,252,1261576,0.0-17.0-2.6,78985,List1A,black,woman,,,,null,,,,
12004,,,survey-text,253,1273584,0.0-17.0-3.6,78985,List1A,black,woman,,,,,"{""Q0"":""Kate and Mike are shouting at each other.""}","<img src=""stim_listA/shout2.gif""</stim_listA>",are shouting at each other,
null,"<div style=""font-size:60px;"">+</div>",,html-keyboard-response,254,1274087,0.0-17.0-0.7,78985,List1A,black,woman,,,,null,,,,
null,"<img src=""stim_listA/talk6.gif""</stim_listA>",,html-keyboard-response,255,1276090,0.0-17.0-1.7,78985,List1A,black,woman,,,,null,,,,
null,are talking to each other,,html-keyboard-response,256,1278094,0.0-17.0-2.7,78985,List1A,black,woman,,,,null,,,,
12032,,,survey-text,257,1290130,0.0-17.0-3.7,78985,List1A,black,woman,,,,,"{""Q0"":""Luke and Mike are talking to each other.""}","<img src=""stim_listA/talk6.gif""</stim_listA>",are talking to each other,
null,"<div style=""font-size:60px;"">+</div>",,html-keyboard-response,258,1290634,0.0-17.0-0.8,78985,List1A,black,woman,,,,null,,,,
null,"<img src=""stim_listA/talk1.gif""</stim_listA>",,html-keyboard-response,259,1292638,0.0-17.0-1.8,78985,List1A,black,woman,,,,null,,,,
null,is talking to,,html-keyboard-response,260,1294642,0.0-17.0-2.8,78985,List1A,black,woman,,,,null,,,,
8141,,,survey-text,261,1302787,0.0-17.0-3.8,78985,List1A,black,woman,,,,,"{""Q0"":""Fred is talking to Kate.""}","<img src=""stim_listA/talk1.gif""</stim_listA>",is talking to,
null,"<div style=""font-size:60px;"">+</div>",,html-keyboard-response,262,1303291,0.0-17.0-0.9,78985,List1A,black,woman,,,,null,,,,
null,"<img src=""stim_listA/shout7.gif""</stim_listA>",,html-keyboard-response,263,1305295,0.0-17.0-1.9,78985,List1A,black,woman,,,,null,,,,
null,is shouting at,,html-keyboard-response,264,1307299,0.0-17.0-2.9,78985,List1A,black,woman,,,,null,,,,
8570,,,survey-text,265,1315873,0.0-17.0-3.9,78985,List1A,black,woman,,,,,"{""Q0"":""Beth is shouting at Ruth.""}","<img src=""stim_listA/shout7.gif""</stim_listA>",is shouting at,
null,"<div style=""font-size:60px;"">+</div>",,html-keyboard-response,266,1316377,0.0-17.0-0.10,78985,List1A,black,woman,,,,null,,,,
null,"<img src=""stim_listA/fight1.gif""</stim_listA>",,html-keyboard-response,267,1318381,0.0-17.0-1.10,78985,List1A,black,woman,,,,null,,,,
null,is fighting,,html-keyboard-response,268,1320384,0.0-17.0-2.10,78985,List1A,black,woman,,,,null,,,,
8652,,,survey-text,269,1329040,0.0-17.0-3.10,78985,List1A,black,woman,,,,,"{""Q0"":""Mike is fighting Kate.""}","<img src=""stim_listA/fight1.gif""</stim_listA>",is fighting,
null,"<div style=""font-size:60px;"">+</div>",,html-keyboard-response,270,1329543,0.0-17.0-0.11,78985,List1A,black,woman,,,,null,,,,
null,"<img src=""stim_listA/talk2.gif""</stim_listA>",,html-keyboard-response,271,1331547,0.0-17.0-1.11,78985,List1A,black,woman,,,,null,,,,
null,are talking to each other,,html-keyboard-response,272,1333551,0.0-17.0-2.11,78985,List1A,black,woman,,,,null,,,,
12313,,,survey-text,273,1345867,0.0-17.0-3.11,78985,List1A,black,woman,,,,,"{""Q0"":""Beth and Mike are talking to each other.""}","<img src=""stim_listA/talk2.gif""</stim_listA>",are talking to each other,
null,"<div style=""font-size:60px;"">+</div>",,html-keyboard-response,274,1346370,0.0-17.0-0.12,78985,List1A,black,woman,,,,null,,,,
null,"<img src=""stim_listA/marry6.gif""</stim_listA>",,html-keyboard-response,275,1348374,0.0-17.0-1.12,78985,List1A,black,woman,,,,null,,,,
null,are marrying each other,,html-keyboard-response,276,1350378,0.0-17.0-2.12,78985,List1A,black,woman,,,,null,,,,
12829,,,survey-text,277,1363210,0.0-17.0-3.12,78985,List1A,black,woman,,,,,"{""Q0"":""Fred and Dave are marrying each other.""}","<img src=""stim_listA/marry6.gif""</stim_listA>",are marrying each other,
null,"<div style=""font-size:60px;"">+</div>",,html-keyboard-response,278,1363713,0.0-17.0-0.13,78985,List1A,black,woman,,,,null,,,,
null,"<img src=""stim_listA/talk7.gif""</stim_listA>",,html-keyboard-response,279,1365717,0.0-17.0-1.13,78985,List1A,black,woman,,,,null,,,,
null,is talking to,,html-keyboard-response,280,1367727,0.0-17.0-2.13,78985,List1A,black,woman,,,,null,,,,
8898,,,survey-text,281,1376629,0.0-17.0-3.13,78985,List1A,black,woman,,,,,"{""Q0"":""Beth is talking to Jane.""}","<img src=""stim_listA/talk7.gif""</stim_listA>",is talking to,
null,"<div style=""font-size:60px;"">+</div>",,html-keyboard-response,282,1377132,0.0-17.0-0.14,78985,List1A,black,woman,,,,null,,,,
null,"<img src=""stim_listA/talk8.gif""</stim_listA>",,html-keyboard-response,283,1379136,0.0-17.0-1.14,78985,List1A,black,woman,,,,null,,,,
null,are talking to each other,,html-keyboard-response,284,1381141,0.0-17.0-2.14,78985,List1A,black,woman,,,,null,,,,
12586,,,survey-text,285,1393730,0.0-17.0-3.14,78985,List1A,black,woman,,,,,"{""Q0"":""Ruth and Kate are talking to each other.""}","<img src=""stim_listA/talk8.gif""</stim_listA>",are talking to each other,
null,"<div style=""font-size:60px;"">+</div>",,html-keyboard-response,286,1394233,0.0-17.0-0.15,78985,List1A,black,woman,,,,null,,,,
null,"<img src=""stim_listA/argue8.gif""</stim_listA>",,html-keyboard-response,287,1396236,0.0-17.0-1.15,78985,List1A,black,woman,,,,null,,,,
null,are arguing with each other,,html-keyboard-response,288,1398240,0.0-17.0-2.15,78985,List1A,black,woman,,,,null,,,,
13906,,,survey-text,289,1412149,0.0-17.0-3.15,78985,List1A,black,woman,,,,,"{""Q0"":""Jane and Beth are arguing with each other.""}","<img src=""stim_listA/argue8.gif""</stim_listA>",are arguing with each other,
null,"<div style=""font-size:60px;"">+</div>",,html-keyboard-response,290,1412652,0.0-17.0-0.16,78985,List1A,black,woman,,,,null,,,,
null,"<img src=""stim_listA/talk4.gif""</stim_listA>",,html-keyboard-response,291,1414656,0.0-17.0-1.16,78985,List1A,black,woman,,,,null,,,,
null,are talking to each other,,html-keyboard-response,292,1416660,0.0-17.0-2.16,78985,List1A,black,woman,,,,null,,,,
13021,,,survey-text,293,1429684,0.0-17.0-3.16,78985,List1A,black,woman,,,,,"{""Q0"":""Dave and Ruth are talking to each other.""}","<img src=""stim_listA/talk4.gif""</stim_listA>",are talking to each other,
null,"<div style=""font-size:60px;"">+</div>",,html-keyboard-response,294,1430187,0.0-17.0-0.17,78985,List1A,black,woman,,,,null,,,,
null,"<img src=""stim_listA/fight7.gif""</stim_listA>",,html-keyboard-response,295,1432191,0.0-17.0-1.17,78985,List1A,black,woman,,,,null,,,,
null,is fighting,,html-keyboard-response,296,1434195,0.0-17.0-2.17,78985,List1A,black,woman,,,,null,,,,
8357,,,survey-text,297,1442561,0.0-17.0-3.17,78985,List1A,black,woman,,,,,"{""Q0"":""Jane is fighting Kate.""}","<img src=""stim_listA/fight7.gif""</stim_listA>",is fighting,
null,"<div style=""font-size:60px;"">+</div>",,html-keyboard-response,298,1443065,0.0-17.0-0.18,78985,List1A,black,woman,,,,null,,,,
null,"<img src=""stim_listA/argue1.gif""</stim_listA>",,html-keyboard-response,299,1445069,0.0-17.0-1.18,78985,List1A,black,woman,,,,null,,,,
null,is arguing with,,html-keyboard-response,300,1447073,0.0-17.0-2.18,78985,List1A,black,woman,,,,null,,,,
9643,,,survey-text,301,1456720,0.0-17.0-3.18,78985,List1A,black,woman,,,,,"{""Q0"":""Mike is arguing with Beth.""}","<img src=""stim_listA/argue1.gif""</stim_listA>",is arguing with,
null,"<div style=""font-size:60px;"">+</div>",,html-keyboard-response,302,1457223,0.0-17.0-0.19,78985,List1A,black,woman,,,,null,,,,
null,"<img src=""stim_listA/dance4.gif""</stim_listA>",,html-keyboard-response,303,1459227,0.0-17.0-1.19,78985,List1A,black,woman,,,,null,,,,
null,are dancing with each other,,html-keyboard-response,304,1461231,0.0-17.0-2.19,78985,List1A,black,woman,,,,null,,,,
10838,,,survey-text,305,1472072,0.0-17.0-3.19,78985,List1A,black,woman,,,,,"{""Q0"":""Dave and Ruth are dancing with each other.""}","<img src=""stim_listA/dance4.gif""</stim_listA>",are dancing with each other,
8394,"<img src='img/portrait_matrix_list1.JPG' style='width:900px;height:500px;''></img><p>If you have memorised all the portraits and names and are ready to start, press Continue.</p><p><strong>Please note: Your memory of these faces will be tested 4 times during this experiment.</strong></p>",0,html-button-response,306,1480471,0.0-18.0-0.0,78985,List1A,black,woman,,,,,,,,
2724,"<img src=""portrait/BW2.jpg""style=""width:400px;height:400px;""></img>",2,html-button-response,307,1484203,0.0-18.0-1.0,78985,List1A,black,woman,,TRUE,2,,,,,
null,CORRECT,,html-keyboard-response,308,1485708,0.0-18.0-2.0-0.0,78985,List1A,black,woman,,,,null,,,,
2432,"<img src=""portrait/WM1.jpg""style=""width:400px;height:400px;""></img>",6,html-button-response,309,1488147,0.0-18.0-4.0,78985,List1A,black,woman,,TRUE,6,,,,,
null,CORRECT,,html-keyboard-response,310,1489651,0.0-18.0-5.0-0.0,78985,List1A,black,woman,,,,null,,,,
2149,"<img src=""portrait/WW2.jpg""style=""width:400px;height:400px;""></img>",3,html-button-response,311,1491805,0.0-18.0-7.0,78985,List1A,black,woman,,TRUE,3,,,,,
null,CORRECT,,html-keyboard-response,312,1493315,0.0-18.0-8.0-0.0,78985,List1A,black,woman,,,,null,,,,
2267,"<img src=""portrait/WM2.jpg""style=""width:400px;height:400px;""></img>",7,html-button-response,313,1495588,0.0-18.0-10.0,78985,List1A,black,woman,,TRUE,7,,,,,
null,CORRECT,,html-keyboard-response,314,1497093,0.0-18.0-11.0-0.0,78985,List1A,black,woman,,,,null,,,,
2941,"<img src=""portrait/BM1.jpg""style=""width:400px;height:400px;""></img>",4,html-button-response,315,1500039,0.0-18.0-13.0,78985,List1A,black,woman,,TRUE,4,,,,,
null,CORRECT,,html-keyboard-response,316,1501543,0.0-18.0-14.0-0.0,78985,List1A,black,woman,,,,null,,,,
2464,"<img src=""portrait/BM2.jpg""style=""width:400px;height:400px;""></img>",5,html-button-response,317,1504013,0.0-18.0-16.0,78985,List1A,black,woman,,TRUE,5,,,,,
null,CORRECT,,html-keyboard-response,318,1505517,0.0-18.0-17.0-0.0,78985,List1A,black,woman,,,,null,,,,
1960,"<img src=""portrait/WW1.jpg""style=""width:400px;height:400px;""></img>",1,html-button-response,319,1507483,0.0-18.0-19.0,78985,List1A,black,woman,,TRUE,1,,,,,
null,CORRECT,,html-keyboard-response,320,1508987,0.0-18.0-20.0-0.0,78985,List1A,black,woman,,,,null,,,,
2032,"<img src=""portrait/BW1.jpg""style=""width:400px;height:400px;""></img>",0,html-button-response,321,1511024,0.0-18.0-22.0,78985,List1A,black,woman,,TRUE,0,,,,,
null,CORRECT,,html-keyboard-response,322,1512529,0.0-18.0-23.0-0.0,78985,List1A,black,woman,,,,null,,,,
2341,<p>You got 8 out of 8 right first time. Press Continue.</p>,0,html-button-response,323,1514874,0.0-18.0-25.0,78985,List1A,black,woman,,,,,,,,
null,"<div style=""font-size:60px;"">+</div>",,html-keyboard-response,324,1516381,0.0-19.0-0.0,78985,List1A,black,woman,,,,null,,,,
null,"<img src=""stim_listA/touch5.gif""</stim_listA>",,html-keyboard-response,325,1518385,0.0-19.0-1.0,78985,List1A,black,woman,,,,null,,,,
null,is touching,,html-keyboard-response,326,1520390,0.0-19.0-2.0,78985,List1A,black,woman,,,,null,,,,
7258,,,survey-text,327,1527655,0.0-19.0-3.0,78985,List1A,black,woman,,,,,"{""Q0"":""Mike is touching Dave.""}","<img src=""stim_listA/touch5.gif""</stim_listA>",is touching,
null,"<div style=""font-size:60px;"">+</div>",,html-keyboard-response,328,1528159,0.0-19.0-0.1,78985,List1A,black,woman,,,,null,,,,
null,"<img src=""stim_listA/kiss7.gif""</stim_listA>",,html-keyboard-response,329,1530164,0.0-19.0-1.1,78985,List1A,black,woman,,,,null,,,,
null,is kissing,,html-keyboard-response,330,1532168,0.0-19.0-2.1,78985,List1A,black,woman,,,,null,,,,
8383,,,survey-text,331,1540555,0.0-19.0-3.1,78985,List1A,black,woman,,,,,"{""Q0"":""Ruth is kissing Beth.""}","<img src=""stim_listA/kiss7.gif""</stim_listA>",is kissing,
null,"<div style=""font-size:60px;"">+</div>",,html-keyboard-response,332,1541058,0.0-19.0-0.2,78985,List1A,black,woman,,,,null,,,,
null,"<img src=""stim_listA/kiss8.gif""</stim_listA>",,html-keyboard-response,333,1543062,0.0-19.0-1.2,78985,List1A,black,woman,,,,null,,,,
null,are kissing each other,,html-keyboard-response,334,1545067,0.0-19.0-2.2,78985,List1A,black,woman,,,,null,,,,
13070,,,survey-text,335,1558140,0.0-19.0-3.2,78985,List1A,black,woman,,,,,"{""Q0"":""Jane and Kate are kissing each other.""}","<img src=""stim_listA/kiss8.gif""</stim_listA>",are kissing each other,
null,"<div style=""font-size:60px;"">+</div>",,html-keyboard-response,336,1558643,0.0-19.0-0.3,78985,List1A,black,woman,,,,null,,,,
null,"<img src=""stim_listA/argue4.gif""</stim_listA>",,html-keyboard-response,337,1560648,0.0-19.0-1.3,78985,List1A,black,woman,,,,null,,,,
null,are arguing with each other,,html-keyboard-response,338,1562651,0.0-19.0-2.3,78985,List1A,black,woman,,,,null,,,,
13420,,,survey-text,339,1576075,0.0-19.0-3.3,78985,List1A,black,woman,,,,,"{""Q0"":""Jane and Luke are arguing with each other.""}","<img src=""stim_listA/argue4.gif""</stim_listA>",are arguing with each other,
null,"<div style=""font-size:60px;"">+</div>",,html-keyboard-response,340,1576579,0.0-19.0-0.4,78985,List1A,black,woman,,,,null,,,,
null,"<img src=""stim_listA/hug5.gif""</stim_listA>",,html-keyboard-response,341,1578583,0.0-19.0-1.4,78985,List1A,black,woman,,,,null,,,,
null,is hugging,,html-keyboard-response,342,1580587,0.0-19.0-2.4,78985,List1A,black,woman,,,,null,,,,
9419,,,survey-text,343,1590010,0.0-19.0-3.4,78985,List1A,black,woman,,,,,"{""Q0"":""Fred is hugging Luke.""}","<img src=""stim_listA/hug5.gif""</stim_listA>",is hugging,
null,"<div style=""font-size:60px;"">+</div>",,html-keyboard-response,344,1590513,0.0-19.0-0.5,78985,List1A,black,woman,,,,null,,,,
null,"<img src=""stim_listA/dance6.gif""</stim_listA>",,html-keyboard-response,345,1592517,0.0-19.0-1.5,78985,List1A,black,woman,,,,null,,,,
null,are dancing with each other,,html-keyboard-response,346,1594521,0.0-19.0-2.5,78985,List1A,black,woman,,,,null,,,,
15980,,,survey-text,347,1610509,0.0-19.0-3.5,78985,List1A,black,woman,,,,,"{""Q0"":""Luke and Mike are dancing with each other.""}","<img src=""stim_listA/dance6.gif""</stim_listA>",are dancing with each other,
null,"<div style=""font-size:60px;"">+</div>",,html-keyboard-response,348,1611013,0.0-19.0-0.6,78985,List1A,black,woman,,,,null,,,,
null,"<img src=""stim_listA/touch7.gif""</stim_listA>",,html-keyboard-response,349,1613017,0.0-19.0-1.6,78985,List1A,black,woman,,,,null,,,,
null,is touching,,html-keyboard-response,350,1615022,0.0-19.0-2.6,78985,List1A,black,woman,,,,null,,,,
8204,,,survey-text,351,1623230,0.0-19.0-3.6,78985,List1A,black,woman,,,,,"{""Q0"":""Kate is touching Jane.""}","<img src=""stim_listA/touch7.gif""</stim_listA>",is touching,
null,"<div style=""font-size:60px;"">+</div>",,html-keyboard-response,352,1623734,0.0-19.0-0.7,78985,List1A,black,woman,,,,null,,,,
null,"<img src=""stim_listA/hug3.gif""</stim_listA>",,html-keyboard-response,353,1625738,0.0-19.0-1.7,78985,List1A,black,woman,,,,null,,,,
null,is hugging,,html-keyboard-response,354,1627742,0.0-19.0-2.7,78985,List1A,black,woman,,,,null,,,,
9477,,,survey-text,355,1637223,0.0-19.0-3.7,78985,List1A,black,woman,,,,,"{""Q0"":""Ruth is hugging Luke.""}","<img src=""stim_listA/hug3.gif""</stim_listA>",is hugging,
null,"<div style=""font-size:60px;"">+</div>",,html-keyboard-response,356,1637727,0.0-19.0-0.8,78985,List1A,black,woman,,,,null,,,,
null,"<img src=""stim_listA/dance1.gif""</stim_listA>",,html-keyboard-response,357,1639730,0.0-19.0-1.8,78985,List1A,black,woman,,,,null,,,,
null,is dancing with,,html-keyboard-response,358,1641734,0.0-19.0-2.8,78985,List1A,black,woman,,,,null,,,,
9287,,,survey-text,359,1651025,0.0-19.0-3.8,78985,List1A,black,woman,,,,,"{""Q0"":""Kate is dancing with Fred.""}","<img src=""stim_listA/dance1.gif""</stim_listA>",is dancing with,
null,"<div style=""font-size:60px;"">+</div>",,html-keyboard-response,360,1651528,0.0-19.0-0.9,78985,List1A,black,woman,,,,null,,,,
null,"<img src=""stim_listA/argue2.gif""</stim_listA>",,html-keyboard-response,361,1653533,0.0-19.0-1.9,78985,List1A,black,woman,,,,null,,,,
null,are arguing with each other,,html-keyboard-response,362,1655537,0.0-19.0-2.9,78985,List1A,black,woman,,,,null,,,,
13344,,,survey-text,363,1668885,0.0-19.0-3.9,78985,List1A,black,woman,,,,,"{""Q0"":""Kate and Fred are arguing with each other.""}","<img src=""stim_listA/argue2.gif""</stim_listA>",are arguing with each other,
null,"<div style=""font-size:60px;"">+</div>",,html-keyboard-response,364,1669389,0.0-19.0-0.10,78985,List1A,black,woman,,,,null,,,,
null,"<img src=""stim_listA/fight5.gif""</stim_listA>",,html-keyboard-response,365,1671393,0.0-19.0-1.10,78985,List1A,black,woman,,,,null,,,,
null,is fighting,,html-keyboard-response,366,1673397,0.0-19.0-2.10,78985,List1A,black,woman,,,,null,,,,
9021,,,survey-text,367,1682422,0.0-19.0-3.10,78985,List1A,black,woman,,,,,"{""Q0"":""Dave is fighting Mike.""}","<img src=""stim_listA/fight5.gif""</stim_listA>",is fighting,
null,"<div style=""font-size:60px;"">+</div>",,html-keyboard-response,368,1682930,0.0-19.0-0.11,78985,List1A,black,woman,,,,null,,,,
null,"<img src=""stim_listA/talk3.gif""</stim_listA>",,html-keyboard-response,369,1684935,0.0-19.0-1.11,78985,List1A,black,woman,,,,null,,,,
null,is talking to,,html-keyboard-response,370,1686939,0.0-19.0-2.11,78985,List1A,black,woman,,,,null,,,,
8920,,,survey-text,371,1695863,0.0-19.0-3.11,78985,List1A,black,woman,,,,,"{""Q0"":""Jane is talking to Luke.""}","<img src=""stim_listA/talk3.gif""</stim_listA>",is talking to,
null,"<div style=""font-size:60px;"">+</div>",,html-keyboard-response,372,1696366,0.0-19.0-0.12,78985,List1A,black,woman,,,,null,,,,
null,"<img src=""stim_listA/meet3.gif""</stim_listA>",,html-keyboard-response,373,1698370,0.0-19.0-1.12,78985,List1A,black,woman,,,,null,,,,
null,is meeting,,html-keyboard-response,374,1700374,0.0-19.0-2.12,78985,List1A,black,woman,,,,null,,,,
7336,,,survey-text,375,1707714,0.0-19.0-3.12,78985,List1A,black,woman,,,,,"{""Q0"":""Jane is meeting Dave.""}","<img src=""stim_listA/meet3.gif""</stim_listA>",is meeting,
null,"<div style=""font-size:60px;"">+</div>",,html-keyboard-response,376,1708218,0.0-19.0-0.13,78985,List1A,black,woman,,,,null,,,,
null,"<img src=""stim_listA/shout3.gif""</stim_listA>",,html-keyboard-response,377,1710222,0.0-19.0-1.13,78985,List1A,black,woman,,,,null,,,,
null,is shouting at,,html-keyboard-response,378,1712225,0.0-19.0-2.13,78985,List1A,black,woman,,,,null,,,,
8745,,,survey-text,379,1720974,0.0-19.0-3.13,78985,List1A,black,woman,,,,,"{""Q0"":""Ruth is shouting at Luke.""}","<img src=""stim_listA/shout3.gif""</stim_listA>",is shouting at,
null,"<div style=""font-size:60px;"">+</div>",,html-keyboard-response,380,1721477,0.0-19.0-0.14,78985,List1A,black,woman,,,,null,,,,
null,"<img src=""stim_listA/meet2.gif""</stim_listA>",,html-keyboard-response,381,1723481,0.0-19.0-1.14,78985,List1A,black,woman,,,,null,,,,
null,are meeting each other,,html-keyboard-response,382,1725485,0.0-19.0-2.14,78985,List1A,black,woman,,,,null,,,,
11463,,,survey-text,383,1736952,0.0-19.0-3.14,78985,List1A,black,woman,,,,,"{""Q0"":""Beth and Fred are meeting each other.""}","<img src=""stim_listA/meet2.gif""</stim_listA>",are meeting each other,
null,"<div style=""font-size:60px;"">+</div>",,html-keyboard-response,384,1737456,0.0-19.0-0.15,78985,List1A,black,woman,,,,null,,,,
null,"<img src=""stim_listA/touch1.gif""</stim_listA>",,html-keyboard-response,385,1739460,0.0-19.0-1.15,78985,List1A,black,woman,,,,null,,,,
null,is touching,,html-keyboard-response,386,1741464,0.0-19.0-2.15,78985,List1A,black,woman,,,,null,,,,
8018,,,survey-text,387,1749486,0.0-19.0-3.15,78985,List1A,black,woman,,,,,"{""Q0"":""Mike is touching Kate.""}","<img src=""stim_listA/touch1.gif""</stim_listA>",is touching,
null,"<div style=""font-size:60px;"">+</div>",,html-keyboard-response,388,1749989,0.0-19.0-0.16,78985,List1A,black,woman,,,,null,,,,
null,"<img src=""stim_listA/hug1.gif""</stim_listA>",,html-keyboard-response,389,1751993,0.0-19.0-1.16,78985,List1A,black,woman,,,,null,,,,
null,is hugging,,html-keyboard-response,390,1753997,0.0-19.0-2.16,78985,List1A,black,woman,,,,null,,,,
7694,,,survey-text,391,1761695,0.0-19.0-3.16,78985,List1A,black,woman,,,,,"{""Q0"":""Beth is hugging Fred.""}","<img src=""stim_listA/hug1.gif""</stim_listA>",is hugging,
null,"<div style=""font-size:60px;"">+</div>",,html-keyboard-response,392,1762198,0.0-19.0-0.17,78985,List1A,black,woman,,,,null,,,,
null,"<img src=""stim_listA/meet6.gif""</stim_listA>",,html-keyboard-response,393,1764201,0.0-19.0-1.17,78985,List1A,black,woman,,,,null,,,,
null,are meeting each other,,html-keyboard-response,394,1766204,0.0-19.0-2.17,78985,List1A,black,woman,,,,null,,,,
13085,,,survey-text,395,1779293,0.0-19.0-3.17,78985,List1A,black,woman,,,,,"{""Q0"":""Fred and Luke are meeting each other.""}","<img src=""stim_listA/meet6.gif""</stim_listA>",are meeting each other,
null,"<div style=""font-size:60px;"">+</div>",,html-keyboard-response,396,1779796,0.0-19.0-0.18,78985,List1A,black,woman,,,,null,,,,
null,"<img src=""stim_listA/meet4.gif""</stim_listA>",,html-keyboard-response,397,1781800,0.0-19.0-1.18,78985,List1A,black,woman,,,,null,,,,
null,are meeting each other,,html-keyboard-response,398,1783809,0.0-19.0-2.18,78985,List1A,black,woman,,,,null,,,,
10698,,,survey-text,399,1794511,0.0-19.0-3.18,78985,List1A,black,woman,,,,,"{""Q0"":""Ruth and Luke are meeting each other.""}","<img src=""stim_listA/meet4.gif""</stim_listA>",are meeting each other,
null,"<div style=""font-size:60px;"">+</div>",,html-keyboard-response,400,1795014,0.0-19.0-0.19,78985,List1A,black,woman,,,,null,,,,
null,"<img src=""stim_listA/touch3.gif""</stim_listA>",,html-keyboard-response,401,1797018,0.0-19.0-1.19,78985,List1A,black,woman,,,,null,,,,
null,is touching,,html-keyboard-response,402,1799023,0.0-19.0-2.19,78985,List1A,black,woman,,,,null,,,,
7443,,,survey-text,403,1806469,0.0-19.0-3.19,78985,List1A,black,woman,,,,,"{""Q0"":""Jane is touching Dave.""}","<img src=""stim_listA/touch3.gif""</stim_listA>",is touching,
3304,<p>Thank you for completing that task.</p><p>The final part of this session is a short questionnaire.</p><p>Press Continue.</p>,0,html-button-response,404,1809775,0.0-20.0,78985,List1A,black,woman,,,,,,,,
31360,,,survey-text,405,1842141,0.0-21.0,78985,List1A,black,woman,,,,,"{""Q0"":""38"",""Q1"":""English"",""Q2"":""English"",""Q3"":""USA"",""Q4"":""Black"",""Q5"":""Female""}",,,demographics
58539,,,survey-likert,406,1900694,0.0-22.0,78985,List1A,black,woman,,,,,"{""Q0"":2,""Q1"":3,""Q2"":2,""Q3"":5,""Q4"":5,""Q5"":5,""Q6"":4,""Q7"":1,""Q8"":1,""Q9"":1,""Q10"":3,""Q11"":2,""Q12"":2,""Q13"":2}",,,likert_race
58282,,,survey-likert,407,1958981,0.0-23.0,78985,List1A,black,woman,,,,,"{""Q0"":4,""Q1"":4,""Q2"":2,""Q3"":5,""Q4"":5,""Q5"":5,""Q6"":3,""Q7"":1,""Q8"":1,""Q9"":1,""Q10"":4,""Q11"":3,""Q12"":4,""Q13"":2}",,,likert_gender
15806,,,survey-text,408,1974792,0.0-24.0,78985,List1A,black,woman,,,,,"{""Q0"":""ccc""}",,,worker_id
32485,,,external-html,409,2007509,0.0-25.0,78985,List1A,black,woman,debrief.html,,,,,,,
