rt,stimulus,button_pressed,trial_type,trial_index,time_elapsed,internal_node_id,subject,list,ppt_race,ppt_gender,url,first_guess,correct,key_press,responses,image_type,phrase_type,test_part
1656,Welcome to the experiment. Press Continue to begin.,0,html-button-response,0,1659,0.0-0.0,79061,List2A,white,man,,,,,,,,
45320,,,external-html,1,48039,0.0-1.0,79061,List2A,white,man,consent.html,,,,,,,
17123,"<p>On the next page, you will see portraits of 8 people and their names.</p><p>Your first task is to take a few minutes to memorise the names of these people.</p><p>You will have to recall their names during the rest of the experiment, so it is</p><p>essential that you try to memorise these people and their names as best as you can.</p><br><p><strong>You will then be tested on your memory of these names and portraits.</strong></p><br><p>The experiment will start after you have completed this memory test.</p><br><p>Ready?</p>",0,html-button-response,2,65164,0.0-2.0,79061,List2A,white,man,,,,,,,,
196887,"<img src='img/portrait_matrix_list2.JPG' style='width:900px;height:500px;''></img><p>If you have memorised all the portraits and names and are ready to start, press Continue.</p><p><strong>Please note: Your memory of these faces will be tested 4 times during this experiment.</strong></p>",0,html-button-response,3,263066,0.0-3.0-0.0,79061,List2A,white,man,,,,,,,,
21558,"<img src=""portrait/BM2.jpg""style=""width:400px;height:400px;""></img>",5,html-button-response,4,285626,0.0-3.0-1.0,79061,List2A,white,man,,TRUE,5,,,,,
null,CORRECT,,html-keyboard-response,5,287153,0.0-3.0-2.0-0.0,79061,List2A,white,man,,,,null,,,,
8517,"<img src=""portrait/BW2.jpg""style=""width:400px;height:400px;""></img>",2,html-button-response,6,295672,0.0-3.0-4.0,79061,List2A,white,man,,TRUE,2,,,,,
null,CORRECT,,html-keyboard-response,7,297198,0.0-3.0-5.0-0.0,79061,List2A,white,man,,,,null,,,,
3584,"<img src=""portrait/WM2.jpg""style=""width:400px;height:400px;""></img>",7,html-button-response,8,300784,0.0-3.0-7.0,79061,List2A,white,man,,TRUE,7,,,,,
null,CORRECT,,html-keyboard-response,9,302302,0.0-3.0-8.0-0.0,79061,List2A,white,man,,,,null,,,,
5200,"<img src=""portrait/BW1.jpg""style=""width:400px;height:400px;""></img>",0,html-button-response,10,307505,0.0-3.0-10.0,79061,List2A,white,man,,TRUE,0,,,,,
null,CORRECT,,html-keyboard-response,11,309017,0.0-3.0-11.0-0.0,79061,List2A,white,man,,,,null,,,,
9105,"<img src=""portrait/WW2.jpg""style=""width:400px;height:400px;""></img>",3,html-button-response,12,318125,0.0-3.0-13.0,79061,List2A,white,man,,TRUE,3,,,,,
null,CORRECT,,html-keyboard-response,13,319640,0.0-3.0-14.0-0.0,79061,List2A,white,man,,,,null,,,,
11302,"<img src=""portrait/BM1.jpg""style=""width:400px;height:400px;""></img>",4,html-button-response,14,330945,0.0-3.0-16.0,79061,List2A,white,man,,TRUE,4,,,,,
null,CORRECT,,html-keyboard-response,15,332469,0.0-3.0-17.0-0.0,79061,List2A,white,man,,,,null,,,,
4047,"<img src=""portrait/WM1.jpg""style=""width:400px;height:400px;""></img>",6,html-button-response,16,336519,0.0-3.0-19.0,79061,List2A,white,man,,TRUE,6,,,,,
null,CORRECT,,html-keyboard-response,17,338039,0.0-3.0-20.0-0.0,79061,List2A,white,man,,,,null,,,,
7808,"<img src=""portrait/WW1.jpg""style=""width:400px;height:400px;""></img>",1,html-button-response,18,345848,0.0-3.0-22.0,79061,List2A,white,man,,TRUE,1,,,,,
null,CORRECT,,html-keyboard-response,19,347355,0.0-3.0-23.0-0.0,79061,List2A,white,man,,,,null,,,,
6532,<p>You got 8 out of 8 right first time. Press Continue.</p>,0,html-button-response,20,353889,0.0-3.0-25.0,79061,List2A,white,man,,,,,,,,
38774,"<p>In this experiment, you will view photographs of the people from the memory game interacting.</p><p>By using the <strong>exact</strong> phrase given <i>after</i> the photograph appears and recalling the correct names of the people in the photographs, form a sentence describing the interaction. You do not need to capitalise names.</p><p>Type your answer in the space provided. Please complete every sentence before moving onto the next trial.</p><p>You will only have a few seconds to memorise each given photograph and phrase before you can respond, so try your best to focus.</p><p>An example is given below. Press 'Continue' when you are ready.</p><img src='img/speaking_example_v2.jpg' style='width:800px;height:460px;''></img>",0,html-button-response,21,393674,0.0-4.0,79061,List2A,white,man,,,,,,,,
2110,"<p>Before the experiment starts, you will watch two example trials. Press 'Continue'.</p>",0,html-button-response,22,396799,0.0-5.0,79061,List2A,white,man,,,,,,,,
null,<img src='img/speaking_WW.gif'></img>,,html-keyboard-response,23,399814,0.0-6.0,79061,List2A,white,man,,,,null,,,,
null,<p>is speaking to</p>,,html-keyboard-response,24,401816,0.0-7.0,79061,List2A,white,man,,,,null,,,,
5344,<p><b>Answer:</b> jane is speaking to ruth</p>,0,html-button-response,25,407161,0.0-8.0,79061,List2A,white,man,,,,,,,,
null,<img src='img/pointing_BM.gif'></img>,,html-keyboard-response,26,410166,0.0-9.0,79061,List2A,white,man,,,,null,,,,
null,<p>are pointing at each other</p>,,html-keyboard-response,27,412179,0.0-10.0,79061,List2A,white,man,,,,null,,,,
5221,<p><b>Answer:</b> fred and mike are pointing at each other</p>,0,html-button-response,28,417401,0.0-11.0,79061,List2A,white,man,,,,,,,,
10345,"<p>Ready to start the experiment?</p><br><p><strong>Remember to describe the picture using a full sentence,</strong></p><p><strong>that combines the names of the people with the given phrase.</strong></p><p><strong>If you do not do this correctly you will not be paid.</strong></p><p><strong> You do not need to capitalise names or use punctuation.</strong></p><br><p>Press 'Continue' to begin.</p>",0,html-button-response,29,428755,0.0-12.0,79061,List2A,white,man,,,,,,,,
null,"<div style=""font-size:60px;"">+</div>",,html-keyboard-response,30,430262,0.0-13.0-0.0,79061,List2A,white,man,,,,null,,,,
null,"<img src=""stim_listA/hug6.gif""</stim_listA>",,html-keyboard-response,31,432277,0.0-13.0-1.0,79061,List2A,white,man,,,,null,,,,
null,are hugging each other,,html-keyboard-response,32,434289,0.0-13.0-2.0,79061,List2A,white,man,,,,null,,,,
13164,,,survey-text,33,447457,0.0-13.0-3.0,79061,List2A,white,man,,,,,"{""Q0"":""dave and mike are hugging each other""}","<img src=""stim_listA/hug6.gif""</stim_listA>",are hugging each other,
null,"<div style=""font-size:60px;"">+</div>",,html-keyboard-response,34,447960,0.0-13.0-0.1,79061,List2A,white,man,,,,null,,,,
null,"<img src=""stim_listA/argue6.gif""</stim_listA>",,html-keyboard-response,35,449963,0.0-13.0-1.1,79061,List2A,white,man,,,,null,,,,
null,are arguing with each other,,html-keyboard-response,36,451977,0.0-13.0-2.1,79061,List2A,white,man,,,,null,,,,
16848,,,survey-text,37,468827,0.0-13.0-3.1,79061,List2A,white,man,,,,,"{""Q0"":""luke and mike are arguing with each other""}","<img src=""stim_listA/argue6.gif""</stim_listA>",are arguing with each other,
null,"<div style=""font-size:60px;"">+</div>",,html-keyboard-response,38,469336,0.0-13.0-0.2,79061,List2A,white,man,,,,null,,,,
null,"<img src=""stim_listA/argue1.gif""</stim_listA>",,html-keyboard-response,39,471345,0.0-13.0-1.2,79061,List2A,white,man,,,,null,,,,
null,is arguing with,,html-keyboard-response,40,473358,0.0-13.0-2.2,79061,List2A,white,man,,,,null,,,,
21789,,,survey-text,41,495148,0.0-13.0-3.2,79061,List2A,white,man,,,,,"{""Q0"":""ruth and dave are pointing at each other""}","<img src=""stim_listA/argue1.gif""</stim_listA>",is arguing with,
null,"<div style=""font-size:60px;"">+</div>",,html-keyboard-response,42,495656,0.0-13.0-0.3,79061,List2A,white,man,,,,null,,,,
null,"<img src=""stim_listA/shout8.gif""</stim_listA>",,html-keyboard-response,43,497664,0.0-13.0-1.3,79061,List2A,white,man,,,,null,,,,
null,are shouting at each other,,html-keyboard-response,44,499668,0.0-13.0-2.3,79061,List2A,white,man,,,,null,,,,
16683,,,survey-text,45,516353,0.0-13.0-3.3,79061,List2A,white,man,,,,,"{""Q0"":""jane and kate are shouting at each other""}","<img src=""stim_listA/shout8.gif""</stim_listA>",are shouting at each other,
null,"<div style=""font-size:60px;"">+</div>",,html-keyboard-response,46,516865,0.0-13.0-0.4,79061,List2A,white,man,,,,null,,,,
null,"<img src=""stim_listA/hug3.gif""</stim_listA>",,html-keyboard-response,47,518876,0.0-13.0-1.4,79061,List2A,white,man,,,,null,,,,
null,is hugging,,html-keyboard-response,48,520890,0.0-13.0-2.4,79061,List2A,white,man,,,,null,,,,
30032,,,survey-text,49,550924,0.0-13.0-3.4,79061,List2A,white,man,,,,,"{""Q0"":""beth is hugging fred""}","<img src=""stim_listA/hug3.gif""</stim_listA>",is hugging,
null,"<div style=""font-size:60px;"">+</div>",,html-keyboard-response,50,551425,0.0-13.0-0.5,79061,List2A,white,man,,,,null,,,,
null,"<img src=""stim_listA/dance4.gif""</stim_listA>",,html-keyboard-response,51,553441,0.0-13.0-1.5,79061,List2A,white,man,,,,null,,,,
null,are dancing with each other,,html-keyboard-response,52,555443,0.0-13.0-2.5,79061,List2A,white,man,,,,null,,,,
17663,,,survey-text,53,573107,0.0-13.0-3.5,79061,List2A,white,man,,,,,"{""Q0"":""beth and mike are dancing with each other""}","<img src=""stim_listA/dance4.gif""</stim_listA>",are dancing with each other,
null,"<div style=""font-size:60px;"">+</div>",,html-keyboard-response,54,573612,0.0-13.0-0.6,79061,List2A,white,man,,,,null,,,,
null,"<img src=""stim_listA/marry7.gif""</stim_listA>",,html-keyboard-response,55,575617,0.0-13.0-1.6,79061,List2A,white,man,,,,null,,,,
null,is marrying,,html-keyboard-response,56,577628,0.0-13.0-2.6,79061,List2A,white,man,,,,null,,,,
16665,,,survey-text,57,594294,0.0-13.0-3.6,79061,List2A,white,man,,,,,"{""Q0"":""beth is marrying jane""}","<img src=""stim_listA/marry7.gif""</stim_listA>",is marrying,
null,"<div style=""font-size:60px;"">+</div>",,html-keyboard-response,58,594795,0.0-13.0-0.7,79061,List2A,white,man,,,,null,,,,
null,"<img src=""stim_listA/meet5.gif""</stim_listA>",,html-keyboard-response,59,596803,0.0-13.0-1.7,79061,List2A,white,man,,,,null,,,,
null,is meeting,,html-keyboard-response,60,598810,0.0-13.0-2.7,79061,List2A,white,man,,,,null,,,,
10963,,,survey-text,61,609775,0.0-13.0-3.7,79061,List2A,white,man,,,,,"{""Q0"":""dave is meeting mike""}","<img src=""stim_listA/meet5.gif""</stim_listA>",is meeting,
null,"<div style=""font-size:60px;"">+</div>",,html-keyboard-response,62,610281,0.0-13.0-0.8,79061,List2A,white,man,,,,null,,,,
null,"<img src=""stim_listA/kiss8.gif""</stim_listA>",,html-keyboard-response,63,612285,0.0-13.0-1.8,79061,List2A,white,man,,,,null,,,,
null,are kissing each other,,html-keyboard-response,64,614301,0.0-13.0-2.8,79061,List2A,white,man,,,,null,,,,
15700,,,survey-text,65,630002,0.0-13.0-3.8,79061,List2A,white,man,,,,,"{""Q0"":""jane and kate are kissing each other""}","<img src=""stim_listA/kiss8.gif""</stim_listA>",are kissing each other,
null,"<div style=""font-size:60px;"">+</div>",,html-keyboard-response,66,630506,0.0-13.0-0.9,79061,List2A,white,man,,,,null,,,,
null,"<img src=""stim_listA/kiss5.gif""</stim_listA>",,html-keyboard-response,67,632520,0.0-13.0-1.9,79061,List2A,white,man,,,,null,,,,
null,is kissing,,html-keyboard-response,68,634534,0.0-13.0-2.9,79061,List2A,white,man,,,,null,,,,
10947,,,survey-text,69,645482,0.0-13.0-3.9,79061,List2A,white,man,,,,,"{""Q0"":""luke is kissing fred""}","<img src=""stim_listA/kiss5.gif""</stim_listA>",is kissing,
null,"<div style=""font-size:60px;"">+</div>",,html-keyboard-response,70,645996,0.0-13.0-0.10,79061,List2A,white,man,,,,null,,,,
null,"<img src=""stim_listA/dance6.gif""</stim_listA>",,html-keyboard-response,71,648003,0.0-13.0-1.10,79061,List2A,white,man,,,,null,,,,
null,are dancing with each other,,html-keyboard-response,72,650011,0.0-13.0-2.10,79061,List2A,white,man,,,,null,,,,
12788,,,survey-text,73,662801,0.0-13.0-3.10,79061,List2A,white,man,,,,,"{""Q0"":""fred and dave are dancing with each other""}","<img src=""stim_listA/dance6.gif""</stim_listA>",are dancing with each other,
null,"<div style=""font-size:60px;"">+</div>",,html-keyboard-response,74,663303,0.0-13.0-0.11,79061,List2A,white,man,,,,null,,,,
null,"<img src=""stim_listA/meet4.gif""</stim_listA>",,html-keyboard-response,75,665309,0.0-13.0-1.11,79061,List2A,white,man,,,,null,,,,
null,are meeting each other,,html-keyboard-response,76,667313,0.0-13.0-2.11,79061,List2A,white,man,,,,null,,,,
16730,,,survey-text,77,684044,0.0-13.0-3.11,79061,List2A,white,man,,,,,"{""Q0"":""mike and beth are meeting each other""}","<img src=""stim_listA/meet4.gif""</stim_listA>",are meeting each other,
null,"<div style=""font-size:60px;"">+</div>",,html-keyboard-response,78,684547,0.0-13.0-0.12,79061,List2A,white,man,,,,null,,,,
null,"<img src=""stim_listA/meet3.gif""</stim_listA>",,html-keyboard-response,79,686552,0.0-13.0-1.12,79061,List2A,white,man,,,,null,,,,
null,is meeting,,html-keyboard-response,80,688561,0.0-13.0-2.12,79061,List2A,white,man,,,,null,,,,
17876,,,survey-text,81,706439,0.0-13.0-3.12,79061,List2A,white,man,,,,,"{""Q0"":""mike and kate are shaking hands""}","<img src=""stim_listA/meet3.gif""</stim_listA>",is meeting,
null,"<div style=""font-size:60px;"">+</div>",,html-keyboard-response,82,706941,0.0-13.0-0.13,79061,List2A,white,man,,,,null,,,,
null,"<img src=""stim_listA/fight3.gif""</stim_listA>",,html-keyboard-response,83,708945,0.0-13.0-1.13,79061,List2A,white,man,,,,null,,,,
null,is fighting,,html-keyboard-response,84,710958,0.0-13.0-2.13,79061,List2A,white,man,,,,null,,,,
10036,,,survey-text,85,720995,0.0-13.0-3.13,79061,List2A,white,man,,,,,"{""Q0"":""mike is fighting kate""}","<img src=""stim_listA/fight3.gif""</stim_listA>",is fighting,
null,"<div style=""font-size:60px;"">+</div>",,html-keyboard-response,86,721510,0.0-13.0-0.14,79061,List2A,white,man,,,,null,,,,
null,"<img src=""stim_listA/dance8.gif""</stim_listA>",,html-keyboard-response,87,723519,0.0-13.0-1.14,79061,List2A,white,man,,,,null,,,,
null,are dancing with each other,,html-keyboard-response,88,725534,0.0-13.0-2.14,79061,List2A,white,man,,,,null,,,,
20974,,,survey-text,89,746509,0.0-13.0-3.14,79061,List2A,white,man,,,,,"{""Q0"":""beth and jane are dancing with each other""}","<img src=""stim_listA/dance8.gif""</stim_listA>",are dancing with each other,
null,"<div style=""font-size:60px;"">+</div>",,html-keyboard-response,90,747012,0.0-13.0-0.15,79061,List2A,white,man,,,,null,,,,
null,"<img src=""stim_listA/marry8.gif""</stim_listA>",,html-keyboard-response,91,749025,0.0-13.0-1.15,79061,List2A,white,man,,,,null,,,,
null,are marrying each other,,html-keyboard-response,92,751038,0.0-13.0-2.15,79061,List2A,white,man,,,,null,,,,
24950,,,survey-text,93,775990,0.0-13.0-3.15,79061,List2A,white,man,,,,,"{""Q0"":""ruth and kate are marrying each other""}","<img src=""stim_listA/marry8.gif""</stim_listA>",are marrying each other,
null,"<div style=""font-size:60px;"">+</div>",,html-keyboard-response,94,776494,0.0-13.0-0.16,79061,List2A,white,man,,,,null,,,,
null,"<img src=""stim_listA/argue8.gif""</stim_listA>",,html-keyboard-response,95,778498,0.0-13.0-1.16,79061,List2A,white,man,,,,null,,,,
null,are arguing with each other,,html-keyboard-response,96,780510,0.0-13.0-2.16,79061,List2A,white,man,,,,null,,,,
12325,,,survey-text,97,792837,0.0-13.0-3.16,79061,List2A,white,man,,,,,"{""Q0"":""ruth and kate are arguing with each other""}","<img src=""stim_listA/argue8.gif""</stim_listA>",are arguing with each other,
null,"<div style=""font-size:60px;"">+</div>",,html-keyboard-response,98,793348,0.0-13.0-0.17,79061,List2A,white,man,,,,null,,,,
null,"<img src=""stim_listA/marry3.gif""</stim_listA>",,html-keyboard-response,99,795356,0.0-13.0-1.17,79061,List2A,white,man,,,,null,,,,
null,is marrying,,html-keyboard-response,100,797368,0.0-13.0-2.17,79061,List2A,white,man,,,,null,,,,
11437,,,survey-text,101,808807,0.0-13.0-3.17,79061,List2A,white,man,,,,,"{""Q0"":""beth is marrying mike""}","<img src=""stim_listA/marry3.gif""</stim_listA>",is marrying,
null,"<div style=""font-size:60px;"">+</div>",,html-keyboard-response,102,809323,0.0-13.0-0.18,79061,List2A,white,man,,,,null,,,,
null,"<img src=""stim_listA/kiss7.gif""</stim_listA>",,html-keyboard-response,103,811339,0.0-13.0-1.18,79061,List2A,white,man,,,,null,,,,
null,is kissing,,html-keyboard-response,104,813350,0.0-13.0-2.18,79061,List2A,white,man,,,,null,,,,
11303,,,survey-text,105,824655,0.0-13.0-3.18,79061,List2A,white,man,,,,,"{""Q0"":""beth is kissing ruth""}","<img src=""stim_listA/kiss7.gif""</stim_listA>",is kissing,
null,"<div style=""font-size:60px;"">+</div>",,html-keyboard-response,106,825169,0.0-13.0-0.19,79061,List2A,white,man,,,,null,,,,
null,"<img src=""stim_listA/fight4.gif""</stim_listA>",,html-keyboard-response,107,827184,0.0-13.0-1.19,79061,List2A,white,man,,,,null,,,,
null,are fighting each other,,html-keyboard-response,108,829196,0.0-13.0-2.19,79061,List2A,white,man,,,,null,,,,
19171,,,survey-text,109,848368,0.0-13.0-3.19,79061,List2A,white,man,,,,,"{""Q0"":""beth and fred are fighting each other""}","<img src=""stim_listA/fight4.gif""</stim_listA>",are fighting each other,
13542,"<img src='img/portrait_matrix_list2.JPG' style='width:900px;height:500px;''></img><p>If you have memorised all the portraits and names and are ready to start, press Continue.</p><p><strong>Please note: Your memory of these faces will be tested 4 times during this experiment.</strong></p>",0,html-button-response,110,861911,0.0-14.0-0.0,79061,List2A,white,man,,,,,,,,
7656,"<img src=""portrait/WW1.jpg""style=""width:400px;height:400px;""></img>",1,html-button-response,111,870570,0.0-14.0-1.0,79061,List2A,white,man,,TRUE,1,,,,,
null,CORRECT,,html-keyboard-response,112,872096,0.0-14.0-2.0-0.0,79061,List2A,white,man,,,,null,,,,
3900,"<img src=""portrait/BM2.jpg""style=""width:400px;height:400px;""></img>",5,html-button-response,113,875999,0.0-14.0-4.0,79061,List2A,white,man,,TRUE,5,,,,,
null,CORRECT,,html-keyboard-response,114,877518,0.0-14.0-5.0-0.0,79061,List2A,white,man,,,,null,,,,
4456,"<img src=""portrait/BW2.jpg""style=""width:400px;height:400px;""></img>",2,html-button-response,115,881977,0.0-14.0-7.0,79061,List2A,white,man,,TRUE,2,,,,,
null,CORRECT,,html-keyboard-response,116,883500,0.0-14.0-8.0-0.0,79061,List2A,white,man,,,,null,,,,
3526,"<img src=""portrait/BM1.jpg""style=""width:400px;height:400px;""></img>",4,html-button-response,117,887029,0.0-14.0-10.0,79061,List2A,white,man,,TRUE,4,,,,,
null,CORRECT,,html-keyboard-response,118,888541,0.0-14.0-11.0-0.0,79061,List2A,white,man,,,,null,,,,
3914,"<img src=""portrait/BW1.jpg""style=""width:400px;height:400px;""></img>",0,html-button-response,119,892457,0.0-14.0-13.0,79061,List2A,white,man,,TRUE,0,,,,,
null,CORRECT,,html-keyboard-response,120,893960,0.0-14.0-14.0-0.0,79061,List2A,white,man,,,,null,,,,
2997,"<img src=""portrait/WM2.jpg""style=""width:400px;height:400px;""></img>",7,html-button-response,121,896959,0.0-14.0-16.0,79061,List2A,white,man,,TRUE,7,,,,,
null,CORRECT,,html-keyboard-response,122,898470,0.0-14.0-17.0-0.0,79061,List2A,white,man,,,,null,,,,
7137,"<img src=""portrait/WW2.jpg""style=""width:400px;height:400px;""></img>",3,html-button-response,123,905608,0.0-14.0-19.0,79061,List2A,white,man,,TRUE,3,,,,,
null,CORRECT,,html-keyboard-response,124,907138,0.0-14.0-20.0-0.0,79061,List2A,white,man,,,,null,,,,
3309,"<img src=""portrait/WM1.jpg""style=""width:400px;height:400px;""></img>",6,html-button-response,125,910449,0.0-14.0-22.0,79061,List2A,white,man,,TRUE,6,,,,,
null,CORRECT,,html-keyboard-response,126,911963,0.0-14.0-23.0-0.0,79061,List2A,white,man,,,,null,,,,
19225,<p>You got 8 out of 8 right first time. Press Continue.</p>,0,html-button-response,127,931190,0.0-14.0-25.0,79061,List2A,white,man,,,,,,,,
null,"<div style=""font-size:60px;"">+</div>",,html-keyboard-response,128,932703,0.0-15.0-0.0,79061,List2A,white,man,,,,null,,,,
null,"<img src=""stim_listA/touch8.gif""</stim_listA>",,html-keyboard-response,129,934715,0.0-15.0-1.0,79061,List2A,white,man,,,,null,,,,
null,are touching each other,,html-keyboard-response,130,936728,0.0-15.0-2.0,79061,List2A,white,man,,,,null,,,,
20358,,,survey-text,131,957088,0.0-15.0-3.0,79061,List2A,white,man,,,,,"{""Q0"":""beth and ruth are touching each other""}","<img src=""stim_listA/touch8.gif""</stim_listA>",are touching each other,
null,"<div style=""font-size:60px;"">+</div>",,html-keyboard-response,132,957594,0.0-15.0-0.1,79061,List2A,white,man,,,,null,,,,
null,"<img src=""stim_listA/touch3.gif""</stim_listA>",,html-keyboard-response,133,959598,0.0-15.0-1.1,79061,List2A,white,man,,,,null,,,,
null,is touching,,html-keyboard-response,134,961600,0.0-15.0-2.1,79061,List2A,white,man,,,,null,,,,
23024,,,survey-text,135,984626,0.0-15.0-3.1,79061,List2A,white,man,,,,,"{""Q0"":""kate and mike are holding hands""}","<img src=""stim_listA/touch3.gif""</stim_listA>",is touching,
null,"<div style=""font-size:60px;"">+</div>",,html-keyboard-response,136,985132,0.0-15.0-0.2,79061,List2A,white,man,,,,null,,,,
null,"<img src=""stim_listA/touch4.gif""</stim_listA>",,html-keyboard-response,137,987146,0.0-15.0-1.2,79061,List2A,white,man,,,,null,,,,
null,are touching each other,,html-keyboard-response,138,989155,0.0-15.0-2.2,79061,List2A,white,man,,,,null,,,,
24397,,,survey-text,139,1013554,0.0-15.0-3.2,79061,List2A,white,man,,,,,"{""Q0"":""beth and fred are touching each other""}","<img src=""stim_listA/touch4.gif""</stim_listA>",are touching each other,
null,"<div style=""font-size:60px;"">+</div>",,html-keyboard-response,140,1014057,0.0-15.0-0.3,79061,List2A,white,man,,,,null,,,,
null,"<img src=""stim_listA/marry4.gif""</stim_listA>",,html-keyboard-response,141,1016070,0.0-15.0-1.3,79061,List2A,white,man,,,,null,,,,
null,are marrying each other,,html-keyboard-response,142,1018082,0.0-15.0-2.3,79061,List2A,white,man,,,,null,,,,
11966,,,survey-text,143,1030049,0.0-15.0-3.3,79061,List2A,white,man,,,,,"{""Q0"":""kate and fred are marrying each other""}","<img src=""stim_listA/marry4.gif""</stim_listA>",are marrying each other,
null,"<div style=""font-size:60px;"">+</div>",,html-keyboard-response,144,1030550,0.0-15.0-0.4,79061,List2A,white,man,,,,null,,,,
null,"<img src=""stim_listA/marry2.gif""</stim_listA>",,html-keyboard-response,145,1032561,0.0-15.0-1.4,79061,List2A,white,man,,,,null,,,,
null,are marrying each other,,html-keyboard-response,146,1034575,0.0-15.0-2.4,79061,List2A,white,man,,,,null,,,,
11041,,,survey-text,147,1045617,0.0-15.0-3.4,79061,List2A,white,man,,,,,"{""Q0"":""luke and jane are holding hands""}","<img src=""stim_listA/marry2.gif""</stim_listA>",are marrying each other,
null,"<div style=""font-size:60px;"">+</div>",,html-keyboard-response,148,1046132,0.0-15.0-0.5,79061,List2A,white,man,,,,null,,,,
null,"<img src=""stim_listA/fight1.gif""</stim_listA>",,html-keyboard-response,149,1048148,0.0-15.0-1.5,79061,List2A,white,man,,,,null,,,,
null,is fighting,,html-keyboard-response,150,1050162,0.0-15.0-2.5,79061,List2A,white,man,,,,null,,,,
6962,,,survey-text,151,1057126,0.0-15.0-3.5,79061,List2A,white,man,,,,,"{""Q0"":""jane is fighting dave""}","<img src=""stim_listA/fight1.gif""</stim_listA>",is fighting,
null,"<div style=""font-size:60px;"">+</div>",,html-keyboard-response,152,1057629,0.0-15.0-0.6,79061,List2A,white,man,,,,null,,,,
null,"<img src=""stim_listA/argue3.gif""</stim_listA>",,html-keyboard-response,153,1059642,0.0-15.0-1.6,79061,List2A,white,man,,,,null,,,,
null,is arguing with,,html-keyboard-response,154,1061656,0.0-15.0-2.6,79061,List2A,white,man,,,,null,,,,
19421,,,survey-text,155,1081079,0.0-15.0-3.6,79061,List2A,white,man,,,,,"{""Q0"":""beth is arguing with mike""}","<img src=""stim_listA/argue3.gif""</stim_listA>",is arguing with,
null,"<div style=""font-size:60px;"">+</div>",,html-keyboard-response,156,1081581,0.0-15.0-0.7,79061,List2A,white,man,,,,null,,,,
null,"<img src=""stim_listA/fight8.gif""</stim_listA>",,html-keyboard-response,157,1083592,0.0-15.0-1.7,79061,List2A,white,man,,,,null,,,,
null,are fighting each other,,html-keyboard-response,158,1085605,0.0-15.0-2.7,79061,List2A,white,man,,,,null,,,,
14131,,,survey-text,159,1099738,0.0-15.0-3.7,79061,List2A,white,man,,,,,"{""Q0"":""beth and ruth are fighting with each other""}","<img src=""stim_listA/fight8.gif""</stim_listA>",are fighting each other,
null,"<div style=""font-size:60px;"">+</div>",,html-keyboard-response,160,1100246,0.0-15.0-0.8,79061,List2A,white,man,,,,null,,,,
null,"<img src=""stim_listA/hug2.gif""</stim_listA>",,html-keyboard-response,161,1102258,0.0-15.0-1.8,79061,List2A,white,man,,,,null,,,,
null,are hugging each other,,html-keyboard-response,162,1104270,0.0-15.0-2.8,79061,List2A,white,man,,,,null,,,,
14505,,,survey-text,163,1118776,0.0-15.0-3.8,79061,List2A,white,man,,,,,"{""Q0"":""jane and dave are hugging each other""}","<img src=""stim_listA/hug2.gif""</stim_listA>",are hugging each other,
null,"<div style=""font-size:60px;"">+</div>",,html-keyboard-response,164,1119279,0.0-15.0-0.9,79061,List2A,white,man,,,,null,,,,
null,"<img src=""stim_listA/talk7.gif""</stim_listA>",,html-keyboard-response,165,1121293,0.0-15.0-1.9,79061,List2A,white,man,,,,null,,,,
null,is talking to,,html-keyboard-response,166,1123305,0.0-15.0-2.9,79061,List2A,white,man,,,,null,,,,
15635,,,survey-text,167,1138941,0.0-15.0-3.9,79061,List2A,white,man,,,,,"{""Q0"":""ruth is talking to kate""}","<img src=""stim_listA/talk7.gif""</stim_listA>",is talking to,
null,"<div style=""font-size:60px;"">+</div>",,html-keyboard-response,168,1139451,0.0-15.0-0.10,79061,List2A,white,man,,,,null,,,,
null,"<img src=""stim_listA/argue7.gif""</stim_listA>",,html-keyboard-response,169,1141466,0.0-15.0-1.10,79061,List2A,white,man,,,,null,,,,
null,is arguing with,,html-keyboard-response,170,1143478,0.0-15.0-2.10,79061,List2A,white,man,,,,null,,,,
10605,,,survey-text,171,1154085,0.0-15.0-3.10,79061,List2A,white,man,,,,,"{""Q0"":""jane is arguing with beth""}","<img src=""stim_listA/argue7.gif""</stim_listA>",is arguing with,
null,"<div style=""font-size:60px;"">+</div>",,html-keyboard-response,172,1154586,0.0-15.0-0.11,79061,List2A,white,man,,,,null,,,,
null,"<img src=""stim_listA/shout5.gif""</stim_listA>",,html-keyboard-response,173,1156599,0.0-15.0-1.11,79061,List2A,white,man,,,,null,,,,
null,is shouting at,,html-keyboard-response,174,1158614,0.0-15.0-2.11,79061,List2A,white,man,,,,null,,,,
9094,,,survey-text,175,1167710,0.0-15.0-3.11,79061,List2A,white,man,,,,,"{""Q0"":""fred is shouting at luke""}","<img src=""stim_listA/shout5.gif""</stim_listA>",is shouting at,
null,"<div style=""font-size:60px;"">+</div>",,html-keyboard-response,176,1168213,0.0-15.0-0.12,79061,List2A,white,man,,,,null,,,,
null,"<img src=""stim_listA/touch2.gif""</stim_listA>",,html-keyboard-response,177,1170224,0.0-15.0-1.12,79061,List2A,white,man,,,,null,,,,
null,are touching each other,,html-keyboard-response,178,1172237,0.0-15.0-2.12,79061,List2A,white,man,,,,null,,,,
13636,,,survey-text,179,1185874,0.0-15.0-3.12,79061,List2A,white,man,,,,,"{""Q0"":""luke and ruth are touching each other""}","<img src=""stim_listA/touch2.gif""</stim_listA>",are touching each other,
null,"<div style=""font-size:60px;"">+</div>",,html-keyboard-response,180,1186386,0.0-15.0-0.13,79061,List2A,white,man,,,,null,,,,
null,"<img src=""stim_listA/hug7.gif""</stim_listA>",,html-keyboard-response,181,1188401,0.0-15.0-1.13,79061,List2A,white,man,,,,null,,,,
null,is hugging,,html-keyboard-response,182,1190413,0.0-15.0-2.13,79061,List2A,white,man,,,,null,,,,
11431,,,survey-text,183,1201845,0.0-15.0-3.13,79061,List2A,white,man,,,,,"{""Q0"":""beth is hugging ruth""}","<img src=""stim_listA/hug7.gif""</stim_listA>",is hugging,
null,"<div style=""font-size:60px;"">+</div>",,html-keyboard-response,184,1202350,0.0-15.0-0.14,79061,List2A,white,man,,,,null,,,,
null,"<img src=""stim_listA/meet2.gif""</stim_listA>",,html-keyboard-response,185,1204361,0.0-15.0-1.14,79061,List2A,white,man,,,,null,,,,
null,are meeting each other,,html-keyboard-response,186,1206375,0.0-15.0-2.14,79061,List2A,white,man,,,,null,,,,
14220,,,survey-text,187,1220597,0.0-15.0-3.14,79061,List2A,white,man,,,,,"{""Q0"":""luke and ruth are meeting each other""}","<img src=""stim_listA/meet2.gif""</stim_listA>",are meeting each other,
null,"<div style=""font-size:60px;"">+</div>",,html-keyboard-response,188,1221098,0.0-15.0-0.15,79061,List2A,white,man,,,,null,,,,
null,"<img src=""stim_listA/meet8.gif""</stim_listA>",,html-keyboard-response,189,1223111,0.0-15.0-1.15,79061,List2A,white,man,,,,null,,,,
null,are meeting each other,,html-keyboard-response,190,1225114,0.0-15.0-2.15,79061,List2A,white,man,,,,null,,,,
11369,,,survey-text,191,1236485,0.0-15.0-3.15,79061,List2A,white,man,,,,,"{""Q0"":""beth and ruth are meeting each other""}","<img src=""stim_listA/meet8.gif""</stim_listA>",are meeting each other,
null,"<div style=""font-size:60px;"">+</div>",,html-keyboard-response,192,1237008,0.0-15.0-0.16,79061,List2A,white,man,,,,null,,,,
null,"<img src=""stim_listA/shout7.gif""</stim_listA>",,html-keyboard-response,193,1239019,0.0-15.0-1.16,79061,List2A,white,man,,,,null,,,,
null,is shouting at,,html-keyboard-response,194,1241033,0.0-15.0-2.16,79061,List2A,white,man,,,,null,,,,
7837,,,survey-text,195,1248872,0.0-15.0-3.16,79061,List2A,white,man,,,,,"{""Q0"":""beth is shouting at ruth""}","<img src=""stim_listA/shout7.gif""</stim_listA>",is shouting at,
null,"<div style=""font-size:60px;"">+</div>",,html-keyboard-response,196,1249374,0.0-15.0-0.17,79061,List2A,white,man,,,,null,,,,
null,"<img src=""stim_listA/shout1.gif""</stim_listA>",,html-keyboard-response,197,1251388,0.0-15.0-1.17,79061,List2A,white,man,,,,null,,,,
null,is shouting at,,html-keyboard-response,198,1253398,0.0-15.0-2.17,79061,List2A,white,man,,,,null,,,,
12047,,,survey-text,199,1265448,0.0-15.0-3.17,79061,List2A,white,man,,,,,"{""Q0"":""ruth is shouting at luke""}","<img src=""stim_listA/shout1.gif""</stim_listA>",is shouting at,
null,"<div style=""font-size:60px;"">+</div>",,html-keyboard-response,200,1265950,0.0-15.0-0.18,79061,List2A,white,man,,,,null,,,,
null,"<img src=""stim_listA/shout2.gif""</stim_listA>",,html-keyboard-response,201,1267963,0.0-15.0-1.18,79061,List2A,white,man,,,,null,,,,
null,are shouting at each other,,html-keyboard-response,202,1269976,0.0-15.0-2.18,79061,List2A,white,man,,,,null,,,,
9967,,,survey-text,203,1279945,0.0-15.0-3.18,79061,List2A,white,man,,,,,"{""Q0"":""dave and jane are shouting at each other""}","<img src=""stim_listA/shout2.gif""</stim_listA>",are shouting at each other,
null,"<div style=""font-size:60px;"">+</div>",,html-keyboard-response,204,1280454,0.0-15.0-0.19,79061,List2A,white,man,,,,null,,,,
null,"<img src=""stim_listA/marry1.gif""</stim_listA>",,html-keyboard-response,205,1282468,0.0-15.0-1.19,79061,List2A,white,man,,,,null,,,,
null,is marrying,,html-keyboard-response,206,1284480,0.0-15.0-2.19,79061,List2A,white,man,,,,null,,,,
9406,,,survey-text,207,1293888,0.0-15.0-3.19,79061,List2A,white,man,,,,,"{""Q0"":""dave is marrying ruth""}","<img src=""stim_listA/marry1.gif""</stim_listA>",is marrying,
6603,"<img src='img/portrait_matrix_list2.JPG' style='width:900px;height:500px;''></img><p>If you have memorised all the portraits and names and are ready to start, press Continue.</p><p><strong>Please note: Your memory of these faces will be tested 4 times during this experiment.</strong></p>",0,html-button-response,208,1300491,0.0-16.0-0.0,79061,List2A,white,man,,,,,,,,
4023,"<img src=""portrait/BM1.jpg""style=""width:400px;height:400px;""></img>",4,html-button-response,209,1305532,0.0-16.0-1.0,79061,List2A,white,man,,TRUE,4,,,,,
null,CORRECT,,html-keyboard-response,210,1307041,0.0-16.0-2.0-0.0,79061,List2A,white,man,,,,null,,,,
3231,"<img src=""portrait/WW2.jpg""style=""width:400px;height:400px;""></img>",3,html-button-response,211,1310274,0.0-16.0-4.0,79061,List2A,white,man,,TRUE,3,,,,,
null,CORRECT,,html-keyboard-response,212,1311782,0.0-16.0-5.0-0.0,79061,List2A,white,man,,,,null,,,,
3646,"<img src=""portrait/BW2.jpg""style=""width:400px;height:400px;""></img>",2,html-button-response,213,1315430,0.0-16.0-7.0,79061,List2A,white,man,,TRUE,2,,,,,
null,CORRECT,,html-keyboard-response,214,1316938,0.0-16.0-8.0-0.0,79061,List2A,white,man,,,,null,,,,
2606,"<img src=""portrait/WM1.jpg""style=""width:400px;height:400px;""></img>",6,html-button-response,215,1319546,0.0-16.0-10.0,79061,List2A,white,man,,TRUE,6,,,,,
null,CORRECT,,html-keyboard-response,216,1321049,0.0-16.0-11.0-0.0,79061,List2A,white,man,,,,null,,,,
1347,"<img src=""portrait/WM2.jpg""style=""width:400px;height:400px;""></img>",7,html-button-response,217,1322398,0.0-16.0-13.0,79061,List2A,white,man,,TRUE,7,,,,,
null,CORRECT,,html-keyboard-response,218,1323917,0.0-16.0-14.0-0.0,79061,List2A,white,man,,,,null,,,,
3029,"<img src=""portrait/BW1.jpg""style=""width:400px;height:400px;""></img>",0,html-button-response,219,1326947,0.0-16.0-16.0,79061,List2A,white,man,,TRUE,0,,,,,
null,CORRECT,,html-keyboard-response,220,1328458,0.0-16.0-17.0-0.0,79061,List2A,white,man,,,,null,,,,
5552,"<img src=""portrait/BM2.jpg""style=""width:400px;height:400px;""></img>",5,html-button-response,221,1334011,0.0-16.0-19.0,79061,List2A,white,man,,TRUE,5,,,,,
null,CORRECT,,html-keyboard-response,222,1335520,0.0-16.0-20.0-0.0,79061,List2A,white,man,,,,null,,,,
2412,"<img src=""portrait/WW1.jpg""style=""width:400px;height:400px;""></img>",0,html-button-response,223,1337933,0.0-16.0-22.0,79061,List2A,white,man,,TRUE,1,,,,,
7089,"<img src=""portrait/WW1.jpg""style=""width:400px;height:400px;""></img>",1,html-button-response,224,1346037,0.0-16.0-24.0-0.0,79061,List2A,white,man,,FALSE,1,,,,,
null,CORRECT,,html-keyboard-response,225,1347555,0.0-16.0-24.0-1.0-0.0,79061,List2A,white,man,,,,null,,,,
1506,<p>You got 7 out of 8 right first time. Press Continue.</p>,0,html-button-response,226,1349062,0.0-16.0-25.0,79061,List2A,white,man,,,,,,,,
3819,"As you did not score 100%, the memory game will repeat. Press Continue.",0,html-button-response,227,1353894,0.0-16.0-26.0-0.0,79061,List2A,white,man,,,,,,,,
7033,"<img src='img/portrait_matrix_list2.JPG' style='width:900px;height:500px;''></img><p>If you have memorised all the portraits and names and are ready to start, press Continue.</p><p><strong>Please note: Your memory of these faces will be tested 4 times during this experiment.</strong></p>",0,html-button-response,228,1361935,0.0-16.1-0.1,79061,List2A,white,man,,,,,,,,
5140,"<img src=""portrait/BM1.jpg""style=""width:400px;height:400px;""></img>",4,html-button-response,229,1368092,0.0-16.1-1.1,79061,List2A,white,man,,TRUE,4,,,,,
null,CORRECT,,html-keyboard-response,230,1369617,0.0-16.1-2.1-0.1,79061,List2A,white,man,,,,null,,,,
2954,"<img src=""portrait/WW2.jpg""style=""width:400px;height:400px;""></img>",3,html-button-response,231,1372573,0.0-16.1-4.1,79061,List2A,white,man,,TRUE,3,,,,,
null,CORRECT,,html-keyboard-response,232,1374091,0.0-16.1-5.1-0.1,79061,List2A,white,man,,,,null,,,,
4116,"<img src=""portrait/BW2.jpg""style=""width:400px;height:400px;""></img>",2,html-button-response,233,1378210,0.0-16.1-7.1,79061,List2A,white,man,,TRUE,2,,,,,
null,CORRECT,,html-keyboard-response,234,1379728,0.0-16.1-8.1-0.1,79061,List2A,white,man,,,,null,,,,
2584,"<img src=""portrait/WM1.jpg""style=""width:400px;height:400px;""></img>",6,html-button-response,235,1382315,0.0-16.1-10.1,79061,List2A,white,man,,TRUE,6,,,,,
null,CORRECT,,html-keyboard-response,236,1383839,0.0-16.1-11.1-0.1,79061,List2A,white,man,,,,null,,,,
1056,"<img src=""portrait/WM2.jpg""style=""width:400px;height:400px;""></img>",7,html-button-response,237,1384897,0.0-16.1-13.1,79061,List2A,white,man,,TRUE,7,,,,,
null,CORRECT,,html-keyboard-response,238,1386410,0.0-16.1-14.1-0.1,79061,List2A,white,man,,,,null,,,,
4323,"<img src=""portrait/BW1.jpg""style=""width:400px;height:400px;""></img>",0,html-button-response,239,1390736,0.0-16.1-16.1,79061,List2A,white,man,,TRUE,0,,,,,
null,CORRECT,,html-keyboard-response,240,1392260,0.0-16.1-17.1-0.1,79061,List2A,white,man,,,,null,,,,
3928,"<img src=""portrait/BM2.jpg""style=""width:400px;height:400px;""></img>",5,html-button-response,241,1396189,0.0-16.1-19.1,79061,List2A,white,man,,TRUE,5,,,,,
null,CORRECT,,html-keyboard-response,242,1397698,0.0-16.1-20.1-0.1,79061,List2A,white,man,,,,null,,,,
4607,"<img src=""portrait/WW1.jpg""style=""width:400px;height:400px;""></img>",1,html-button-response,243,1402308,0.0-16.1-22.1,79061,List2A,white,man,,TRUE,1,,,,,
null,CORRECT,,html-keyboard-response,244,1403830,0.0-16.1-23.1-0.1,79061,List2A,white,man,,,,null,,,,
7320,<p>You got 8 out of 8 right first time. Press Continue.</p>,0,html-button-response,245,1411152,0.0-16.1-25.1,79061,List2A,white,man,,,,,,,,
null,"<div style=""font-size:60px;"">+</div>",,html-keyboard-response,246,1412666,0.0-17.0-0.0,79061,List2A,white,man,,,,null,,,,
null,"<img src=""stim_listA/dance3.gif""</stim_listA>",,html-keyboard-response,247,1414678,0.0-17.0-1.0,79061,List2A,white,man,,,,null,,,,
null,is dancing with,,html-keyboard-response,248,1416692,0.0-17.0-2.0,79061,List2A,white,man,,,,null,,,,
11265,,,survey-text,249,1427958,0.0-17.0-3.0,79061,List2A,white,man,,,,,"{""Q0"":""fred is dancing with kate""}","<img src=""stim_listA/dance3.gif""</stim_listA>",is dancing with,
null,"<div style=""font-size:60px;"">+</div>",,html-keyboard-response,250,1428472,0.0-17.0-0.1,79061,List2A,white,man,,,,null,,,,
null,"<img src=""stim_listA/talk1.gif""</stim_listA>",,html-keyboard-response,251,1430487,0.0-17.0-1.1,79061,List2A,white,man,,,,null,,,,
null,is talking to,,html-keyboard-response,252,1432501,0.0-17.0-2.1,79061,List2A,white,man,,,,null,,,,
8088,,,survey-text,253,1440590,0.0-17.0-3.1,79061,List2A,white,man,,,,,"{""Q0"":""jane is talking to luke""}","<img src=""stim_listA/talk1.gif""</stim_listA>",is talking to,
null,"<div style=""font-size:60px;"">+</div>",,html-keyboard-response,254,1441092,0.0-17.0-0.2,79061,List2A,white,man,,,,null,,,,
null,"<img src=""stim_listA/talk3.gif""</stim_listA>",,html-keyboard-response,255,1443101,0.0-17.0-1.2,79061,List2A,white,man,,,,null,,,,
null,is talking to,,html-keyboard-response,256,1445112,0.0-17.0-2.2,79061,List2A,white,man,,,,null,,,,
9795,,,survey-text,257,1454909,0.0-17.0-3.2,79061,List2A,white,man,,,,,"{""Q0"":""fred is talking to kate""}","<img src=""stim_listA/talk3.gif""</stim_listA>",is talking to,
null,"<div style=""font-size:60px;"">+</div>",,html-keyboard-response,258,1455419,0.0-17.0-0.3,79061,List2A,white,man,,,,null,,,,
null,"<img src=""stim_listA/kiss1.gif""</stim_listA>",,html-keyboard-response,259,1457425,0.0-17.0-1.3,79061,List2A,white,man,,,,null,,,,
null,is kissing,,html-keyboard-response,260,1459439,0.0-17.0-2.3,79061,List2A,white,man,,,,null,,,,
7855,,,survey-text,261,1467295,0.0-17.0-3.3,79061,List2A,white,man,,,,,"{""Q0"":""luke is kissing ruth""}","<img src=""stim_listA/kiss1.gif""</stim_listA>",is kissing,
null,"<div style=""font-size:60px;"">+</div>",,html-keyboard-response,262,1467796,0.0-17.0-0.4,79061,List2A,white,man,,,,null,,,,
null,"<img src=""stim_listA/talk8.gif""</stim_listA>",,html-keyboard-response,263,1469806,0.0-17.0-1.4,79061,List2A,white,man,,,,null,,,,
null,are talking to each other,,html-keyboard-response,264,1471818,0.0-17.0-2.4,79061,List2A,white,man,,,,null,,,,
12459,,,survey-text,265,1484279,0.0-17.0-3.4,79061,List2A,white,man,,,,,"{""Q0"":""jane and beth are talking to each other""}","<img src=""stim_listA/talk8.gif""</stim_listA>",are talking to each other,
null,"<div style=""font-size:60px;"">+</div>",,html-keyboard-response,266,1484788,0.0-17.0-0.5,79061,List2A,white,man,,,,null,,,,
null,"<img src=""stim_listA/touch7.gif""</stim_listA>",,html-keyboard-response,267,1486800,0.0-17.0-1.5,79061,List2A,white,man,,,,null,,,,
null,is touching,,html-keyboard-response,268,1488814,0.0-17.0-2.5,79061,List2A,white,man,,,,null,,,,
19408,,,survey-text,269,1508223,0.0-17.0-3.5,79061,List2A,white,man,,,,,"{""Q0"":""ruth and kate are touching""}","<img src=""stim_listA/touch7.gif""</stim_listA>",is touching,
null,"<div style=""font-size:60px;"">+</div>",,html-keyboard-response,270,1508739,0.0-17.0-0.6,79061,List2A,white,man,,,,null,,,,
null,"<img src=""stim_listA/fight6.gif""</stim_listA>",,html-keyboard-response,271,1510752,0.0-17.0-1.6,79061,List2A,white,man,,,,null,,,,
null,are fighting each other,,html-keyboard-response,272,1512765,0.0-17.0-2.6,79061,List2A,white,man,,,,null,,,,
9326,,,survey-text,273,1522093,0.0-17.0-3.6,79061,List2A,white,man,,,,,"{""Q0"":""luke and fred are fighting each other""}","<img src=""stim_listA/fight6.gif""</stim_listA>",are fighting each other,
null,"<div style=""font-size:60px;"">+</div>",,html-keyboard-response,274,1522604,0.0-17.0-0.7,79061,List2A,white,man,,,,null,,,,
null,"<img src=""stim_listA/argue4.gif""</stim_listA>",,html-keyboard-response,275,1524611,0.0-17.0-1.7,79061,List2A,white,man,,,,null,,,,
null,are arguing with each other,,html-keyboard-response,276,1526625,0.0-17.0-2.7,79061,List2A,white,man,,,,null,,,,
19708,,,survey-text,277,1546335,0.0-17.0-3.7,79061,List2A,white,man,,,,,"{""Q0"":""fred and kate are arguing with each other""}","<img src=""stim_listA/argue4.gif""</stim_listA>",are arguing with each other,
null,"<div style=""font-size:60px;"">+</div>",,html-keyboard-response,278,1546850,0.0-17.0-0.8,79061,List2A,white,man,,,,null,,,,
null,"<img src=""stim_listA/meet7.gif""</stim_listA>",,html-keyboard-response,279,1548864,0.0-17.0-1.8,79061,List2A,white,man,,,,null,,,,
null,is meeting,,html-keyboard-response,280,1550877,0.0-17.0-2.8,79061,List2A,white,man,,,,null,,,,
7716,,,survey-text,281,1558595,0.0-17.0-3.8,79061,List2A,white,man,,,,,"{""Q0"":""kate is meeting jane""}","<img src=""stim_listA/meet7.gif""</stim_listA>",is meeting,
null,"<div style=""font-size:60px;"">+</div>",,html-keyboard-response,282,1559100,0.0-17.0-0.9,79061,List2A,white,man,,,,null,,,,
null,"<img src=""stim_listA/fight5.gif""</stim_listA>",,html-keyboard-response,283,1561115,0.0-17.0-1.9,79061,List2A,white,man,,,,null,,,,
null,is fighting,,html-keyboard-response,284,1563127,0.0-17.0-2.9,79061,List2A,white,man,,,,null,,,,
7566,,,survey-text,285,1570695,0.0-17.0-3.9,79061,List2A,white,man,,,,,"{""Q0"":""mike is fighting dave""}","<img src=""stim_listA/fight5.gif""</stim_listA>",is fighting,
null,"<div style=""font-size:60px;"">+</div>",,html-keyboard-response,286,1571200,0.0-17.0-0.10,79061,List2A,white,man,,,,null,,,,
null,"<img src=""stim_listA/kiss6.gif""</stim_listA>",,html-keyboard-response,287,1573212,0.0-17.0-1.10,79061,List2A,white,man,,,,null,,,,
null,are kissing each other,,html-keyboard-response,288,1575221,0.0-17.0-2.10,79061,List2A,white,man,,,,null,,,,
8618,,,survey-text,289,1583841,0.0-17.0-3.10,79061,List2A,white,man,,,,,"{""Q0"":""mike and dave are kissing each other""}","<img src=""stim_listA/kiss6.gif""</stim_listA>",are kissing each other,
null,"<div style=""font-size:60px;"">+</div>",,html-keyboard-response,290,1584346,0.0-17.0-0.11,79061,List2A,white,man,,,,null,,,,
null,"<img src=""stim_listA/talk6.gif""</stim_listA>",,html-keyboard-response,291,1586359,0.0-17.0-1.11,79061,List2A,white,man,,,,null,,,,
null,are talking to each other,,html-keyboard-response,292,1588367,0.0-17.0-2.11,79061,List2A,white,man,,,,null,,,,
16713,,,survey-text,293,1605081,0.0-17.0-3.11,79061,List2A,white,man,,,,,"{""Q0"":""dave and fred are talking to each other""}","<img src=""stim_listA/talk6.gif""</stim_listA>",are talking to each other,
null,"<div style=""font-size:60px;"">+</div>",,html-keyboard-response,294,1605583,0.0-17.0-0.12,79061,List2A,white,man,,,,null,,,,
null,"<img src=""stim_listA/talk2.gif""</stim_listA>",,html-keyboard-response,295,1607593,0.0-17.0-1.12,79061,List2A,white,man,,,,null,,,,
null,are talking to each other,,html-keyboard-response,296,1609608,0.0-17.0-2.12,79061,List2A,white,man,,,,null,,,,
10501,,,survey-text,297,1620111,0.0-17.0-3.12,79061,List2A,white,man,,,,,"{""Q0"":""dave and ruth are talking to each other""}","<img src=""stim_listA/talk2.gif""</stim_listA>",are talking to each other,
null,"<div style=""font-size:60px;"">+</div>",,html-keyboard-response,298,1620617,0.0-17.0-0.13,79061,List2A,white,man,,,,null,,,,
null,"<img src=""stim_listA/fight2.gif""</stim_listA>",,html-keyboard-response,299,1622629,0.0-17.0-1.13,79061,List2A,white,man,,,,null,,,,
null,are fighting each other,,html-keyboard-response,300,1624643,0.0-17.0-2.13,79061,List2A,white,man,,,,null,,,,
10790,,,survey-text,301,1635434,0.0-17.0-3.13,79061,List2A,white,man,,,,,"{""Q0"":""ruth and luke are fighting each other""}","<img src=""stim_listA/fight2.gif""</stim_listA>",are fighting each other,
null,"<div style=""font-size:60px;"">+</div>",,html-keyboard-response,302,1635948,0.0-17.0-0.14,79061,List2A,white,man,,,,null,,,,
null,"<img src=""stim_listA/kiss2.gif""</stim_listA>",,html-keyboard-response,303,1637961,0.0-17.0-1.14,79061,List2A,white,man,,,,null,,,,
null,are kissing each other,,html-keyboard-response,304,1639975,0.0-17.0-2.14,79061,List2A,white,man,,,,null,,,,
10169,,,survey-text,305,1650146,0.0-17.0-3.14,79061,List2A,white,man,,,,,"{""Q0"":""dave and jane are kissing each other""}","<img src=""stim_listA/kiss2.gif""</stim_listA>",are kissing each other,
null,"<div style=""font-size:60px;"">+</div>",,html-keyboard-response,306,1650647,0.0-17.0-0.15,79061,List2A,white,man,,,,null,,,,
null,"<img src=""stim_listA/dance7.gif""</stim_listA>",,html-keyboard-response,307,1652652,0.0-17.0-1.15,79061,List2A,white,man,,,,null,,,,
null,is dancing with,,html-keyboard-response,308,1654663,0.0-17.0-2.15,79061,List2A,white,man,,,,null,,,,
12415,,,survey-text,309,1667079,0.0-17.0-3.15,79061,List2A,white,man,,,,,"{""Q0"":""ruth is dancing with kate""}","<img src=""stim_listA/dance7.gif""</stim_listA>",is dancing with,
null,"<div style=""font-size:60px;"">+</div>",,html-keyboard-response,310,1667587,0.0-17.0-0.16,79061,List2A,white,man,,,,null,,,,
null,"<img src=""stim_listA/argue2.gif""</stim_listA>",,html-keyboard-response,311,1669598,0.0-17.0-1.16,79061,List2A,white,man,,,,null,,,,
null,are arguing with each other,,html-keyboard-response,312,1671611,0.0-17.0-2.16,79061,List2A,white,man,,,,null,,,,
9802,,,survey-text,313,1681415,0.0-17.0-3.16,79061,List2A,white,man,,,,,"{""Q0"":""luke and jane are arguing with each other""}","<img src=""stim_listA/argue2.gif""</stim_listA>",are arguing with each other,
null,"<div style=""font-size:60px;"">+</div>",,html-keyboard-response,314,1681924,0.0-17.0-0.17,79061,List2A,white,man,,,,null,,,,
null,"<img src=""stim_listA/argue5.gif""</stim_listA>",,html-keyboard-response,315,1683940,0.0-17.0-1.17,79061,List2A,white,man,,,,null,,,,
null,is arguing with,,html-keyboard-response,316,1685952,0.0-17.0-2.17,79061,List2A,white,man,,,,null,,,,
11106,,,survey-text,317,1697059,0.0-17.0-3.17,79061,List2A,white,man,,,,,"{""Q0"":""dave is arguing with fred""}","<img src=""stim_listA/argue5.gif""</stim_listA>",is arguing with,
null,"<div style=""font-size:60px;"">+</div>",,html-keyboard-response,318,1697570,0.0-17.0-0.18,79061,List2A,white,man,,,,null,,,,
null,"<img src=""stim_listA/hug5.gif""</stim_listA>",,html-keyboard-response,319,1699573,0.0-17.0-1.18,79061,List2A,white,man,,,,null,,,,
null,is hugging,,html-keyboard-response,320,1701575,0.0-17.0-2.18,79061,List2A,white,man,,,,null,,,,
6118,,,survey-text,321,1707695,0.0-17.0-3.18,79061,List2A,white,man,,,,,"{""Q0"":""luke is hugging fred""}","<img src=""stim_listA/hug5.gif""</stim_listA>",is hugging,
null,"<div style=""font-size:60px;"">+</div>",,html-keyboard-response,322,1708199,0.0-17.0-0.19,79061,List2A,white,man,,,,null,,,,
null,"<img src=""stim_listA/dance2.gif""</stim_listA>",,html-keyboard-response,323,1710212,0.0-17.0-1.19,79061,List2A,white,man,,,,null,,,,
null,are dancing with each other,,html-keyboard-response,324,1712223,0.0-17.0-2.19,79061,List2A,white,man,,,,null,,,,
12413,,,survey-text,325,1724638,0.0-17.0-3.19,79061,List2A,white,man,,,,,"{""Q0"":""dave and ruth are dancing with each other""}","<img src=""stim_listA/dance2.gif""</stim_listA>",are dancing with each other,
8669,"<img src='img/portrait_matrix_list2.JPG' style='width:900px;height:500px;''></img><p>If you have memorised all the portraits and names and are ready to start, press Continue.</p><p><strong>Please note: Your memory of these faces will be tested 4 times during this experiment.</strong></p>",0,html-button-response,326,1733309,0.0-18.0-0.0,79061,List2A,white,man,,,,,,,,
4446,"<img src=""portrait/BW1.jpg""style=""width:400px;height:400px;""></img>",0,html-button-response,327,1738761,0.0-18.0-1.0,79061,List2A,white,man,,TRUE,0,,,,,
null,CORRECT,,html-keyboard-response,328,1740285,0.0-18.0-2.0-0.0,79061,List2A,white,man,,,,null,,,,
2230,"<img src=""portrait/WM1.jpg""style=""width:400px;height:400px;""></img>",6,html-button-response,329,1742518,0.0-18.0-4.0,79061,List2A,white,man,,TRUE,6,,,,,
null,CORRECT,,html-keyboard-response,330,1744031,0.0-18.0-5.0-0.0,79061,List2A,white,man,,,,null,,,,
3773,"<img src=""portrait/WW2.jpg""style=""width:400px;height:400px;""></img>",3,html-button-response,331,1747807,0.0-18.0-7.0,79061,List2A,white,man,,TRUE,3,,,,,
null,CORRECT,,html-keyboard-response,332,1749320,0.0-18.0-8.0-0.0,79061,List2A,white,man,,,,null,,,,
2510,"<img src=""portrait/BM1.jpg""style=""width:400px;height:400px;""></img>",4,html-button-response,333,1751833,0.0-18.0-10.0,79061,List2A,white,man,,TRUE,4,,,,,
null,CORRECT,,html-keyboard-response,334,1753349,0.0-18.0-11.0-0.0,79061,List2A,white,man,,,,null,,,,
4204,"<img src=""portrait/BW2.jpg""style=""width:400px;height:400px;""></img>",2,html-button-response,335,1757555,0.0-18.0-13.0,79061,List2A,white,man,,TRUE,2,,,,,
null,CORRECT,,html-keyboard-response,336,1759063,0.0-18.0-14.0-0.0,79061,List2A,white,man,,,,null,,,,
1707,"<img src=""portrait/WM2.jpg""style=""width:400px;height:400px;""></img>",7,html-button-response,337,1760771,0.0-18.0-16.0,79061,List2A,white,man,,TRUE,7,,,,,
null,CORRECT,,html-keyboard-response,338,1762299,0.0-18.0-17.0-0.0,79061,List2A,white,man,,,,null,,,,
3161,"<img src=""portrait/WW1.jpg""style=""width:400px;height:400px;""></img>",1,html-button-response,339,1765463,0.0-18.0-19.0,79061,List2A,white,man,,TRUE,1,,,,,
null,CORRECT,,html-keyboard-response,340,1766989,0.0-18.0-20.0-0.0,79061,List2A,white,man,,,,null,,,,
2112,"<img src=""portrait/BM2.jpg""style=""width:400px;height:400px;""></img>",5,html-button-response,341,1769103,0.0-18.0-22.0,79061,List2A,white,man,,TRUE,5,,,,,
null,CORRECT,,html-keyboard-response,342,1770621,0.0-18.0-23.0-0.0,79061,List2A,white,man,,,,null,,,,
24633,<p>You got 8 out of 8 right first time. Press Continue.</p>,0,html-button-response,343,1795257,0.0-18.0-25.0,79061,List2A,white,man,,,,,,,,
null,"<div style=""font-size:60px;"">+</div>",,html-keyboard-response,344,1796782,0.0-19.0-0.0,79061,List2A,white,man,,,,null,,,,
null,"<img src=""stim_listA/talk5.gif""</stim_listA>",,html-keyboard-response,345,1798791,0.0-19.0-1.0,79061,List2A,white,man,,,,null,,,,
null,is talking to,,html-keyboard-response,346,1800794,0.0-19.0-2.0,79061,List2A,white,man,,,,null,,,,
10245,,,survey-text,347,1811040,0.0-19.0-3.0,79061,List2A,white,man,,,,,"{""Q0"":""luke is talking to mike""}","<img src=""stim_listA/talk5.gif""</stim_listA>",is talking to,
null,"<div style=""font-size:60px;"">+</div>",,html-keyboard-response,348,1811542,0.0-19.0-0.1,79061,List2A,white,man,,,,null,,,,
null,"<img src=""stim_listA/meet6.gif""</stim_listA>",,html-keyboard-response,349,1813544,0.0-19.0-1.1,79061,List2A,white,man,,,,null,,,,
null,are meeting each other,,html-keyboard-response,350,1815560,0.0-19.0-2.1,79061,List2A,white,man,,,,null,,,,
7273,,,survey-text,351,1822836,0.0-19.0-3.1,79061,List2A,white,man,,,,,"{""Q0"":""luke and fred are meeting each other""}","<img src=""stim_listA/meet6.gif""</stim_listA>",are meeting each other,
null,"<div style=""font-size:60px;"">+</div>",,html-keyboard-response,352,1823343,0.0-19.0-0.2,79061,List2A,white,man,,,,null,,,,
null,"<img src=""stim_listA/talk4.gif""</stim_listA>",,html-keyboard-response,353,1825359,0.0-19.0-1.2,79061,List2A,white,man,,,,null,,,,
null,are talking to each other,,html-keyboard-response,354,1827373,0.0-19.0-2.2,79061,List2A,white,man,,,,null,,,,
12589,,,survey-text,355,1839964,0.0-19.0-3.2,79061,List2A,white,man,,,,,"{""Q0"":""beth and mike are talking to each other""}","<img src=""stim_listA/talk4.gif""</stim_listA>",are talking to each other,
null,"<div style=""font-size:60px;"">+</div>",,html-keyboard-response,356,1840468,0.0-19.0-0.3,79061,List2A,white,man,,,,null,,,,
null,"<img src=""stim_listA/marry5.gif""</stim_listA>",,html-keyboard-response,357,1842480,0.0-19.0-1.3,79061,List2A,white,man,,,,null,,,,
null,is marrying,,html-keyboard-response,358,1844492,0.0-19.0-2.3,79061,List2A,white,man,,,,null,,,,
6047,,,survey-text,359,1850541,0.0-19.0-3.3,79061,List2A,white,man,,,,,"{""Q0"":""dave is marrying fred""}","<img src=""stim_listA/marry5.gif""</stim_listA>",is marrying,
null,"<div style=""font-size:60px;"">+</div>",,html-keyboard-response,360,1851050,0.0-19.0-0.4,79061,List2A,white,man,,,,null,,,,
null,"<img src=""stim_listA/dance1.gif""</stim_listA>",,html-keyboard-response,361,1853064,0.0-19.0-1.4,79061,List2A,white,man,,,,null,,,,
null,is dancing with,,html-keyboard-response,362,1855076,0.0-19.0-2.4,79061,List2A,white,man,,,,null,,,,
9812,,,survey-text,363,1864890,0.0-19.0-3.4,79061,List2A,white,man,,,,,"{""Q0"":""luke is dancing with jane""}","<img src=""stim_listA/dance1.gif""</stim_listA>",is dancing with,
null,"<div style=""font-size:60px;"">+</div>",,html-keyboard-response,364,1865406,0.0-19.0-0.5,79061,List2A,white,man,,,,null,,,,
null,"<img src=""stim_listA/hug1.gif""</stim_listA>",,html-keyboard-response,365,1867423,0.0-19.0-1.5,79061,List2A,white,man,,,,null,,,,
null,is hugging,,html-keyboard-response,366,1869435,0.0-19.0-2.5,79061,List2A,white,man,,,,null,,,,
14199,,,survey-text,367,1883635,0.0-19.0-3.5,79061,List2A,white,man,,,,,"{""Q0"":""luke is hugging ruth""}","<img src=""stim_listA/hug1.gif""</stim_listA>",is hugging,
null,"<div style=""font-size:60px;"">+</div>",,html-keyboard-response,368,1884137,0.0-19.0-0.6,79061,List2A,white,man,,,,null,,,,
null,"<img src=""stim_listA/kiss3.gif""</stim_listA>",,html-keyboard-response,369,1886148,0.0-19.0-1.6,79061,List2A,white,man,,,,null,,,,
null,is kissing,,html-keyboard-response,370,1888164,0.0-19.0-2.6,79061,List2A,white,man,,,,null,,,,
8595,,,survey-text,371,1896760,0.0-19.0-3.6,79061,List2A,white,man,,,,,"{""Q0"":""beth is kissing fred""}","<img src=""stim_listA/kiss3.gif""</stim_listA>",is kissing,
null,"<div style=""font-size:60px;"">+</div>",,html-keyboard-response,372,1897266,0.0-19.0-0.7,79061,List2A,white,man,,,,null,,,,
null,"<img src=""stim_listA/hug4.gif""</stim_listA>",,html-keyboard-response,373,1899278,0.0-19.0-1.7,79061,List2A,white,man,,,,null,,,,
null,are hugging each other,,html-keyboard-response,374,1901288,0.0-19.0-2.7,79061,List2A,white,man,,,,null,,,,
15774,,,survey-text,375,1917064,0.0-19.0-3.7,79061,List2A,white,man,,,,,"{""Q0"":""kate and mike are hugging each other""}","<img src=""stim_listA/hug4.gif""</stim_listA>",are hugging each other,
null,"<div style=""font-size:60px;"">+</div>",,html-keyboard-response,376,1917565,0.0-19.0-0.8,79061,List2A,white,man,,,,null,,,,
null,"<img src=""stim_listA/shout4.gif""</stim_listA>",,html-keyboard-response,377,1919576,0.0-19.0-1.8,79061,List2A,white,man,,,,null,,,,
null,are shouting at each other,,html-keyboard-response,378,1921589,0.0-19.0-2.8,79061,List2A,white,man,,,,null,,,,
9880,,,survey-text,379,1931470,0.0-19.0-3.8,79061,List2A,white,man,,,,,"{""Q0"":""kate and mike are shouting at each other""}","<img src=""stim_listA/shout4.gif""</stim_listA>",are shouting at each other,
null,"<div style=""font-size:60px;"">+</div>",,html-keyboard-response,380,1931971,0.0-19.0-0.9,79061,List2A,white,man,,,,null,,,,
null,"<img src=""stim_listA/touch1.gif""</stim_listA>",,html-keyboard-response,381,1933981,0.0-19.0-1.9,79061,List2A,white,man,,,,null,,,,
null,is touching,,html-keyboard-response,382,1935984,0.0-19.0-2.9,79061,List2A,white,man,,,,null,,,,
6948,,,survey-text,383,1942933,0.0-19.0-3.9,79061,List2A,white,man,,,,,"{""Q0"":""dave is touching jane""}","<img src=""stim_listA/touch1.gif""</stim_listA>",is touching,
null,"<div style=""font-size:60px;"">+</div>",,html-keyboard-response,384,1943435,0.0-19.0-0.10,79061,List2A,white,man,,,,null,,,,
null,"<img src=""stim_listA/fight7.gif""</stim_listA>",,html-keyboard-response,385,1945452,0.0-19.0-1.10,79061,List2A,white,man,,,,null,,,,
null,is fighting,,html-keyboard-response,386,1947465,0.0-19.0-2.10,79061,List2A,white,man,,,,null,,,,
11465,,,survey-text,387,1958933,0.0-19.0-3.10,79061,List2A,white,man,,,,,"{""Q0"":""jane is fighting kate""}","<img src=""stim_listA/fight7.gif""</stim_listA>",is fighting,
null,"<div style=""font-size:60px;"">+</div>",,html-keyboard-response,388,1959435,0.0-19.0-0.11,79061,List2A,white,man,,,,null,,,,
null,"<img src=""stim_listA/touch5.gif""</stim_listA>",,html-keyboard-response,389,1961450,0.0-19.0-1.11,79061,List2A,white,man,,,,null,,,,
null,is touching,,html-keyboard-response,390,1963464,0.0-19.0-2.11,79061,List2A,white,man,,,,null,,,,
7240,,,survey-text,391,1970706,0.0-19.0-3.11,79061,List2A,white,man,,,,,"{""Q0"":""dave is touching mike""}","<img src=""stim_listA/touch5.gif""</stim_listA>",is touching,
null,"<div style=""font-size:60px;"">+</div>",,html-keyboard-response,392,1971213,0.0-19.0-0.12,79061,List2A,white,man,,,,null,,,,
null,"<img src=""stim_listA/shout3.gif""</stim_listA>",,html-keyboard-response,393,1973227,0.0-19.0-1.12,79061,List2A,white,man,,,,null,,,,
null,is shouting at,,html-keyboard-response,394,1975239,0.0-19.0-2.12,79061,List2A,white,man,,,,null,,,,
9496,,,survey-text,395,1984736,0.0-19.0-3.12,79061,List2A,white,man,,,,,"{""Q0"":""fred is shouting at beth""}","<img src=""stim_listA/shout3.gif""</stim_listA>",is shouting at,
null,"<div style=""font-size:60px;"">+</div>",,html-keyboard-response,396,1985251,0.0-19.0-0.13,79061,List2A,white,man,,,,null,,,,
null,"<img src=""stim_listA/shout6.gif""</stim_listA>",,html-keyboard-response,397,1987265,0.0-19.0-1.13,79061,List2A,white,man,,,,null,,,,
null,are shouting at each other,,html-keyboard-response,398,1989278,0.0-19.0-2.13,79061,List2A,white,man,,,,null,,,,
11256,,,survey-text,399,2000535,0.0-19.0-3.13,79061,List2A,white,man,,,,,"{""Q0"":""dave and mike are shouting at each other""}","<img src=""stim_listA/shout6.gif""</stim_listA>",are shouting at each other,
null,"<div style=""font-size:60px;"">+</div>",,html-keyboard-response,400,2001050,0.0-19.0-0.14,79061,List2A,white,man,,,,null,,,,
null,"<img src=""stim_listA/kiss4.gif""</stim_listA>",,html-keyboard-response,401,2003064,0.0-19.0-1.14,79061,List2A,white,man,,,,null,,,,
null,are kissing each other,,html-keyboard-response,402,2005078,0.0-19.0-2.14,79061,List2A,white,man,,,,null,,,,
11265,,,survey-text,403,2016345,0.0-19.0-3.14,79061,List2A,white,man,,,,,"{""Q0"":""mike and kate are kissing each other""}","<img src=""stim_listA/kiss4.gif""</stim_listA>",are kissing each other,
null,"<div style=""font-size:60px;"">+</div>",,html-keyboard-response,404,2016848,0.0-19.0-0.15,79061,List2A,white,man,,,,null,,,,
null,"<img src=""stim_listA/marry6.gif""</stim_listA>",,html-keyboard-response,405,2018860,0.0-19.0-1.15,79061,List2A,white,man,,,,null,,,,
null,are marrying each other,,html-keyboard-response,406,2020872,0.0-19.0-2.15,79061,List2A,white,man,,,,null,,,,
8944,,,survey-text,407,2029817,0.0-19.0-3.15,79061,List2A,white,man,,,,,"{""Q0"":""luke and mike are marrying each other""}","<img src=""stim_listA/marry6.gif""</stim_listA>",are marrying each other,
null,"<div style=""font-size:60px;"">+</div>",,html-keyboard-response,408,2030323,0.0-19.0-0.16,79061,List2A,white,man,,,,null,,,,
null,"<img src=""stim_listA/hug8.gif""</stim_listA>",,html-keyboard-response,409,2032345,0.0-19.0-1.16,79061,List2A,white,man,,,,null,,,,
null,are hugging each other,,html-keyboard-response,410,2034358,0.0-19.0-2.16,79061,List2A,white,man,,,,null,,,,
8848,,,survey-text,411,2043207,0.0-19.0-3.16,79061,List2A,white,man,,,,,"{""Q0"":""jane and kate are hugging each other""}","<img src=""stim_listA/hug8.gif""</stim_listA>",are hugging each other,
null,"<div style=""font-size:60px;"">+</div>",,html-keyboard-response,412,2043709,0.0-19.0-0.17,79061,List2A,white,man,,,,null,,,,
null,"<img src=""stim_listA/meet1.gif""</stim_listA>",,html-keyboard-response,413,2045723,0.0-19.0-1.17,79061,List2A,white,man,,,,null,,,,
null,is meeting,,html-keyboard-response,414,2047726,0.0-19.0-2.17,79061,List2A,white,man,,,,null,,,,
5981,,,survey-text,415,2053709,0.0-19.0-3.17,79061,List2A,white,man,,,,,"{""Q0"":""dave is meeting jane""}","<img src=""stim_listA/meet1.gif""</stim_listA>",is meeting,
null,"<div style=""font-size:60px;"">+</div>",,html-keyboard-response,416,2054219,0.0-19.0-0.18,79061,List2A,white,man,,,,null,,,,
null,"<img src=""stim_listA/touch6.gif""</stim_listA>",,html-keyboard-response,417,2056230,0.0-19.0-1.18,79061,List2A,white,man,,,,null,,,,
null,are touching each other,,html-keyboard-response,418,2058244,0.0-19.0-2.18,79061,List2A,white,man,,,,null,,,,
8194,,,survey-text,419,2066440,0.0-19.0-3.18,79061,List2A,white,man,,,,,"{""Q0"":""luke and fred are touching each other""}","<img src=""stim_listA/touch6.gif""</stim_listA>",are touching each other,
null,"<div style=""font-size:60px;"">+</div>",,html-keyboard-response,420,2066949,0.0-19.0-0.19,79061,List2A,white,man,,,,null,,,,
null,"<img src=""stim_listA/dance5.gif""</stim_listA>",,html-keyboard-response,421,2068962,0.0-19.0-1.19,79061,List2A,white,man,,,,null,,,,
null,is dancing with,,html-keyboard-response,422,2070963,0.0-19.0-2.19,79061,List2A,white,man,,,,null,,,,
6795,,,survey-text,423,2077759,0.0-19.0-3.19,79061,List2A,white,man,,,,,"{""Q0"":""luke is dancing with mike""}","<img src=""stim_listA/dance5.gif""</stim_listA>",is dancing with,
2456,<p>Thank you for completing that task.</p><p>The final part of this session is a short questionnaire.</p><p>Press Continue.</p>,0,html-button-response,424,2080216,0.0-20.0,79061,List2A,white,man,,,,,,,,
27100,,,survey-text,425,2108325,0.0-21.0,79061,List2A,white,man,,,,,"{""Q0"":""31"",""Q1"":""english"",""Q2"":""english"",""Q3"":""Northern Ireland"",""Q4"":""white"",""Q5"":""male""}",,,demographics
38377,,,survey-likert,426,2146710,0.0-22.0,79061,List2A,white,man,,,,,"{""Q0"":4,""Q1"":6,""Q2"":6,""Q3"":6,""Q4"":5,""Q5"":5,""Q6"":5,""Q7"":3,""Q8"":4,""Q9"":4,""Q10"":3,""Q11"":3,""Q12"":3,""Q13"":2}",,,likert_race
40966,,,survey-likert,427,2187682,0.0-23.0,79061,List2A,white,man,,,,,"{""Q0"":5,""Q1"":5,""Q2"":6,""Q3"":6,""Q4"":5,""Q5"":5,""Q6"":5,""Q7"":5,""Q8"":6,""Q9"":5,""Q10"":4,""Q11"":4,""Q12"":4,""Q13"":4}",,,likert_gender
8707,,,survey-text,428,2196391,0.0-24.0,79061,List2A,white,man,,,,,"{""Q0"":""ccc""}",,,worker_id
11665,,,external-html,429,2208139,0.0-25.0,79061,List2A,white,man,debrief.html,,,,,,,
