rt,stimulus,button_pressed,trial_type,trial_index,time_elapsed,internal_node_id,subject,list,ppt_race,ppt_gender,url,first_guess,correct,key_press,responses,image_type,phrase_type,test_part
153578,Welcome to the experiment. Press Continue to begin.,0,html-button-response,0,153590,0.0-0.0,79413,List1A,white,woman,,,,,,,,
71650,,,external-html,1,226458,0.0-1.0,79413,List1A,white,woman,consent.html,,,,,,,
73590,"<p>On the next page, you will see portraits of 8 people and their names.</p><p>Your first task is to take a few minutes to memorise the names of these people.</p><p>You will have to recall their names during the rest of the experiment, so it is</p><p>essential that you try to memorise these people and their names as best as you can.</p><br><p><strong>You will then be tested on your memory of these names and portraits.</strong></p><br><p>The experiment will start after you have completed this memory test.</p><br><p>Ready?</p>",0,html-button-response,2,300054,0.0-2.0,79413,List1A,white,woman,,,,,,,,
29948,"<img src='img/portrait_matrix_list1.JPG' style='width:900px;height:500px;''></img><p>If you have memorised all the portraits and names and are ready to start, press Continue.</p><p><strong>Please note: Your memory of these faces will be tested 4 times during this experiment.</strong></p>",0,html-button-response,3,331007,0.0-3.0-0.0,79413,List1A,white,woman,,,,,,,,
20809,"<img src=""portrait/WW1.jpg""style=""width:400px;height:400px;""></img>",1,html-button-response,4,352823,0.0-3.0-1.0,79413,List1A,white,woman,,TRUE,1,,,,,
null,CORRECT,,html-keyboard-response,5,354329,0.0-3.0-2.0-0.0,79413,List1A,white,woman,,,,null,,,,
7964,"<img src=""portrait/BW1.jpg""style=""width:400px;height:400px;""></img>",0,html-button-response,6,362297,0.0-3.0-4.0,79413,List1A,white,woman,,TRUE,0,,,,,
null,CORRECT,,html-keyboard-response,7,363803,0.0-3.0-5.0-0.0,79413,List1A,white,woman,,,,null,,,,
4777,"<img src=""portrait/BM2.jpg""style=""width:400px;height:400px;""></img>",5,html-button-response,8,368584,0.0-3.0-7.0,79413,List1A,white,woman,,TRUE,5,,,,,
null,CORRECT,,html-keyboard-response,9,370089,0.0-3.0-8.0-0.0,79413,List1A,white,woman,,,,null,,,,
3873,"<img src=""portrait/WM2.jpg""style=""width:400px;height:400px;""></img>",7,html-button-response,10,373967,0.0-3.0-10.0,79413,List1A,white,woman,,TRUE,7,,,,,
null,CORRECT,,html-keyboard-response,11,375469,0.0-3.0-11.0-0.0,79413,List1A,white,woman,,,,null,,,,
5213,"<img src=""portrait/WW2.jpg""style=""width:400px;height:400px;""></img>",3,html-button-response,12,380686,0.0-3.0-13.0,79413,List1A,white,woman,,TRUE,3,,,,,
null,CORRECT,,html-keyboard-response,13,382190,0.0-3.0-14.0-0.0,79413,List1A,white,woman,,,,null,,,,
10000,"<img src=""portrait/BM1.jpg""style=""width:400px;height:400px;""></img>",6,html-button-response,14,392193,0.0-3.0-16.0,79413,List1A,white,woman,,TRUE,4,,,,,
5380,"<img src=""portrait/BM1.jpg""style=""width:400px;height:400px;""></img>",4,html-button-response,15,398579,0.0-3.0-18.0-0.0,79413,List1A,white,woman,,FALSE,4,,,,,
null,CORRECT,,html-keyboard-response,16,400082,0.0-3.0-18.0-1.0-0.0,79413,List1A,white,woman,,,,null,,,,
3886,"<img src=""portrait/BW2.jpg""style=""width:400px;height:400px;""></img>",0,html-button-response,17,403973,0.0-3.0-19.0,79413,List1A,white,woman,,TRUE,2,,,,,
3508,"<img src=""portrait/BW2.jpg""style=""width:400px;height:400px;""></img>",2,html-button-response,18,408486,0.0-3.0-21.0-0.0,79413,List1A,white,woman,,FALSE,2,,,,,
null,CORRECT,,html-keyboard-response,19,409990,0.0-3.0-21.0-1.0-0.0,79413,List1A,white,woman,,,,null,,,,
10322,"<img src=""portrait/WM1.jpg""style=""width:400px;height:400px;""></img>",6,html-button-response,20,420315,0.0-3.0-22.0,79413,List1A,white,woman,,TRUE,6,,,,,
null,CORRECT,,html-keyboard-response,21,421821,0.0-3.0-23.0-0.0,79413,List1A,white,woman,,,,null,,,,
1839,<p>You got 6 out of 8 right first time. Press Continue.</p>,0,html-button-response,22,423663,0.0-3.0-25.0,79413,List1A,white,woman,,,,,,,,
3732,"As you did not score 100%, the memory game will repeat. Press Continue.",0,html-button-response,23,428400,0.0-3.0-26.0-0.0,79413,List1A,white,woman,,,,,,,,
12831,"<img src='img/portrait_matrix_list1.JPG' style='width:900px;height:500px;''></img><p>If you have memorised all the portraits and names and are ready to start, press Continue.</p><p><strong>Please note: Your memory of these faces will be tested 4 times during this experiment.</strong></p>",0,html-button-response,24,442236,0.0-3.1-0.1,79413,List1A,white,woman,,,,,,,,
5156,"<img src=""portrait/WW1.jpg""style=""width:400px;height:400px;""></img>",3,html-button-response,25,448398,0.0-3.1-1.1,79413,List1A,white,woman,,TRUE,1,,,,,
4176,"<img src=""portrait/WW1.jpg""style=""width:400px;height:400px;""></img>",1,html-button-response,26,453580,0.0-3.1-3.1-0.1,79413,List1A,white,woman,,FALSE,1,,,,,
null,CORRECT,,html-keyboard-response,27,455083,0.0-3.1-3.1-1.1-0.1,79413,List1A,white,woman,,,,null,,,,
5187,"<img src=""portrait/BW1.jpg""style=""width:400px;height:400px;""></img>",2,html-button-response,28,460275,0.0-3.1-4.1,79413,List1A,white,woman,,TRUE,0,,,,,
2081,"<img src=""portrait/BW1.jpg""style=""width:400px;height:400px;""></img>",0,html-button-response,29,463362,0.0-3.1-6.1-0.1,79413,List1A,white,woman,,FALSE,0,,,,,
null,CORRECT,,html-keyboard-response,30,464867,0.0-3.1-6.1-1.1-0.1,79413,List1A,white,woman,,,,null,,,,
3165,"<img src=""portrait/BM2.jpg""style=""width:400px;height:400px;""></img>",4,html-button-response,31,468037,0.0-3.1-7.1,79413,List1A,white,woman,,TRUE,5,,,,,
1354,"<img src=""portrait/BM2.jpg""style=""width:400px;height:400px;""></img>",5,html-button-response,32,470396,0.0-3.1-9.1-0.1,79413,List1A,white,woman,,FALSE,5,,,,,
null,CORRECT,,html-keyboard-response,33,471900,0.0-3.1-9.1-1.1-0.1,79413,List1A,white,woman,,,,null,,,,
1972,"<img src=""portrait/WM2.jpg""style=""width:400px;height:400px;""></img>",6,html-button-response,34,473877,0.0-3.1-10.1,79413,List1A,white,woman,,TRUE,7,,,,,
1176,"<img src=""portrait/WM2.jpg""style=""width:400px;height:400px;""></img>",7,html-button-response,35,476058,0.0-3.1-12.1-0.1,79413,List1A,white,woman,,FALSE,7,,,,,
null,CORRECT,,html-keyboard-response,36,477561,0.0-3.1-12.1-1.1-0.1,79413,List1A,white,woman,,,,null,,,,
1925,"<img src=""portrait/WW2.jpg""style=""width:400px;height:400px;""></img>",3,html-button-response,37,479490,0.0-3.1-13.1,79413,List1A,white,woman,,TRUE,3,,,,,
null,CORRECT,,html-keyboard-response,38,480994,0.0-3.1-14.1-0.1,79413,List1A,white,woman,,,,null,,,,
2424,"<img src=""portrait/BM1.jpg""style=""width:400px;height:400px;""></img>",4,html-button-response,39,483422,0.0-3.1-16.1,79413,List1A,white,woman,,TRUE,4,,,,,
null,CORRECT,,html-keyboard-response,40,484926,0.0-3.1-17.1-0.1,79413,List1A,white,woman,,,,null,,,,
2460,"<img src=""portrait/BW2.jpg""style=""width:400px;height:400px;""></img>",2,html-button-response,41,487389,0.0-3.1-19.1,79413,List1A,white,woman,,TRUE,2,,,,,
null,CORRECT,,html-keyboard-response,42,488893,0.0-3.1-20.1-0.1,79413,List1A,white,woman,,,,null,,,,
1442,"<img src=""portrait/WM1.jpg""style=""width:400px;height:400px;""></img>",7,html-button-response,43,490339,0.0-3.1-22.1,79413,List1A,white,woman,,TRUE,6,,,,,
1584,"<img src=""portrait/WM1.jpg""style=""width:400px;height:400px;""></img>",6,html-button-response,44,492929,0.0-3.1-24.1-0.1,79413,List1A,white,woman,,FALSE,6,,,,,
null,CORRECT,,html-keyboard-response,45,494433,0.0-3.1-24.1-1.1-0.1,79413,List1A,white,woman,,,,null,,,,
5905,<p>You got 3 out of 8 right first time. Press Continue.</p>,0,html-button-response,46,500342,0.0-3.1-25.1,79413,List1A,white,woman,,,,,,,,
1477,"As you did not score 100%, the memory game will repeat. Press Continue.",0,html-button-response,47,502822,0.0-3.1-26.1-0.1,79413,List1A,white,woman,,,,,,,,
8488,"<img src='img/portrait_matrix_list1.JPG' style='width:900px;height:500px;''></img><p>If you have memorised all the portraits and names and are ready to start, press Continue.</p><p><strong>Please note: Your memory of these faces will be tested 4 times during this experiment.</strong></p>",0,html-button-response,48,512315,0.0-3.2-0.2,79413,List1A,white,woman,,,,,,,,
3830,"<img src=""portrait/WW1.jpg""style=""width:400px;height:400px;""></img>",1,html-button-response,49,517150,0.0-3.2-1.2,79413,List1A,white,woman,,TRUE,1,,,,,
null,CORRECT,,html-keyboard-response,50,518654,0.0-3.2-2.2-0.2,79413,List1A,white,woman,,,,null,,,,
3964,"<img src=""portrait/BW1.jpg""style=""width:400px;height:400px;""></img>",0,html-button-response,51,522630,0.0-3.2-4.2,79413,List1A,white,woman,,TRUE,0,,,,,
null,CORRECT,,html-keyboard-response,52,524133,0.0-3.2-5.2-0.2,79413,List1A,white,woman,,,,null,,,,
3004,"<img src=""portrait/BM2.jpg""style=""width:400px;height:400px;""></img>",5,html-button-response,53,527141,0.0-3.2-7.2,79413,List1A,white,woman,,TRUE,5,,,,,
null,CORRECT,,html-keyboard-response,54,528644,0.0-3.2-8.2-0.2,79413,List1A,white,woman,,,,null,,,,
3054,"<img src=""portrait/WM2.jpg""style=""width:400px;height:400px;""></img>",7,html-button-response,55,531702,0.0-3.2-10.2,79413,List1A,white,woman,,TRUE,7,,,,,
null,CORRECT,,html-keyboard-response,56,533206,0.0-3.2-11.2-0.2,79413,List1A,white,woman,,,,null,,,,
3661,"<img src=""portrait/WW2.jpg""style=""width:400px;height:400px;""></img>",3,html-button-response,57,536871,0.0-3.2-13.2,79413,List1A,white,woman,,TRUE,3,,,,,
null,CORRECT,,html-keyboard-response,58,538374,0.0-3.2-14.2-0.2,79413,List1A,white,woman,,,,null,,,,
3611,"<img src=""portrait/BM1.jpg""style=""width:400px;height:400px;""></img>",4,html-button-response,59,541989,0.0-3.2-16.2,79413,List1A,white,woman,,TRUE,4,,,,,
null,CORRECT,,html-keyboard-response,60,543494,0.0-3.2-17.2-0.2,79413,List1A,white,woman,,,,null,,,,
3710,"<img src=""portrait/BW2.jpg""style=""width:400px;height:400px;""></img>",2,html-button-response,61,547208,0.0-3.2-19.2,79413,List1A,white,woman,,TRUE,2,,,,,
null,CORRECT,,html-keyboard-response,62,548712,0.0-3.2-20.2-0.2,79413,List1A,white,woman,,,,null,,,,
2980,"<img src=""portrait/WM1.jpg""style=""width:400px;height:400px;""></img>",6,html-button-response,63,551697,0.0-3.2-22.2,79413,List1A,white,woman,,TRUE,6,,,,,
null,CORRECT,,html-keyboard-response,64,553200,0.0-3.2-23.2-0.2,79413,List1A,white,woman,,,,null,,,,
3077,<p>You got 8 out of 8 right first time. Press Continue.</p>,0,html-button-response,65,556280,0.0-3.2-25.2,79413,List1A,white,woman,,,,,,,,
22059,"<p>In this experiment, you will view photographs of the people from the memory game interacting.</p><p>By using the <strong>exact</strong> phrase given <i>after</i> the photograph appears and recalling the correct names of the people in the photographs, form a sentence describing the interaction. You do not need to capitalise names.</p><p>Type your answer in the space provided. Please complete every sentence before moving onto the next trial.</p><p>You will only have a few seconds to memorise each given photograph and phrase before you can respond, so try your best to focus.</p><p>An example is given below. Press 'Continue' when you are ready.</p><img src='img/speaking_example_v2.jpg' style='width:800px;height:460px;''></img>",0,html-button-response,66,579343,0.0-4.0,79413,List1A,white,woman,,,,,,,,
2939,"<p>Before the experiment starts, you will watch two example trials. Press 'Continue'.</p>",0,html-button-response,67,583286,0.0-5.0,79413,List1A,white,woman,,,,,,,,
null,<img src='img/speaking_WW.gif'></img>,,html-keyboard-response,68,586289,0.0-6.0,79413,List1A,white,woman,,,,null,,,,
null,<p>is speaking to</p>,,html-keyboard-response,69,588291,0.0-7.0,79413,List1A,white,woman,,,,null,,,,
3656,<p><b>Answer:</b> kate is speaking to beth</p>,0,html-button-response,70,591949,0.0-8.0,79413,List1A,white,woman,,,,,,,,
null,<img src='img/pointing_BM.gif'></img>,,html-keyboard-response,71,594953,0.0-9.0,79413,List1A,white,woman,,,,null,,,,
null,<p>are pointing at each other</p>,,html-keyboard-response,72,596955,0.0-10.0,79413,List1A,white,woman,,,,null,,,,
4348,<p><b>Answer:</b> luke and dave are pointing at each other</p>,0,html-button-response,73,601306,0.0-11.0,79413,List1A,white,woman,,,,,,,,
5764,"<p>Ready to start the experiment?</p><br><p><strong>Remember to describe the picture using a full sentence,</strong></p><p><strong> that combines the names of the people with the given phrase.</strong></p><p><strong> You do not need to capitalise names or use punctuation.</strong></p><br><p>Press 'Continue' to begin.</p>",0,html-button-response,74,608075,0.0-12.0,79413,List1A,white,woman,,,,,,,,
null,"<div style=""font-size:60px;"">+</div>",,html-keyboard-response,75,609578,0.0-13.0-0.0,79413,List1A,white,woman,,,,null,,,,
null,"<img src=""stim_listA/dance4.gif""</stim_listA>",,html-keyboard-response,76,611582,0.0-13.0-1.0,79413,List1A,white,woman,,,,null,,,,
null,are dancing with each other,,html-keyboard-response,77,613588,0.0-13.0-2.0,79413,List1A,white,woman,,,,null,,,,
17779,,,survey-text,78,631371,0.0-13.0-3.0,79413,List1A,white,woman,,,,,"{""Q0"":""ruth and dave are dancing with each other""}","<img src=""stim_listA/dance4.gif""</stim_listA>",are dancing with each other,
null,"<div style=""font-size:60px;"">+</div>",,html-keyboard-response,79,631874,0.0-13.0-0.1,79413,List1A,white,woman,,,,null,,,,
null,"<img src=""stim_listA/talk1.gif""</stim_listA>",,html-keyboard-response,80,633877,0.0-13.0-1.1,79413,List1A,white,woman,,,,null,,,,
null,is talking to,,html-keyboard-response,81,635878,0.0-13.0-2.1,79413,List1A,white,woman,,,,null,,,,
31350,,,survey-text,82,667232,0.0-13.0-3.1,79413,List1A,white,woman,,,,,"{""Q0"":""kate and fred are talking to each other""}","<img src=""stim_listA/talk1.gif""</stim_listA>",is talking to,
null,"<div style=""font-size:60px;"">+</div>",,html-keyboard-response,83,667735,0.0-13.0-0.2,79413,List1A,white,woman,,,,null,,,,
null,"<img src=""stim_listA/talk4.gif""</stim_listA>",,html-keyboard-response,84,669737,0.0-13.0-1.2,79413,List1A,white,woman,,,,null,,,,
null,are talking to each other,,html-keyboard-response,85,671739,0.0-13.0-2.2,79413,List1A,white,woman,,,,null,,,,
15794,,,survey-text,86,687536,0.0-13.0-3.2,79413,List1A,white,woman,,,,,"{""Q0"":""dave and ruth are talking to each other""}","<img src=""stim_listA/talk4.gif""</stim_listA>",are talking to each other,
null,"<div style=""font-size:60px;"">+</div>",,html-keyboard-response,87,688040,0.0-13.0-0.3,79413,List1A,white,woman,,,,null,,,,
null,"<img src=""stim_listA/dance8.gif""</stim_listA>",,html-keyboard-response,88,690042,0.0-13.0-1.3,79413,List1A,white,woman,,,,null,,,,
null,are dancing with each other,,html-keyboard-response,89,692044,0.0-13.0-2.3,79413,List1A,white,woman,,,,null,,,,
17939,,,survey-text,90,709986,0.0-13.0-3.3,79413,List1A,white,woman,,,,,"{""Q0"":""kate and ruth are dancing with each other""}","<img src=""stim_listA/dance8.gif""</stim_listA>",are dancing with each other,
null,"<div style=""font-size:60px;"">+</div>",,html-keyboard-response,91,710488,0.0-13.0-0.4,79413,List1A,white,woman,,,,null,,,,
null,"<img src=""stim_listA/kiss4.gif""</stim_listA>",,html-keyboard-response,92,712490,0.0-13.0-1.4,79413,List1A,white,woman,,,,null,,,,
null,are kissing each other,,html-keyboard-response,93,714493,0.0-13.0-2.4,79413,List1A,white,woman,,,,null,,,,
19924,,,survey-text,94,734420,0.0-13.0-3.4,79413,List1A,white,woman,,,,,"{""Q0"":""jane and dave are kissing each other""}","<img src=""stim_listA/kiss4.gif""</stim_listA>",are kissing each other,
null,"<div style=""font-size:60px;"">+</div>",,html-keyboard-response,95,734923,0.0-13.0-0.5,79413,List1A,white,woman,,,,null,,,,
null,"<img src=""stim_listA/kiss2.gif""</stim_listA>",,html-keyboard-response,96,736925,0.0-13.0-1.5,79413,List1A,white,woman,,,,null,,,,
null,are kissing each other,,html-keyboard-response,97,738927,0.0-13.0-2.5,79413,List1A,white,woman,,,,null,,,,
39256,,,survey-text,98,778186,0.0-13.0-3.5,79413,List1A,white,woman,,,,,"{""Q0"":""kate and mike are talking to each other""}","<img src=""stim_listA/kiss2.gif""</stim_listA>",are kissing each other,
null,"<div style=""font-size:60px;"">+</div>",,html-keyboard-response,99,778688,0.0-13.0-0.6,79413,List1A,white,woman,,,,null,,,,
null,"<img src=""stim_listA/shout7.gif""</stim_listA>",,html-keyboard-response,100,780691,0.0-13.0-1.6,79413,List1A,white,woman,,,,null,,,,
null,is shouting at,,html-keyboard-response,101,782693,0.0-13.0-2.6,79413,List1A,white,woman,,,,null,,,,
14470,,,survey-text,102,797165,0.0-13.0-3.6,79413,List1A,white,woman,,,,,"{""Q0"":""beth is shouting at ruth""}","<img src=""stim_listA/shout7.gif""</stim_listA>",is shouting at,
null,"<div style=""font-size:60px;"">+</div>",,html-keyboard-response,103,797668,0.0-13.0-0.7,79413,List1A,white,woman,,,,null,,,,
null,"<img src=""stim_listA/meet4.gif""</stim_listA>",,html-keyboard-response,104,799670,0.0-13.0-1.7,79413,List1A,white,woman,,,,null,,,,
null,are meeting each other,,html-keyboard-response,105,801672,0.0-13.0-2.7,79413,List1A,white,woman,,,,null,,,,
13183,,,survey-text,106,814858,0.0-13.0-3.7,79413,List1A,white,woman,,,,,"{""Q0"":""ruth and luke are meeting each other""}","<img src=""stim_listA/meet4.gif""</stim_listA>",are meeting each other,
null,"<div style=""font-size:60px;"">+</div>",,html-keyboard-response,107,815361,0.0-13.0-0.8,79413,List1A,white,woman,,,,null,,,,
null,"<img src=""stim_listA/hug6.gif""</stim_listA>",,html-keyboard-response,108,817363,0.0-13.0-1.8,79413,List1A,white,woman,,,,null,,,,
null,are hugging each other,,html-keyboard-response,109,819365,0.0-13.0-2.8,79413,List1A,white,woman,,,,null,,,,
13117,,,survey-text,110,832484,0.0-13.0-3.8,79413,List1A,white,woman,,,,,"{""Q0"":""mike and dave are hugging each other""}","<img src=""stim_listA/hug6.gif""</stim_listA>",are hugging each other,
null,"<div style=""font-size:60px;"">+</div>",,html-keyboard-response,111,832986,0.0-13.0-0.9,79413,List1A,white,woman,,,,null,,,,
null,"<img src=""stim_listA/dance5.gif""</stim_listA>",,html-keyboard-response,112,834988,0.0-13.0-1.9,79413,List1A,white,woman,,,,null,,,,
null,is dancing with,,html-keyboard-response,113,836990,0.0-13.0-2.9,79413,List1A,white,woman,,,,null,,,,
13296,,,survey-text,114,850288,0.0-13.0-3.9,79413,List1A,white,woman,,,,,"{""Q0"":""fred is dancing with dave""}","<img src=""stim_listA/dance5.gif""</stim_listA>",is dancing with,
null,"<div style=""font-size:60px;"">+</div>",,html-keyboard-response,115,850791,0.0-13.0-0.10,79413,List1A,white,woman,,,,null,,,,
null,"<img src=""stim_listA/kiss3.gif""</stim_listA>",,html-keyboard-response,116,852793,0.0-13.0-1.10,79413,List1A,white,woman,,,,null,,,,
null,is kissing,,html-keyboard-response,117,854796,0.0-13.0-2.10,79413,List1A,white,woman,,,,null,,,,
10693,,,survey-text,118,865491,0.0-13.0-3.10,79413,List1A,white,woman,,,,,"{""Q0"":""luke is kissing jane""}","<img src=""stim_listA/kiss3.gif""</stim_listA>",is kissing,
null,"<div style=""font-size:60px;"">+</div>",,html-keyboard-response,119,865994,0.0-13.0-0.11,79413,List1A,white,woman,,,,null,,,,
null,"<img src=""stim_listA/meet6.gif""</stim_listA>",,html-keyboard-response,120,867996,0.0-13.0-1.11,79413,List1A,white,woman,,,,null,,,,
null,are meeting each other,,html-keyboard-response,121,869999,0.0-13.0-2.11,79413,List1A,white,woman,,,,null,,,,
12603,,,survey-text,122,882605,0.0-13.0-3.11,79413,List1A,white,woman,,,,,"{""Q0"":""luke and fred are meeting each other""}","<img src=""stim_listA/meet6.gif""</stim_listA>",are meeting each other,
null,"<div style=""font-size:60px;"">+</div>",,html-keyboard-response,123,883108,0.0-13.0-0.12,79413,List1A,white,woman,,,,null,,,,
null,"<img src=""stim_listA/dance3.gif""</stim_listA>",,html-keyboard-response,124,885110,0.0-13.0-1.12,79413,List1A,white,woman,,,,null,,,,
null,is dancing with,,html-keyboard-response,125,887113,0.0-13.0-2.12,79413,List1A,white,woman,,,,null,,,,
9332,,,survey-text,126,896447,0.0-13.0-3.12,79413,List1A,white,woman,,,,,"{""Q0"":""is dancing with""}","<img src=""stim_listA/dance3.gif""</stim_listA>",is dancing with,
null,"<div style=""font-size:60px;"">+</div>",,html-keyboard-response,127,896950,0.0-13.0-0.13,79413,List1A,white,woman,,,,null,,,,
null,"<img src=""stim_listA/shout8.gif""</stim_listA>",,html-keyboard-response,128,898952,0.0-13.0-1.13,79413,List1A,white,woman,,,,null,,,,
null,are shouting at each other,,html-keyboard-response,129,900954,0.0-13.0-2.13,79413,List1A,white,woman,,,,null,,,,
19617,,,survey-text,130,920574,0.0-13.0-3.13,79413,List1A,white,woman,,,,,"{""Q0"":""jane is shouting at kate ""}","<img src=""stim_listA/shout8.gif""</stim_listA>",are shouting at each other,
null,"<div style=""font-size:60px;"">+</div>",,html-keyboard-response,131,921076,0.0-13.0-0.14,79413,List1A,white,woman,,,,null,,,,
null,"<img src=""stim_listA/shout6.gif""</stim_listA>",,html-keyboard-response,132,923078,0.0-13.0-1.14,79413,List1A,white,woman,,,,null,,,,
null,are shouting at each other,,html-keyboard-response,133,925080,0.0-13.0-2.14,79413,List1A,white,woman,,,,null,,,,
13894,,,survey-text,134,938978,0.0-13.0-3.14,79413,List1A,white,woman,,,,,"{""Q0"":""luke and dave are shouting at each other""}","<img src=""stim_listA/shout6.gif""</stim_listA>",are shouting at each other,
null,"<div style=""font-size:60px;"">+</div>",,html-keyboard-response,135,939481,0.0-13.0-0.15,79413,List1A,white,woman,,,,null,,,,
null,"<img src=""stim_listA/touch1.gif""</stim_listA>",,html-keyboard-response,136,941483,0.0-13.0-1.15,79413,List1A,white,woman,,,,null,,,,
null,is touching,,html-keyboard-response,137,943485,0.0-13.0-2.15,79413,List1A,white,woman,,,,null,,,,
13384,,,survey-text,138,956871,0.0-13.0-3.15,79413,List1A,white,woman,,,,,"{""Q0"":""mike and kate are touching""}","<img src=""stim_listA/touch1.gif""</stim_listA>",is touching,
null,"<div style=""font-size:60px;"">+</div>",,html-keyboard-response,139,957374,0.0-13.0-0.16,79413,List1A,white,woman,,,,null,,,,
null,"<img src=""stim_listA/marry3.gif""</stim_listA>",,html-keyboard-response,140,959377,0.0-13.0-1.16,79413,List1A,white,woman,,,,null,,,,
null,is marrying,,html-keyboard-response,141,961379,0.0-13.0-2.16,79413,List1A,white,woman,,,,null,,,,
7385,,,survey-text,142,968766,0.0-13.0-3.16,79413,List1A,white,woman,,,,,"{""Q0"":""ruth is marrying dave""}","<img src=""stim_listA/marry3.gif""</stim_listA>",is marrying,
null,"<div style=""font-size:60px;"">+</div>",,html-keyboard-response,143,969269,0.0-13.0-0.17,79413,List1A,white,woman,,,,null,,,,
null,"<img src=""stim_listA/fight7.gif""</stim_listA>",,html-keyboard-response,144,971271,0.0-13.0-1.17,79413,List1A,white,woman,,,,null,,,,
null,is fighting,,html-keyboard-response,145,973273,0.0-13.0-2.17,79413,List1A,white,woman,,,,null,,,,
11904,,,survey-text,146,985179,0.0-13.0-3.17,79413,List1A,white,woman,,,,,"{""Q0"":""jane is fighting kate""}","<img src=""stim_listA/fight7.gif""</stim_listA>",is fighting,
null,"<div style=""font-size:60px;"">+</div>",,html-keyboard-response,147,985682,0.0-13.0-0.18,79413,List1A,white,woman,,,,null,,,,
null,"<img src=""stim_listA/argue1.gif""</stim_listA>",,html-keyboard-response,148,987688,0.0-13.0-1.18,79413,List1A,white,woman,,,,null,,,,
null,is arguing with,,html-keyboard-response,149,989690,0.0-13.0-2.18,79413,List1A,white,woman,,,,null,,,,
10250,,,survey-text,150,999943,0.0-13.0-3.18,79413,List1A,white,woman,,,,,"{""Q0"":""beth is arguing with mike""}","<img src=""stim_listA/argue1.gif""</stim_listA>",is arguing with,
null,"<div style=""font-size:60px;"">+</div>",,html-keyboard-response,151,1000446,0.0-13.0-0.19,79413,List1A,white,woman,,,,null,,,,
null,"<img src=""stim_listA/marry5.gif""</stim_listA>",,html-keyboard-response,152,1002448,0.0-13.0-1.19,79413,List1A,white,woman,,,,null,,,,
null,is marrying,,html-keyboard-response,153,1004450,0.0-13.0-2.19,79413,List1A,white,woman,,,,null,,,,
8445,,,survey-text,154,1012898,0.0-13.0-3.19,79413,List1A,white,woman,,,,,"{""Q0"":""luke is marrying mike""}","<img src=""stim_listA/marry5.gif""</stim_listA>",is marrying,
6617,"<img src='img/portrait_matrix_list1.JPG' style='width:900px;height:500px;''></img><p>If you have memorised all the portraits and names and are ready to start, press Continue.</p><p><strong>Please note: Your memory of these faces will be tested 4 times during this experiment.</strong></p>",0,html-button-response,155,1019518,0.0-14.0-0.0,79413,List1A,white,woman,,,,,,,,
5058,"<img src=""portrait/BM2.jpg""style=""width:400px;height:400px;""></img>",5,html-button-response,156,1025581,0.0-14.0-1.0,79413,List1A,white,woman,,TRUE,5,,,,,
null,CORRECT,,html-keyboard-response,157,1027086,0.0-14.0-2.0-0.0,79413,List1A,white,woman,,,,null,,,,
3066,"<img src=""portrait/WW2.jpg""style=""width:400px;height:400px;""></img>",3,html-button-response,158,1030156,0.0-14.0-4.0,79413,List1A,white,woman,,TRUE,3,,,,,
null,CORRECT,,html-keyboard-response,159,1031660,0.0-14.0-5.0-0.0,79413,List1A,white,woman,,,,null,,,,
2663,"<img src=""portrait/BW1.jpg""style=""width:400px;height:400px;""></img>",0,html-button-response,160,1034326,0.0-14.0-7.0,79413,List1A,white,woman,,TRUE,0,,,,,
null,CORRECT,,html-keyboard-response,161,1035830,0.0-14.0-8.0-0.0,79413,List1A,white,woman,,,,null,,,,
2455,"<img src=""portrait/WM2.jpg""style=""width:400px;height:400px;""></img>",7,html-button-response,162,1038290,0.0-14.0-10.0,79413,List1A,white,woman,,TRUE,7,,,,,
null,CORRECT,,html-keyboard-response,163,1039794,0.0-14.0-11.0-0.0,79413,List1A,white,woman,,,,null,,,,
2521,"<img src=""portrait/BM1.jpg""style=""width:400px;height:400px;""></img>",4,html-button-response,164,1042319,0.0-14.0-13.0,79413,List1A,white,woman,,TRUE,4,,,,,
null,CORRECT,,html-keyboard-response,165,1043823,0.0-14.0-14.0-0.0,79413,List1A,white,woman,,,,null,,,,
3077,"<img src=""portrait/WM1.jpg""style=""width:400px;height:400px;""></img>",6,html-button-response,166,1046904,0.0-14.0-16.0,79413,List1A,white,woman,,TRUE,6,,,,,
null,CORRECT,,html-keyboard-response,167,1048408,0.0-14.0-17.0-0.0,79413,List1A,white,woman,,,,null,,,,
2923,"<img src=""portrait/WW1.jpg""style=""width:400px;height:400px;""></img>",1,html-button-response,168,1051334,0.0-14.0-19.0,79413,List1A,white,woman,,TRUE,1,,,,,
null,CORRECT,,html-keyboard-response,169,1052837,0.0-14.0-20.0-0.0,79413,List1A,white,woman,,,,null,,,,
2574,"<img src=""portrait/BW2.jpg""style=""width:400px;height:400px;""></img>",2,html-button-response,170,1055414,0.0-14.0-22.0,79413,List1A,white,woman,,TRUE,2,,,,,
null,CORRECT,,html-keyboard-response,171,1056917,0.0-14.0-23.0-0.0,79413,List1A,white,woman,,,,null,,,,
1801,<p>You got 8 out of 8 right first time. Press Continue.</p>,0,html-button-response,172,1058721,0.0-14.0-25.0,79413,List1A,white,woman,,,,,,,,
null,"<div style=""font-size:60px;"">+</div>",,html-keyboard-response,173,1060264,0.0-15.0-0.0,79413,List1A,white,woman,,,,null,,,,
null,"<img src=""stim_listA/kiss1.gif""</stim_listA>",,html-keyboard-response,174,1062266,0.0-15.0-1.0,79413,List1A,white,woman,,,,null,,,,
null,is kissing,,html-keyboard-response,175,1064269,0.0-15.0-2.0,79413,List1A,white,woman,,,,null,,,,
7655,,,survey-text,176,1071927,0.0-15.0-3.0,79413,List1A,white,woman,,,,,"{""Q0"":""fred is kissing beth""}","<img src=""stim_listA/kiss1.gif""</stim_listA>",is kissing,
null,"<div style=""font-size:60px;"">+</div>",,html-keyboard-response,177,1072430,0.0-15.0-0.1,79413,List1A,white,woman,,,,null,,,,
null,"<img src=""stim_listA/fight2.gif""</stim_listA>",,html-keyboard-response,178,1074433,0.0-15.0-1.1,79413,List1A,white,woman,,,,null,,,,
null,are fighting each other,,html-keyboard-response,179,1076435,0.0-15.0-2.1,79413,List1A,white,woman,,,,null,,,,
9818,,,survey-text,180,1086255,0.0-15.0-3.1,79413,List1A,white,woman,,,,,"{""Q0"":""fred and beth are fighting each other""}","<img src=""stim_listA/fight2.gif""</stim_listA>",are fighting each other,
null,"<div style=""font-size:60px;"">+</div>",,html-keyboard-response,181,1086759,0.0-15.0-0.2,79413,List1A,white,woman,,,,null,,,,
null,"<img src=""stim_listA/meet3.gif""</stim_listA>",,html-keyboard-response,182,1088761,0.0-15.0-1.2,79413,List1A,white,woman,,,,null,,,,
null,is meeting,,html-keyboard-response,183,1090763,0.0-15.0-2.2,79413,List1A,white,woman,,,,null,,,,
7888,,,survey-text,184,1098654,0.0-15.0-3.2,79413,List1A,white,woman,,,,,"{""Q0"":""dave is meeting jane""}","<img src=""stim_listA/meet3.gif""</stim_listA>",is meeting,
null,"<div style=""font-size:60px;"">+</div>",,html-keyboard-response,185,1099158,0.0-15.0-0.3,79413,List1A,white,woman,,,,null,,,,
null,"<img src=""stim_listA/kiss8.gif""</stim_listA>",,html-keyboard-response,186,1101161,0.0-15.0-1.3,79413,List1A,white,woman,,,,null,,,,
null,are kissing each other,,html-keyboard-response,187,1103163,0.0-15.0-2.3,79413,List1A,white,woman,,,,null,,,,
14717,,,survey-text,188,1117884,0.0-15.0-3.3,79413,List1A,white,woman,,,,,"{""Q0"":""jane and kate are kissing each other""}","<img src=""stim_listA/kiss8.gif""</stim_listA>",are kissing each other,
null,"<div style=""font-size:60px;"">+</div>",,html-keyboard-response,189,1118387,0.0-15.0-0.4,79413,List1A,white,woman,,,,null,,,,
null,"<img src=""stim_listA/kiss5.gif""</stim_listA>",,html-keyboard-response,190,1120389,0.0-15.0-1.4,79413,List1A,white,woman,,,,null,,,,
null,is kissing,,html-keyboard-response,191,1122391,0.0-15.0-2.4,79413,List1A,white,woman,,,,null,,,,
12009,,,survey-text,192,1134402,0.0-15.0-3.4,79413,List1A,white,woman,,,,,"{""Q0"":""luke ad fred are kissing""}","<img src=""stim_listA/kiss5.gif""</stim_listA>",is kissing,
null,"<div style=""font-size:60px;"">+</div>",,html-keyboard-response,193,1134905,0.0-15.0-0.5,79413,List1A,white,woman,,,,null,,,,
null,"<img src=""stim_listA/touch2.gif""</stim_listA>",,html-keyboard-response,194,1136908,0.0-15.0-1.5,79413,List1A,white,woman,,,,null,,,,
null,are touching each other,,html-keyboard-response,195,1138909,0.0-15.0-2.5,79413,List1A,white,woman,,,,null,,,,
15567,,,survey-text,196,1154480,0.0-15.0-3.5,79413,List1A,white,woman,,,,,"{""Q0"":""fred and beth are touching each other""}","<img src=""stim_listA/touch2.gif""</stim_listA>",are touching each other,
null,"<div style=""font-size:60px;"">+</div>",,html-keyboard-response,197,1154986,0.0-15.0-0.6,79413,List1A,white,woman,,,,null,,,,
null,"<img src=""stim_listA/marry1.gif""</stim_listA>",,html-keyboard-response,198,1156988,0.0-15.0-1.6,79413,List1A,white,woman,,,,null,,,,
null,is marrying,,html-keyboard-response,199,1158990,0.0-15.0-2.6,79413,List1A,white,woman,,,,null,,,,
6760,,,survey-text,200,1165753,0.0-15.0-3.6,79413,List1A,white,woman,,,,,"{""Q0"":""mike is marrying beth""}","<img src=""stim_listA/marry1.gif""</stim_listA>",is marrying,
null,"<div style=""font-size:60px;"">+</div>",,html-keyboard-response,201,1166256,0.0-15.0-0.7,79413,List1A,white,woman,,,,null,,,,
null,"<img src=""stim_listA/shout4.gif""</stim_listA>",,html-keyboard-response,202,1168258,0.0-15.0-1.7,79413,List1A,white,woman,,,,null,,,,
null,are shouting at each other,,html-keyboard-response,203,1170260,0.0-15.0-2.7,79413,List1A,white,woman,,,,null,,,,
14066,,,survey-text,204,1184329,0.0-15.0-3.7,79413,List1A,white,woman,,,,,"{""Q0"":""dave and jane are shouting at each other""}","<img src=""stim_listA/shout4.gif""</stim_listA>",are shouting at each other,
null,"<div style=""font-size:60px;"">+</div>",,html-keyboard-response,205,1184831,0.0-15.0-0.8,79413,List1A,white,woman,,,,null,,,,
null,"<img src=""stim_listA/meet2.gif""</stim_listA>",,html-keyboard-response,206,1186834,0.0-15.0-1.8,79413,List1A,white,woman,,,,null,,,,
null,are meeting each other,,html-keyboard-response,207,1188837,0.0-15.0-2.8,79413,List1A,white,woman,,,,null,,,,
8491,,,survey-text,208,1197330,0.0-15.0-3.8,79413,List1A,white,woman,,,,,"{""Q0"":""fred and beth are meeting ""}","<img src=""stim_listA/meet2.gif""</stim_listA>",are meeting each other,
null,"<div style=""font-size:60px;"">+</div>",,html-keyboard-response,209,1197833,0.0-15.0-0.9,79413,List1A,white,woman,,,,null,,,,
null,"<img src=""stim_listA/touch3.gif""</stim_listA>",,html-keyboard-response,210,1199835,0.0-15.0-1.9,79413,List1A,white,woman,,,,null,,,,
null,is touching,,html-keyboard-response,211,1201837,0.0-15.0-2.9,79413,List1A,white,woman,,,,null,,,,
9059,,,survey-text,212,1210898,0.0-15.0-3.9,79413,List1A,white,woman,,,,,"{""Q0"":""jane is touching dave""}","<img src=""stim_listA/touch3.gif""</stim_listA>",is touching,
null,"<div style=""font-size:60px;"">+</div>",,html-keyboard-response,213,1211401,0.0-15.0-0.10,79413,List1A,white,woman,,,,null,,,,
null,"<img src=""stim_listA/talk2.gif""</stim_listA>",,html-keyboard-response,214,1213404,0.0-15.0-1.10,79413,List1A,white,woman,,,,null,,,,
null,are talking to each other,,html-keyboard-response,215,1215406,0.0-15.0-2.10,79413,List1A,white,woman,,,,null,,,,
17887,,,survey-text,216,1233295,0.0-15.0-3.10,79413,List1A,white,woman,,,,,"{""Q0"":""touching each other""}","<img src=""stim_listA/talk2.gif""</stim_listA>",are talking to each other,
null,"<div style=""font-size:60px;"">+</div>",,html-keyboard-response,217,1233798,0.0-15.0-0.11,79413,List1A,white,woman,,,,null,,,,
null,"<img src=""stim_listA/dance7.gif""</stim_listA>",,html-keyboard-response,218,1235801,0.0-15.0-1.11,79413,List1A,white,woman,,,,null,,,,
null,is dancing with,,html-keyboard-response,219,1237803,0.0-15.0-2.11,79413,List1A,white,woman,,,,null,,,,
10158,,,survey-text,220,1247965,0.0-15.0-3.11,79413,List1A,white,woman,,,,,"{""Q0"":""beth is dancing with jane""}","<img src=""stim_listA/dance7.gif""</stim_listA>",is dancing with,
null,"<div style=""font-size:60px;"">+</div>",,html-keyboard-response,221,1248468,0.0-15.0-0.12,79413,List1A,white,woman,,,,null,,,,
null,"<img src=""stim_listA/marry2.gif""</stim_listA>",,html-keyboard-response,222,1250471,0.0-15.0-1.12,79413,List1A,white,woman,,,,null,,,,
null,are marrying each other,,html-keyboard-response,223,1252473,0.0-15.0-2.12,79413,List1A,white,woman,,,,null,,,,
9029,,,survey-text,224,1261504,0.0-15.0-3.12,79413,List1A,white,woman,,,,,"{""Q0"":""kate is marrying luke""}","<img src=""stim_listA/marry2.gif""</stim_listA>",are marrying each other,
null,"<div style=""font-size:60px;"">+</div>",,html-keyboard-response,225,1262007,0.0-15.0-0.13,79413,List1A,white,woman,,,,null,,,,
null,"<img src=""stim_listA/kiss7.gif""</stim_listA>",,html-keyboard-response,226,1264009,0.0-15.0-1.13,79413,List1A,white,woman,,,,null,,,,
null,is kissing,,html-keyboard-response,227,1266012,0.0-15.0-2.13,79413,List1A,white,woman,,,,null,,,,
6065,,,survey-text,228,1272080,0.0-15.0-3.13,79413,List1A,white,woman,,,,,"{""Q0"":""ruth kisses beth""}","<img src=""stim_listA/kiss7.gif""</stim_listA>",is kissing,
null,"<div style=""font-size:60px;"">+</div>",,html-keyboard-response,229,1272585,0.0-15.0-0.14,79413,List1A,white,woman,,,,null,,,,
null,"<img src=""stim_listA/shout5.gif""</stim_listA>",,html-keyboard-response,230,1274588,0.0-15.0-1.14,79413,List1A,white,woman,,,,null,,,,
null,is shouting at,,html-keyboard-response,231,1276592,0.0-15.0-2.14,79413,List1A,white,woman,,,,null,,,,
6954,,,survey-text,232,1283548,0.0-15.0-3.14,79413,List1A,white,woman,,,,,"{""Q0"":""fred is shouting at luke""}","<img src=""stim_listA/shout5.gif""</stim_listA>",is shouting at,
null,"<div style=""font-size:60px;"">+</div>",,html-keyboard-response,233,1284051,0.0-15.0-0.15,79413,List1A,white,woman,,,,null,,,,
null,"<img src=""stim_listA/hug2.gif""</stim_listA>",,html-keyboard-response,234,1286053,0.0-15.0-1.15,79413,List1A,white,woman,,,,null,,,,
null,are hugging each other,,html-keyboard-response,235,1288055,0.0-15.0-2.15,79413,List1A,white,woman,,,,null,,,,
12280,,,survey-text,236,1300338,0.0-15.0-3.15,79413,List1A,white,woman,,,,,"{""Q0"":""kate and mike are hugging each othr""}","<img src=""stim_listA/hug2.gif""</stim_listA>",are hugging each other,
null,"<div style=""font-size:60px;"">+</div>",,html-keyboard-response,237,1300842,0.0-15.0-0.16,79413,List1A,white,woman,,,,null,,,,
null,"<img src=""stim_listA/meet7.gif""</stim_listA>",,html-keyboard-response,238,1302844,0.0-15.0-1.16,79413,List1A,white,woman,,,,null,,,,
null,is meeting,,html-keyboard-response,239,1304847,0.0-15.0-2.16,79413,List1A,white,woman,,,,null,,,,
13121,,,survey-text,240,1317972,0.0-15.0-3.16,79413,List1A,white,woman,,,,,"{""Q0"":""jane is meeting kate""}","<img src=""stim_listA/meet7.gif""</stim_listA>",is meeting,
null,"<div style=""font-size:60px;"">+</div>",,html-keyboard-response,241,1318474,0.0-15.0-0.17,79413,List1A,white,woman,,,,null,,,,
null,"<img src=""stim_listA/touch5.gif""</stim_listA>",,html-keyboard-response,242,1320476,0.0-15.0-1.17,79413,List1A,white,woman,,,,null,,,,
null,is touching,,html-keyboard-response,243,1322478,0.0-15.0-2.17,79413,List1A,white,woman,,,,null,,,,
7703,,,survey-text,244,1330185,0.0-15.0-3.17,79413,List1A,white,woman,,,,,"{""Q0"":""mike is meeting dave""}","<img src=""stim_listA/touch5.gif""</stim_listA>",is touching,
null,"<div style=""font-size:60px;"">+</div>",,html-keyboard-response,245,1330688,0.0-15.0-0.18,79413,List1A,white,woman,,,,null,,,,
null,"<img src=""stim_listA/argue7.gif""</stim_listA>",,html-keyboard-response,246,1332691,0.0-15.0-1.18,79413,List1A,white,woman,,,,null,,,,
null,is arguing with,,html-keyboard-response,247,1334694,0.0-15.0-2.18,79413,List1A,white,woman,,,,null,,,,
8821,,,survey-text,248,1343517,0.0-15.0-3.18,79413,List1A,white,woman,,,,,"{""Q0"":""kate is arguig with ruth""}","<img src=""stim_listA/argue7.gif""</stim_listA>",is arguing with,
null,"<div style=""font-size:60px;"">+</div>",,html-keyboard-response,249,1344020,0.0-15.0-0.19,79413,List1A,white,woman,,,,null,,,,
null,"<img src=""stim_listA/fight5.gif""</stim_listA>",,html-keyboard-response,250,1346022,0.0-15.0-1.19,79413,List1A,white,woman,,,,null,,,,
null,is fighting,,html-keyboard-response,251,1348024,0.0-15.0-2.19,79413,List1A,white,woman,,,,null,,,,
6331,,,survey-text,252,1354360,0.0-15.0-3.19,79413,List1A,white,woman,,,,,"{""Q0"":""mike is fighting dave""}","<img src=""stim_listA/fight5.gif""</stim_listA>",is fighting,
1745,"<img src='img/portrait_matrix_list1.JPG' style='width:900px;height:500px;''></img><p>If you have memorised all the portraits and names and are ready to start, press Continue.</p><p><strong>Please note: Your memory of these faces will be tested 4 times during this experiment.</strong></p>",0,html-button-response,253,1356108,0.0-16.0-0.0,79413,List1A,white,woman,,,,,,,,
3600,"<img src=""portrait/WW1.jpg""style=""width:400px;height:400px;""></img>",1,html-button-response,254,1360713,0.0-16.0-1.0,79413,List1A,white,woman,,TRUE,1,,,,,
null,CORRECT,,html-keyboard-response,255,1362217,0.0-16.0-2.0-0.0,79413,List1A,white,woman,,,,null,,,,
1876,"<img src=""portrait/WW2.jpg""style=""width:400px;height:400px;""></img>",3,html-button-response,256,1364097,0.0-16.0-4.0,79413,List1A,white,woman,,TRUE,3,,,,,
null,CORRECT,,html-keyboard-response,257,1365601,0.0-16.0-5.0-0.0,79413,List1A,white,woman,,,,null,,,,
3244,"<img src=""portrait/BW1.jpg""style=""width:400px;height:400px;""></img>",0,html-button-response,258,1368849,0.0-16.0-7.0,79413,List1A,white,woman,,TRUE,0,,,,,
null,CORRECT,,html-keyboard-response,259,1370352,0.0-16.0-8.0-0.0,79413,List1A,white,woman,,,,null,,,,
2186,"<img src=""portrait/WM2.jpg""style=""width:400px;height:400px;""></img>",7,html-button-response,260,1372543,0.0-16.0-10.0,79413,List1A,white,woman,,TRUE,7,,,,,
null,CORRECT,,html-keyboard-response,261,1374046,0.0-16.0-11.0-0.0,79413,List1A,white,woman,,,,null,,,,
2772,"<img src=""portrait/BM1.jpg""style=""width:400px;height:400px;""></img>",4,html-button-response,262,1376822,0.0-16.0-13.0,79413,List1A,white,woman,,TRUE,4,,,,,
null,CORRECT,,html-keyboard-response,263,1378326,0.0-16.0-14.0-0.0,79413,List1A,white,woman,,,,null,,,,
2424,"<img src=""portrait/BW2.jpg""style=""width:400px;height:400px;""></img>",2,html-button-response,264,1380754,0.0-16.0-16.0,79413,List1A,white,woman,,TRUE,2,,,,,
null,CORRECT,,html-keyboard-response,265,1382259,0.0-16.0-17.0-0.0,79413,List1A,white,woman,,,,null,,,,
3067,"<img src=""portrait/WM1.jpg""style=""width:400px;height:400px;""></img>",6,html-button-response,266,1385330,0.0-16.0-19.0,79413,List1A,white,woman,,TRUE,6,,,,,
null,CORRECT,,html-keyboard-response,267,1386834,0.0-16.0-20.0-0.0,79413,List1A,white,woman,,,,null,,,,
5460,"<img src=""portrait/BM2.jpg""style=""width:400px;height:400px;""></img>",5,html-button-response,268,1392298,0.0-16.0-22.0,79413,List1A,white,woman,,TRUE,5,,,,,
null,CORRECT,,html-keyboard-response,269,1393802,0.0-16.0-23.0-0.0,79413,List1A,white,woman,,,,null,,,,
1147,<p>You got 8 out of 8 right first time. Press Continue.</p>,0,html-button-response,270,1394952,0.0-16.0-25.0,79413,List1A,white,woman,,,,,,,,
null,"<div style=""font-size:60px;"">+</div>",,html-keyboard-response,271,1396456,0.0-17.0-0.0,79413,List1A,white,woman,,,,null,,,,
null,"<img src=""stim_listA/shout1.gif""</stim_listA>",,html-keyboard-response,272,1398458,0.0-17.0-1.0,79413,List1A,white,woman,,,,null,,,,
null,is shouting at,,html-keyboard-response,273,1400461,0.0-17.0-2.0,79413,List1A,white,woman,,,,null,,,,
6693,,,survey-text,274,1407156,0.0-17.0-3.0,79413,List1A,white,woman,,,,,"{""Q0"":""shouting at""}","<img src=""stim_listA/shout1.gif""</stim_listA>",is shouting at,
null,"<div style=""font-size:60px;"">+</div>",,html-keyboard-response,275,1407659,0.0-17.0-0.1,79413,List1A,white,woman,,,,null,,,,
null,"<img src=""stim_listA/hug7.gif""</stim_listA>",,html-keyboard-response,276,1409661,0.0-17.0-1.1,79413,List1A,white,woman,,,,null,,,,
null,is hugging,,html-keyboard-response,277,1411663,0.0-17.0-2.1,79413,List1A,white,woman,,,,null,,,,
6739,,,survey-text,278,1418405,0.0-17.0-3.1,79413,List1A,white,woman,,,,,"{""Q0"":""beth is hugging ruth""}","<img src=""stim_listA/hug7.gif""</stim_listA>",is hugging,
null,"<div style=""font-size:60px;"">+</div>",,html-keyboard-response,279,1418907,0.0-17.0-0.2,79413,List1A,white,woman,,,,null,,,,
null,"<img src=""stim_listA/touch8.gif""</stim_listA>",,html-keyboard-response,280,1420910,0.0-17.0-1.2,79413,List1A,white,woman,,,,null,,,,
null,are touching each other,,html-keyboard-response,281,1422912,0.0-17.0-2.2,79413,List1A,white,woman,,,,null,,,,
15296,,,survey-text,282,1438212,0.0-17.0-3.2,79413,List1A,white,woman,,,,,"{""Q0"":""ruth and beth are touching each other""}","<img src=""stim_listA/touch8.gif""</stim_listA>",are touching each other,
null,"<div style=""font-size:60px;"">+</div>",,html-keyboard-response,283,1438715,0.0-17.0-0.3,79413,List1A,white,woman,,,,null,,,,
null,"<img src=""stim_listA/kiss6.gif""</stim_listA>",,html-keyboard-response,284,1440718,0.0-17.0-1.3,79413,List1A,white,woman,,,,null,,,,
null,are kissing each other,,html-keyboard-response,285,1442721,0.0-17.0-2.3,79413,List1A,white,woman,,,,null,,,,
2217,,,survey-text,286,1444943,0.0-17.0-3.3,79413,List1A,white,woman,,,,,"{""Q0"":""""}","<img src=""stim_listA/kiss6.gif""</stim_listA>",are kissing each other,
null,"<div style=""font-size:60px;"">+</div>",,html-keyboard-response,287,1445446,0.0-17.0-0.4,79413,List1A,white,woman,,,,null,,,,
null,"<img src=""stim_listA/talk5.gif""</stim_listA>",,html-keyboard-response,288,1447448,0.0-17.0-1.4,79413,List1A,white,woman,,,,null,,,,
null,is talking to,,html-keyboard-response,289,1449450,0.0-17.0-2.4,79413,List1A,white,woman,,,,null,,,,
11747,,,survey-text,290,1461200,0.0-17.0-3.4,79413,List1A,white,woman,,,,,"{""Q0"":""dave is talking to fred""}","<img src=""stim_listA/talk5.gif""</stim_listA>",is talking to,
null,"<div style=""font-size:60px;"">+</div>",,html-keyboard-response,291,1461703,0.0-17.0-0.5,79413,List1A,white,woman,,,,null,,,,
null,"<img src=""stim_listA/hug8.gif""</stim_listA>",,html-keyboard-response,292,1463705,0.0-17.0-1.5,79413,List1A,white,woman,,,,null,,,,
null,are hugging each other,,html-keyboard-response,293,1465708,0.0-17.0-2.5,79413,List1A,white,woman,,,,null,,,,
10294,,,survey-text,294,1476004,0.0-17.0-3.5,79413,List1A,white,woman,,,,,"{""Q0"":""kate and jane are hugging""}","<img src=""stim_listA/hug8.gif""</stim_listA>",are hugging each other,
null,"<div style=""font-size:60px;"">+</div>",,html-keyboard-response,295,1476507,0.0-17.0-0.6,79413,List1A,white,woman,,,,null,,,,
null,"<img src=""stim_listA/talk3.gif""</stim_listA>",,html-keyboard-response,296,1478509,0.0-17.0-1.6,79413,List1A,white,woman,,,,null,,,,
null,is talking to,,html-keyboard-response,297,1480511,0.0-17.0-2.6,79413,List1A,white,woman,,,,null,,,,
9518,,,survey-text,298,1490031,0.0-17.0-3.6,79413,List1A,white,woman,,,,,"{""Q0"":""talking to""}","<img src=""stim_listA/talk3.gif""</stim_listA>",is talking to,
null,"<div style=""font-size:60px;"">+</div>",,html-keyboard-response,299,1490534,0.0-17.0-0.7,79413,List1A,white,woman,,,,null,,,,
null,"<img src=""stim_listA/meet5.gif""</stim_listA>",,html-keyboard-response,300,1492536,0.0-17.0-1.7,79413,List1A,white,woman,,,,null,,,,
null,is meeting,,html-keyboard-response,301,1494539,0.0-17.0-2.7,79413,List1A,white,woman,,,,null,,,,
7628,,,survey-text,302,1502169,0.0-17.0-3.7,79413,List1A,white,woman,,,,,"{""Q0"":""mike is meeting dave""}","<img src=""stim_listA/meet5.gif""</stim_listA>",is meeting,
null,"<div style=""font-size:60px;"">+</div>",,html-keyboard-response,303,1502673,0.0-17.0-0.8,79413,List1A,white,woman,,,,null,,,,
null,"<img src=""stim_listA/touch4.gif""</stim_listA>",,html-keyboard-response,304,1504676,0.0-17.0-1.8,79413,List1A,white,woman,,,,null,,,,
null,are touching each other,,html-keyboard-response,305,1506679,0.0-17.0-2.8,79413,List1A,white,woman,,,,null,,,,
10663,,,survey-text,306,1517345,0.0-17.0-3.8,79413,List1A,white,woman,,,,,"{""Q0"":""ruth and luke are touching each other""}","<img src=""stim_listA/touch4.gif""</stim_listA>",are touching each other,
null,"<div style=""font-size:60px;"">+</div>",,html-keyboard-response,307,1517848,0.0-17.0-0.9,79413,List1A,white,woman,,,,null,,,,
null,"<img src=""stim_listA/talk8.gif""</stim_listA>",,html-keyboard-response,308,1519850,0.0-17.0-1.9,79413,List1A,white,woman,,,,null,,,,
null,are talking to each other,,html-keyboard-response,309,1521853,0.0-17.0-2.9,79413,List1A,white,woman,,,,null,,,,
6663,,,survey-text,310,1528518,0.0-17.0-3.9,79413,List1A,white,woman,,,,,"{""Q0"":""kate and ruth are talking to each other""}","<img src=""stim_listA/talk8.gif""</stim_listA>",are talking to each other,
null,"<div style=""font-size:60px;"">+</div>",,html-keyboard-response,311,1529021,0.0-17.0-0.10,79413,List1A,white,woman,,,,null,,,,
null,"<img src=""stim_listA/fight6.gif""</stim_listA>",,html-keyboard-response,312,1531025,0.0-17.0-1.10,79413,List1A,white,woman,,,,null,,,,
null,are fighting each other,,html-keyboard-response,313,1533027,0.0-17.0-2.10,79413,List1A,white,woman,,,,null,,,,
7443,,,survey-text,314,1540472,0.0-17.0-3.10,79413,List1A,white,woman,,,,,"{""Q0"":""luke and fred are fighting each other""}","<img src=""stim_listA/fight6.gif""</stim_listA>",are fighting each other,
null,"<div style=""font-size:60px;"">+</div>",,html-keyboard-response,315,1540975,0.0-17.0-0.11,79413,List1A,white,woman,,,,null,,,,
null,"<img src=""stim_listA/argue6.gif""</stim_listA>",,html-keyboard-response,316,1542977,0.0-17.0-1.11,79413,List1A,white,woman,,,,null,,,,
null,are arguing with each other,,html-keyboard-response,317,1544979,0.0-17.0-2.11,79413,List1A,white,woman,,,,null,,,,
10186,,,survey-text,318,1555168,0.0-17.0-3.11,79413,List1A,white,woman,,,,,"{""Q0"":""dave and fred are arguing with each other""}","<img src=""stim_listA/argue6.gif""</stim_listA>",are arguing with each other,
null,"<div style=""font-size:60px;"">+</div>",,html-keyboard-response,319,1555672,0.0-17.0-0.12,79413,List1A,white,woman,,,,null,,,,
null,"<img src=""stim_listA/hug4.gif""</stim_listA>",,html-keyboard-response,320,1557675,0.0-17.0-1.12,79413,List1A,white,woman,,,,null,,,,
null,are hugging each other,,html-keyboard-response,321,1559678,0.0-17.0-2.12,79413,List1A,white,woman,,,,null,,,,
10617,,,survey-text,322,1570297,0.0-17.0-3.12,79413,List1A,white,woman,,,,,"{""Q0"":""naomi and dave are hugging each other""}","<img src=""stim_listA/hug4.gif""</stim_listA>",are hugging each other,
null,"<div style=""font-size:60px;"">+</div>",,html-keyboard-response,323,1570801,0.0-17.0-0.13,79413,List1A,white,woman,,,,null,,,,
null,"<img src=""stim_listA/touch7.gif""</stim_listA>",,html-keyboard-response,324,1572804,0.0-17.0-1.13,79413,List1A,white,woman,,,,null,,,,
null,is touching,,html-keyboard-response,325,1574806,0.0-17.0-2.13,79413,List1A,white,woman,,,,null,,,,
9203,,,survey-text,326,1584012,0.0-17.0-3.13,79413,List1A,white,woman,,,,,"{""Q0"":""jane and kate are touching""}","<img src=""stim_listA/touch7.gif""</stim_listA>",is touching,
null,"<div style=""font-size:60px;"">+</div>",,html-keyboard-response,327,1584515,0.0-17.0-0.14,79413,List1A,white,woman,,,,null,,,,
null,"<img src=""stim_listA/touch6.gif""</stim_listA>",,html-keyboard-response,328,1586517,0.0-17.0-1.14,79413,List1A,white,woman,,,,null,,,,
null,are touching each other,,html-keyboard-response,329,1588519,0.0-17.0-2.14,79413,List1A,white,woman,,,,null,,,,
6952,,,survey-text,330,1595473,0.0-17.0-3.14,79413,List1A,white,woman,,,,,"{""Q0"":""luke and fred are touching""}","<img src=""stim_listA/touch6.gif""</stim_listA>",are touching each other,
null,"<div style=""font-size:60px;"">+</div>",,html-keyboard-response,331,1595976,0.0-17.0-0.15,79413,List1A,white,woman,,,,null,,,,
null,"<img src=""stim_listA/hug3.gif""</stim_listA>",,html-keyboard-response,332,1597980,0.0-17.0-1.15,79413,List1A,white,woman,,,,null,,,,
null,is hugging,,html-keyboard-response,333,1599982,0.0-17.0-2.15,79413,List1A,white,woman,,,,null,,,,
4305,,,survey-text,334,1604289,0.0-17.0-3.15,79413,List1A,white,woman,,,,,"{""Q0"":""ruth is hugging luke""}","<img src=""stim_listA/hug3.gif""</stim_listA>",is hugging,
null,"<div style=""font-size:60px;"">+</div>",,html-keyboard-response,335,1604792,0.0-17.0-0.16,79413,List1A,white,woman,,,,null,,,,
null,"<img src=""stim_listA/meet8.gif""</stim_listA>",,html-keyboard-response,336,1606794,0.0-17.0-1.16,79413,List1A,white,woman,,,,null,,,,
null,are meeting each other,,html-keyboard-response,337,1608797,0.0-17.0-2.16,79413,List1A,white,woman,,,,null,,,,
8062,,,survey-text,338,1616863,0.0-17.0-3.16,79413,List1A,white,woman,,,,,"{""Q0"":""ruth and beth are meeting each other""}","<img src=""stim_listA/meet8.gif""</stim_listA>",are meeting each other,
null,"<div style=""font-size:60px;"">+</div>",,html-keyboard-response,339,1617365,0.0-17.0-0.17,79413,List1A,white,woman,,,,null,,,,
null,"<img src=""stim_listA/argue5.gif""</stim_listA>",,html-keyboard-response,340,1619367,0.0-17.0-1.17,79413,List1A,white,woman,,,,null,,,,
null,is arguing with,,html-keyboard-response,341,1621369,0.0-17.0-2.17,79413,List1A,white,woman,,,,null,,,,
6974,,,survey-text,342,1628345,0.0-17.0-3.17,79413,List1A,white,woman,,,,,"{""Q0"":""mike is arguing with luke""}","<img src=""stim_listA/argue5.gif""</stim_listA>",is arguing with,
null,"<div style=""font-size:60px;"">+</div>",,html-keyboard-response,343,1628849,0.0-17.0-0.18,79413,List1A,white,woman,,,,null,,,,
null,"<img src=""stim_listA/argue8.gif""</stim_listA>",,html-keyboard-response,344,1630851,0.0-17.0-1.18,79413,List1A,white,woman,,,,null,,,,
null,are arguing with each other,,html-keyboard-response,345,1632852,0.0-17.0-2.18,79413,List1A,white,woman,,,,null,,,,
9008,,,survey-text,346,1641862,0.0-17.0-3.18,79413,List1A,white,woman,,,,,"{""Q0"":""jane and beth are arguing with each other""}","<img src=""stim_listA/argue8.gif""</stim_listA>",are arguing with each other,
null,"<div style=""font-size:60px;"">+</div>",,html-keyboard-response,347,1642364,0.0-17.0-0.19,79413,List1A,white,woman,,,,null,,,,
null,"<img src=""stim_listA/marry7.gif""</stim_listA>",,html-keyboard-response,348,1644367,0.0-17.0-1.19,79413,List1A,white,woman,,,,null,,,,
null,is marrying,,html-keyboard-response,349,1646369,0.0-17.0-2.19,79413,List1A,white,woman,,,,null,,,,
6060,,,survey-text,350,1652432,0.0-17.0-3.19,79413,List1A,white,woman,,,,,"{""Q0"":""kate is marrying ruth""}","<img src=""stim_listA/marry7.gif""</stim_listA>",is marrying,
2152,"<img src='img/portrait_matrix_list1.JPG' style='width:900px;height:500px;''></img><p>If you have memorised all the portraits and names and are ready to start, press Continue.</p><p><strong>Please note: Your memory of these faces will be tested 4 times during this experiment.</strong></p>",0,html-button-response,351,1654588,0.0-18.0-0.0,79413,List1A,white,woman,,,,,,,,
2581,"<img src=""portrait/WM2.jpg""style=""width:400px;height:400px;""></img>",7,html-button-response,352,1658175,0.0-18.0-1.0,79413,List1A,white,woman,,TRUE,7,,,,,
null,CORRECT,,html-keyboard-response,353,1659679,0.0-18.0-2.0-0.0,79413,List1A,white,woman,,,,null,,,,
3428,"<img src=""portrait/WM1.jpg""style=""width:400px;height:400px;""></img>",6,html-button-response,354,1663110,0.0-18.0-4.0,79413,List1A,white,woman,,TRUE,6,,,,,
null,CORRECT,,html-keyboard-response,355,1664613,0.0-18.0-5.0-0.0,79413,List1A,white,woman,,,,null,,,,
2376,"<img src=""portrait/WW1.jpg""style=""width:400px;height:400px;""></img>",0,html-button-response,356,1666993,0.0-18.0-7.0,79413,List1A,white,woman,,TRUE,1,,,,,
2167,"<img src=""portrait/WW1.jpg""style=""width:400px;height:400px;""></img>",1,html-button-response,357,1670166,0.0-18.0-9.0-0.0,79413,List1A,white,woman,,FALSE,1,,,,,
null,CORRECT,,html-keyboard-response,358,1671670,0.0-18.0-9.0-1.0-0.0,79413,List1A,white,woman,,,,null,,,,
3080,"<img src=""portrait/BM1.jpg""style=""width:400px;height:400px;""></img>",4,html-button-response,359,1674755,0.0-18.0-10.0,79413,List1A,white,woman,,TRUE,4,,,,,
null,CORRECT,,html-keyboard-response,360,1676259,0.0-18.0-11.0-0.0,79413,List1A,white,woman,,,,null,,,,
2487,"<img src=""portrait/BW1.jpg""style=""width:400px;height:400px;""></img>",0,html-button-response,361,1678750,0.0-18.0-13.0,79413,List1A,white,woman,,TRUE,0,,,,,
null,CORRECT,,html-keyboard-response,362,1680255,0.0-18.0-14.0-0.0,79413,List1A,white,woman,,,,null,,,,
4495,"<img src=""portrait/WW2.jpg""style=""width:400px;height:400px;""></img>",3,html-button-response,363,1684754,0.0-18.0-16.0,79413,List1A,white,woman,,TRUE,3,,,,,
null,CORRECT,,html-keyboard-response,364,1686258,0.0-18.0-17.0-0.0,79413,List1A,white,woman,,,,null,,,,
2681,"<img src=""portrait/BW2.jpg""style=""width:400px;height:400px;""></img>",2,html-button-response,365,1688944,0.0-18.0-19.0,79413,List1A,white,woman,,TRUE,2,,,,,
null,CORRECT,,html-keyboard-response,366,1690447,0.0-18.0-20.0-0.0,79413,List1A,white,woman,,,,null,,,,
2423,"<img src=""portrait/BM2.jpg""style=""width:400px;height:400px;""></img>",5,html-button-response,367,1692876,0.0-18.0-22.0,79413,List1A,white,woman,,TRUE,5,,,,,
null,CORRECT,,html-keyboard-response,368,1694380,0.0-18.0-23.0-0.0,79413,List1A,white,woman,,,,null,,,,
1469,<p>You got 7 out of 8 right first time. Press Continue.</p>,0,html-button-response,369,1695853,0.0-18.0-25.0,79413,List1A,white,woman,,,,,,,,
2021,"As you did not score 100%, the memory game will repeat. Press Continue.",0,html-button-response,370,1698878,0.0-18.0-26.0-0.0,79413,List1A,white,woman,,,,,,,,
2618,"<img src='img/portrait_matrix_list1.JPG' style='width:900px;height:500px;''></img><p>If you have memorised all the portraits and names and are ready to start, press Continue.</p><p><strong>Please note: Your memory of these faces will be tested 4 times during this experiment.</strong></p>",0,html-button-response,371,1702500,0.0-18.1-0.1,79413,List1A,white,woman,,,,,,,,
2975,"<img src=""portrait/WM2.jpg""style=""width:400px;height:400px;""></img>",7,html-button-response,372,1706480,0.0-18.1-1.1,79413,List1A,white,woman,,TRUE,7,,,,,
null,CORRECT,,html-keyboard-response,373,1707986,0.0-18.1-2.1-0.1,79413,List1A,white,woman,,,,null,,,,
3560,"<img src=""portrait/WM1.jpg""style=""width:400px;height:400px;""></img>",6,html-button-response,374,1711551,0.0-18.1-4.1,79413,List1A,white,woman,,TRUE,6,,,,,
null,CORRECT,,html-keyboard-response,375,1713055,0.0-18.1-5.1-0.1,79413,List1A,white,woman,,,,null,,,,
3119,"<img src=""portrait/WW1.jpg""style=""width:400px;height:400px;""></img>",1,html-button-response,376,1716179,0.0-18.1-7.1,79413,List1A,white,woman,,TRUE,1,,,,,
null,CORRECT,,html-keyboard-response,377,1717682,0.0-18.1-8.1-0.1,79413,List1A,white,woman,,,,null,,,,
3020,"<img src=""portrait/BM1.jpg""style=""width:400px;height:400px;""></img>",4,html-button-response,378,1720706,0.0-18.1-10.1,79413,List1A,white,woman,,TRUE,4,,,,,
null,CORRECT,,html-keyboard-response,379,1722210,0.0-18.1-11.1-0.1,79413,List1A,white,woman,,,,null,,,,
2438,"<img src=""portrait/BW1.jpg""style=""width:400px;height:400px;""></img>",0,html-button-response,380,1724651,0.0-18.1-13.1,79413,List1A,white,woman,,TRUE,0,,,,,
null,CORRECT,,html-keyboard-response,381,1726155,0.0-18.1-14.1-0.1,79413,List1A,white,woman,,,,null,,,,
4851,"<img src=""portrait/WW2.jpg""style=""width:400px;height:400px;""></img>",3,html-button-response,382,1731010,0.0-18.1-16.1,79413,List1A,white,woman,,TRUE,3,,,,,
null,CORRECT,,html-keyboard-response,383,1732513,0.0-18.1-17.1-0.1,79413,List1A,white,woman,,,,null,,,,
3405,"<img src=""portrait/BW2.jpg""style=""width:400px;height:400px;""></img>",2,html-button-response,384,1735922,0.0-18.1-19.1,79413,List1A,white,woman,,TRUE,2,,,,,
null,CORRECT,,html-keyboard-response,385,1737426,0.0-18.1-20.1-0.1,79413,List1A,white,woman,,,,null,,,,
3379,"<img src=""portrait/BM2.jpg""style=""width:400px;height:400px;""></img>",5,html-button-response,386,1740809,0.0-18.1-22.1,79413,List1A,white,woman,,TRUE,5,,,,,
null,CORRECT,,html-keyboard-response,387,1742313,0.0-18.1-23.1-0.1,79413,List1A,white,woman,,,,null,,,,
1890,<p>You got 8 out of 8 right first time. Press Continue.</p>,0,html-button-response,388,1744206,0.0-18.1-25.1,79413,List1A,white,woman,,,,,,,,
null,"<div style=""font-size:60px;"">+</div>",,html-keyboard-response,389,1745712,0.0-19.0-0.0,79413,List1A,white,woman,,,,null,,,,
null,"<img src=""stim_listA/fight4.gif""</stim_listA>",,html-keyboard-response,390,1747715,0.0-19.0-1.0,79413,List1A,white,woman,,,,null,,,,
null,are fighting each other,,html-keyboard-response,391,1749718,0.0-19.0-2.0,79413,List1A,white,woman,,,,null,,,,
12432,,,survey-text,392,1762154,0.0-19.0-3.0,79413,List1A,white,woman,,,,,"{""Q0"":""ruth and luke are fighting each other""}","<img src=""stim_listA/fight4.gif""</stim_listA>",are fighting each other,
null,"<div style=""font-size:60px;"">+</div>",,html-keyboard-response,393,1762656,0.0-19.0-0.1,79413,List1A,white,woman,,,,null,,,,
null,"<img src=""stim_listA/fight8.gif""</stim_listA>",,html-keyboard-response,394,1764659,0.0-19.0-1.1,79413,List1A,white,woman,,,,null,,,,
null,are fighting each other,,html-keyboard-response,395,1766662,0.0-19.0-2.1,79413,List1A,white,woman,,,,null,,,,
10149,,,survey-text,396,1776816,0.0-19.0-3.1,79413,List1A,white,woman,,,,,"{""Q0"":""ruth and beth are fighting each other""}","<img src=""stim_listA/fight8.gif""</stim_listA>",are fighting each other,
null,"<div style=""font-size:60px;"">+</div>",,html-keyboard-response,397,1777319,0.0-19.0-0.2,79413,List1A,white,woman,,,,null,,,,
null,"<img src=""stim_listA/fight1.gif""</stim_listA>",,html-keyboard-response,398,1779321,0.0-19.0-1.2,79413,List1A,white,woman,,,,null,,,,
null,is fighting,,html-keyboard-response,399,1781323,0.0-19.0-2.2,79413,List1A,white,woman,,,,null,,,,
7196,,,survey-text,400,1788522,0.0-19.0-3.2,79413,List1A,white,woman,,,,,"{""Q0"":""kate is fighting mike""}","<img src=""stim_listA/fight1.gif""</stim_listA>",is fighting,
null,"<div style=""font-size:60px;"">+</div>",,html-keyboard-response,401,1789025,0.0-19.0-0.3,79413,List1A,white,woman,,,,null,,,,
null,"<img src=""stim_listA/dance1.gif""</stim_listA>",,html-keyboard-response,402,1791028,0.0-19.0-1.3,79413,List1A,white,woman,,,,null,,,,
null,is dancing with,,html-keyboard-response,403,1793030,0.0-19.0-2.3,79413,List1A,white,woman,,,,null,,,,
8379,,,survey-text,404,1801412,0.0-19.0-3.3,79413,List1A,white,woman,,,,,"{""Q0"":""fred is dancing with kate""}","<img src=""stim_listA/dance1.gif""</stim_listA>",is dancing with,
null,"<div style=""font-size:60px;"">+</div>",,html-keyboard-response,405,1801915,0.0-19.0-0.4,79413,List1A,white,woman,,,,null,,,,
null,"<img src=""stim_listA/argue3.gif""</stim_listA>",,html-keyboard-response,406,1803917,0.0-19.0-1.4,79413,List1A,white,woman,,,,null,,,,
null,is arguing with,,html-keyboard-response,407,1805920,0.0-19.0-2.4,79413,List1A,white,woman,,,,null,,,,
12021,,,survey-text,408,1817944,0.0-19.0-3.4,79413,List1A,white,woman,,,,,"{""Q0"":""dave is arguing with ruth""}","<img src=""stim_listA/argue3.gif""</stim_listA>",is arguing with,
null,"<div style=""font-size:60px;"">+</div>",,html-keyboard-response,409,1818447,0.0-19.0-0.5,79413,List1A,white,woman,,,,null,,,,
null,"<img src=""stim_listA/marry4.gif""</stim_listA>",,html-keyboard-response,410,1820450,0.0-19.0-1.5,79413,List1A,white,woman,,,,null,,,,
null,are marrying each other,,html-keyboard-response,411,1822452,0.0-19.0-2.5,79413,List1A,white,woman,,,,null,,,,
14036,,,survey-text,412,1836492,0.0-19.0-3.5,79413,List1A,white,woman,,,,,"{""Q0"":""jane and luke are marrying each other""}","<img src=""stim_listA/marry4.gif""</stim_listA>",are marrying each other,
null,"<div style=""font-size:60px;"">+</div>",,html-keyboard-response,413,1836995,0.0-19.0-0.6,79413,List1A,white,woman,,,,null,,,,
null,"<img src=""stim_listA/fight3.gif""</stim_listA>",,html-keyboard-response,414,1838997,0.0-19.0-1.6,79413,List1A,white,woman,,,,null,,,,
null,is fighting,,html-keyboard-response,415,1841000,0.0-19.0-2.6,79413,List1A,white,woman,,,,null,,,,
6974,,,survey-text,416,1847977,0.0-19.0-3.6,79413,List1A,white,woman,,,,,"{""Q0"":""jane is fighting with dave""}","<img src=""stim_listA/fight3.gif""</stim_listA>",is fighting,
null,"<div style=""font-size:60px;"">+</div>",,html-keyboard-response,417,1848480,0.0-19.0-0.7,79413,List1A,white,woman,,,,null,,,,
null,"<img src=""stim_listA/shout2.gif""</stim_listA>",,html-keyboard-response,418,1850482,0.0-19.0-1.7,79413,List1A,white,woman,,,,null,,,,
null,are shouting at each other,,html-keyboard-response,419,1852484,0.0-19.0-2.7,79413,List1A,white,woman,,,,null,,,,
9316,,,survey-text,420,1861804,0.0-19.0-3.7,79413,List1A,white,woman,,,,,"{""Q0"":""kate and mike are shouting at each other""}","<img src=""stim_listA/shout2.gif""</stim_listA>",are shouting at each other,
null,"<div style=""font-size:60px;"">+</div>",,html-keyboard-response,421,1862306,0.0-19.0-0.8,79413,List1A,white,woman,,,,null,,,,
null,"<img src=""stim_listA/shout3.gif""</stim_listA>",,html-keyboard-response,422,1864309,0.0-19.0-1.8,79413,List1A,white,woman,,,,null,,,,
null,is shouting at,,html-keyboard-response,423,1866311,0.0-19.0-2.8,79413,List1A,white,woman,,,,null,,,,
7082,,,survey-text,424,1873395,0.0-19.0-3.8,79413,List1A,white,woman,,,,,"{""Q0"":""ruth is shiuting at luke""}","<img src=""stim_listA/shout3.gif""</stim_listA>",is shouting at,
null,"<div style=""font-size:60px;"">+</div>",,html-keyboard-response,425,1873897,0.0-19.0-0.9,79413,List1A,white,woman,,,,null,,,,
null,"<img src=""stim_listA/argue2.gif""</stim_listA>",,html-keyboard-response,426,1875901,0.0-19.0-1.9,79413,List1A,white,woman,,,,null,,,,
null,are arguing with each other,,html-keyboard-response,427,1877903,0.0-19.0-2.9,79413,List1A,white,woman,,,,null,,,,
9019,,,survey-text,428,1886925,0.0-19.0-3.9,79413,List1A,white,woman,,,,,"{""Q0"":""kate and fred are arguing with each other""}","<img src=""stim_listA/argue2.gif""</stim_listA>",are arguing with each other,
null,"<div style=""font-size:60px;"">+</div>",,html-keyboard-response,429,1887428,0.0-19.0-0.10,79413,List1A,white,woman,,,,null,,,,
null,"<img src=""stim_listA/hug5.gif""</stim_listA>",,html-keyboard-response,430,1889430,0.0-19.0-1.10,79413,List1A,white,woman,,,,null,,,,
null,is hugging,,html-keyboard-response,431,1891432,0.0-19.0-2.10,79413,List1A,white,woman,,,,null,,,,
4797,,,survey-text,432,1896238,0.0-19.0-3.10,79413,List1A,white,woman,,,,,"{""Q0"":""luke is huggng fred""}","<img src=""stim_listA/hug5.gif""</stim_listA>",is hugging,
null,"<div style=""font-size:60px;"">+</div>",,html-keyboard-response,433,1896742,0.0-19.0-0.11,79413,List1A,white,woman,,,,null,,,,
null,"<img src=""stim_listA/meet1.gif""</stim_listA>",,html-keyboard-response,434,1898745,0.0-19.0-1.11,79413,List1A,white,woman,,,,null,,,,
null,is meeting,,html-keyboard-response,435,1900748,0.0-19.0-2.11,79413,List1A,white,woman,,,,null,,,,
5706,,,survey-text,436,1906457,0.0-19.0-3.11,79413,List1A,white,woman,,,,,"{""Q0"":""mike is meeting kate""}","<img src=""stim_listA/meet1.gif""</stim_listA>",is meeting,
null,"<div style=""font-size:60px;"">+</div>",,html-keyboard-response,437,1906960,0.0-19.0-0.12,79413,List1A,white,woman,,,,null,,,,
null,"<img src=""stim_listA/dance6.gif""</stim_listA>",,html-keyboard-response,438,1908963,0.0-19.0-1.12,79413,List1A,white,woman,,,,null,,,,
null,are dancing with each other,,html-keyboard-response,439,1910965,0.0-19.0-2.12,79413,List1A,white,woman,,,,null,,,,
9949,,,survey-text,440,1920917,0.0-19.0-3.12,79413,List1A,white,woman,,,,,"{""Q0"":""mike and luke are dancing with each other""}","<img src=""stim_listA/dance6.gif""</stim_listA>",are dancing with each other,
null,"<div style=""font-size:60px;"">+</div>",,html-keyboard-response,441,1921420,0.0-19.0-0.13,79413,List1A,white,woman,,,,null,,,,
null,"<img src=""stim_listA/talk7.gif""</stim_listA>",,html-keyboard-response,442,1923422,0.0-19.0-1.13,79413,List1A,white,woman,,,,null,,,,
null,is talking to,,html-keyboard-response,443,1925424,0.0-19.0-2.13,79413,List1A,white,woman,,,,null,,,,
7989,,,survey-text,444,1933416,0.0-19.0-3.13,79413,List1A,white,woman,,,,,"{""Q0"":""jane is taking to beth""}","<img src=""stim_listA/talk7.gif""</stim_listA>",is talking to,
null,"<div style=""font-size:60px;"">+</div>",,html-keyboard-response,445,1933919,0.0-19.0-0.14,79413,List1A,white,woman,,,,null,,,,
null,"<img src=""stim_listA/hug1.gif""</stim_listA>",,html-keyboard-response,446,1935923,0.0-19.0-1.14,79413,List1A,white,woman,,,,null,,,,
null,is hugging,,html-keyboard-response,447,1937926,0.0-19.0-2.14,79413,List1A,white,woman,,,,null,,,,
4265,,,survey-text,448,1942194,0.0-19.0-3.14,79413,List1A,white,woman,,,,,"{""Q0"":""fred is hugging beth""}","<img src=""stim_listA/hug1.gif""</stim_listA>",is hugging,
null,"<div style=""font-size:60px;"">+</div>",,html-keyboard-response,449,1942698,0.0-19.0-0.15,79413,List1A,white,woman,,,,null,,,,
null,"<img src=""stim_listA/dance2.gif""</stim_listA>",,html-keyboard-response,450,1944701,0.0-19.0-1.15,79413,List1A,white,woman,,,,null,,,,
null,are dancing with each other,,html-keyboard-response,451,1946704,0.0-19.0-2.15,79413,List1A,white,woman,,,,null,,,,
8855,,,survey-text,452,1955561,0.0-19.0-3.15,79413,List1A,white,woman,,,,,"{""Q0"":""beth and mike are dancing with each other""}","<img src=""stim_listA/dance2.gif""</stim_listA>",are dancing with each other,
null,"<div style=""font-size:60px;"">+</div>",,html-keyboard-response,453,1956064,0.0-19.0-0.16,79413,List1A,white,woman,,,,null,,,,
null,"<img src=""stim_listA/talk6.gif""</stim_listA>",,html-keyboard-response,454,1958066,0.0-19.0-1.16,79413,List1A,white,woman,,,,null,,,,
null,are talking to each other,,html-keyboard-response,455,1960068,0.0-19.0-2.16,79413,List1A,white,woman,,,,null,,,,
14476,,,survey-text,456,1974547,0.0-19.0-3.16,79413,List1A,white,woman,,,,,"{""Q0"":""luke and mike are talking to each other""}","<img src=""stim_listA/talk6.gif""</stim_listA>",are talking to each other,
null,"<div style=""font-size:60px;"">+</div>",,html-keyboard-response,457,1975050,0.0-19.0-0.17,79413,List1A,white,woman,,,,null,,,,
null,"<img src=""stim_listA/marry6.gif""</stim_listA>",,html-keyboard-response,458,1977052,0.0-19.0-1.17,79413,List1A,white,woman,,,,null,,,,
null,are marrying each other,,html-keyboard-response,459,1979055,0.0-19.0-2.17,79413,List1A,white,woman,,,,null,,,,
11177,,,survey-text,460,1990234,0.0-19.0-3.17,79413,List1A,white,woman,,,,,"{""Q0"":""fred and dave are marrying each other""}","<img src=""stim_listA/marry6.gif""</stim_listA>",are marrying each other,
null,"<div style=""font-size:60px;"">+</div>",,html-keyboard-response,461,1990737,0.0-19.0-0.18,79413,List1A,white,woman,,,,null,,,,
null,"<img src=""stim_listA/marry8.gif""</stim_listA>",,html-keyboard-response,462,1992739,0.0-19.0-1.18,79413,List1A,white,woman,,,,null,,,,
null,are marrying each other,,html-keyboard-response,463,1994742,0.0-19.0-2.18,79413,List1A,white,woman,,,,null,,,,
10597,,,survey-text,464,2005347,0.0-19.0-3.18,79413,List1A,white,woman,,,,,"{""Q0"":""jane and beth are marrying each other""}","<img src=""stim_listA/marry8.gif""</stim_listA>",are marrying each other,
null,"<div style=""font-size:60px;"">+</div>",,html-keyboard-response,465,2005850,0.0-19.0-0.19,79413,List1A,white,woman,,,,null,,,,
null,"<img src=""stim_listA/argue4.gif""</stim_listA>",,html-keyboard-response,466,2007852,0.0-19.0-1.19,79413,List1A,white,woman,,,,null,,,,
null,are arguing with each other,,html-keyboard-response,467,2009855,0.0-19.0-2.19,79413,List1A,white,woman,,,,null,,,,
10209,,,survey-text,468,2020068,0.0-19.0-3.19,79413,List1A,white,woman,,,,,"{""Q0"":""jane and luke are arguing with each other""}","<img src=""stim_listA/argue4.gif""</stim_listA>",are arguing with each other,
2387,<p>Thank you for completing that task.</p><p>The final part of this session is a short questionnaire.</p><p>Press Continue.</p>,0,html-button-response,469,2022458,0.0-20.0,79413,List1A,white,woman,,,,,,,,
26721,,,survey-text,470,2050184,0.0-21.0,79413,List1A,white,woman,,,,,"{""Q0"":""25"",""Q1"":""english"",""Q2"":""english"",""Q3"":""england"",""Q4"":""white british"",""Q5"":""female""}",,,demographics
56810,,,survey-likert,471,2107014,0.0-22.0,79413,List1A,white,woman,,,,,"{""Q0"":2,""Q1"":2,""Q2"":3,""Q3"":2,""Q4"":2,""Q5"":3,""Q6"":2,""Q7"":4,""Q8"":1,""Q9"":1,""Q10"":1,""Q11"":2,""Q12"":4,""Q13"":5}",,,likert_race
40724,,,survey-likert,472,2147756,0.0-23.0,79413,List1A,white,woman,,,,,"{""Q0"":5,""Q1"":4,""Q2"":4,""Q3"":5,""Q4"":5,""Q5"":5,""Q6"":5,""Q7"":3,""Q8"":5,""Q9"":"""",""Q10"":5,""Q11"":4,""Q12"":5,""Q13"":4}",,,likert_gender
26372,,,survey-text,473,2174133,0.0-24.0,79413,List1A,white,woman,,,,,"{""Q0"":""ccc""}",,,worker_id
2728,,,external-html,474,2177000,0.0-25.0,79413,List1A,white,woman,debrief.html,,,,,,,
