rt,stimulus,button_pressed,trial_type,trial_index,time_elapsed,internal_node_id,subject,list,ppt_race,ppt_gender,url,first_guess,correct,key_press,responses,image_type,phrase_type,test_part
2139,Welcome to the experiment. Press Continue to begin.,0,html-button-response,0,2145,0.0-0.0,79499,List1B,white,woman,,,,,,,,
13812,,,external-html,1,17014,0.0-1.0,79499,List1B,white,woman,consent.html,,,,,,,
26801,"<p>On the next page, you will see portraits of 8 people and their names.</p><p>Your first task is to take a few minutes to memorise the names of these people.</p><p>You will have to recall their names during the rest of the experiment, so it is</p><p>essential that you try to memorise these people and their names as best as you can.</p><br><p><strong>You will then be tested on your memory of these names and portraits.</strong></p><br><p>The experiment will start after you have completed this memory test.</p><br><p>Ready?</p>",0,html-button-response,2,43818,0.0-2.0,79499,List1B,white,woman,,,,,,,,
82905,"<img src='img/portrait_matrix_list1.JPG' style='width:900px;height:500px;''></img><p>If you have memorised all the portraits and names and are ready to start, press Continue.</p><p><strong>Please note: Your memory of these faces will be tested 4 times during this experiment.</strong></p>",0,html-button-response,3,127728,0.0-3.0-0.0,79499,List1B,white,woman,,,,,,,,
3663,"<img src=""portrait/WM2.jpg""style=""width:400px;height:400px;""></img>",7,html-button-response,4,132395,0.0-3.0-1.0,79499,List1B,white,woman,,TRUE,7,,,,,
null,CORRECT,,html-keyboard-response,5,133901,0.0-3.0-2.0-0.0,79499,List1B,white,woman,,,,null,,,,
7764,"<img src=""portrait/BW1.jpg""style=""width:400px;height:400px;""></img>",0,html-button-response,6,141669,0.0-3.0-4.0,79499,List1B,white,woman,,TRUE,0,,,,,
null,CORRECT,,html-keyboard-response,7,143176,0.0-3.0-5.0-0.0,79499,List1B,white,woman,,,,null,,,,
2969,"<img src=""portrait/WM1.jpg""style=""width:400px;height:400px;""></img>",6,html-button-response,8,146148,0.0-3.0-7.0,79499,List1B,white,woman,,TRUE,6,,,,,
null,CORRECT,,html-keyboard-response,9,147651,0.0-3.0-8.0-0.0,79499,List1B,white,woman,,,,null,,,,
7744,"<img src=""portrait/BM1.jpg""style=""width:400px;height:400px;""></img>",4,html-button-response,10,155398,0.0-3.0-10.0,79499,List1B,white,woman,,TRUE,4,,,,,
null,CORRECT,,html-keyboard-response,11,156901,0.0-3.0-11.0-0.0,79499,List1B,white,woman,,,,null,,,,
7500,"<img src=""portrait/BM2.jpg""style=""width:400px;height:400px;""></img>",5,html-button-response,12,164404,0.0-3.0-13.0,79499,List1B,white,woman,,TRUE,5,,,,,
null,CORRECT,,html-keyboard-response,13,165907,0.0-3.0-14.0-0.0,79499,List1B,white,woman,,,,null,,,,
4317,"<img src=""portrait/WW2.jpg""style=""width:400px;height:400px;""></img>",3,html-button-response,14,170228,0.0-3.0-16.0,79499,List1B,white,woman,,TRUE,3,,,,,
null,CORRECT,,html-keyboard-response,15,171732,0.0-3.0-17.0-0.0,79499,List1B,white,woman,,,,null,,,,
15998,"<img src=""portrait/BW2.jpg""style=""width:400px;height:400px;""></img>",2,html-button-response,16,187734,0.0-3.0-19.0,79499,List1B,white,woman,,TRUE,2,,,,,
null,CORRECT,,html-keyboard-response,17,189237,0.0-3.0-20.0-0.0,79499,List1B,white,woman,,,,null,,,,
4876,"<img src=""portrait/WW1.jpg""style=""width:400px;height:400px;""></img>",1,html-button-response,18,194116,0.0-3.0-22.0,79499,List1B,white,woman,,TRUE,1,,,,,
null,CORRECT,,html-keyboard-response,19,195619,0.0-3.0-23.0-0.0,79499,List1B,white,woman,,,,null,,,,
2250,<p>You got 8 out of 8 right first time. Press Continue.</p>,0,html-button-response,20,197873,0.0-3.0-25.0,79499,List1B,white,woman,,,,,,,,
32329,"<p>In this experiment, you will view photographs of the people from the memory game interacting.</p><p>By using the <strong>exact</strong> phrase given <i>after</i> the photograph appears and recalling the correct names of the people in the photographs, form a sentence describing the interaction. You do not need to capitalise names.</p><p>Type your answer in the space provided. Please complete every sentence before moving onto the next trial.</p><p>You will only have a few seconds to memorise each given photograph and phrase before you can respond, so try your best to focus.</p><p>An example is given below. Press 'Continue' when you are ready.</p><img src='img/speaking_example_v2.jpg' style='width:800px;height:460px;''></img>",0,html-button-response,21,231208,0.0-4.0,79499,List1B,white,woman,,,,,,,,
2735,"<p>Before the experiment starts, you will watch two example trials. Press 'Continue'.</p>",0,html-button-response,22,234946,0.0-5.0,79499,List1B,white,woman,,,,,,,,
null,<img src='img/speaking_WW.gif'></img>,,html-keyboard-response,23,237949,0.0-6.0,79499,List1B,white,woman,,,,null,,,,
null,<p>is speaking to</p>,,html-keyboard-response,24,239951,0.0-7.0,79499,List1B,white,woman,,,,null,,,,
3191,<p><b>Answer:</b> kate is speaking to beth</p>,0,html-button-response,25,243144,0.0-8.0,79499,List1B,white,woman,,,,,,,,
null,<img src='img/pointing_BM.gif'></img>,,html-keyboard-response,26,246148,0.0-9.0,79499,List1B,white,woman,,,,null,,,,
null,<p>are pointing at each other</p>,,html-keyboard-response,27,248147,0.0-10.0,79499,List1B,white,woman,,,,null,,,,
6432,<p><b>Answer:</b> luke and dave are pointing at each other</p>,0,html-button-response,28,254581,0.0-11.0,79499,List1B,white,woman,,,,,,,,
22373,"<p>Ready to start the experiment?</p><br><p><strong>Remember to describe the picture using a full sentence,</strong></p><p><strong>that combines the names of the people with the given phrase.</strong></p><p><strong>If you do not do this correctly you will not be paid.</strong></p><p><strong> You do not need to capitalise names or use punctuation.</strong></p><br><p>Press 'Continue' to begin.</p>",0,html-button-response,29,277959,0.0-12.0,79499,List1B,white,woman,,,,,,,,
null,"<div style=""font-size:60px;"">+</div>",,html-keyboard-response,30,279462,0.0-13.0-0.0,79499,List1B,white,woman,,,,null,,,,
null,"<img src=""stim_listB/kiss4.gif""</stim_listB>",,html-keyboard-response,31,281467,0.0-13.0-1.0,79499,List1B,white,woman,,,,null,,,,
null,are kissing each other,,html-keyboard-response,32,283469,0.0-13.0-2.0,79499,List1B,white,woman,,,,null,,,,
27110,,,survey-text,33,310582,0.0-13.0-3.0,79499,List1B,white,woman,,,,,"{""Q0"":""Jane and Luke are kissing eachother""}","<img src=""stim_listB/kiss4.gif""</stim_listB>",are kissing each other,
null,"<div style=""font-size:60px;"">+</div>",,html-keyboard-response,34,311087,0.0-13.0-0.1,79499,List1B,white,woman,,,,null,,,,
null,"<img src=""stim_listB/kiss2.gif""</stim_listB>",,html-keyboard-response,35,313089,0.0-13.0-1.1,79499,List1B,white,woman,,,,null,,,,
null,are kissing each other,,html-keyboard-response,36,315091,0.0-13.0-2.1,79499,List1B,white,woman,,,,null,,,,
11659,,,survey-text,37,326753,0.0-13.0-3.1,79499,List1B,white,woman,,,,,"{""Q0"":""beth and mike are kissing eachother""}","<img src=""stim_listB/kiss2.gif""</stim_listB>",are kissing each other,
null,"<div style=""font-size:60px;"">+</div>",,html-keyboard-response,38,327255,0.0-13.0-0.2,79499,List1B,white,woman,,,,null,,,,
null,"<img src=""stim_listB/talk5.gif""</stim_listB>",,html-keyboard-response,39,329258,0.0-13.0-1.2,79499,List1B,white,woman,,,,null,,,,
null,is talking to,,html-keyboard-response,40,331260,0.0-13.0-2.2,79499,List1B,white,woman,,,,null,,,,
37061,,,survey-text,41,368323,0.0-13.0-3.2,79499,List1B,white,woman,,,,,"{""Q0"":""fred is talking to dave""}","<img src=""stim_listB/talk5.gif""</stim_listB>",is talking to,
null,"<div style=""font-size:60px;"">+</div>",,html-keyboard-response,42,368826,0.0-13.0-0.3,79499,List1B,white,woman,,,,null,,,,
null,"<img src=""stim_listB/talk8.gif""</stim_listB>",,html-keyboard-response,43,370829,0.0-13.0-1.3,79499,List1B,white,woman,,,,null,,,,
null,are talking to each other,,html-keyboard-response,44,372831,0.0-13.0-2.3,79499,List1B,white,woman,,,,null,,,,
38582,,,survey-text,45,411415,0.0-13.0-3.3,79499,List1B,white,woman,,,,,"{""Q0"":""beth and ruth are talking to eachoter""}","<img src=""stim_listB/talk8.gif""</stim_listB>",are talking to each other,
null,"<div style=""font-size:60px;"">+</div>",,html-keyboard-response,46,411917,0.0-13.0-0.4,79499,List1B,white,woman,,,,null,,,,
null,"<img src=""stim_listB/talk4.gif""</stim_listB>",,html-keyboard-response,47,413920,0.0-13.0-1.4,79499,List1B,white,woman,,,,null,,,,
null,are talking to each other,,html-keyboard-response,48,415922,0.0-13.0-2.4,79499,List1B,white,woman,,,,null,,,,
20211,,,survey-text,49,436136,0.0-13.0-3.4,79499,List1B,white,woman,,,,,"{""Q0"":""ruth and dave are talking to eachother""}","<img src=""stim_listB/talk4.gif""</stim_listB>",are talking to each other,
null,"<div style=""font-size:60px;"">+</div>",,html-keyboard-response,50,436638,0.0-13.0-0.5,79499,List1B,white,woman,,,,null,,,,
null,"<img src=""stim_listB/meet8.gif""</stim_listB>",,html-keyboard-response,51,438642,0.0-13.0-1.5,79499,List1B,white,woman,,,,null,,,,
null,are meeting each other,,html-keyboard-response,52,440643,0.0-13.0-2.5,79499,List1B,white,woman,,,,null,,,,
11057,,,survey-text,53,451703,0.0-13.0-3.5,79499,List1B,white,woman,,,,,"{""Q0"":""ruth and jane are meeting eachother""}","<img src=""stim_listB/meet8.gif""</stim_listB>",are meeting each other,
null,"<div style=""font-size:60px;"">+</div>",,html-keyboard-response,54,452205,0.0-13.0-0.6,79499,List1B,white,woman,,,,null,,,,
null,"<img src=""stim_listB/shout7.gif""</stim_listB>",,html-keyboard-response,55,454209,0.0-13.0-1.6,79499,List1B,white,woman,,,,null,,,,
null,is shouting at,,html-keyboard-response,56,456211,0.0-13.0-2.6,79499,List1B,white,woman,,,,null,,,,
16316,,,survey-text,57,472529,0.0-13.0-3.6,79499,List1B,white,woman,,,,,"{""Q0"":""Ruth and Jane are yelling at eachother""}","<img src=""stim_listB/shout7.gif""</stim_listB>",is shouting at,
null,"<div style=""font-size:60px;"">+</div>",,html-keyboard-response,58,473031,0.0-13.0-0.7,79499,List1B,white,woman,,,,null,,,,
null,"<img src=""stim_listB/marry1.gif""</stim_listB>",,html-keyboard-response,59,475035,0.0-13.0-1.7,79499,List1B,white,woman,,,,null,,,,
null,is marrying,,html-keyboard-response,60,477037,0.0-13.0-2.7,79499,List1B,white,woman,,,,null,,,,
14031,,,survey-text,61,491071,0.0-13.0-3.7,79499,List1B,white,woman,,,,,"{""Q0"":""jane is marrying mike""}","<img src=""stim_listB/marry1.gif""</stim_listB>",is marrying,
null,"<div style=""font-size:60px;"">+</div>",,html-keyboard-response,62,491573,0.0-13.0-0.8,79499,List1B,white,woman,,,,null,,,,
null,"<img src=""stim_listB/hug6.gif""</stim_listB>",,html-keyboard-response,63,493578,0.0-13.0-1.8,79499,List1B,white,woman,,,,null,,,,
null,are hugging each other,,html-keyboard-response,64,495582,0.0-13.0-2.8,79499,List1B,white,woman,,,,null,,,,
11873,,,survey-text,65,507457,0.0-13.0-3.8,79499,List1B,white,woman,,,,,"{""Q0"":""dave and mike are hugging eachother""}","<img src=""stim_listB/hug6.gif""</stim_listB>",are hugging each other,
null,"<div style=""font-size:60px;"">+</div>",,html-keyboard-response,66,507965,0.0-13.0-0.9,79499,List1B,white,woman,,,,null,,,,
null,"<img src=""stim_listB/marry3.gif""</stim_listB>",,html-keyboard-response,67,509970,0.0-13.0-1.9,79499,List1B,white,woman,,,,null,,,,
null,is marrying,,html-keyboard-response,68,511972,0.0-13.0-2.9,79499,List1B,white,woman,,,,null,,,,
12236,,,survey-text,69,524210,0.0-13.0-3.9,79499,List1B,white,woman,,,,,"{""Q0"":""dave is marrying beth""}","<img src=""stim_listB/marry3.gif""</stim_listB>",is marrying,
null,"<div style=""font-size:60px;"">+</div>",,html-keyboard-response,70,524713,0.0-13.0-0.10,79499,List1B,white,woman,,,,null,,,,
null,"<img src=""stim_listB/marry6.gif""</stim_listB>",,html-keyboard-response,71,526716,0.0-13.0-1.10,79499,List1B,white,woman,,,,null,,,,
null,are marrying each other,,html-keyboard-response,72,528718,0.0-13.0-2.10,79499,List1B,white,woman,,,,null,,,,
13979,,,survey-text,73,542699,0.0-13.0-3.10,79499,List1B,white,woman,,,,,"{""Q0"":""fred and dave are marrying eachother""}","<img src=""stim_listB/marry6.gif""</stim_listB>",are marrying each other,
null,"<div style=""font-size:60px;"">+</div>",,html-keyboard-response,74,543201,0.0-13.0-0.11,79499,List1B,white,woman,,,,null,,,,
null,"<img src=""stim_listB/talk1.gif""</stim_listB>",,html-keyboard-response,75,545204,0.0-13.0-1.11,79499,List1B,white,woman,,,,null,,,,
null,is talking to,,html-keyboard-response,76,547206,0.0-13.0-2.11,79499,List1B,white,woman,,,,null,,,,
9584,,,survey-text,77,556792,0.0-13.0-3.11,79499,List1B,white,woman,,,,,"{""Q0"":""beth is talking to fred""}","<img src=""stim_listB/talk1.gif""</stim_listB>",is talking to,
null,"<div style=""font-size:60px;"">+</div>",,html-keyboard-response,78,557295,0.0-13.0-0.12,79499,List1B,white,woman,,,,null,,,,
null,"<img src=""stim_listB/meet5.gif""</stim_listB>",,html-keyboard-response,79,559299,0.0-13.0-1.12,79499,List1B,white,woman,,,,null,,,,
null,is meeting,,html-keyboard-response,80,561301,0.0-13.0-2.12,79499,List1B,white,woman,,,,null,,,,
6303,,,survey-text,81,567605,0.0-13.0-3.12,79499,List1B,white,woman,,,,,"{""Q0"":""mike is meeting dave""}","<img src=""stim_listB/meet5.gif""</stim_listB>",is meeting,
null,"<div style=""font-size:60px;"">+</div>",,html-keyboard-response,82,568107,0.0-13.0-0.13,79499,List1B,white,woman,,,,null,,,,
null,"<img src=""stim_listB/touch7.gif""</stim_listB>",,html-keyboard-response,83,570110,0.0-13.0-1.13,79499,List1B,white,woman,,,,null,,,,
null,is touching,,html-keyboard-response,84,572112,0.0-13.0-2.13,79499,List1B,white,woman,,,,null,,,,
36168,,,survey-text,85,608282,0.0-13.0-3.13,79499,List1B,white,woman,,,,,"{""Q0"":""beth is touching jane""}","<img src=""stim_listB/touch7.gif""</stim_listB>",is touching,
null,"<div style=""font-size:60px;"">+</div>",,html-keyboard-response,86,608785,0.0-13.0-0.14,79499,List1B,white,woman,,,,null,,,,
null,"<img src=""stim_listB/hug8.gif""</stim_listB>",,html-keyboard-response,87,610786,0.0-13.0-1.14,79499,List1B,white,woman,,,,null,,,,
null,are hugging each other,,html-keyboard-response,88,612787,0.0-13.0-2.14,79499,List1B,white,woman,,,,null,,,,
9871,,,survey-text,89,622660,0.0-13.0-3.14,79499,List1B,white,woman,,,,,"{""Q0"":""jane and beth are hugging eachother""}","<img src=""stim_listB/hug8.gif""</stim_listB>",are hugging each other,
null,"<div style=""font-size:60px;"">+</div>",,html-keyboard-response,90,623163,0.0-13.0-0.15,79499,List1B,white,woman,,,,null,,,,
null,"<img src=""stim_listB/fight2.gif""</stim_listB>",,html-keyboard-response,91,625166,0.0-13.0-1.15,79499,List1B,white,woman,,,,null,,,,
null,are fighting each other,,html-keyboard-response,92,627168,0.0-13.0-2.15,79499,List1B,white,woman,,,,null,,,,
32245,,,survey-text,93,659416,0.0-13.0-3.15,79499,List1B,white,woman,,,,,"{""Q0"":""mike and sally are fighting eachother""}","<img src=""stim_listB/fight2.gif""</stim_listB>",are fighting each other,
null,"<div style=""font-size:60px;"">+</div>",,html-keyboard-response,94,659919,0.0-13.0-0.16,79499,List1B,white,woman,,,,null,,,,
null,"<img src=""stim_listB/argue7.gif""</stim_listB>",,html-keyboard-response,95,661922,0.0-13.0-1.16,79499,List1B,white,woman,,,,null,,,,
null,is arguing with,,html-keyboard-response,96,663924,0.0-13.0-2.16,79499,List1B,white,woman,,,,null,,,,
14653,,,survey-text,97,678580,0.0-13.0-3.16,79499,List1B,white,woman,,,,,"{""Q0"":""beth is arguing with jane""}","<img src=""stim_listB/argue7.gif""</stim_listB>",is arguing with,
null,"<div style=""font-size:60px;"">+</div>",,html-keyboard-response,98,679083,0.0-13.0-0.17,79499,List1B,white,woman,,,,null,,,,
null,"<img src=""stim_listB/dance6.gif""</stim_listB>",,html-keyboard-response,99,681086,0.0-13.0-1.17,79499,List1B,white,woman,,,,null,,,,
null,are dancing with each other,,html-keyboard-response,100,683088,0.0-13.0-2.17,79499,List1B,white,woman,,,,null,,,,
12017,,,survey-text,101,695108,0.0-13.0-3.17,79499,List1B,white,woman,,,,,"{""Q0"":""mike and luke are dancing with eachother""}","<img src=""stim_listB/dance6.gif""</stim_listB>",are dancing with each other,
null,"<div style=""font-size:60px;"">+</div>",,html-keyboard-response,102,695610,0.0-13.0-0.18,79499,List1B,white,woman,,,,null,,,,
null,"<img src=""stim_listB/touch6.gif""</stim_listB>",,html-keyboard-response,103,697614,0.0-13.0-1.18,79499,List1B,white,woman,,,,null,,,,
null,are touching each other,,html-keyboard-response,104,699616,0.0-13.0-2.18,79499,List1B,white,woman,,,,null,,,,
11876,,,survey-text,105,711494,0.0-13.0-3.18,79499,List1B,white,woman,,,,,"{""Q0"":""fred and dave are touching eachother""}","<img src=""stim_listB/touch6.gif""</stim_listB>",are touching each other,
null,"<div style=""font-size:60px;"">+</div>",,html-keyboard-response,106,711997,0.0-13.0-0.19,79499,List1B,white,woman,,,,null,,,,
null,"<img src=""stim_listB/meet2.gif""</stim_listB>",,html-keyboard-response,107,714001,0.0-13.0-1.19,79499,List1B,white,woman,,,,null,,,,
null,are meeting each other,,html-keyboard-response,108,716002,0.0-13.0-2.19,79499,List1B,white,woman,,,,null,,,,
11858,,,survey-text,109,727862,0.0-13.0-3.19,79499,List1B,white,woman,,,,,"{""Q0"":""fred and beth are touching eachother""}","<img src=""stim_listB/meet2.gif""</stim_listB>",are meeting each other,
52214,"<img src='img/portrait_matrix_list1.JPG' style='width:900px;height:500px;''></img><p>If you have memorised all the portraits and names and are ready to start, press Continue.</p><p><strong>Please note: Your memory of these faces will be tested 4 times during this experiment.</strong></p>",0,html-button-response,110,780078,0.0-14.0-0.0,79499,List1B,white,woman,,,,,,,,
3892,"<img src=""portrait/BW2.jpg""style=""width:400px;height:400px;""></img>",2,html-button-response,111,784978,0.0-14.0-1.0,79499,List1B,white,woman,,TRUE,2,,,,,
null,CORRECT,,html-keyboard-response,112,786481,0.0-14.0-2.0-0.0,79499,List1B,white,woman,,,,null,,,,
9953,"<img src=""portrait/BM1.jpg""style=""width:400px;height:400px;""></img>",4,html-button-response,113,796438,0.0-14.0-4.0,79499,List1B,white,woman,,TRUE,4,,,,,
null,CORRECT,,html-keyboard-response,114,797941,0.0-14.0-5.0-0.0,79499,List1B,white,woman,,,,null,,,,
8195,"<img src=""portrait/BW1.jpg""style=""width:400px;height:400px;""></img>",0,html-button-response,115,806138,0.0-14.0-7.0,79499,List1B,white,woman,,TRUE,0,,,,,
null,CORRECT,,html-keyboard-response,116,807641,0.0-14.0-8.0-0.0,79499,List1B,white,woman,,,,null,,,,
3435,"<img src=""portrait/WW2.jpg""style=""width:400px;height:400px;""></img>",3,html-button-response,117,811080,0.0-14.0-10.0,79499,List1B,white,woman,,TRUE,3,,,,,
null,CORRECT,,html-keyboard-response,118,812584,0.0-14.0-11.0-0.0,79499,List1B,white,woman,,,,null,,,,
2981,"<img src=""portrait/WM1.jpg""style=""width:400px;height:400px;""></img>",6,html-button-response,119,815567,0.0-14.0-13.0,79499,List1B,white,woman,,TRUE,6,,,,,
null,CORRECT,,html-keyboard-response,120,817070,0.0-14.0-14.0-0.0,79499,List1B,white,woman,,,,null,,,,
3412,"<img src=""portrait/BM2.jpg""style=""width:400px;height:400px;""></img>",5,html-button-response,121,820485,0.0-14.0-16.0,79499,List1B,white,woman,,TRUE,5,,,,,
null,CORRECT,,html-keyboard-response,122,821989,0.0-14.0-17.0-0.0,79499,List1B,white,woman,,,,null,,,,
1894,"<img src=""portrait/WM2.jpg""style=""width:400px;height:400px;""></img>",7,html-button-response,123,823886,0.0-14.0-19.0,79499,List1B,white,woman,,TRUE,7,,,,,
null,CORRECT,,html-keyboard-response,124,825389,0.0-14.0-20.0-0.0,79499,List1B,white,woman,,,,null,,,,
5070,"<img src=""portrait/WW1.jpg""style=""width:400px;height:400px;""></img>",1,html-button-response,125,830463,0.0-14.0-22.0,79499,List1B,white,woman,,TRUE,1,,,,,
null,CORRECT,,html-keyboard-response,126,831967,0.0-14.0-23.0-0.0,79499,List1B,white,woman,,,,null,,,,
2306,<p>You got 8 out of 8 right first time. Press Continue.</p>,0,html-button-response,127,834276,0.0-14.0-25.0,79499,List1B,white,woman,,,,,,,,
null,"<div style=""font-size:60px;"">+</div>",,html-keyboard-response,128,835779,0.0-15.0-0.0,79499,List1B,white,woman,,,,null,,,,
null,"<img src=""stim_listB/hug5.gif""</stim_listB>",,html-keyboard-response,129,837784,0.0-15.0-1.0,79499,List1B,white,woman,,,,null,,,,
null,is hugging,,html-keyboard-response,130,839786,0.0-15.0-2.0,79499,List1B,white,woman,,,,null,,,,
13722,,,survey-text,131,853510,0.0-15.0-3.0,79499,List1B,white,woman,,,,,"{""Q0"":""fred is hugging luke""}","<img src=""stim_listB/hug5.gif""</stim_listB>",is hugging,
null,"<div style=""font-size:60px;"">+</div>",,html-keyboard-response,132,854013,0.0-15.0-0.1,79499,List1B,white,woman,,,,null,,,,
null,"<img src=""stim_listB/meet3.gif""</stim_listB>",,html-keyboard-response,133,856017,0.0-15.0-1.1,79499,List1B,white,woman,,,,null,,,,
null,is meeting,,html-keyboard-response,134,858019,0.0-15.0-2.1,79499,List1B,white,woman,,,,null,,,,
7194,,,survey-text,135,865217,0.0-15.0-3.1,79499,List1B,white,woman,,,,,"{""Q0"":""jane is meeting dave""}","<img src=""stim_listB/meet3.gif""</stim_listB>",is meeting,
null,"<div style=""font-size:60px;"">+</div>",,html-keyboard-response,136,865719,0.0-15.0-0.2,79499,List1B,white,woman,,,,null,,,,
null,"<img src=""stim_listB/meet4.gif""</stim_listB>",,html-keyboard-response,137,867722,0.0-15.0-1.2,79499,List1B,white,woman,,,,null,,,,
null,are meeting each other,,html-keyboard-response,138,869724,0.0-15.0-2.2,79499,List1B,white,woman,,,,null,,,,
24687,,,survey-text,139,894413,0.0-15.0-3.2,79499,List1B,white,woman,,,,,"{""Q0"":""luke and ruth are meeting eachother""}","<img src=""stim_listB/meet4.gif""</stim_listB>",are meeting each other,
null,"<div style=""font-size:60px;"">+</div>",,html-keyboard-response,140,894915,0.0-15.0-0.3,79499,List1B,white,woman,,,,null,,,,
null,"<img src=""stim_listB/shout8.gif""</stim_listB>",,html-keyboard-response,141,896920,0.0-15.0-1.3,79499,List1B,white,woman,,,,null,,,,
null,are shouting at each other,,html-keyboard-response,142,898922,0.0-15.0-2.3,79499,List1B,white,woman,,,,null,,,,
8764,,,survey-text,143,907688,0.0-15.0-3.3,79499,List1B,white,woman,,,,,"{""Q0"":""jane and kate are shouting at eachother""}","<img src=""stim_listB/shout8.gif""</stim_listB>",are shouting at each other,
null,"<div style=""font-size:60px;"">+</div>",,html-keyboard-response,144,908190,0.0-15.0-0.4,79499,List1B,white,woman,,,,null,,,,
null,"<img src=""stim_listB/hug4.gif""</stim_listB>",,html-keyboard-response,145,910192,0.0-15.0-1.4,79499,List1B,white,woman,,,,null,,,,
null,are hugging each other,,html-keyboard-response,146,912194,0.0-15.0-2.4,79499,List1B,white,woman,,,,null,,,,
9702,,,survey-text,147,921899,0.0-15.0-3.4,79499,List1B,white,woman,,,,,"{""Q0"":""jane and dave are hugging eachother""}","<img src=""stim_listB/hug4.gif""</stim_listB>",are hugging each other,
null,"<div style=""font-size:60px;"">+</div>",,html-keyboard-response,148,922402,0.0-15.0-0.5,79499,List1B,white,woman,,,,null,,,,
null,"<img src=""stim_listB/fight8.gif""</stim_listB>",,html-keyboard-response,149,924407,0.0-15.0-1.5,79499,List1B,white,woman,,,,null,,,,
null,are fighting each other,,html-keyboard-response,150,926409,0.0-15.0-2.5,79499,List1B,white,woman,,,,null,,,,
32622,,,survey-text,151,959033,0.0-15.0-3.5,79499,List1B,white,woman,,,,,"{""Q0"":""ruth and beth are fighting eachother""}","<img src=""stim_listB/fight8.gif""</stim_listB>",are fighting each other,
null,"<div style=""font-size:60px;"">+</div>",,html-keyboard-response,152,959534,0.0-15.0-0.6,79499,List1B,white,woman,,,,null,,,,
null,"<img src=""stim_listB/touch2.gif""</stim_listB>",,html-keyboard-response,153,961535,0.0-15.0-1.6,79499,List1B,white,woman,,,,null,,,,
null,are touching each other,,html-keyboard-response,154,963537,0.0-15.0-2.6,79499,List1B,white,woman,,,,null,,,,
12230,,,survey-text,155,975771,0.0-15.0-3.6,79499,List1B,white,woman,,,,,"{""Q0"":""beth and fred are touching eachother""}","<img src=""stim_listB/touch2.gif""</stim_listB>",are touching each other,
null,"<div style=""font-size:60px;"">+</div>",,html-keyboard-response,156,976273,0.0-15.0-0.7,79499,List1B,white,woman,,,,null,,,,
null,"<img src=""stim_listB/meet1.gif""</stim_listB>",,html-keyboard-response,157,978275,0.0-15.0-1.7,79499,List1B,white,woman,,,,null,,,,
null,is meeting,,html-keyboard-response,158,980277,0.0-15.0-2.7,79499,List1B,white,woman,,,,null,,,,
5658,,,survey-text,159,985937,0.0-15.0-3.7,79499,List1B,white,woman,,,,,"{""Q0"":""kate is meeting mike""}","<img src=""stim_listB/meet1.gif""</stim_listB>",is meeting,
null,"<div style=""font-size:60px;"">+</div>",,html-keyboard-response,160,986440,0.0-15.0-0.8,79499,List1B,white,woman,,,,null,,,,
null,"<img src=""stim_listB/kiss6.gif""</stim_listB>",,html-keyboard-response,161,988443,0.0-15.0-1.8,79499,List1B,white,woman,,,,null,,,,
null,are kissing each other,,html-keyboard-response,162,990448,0.0-15.0-2.8,79499,List1B,white,woman,,,,null,,,,
9400,,,survey-text,163,999851,0.0-15.0-3.8,79499,List1B,white,woman,,,,,"{""Q0"":""dave and mike are kissing eachother""}","<img src=""stim_listB/kiss6.gif""</stim_listB>",are kissing each other,
null,"<div style=""font-size:60px;"">+</div>",,html-keyboard-response,164,1000353,0.0-15.0-0.9,79499,List1B,white,woman,,,,null,,,,
null,"<img src=""stim_listB/kiss7.gif""</stim_listB>",,html-keyboard-response,165,1002356,0.0-15.0-1.9,79499,List1B,white,woman,,,,null,,,,
null,is kissing,,html-keyboard-response,166,1004358,0.0-15.0-2.9,79499,List1B,white,woman,,,,null,,,,
14398,,,survey-text,167,1018758,0.0-15.0-3.9,79499,List1B,white,woman,,,,,"{""Q0"":""ruth and beth are kissing eachother""}","<img src=""stim_listB/kiss7.gif""</stim_listB>",is kissing,
null,"<div style=""font-size:60px;"">+</div>",,html-keyboard-response,168,1019260,0.0-15.0-0.10,79499,List1B,white,woman,,,,null,,,,
null,"<img src=""stim_listB/kiss5.gif""</stim_listB>",,html-keyboard-response,169,1021261,0.0-15.0-1.10,79499,List1B,white,woman,,,,null,,,,
null,is kissing,,html-keyboard-response,170,1023262,0.0-15.0-2.10,79499,List1B,white,woman,,,,null,,,,
5532,,,survey-text,171,1028798,0.0-15.0-3.10,79499,List1B,white,woman,,,,,"{""Q0"":""fred is kissing luke""}","<img src=""stim_listB/kiss5.gif""</stim_listB>",is kissing,
null,"<div style=""font-size:60px;"">+</div>",,html-keyboard-response,172,1029300,0.0-15.0-0.11,79499,List1B,white,woman,,,,null,,,,
null,"<img src=""stim_listB/hug7.gif""</stim_listB>",,html-keyboard-response,173,1031302,0.0-15.0-1.11,79499,List1B,white,woman,,,,null,,,,
null,is hugging,,html-keyboard-response,174,1033305,0.0-15.0-2.11,79499,List1B,white,woman,,,,null,,,,
5409,,,survey-text,175,1038716,0.0-15.0-3.11,79499,List1B,white,woman,,,,,"{""Q0"":""ruth is hugging beth""}","<img src=""stim_listB/hug7.gif""</stim_listB>",is hugging,
null,"<div style=""font-size:60px;"">+</div>",,html-keyboard-response,176,1039218,0.0-15.0-0.12,79499,List1B,white,woman,,,,null,,,,
null,"<img src=""stim_listB/touch5.gif""</stim_listB>",,html-keyboard-response,177,1041221,0.0-15.0-1.12,79499,List1B,white,woman,,,,null,,,,
null,is touching,,html-keyboard-response,178,1043223,0.0-15.0-2.12,79499,List1B,white,woman,,,,null,,,,
5137,,,survey-text,179,1048362,0.0-15.0-3.12,79499,List1B,white,woman,,,,,"{""Q0"":""dave is touching mike""}","<img src=""stim_listB/touch5.gif""</stim_listB>",is touching,
null,"<div style=""font-size:60px;"">+</div>",,html-keyboard-response,180,1048865,0.0-15.0-0.13,79499,List1B,white,woman,,,,null,,,,
null,"<img src=""stim_listB/shout6.gif""</stim_listB>",,html-keyboard-response,181,1050868,0.0-15.0-1.13,79499,List1B,white,woman,,,,null,,,,
null,are shouting at each other,,html-keyboard-response,182,1052870,0.0-15.0-2.13,79499,List1B,white,woman,,,,null,,,,
8349,,,survey-text,183,1061222,0.0-15.0-3.13,79499,List1B,white,woman,,,,,"{""Q0"":""dave and mike are shouting at eachother""}","<img src=""stim_listB/shout6.gif""</stim_listB>",are shouting at each other,
null,"<div style=""font-size:60px;"">+</div>",,html-keyboard-response,184,1061724,0.0-15.0-0.14,79499,List1B,white,woman,,,,null,,,,
null,"<img src=""stim_listB/fight7.gif""</stim_listB>",,html-keyboard-response,185,1063731,0.0-15.0-1.14,79499,List1B,white,woman,,,,null,,,,
null,is fighting,,html-keyboard-response,186,1065733,0.0-15.0-2.14,79499,List1B,white,woman,,,,null,,,,
7475,,,survey-text,187,1073210,0.0-15.0-3.14,79499,List1B,white,woman,,,,,"{""Q0"":""jane is fighting kate""}","<img src=""stim_listB/fight7.gif""</stim_listB>",is fighting,
null,"<div style=""font-size:60px;"">+</div>",,html-keyboard-response,188,1073713,0.0-15.0-0.15,79499,List1B,white,woman,,,,null,,,,
null,"<img src=""stim_listB/argue3.gif""</stim_listB>",,html-keyboard-response,189,1075716,0.0-15.0-1.15,79499,List1B,white,woman,,,,null,,,,
null,is arguing with,,html-keyboard-response,190,1077718,0.0-15.0-2.15,79499,List1B,white,woman,,,,null,,,,
9755,,,survey-text,191,1087475,0.0-15.0-3.15,79499,List1B,white,woman,,,,,"{""Q0"":""ruth is arguing with dave""}","<img src=""stim_listB/argue3.gif""</stim_listB>",is arguing with,
null,"<div style=""font-size:60px;"">+</div>",,html-keyboard-response,192,1087977,0.0-15.0-0.16,79499,List1B,white,woman,,,,null,,,,
null,"<img src=""stim_listB/kiss8.gif""</stim_listB>",,html-keyboard-response,193,1089982,0.0-15.0-1.16,79499,List1B,white,woman,,,,null,,,,
null,are kissing each other,,html-keyboard-response,194,1091984,0.0-15.0-2.16,79499,List1B,white,woman,,,,null,,,,
8593,,,survey-text,195,1100579,0.0-15.0-3.16,79499,List1B,white,woman,,,,,"{""Q0"":""jane and kate are kissing eachother""}","<img src=""stim_listB/kiss8.gif""</stim_listB>",are kissing each other,
null,"<div style=""font-size:60px;"">+</div>",,html-keyboard-response,196,1101082,0.0-15.0-0.17,79499,List1B,white,woman,,,,null,,,,
null,"<img src=""stim_listB/fight5.gif""</stim_listB>",,html-keyboard-response,197,1103086,0.0-15.0-1.17,79499,List1B,white,woman,,,,null,,,,
null,is fighting,,html-keyboard-response,198,1105087,0.0-15.0-2.17,79499,List1B,white,woman,,,,null,,,,
8589,,,survey-text,199,1113678,0.0-15.0-3.17,79499,List1B,white,woman,,,,,"{""Q0"":""mike is fighting dave""}","<img src=""stim_listB/fight5.gif""</stim_listB>",is fighting,
null,"<div style=""font-size:60px;"">+</div>",,html-keyboard-response,200,1114181,0.0-15.0-0.18,79499,List1B,white,woman,,,,null,,,,
null,"<img src=""stim_listB/dance7.gif""</stim_listB>",,html-keyboard-response,201,1116184,0.0-15.0-1.18,79499,List1B,white,woman,,,,null,,,,
null,is dancing with,,html-keyboard-response,202,1118185,0.0-15.0-2.18,79499,List1B,white,woman,,,,null,,,,
5842,,,survey-text,203,1124030,0.0-15.0-3.18,79499,List1B,white,woman,,,,,"{""Q0"":""jane is dancing with beth""}","<img src=""stim_listB/dance7.gif""</stim_listB>",is dancing with,
null,"<div style=""font-size:60px;"">+</div>",,html-keyboard-response,204,1124532,0.0-15.0-0.19,79499,List1B,white,woman,,,,null,,,,
null,"<img src=""stim_listB/dance4.gif""</stim_listB>",,html-keyboard-response,205,1126536,0.0-15.0-1.19,79499,List1B,white,woman,,,,null,,,,
null,are dancing with each other,,html-keyboard-response,206,1128538,0.0-15.0-2.19,79499,List1B,white,woman,,,,null,,,,
12237,,,survey-text,207,1140778,0.0-15.0-3.19,79499,List1B,white,woman,,,,,"{""Q0"":""ruth and dave are dancing with eachother""}","<img src=""stim_listB/dance4.gif""</stim_listB>",are dancing with each other,
20606,"<img src='img/portrait_matrix_list1.JPG' style='width:900px;height:500px;''></img><p>If you have memorised all the portraits and names and are ready to start, press Continue.</p><p><strong>Please note: Your memory of these faces will be tested 4 times during this experiment.</strong></p>",0,html-button-response,208,1161387,0.0-16.0-0.0,79499,List1B,white,woman,,,,,,,,
2852,"<img src=""portrait/BW2.jpg""style=""width:400px;height:400px;""></img>",2,html-button-response,209,1165242,0.0-16.0-1.0,79499,List1B,white,woman,,TRUE,2,,,,,
null,CORRECT,,html-keyboard-response,210,1166746,0.0-16.0-2.0-0.0,79499,List1B,white,woman,,,,null,,,,
2465,"<img src=""portrait/WM2.jpg""style=""width:400px;height:400px;""></img>",7,html-button-response,211,1169215,0.0-16.0-4.0,79499,List1B,white,woman,,TRUE,7,,,,,
null,CORRECT,,html-keyboard-response,212,1170719,0.0-16.0-5.0-0.0,79499,List1B,white,woman,,,,null,,,,
2651,"<img src=""portrait/BW1.jpg""style=""width:400px;height:400px;""></img>",0,html-button-response,213,1173373,0.0-16.0-7.0,79499,List1B,white,woman,,TRUE,0,,,,,
null,CORRECT,,html-keyboard-response,214,1174876,0.0-16.0-8.0-0.0,79499,List1B,white,woman,,,,null,,,,
1736,"<img src=""portrait/WW2.jpg""style=""width:400px;height:400px;""></img>",3,html-button-response,215,1176616,0.0-16.0-10.0,79499,List1B,white,woman,,TRUE,3,,,,,
null,CORRECT,,html-keyboard-response,216,1178120,0.0-16.0-11.0-0.0,79499,List1B,white,woman,,,,null,,,,
2336,"<img src=""portrait/WW1.jpg""style=""width:400px;height:400px;""></img>",1,html-button-response,217,1180462,0.0-16.0-13.0,79499,List1B,white,woman,,TRUE,1,,,,,
null,CORRECT,,html-keyboard-response,218,1181965,0.0-16.0-14.0-0.0,79499,List1B,white,woman,,,,null,,,,
2963,"<img src=""portrait/BM1.jpg""style=""width:400px;height:400px;""></img>",4,html-button-response,219,1184932,0.0-16.0-16.0,79499,List1B,white,woman,,TRUE,4,,,,,
null,CORRECT,,html-keyboard-response,220,1186435,0.0-16.0-17.0-0.0,79499,List1B,white,woman,,,,null,,,,
2789,"<img src=""portrait/BM2.jpg""style=""width:400px;height:400px;""></img>",5,html-button-response,221,1189229,0.0-16.0-19.0,79499,List1B,white,woman,,TRUE,5,,,,,
null,CORRECT,,html-keyboard-response,222,1190732,0.0-16.0-20.0-0.0,79499,List1B,white,woman,,,,null,,,,
2349,"<img src=""portrait/WM1.jpg""style=""width:400px;height:400px;""></img>",6,html-button-response,223,1193083,0.0-16.0-22.0,79499,List1B,white,woman,,TRUE,6,,,,,
null,CORRECT,,html-keyboard-response,224,1194586,0.0-16.0-23.0-0.0,79499,List1B,white,woman,,,,null,,,,
2081,<p>You got 8 out of 8 right first time. Press Continue.</p>,0,html-button-response,225,1196671,0.0-16.0-25.0,79499,List1B,white,woman,,,,,,,,
null,"<div style=""font-size:60px;"">+</div>",,html-keyboard-response,226,1198175,0.0-17.0-0.0,79499,List1B,white,woman,,,,null,,,,
null,"<img src=""stim_listB/touch3.gif""</stim_listB>",,html-keyboard-response,227,1200179,0.0-17.0-1.0,79499,List1B,white,woman,,,,null,,,,
null,is touching,,html-keyboard-response,228,1202181,0.0-17.0-2.0,79499,List1B,white,woman,,,,null,,,,
7754,,,survey-text,229,1209938,0.0-17.0-3.0,79499,List1B,white,woman,,,,,"{""Q0"":""jane is touching dave""}","<img src=""stim_listB/touch3.gif""</stim_listB>",is touching,
null,"<div style=""font-size:60px;"">+</div>",,html-keyboard-response,230,1210441,0.0-17.0-0.1,79499,List1B,white,woman,,,,null,,,,
null,"<img src=""stim_listB/talk3.gif""</stim_listB>",,html-keyboard-response,231,1212443,0.0-17.0-1.1,79499,List1B,white,woman,,,,null,,,,
null,is talking to,,html-keyboard-response,232,1214445,0.0-17.0-2.1,79499,List1B,white,woman,,,,null,,,,
5111,,,survey-text,233,1219558,0.0-17.0-3.1,79499,List1B,white,woman,,,,,"{""Q0"":""jane is talking to luke""}","<img src=""stim_listB/talk3.gif""</stim_listB>",is talking to,
null,"<div style=""font-size:60px;"">+</div>",,html-keyboard-response,234,1220061,0.0-17.0-0.2,79499,List1B,white,woman,,,,null,,,,
null,"<img src=""stim_listB/shout2.gif""</stim_listB>",,html-keyboard-response,235,1222062,0.0-17.0-1.2,79499,List1B,white,woman,,,,null,,,,
null,are shouting at each other,,html-keyboard-response,236,1224064,0.0-17.0-2.2,79499,List1B,white,woman,,,,null,,,,
11282,,,survey-text,237,1235348,0.0-17.0-3.2,79499,List1B,white,woman,,,,,"{""Q0"":""kate and mike are shouting at eachother""}","<img src=""stim_listB/shout2.gif""</stim_listB>",are shouting at each other,
null,"<div style=""font-size:60px;"">+</div>",,html-keyboard-response,238,1235851,0.0-17.0-0.3,79499,List1B,white,woman,,,,null,,,,
null,"<img src=""stim_listB/marry4.gif""</stim_listB>",,html-keyboard-response,239,1237853,0.0-17.0-1.3,79499,List1B,white,woman,,,,null,,,,
null,are marrying each other,,html-keyboard-response,240,1239855,0.0-17.0-2.3,79499,List1B,white,woman,,,,null,,,,
9751,,,survey-text,241,1249609,0.0-17.0-3.3,79499,List1B,white,woman,,,,,"{""Q0"":""jane and luke are marrying eachother""}","<img src=""stim_listB/marry4.gif""</stim_listB>",are marrying each other,
null,"<div style=""font-size:60px;"">+</div>",,html-keyboard-response,242,1250111,0.0-17.0-0.4,79499,List1B,white,woman,,,,null,,,,
null,"<img src=""stim_listB/hug3.gif""</stim_listB>",,html-keyboard-response,243,1252114,0.0-17.0-1.4,79499,List1B,white,woman,,,,null,,,,
null,is hugging,,html-keyboard-response,244,1254116,0.0-17.0-2.4,79499,List1B,white,woman,,,,null,,,,
7083,,,survey-text,245,1261201,0.0-17.0-3.4,79499,List1B,white,woman,,,,,"{""Q0"":""ruth is hugging luke""}","<img src=""stim_listB/hug3.gif""</stim_listB>",is hugging,
null,"<div style=""font-size:60px;"">+</div>",,html-keyboard-response,246,1261703,0.0-17.0-0.5,79499,List1B,white,woman,,,,null,,,,
null,"<img src=""stim_listB/shout3.gif""</stim_listB>",,html-keyboard-response,247,1263707,0.0-17.0-1.5,79499,List1B,white,woman,,,,null,,,,
null,is shouting at,,html-keyboard-response,248,1265709,0.0-17.0-2.5,79499,List1B,white,woman,,,,null,,,,
5820,,,survey-text,249,1271531,0.0-17.0-3.5,79499,List1B,white,woman,,,,,"{""Q0"":""ruth is shouting at luke""}","<img src=""stim_listB/shout3.gif""</stim_listB>",is shouting at,
null,"<div style=""font-size:60px;"">+</div>",,html-keyboard-response,250,1272033,0.0-17.0-0.6,79499,List1B,white,woman,,,,null,,,,
null,"<img src=""stim_listB/dance8.gif""</stim_listB>",,html-keyboard-response,251,1274037,0.0-17.0-1.6,79499,List1B,white,woman,,,,null,,,,
null,are dancing with each other,,html-keyboard-response,252,1276039,0.0-17.0-2.6,79499,List1B,white,woman,,,,null,,,,
8367,,,survey-text,253,1284408,0.0-17.0-3.6,79499,List1B,white,woman,,,,,"{""Q0"":""kate and ruth are dancing with eachother""}","<img src=""stim_listB/dance8.gif""</stim_listB>",are dancing with each other,
null,"<div style=""font-size:60px;"">+</div>",,html-keyboard-response,254,1284910,0.0-17.0-0.7,79499,List1B,white,woman,,,,null,,,,
null,"<img src=""stim_listB/argue1.gif""</stim_listB>",,html-keyboard-response,255,1286913,0.0-17.0-1.7,79499,List1B,white,woman,,,,null,,,,
null,is arguing with,,html-keyboard-response,256,1288915,0.0-17.0-2.7,79499,List1B,white,woman,,,,null,,,,
6786,,,survey-text,257,1295703,0.0-17.0-3.7,79499,List1B,white,woman,,,,,"{""Q0"":""beth is arguing with mike""}","<img src=""stim_listB/argue1.gif""</stim_listB>",is arguing with,
null,"<div style=""font-size:60px;"">+</div>",,html-keyboard-response,258,1296206,0.0-17.0-0.8,79499,List1B,white,woman,,,,null,,,,
null,"<img src=""stim_listB/fight1.gif""</stim_listB>",,html-keyboard-response,259,1298210,0.0-17.0-1.8,79499,List1B,white,woman,,,,null,,,,
null,is fighting,,html-keyboard-response,260,1300212,0.0-17.0-2.8,79499,List1B,white,woman,,,,null,,,,
6920,,,survey-text,261,1307134,0.0-17.0-3.8,79499,List1B,white,woman,,,,,"{""Q0"":""kate is fighting mike""}","<img src=""stim_listB/fight1.gif""</stim_listB>",is fighting,
null,"<div style=""font-size:60px;"">+</div>",,html-keyboard-response,262,1307637,0.0-17.0-0.9,79499,List1B,white,woman,,,,null,,,,
null,"<img src=""stim_listB/dance1.gif""</stim_listB>",,html-keyboard-response,263,1309641,0.0-17.0-1.9,79499,List1B,white,woman,,,,null,,,,
null,is dancing with,,html-keyboard-response,264,1311642,0.0-17.0-2.9,79499,List1B,white,woman,,,,null,,,,
5667,,,survey-text,265,1317311,0.0-17.0-3.9,79499,List1B,white,woman,,,,,"{""Q0"":""kate is dancing with fred""}","<img src=""stim_listB/dance1.gif""</stim_listB>",is dancing with,
null,"<div style=""font-size:60px;"">+</div>",,html-keyboard-response,266,1317814,0.0-17.0-0.10,79499,List1B,white,woman,,,,null,,,,
null,"<img src=""stim_listB/argue8.gif""</stim_listB>",,html-keyboard-response,267,1319817,0.0-17.0-1.10,79499,List1B,white,woman,,,,null,,,,
null,are arguing with each other,,html-keyboard-response,268,1321819,0.0-17.0-2.10,79499,List1B,white,woman,,,,null,,,,
10693,,,survey-text,269,1332514,0.0-17.0-3.10,79499,List1B,white,woman,,,,,"{""Q0"":""jane and beth are arguing with eachother""}","<img src=""stim_listB/argue8.gif""</stim_listB>",are arguing with each other,
null,"<div style=""font-size:60px;"">+</div>",,html-keyboard-response,270,1333016,0.0-17.0-0.11,79499,List1B,white,woman,,,,null,,,,
null,"<img src=""stim_listB/touch4.gif""</stim_listB>",,html-keyboard-response,271,1335020,0.0-17.0-1.11,79499,List1B,white,woman,,,,null,,,,
null,are touching each other,,html-keyboard-response,272,1337021,0.0-17.0-2.11,79499,List1B,white,woman,,,,null,,,,
12096,,,survey-text,273,1349120,0.0-17.0-3.11,79499,List1B,white,woman,,,,,"{""Q0"":""luke and ruth are touching eachother""}","<img src=""stim_listB/touch4.gif""</stim_listB>",are touching each other,
null,"<div style=""font-size:60px;"">+</div>",,html-keyboard-response,274,1349623,0.0-17.0-0.12,79499,List1B,white,woman,,,,null,,,,
null,"<img src=""stim_listB/talk6.gif""</stim_listB>",,html-keyboard-response,275,1351627,0.0-17.0-1.12,79499,List1B,white,woman,,,,null,,,,
null,are talking to each other,,html-keyboard-response,276,1353629,0.0-17.0-2.12,79499,List1B,white,woman,,,,null,,,,
7524,,,survey-text,277,1361155,0.0-17.0-3.12,79499,List1B,white,woman,,,,,"{""Q0"":""mike and luke are talking to eachother""}","<img src=""stim_listB/talk6.gif""</stim_listB>",are talking to each other,
null,"<div style=""font-size:60px;"">+</div>",,html-keyboard-response,278,1361658,0.0-17.0-0.13,79499,List1B,white,woman,,,,null,,,,
null,"<img src=""stim_listB/dance5.gif""</stim_listB>",,html-keyboard-response,279,1363661,0.0-17.0-1.13,79499,List1B,white,woman,,,,null,,,,
null,is dancing with,,html-keyboard-response,280,1365663,0.0-17.0-2.13,79499,List1B,white,woman,,,,null,,,,
6702,,,survey-text,281,1372367,0.0-17.0-3.13,79499,List1B,white,woman,,,,,"{""Q0"":""fred is dancing with dave""}","<img src=""stim_listB/dance5.gif""</stim_listB>",is dancing with,
null,"<div style=""font-size:60px;"">+</div>",,html-keyboard-response,282,1372870,0.0-17.0-0.14,79499,List1B,white,woman,,,,null,,,,
null,"<img src=""stim_listB/dance3.gif""</stim_listB>",,html-keyboard-response,283,1374874,0.0-17.0-1.14,79499,List1B,white,woman,,,,null,,,,
null,is dancing with,,html-keyboard-response,284,1376875,0.0-17.0-2.14,79499,List1B,white,woman,,,,null,,,,
7364,,,survey-text,285,1384242,0.0-17.0-3.14,79499,List1B,white,woman,,,,,"{""Q0"":""jane is dancing with luke""}","<img src=""stim_listB/dance3.gif""</stim_listB>",is dancing with,
null,"<div style=""font-size:60px;"">+</div>",,html-keyboard-response,286,1384744,0.0-17.0-0.15,79499,List1B,white,woman,,,,null,,,,
null,"<img src=""stim_listB/marry5.gif""</stim_listB>",,html-keyboard-response,287,1386748,0.0-17.0-1.15,79499,List1B,white,woman,,,,null,,,,
null,is marrying,,html-keyboard-response,288,1388750,0.0-17.0-2.15,79499,List1B,white,woman,,,,null,,,,
7090,,,survey-text,289,1395842,0.0-17.0-3.15,79499,List1B,white,woman,,,,,"{""Q0"":""luke is marrying mike""}","<img src=""stim_listB/marry5.gif""</stim_listB>",is marrying,
null,"<div style=""font-size:60px;"">+</div>",,html-keyboard-response,290,1396344,0.0-17.0-0.16,79499,List1B,white,woman,,,,null,,,,
null,"<img src=""stim_listB/argue6.gif""</stim_listB>",,html-keyboard-response,291,1398348,0.0-17.0-1.16,79499,List1B,white,woman,,,,null,,,,
null,are arguing with each other,,html-keyboard-response,292,1400350,0.0-17.0-2.16,79499,List1B,white,woman,,,,null,,,,
12289,,,survey-text,293,1412641,0.0-17.0-3.16,79499,List1B,white,woman,,,,,"{""Q0"":""fred and dave are arguing with each other""}","<img src=""stim_listB/argue6.gif""</stim_listB>",are arguing with each other,
null,"<div style=""font-size:60px;"">+</div>",,html-keyboard-response,294,1413144,0.0-17.0-0.17,79499,List1B,white,woman,,,,null,,,,
null,"<img src=""stim_listB/meet7.gif""</stim_listB>",,html-keyboard-response,295,1415149,0.0-17.0-1.17,79499,List1B,white,woman,,,,null,,,,
null,is meeting,,html-keyboard-response,296,1417151,0.0-17.0-2.17,79499,List1B,white,woman,,,,null,,,,
6055,,,survey-text,297,1423209,0.0-17.0-3.17,79499,List1B,white,woman,,,,,"{""Q0"":""jane is meeting kate""}","<img src=""stim_listB/meet7.gif""</stim_listB>",is meeting,
null,"<div style=""font-size:60px;"">+</div>",,html-keyboard-response,298,1423712,0.0-17.0-0.18,79499,List1B,white,woman,,,,null,,,,
null,"<img src=""stim_listB/dance2.gif""</stim_listB>",,html-keyboard-response,299,1425715,0.0-17.0-1.18,79499,List1B,white,woman,,,,null,,,,
null,are dancing with each other,,html-keyboard-response,300,1427718,0.0-17.0-2.18,79499,List1B,white,woman,,,,null,,,,
8255,,,survey-text,301,1435975,0.0-17.0-3.18,79499,List1B,white,woman,,,,,"{""Q0"":""mike and beth are dancing with each other""}","<img src=""stim_listB/dance2.gif""</stim_listB>",are dancing with each other,
null,"<div style=""font-size:60px;"">+</div>",,html-keyboard-response,302,1436477,0.0-17.0-0.19,79499,List1B,white,woman,,,,null,,,,
null,"<img src=""stim_listB/fight4.gif""</stim_listB>",,html-keyboard-response,303,1438480,0.0-17.0-1.19,79499,List1B,white,woman,,,,null,,,,
null,are fighting each other,,html-keyboard-response,304,1440482,0.0-17.0-2.19,79499,List1B,white,woman,,,,null,,,,
9239,,,survey-text,305,1449723,0.0-17.0-3.19,79499,List1B,white,woman,,,,,"{""Q0"":""luke and ruth are fighting each other""}","<img src=""stim_listB/fight4.gif""</stim_listB>",are fighting each other,
8342,"<img src='img/portrait_matrix_list1.JPG' style='width:900px;height:500px;''></img><p>If you have memorised all the portraits and names and are ready to start, press Continue.</p><p><strong>Please note: Your memory of these faces will be tested 4 times during this experiment.</strong></p>",0,html-button-response,306,1458070,0.0-18.0-0.0,79499,List1B,white,woman,,,,,,,,
3020,"<img src=""portrait/BW2.jpg""style=""width:400px;height:400px;""></img>",2,html-button-response,307,1462093,0.0-18.0-1.0,79499,List1B,white,woman,,TRUE,2,,,,,
null,CORRECT,,html-keyboard-response,308,1463596,0.0-18.0-2.0-0.0,79499,List1B,white,woman,,,,null,,,,
2464,"<img src=""portrait/WM1.jpg""style=""width:400px;height:400px;""></img>",6,html-button-response,309,1466064,0.0-18.0-4.0,79499,List1B,white,woman,,TRUE,6,,,,,
null,CORRECT,,html-keyboard-response,310,1467568,0.0-18.0-5.0-0.0,79499,List1B,white,woman,,,,null,,,,
2281,"<img src=""portrait/BM2.jpg""style=""width:400px;height:400px;""></img>",5,html-button-response,311,1469852,0.0-18.0-7.0,79499,List1B,white,woman,,TRUE,5,,,,,
null,CORRECT,,html-keyboard-response,312,1471356,0.0-18.0-8.0-0.0,79499,List1B,white,woman,,,,null,,,,
1919,"<img src=""portrait/WW2.jpg""style=""width:400px;height:400px;""></img>",3,html-button-response,313,1473278,0.0-18.0-10.0,79499,List1B,white,woman,,TRUE,3,,,,,
null,CORRECT,,html-keyboard-response,314,1474782,0.0-18.0-11.0-0.0,79499,List1B,white,woman,,,,null,,,,
2533,"<img src=""portrait/BW1.jpg""style=""width:400px;height:400px;""></img>",0,html-button-response,315,1477317,0.0-18.0-13.0,79499,List1B,white,woman,,TRUE,0,,,,,
null,CORRECT,,html-keyboard-response,316,1478821,0.0-18.0-14.0-0.0,79499,List1B,white,woman,,,,null,,,,
2485,"<img src=""portrait/WW1.jpg""style=""width:400px;height:400px;""></img>",1,html-button-response,317,1481309,0.0-18.0-16.0,79499,List1B,white,woman,,TRUE,1,,,,,
null,CORRECT,,html-keyboard-response,318,1482813,0.0-18.0-17.0-0.0,79499,List1B,white,woman,,,,null,,,,
2244,"<img src=""portrait/BM1.jpg""style=""width:400px;height:400px;""></img>",4,html-button-response,319,1485059,0.0-18.0-19.0,79499,List1B,white,woman,,TRUE,4,,,,,
null,CORRECT,,html-keyboard-response,320,1486563,0.0-18.0-20.0-0.0,79499,List1B,white,woman,,,,null,,,,
1984,"<img src=""portrait/WM2.jpg""style=""width:400px;height:400px;""></img>",7,html-button-response,321,1488550,0.0-18.0-22.0,79499,List1B,white,woman,,TRUE,7,,,,,
null,CORRECT,,html-keyboard-response,322,1490053,0.0-18.0-23.0-0.0,79499,List1B,white,woman,,,,null,,,,
1609,<p>You got 8 out of 8 right first time. Press Continue.</p>,0,html-button-response,323,1491665,0.0-18.0-25.0,79499,List1B,white,woman,,,,,,,,
null,"<div style=""font-size:60px;"">+</div>",,html-keyboard-response,324,1493170,0.0-19.0-0.0,79499,List1B,white,woman,,,,null,,,,
null,"<img src=""stim_listB/marry8.gif""</stim_listB>",,html-keyboard-response,325,1495174,0.0-19.0-1.0,79499,List1B,white,woman,,,,null,,,,
null,are marrying each other,,html-keyboard-response,326,1497176,0.0-19.0-2.0,79499,List1B,white,woman,,,,null,,,,
9929,,,survey-text,327,1507107,0.0-19.0-3.0,79499,List1B,white,woman,,,,,"{""Q0"":""jane and beth are marrying each other""}","<img src=""stim_listB/marry8.gif""</stim_listB>",are marrying each other,
null,"<div style=""font-size:60px;"">+</div>",,html-keyboard-response,328,1507609,0.0-19.0-0.1,79499,List1B,white,woman,,,,null,,,,
null,"<img src=""stim_listB/argue5.gif""</stim_listB>",,html-keyboard-response,329,1509612,0.0-19.0-1.1,79499,List1B,white,woman,,,,null,,,,
null,is arguing with,,html-keyboard-response,330,1511614,0.0-19.0-2.1,79499,List1B,white,woman,,,,null,,,,
8187,,,survey-text,331,1519803,0.0-19.0-3.1,79499,List1B,white,woman,,,,,"{""Q0"":""mike is arguing with luke""}","<img src=""stim_listB/argue5.gif""</stim_listB>",is arguing with,
null,"<div style=""font-size:60px;"">+</div>",,html-keyboard-response,332,1520305,0.0-19.0-0.2,79499,List1B,white,woman,,,,null,,,,
null,"<img src=""stim_listB/argue4.gif""</stim_listB>",,html-keyboard-response,333,1522306,0.0-19.0-1.2,79499,List1B,white,woman,,,,null,,,,
null,are arguing with each other,,html-keyboard-response,334,1524307,0.0-19.0-2.2,79499,List1B,white,woman,,,,null,,,,
11919,,,survey-text,335,1536229,0.0-19.0-3.2,79499,List1B,white,woman,,,,,"{""Q0"":""luke and jane are arguing with each other""}","<img src=""stim_listB/argue4.gif""</stim_listB>",are arguing with each other,
null,"<div style=""font-size:60px;"">+</div>",,html-keyboard-response,336,1536733,0.0-19.0-0.3,79499,List1B,white,woman,,,,null,,,,
null,"<img src=""stim_listB/kiss1.gif""</stim_listB>",,html-keyboard-response,337,1538737,0.0-19.0-1.3,79499,List1B,white,woman,,,,null,,,,
null,is kissing,,html-keyboard-response,338,1540739,0.0-19.0-2.3,79499,List1B,white,woman,,,,null,,,,
6697,,,survey-text,339,1547438,0.0-19.0-3.3,79499,List1B,white,woman,,,,,"{""Q0"":""beth is kissing fred""}","<img src=""stim_listB/kiss1.gif""</stim_listB>",is kissing,
null,"<div style=""font-size:60px;"">+</div>",,html-keyboard-response,340,1547941,0.0-19.0-0.4,79499,List1B,white,woman,,,,null,,,,
null,"<img src=""stim_listB/kiss3.gif""</stim_listB>",,html-keyboard-response,341,1549945,0.0-19.0-1.4,79499,List1B,white,woman,,,,null,,,,
null,is kissing,,html-keyboard-response,342,1551946,0.0-19.0-2.4,79499,List1B,white,woman,,,,null,,,,
5544,,,survey-text,343,1557492,0.0-19.0-3.4,79499,List1B,white,woman,,,,,"{""Q0"":""ruth is kissing luke""}","<img src=""stim_listB/kiss3.gif""</stim_listB>",is kissing,
null,"<div style=""font-size:60px;"">+</div>",,html-keyboard-response,344,1557994,0.0-19.0-0.5,79499,List1B,white,woman,,,,null,,,,
null,"<img src=""stim_listB/shout5.gif""</stim_listB>",,html-keyboard-response,345,1559997,0.0-19.0-1.5,79499,List1B,white,woman,,,,null,,,,
null,is shouting at,,html-keyboard-response,346,1561999,0.0-19.0-2.5,79499,List1B,white,woman,,,,null,,,,
7221,,,survey-text,347,1569222,0.0-19.0-3.5,79499,List1B,white,woman,,,,,"{""Q0"":""fred is shouting at luke""}","<img src=""stim_listB/shout5.gif""</stim_listB>",is shouting at,
null,"<div style=""font-size:60px;"">+</div>",,html-keyboard-response,348,1569725,0.0-19.0-0.6,79499,List1B,white,woman,,,,null,,,,
null,"<img src=""stim_listB/talk2.gif""</stim_listB>",,html-keyboard-response,349,1571728,0.0-19.0-1.6,79499,List1B,white,woman,,,,null,,,,
null,are talking to each other,,html-keyboard-response,350,1573730,0.0-19.0-2.6,79499,List1B,white,woman,,,,null,,,,
11108,,,survey-text,351,1584841,0.0-19.0-3.6,79499,List1B,white,woman,,,,,"{""Q0"":""mike and beth are talking to each other""}","<img src=""stim_listB/talk2.gif""</stim_listB>",are talking to each other,
null,"<div style=""font-size:60px;"">+</div>",,html-keyboard-response,352,1585344,0.0-19.0-0.7,79499,List1B,white,woman,,,,null,,,,
null,"<img src=""stim_listB/marry7.gif""</stim_listB>",,html-keyboard-response,353,1587348,0.0-19.0-1.7,79499,List1B,white,woman,,,,null,,,,
null,is marrying,,html-keyboard-response,354,1589350,0.0-19.0-2.7,79499,List1B,white,woman,,,,null,,,,
6846,,,survey-text,355,1596198,0.0-19.0-3.7,79499,List1B,white,woman,,,,,"{""Q0"":""kate is marrying ruth""}","<img src=""stim_listB/marry7.gif""</stim_listB>",is marrying,
null,"<div style=""font-size:60px;"">+</div>",,html-keyboard-response,356,1596701,0.0-19.0-0.8,79499,List1B,white,woman,,,,null,,,,
null,"<img src=""stim_listB/hug1.gif""</stim_listB>",,html-keyboard-response,357,1598705,0.0-19.0-1.8,79499,List1B,white,woman,,,,null,,,,
null,is hugging,,html-keyboard-response,358,1600707,0.0-19.0-2.8,79499,List1B,white,woman,,,,null,,,,
7010,,,survey-text,359,1607720,0.0-19.0-3.8,79499,List1B,white,woman,,,,,"{""Q0"":""beth is hugging fred""}","<img src=""stim_listB/hug1.gif""</stim_listB>",is hugging,
null,"<div style=""font-size:60px;"">+</div>",,html-keyboard-response,360,1608222,0.0-19.0-0.9,79499,List1B,white,woman,,,,null,,,,
null,"<img src=""stim_listB/hug2.gif""</stim_listB>",,html-keyboard-response,361,1610226,0.0-19.0-1.9,79499,List1B,white,woman,,,,null,,,,
null,are hugging each other,,html-keyboard-response,362,1612227,0.0-19.0-2.9,79499,List1B,white,woman,,,,null,,,,
7890,,,survey-text,363,1620120,0.0-19.0-3.9,79499,List1B,white,woman,,,,,"{""Q0"":""kate and mike are hugging each other""}","<img src=""stim_listB/hug2.gif""</stim_listB>",are hugging each other,
null,"<div style=""font-size:60px;"">+</div>",,html-keyboard-response,364,1620622,0.0-19.0-0.10,79499,List1B,white,woman,,,,null,,,,
null,"<img src=""stim_listB/meet6.gif""</stim_listB>",,html-keyboard-response,365,1622625,0.0-19.0-1.10,79499,List1B,white,woman,,,,null,,,,
null,are meeting each other,,html-keyboard-response,366,1624627,0.0-19.0-2.10,79499,List1B,white,woman,,,,null,,,,
9606,,,survey-text,367,1634235,0.0-19.0-3.10,79499,List1B,white,woman,,,,,"{""Q0"":""fred and luke are meeting each other""}","<img src=""stim_listB/meet6.gif""</stim_listB>",are meeting each other,
null,"<div style=""font-size:60px;"">+</div>",,html-keyboard-response,368,1634738,0.0-19.0-0.11,79499,List1B,white,woman,,,,null,,,,
null,"<img src=""stim_listB/shout1.gif""</stim_listB>",,html-keyboard-response,369,1636742,0.0-19.0-1.11,79499,List1B,white,woman,,,,null,,,,
null,is shouting at,,html-keyboard-response,370,1638744,0.0-19.0-2.11,79499,List1B,white,woman,,,,null,,,,
7264,,,survey-text,371,1646010,0.0-19.0-3.11,79499,List1B,white,woman,,,,,"{""Q0"":""beth is shouting at fred""}","<img src=""stim_listB/shout1.gif""</stim_listB>",is shouting at,
null,"<div style=""font-size:60px;"">+</div>",,html-keyboard-response,372,1646512,0.0-19.0-0.12,79499,List1B,white,woman,,,,null,,,,
null,"<img src=""stim_listB/marry2.gif""</stim_listB>",,html-keyboard-response,373,1648516,0.0-19.0-1.12,79499,List1B,white,woman,,,,null,,,,
null,are marrying each other,,html-keyboard-response,374,1650519,0.0-19.0-2.12,79499,List1B,white,woman,,,,null,,,,
9151,,,survey-text,375,1659672,0.0-19.0-3.12,79499,List1B,white,woman,,,,,"{""Q0"":""kate and fred are marrying each other""}","<img src=""stim_listB/marry2.gif""</stim_listB>",are marrying each other,
null,"<div style=""font-size:60px;"">+</div>",,html-keyboard-response,376,1660176,0.0-19.0-0.13,79499,List1B,white,woman,,,,null,,,,
null,"<img src=""stim_listB/argue2.gif""</stim_listB>",,html-keyboard-response,377,1662179,0.0-19.0-1.13,79499,List1B,white,woman,,,,null,,,,
null,are arguing with each other,,html-keyboard-response,378,1664181,0.0-19.0-2.13,79499,List1B,white,woman,,,,null,,,,
13317,,,survey-text,379,1677500,0.0-19.0-3.13,79499,List1B,white,woman,,,,,"{""Q0"":""kate and fred are arguing with each other""}","<img src=""stim_listB/argue2.gif""</stim_listB>",are arguing with each other,
null,"<div style=""font-size:60px;"">+</div>",,html-keyboard-response,380,1678002,0.0-19.0-0.14,79499,List1B,white,woman,,,,null,,,,
null,"<img src=""stim_listB/touch8.gif""</stim_listB>",,html-keyboard-response,381,1680006,0.0-19.0-1.14,79499,List1B,white,woman,,,,null,,,,
null,are touching each other,,html-keyboard-response,382,1682008,0.0-19.0-2.14,79499,List1B,white,woman,,,,null,,,,
10544,,,survey-text,383,1692554,0.0-19.0-3.14,79499,List1B,white,woman,,,,,"{""Q0"":""beth and ruth are touching each other""}","<img src=""stim_listB/touch8.gif""</stim_listB>",are touching each other,
null,"<div style=""font-size:60px;"">+</div>",,html-keyboard-response,384,1693056,0.0-19.0-0.15,79499,List1B,white,woman,,,,null,,,,
null,"<img src=""stim_listB/touch1.gif""</stim_listB>",,html-keyboard-response,385,1695060,0.0-19.0-1.15,79499,List1B,white,woman,,,,null,,,,
null,is touching,,html-keyboard-response,386,1697062,0.0-19.0-2.15,79499,List1B,white,woman,,,,null,,,,
5468,,,survey-text,387,1702534,0.0-19.0-3.15,79499,List1B,white,woman,,,,,"{""Q0"":""kate is touching mike""}","<img src=""stim_listB/touch1.gif""</stim_listB>",is touching,
null,"<div style=""font-size:60px;"">+</div>",,html-keyboard-response,388,1703036,0.0-19.0-0.16,79499,List1B,white,woman,,,,null,,,,
null,"<img src=""stim_listB/talk7.gif""</stim_listB>",,html-keyboard-response,389,1705039,0.0-19.0-1.16,79499,List1B,white,woman,,,,null,,,,
null,is talking to,,html-keyboard-response,390,1707041,0.0-19.0-2.16,79499,List1B,white,woman,,,,null,,,,
5632,,,survey-text,391,1712675,0.0-19.0-3.16,79499,List1B,white,woman,,,,,"{""Q0"":""jane is talking to beth""}","<img src=""stim_listB/talk7.gif""</stim_listB>",is talking to,
null,"<div style=""font-size:60px;"">+</div>",,html-keyboard-response,392,1713177,0.0-19.0-0.17,79499,List1B,white,woman,,,,null,,,,
null,"<img src=""stim_listB/fight6.gif""</stim_listB>",,html-keyboard-response,393,1715183,0.0-19.0-1.17,79499,List1B,white,woman,,,,null,,,,
null,are fighting each other,,html-keyboard-response,394,1717185,0.0-19.0-2.17,79499,List1B,white,woman,,,,null,,,,
11274,,,survey-text,395,1728461,0.0-19.0-3.17,79499,List1B,white,woman,,,,,"{""Q0"":""fred and luke are fighting each other""}","<img src=""stim_listB/fight6.gif""</stim_listB>",are fighting each other,
null,"<div style=""font-size:60px;"">+</div>",,html-keyboard-response,396,1728963,0.0-19.0-0.18,79499,List1B,white,woman,,,,null,,,,
null,"<img src=""stim_listB/fight3.gif""</stim_listB>",,html-keyboard-response,397,1730966,0.0-19.0-1.18,79499,List1B,white,woman,,,,null,,,,
null,is fighting,,html-keyboard-response,398,1732968,0.0-19.0-2.18,79499,List1B,white,woman,,,,null,,,,
10390,,,survey-text,399,1743360,0.0-19.0-3.18,79499,List1B,white,woman,,,,,"{""Q0"":""jane is fighting dave""}","<img src=""stim_listB/fight3.gif""</stim_listB>",is fighting,
null,"<div style=""font-size:60px;"">+</div>",,html-keyboard-response,400,1743863,0.0-19.0-0.19,79499,List1B,white,woman,,,,null,,,,
null,"<img src=""stim_listB/shout4.gif""</stim_listB>",,html-keyboard-response,401,1745867,0.0-19.0-1.19,79499,List1B,white,woman,,,,null,,,,
null,are shouting at each other,,html-keyboard-response,402,1747869,0.0-19.0-2.19,79499,List1B,white,woman,,,,null,,,,
13931,,,survey-text,403,1761802,0.0-19.0-3.19,79499,List1B,white,woman,,,,,"{""Q0"":""jane and dave are shouting at each other""}","<img src=""stim_listB/shout4.gif""</stim_listB>",are shouting at each other,
2961,<p>Thank you for completing that task.</p><p>The final part of this session is a short questionnaire.</p><p>Press Continue.</p>,0,html-button-response,404,1764766,0.0-20.0,79499,List1B,white,woman,,,,,,,,
21154,,,survey-text,405,1786926,0.0-21.0,79499,List1B,white,woman,,,,,"{""Q0"":""44"",""Q1"":""english"",""Q2"":""english"",""Q3"":""UK"",""Q4"":""white"",""Q5"":""Female""}",,,demographics
74405,,,survey-likert,406,1861354,0.0-22.0,79499,List1B,white,woman,,,,,"{""Q0"":4,""Q1"":3,""Q2"":3,""Q3"":3,""Q4"":1,""Q5"":3,""Q6"":3,""Q7"":1,""Q8"":0,""Q9"":1,""Q10"":3,""Q11"":3,""Q12"":2,""Q13"":1}",,,likert_race
61985,,,survey-likert,407,1923358,0.0-23.0,79499,List1B,white,woman,,,,,"{""Q0"":4,""Q1"":4,""Q2"":4,""Q3"":6,""Q4"":6,""Q5"":5,""Q6"":3,""Q7"":4,""Q8"":5,""Q9"":5,""Q10"":2,""Q11"":2,""Q12"":3,""Q13"":3}",,,likert_gender
6138,,,survey-text,408,1929502,0.0-24.0,79499,List1B,white,woman,,,,,"{""Q0"":""ccc""}",,,worker_id
23531,,,external-html,409,1953152,0.0-25.0,79499,List1B,white,woman,debrief.html,,,,,,,
