rt,stimulus,button_pressed,trial_type,trial_index,time_elapsed,internal_node_id,subject,list,ppt_race,ppt_gender,url,first_guess,correct,key_press,responses,image_type,phrase_type,test_part
4665,Welcome to the experiment. Press Continue to begin.,0,html-button-response,0,4735,0.0-0.0,79902,List2A,black,man,,,,,,,,
17319,,,external-html,1,23195,0.0-1.0,79902,List2A,black,man,consent.html,,,,,,,
14293,"<p>On the next page, you will see portraits of 8 people and their names.</p><p>Your first task is to take a few minutes to memorise the names of these people.</p><p>You will have to recall their names during the rest of the experiment, so it is</p><p>essential that you try to memorise these people and their names as best as you can.</p><br><p><strong>You will then be tested on your memory of these names and portraits.</strong></p><br><p>The experiment will start after you have completed this memory test.</p><br><p>Ready?</p>",0,html-button-response,2,37492,0.0-2.0,79902,List2A,black,man,,,,,,,,
78375,"<img src='img/portrait_matrix_list2.JPG' style='width:900px;height:500px;''></img><p>If you have memorised all the portraits and names and are ready to start, press Continue.</p><p><strong>Please note: Your memory of these faces will be tested 4 times during this experiment.</strong></p>",0,html-button-response,3,116870,0.0-3.0-0.0,79902,List2A,black,man,,,,,,,,
5268,"<img src=""portrait/BM2.jpg""style=""width:400px;height:400px;""></img>",5,html-button-response,4,123142,0.0-3.0-1.0,79902,List2A,black,man,,TRUE,5,,,,,
null,CORRECT,,html-keyboard-response,5,124647,0.0-3.0-2.0-0.0,79902,List2A,black,man,,,,null,,,,
4332,"<img src=""portrait/BW2.jpg""style=""width:400px;height:400px;""></img>",2,html-button-response,6,128983,0.0-3.0-4.0,79902,List2A,black,man,,TRUE,2,,,,,
null,CORRECT,,html-keyboard-response,7,130488,0.0-3.0-5.0-0.0,79902,List2A,black,man,,,,null,,,,
5302,"<img src=""portrait/WM1.jpg""style=""width:400px;height:400px;""></img>",6,html-button-response,8,135792,0.0-3.0-7.0,79902,List2A,black,man,,TRUE,6,,,,,
null,CORRECT,,html-keyboard-response,9,137294,0.0-3.0-8.0-0.0,79902,List2A,black,man,,,,null,,,,
8330,"<img src=""portrait/WW2.jpg""style=""width:400px;height:400px;""></img>",3,html-button-response,10,145626,0.0-3.0-10.0,79902,List2A,black,man,,TRUE,3,,,,,
null,CORRECT,,html-keyboard-response,11,147128,0.0-3.0-11.0-0.0,79902,List2A,black,man,,,,null,,,,
2172,"<img src=""portrait/BM1.jpg""style=""width:400px;height:400px;""></img>",4,html-button-response,12,149304,0.0-3.0-13.0,79902,List2A,black,man,,TRUE,4,,,,,
null,CORRECT,,html-keyboard-response,13,150805,0.0-3.0-14.0-0.0,79902,List2A,black,man,,,,null,,,,
3140,"<img src=""portrait/WW1.jpg""style=""width:400px;height:400px;""></img>",1,html-button-response,14,153949,0.0-3.0-16.0,79902,List2A,black,man,,TRUE,1,,,,,
null,CORRECT,,html-keyboard-response,15,155451,0.0-3.0-17.0-0.0,79902,List2A,black,man,,,,null,,,,
2259,"<img src=""portrait/WM2.jpg""style=""width:400px;height:400px;""></img>",7,html-button-response,16,157714,0.0-3.0-19.0,79902,List2A,black,man,,TRUE,7,,,,,
null,CORRECT,,html-keyboard-response,17,159216,0.0-3.0-20.0-0.0,79902,List2A,black,man,,,,null,,,,
2975,"<img src=""portrait/BW1.jpg""style=""width:400px;height:400px;""></img>",0,html-button-response,18,162194,0.0-3.0-22.0,79902,List2A,black,man,,TRUE,0,,,,,
null,CORRECT,,html-keyboard-response,19,163696,0.0-3.0-23.0-0.0,79902,List2A,black,man,,,,null,,,,
2417,<p>You got 8 out of 8 right first time. Press Continue.</p>,0,html-button-response,20,166116,0.0-3.0-25.0,79902,List2A,black,man,,,,,,,,
10931,"<p>In this experiment, you will view photographs of the people from the memory game interacting.</p><p>By using the <strong>exact</strong> phrase given <i>after</i> the photograph appears and recalling the correct names of the people in the photographs, form a sentence describing the interaction. You do not need to capitalise names.</p><p>Type your answer in the space provided. Please complete every sentence before moving onto the next trial.</p><p>You will only have a few seconds to memorise each given photograph and phrase before you can respond, so try your best to focus.</p><p>An example is given below. Press 'Continue' when you are ready.</p><img src='img/speaking_example_v2.jpg' style='width:800px;height:460px;''></img>",0,html-button-response,21,178051,0.0-4.0,79902,List2A,black,man,,,,,,,,
2023,"<p>Before the experiment starts, you will watch two example trials. Press 'Continue'.</p>",0,html-button-response,22,181075,0.0-5.0,79902,List2A,black,man,,,,,,,,
null,<img src='img/speaking_WW.gif'></img>,,html-keyboard-response,23,184078,0.0-6.0,79902,List2A,black,man,,,,null,,,,
null,<p>is speaking to</p>,,html-keyboard-response,24,186079,0.0-7.0,79902,List2A,black,man,,,,null,,,,
5770,<p><b>Answer:</b> jane is speaking to ruth</p>,0,html-button-response,25,191851,0.0-8.0,79902,List2A,black,man,,,,,,,,
null,<img src='img/pointing_BM.gif'></img>,,html-keyboard-response,26,194853,0.0-9.0,79902,List2A,black,man,,,,null,,,,
null,<p>are pointing at each other</p>,,html-keyboard-response,27,196855,0.0-10.0,79902,List2A,black,man,,,,null,,,,
1826,<p><b>Answer:</b> fred and mike are pointing at each other</p>,0,html-button-response,28,198683,0.0-11.0,79902,List2A,black,man,,,,,,,,
3062,"<p>Ready to start the experiment?</p><br><p><strong>Remember to describe the picture using a full sentence,</strong></p><p><strong>that combines the names of the people with the given phrase.</strong></p><p><strong>If you do not do this correctly you will not be paid.</strong></p><p><strong> You do not need to capitalise names or use punctuation.</strong></p><br><p>Press 'Continue' to begin.</p>",0,html-button-response,29,202748,0.0-12.0,79902,List2A,black,man,,,,,,,,
null,"<div style=""font-size:60px;"">+</div>",,html-keyboard-response,30,204249,0.0-13.0-0.0,79902,List2A,black,man,,,,null,,,,
null,"<img src=""stim_listA/kiss7.gif""</stim_listA>",,html-keyboard-response,31,206252,0.0-13.0-1.0,79902,List2A,black,man,,,,null,,,,
null,is kissing,,html-keyboard-response,32,208254,0.0-13.0-2.0,79902,List2A,black,man,,,,null,,,,
24234,,,survey-text,33,232491,0.0-13.0-3.0,79902,List2A,black,man,,,,,"{""Q0"":""beth is kissing kate""}","<img src=""stim_listA/kiss7.gif""</stim_listA>",is kissing,
null,"<div style=""font-size:60px;"">+</div>",,html-keyboard-response,34,232995,0.0-13.0-0.1,79902,List2A,black,man,,,,null,,,,
null,"<img src=""stim_listA/talk1.gif""</stim_listA>",,html-keyboard-response,35,234997,0.0-13.0-1.1,79902,List2A,black,man,,,,null,,,,
null,is talking to,,html-keyboard-response,36,236998,0.0-13.0-2.1,79902,List2A,black,man,,,,null,,,,
24730,,,survey-text,37,261730,0.0-13.0-3.1,79902,List2A,black,man,,,,,"{""Q0"":""kate is talking to luke""}","<img src=""stim_listA/talk1.gif""</stim_listA>",is talking to,
null,"<div style=""font-size:60px;"">+</div>",,html-keyboard-response,38,262232,0.0-13.0-0.2,79902,List2A,black,man,,,,null,,,,
null,"<img src=""stim_listA/touch2.gif""</stim_listA>",,html-keyboard-response,39,264235,0.0-13.0-1.2,79902,List2A,black,man,,,,null,,,,
null,are touching each other,,html-keyboard-response,40,266237,0.0-13.0-2.2,79902,List2A,black,man,,,,null,,,,
19397,,,survey-text,41,285636,0.0-13.0-3.2,79902,List2A,black,man,,,,,"{""Q0"":""luke and kate are touching each other""}","<img src=""stim_listA/touch2.gif""</stim_listA>",are touching each other,
null,"<div style=""font-size:60px;"">+</div>",,html-keyboard-response,42,286138,0.0-13.0-0.3,79902,List2A,black,man,,,,null,,,,
null,"<img src=""stim_listA/talk7.gif""</stim_listA>",,html-keyboard-response,43,288141,0.0-13.0-1.3,79902,List2A,black,man,,,,null,,,,
null,is talking to,,html-keyboard-response,44,290143,0.0-13.0-2.3,79902,List2A,black,man,,,,null,,,,
7306,,,survey-text,45,297451,0.0-13.0-3.3,79902,List2A,black,man,,,,,"{""Q0"":""ruth and kate""}","<img src=""stim_listA/talk7.gif""</stim_listA>",is talking to,
null,"<div style=""font-size:60px;"">+</div>",,html-keyboard-response,46,297953,0.0-13.0-0.4,79902,List2A,black,man,,,,null,,,,
null,"<img src=""stim_listA/touch7.gif""</stim_listA>",,html-keyboard-response,47,299955,0.0-13.0-1.4,79902,List2A,black,man,,,,null,,,,
null,is touching,,html-keyboard-response,48,301956,0.0-13.0-2.4,79902,List2A,black,man,,,,null,,,,
12656,,,survey-text,49,314614,0.0-13.0-3.4,79902,List2A,black,man,,,,,"{""Q0"":""kate is touching beth""}","<img src=""stim_listA/touch7.gif""</stim_listA>",is touching,
null,"<div style=""font-size:60px;"">+</div>",,html-keyboard-response,50,315116,0.0-13.0-0.5,79902,List2A,black,man,,,,null,,,,
null,"<img src=""stim_listA/hug1.gif""</stim_listA>",,html-keyboard-response,51,317118,0.0-13.0-1.5,79902,List2A,black,man,,,,null,,,,
null,is hugging,,html-keyboard-response,52,319120,0.0-13.0-2.5,79902,List2A,black,man,,,,null,,,,
14869,,,survey-text,53,333991,0.0-13.0-3.5,79902,List2A,black,man,,,,,"{""Q0"":""ruth is hugging luke""}","<img src=""stim_listA/hug1.gif""</stim_listA>",is hugging,
null,"<div style=""font-size:60px;"">+</div>",,html-keyboard-response,54,334493,0.0-13.0-0.6,79902,List2A,black,man,,,,null,,,,
null,"<img src=""stim_listA/marry5.gif""</stim_listA>",,html-keyboard-response,55,336495,0.0-13.0-1.6,79902,List2A,black,man,,,,null,,,,
null,is marrying,,html-keyboard-response,56,338497,0.0-13.0-2.6,79902,List2A,black,man,,,,null,,,,
12558,,,survey-text,57,351057,0.0-13.0-3.6,79902,List2A,black,man,,,,,"{""Q0"":""dave is marrying fred""}","<img src=""stim_listA/marry5.gif""</stim_listA>",is marrying,
null,"<div style=""font-size:60px;"">+</div>",,html-keyboard-response,58,351559,0.0-13.0-0.7,79902,List2A,black,man,,,,null,,,,
null,"<img src=""stim_listA/meet2.gif""</stim_listA>",,html-keyboard-response,59,353562,0.0-13.0-1.7,79902,List2A,black,man,,,,null,,,,
null,are meeting each other,,html-keyboard-response,60,355564,0.0-13.0-2.7,79902,List2A,black,man,,,,null,,,,
16713,,,survey-text,61,372280,0.0-13.0-3.7,79902,List2A,black,man,,,,,"{""Q0"":""luke is meeting ruth""}","<img src=""stim_listA/meet2.gif""</stim_listA>",are meeting each other,
null,"<div style=""font-size:60px;"">+</div>",,html-keyboard-response,62,372781,0.0-13.0-0.8,79902,List2A,black,man,,,,null,,,,
null,"<img src=""stim_listA/meet8.gif""</stim_listA>",,html-keyboard-response,63,374784,0.0-13.0-1.8,79902,List2A,black,man,,,,null,,,,
null,are meeting each other,,html-keyboard-response,64,376785,0.0-13.0-2.8,79902,List2A,black,man,,,,null,,,,
21747,,,survey-text,65,398535,0.0-13.0-3.8,79902,List2A,black,man,,,,,"{""Q0"":""beth and ruth are meeting each other""}","<img src=""stim_listA/meet8.gif""</stim_listA>",are meeting each other,
null,"<div style=""font-size:60px;"">+</div>",,html-keyboard-response,66,399041,0.0-13.0-0.9,79902,List2A,black,man,,,,null,,,,
null,"<img src=""stim_listA/meet5.gif""</stim_listA>",,html-keyboard-response,67,401044,0.0-13.0-1.9,79902,List2A,black,man,,,,null,,,,
null,is meeting,,html-keyboard-response,68,403046,0.0-13.0-2.9,79902,List2A,black,man,,,,null,,,,
8362,,,survey-text,69,411410,0.0-13.0-3.9,79902,List2A,black,man,,,,,"{""Q0"":""mike is meeting dave""}","<img src=""stim_listA/meet5.gif""</stim_listA>",is meeting,
null,"<div style=""font-size:60px;"">+</div>",,html-keyboard-response,70,411912,0.0-13.0-0.10,79902,List2A,black,man,,,,null,,,,
null,"<img src=""stim_listA/marry4.gif""</stim_listA>",,html-keyboard-response,71,413914,0.0-13.0-1.10,79902,List2A,black,man,,,,null,,,,
null,are marrying each other,,html-keyboard-response,72,415915,0.0-13.0-2.10,79902,List2A,black,man,,,,null,,,,
18965,,,survey-text,73,434882,0.0-13.0-3.10,79902,List2A,black,man,,,,,"{""Q0"":""fred ""}","<img src=""stim_listA/marry4.gif""</stim_listA>",are marrying each other,
null,"<div style=""font-size:60px;"">+</div>",,html-keyboard-response,74,435384,0.0-13.0-0.11,79902,List2A,black,man,,,,null,,,,
null,"<img src=""stim_listA/dance1.gif""</stim_listA>",,html-keyboard-response,75,437387,0.0-13.0-1.11,79902,List2A,black,man,,,,null,,,,
null,is dancing with,,html-keyboard-response,76,439389,0.0-13.0-2.11,79902,List2A,black,man,,,,null,,,,
13039,,,survey-text,77,452430,0.0-13.0-3.11,79902,List2A,black,man,,,,,"{""Q0"":""luke is dancing with kate""}","<img src=""stim_listA/dance1.gif""</stim_listA>",is dancing with,
null,"<div style=""font-size:60px;"">+</div>",,html-keyboard-response,78,452932,0.0-13.0-0.12,79902,List2A,black,man,,,,null,,,,
null,"<img src=""stim_listA/fight5.gif""</stim_listA>",,html-keyboard-response,79,454935,0.0-13.0-1.12,79902,List2A,black,man,,,,null,,,,
null,is fighting,,html-keyboard-response,80,456936,0.0-13.0-2.12,79902,List2A,black,man,,,,null,,,,
14406,,,survey-text,81,471344,0.0-13.0-3.12,79902,List2A,black,man,,,,,"{""Q0"":""dave is figthing mike""}","<img src=""stim_listA/fight5.gif""</stim_listA>",is fighting,
null,"<div style=""font-size:60px;"">+</div>",,html-keyboard-response,82,471846,0.0-13.0-0.13,79902,List2A,black,man,,,,null,,,,
null,"<img src=""stim_listA/kiss3.gif""</stim_listA>",,html-keyboard-response,83,473849,0.0-13.0-1.13,79902,List2A,black,man,,,,null,,,,
null,is kissing,,html-keyboard-response,84,475851,0.0-13.0-2.13,79902,List2A,black,man,,,,null,,,,
8553,,,survey-text,85,484406,0.0-13.0-3.13,79902,List2A,black,man,,,,,"{""Q0"":""beth is kissing fred""}","<img src=""stim_listA/kiss3.gif""</stim_listA>",is kissing,
null,"<div style=""font-size:60px;"">+</div>",,html-keyboard-response,86,484907,0.0-13.0-0.14,79902,List2A,black,man,,,,null,,,,
null,"<img src=""stim_listA/kiss5.gif""</stim_listA>",,html-keyboard-response,87,486910,0.0-13.0-1.14,79902,List2A,black,man,,,,null,,,,
null,is kissing,,html-keyboard-response,88,488912,0.0-13.0-2.14,79902,List2A,black,man,,,,null,,,,
9403,,,survey-text,89,498317,0.0-13.0-3.14,79902,List2A,black,man,,,,,"{""Q0"":""fred is kissing luke""}","<img src=""stim_listA/kiss5.gif""</stim_listA>",is kissing,
null,"<div style=""font-size:60px;"">+</div>",,html-keyboard-response,90,498818,0.0-13.0-0.15,79902,List2A,black,man,,,,null,,,,
null,"<img src=""stim_listA/argue2.gif""</stim_listA>",,html-keyboard-response,91,500821,0.0-13.0-1.15,79902,List2A,black,man,,,,null,,,,
null,are arguing with each other,,html-keyboard-response,92,502822,0.0-13.0-2.15,79902,List2A,black,man,,,,null,,,,
16490,,,survey-text,93,519315,0.0-13.0-3.15,79902,List2A,black,man,,,,,"{""Q0"":""kate and luke are arguing""}","<img src=""stim_listA/argue2.gif""</stim_listA>",are arguing with each other,
null,"<div style=""font-size:60px;"">+</div>",,html-keyboard-response,94,519816,0.0-13.0-0.16,79902,List2A,black,man,,,,null,,,,
null,"<img src=""stim_listA/hug3.gif""</stim_listA>",,html-keyboard-response,95,521819,0.0-13.0-1.16,79902,List2A,black,man,,,,null,,,,
null,is hugging,,html-keyboard-response,96,523820,0.0-13.0-2.16,79902,List2A,black,man,,,,null,,,,
14701,,,survey-text,97,538523,0.0-13.0-3.16,79902,List2A,black,man,,,,,"{""Q0"":""fred is huguing beth""}","<img src=""stim_listA/hug3.gif""</stim_listA>",is hugging,
null,"<div style=""font-size:60px;"">+</div>",,html-keyboard-response,98,539025,0.0-13.0-0.17,79902,List2A,black,man,,,,null,,,,
null,"<img src=""stim_listA/hug5.gif""</stim_listA>",,html-keyboard-response,99,541027,0.0-13.0-1.17,79902,List2A,black,man,,,,null,,,,
null,is hugging,,html-keyboard-response,100,543029,0.0-13.0-2.17,79902,List2A,black,man,,,,null,,,,
8412,,,survey-text,101,551443,0.0-13.0-3.17,79902,List2A,black,man,,,,,"{""Q0"":""fred is hugging luke""}","<img src=""stim_listA/hug5.gif""</stim_listA>",is hugging,
null,"<div style=""font-size:60px;"">+</div>",,html-keyboard-response,102,551945,0.0-13.0-0.18,79902,List2A,black,man,,,,null,,,,
null,"<img src=""stim_listA/dance6.gif""</stim_listA>",,html-keyboard-response,103,553948,0.0-13.0-1.18,79902,List2A,black,man,,,,null,,,,
null,are dancing with each other,,html-keyboard-response,104,555950,0.0-13.0-2.18,79902,List2A,black,man,,,,null,,,,
10766,,,survey-text,105,566718,0.0-13.0-3.18,79902,List2A,black,man,,,,,"{""Q0"":""fred and dave are dancing""}","<img src=""stim_listA/dance6.gif""</stim_listA>",are dancing with each other,
null,"<div style=""font-size:60px;"">+</div>",,html-keyboard-response,106,567220,0.0-13.0-0.19,79902,List2A,black,man,,,,null,,,,
null,"<img src=""stim_listA/meet3.gif""</stim_listA>",,html-keyboard-response,107,569223,0.0-13.0-1.19,79902,List2A,black,man,,,,null,,,,
null,is meeting,,html-keyboard-response,108,571224,0.0-13.0-2.19,79902,List2A,black,man,,,,null,,,,
13753,,,survey-text,109,584979,0.0-13.0-3.19,79902,List2A,black,man,,,,,"{""Q0"":""mike and --- are dancing""}","<img src=""stim_listA/meet3.gif""</stim_listA>",is meeting,
20090,"<img src='img/portrait_matrix_list2.JPG' style='width:900px;height:500px;''></img><p>If you have memorised all the portraits and names and are ready to start, press Continue.</p><p><strong>Please note: Your memory of these faces will be tested 4 times during this experiment.</strong></p>",0,html-button-response,110,605072,0.0-14.0-0.0,79902,List2A,black,man,,,,,,,,
2245,"<img src=""portrait/BM2.jpg""style=""width:400px;height:400px;""></img>",5,html-button-response,111,608324,0.0-14.0-1.0,79902,List2A,black,man,,TRUE,5,,,,,
null,CORRECT,,html-keyboard-response,112,609826,0.0-14.0-2.0-0.0,79902,List2A,black,man,,,,null,,,,
2962,"<img src=""portrait/WM2.jpg""style=""width:400px;height:400px;""></img>",7,html-button-response,113,612791,0.0-14.0-4.0,79902,List2A,black,man,,TRUE,7,,,,,
null,CORRECT,,html-keyboard-response,114,614292,0.0-14.0-5.0-0.0,79902,List2A,black,man,,,,null,,,,
2365,"<img src=""portrait/BW1.jpg""style=""width:400px;height:400px;""></img>",0,html-button-response,115,616660,0.0-14.0-7.0,79902,List2A,black,man,,TRUE,0,,,,,
null,CORRECT,,html-keyboard-response,116,618162,0.0-14.0-8.0-0.0,79902,List2A,black,man,,,,null,,,,
4924,"<img src=""portrait/WM1.jpg""style=""width:400px;height:400px;""></img>",6,html-button-response,117,623091,0.0-14.0-10.0,79902,List2A,black,man,,TRUE,6,,,,,
null,CORRECT,,html-keyboard-response,118,624593,0.0-14.0-11.0-0.0,79902,List2A,black,man,,,,null,,,,
1524,"<img src=""portrait/WW2.jpg""style=""width:400px;height:400px;""></img>",3,html-button-response,119,626119,0.0-14.0-13.0,79902,List2A,black,man,,TRUE,3,,,,,
null,CORRECT,,html-keyboard-response,120,627621,0.0-14.0-14.0-0.0,79902,List2A,black,man,,,,null,,,,
3076,"<img src=""portrait/BW2.jpg""style=""width:400px;height:400px;""></img>",2,html-button-response,121,630701,0.0-14.0-16.0,79902,List2A,black,man,,TRUE,2,,,,,
null,CORRECT,,html-keyboard-response,122,632203,0.0-14.0-17.0-0.0,79902,List2A,black,man,,,,null,,,,
2174,"<img src=""portrait/BM1.jpg""style=""width:400px;height:400px;""></img>",4,html-button-response,123,634380,0.0-14.0-19.0,79902,List2A,black,man,,TRUE,4,,,,,
null,CORRECT,,html-keyboard-response,124,635882,0.0-14.0-20.0-0.0,79902,List2A,black,man,,,,null,,,,
2016,"<img src=""portrait/WW1.jpg""style=""width:400px;height:400px;""></img>",1,html-button-response,125,637902,0.0-14.0-22.0,79902,List2A,black,man,,TRUE,1,,,,,
null,CORRECT,,html-keyboard-response,126,639404,0.0-14.0-23.0-0.0,79902,List2A,black,man,,,,null,,,,
1549,<p>You got 8 out of 8 right first time. Press Continue.</p>,0,html-button-response,127,640955,0.0-14.0-25.0,79902,List2A,black,man,,,,,,,,
null,"<div style=""font-size:60px;"">+</div>",,html-keyboard-response,128,642457,0.0-15.0-0.0,79902,List2A,black,man,,,,null,,,,
null,"<img src=""stim_listA/marry3.gif""</stim_listA>",,html-keyboard-response,129,644459,0.0-15.0-1.0,79902,List2A,black,man,,,,null,,,,
null,is marrying,,html-keyboard-response,130,646460,0.0-15.0-2.0,79902,List2A,black,man,,,,null,,,,
12861,,,survey-text,131,659323,0.0-15.0-3.0,79902,List2A,black,man,,,,,"{""Q0"":""beth is marrying mike""}","<img src=""stim_listA/marry3.gif""</stim_listA>",is marrying,
null,"<div style=""font-size:60px;"">+</div>",,html-keyboard-response,132,659825,0.0-15.0-0.1,79902,List2A,black,man,,,,null,,,,
null,"<img src=""stim_listA/dance5.gif""</stim_listA>",,html-keyboard-response,133,661828,0.0-15.0-1.1,79902,List2A,black,man,,,,null,,,,
null,is dancing with,,html-keyboard-response,134,663829,0.0-15.0-2.1,79902,List2A,black,man,,,,null,,,,
13367,,,survey-text,135,677198,0.0-15.0-3.1,79902,List2A,black,man,,,,,"{""Q0"":""mike is dancing with luke""}","<img src=""stim_listA/dance5.gif""</stim_listA>",is dancing with,
null,"<div style=""font-size:60px;"">+</div>",,html-keyboard-response,136,677700,0.0-15.0-0.2,79902,List2A,black,man,,,,null,,,,
null,"<img src=""stim_listA/shout6.gif""</stim_listA>",,html-keyboard-response,137,679703,0.0-15.0-1.2,79902,List2A,black,man,,,,null,,,,
null,are shouting at each other,,html-keyboard-response,138,681705,0.0-15.0-2.2,79902,List2A,black,man,,,,null,,,,
17731,,,survey-text,139,699438,0.0-15.0-3.2,79902,List2A,black,man,,,,,"{""Q0"":""mike and dave are shouting at each other""}","<img src=""stim_listA/shout6.gif""</stim_listA>",are shouting at each other,
null,"<div style=""font-size:60px;"">+</div>",,html-keyboard-response,140,699940,0.0-15.0-0.3,79902,List2A,black,man,,,,null,,,,
null,"<img src=""stim_listA/marry2.gif""</stim_listA>",,html-keyboard-response,141,701942,0.0-15.0-1.3,79902,List2A,black,man,,,,null,,,,
null,are marrying each other,,html-keyboard-response,142,703944,0.0-15.0-2.3,79902,List2A,black,man,,,,null,,,,
16785,,,survey-text,143,720731,0.0-15.0-3.3,79902,List2A,black,man,,,,,"{""Q0"":""jane and luke are marrying""}","<img src=""stim_listA/marry2.gif""</stim_listA>",are marrying each other,
null,"<div style=""font-size:60px;"">+</div>",,html-keyboard-response,144,721233,0.0-15.0-0.4,79902,List2A,black,man,,,,null,,,,
null,"<img src=""stim_listA/argue8.gif""</stim_listA>",,html-keyboard-response,145,723236,0.0-15.0-1.4,79902,List2A,black,man,,,,null,,,,
null,are arguing with each other,,html-keyboard-response,146,725238,0.0-15.0-2.4,79902,List2A,black,man,,,,null,,,,
12250,,,survey-text,147,737490,0.0-15.0-3.4,79902,List2A,black,man,,,,,"{""Q0"":""kate and ruth are arguing""}","<img src=""stim_listA/argue8.gif""</stim_listA>",are arguing with each other,
null,"<div style=""font-size:60px;"">+</div>",,html-keyboard-response,148,737992,0.0-15.0-0.5,79902,List2A,black,man,,,,null,,,,
null,"<img src=""stim_listA/talk8.gif""</stim_listA>",,html-keyboard-response,149,739995,0.0-15.0-1.5,79902,List2A,black,man,,,,null,,,,
null,are talking to each other,,html-keyboard-response,150,741997,0.0-15.0-2.5,79902,List2A,black,man,,,,null,,,,
18913,,,survey-text,151,760912,0.0-15.0-3.5,79902,List2A,black,man,,,,,"{""Q0"":""jane and beth are talking to each other""}","<img src=""stim_listA/talk8.gif""</stim_listA>",are talking to each other,
null,"<div style=""font-size:60px;"">+</div>",,html-keyboard-response,152,761414,0.0-15.0-0.6,79902,List2A,black,man,,,,null,,,,
null,"<img src=""stim_listA/kiss8.gif""</stim_listA>",,html-keyboard-response,153,763417,0.0-15.0-1.6,79902,List2A,black,man,,,,null,,,,
null,are kissing each other,,html-keyboard-response,154,765419,0.0-15.0-2.6,79902,List2A,black,man,,,,null,,,,
12423,,,survey-text,155,777844,0.0-15.0-3.6,79902,List2A,black,man,,,,,"{""Q0"":""jane and kate are kissing""}","<img src=""stim_listA/kiss8.gif""</stim_listA>",are kissing each other,
null,"<div style=""font-size:60px;"">+</div>",,html-keyboard-response,156,778346,0.0-15.0-0.7,79902,List2A,black,man,,,,null,,,,
null,"<img src=""stim_listA/touch1.gif""</stim_listA>",,html-keyboard-response,157,780348,0.0-15.0-1.7,79902,List2A,black,man,,,,null,,,,
null,is touching,,html-keyboard-response,158,782349,0.0-15.0-2.7,79902,List2A,black,man,,,,null,,,,
11138,,,survey-text,159,793490,0.0-15.0-3.7,79902,List2A,black,man,,,,,"{""Q0"":""jane and dave are touching""}","<img src=""stim_listA/touch1.gif""</stim_listA>",is touching,
null,"<div style=""font-size:60px;"">+</div>",,html-keyboard-response,160,793992,0.0-15.0-0.8,79902,List2A,black,man,,,,null,,,,
null,"<img src=""stim_listA/kiss4.gif""</stim_listA>",,html-keyboard-response,161,795995,0.0-15.0-1.8,79902,List2A,black,man,,,,null,,,,
null,are kissing each other,,html-keyboard-response,162,797997,0.0-15.0-2.8,79902,List2A,black,man,,,,null,,,,
14884,,,survey-text,163,812885,0.0-15.0-3.8,79902,List2A,black,man,,,,,"{""Q0"":""mike and kate are kissing each other""}","<img src=""stim_listA/kiss4.gif""</stim_listA>",are kissing each other,
null,"<div style=""font-size:60px;"">+</div>",,html-keyboard-response,164,813387,0.0-15.0-0.9,79902,List2A,black,man,,,,null,,,,
null,"<img src=""stim_listA/fight2.gif""</stim_listA>",,html-keyboard-response,165,815390,0.0-15.0-1.9,79902,List2A,black,man,,,,null,,,,
null,are fighting each other,,html-keyboard-response,166,817391,0.0-15.0-2.9,79902,List2A,black,man,,,,null,,,,
12051,,,survey-text,167,829444,0.0-15.0-3.9,79902,List2A,black,man,,,,,"{""Q0"":""ruth  and luke are figthing""}","<img src=""stim_listA/fight2.gif""</stim_listA>",are fighting each other,
null,"<div style=""font-size:60px;"">+</div>",,html-keyboard-response,168,829946,0.0-15.0-0.10,79902,List2A,black,man,,,,null,,,,
null,"<img src=""stim_listA/kiss6.gif""</stim_listA>",,html-keyboard-response,169,831949,0.0-15.0-1.10,79902,List2A,black,man,,,,null,,,,
null,are kissing each other,,html-keyboard-response,170,833950,0.0-15.0-2.10,79902,List2A,black,man,,,,null,,,,
15636,,,survey-text,171,849588,0.0-15.0-3.10,79902,List2A,black,man,,,,,"{""Q0"":""mike and dave are kissing each other""}","<img src=""stim_listA/kiss6.gif""</stim_listA>",are kissing each other,
null,"<div style=""font-size:60px;"">+</div>",,html-keyboard-response,172,850090,0.0-15.0-0.11,79902,List2A,black,man,,,,null,,,,
null,"<img src=""stim_listA/argue6.gif""</stim_listA>",,html-keyboard-response,173,852092,0.0-15.0-1.11,79902,List2A,black,man,,,,null,,,,
null,are arguing with each other,,html-keyboard-response,174,854093,0.0-15.0-2.11,79902,List2A,black,man,,,,null,,,,
24305,,,survey-text,175,878400,0.0-15.0-3.11,79902,List2A,black,man,,,,,"{""Q0"":""luke and mike are arguing ""}","<img src=""stim_listA/argue6.gif""</stim_listA>",are arguing with each other,
null,"<div style=""font-size:60px;"">+</div>",,html-keyboard-response,176,878902,0.0-15.0-0.12,79902,List2A,black,man,,,,null,,,,
null,"<img src=""stim_listA/fight6.gif""</stim_listA>",,html-keyboard-response,177,880904,0.0-15.0-1.12,79902,List2A,black,man,,,,null,,,,
null,are fighting each other,,html-keyboard-response,178,882906,0.0-15.0-2.12,79902,List2A,black,man,,,,null,,,,
11367,,,survey-text,179,894275,0.0-15.0-3.12,79902,List2A,black,man,,,,,"{""Q0"":""luke and fred are figthing""}","<img src=""stim_listA/fight6.gif""</stim_listA>",are fighting each other,
null,"<div style=""font-size:60px;"">+</div>",,html-keyboard-response,180,894777,0.0-15.0-0.13,79902,List2A,black,man,,,,null,,,,
null,"<img src=""stim_listA/fight7.gif""</stim_listA>",,html-keyboard-response,181,896781,0.0-15.0-1.13,79902,List2A,black,man,,,,null,,,,
null,is fighting,,html-keyboard-response,182,898782,0.0-15.0-2.13,79902,List2A,black,man,,,,null,,,,
12204,,,survey-text,183,910988,0.0-15.0-3.13,79902,List2A,black,man,,,,,"{""Q0"":""kate is figthing jane""}","<img src=""stim_listA/fight7.gif""</stim_listA>",is fighting,
null,"<div style=""font-size:60px;"">+</div>",,html-keyboard-response,184,911490,0.0-15.0-0.14,79902,List2A,black,man,,,,null,,,,
null,"<img src=""stim_listA/meet7.gif""</stim_listA>",,html-keyboard-response,185,913492,0.0-15.0-1.14,79902,List2A,black,man,,,,null,,,,
null,is meeting,,html-keyboard-response,186,915493,0.0-15.0-2.14,79902,List2A,black,man,,,,null,,,,
6909,,,survey-text,187,922405,0.0-15.0-3.14,79902,List2A,black,man,,,,,"{""Q0"":""kate is meeting jane""}","<img src=""stim_listA/meet7.gif""</stim_listA>",is meeting,
null,"<div style=""font-size:60px;"">+</div>",,html-keyboard-response,188,922907,0.0-15.0-0.15,79902,List2A,black,man,,,,null,,,,
null,"<img src=""stim_listA/fight3.gif""</stim_listA>",,html-keyboard-response,189,924909,0.0-15.0-1.15,79902,List2A,black,man,,,,null,,,,
null,is fighting,,html-keyboard-response,190,926911,0.0-15.0-2.15,79902,List2A,black,man,,,,null,,,,
8660,,,survey-text,191,935573,0.0-15.0-3.15,79902,List2A,black,man,,,,,"{""Q0"":""kate is figthing mike""}","<img src=""stim_listA/fight3.gif""</stim_listA>",is fighting,
null,"<div style=""font-size:60px;"">+</div>",,html-keyboard-response,192,936074,0.0-15.0-0.16,79902,List2A,black,man,,,,null,,,,
null,"<img src=""stim_listA/meet6.gif""</stim_listA>",,html-keyboard-response,193,938077,0.0-15.0-1.16,79902,List2A,black,man,,,,null,,,,
null,are meeting each other,,html-keyboard-response,194,940078,0.0-15.0-2.16,79902,List2A,black,man,,,,null,,,,
8596,,,survey-text,195,948677,0.0-15.0-3.16,79902,List2A,black,man,,,,,"{""Q0"":""fred is meeting luke""}","<img src=""stim_listA/meet6.gif""</stim_listA>",are meeting each other,
null,"<div style=""font-size:60px;"">+</div>",,html-keyboard-response,196,949180,0.0-15.0-0.17,79902,List2A,black,man,,,,null,,,,
null,"<img src=""stim_listA/shout3.gif""</stim_listA>",,html-keyboard-response,197,951182,0.0-15.0-1.17,79902,List2A,black,man,,,,null,,,,
null,is shouting at,,html-keyboard-response,198,953184,0.0-15.0-2.17,79902,List2A,black,man,,,,null,,,,
15016,,,survey-text,199,968202,0.0-15.0-3.17,79902,List2A,black,man,,,,,"{""Q0"":""fred is shouting at beth""}","<img src=""stim_listA/shout3.gif""</stim_listA>",is shouting at,
null,"<div style=""font-size:60px;"">+</div>",,html-keyboard-response,200,968704,0.0-15.0-0.18,79902,List2A,black,man,,,,null,,,,
null,"<img src=""stim_listA/fight4.gif""</stim_listA>",,html-keyboard-response,201,970706,0.0-15.0-1.18,79902,List2A,black,man,,,,null,,,,
null,are fighting each other,,html-keyboard-response,202,972708,0.0-15.0-2.18,79902,List2A,black,man,,,,null,,,,
16001,,,survey-text,203,988711,0.0-15.0-3.18,79902,List2A,black,man,,,,,"{""Q0"":""beth and fred are figthing each other""}","<img src=""stim_listA/fight4.gif""</stim_listA>",are fighting each other,
null,"<div style=""font-size:60px;"">+</div>",,html-keyboard-response,204,989213,0.0-15.0-0.19,79902,List2A,black,man,,,,null,,,,
null,"<img src=""stim_listA/shout1.gif""</stim_listA>",,html-keyboard-response,205,991216,0.0-15.0-1.19,79902,List2A,black,man,,,,null,,,,
null,is shouting at,,html-keyboard-response,206,993217,0.0-15.0-2.19,79902,List2A,black,man,,,,null,,,,
12109,,,survey-text,207,1005328,0.0-15.0-3.19,79902,List2A,black,man,,,,,"{""Q0"":""ruth is shouting at luke""}","<img src=""stim_listA/shout1.gif""</stim_listA>",is shouting at,
4196,"<img src='img/portrait_matrix_list2.JPG' style='width:900px;height:500px;''></img><p>If you have memorised all the portraits and names and are ready to start, press Continue.</p><p><strong>Please note: Your memory of these faces will be tested 4 times during this experiment.</strong></p>",0,html-button-response,208,1009528,0.0-16.0-0.0,79902,List2A,black,man,,,,,,,,
2107,"<img src=""portrait/WM1.jpg""style=""width:400px;height:400px;""></img>",6,html-button-response,209,1012639,0.0-16.0-1.0,79902,List2A,black,man,,TRUE,6,,,,,
null,CORRECT,,html-keyboard-response,210,1014141,0.0-16.0-2.0-0.0,79902,List2A,black,man,,,,null,,,,
2022,"<img src=""portrait/WW1.jpg""style=""width:400px;height:400px;""></img>",1,html-button-response,211,1016166,0.0-16.0-4.0,79902,List2A,black,man,,TRUE,1,,,,,
null,CORRECT,,html-keyboard-response,212,1017668,0.0-16.0-5.0-0.0,79902,List2A,black,man,,,,null,,,,
2140,"<img src=""portrait/BW2.jpg""style=""width:400px;height:400px;""></img>",2,html-button-response,213,1019811,0.0-16.0-7.0,79902,List2A,black,man,,TRUE,2,,,,,
null,CORRECT,,html-keyboard-response,214,1021313,0.0-16.0-8.0-0.0,79902,List2A,black,man,,,,null,,,,
2522,"<img src=""portrait/WM2.jpg""style=""width:400px;height:400px;""></img>",7,html-button-response,215,1023838,0.0-16.0-10.0,79902,List2A,black,man,,TRUE,7,,,,,
null,CORRECT,,html-keyboard-response,216,1025340,0.0-16.0-11.0-0.0,79902,List2A,black,man,,,,null,,,,
1858,"<img src=""portrait/BM2.jpg""style=""width:400px;height:400px;""></img>",5,html-button-response,217,1027204,0.0-16.0-13.0,79902,List2A,black,man,,TRUE,5,,,,,
null,CORRECT,,html-keyboard-response,218,1028706,0.0-16.0-14.0-0.0,79902,List2A,black,man,,,,null,,,,
3453,"<img src=""portrait/WW2.jpg""style=""width:400px;height:400px;""></img>",3,html-button-response,219,1032161,0.0-16.0-16.0,79902,List2A,black,man,,TRUE,3,,,,,
null,CORRECT,,html-keyboard-response,220,1033664,0.0-16.0-17.0-0.0,79902,List2A,black,man,,,,null,,,,
1977,"<img src=""portrait/BM1.jpg""style=""width:400px;height:400px;""></img>",4,html-button-response,221,1035646,0.0-16.0-19.0,79902,List2A,black,man,,TRUE,4,,,,,
null,CORRECT,,html-keyboard-response,222,1037148,0.0-16.0-20.0-0.0,79902,List2A,black,man,,,,null,,,,
3725,"<img src=""portrait/BW1.jpg""style=""width:400px;height:400px;""></img>",0,html-button-response,223,1040876,0.0-16.0-22.0,79902,List2A,black,man,,TRUE,0,,,,,
null,CORRECT,,html-keyboard-response,224,1042378,0.0-16.0-23.0-0.0,79902,List2A,black,man,,,,null,,,,
2123,<p>You got 8 out of 8 right first time. Press Continue.</p>,0,html-button-response,225,1044503,0.0-16.0-25.0,79902,List2A,black,man,,,,,,,,
null,"<div style=""font-size:60px;"">+</div>",,html-keyboard-response,226,1046005,0.0-17.0-0.0,79902,List2A,black,man,,,,null,,,,
null,"<img src=""stim_listA/argue1.gif""</stim_listA>",,html-keyboard-response,227,1048007,0.0-17.0-1.0,79902,List2A,black,man,,,,null,,,,
null,is arguing with,,html-keyboard-response,228,1050008,0.0-17.0-2.0,79902,List2A,black,man,,,,null,,,,
16355,,,survey-text,229,1066364,0.0-17.0-3.0,79902,List2A,black,man,,,,,"{""Q0"":""ruth is arguing with dave""}","<img src=""stim_listA/argue1.gif""</stim_listA>",is arguing with,
null,"<div style=""font-size:60px;"">+</div>",,html-keyboard-response,230,1066866,0.0-17.0-0.1,79902,List2A,black,man,,,,null,,,,
null,"<img src=""stim_listA/marry8.gif""</stim_listA>",,html-keyboard-response,231,1068869,0.0-17.0-1.1,79902,List2A,black,man,,,,null,,,,
null,are marrying each other,,html-keyboard-response,232,1070870,0.0-17.0-2.1,79902,List2A,black,man,,,,null,,,,
6855,,,survey-text,233,1077727,0.0-17.0-3.1,79902,List2A,black,man,,,,,"{""Q0"":""ruth and kate ""}","<img src=""stim_listA/marry8.gif""</stim_listA>",are marrying each other,
null,"<div style=""font-size:60px;"">+</div>",,html-keyboard-response,234,1078229,0.0-17.0-0.2,79902,List2A,black,man,,,,null,,,,
null,"<img src=""stim_listA/argue5.gif""</stim_listA>",,html-keyboard-response,235,1080232,0.0-17.0-1.2,79902,List2A,black,man,,,,null,,,,
null,is arguing with,,html-keyboard-response,236,1082234,0.0-17.0-2.2,79902,List2A,black,man,,,,null,,,,
11846,,,survey-text,237,1094082,0.0-17.0-3.2,79902,List2A,black,man,,,,,"{""Q0"":""fred is arguing with dave""}","<img src=""stim_listA/argue5.gif""</stim_listA>",is arguing with,
null,"<div style=""font-size:60px;"">+</div>",,html-keyboard-response,238,1094584,0.0-17.0-0.3,79902,List2A,black,man,,,,null,,,,
null,"<img src=""stim_listA/marry6.gif""</stim_listA>",,html-keyboard-response,239,1096587,0.0-17.0-1.3,79902,List2A,black,man,,,,null,,,,
null,are marrying each other,,html-keyboard-response,240,1098588,0.0-17.0-2.3,79902,List2A,black,man,,,,null,,,,
19325,,,survey-text,241,1117915,0.0-17.0-3.3,79902,List2A,black,man,,,,,"{""Q0"":""mike and luke are marrying""}","<img src=""stim_listA/marry6.gif""</stim_listA>",are marrying each other,
null,"<div style=""font-size:60px;"">+</div>",,html-keyboard-response,242,1118417,0.0-17.0-0.4,79902,List2A,black,man,,,,null,,,,
null,"<img src=""stim_listA/hug4.gif""</stim_listA>",,html-keyboard-response,243,1120419,0.0-17.0-1.4,79902,List2A,black,man,,,,null,,,,
null,are hugging each other,,html-keyboard-response,244,1122421,0.0-17.0-2.4,79902,List2A,black,man,,,,null,,,,
16818,,,survey-text,245,1139241,0.0-17.0-3.4,79902,List2A,black,man,,,,,"{""Q0"":""kate and mike are hugging each other""}","<img src=""stim_listA/hug4.gif""</stim_listA>",are hugging each other,
null,"<div style=""font-size:60px;"">+</div>",,html-keyboard-response,246,1139743,0.0-17.0-0.5,79902,List2A,black,man,,,,null,,,,
null,"<img src=""stim_listA/shout8.gif""</stim_listA>",,html-keyboard-response,247,1141746,0.0-17.0-1.5,79902,List2A,black,man,,,,null,,,,
null,are shouting at each other,,html-keyboard-response,248,1143748,0.0-17.0-2.5,79902,List2A,black,man,,,,null,,,,
25640,,,survey-text,249,1169390,0.0-17.0-3.5,79902,List2A,black,man,,,,,"{""Q0"":""jane and kate are shouting each other""}","<img src=""stim_listA/shout8.gif""</stim_listA>",are shouting at each other,
null,"<div style=""font-size:60px;"">+</div>",,html-keyboard-response,250,1169892,0.0-17.0-0.6,79902,List2A,black,man,,,,null,,,,
null,"<img src=""stim_listA/hug6.gif""</stim_listA>",,html-keyboard-response,251,1171895,0.0-17.0-1.6,79902,List2A,black,man,,,,null,,,,
null,are hugging each other,,html-keyboard-response,252,1173896,0.0-17.0-2.6,79902,List2A,black,man,,,,null,,,,
16559,,,survey-text,253,1190458,0.0-17.0-3.6,79902,List2A,black,man,,,,,"{""Q0"":""mike and dave are hugging""}","<img src=""stim_listA/hug6.gif""</stim_listA>",are hugging each other,
null,"<div style=""font-size:60px;"">+</div>",,html-keyboard-response,254,1190960,0.0-17.0-0.7,79902,List2A,black,man,,,,null,,,,
null,"<img src=""stim_listA/touch8.gif""</stim_listA>",,html-keyboard-response,255,1192964,0.0-17.0-1.7,79902,List2A,black,man,,,,null,,,,
null,are touching each other,,html-keyboard-response,256,1194965,0.0-17.0-2.7,79902,List2A,black,man,,,,null,,,,
17775,,,survey-text,257,1212742,0.0-17.0-3.7,79902,List2A,black,man,,,,,"{""Q0"":""beth and ruth are touching each other""}","<img src=""stim_listA/touch8.gif""</stim_listA>",are touching each other,
null,"<div style=""font-size:60px;"">+</div>",,html-keyboard-response,258,1213244,0.0-17.0-0.8,79902,List2A,black,man,,,,null,,,,
null,"<img src=""stim_listA/touch5.gif""</stim_listA>",,html-keyboard-response,259,1215247,0.0-17.0-1.8,79902,List2A,black,man,,,,null,,,,
null,is touching,,html-keyboard-response,260,1217248,0.0-17.0-2.8,79902,List2A,black,man,,,,null,,,,
9836,,,survey-text,261,1227087,0.0-17.0-3.8,79902,List2A,black,man,,,,,"{""Q0"":""mike is touching dave""}","<img src=""stim_listA/touch5.gif""</stim_listA>",is touching,
null,"<div style=""font-size:60px;"">+</div>",,html-keyboard-response,262,1227589,0.0-17.0-0.9,79902,List2A,black,man,,,,null,,,,
null,"<img src=""stim_listA/meet1.gif""</stim_listA>",,html-keyboard-response,263,1229592,0.0-17.0-1.9,79902,List2A,black,man,,,,null,,,,
null,is meeting,,html-keyboard-response,264,1231594,0.0-17.0-2.9,79902,List2A,black,man,,,,null,,,,
7969,,,survey-text,265,1239565,0.0-17.0-3.9,79902,List2A,black,man,,,,,"{""Q0"":""jane is meeting dave""}","<img src=""stim_listA/meet1.gif""</stim_listA>",is meeting,
null,"<div style=""font-size:60px;"">+</div>",,html-keyboard-response,266,1240067,0.0-17.0-0.10,79902,List2A,black,man,,,,null,,,,
null,"<img src=""stim_listA/dance3.gif""</stim_listA>",,html-keyboard-response,267,1242069,0.0-17.0-1.10,79902,List2A,black,man,,,,null,,,,
null,is dancing with,,html-keyboard-response,268,1244070,0.0-17.0-2.10,79902,List2A,black,man,,,,null,,,,
11946,,,survey-text,269,1256018,0.0-17.0-3.10,79902,List2A,black,man,,,,,"{""Q0"":""kate is dancing with fred""}","<img src=""stim_listA/dance3.gif""</stim_listA>",is dancing with,
null,"<div style=""font-size:60px;"">+</div>",,html-keyboard-response,270,1256520,0.0-17.0-0.11,79902,List2A,black,man,,,,null,,,,
null,"<img src=""stim_listA/talk3.gif""</stim_listA>",,html-keyboard-response,271,1258523,0.0-17.0-1.11,79902,List2A,black,man,,,,null,,,,
null,is talking to,,html-keyboard-response,272,1260525,0.0-17.0-2.11,79902,List2A,black,man,,,,null,,,,
15919,,,survey-text,273,1276447,0.0-17.0-3.11,79902,List2A,black,man,,,,,"{""Q0"":""fred is talking to kate""}","<img src=""stim_listA/talk3.gif""</stim_listA>",is talking to,
null,"<div style=""font-size:60px;"">+</div>",,html-keyboard-response,274,1276949,0.0-17.0-0.12,79902,List2A,black,man,,,,null,,,,
null,"<img src=""stim_listA/marry7.gif""</stim_listA>",,html-keyboard-response,275,1278952,0.0-17.0-1.12,79902,List2A,black,man,,,,null,,,,
null,is marrying,,html-keyboard-response,276,1280953,0.0-17.0-2.12,79902,List2A,black,man,,,,null,,,,
16552,,,survey-text,277,1297507,0.0-17.0-3.12,79902,List2A,black,man,,,,,"{""Q0"":""beth is marrying jane""}","<img src=""stim_listA/marry7.gif""</stim_listA>",is marrying,
null,"<div style=""font-size:60px;"">+</div>",,html-keyboard-response,278,1298009,0.0-17.0-0.13,79902,List2A,black,man,,,,null,,,,
null,"<img src=""stim_listA/fight1.gif""</stim_listA>",,html-keyboard-response,279,1300011,0.0-17.0-1.13,79902,List2A,black,man,,,,null,,,,
null,is fighting,,html-keyboard-response,280,1302013,0.0-17.0-2.13,79902,List2A,black,man,,,,null,,,,
10473,,,survey-text,281,1312488,0.0-17.0-3.13,79902,List2A,black,man,,,,,"{""Q0"":""jane is figthing dave""}","<img src=""stim_listA/fight1.gif""</stim_listA>",is fighting,
null,"<div style=""font-size:60px;"">+</div>",,html-keyboard-response,282,1312990,0.0-17.0-0.14,79902,List2A,black,man,,,,null,,,,
null,"<img src=""stim_listA/hug8.gif""</stim_listA>",,html-keyboard-response,283,1314993,0.0-17.0-1.14,79902,List2A,black,man,,,,null,,,,
null,are hugging each other,,html-keyboard-response,284,1316995,0.0-17.0-2.14,79902,List2A,black,man,,,,null,,,,
18323,,,survey-text,285,1335320,0.0-17.0-3.14,79902,List2A,black,man,,,,,"{""Q0"":""kate and jane are hugging each other""}","<img src=""stim_listA/hug8.gif""</stim_listA>",are hugging each other,
null,"<div style=""font-size:60px;"">+</div>",,html-keyboard-response,286,1335822,0.0-17.0-0.15,79902,List2A,black,man,,,,null,,,,
null,"<img src=""stim_listA/fight8.gif""</stim_listA>",,html-keyboard-response,287,1337826,0.0-17.0-1.15,79902,List2A,black,man,,,,null,,,,
null,are fighting each other,,html-keyboard-response,288,1339828,0.0-17.0-2.15,79902,List2A,black,man,,,,null,,,,
13560,,,survey-text,289,1353389,0.0-17.0-3.15,79902,List2A,black,man,,,,,"{""Q0"":""beth and ruth are figthing each other""}","<img src=""stim_listA/fight8.gif""</stim_listA>",are fighting each other,
null,"<div style=""font-size:60px;"">+</div>",,html-keyboard-response,290,1353891,0.0-17.0-0.16,79902,List2A,black,man,,,,null,,,,
null,"<img src=""stim_listA/kiss1.gif""</stim_listA>",,html-keyboard-response,291,1355894,0.0-17.0-1.16,79902,List2A,black,man,,,,null,,,,
null,is kissing,,html-keyboard-response,292,1357895,0.0-17.0-2.16,79902,List2A,black,man,,,,null,,,,
9507,,,survey-text,293,1367404,0.0-17.0-3.16,79902,List2A,black,man,,,,,"{""Q0"":""luke is kissing ruth""}","<img src=""stim_listA/kiss1.gif""</stim_listA>",is kissing,
null,"<div style=""font-size:60px;"">+</div>",,html-keyboard-response,294,1367906,0.0-17.0-0.17,79902,List2A,black,man,,,,null,,,,
null,"<img src=""stim_listA/shout4.gif""</stim_listA>",,html-keyboard-response,295,1369908,0.0-17.0-1.17,79902,List2A,black,man,,,,null,,,,
null,are shouting at each other,,html-keyboard-response,296,1371910,0.0-17.0-2.17,79902,List2A,black,man,,,,null,,,,
10387,,,survey-text,297,1382299,0.0-17.0-3.17,79902,List2A,black,man,,,,,"{""Q0"":""none sorry ""}","<img src=""stim_listA/shout4.gif""</stim_listA>",are shouting at each other,
null,"<div style=""font-size:60px;"">+</div>",,html-keyboard-response,298,1382801,0.0-17.0-0.18,79902,List2A,black,man,,,,null,,,,
null,"<img src=""stim_listA/talk4.gif""</stim_listA>",,html-keyboard-response,299,1384803,0.0-17.0-1.18,79902,List2A,black,man,,,,null,,,,
null,are talking to each other,,html-keyboard-response,300,1386805,0.0-17.0-2.18,79902,List2A,black,man,,,,null,,,,
9625,,,survey-text,301,1396432,0.0-17.0-3.18,79902,List2A,black,man,,,,,"{""Q0"":""mike and beth are talking""}","<img src=""stim_listA/talk4.gif""</stim_listA>",are talking to each other,
null,"<div style=""font-size:60px;"">+</div>",,html-keyboard-response,302,1396934,0.0-17.0-0.19,79902,List2A,black,man,,,,null,,,,
null,"<img src=""stim_listA/dance4.gif""</stim_listA>",,html-keyboard-response,303,1398936,0.0-17.0-1.19,79902,List2A,black,man,,,,null,,,,
null,are dancing with each other,,html-keyboard-response,304,1400938,0.0-17.0-2.19,79902,List2A,black,man,,,,null,,,,
11880,,,survey-text,305,1412820,0.0-17.0-3.19,79902,List2A,black,man,,,,,"{""Q0"":""mike and beth are dancing each other""}","<img src=""stim_listA/dance4.gif""</stim_listA>",are dancing with each other,
6196,"<img src='img/portrait_matrix_list2.JPG' style='width:900px;height:500px;''></img><p>If you have memorised all the portraits and names and are ready to start, press Continue.</p><p><strong>Please note: Your memory of these faces will be tested 4 times during this experiment.</strong></p>",0,html-button-response,306,1419019,0.0-18.0-0.0,79902,List2A,black,man,,,,,,,,
1893,"<img src=""portrait/BM2.jpg""style=""width:400px;height:400px;""></img>",5,html-button-response,307,1421916,0.0-18.0-1.0,79902,List2A,black,man,,TRUE,5,,,,,
null,CORRECT,,html-keyboard-response,308,1423418,0.0-18.0-2.0-0.0,79902,List2A,black,man,,,,null,,,,
2062,"<img src=""portrait/WW1.jpg""style=""width:400px;height:400px;""></img>",1,html-button-response,309,1425484,0.0-18.0-4.0,79902,List2A,black,man,,TRUE,1,,,,,
null,CORRECT,,html-keyboard-response,310,1426986,0.0-18.0-5.0-0.0,79902,List2A,black,man,,,,null,,,,
1443,"<img src=""portrait/BM1.jpg""style=""width:400px;height:400px;""></img>",4,html-button-response,311,1428434,0.0-18.0-7.0,79902,List2A,black,man,,TRUE,4,,,,,
null,CORRECT,,html-keyboard-response,312,1429936,0.0-18.0-8.0-0.0,79902,List2A,black,man,,,,null,,,,
1865,"<img src=""portrait/WM1.jpg""style=""width:400px;height:400px;""></img>",6,html-button-response,313,1431804,0.0-18.0-10.0,79902,List2A,black,man,,TRUE,6,,,,,
null,CORRECT,,html-keyboard-response,314,1433306,0.0-18.0-11.0-0.0,79902,List2A,black,man,,,,null,,,,
1441,"<img src=""portrait/WM2.jpg""style=""width:400px;height:400px;""></img>",7,html-button-response,315,1434750,0.0-18.0-13.0,79902,List2A,black,man,,TRUE,7,,,,,
null,CORRECT,,html-keyboard-response,316,1436253,0.0-18.0-14.0-0.0,79902,List2A,black,man,,,,null,,,,
1947,"<img src=""portrait/BW1.jpg""style=""width:400px;height:400px;""></img>",0,html-button-response,317,1438203,0.0-18.0-16.0,79902,List2A,black,man,,TRUE,0,,,,,
null,CORRECT,,html-keyboard-response,318,1439705,0.0-18.0-17.0-0.0,79902,List2A,black,man,,,,null,,,,
3662,"<img src=""portrait/BW2.jpg""style=""width:400px;height:400px;""></img>",2,html-button-response,319,1443371,0.0-18.0-19.0,79902,List2A,black,man,,TRUE,2,,,,,
null,CORRECT,,html-keyboard-response,320,1444873,0.0-18.0-20.0-0.0,79902,List2A,black,man,,,,null,,,,
2944,"<img src=""portrait/WW2.jpg""style=""width:400px;height:400px;""></img>",3,html-button-response,321,1447823,0.0-18.0-22.0,79902,List2A,black,man,,TRUE,3,,,,,
null,CORRECT,,html-keyboard-response,322,1449325,0.0-18.0-23.0-0.0,79902,List2A,black,man,,,,null,,,,
1610,<p>You got 8 out of 8 right first time. Press Continue.</p>,0,html-button-response,323,1450937,0.0-18.0-25.0,79902,List2A,black,man,,,,,,,,
null,"<div style=""font-size:60px;"">+</div>",,html-keyboard-response,324,1452439,0.0-19.0-0.0,79902,List2A,black,man,,,,null,,,,
null,"<img src=""stim_listA/touch6.gif""</stim_listA>",,html-keyboard-response,325,1454442,0.0-19.0-1.0,79902,List2A,black,man,,,,null,,,,
null,are touching each other,,html-keyboard-response,326,1456444,0.0-19.0-2.0,79902,List2A,black,man,,,,null,,,,
18332,,,survey-text,327,1474779,0.0-19.0-3.0,79902,List2A,black,man,,,,,"{""Q0"":""fred and luke are touching each other""}","<img src=""stim_listA/touch6.gif""</stim_listA>",are touching each other,
null,"<div style=""font-size:60px;"">+</div>",,html-keyboard-response,328,1475281,0.0-19.0-0.1,79902,List2A,black,man,,,,null,,,,
null,"<img src=""stim_listA/dance7.gif""</stim_listA>",,html-keyboard-response,329,1477283,0.0-19.0-1.1,79902,List2A,black,man,,,,null,,,,
null,is dancing with,,html-keyboard-response,330,1479284,0.0-19.0-2.1,79902,List2A,black,man,,,,null,,,,
14800,,,survey-text,331,1494087,0.0-19.0-3.1,79902,List2A,black,man,,,,,"{""Q0"":""kate are dancing with ruth""}","<img src=""stim_listA/dance7.gif""</stim_listA>",is dancing with,
null,"<div style=""font-size:60px;"">+</div>",,html-keyboard-response,332,1494589,0.0-19.0-0.2,79902,List2A,black,man,,,,null,,,,
null,"<img src=""stim_listA/hug2.gif""</stim_listA>",,html-keyboard-response,333,1496592,0.0-19.0-1.2,79902,List2A,black,man,,,,null,,,,
null,are hugging each other,,html-keyboard-response,334,1498593,0.0-19.0-2.2,79902,List2A,black,man,,,,null,,,,
16217,,,survey-text,335,1514812,0.0-19.0-3.2,79902,List2A,black,man,,,,,"{""Q0"":""jane and dave are hugging each other""}","<img src=""stim_listA/hug2.gif""</stim_listA>",are hugging each other,
null,"<div style=""font-size:60px;"">+</div>",,html-keyboard-response,336,1515314,0.0-19.0-0.3,79902,List2A,black,man,,,,null,,,,
null,"<img src=""stim_listA/argue3.gif""</stim_listA>",,html-keyboard-response,337,1517317,0.0-19.0-1.3,79902,List2A,black,man,,,,null,,,,
null,is arguing with,,html-keyboard-response,338,1519318,0.0-19.0-2.3,79902,List2A,black,man,,,,null,,,,
14488,,,survey-text,339,1533808,0.0-19.0-3.3,79902,List2A,black,man,,,,,"{""Q0"":""blank""}","<img src=""stim_listA/argue3.gif""</stim_listA>",is arguing with,
null,"<div style=""font-size:60px;"">+</div>",,html-keyboard-response,340,1534310,0.0-19.0-0.4,79902,List2A,black,man,,,,null,,,,
null,"<img src=""stim_listA/hug7.gif""</stim_listA>",,html-keyboard-response,341,1536312,0.0-19.0-1.4,79902,List2A,black,man,,,,null,,,,
null,is hugging,,html-keyboard-response,342,1538314,0.0-19.0-2.4,79902,List2A,black,man,,,,null,,,,
12619,,,survey-text,343,1550935,0.0-19.0-3.4,79902,List2A,black,man,,,,,"{""Q0"":""beth and ruth are dancing""}","<img src=""stim_listA/hug7.gif""</stim_listA>",is hugging,
null,"<div style=""font-size:60px;"">+</div>",,html-keyboard-response,344,1551437,0.0-19.0-0.5,79902,List2A,black,man,,,,null,,,,
null,"<img src=""stim_listA/dance2.gif""</stim_listA>",,html-keyboard-response,345,1553440,0.0-19.0-1.5,79902,List2A,black,man,,,,null,,,,
null,are dancing with each other,,html-keyboard-response,346,1555441,0.0-19.0-2.5,79902,List2A,black,man,,,,null,,,,
18226,,,survey-text,347,1573670,0.0-19.0-3.5,79902,List2A,black,man,,,,,"{""Q0"":""ruth and dave are dancing each other""}","<img src=""stim_listA/dance2.gif""</stim_listA>",are dancing with each other,
null,"<div style=""font-size:60px;"">+</div>",,html-keyboard-response,348,1574172,0.0-19.0-0.6,79902,List2A,black,man,,,,null,,,,
null,"<img src=""stim_listA/meet4.gif""</stim_listA>",,html-keyboard-response,349,1576175,0.0-19.0-1.6,79902,List2A,black,man,,,,null,,,,
null,are meeting each other,,html-keyboard-response,350,1578176,0.0-19.0-2.6,79902,List2A,black,man,,,,null,,,,
11548,,,survey-text,351,1589727,0.0-19.0-3.6,79902,List2A,black,man,,,,,"{""Q0"":""beth and fred are meeting each other""}","<img src=""stim_listA/meet4.gif""</stim_listA>",are meeting each other,
null,"<div style=""font-size:60px;"">+</div>",,html-keyboard-response,352,1590229,0.0-19.0-0.7,79902,List2A,black,man,,,,null,,,,
null,"<img src=""stim_listA/talk5.gif""</stim_listA>",,html-keyboard-response,353,1592232,0.0-19.0-1.7,79902,List2A,black,man,,,,null,,,,
null,is talking to,,html-keyboard-response,354,1594233,0.0-19.0-2.7,79902,List2A,black,man,,,,null,,,,
11142,,,survey-text,355,1605377,0.0-19.0-3.7,79902,List2A,black,man,,,,,"{""Q0"":""luke is talking to mike""}","<img src=""stim_listA/talk5.gif""</stim_listA>",is talking to,
null,"<div style=""font-size:60px;"">+</div>",,html-keyboard-response,356,1605879,0.0-19.0-0.8,79902,List2A,black,man,,,,null,,,,
null,"<img src=""stim_listA/shout7.gif""</stim_listA>",,html-keyboard-response,357,1607884,0.0-19.0-1.8,79902,List2A,black,man,,,,null,,,,
null,is shouting at,,html-keyboard-response,358,1609885,0.0-19.0-2.8,79902,List2A,black,man,,,,null,,,,
16372,,,survey-text,359,1626259,0.0-19.0-3.8,79902,List2A,black,man,,,,,"{""Q0"":""ruth is shouting at beth""}","<img src=""stim_listA/shout7.gif""</stim_listA>",is shouting at,
null,"<div style=""font-size:60px;"">+</div>",,html-keyboard-response,360,1626761,0.0-19.0-0.9,79902,List2A,black,man,,,,null,,,,
null,"<img src=""stim_listA/touch3.gif""</stim_listA>",,html-keyboard-response,361,1628764,0.0-19.0-1.9,79902,List2A,black,man,,,,null,,,,
null,is touching,,html-keyboard-response,362,1630766,0.0-19.0-2.9,79902,List2A,black,man,,,,null,,,,
9664,,,survey-text,363,1640432,0.0-19.0-3.9,79902,List2A,black,man,,,,,"{""Q0"":""kate is touching mike""}","<img src=""stim_listA/touch3.gif""</stim_listA>",is touching,
null,"<div style=""font-size:60px;"">+</div>",,html-keyboard-response,364,1640934,0.0-19.0-0.10,79902,List2A,black,man,,,,null,,,,
null,"<img src=""stim_listA/talk2.gif""</stim_listA>",,html-keyboard-response,365,1642937,0.0-19.0-1.10,79902,List2A,black,man,,,,null,,,,
null,are talking to each other,,html-keyboard-response,366,1644938,0.0-19.0-2.10,79902,List2A,black,man,,,,null,,,,
22744,,,survey-text,367,1667684,0.0-19.0-3.10,79902,List2A,black,man,,,,,"{""Q0"":""ruth and dave are talking to each other""}","<img src=""stim_listA/talk2.gif""</stim_listA>",are talking to each other,
null,"<div style=""font-size:60px;"">+</div>",,html-keyboard-response,368,1668186,0.0-19.0-0.11,79902,List2A,black,man,,,,null,,,,
null,"<img src=""stim_listA/talk6.gif""</stim_listA>",,html-keyboard-response,369,1670190,0.0-19.0-1.11,79902,List2A,black,man,,,,null,,,,
null,are talking to each other,,html-keyboard-response,370,1672191,0.0-19.0-2.11,79902,List2A,black,man,,,,null,,,,
17105,,,survey-text,371,1689298,0.0-19.0-3.11,79902,List2A,black,man,,,,,"{""Q0"":""fred and dave are talking to each other""}","<img src=""stim_listA/talk6.gif""</stim_listA>",are talking to each other,
null,"<div style=""font-size:60px;"">+</div>",,html-keyboard-response,372,1689800,0.0-19.0-0.12,79902,List2A,black,man,,,,null,,,,
null,"<img src=""stim_listA/argue7.gif""</stim_listA>",,html-keyboard-response,373,1691803,0.0-19.0-1.12,79902,List2A,black,man,,,,null,,,,
null,is arguing with,,html-keyboard-response,374,1693804,0.0-19.0-2.12,79902,List2A,black,man,,,,null,,,,
16534,,,survey-text,375,1710341,0.0-19.0-3.12,79902,List2A,black,man,,,,,"{""Q0"":""beth is arguing with ruth""}","<img src=""stim_listA/argue7.gif""</stim_listA>",is arguing with,
null,"<div style=""font-size:60px;"">+</div>",,html-keyboard-response,376,1710843,0.0-19.0-0.13,79902,List2A,black,man,,,,null,,,,
null,"<img src=""stim_listA/kiss2.gif""</stim_listA>",,html-keyboard-response,377,1712846,0.0-19.0-1.13,79902,List2A,black,man,,,,null,,,,
null,are kissing each other,,html-keyboard-response,378,1714847,0.0-19.0-2.13,79902,List2A,black,man,,,,null,,,,
18853,,,survey-text,379,1733703,0.0-19.0-3.13,79902,List2A,black,man,,,,,"{""Q0"":""jane and dave are kissing each other""}","<img src=""stim_listA/kiss2.gif""</stim_listA>",are kissing each other,
null,"<div style=""font-size:60px;"">+</div>",,html-keyboard-response,380,1734206,0.0-19.0-0.14,79902,List2A,black,man,,,,null,,,,
null,"<img src=""stim_listA/shout2.gif""</stim_listA>",,html-keyboard-response,381,1736209,0.0-19.0-1.14,79902,List2A,black,man,,,,null,,,,
null,are shouting at each other,,html-keyboard-response,382,1738210,0.0-19.0-2.14,79902,List2A,black,man,,,,null,,,,
24487,,,survey-text,383,1762699,0.0-19.0-3.14,79902,List2A,black,man,,,,,"{""Q0"":""jane and dave are shouting each other""}","<img src=""stim_listA/shout2.gif""</stim_listA>",are shouting at each other,
null,"<div style=""font-size:60px;"">+</div>",,html-keyboard-response,384,1763201,0.0-19.0-0.15,79902,List2A,black,man,,,,null,,,,
null,"<img src=""stim_listA/argue4.gif""</stim_listA>",,html-keyboard-response,385,1765203,0.0-19.0-1.15,79902,List2A,black,man,,,,null,,,,
null,are arguing with each other,,html-keyboard-response,386,1767205,0.0-19.0-2.15,79902,List2A,black,man,,,,null,,,,
14319,,,survey-text,387,1781526,0.0-19.0-3.15,79902,List2A,black,man,,,,,"{""Q0"":""fred and kate are arguing each other""}","<img src=""stim_listA/argue4.gif""</stim_listA>",are arguing with each other,
null,"<div style=""font-size:60px;"">+</div>",,html-keyboard-response,388,1782028,0.0-19.0-0.16,79902,List2A,black,man,,,,null,,,,
null,"<img src=""stim_listA/touch4.gif""</stim_listA>",,html-keyboard-response,389,1784031,0.0-19.0-1.16,79902,List2A,black,man,,,,null,,,,
null,are touching each other,,html-keyboard-response,390,1786033,0.0-19.0-2.16,79902,List2A,black,man,,,,null,,,,
14484,,,survey-text,391,1800519,0.0-19.0-3.16,79902,List2A,black,man,,,,,"{""Q0"":""fred and beth are touching each other""}","<img src=""stim_listA/touch4.gif""</stim_listA>",are touching each other,
null,"<div style=""font-size:60px;"">+</div>",,html-keyboard-response,392,1801021,0.0-19.0-0.17,79902,List2A,black,man,,,,null,,,,
null,"<img src=""stim_listA/shout5.gif""</stim_listA>",,html-keyboard-response,393,1803024,0.0-19.0-1.17,79902,List2A,black,man,,,,null,,,,
null,is shouting at,,html-keyboard-response,394,1805027,0.0-19.0-2.17,79902,List2A,black,man,,,,null,,,,
12438,,,survey-text,395,1817468,0.0-19.0-3.17,79902,List2A,black,man,,,,,"{""Q0"":""fred is shouting at luke""}","<img src=""stim_listA/shout5.gif""</stim_listA>",is shouting at,
null,"<div style=""font-size:60px;"">+</div>",,html-keyboard-response,396,1817970,0.0-19.0-0.18,79902,List2A,black,man,,,,null,,,,
null,"<img src=""stim_listA/dance8.gif""</stim_listA>",,html-keyboard-response,397,1819973,0.0-19.0-1.18,79902,List2A,black,man,,,,null,,,,
null,are dancing with each other,,html-keyboard-response,398,1821975,0.0-19.0-2.18,79902,List2A,black,man,,,,null,,,,
14719,,,survey-text,399,1836696,0.0-19.0-3.18,79902,List2A,black,man,,,,,"{""Q0"":""jane and beth are dancing each other""}","<img src=""stim_listA/dance8.gif""</stim_listA>",are dancing with each other,
null,"<div style=""font-size:60px;"">+</div>",,html-keyboard-response,400,1837198,0.0-19.0-0.19,79902,List2A,black,man,,,,null,,,,
null,"<img src=""stim_listA/marry1.gif""</stim_listA>",,html-keyboard-response,401,1839201,0.0-19.0-1.19,79902,List2A,black,man,,,,null,,,,
null,is marrying,,html-keyboard-response,402,1841202,0.0-19.0-2.19,79902,List2A,black,man,,,,null,,,,
11690,,,survey-text,403,1852895,0.0-19.0-3.19,79902,List2A,black,man,,,,,"{""Q0"":""dave is marrying ruth""}","<img src=""stim_listA/marry1.gif""</stim_listA>",is marrying,
2297,<p>Thank you for completing that task.</p><p>The final part of this session is a short questionnaire.</p><p>Press Continue.</p>,0,html-button-response,404,1855194,0.0-20.0,79902,List2A,black,man,,,,,,,,
29571,,,survey-text,405,1885769,0.0-21.0,79902,List2A,black,man,,,,,"{""Q0"":""32"",""Q1"":""english"",""Q2"":""english"",""Q3"":""UK"",""Q4"":""black"",""Q5"":""male""}",,,demographics
52259,,,survey-likert,406,1938090,0.0-22.0,79902,List2A,black,man,,,,,"{""Q0"":5,""Q1"":5,""Q2"":3,""Q3"":6,""Q4"":6,""Q5"":6,""Q6"":6,""Q7"":6,""Q8"":1,""Q9"":1,""Q10"":3,""Q11"":3,""Q12"":3,""Q13"":3}",,,likert_race
51915,,,survey-likert,407,1990032,0.0-23.0,79902,List2A,black,man,,,,,"{""Q0"":5,""Q1"":4,""Q2"":5,""Q3"":5,""Q4"":5,""Q5"":5,""Q6"":5,""Q7"":5,""Q8"":4,""Q9"":3,""Q10"":3,""Q11"":3,""Q12"":3,""Q13"":3}",,,likert_gender
21679,,,survey-text,408,2011725,0.0-24.0,79902,List2A,black,man,,,,,"{""Q0"":""ccc""}",,,worker_id
18768,,,external-html,409,2030654,0.0-25.0,79902,List2A,black,man,debrief.html,,,,,,,
