rt,stimulus,button_pressed,trial_type,trial_index,time_elapsed,internal_node_id,subject,list,ppt_race,ppt_gender,url,first_guess,correct,key_press,responses,image_type,phrase_type,test_part
1599,Welcome to the experiment. Press Continue to begin.,0,html-button-response,0,1616,0.0-0.0,80414,List1A,white,man,,,,,,,,
5553,,,external-html,1,8216,0.0-1.0,80414,List1A,white,man,consent.html,,,,,,,
25267,"<p>On the next page, you will see portraits of 8 people and their names.</p><p>Your first task is to take a few minutes to memorise the names of these people.</p><p>You will have to recall their names during the rest of the experiment, so it is</p><p>essential that you try to memorise these people and their names as best as you can.</p><br><p><strong>You will then be tested on your memory of these names and portraits.</strong></p><br><p>The experiment will start after you have completed this memory test.</p><br><p>Ready?</p>",0,html-button-response,2,33484,0.0-2.0,80414,List1A,white,man,,,,,,,,
49001,"<img src='img/portrait_matrix_list1.JPG' style='width:900px;height:500px;''></img><p>If you have memorised all the portraits and names and are ready to start, press Continue.</p><p><strong>Please note: Your memory of these faces will be tested 4 times during this experiment.</strong></p>",0,html-button-response,3,83488,0.0-3.0-0.0,80414,List1A,white,man,,,,,,,,
4964,"<img src=""portrait/BW2.jpg""style=""width:400px;height:400px;""></img>",2,html-button-response,4,89455,0.0-3.0-1.0,80414,List1A,white,man,,TRUE,2,,,,,
null,CORRECT,,html-keyboard-response,5,90957,0.0-3.0-2.0-0.0,80414,List1A,white,man,,,,null,,,,
4183,"<img src=""portrait/BM1.jpg""style=""width:400px;height:400px;""></img>",4,html-button-response,6,95141,0.0-3.0-4.0,80414,List1A,white,man,,TRUE,4,,,,,
null,CORRECT,,html-keyboard-response,7,96644,0.0-3.0-5.0-0.0,80414,List1A,white,man,,,,null,,,,
2688,"<img src=""portrait/WW1.jpg""style=""width:400px;height:400px;""></img>",1,html-button-response,8,99333,0.0-3.0-7.0,80414,List1A,white,man,,TRUE,1,,,,,
null,CORRECT,,html-keyboard-response,9,100834,0.0-3.0-8.0-0.0,80414,List1A,white,man,,,,null,,,,
3244,"<img src=""portrait/BM2.jpg""style=""width:400px;height:400px;""></img>",5,html-button-response,10,104079,0.0-3.0-10.0,80414,List1A,white,man,,TRUE,5,,,,,
null,CORRECT,,html-keyboard-response,11,105582,0.0-3.0-11.0-0.0,80414,List1A,white,man,,,,null,,,,
4104,"<img src=""portrait/WM2.jpg""style=""width:400px;height:400px;""></img>",7,html-button-response,12,109687,0.0-3.0-13.0,80414,List1A,white,man,,TRUE,7,,,,,
null,CORRECT,,html-keyboard-response,13,111190,0.0-3.0-14.0-0.0,80414,List1A,white,man,,,,null,,,,
5548,"<img src=""portrait/BW1.jpg""style=""width:400px;height:400px;""></img>",0,html-button-response,14,116739,0.0-3.0-16.0,80414,List1A,white,man,,TRUE,0,,,,,
null,CORRECT,,html-keyboard-response,15,118241,0.0-3.0-17.0-0.0,80414,List1A,white,man,,,,null,,,,
5901,"<img src=""portrait/WM1.jpg""style=""width:400px;height:400px;""></img>",6,html-button-response,16,124144,0.0-3.0-19.0,80414,List1A,white,man,,TRUE,6,,,,,
null,CORRECT,,html-keyboard-response,17,125645,0.0-3.0-20.0-0.0,80414,List1A,white,man,,,,null,,,,
3989,"<img src=""portrait/WW2.jpg""style=""width:400px;height:400px;""></img>",3,html-button-response,18,129635,0.0-3.0-22.0,80414,List1A,white,man,,TRUE,3,,,,,
null,CORRECT,,html-keyboard-response,19,131137,0.0-3.0-23.0-0.0,80414,List1A,white,man,,,,null,,,,
3176,<p>You got 8 out of 8 right first time. Press Continue.</p>,0,html-button-response,20,134314,0.0-3.0-25.0,80414,List1A,white,man,,,,,,,,
28202,"<p>In this experiment, you will view photographs of the people from the memory game interacting.</p><p>By using the <strong>exact</strong> phrase given <i>after</i> the photograph appears and recalling the correct names of the people in the photographs, form a sentence describing the interaction. You do not need to capitalise names.</p><p>Type your answer in the space provided. Please complete every sentence before moving onto the next trial.</p><p>You will only have a few seconds to memorise each given photograph and phrase before you can respond, so try your best to focus.</p><p>An example is given below. Press 'Continue' when you are ready.</p><img src='img/speaking_example_v2.jpg' style='width:800px;height:460px;''></img>",0,html-button-response,21,163520,0.0-4.0,80414,List1A,white,man,,,,,,,,
4156,"<p>Before the experiment starts, you will watch two example trials. Press 'Continue'.</p>",0,html-button-response,22,168679,0.0-5.0,80414,List1A,white,man,,,,,,,,
null,<img src='img/speaking_WW.gif'></img>,,html-keyboard-response,23,171682,0.0-6.0,80414,List1A,white,man,,,,null,,,,
null,<p>is speaking to</p>,,html-keyboard-response,24,173682,0.0-7.0,80414,List1A,white,man,,,,null,,,,
7148,<p><b>Answer:</b> kate is speaking to beth</p>,0,html-button-response,25,180831,0.0-8.0,80414,List1A,white,man,,,,,,,,
null,<img src='img/pointing_BM.gif'></img>,,html-keyboard-response,26,183834,0.0-9.0,80414,List1A,white,man,,,,null,,,,
null,<p>are pointing at each other</p>,,html-keyboard-response,27,185835,0.0-10.0,80414,List1A,white,man,,,,null,,,,
4831,<p><b>Answer:</b> luke and dave are pointing at each other</p>,0,html-button-response,28,190667,0.0-11.0,80414,List1A,white,man,,,,,,,,
17187,"<p>Ready to start the experiment?</p><br><p><strong>Remember to describe the picture using a full sentence,</strong></p><p><strong>that combines the names of the people with the given phrase.</strong></p><p><strong>If you do not do this correctly you will not be paid.</strong></p><p><strong> You do not need to capitalise names or use punctuation.</strong></p><br><p>Press 'Continue' to begin.</p>",0,html-button-response,29,208856,0.0-12.0,80414,List1A,white,man,,,,,,,,
null,"<div style=""font-size:60px;"">+</div>",,html-keyboard-response,30,210358,0.0-13.0-0.0,80414,List1A,white,man,,,,null,,,,
null,"<img src=""stim_listA/fight3.gif""</stim_listA>",,html-keyboard-response,31,212361,0.0-13.0-1.0,80414,List1A,white,man,,,,null,,,,
null,is fighting,,html-keyboard-response,32,214363,0.0-13.0-2.0,80414,List1A,white,man,,,,null,,,,
16410,,,survey-text,33,230774,0.0-13.0-3.0,80414,List1A,white,man,,,,,"{""Q0"":""Dave and Jane are fighting""}","<img src=""stim_listA/fight3.gif""</stim_listA>",is fighting,
null,"<div style=""font-size:60px;"">+</div>",,html-keyboard-response,34,231277,0.0-13.0-0.1,80414,List1A,white,man,,,,null,,,,
null,"<img src=""stim_listA/marry6.gif""</stim_listA>",,html-keyboard-response,35,233279,0.0-13.0-1.1,80414,List1A,white,man,,,,null,,,,
null,are marrying each other,,html-keyboard-response,36,235280,0.0-13.0-2.1,80414,List1A,white,man,,,,null,,,,
19787,,,survey-text,37,255068,0.0-13.0-3.1,80414,List1A,white,man,,,,,"{""Q0"":""Fred and Dave are marrying each other""}","<img src=""stim_listA/marry6.gif""</stim_listA>",are marrying each other,
null,"<div style=""font-size:60px;"">+</div>",,html-keyboard-response,38,255570,0.0-13.0-0.2,80414,List1A,white,man,,,,null,,,,
null,"<img src=""stim_listA/dance4.gif""</stim_listA>",,html-keyboard-response,39,257571,0.0-13.0-1.2,80414,List1A,white,man,,,,null,,,,
null,are dancing with each other,,html-keyboard-response,40,259573,0.0-13.0-2.2,80414,List1A,white,man,,,,null,,,,
8827,,,survey-text,41,268400,0.0-13.0-3.2,80414,List1A,white,man,,,,,"{""Q0"":""Ruth and Dave are dancing with each other""}","<img src=""stim_listA/dance4.gif""</stim_listA>",are dancing with each other,
null,"<div style=""font-size:60px;"">+</div>",,html-keyboard-response,42,268903,0.0-13.0-0.3,80414,List1A,white,man,,,,null,,,,
null,"<img src=""stim_listA/hug4.gif""</stim_listA>",,html-keyboard-response,43,270903,0.0-13.0-1.3,80414,List1A,white,man,,,,null,,,,
null,are hugging each other,,html-keyboard-response,44,272905,0.0-13.0-2.3,80414,List1A,white,man,,,,null,,,,
10283,,,survey-text,45,283188,0.0-13.0-3.3,80414,List1A,white,man,,,,,"{""Q0"":""Dave and Jane are hugging each other""}","<img src=""stim_listA/hug4.gif""</stim_listA>",are hugging each other,
null,"<div style=""font-size:60px;"">+</div>",,html-keyboard-response,46,283689,0.0-13.0-0.4,80414,List1A,white,man,,,,null,,,,
null,"<img src=""stim_listA/dance7.gif""</stim_listA>",,html-keyboard-response,47,285691,0.0-13.0-1.4,80414,List1A,white,man,,,,null,,,,
null,is dancing with,,html-keyboard-response,48,287693,0.0-13.0-2.4,80414,List1A,white,man,,,,null,,,,
17510,,,survey-text,49,305203,0.0-13.0-3.4,80414,List1A,white,man,,,,,"{""Q0"":""Beth is dancing with Jane""}","<img src=""stim_listA/dance7.gif""</stim_listA>",is dancing with,
null,"<div style=""font-size:60px;"">+</div>",,html-keyboard-response,50,305705,0.0-13.0-0.5,80414,List1A,white,man,,,,null,,,,
null,"<img src=""stim_listA/argue2.gif""</stim_listA>",,html-keyboard-response,51,307708,0.0-13.0-1.5,80414,List1A,white,man,,,,null,,,,
null,are arguing with each other,,html-keyboard-response,52,309710,0.0-13.0-2.5,80414,List1A,white,man,,,,null,,,,
11112,,,survey-text,53,320822,0.0-13.0-3.5,80414,List1A,white,man,,,,,"{""Q0"":""Fred and Kate are arguing with each other""}","<img src=""stim_listA/argue2.gif""</stim_listA>",are arguing with each other,
null,"<div style=""font-size:60px;"">+</div>",,html-keyboard-response,54,321324,0.0-13.0-0.6,80414,List1A,white,man,,,,null,,,,
null,"<img src=""stim_listA/marry3.gif""</stim_listA>",,html-keyboard-response,55,323327,0.0-13.0-1.6,80414,List1A,white,man,,,,null,,,,
null,is marrying,,html-keyboard-response,56,325328,0.0-13.0-2.6,80414,List1A,white,man,,,,null,,,,
6570,,,survey-text,57,331898,0.0-13.0-3.6,80414,List1A,white,man,,,,,"{""Q0"":""Dave is marrying Ruth""}","<img src=""stim_listA/marry3.gif""</stim_listA>",is marrying,
null,"<div style=""font-size:60px;"">+</div>",,html-keyboard-response,58,332399,0.0-13.0-0.7,80414,List1A,white,man,,,,null,,,,
null,"<img src=""stim_listA/touch2.gif""</stim_listA>",,html-keyboard-response,59,334401,0.0-13.0-1.7,80414,List1A,white,man,,,,null,,,,
null,are touching each other,,html-keyboard-response,60,336402,0.0-13.0-2.7,80414,List1A,white,man,,,,null,,,,
11966,,,survey-text,61,348369,0.0-13.0-3.7,80414,List1A,white,man,,,,,"{""Q0"":""Fred and Beth are touching each other""}","<img src=""stim_listA/touch2.gif""</stim_listA>",are touching each other,
null,"<div style=""font-size:60px;"">+</div>",,html-keyboard-response,62,348871,0.0-13.0-0.8,80414,List1A,white,man,,,,null,,,,
null,"<img src=""stim_listA/marry4.gif""</stim_listA>",,html-keyboard-response,63,350872,0.0-13.0-1.8,80414,List1A,white,man,,,,null,,,,
null,are marrying each other,,html-keyboard-response,64,352873,0.0-13.0-2.8,80414,List1A,white,man,,,,null,,,,
9189,,,survey-text,65,362063,0.0-13.0-3.8,80414,List1A,white,man,,,,,"{""Q0"":""Jane and Luke are marrying each other""}","<img src=""stim_listA/marry4.gif""</stim_listA>",are marrying each other,
null,"<div style=""font-size:60px;"">+</div>",,html-keyboard-response,66,362565,0.0-13.0-0.9,80414,List1A,white,man,,,,null,,,,
null,"<img src=""stim_listA/shout5.gif""</stim_listA>",,html-keyboard-response,67,364568,0.0-13.0-1.9,80414,List1A,white,man,,,,null,,,,
null,is shouting at,,html-keyboard-response,68,366570,0.0-13.0-2.9,80414,List1A,white,man,,,,null,,,,
6053,,,survey-text,69,372624,0.0-13.0-3.9,80414,List1A,white,man,,,,,"{""Q0"":""Fred is shouting at Luke""}","<img src=""stim_listA/shout5.gif""</stim_listA>",is shouting at,
null,"<div style=""font-size:60px;"">+</div>",,html-keyboard-response,70,373126,0.0-13.0-0.10,80414,List1A,white,man,,,,null,,,,
null,"<img src=""stim_listA/hug8.gif""</stim_listA>",,html-keyboard-response,71,375129,0.0-13.0-1.10,80414,List1A,white,man,,,,null,,,,
null,are hugging each other,,html-keyboard-response,72,377130,0.0-13.0-2.10,80414,List1A,white,man,,,,null,,,,
10311,,,survey-text,73,387442,0.0-13.0-3.10,80414,List1A,white,man,,,,,"{""Q0"":""Kate and Jane are hugging each other""}","<img src=""stim_listA/hug8.gif""</stim_listA>",are hugging each other,
null,"<div style=""font-size:60px;"">+</div>",,html-keyboard-response,74,387943,0.0-13.0-0.11,80414,List1A,white,man,,,,null,,,,
null,"<img src=""stim_listA/dance5.gif""</stim_listA>",,html-keyboard-response,75,389946,0.0-13.0-1.11,80414,List1A,white,man,,,,null,,,,
null,is dancing with,,html-keyboard-response,76,391947,0.0-13.0-2.11,80414,List1A,white,man,,,,null,,,,
6808,,,survey-text,77,398757,0.0-13.0-3.11,80414,List1A,white,man,,,,,"{""Q0"":""Fred is dancing with Dave""}","<img src=""stim_listA/dance5.gif""</stim_listA>",is dancing with,
null,"<div style=""font-size:60px;"">+</div>",,html-keyboard-response,78,399259,0.0-13.0-0.12,80414,List1A,white,man,,,,null,,,,
null,"<img src=""stim_listA/talk5.gif""</stim_listA>",,html-keyboard-response,79,401260,0.0-13.0-1.12,80414,List1A,white,man,,,,null,,,,
null,is talking to,,html-keyboard-response,80,403261,0.0-13.0-2.12,80414,List1A,white,man,,,,null,,,,
5265,,,survey-text,81,408526,0.0-13.0-3.12,80414,List1A,white,man,,,,,"{""Q0"":""Fred is talking to Dave""}","<img src=""stim_listA/talk5.gif""</stim_listA>",is talking to,
null,"<div style=""font-size:60px;"">+</div>",,html-keyboard-response,82,409028,0.0-13.0-0.13,80414,List1A,white,man,,,,null,,,,
null,"<img src=""stim_listA/marry7.gif""</stim_listA>",,html-keyboard-response,83,411031,0.0-13.0-1.13,80414,List1A,white,man,,,,null,,,,
null,is marrying,,html-keyboard-response,84,413031,0.0-13.0-2.13,80414,List1A,white,man,,,,null,,,,
7000,,,survey-text,85,420031,0.0-13.0-3.13,80414,List1A,white,man,,,,,"{""Q0"":""Kate is marrying Ruth""}","<img src=""stim_listA/marry7.gif""</stim_listA>",is marrying,
null,"<div style=""font-size:60px;"">+</div>",,html-keyboard-response,86,420532,0.0-13.0-0.14,80414,List1A,white,man,,,,null,,,,
null,"<img src=""stim_listA/meet4.gif""</stim_listA>",,html-keyboard-response,87,422533,0.0-13.0-1.14,80414,List1A,white,man,,,,null,,,,
null,are meeting each other,,html-keyboard-response,88,424535,0.0-13.0-2.14,80414,List1A,white,man,,,,null,,,,
11116,,,survey-text,89,435651,0.0-13.0-3.14,80414,List1A,white,man,,,,,"{""Q0"":""Luke and Ruth are meeting each other""}","<img src=""stim_listA/meet4.gif""</stim_listA>",are meeting each other,
null,"<div style=""font-size:60px;"">+</div>",,html-keyboard-response,90,436153,0.0-13.0-0.15,80414,List1A,white,man,,,,null,,,,
null,"<img src=""stim_listA/meet5.gif""</stim_listA>",,html-keyboard-response,91,438154,0.0-13.0-1.15,80414,List1A,white,man,,,,null,,,,
null,is meeting,,html-keyboard-response,92,440155,0.0-13.0-2.15,80414,List1A,white,man,,,,null,,,,
7021,,,survey-text,93,447176,0.0-13.0-3.15,80414,List1A,white,man,,,,,"{""Q0"":""Dave is meeting Mike""}","<img src=""stim_listA/meet5.gif""</stim_listA>",is meeting,
null,"<div style=""font-size:60px;"">+</div>",,html-keyboard-response,94,447678,0.0-13.0-0.16,80414,List1A,white,man,,,,null,,,,
null,"<img src=""stim_listA/hug7.gif""</stim_listA>",,html-keyboard-response,95,449679,0.0-13.0-1.16,80414,List1A,white,man,,,,null,,,,
null,is hugging,,html-keyboard-response,96,451681,0.0-13.0-2.16,80414,List1A,white,man,,,,null,,,,
9742,,,survey-text,97,461424,0.0-13.0-3.16,80414,List1A,white,man,,,,,"{""Q0"":""Beth is hugging Ruth""}","<img src=""stim_listA/hug7.gif""</stim_listA>",is hugging,
null,"<div style=""font-size:60px;"">+</div>",,html-keyboard-response,98,461927,0.0-13.0-0.17,80414,List1A,white,man,,,,null,,,,
null,"<img src=""stim_listA/argue6.gif""</stim_listA>",,html-keyboard-response,99,463928,0.0-13.0-1.17,80414,List1A,white,man,,,,null,,,,
null,are arguing with each other,,html-keyboard-response,100,465930,0.0-13.0-2.17,80414,List1A,white,man,,,,null,,,,
8375,,,survey-text,101,474306,0.0-13.0-3.17,80414,List1A,white,man,,,,,"{""Q0"":""Dave and Fred are arguing with each other""}","<img src=""stim_listA/argue6.gif""</stim_listA>",are arguing with each other,
null,"<div style=""font-size:60px;"">+</div>",,html-keyboard-response,102,474808,0.0-13.0-0.18,80414,List1A,white,man,,,,null,,,,
null,"<img src=""stim_listA/meet3.gif""</stim_listA>",,html-keyboard-response,103,476810,0.0-13.0-1.18,80414,List1A,white,man,,,,null,,,,
null,is meeting,,html-keyboard-response,104,478810,0.0-13.0-2.18,80414,List1A,white,man,,,,null,,,,
5684,,,survey-text,105,484495,0.0-13.0-3.18,80414,List1A,white,man,,,,,"{""Q0"":""Dave is meeting Jane""}","<img src=""stim_listA/meet3.gif""</stim_listA>",is meeting,
null,"<div style=""font-size:60px;"">+</div>",,html-keyboard-response,106,484996,0.0-13.0-0.19,80414,List1A,white,man,,,,null,,,,
null,"<img src=""stim_listA/argue1.gif""</stim_listA>",,html-keyboard-response,107,486998,0.0-13.0-1.19,80414,List1A,white,man,,,,null,,,,
null,is arguing with,,html-keyboard-response,108,488999,0.0-13.0-2.19,80414,List1A,white,man,,,,null,,,,
6142,,,survey-text,109,495141,0.0-13.0-3.19,80414,List1A,white,man,,,,,"{""Q0"":""Mike is arguing with Beth""}","<img src=""stim_listA/argue1.gif""</stim_listA>",is arguing with,
15877,"<img src='img/portrait_matrix_list1.JPG' style='width:900px;height:500px;''></img><p>If you have memorised all the portraits and names and are ready to start, press Continue.</p><p><strong>Please note: Your memory of these faces will be tested 4 times during this experiment.</strong></p>",0,html-button-response,110,511019,0.0-14.0-0.0,80414,List1A,white,man,,,,,,,,
3854,"<img src=""portrait/WW2.jpg""style=""width:400px;height:400px;""></img>",3,html-button-response,111,515875,0.0-14.0-1.0,80414,List1A,white,man,,TRUE,3,,,,,
null,CORRECT,,html-keyboard-response,112,517377,0.0-14.0-2.0-0.0,80414,List1A,white,man,,,,null,,,,
2241,"<img src=""portrait/WM1.jpg""style=""width:400px;height:400px;""></img>",6,html-button-response,113,519618,0.0-14.0-4.0,80414,List1A,white,man,,TRUE,6,,,,,
null,CORRECT,,html-keyboard-response,114,521119,0.0-14.0-5.0-0.0,80414,List1A,white,man,,,,null,,,,
1942,"<img src=""portrait/WW1.jpg""style=""width:400px;height:400px;""></img>",1,html-button-response,115,523063,0.0-14.0-7.0,80414,List1A,white,man,,TRUE,1,,,,,
null,CORRECT,,html-keyboard-response,116,524566,0.0-14.0-8.0-0.0,80414,List1A,white,man,,,,null,,,,
3102,"<img src=""portrait/BM1.jpg""style=""width:400px;height:400px;""></img>",4,html-button-response,117,527668,0.0-14.0-10.0,80414,List1A,white,man,,TRUE,4,,,,,
null,CORRECT,,html-keyboard-response,118,529171,0.0-14.0-11.0-0.0,80414,List1A,white,man,,,,null,,,,
2971,"<img src=""portrait/WM2.jpg""style=""width:400px;height:400px;""></img>",7,html-button-response,119,532144,0.0-14.0-13.0,80414,List1A,white,man,,TRUE,7,,,,,
null,CORRECT,,html-keyboard-response,120,533648,0.0-14.0-14.0-0.0,80414,List1A,white,man,,,,null,,,,
2267,"<img src=""portrait/BW2.jpg""style=""width:400px;height:400px;""></img>",2,html-button-response,121,535915,0.0-14.0-16.0,80414,List1A,white,man,,TRUE,2,,,,,
null,CORRECT,,html-keyboard-response,122,537416,0.0-14.0-17.0-0.0,80414,List1A,white,man,,,,null,,,,
2650,"<img src=""portrait/BW1.jpg""style=""width:400px;height:400px;""></img>",0,html-button-response,123,540068,0.0-14.0-19.0,80414,List1A,white,man,,TRUE,0,,,,,
null,CORRECT,,html-keyboard-response,124,541570,0.0-14.0-20.0-0.0,80414,List1A,white,man,,,,null,,,,
2140,"<img src=""portrait/BM2.jpg""style=""width:400px;height:400px;""></img>",5,html-button-response,125,543711,0.0-14.0-22.0,80414,List1A,white,man,,TRUE,5,,,,,
null,CORRECT,,html-keyboard-response,126,545213,0.0-14.0-23.0-0.0,80414,List1A,white,man,,,,null,,,,
1471,<p>You got 8 out of 8 right first time. Press Continue.</p>,0,html-button-response,127,546685,0.0-14.0-25.0,80414,List1A,white,man,,,,,,,,
null,"<div style=""font-size:60px;"">+</div>",,html-keyboard-response,128,548186,0.0-15.0-0.0,80414,List1A,white,man,,,,null,,,,
null,"<img src=""stim_listA/argue7.gif""</stim_listA>",,html-keyboard-response,129,550187,0.0-15.0-1.0,80414,List1A,white,man,,,,null,,,,
null,is arguing with,,html-keyboard-response,130,552190,0.0-15.0-2.0,80414,List1A,white,man,,,,null,,,,
6883,,,survey-text,131,559074,0.0-15.0-3.0,80414,List1A,white,man,,,,,"{""Q0"":""Ruth is arguing with Kate""}","<img src=""stim_listA/argue7.gif""</stim_listA>",is arguing with,
null,"<div style=""font-size:60px;"">+</div>",,html-keyboard-response,132,559576,0.0-15.0-0.1,80414,List1A,white,man,,,,null,,,,
null,"<img src=""stim_listA/fight6.gif""</stim_listA>",,html-keyboard-response,133,561578,0.0-15.0-1.1,80414,List1A,white,man,,,,null,,,,
null,are fighting each other,,html-keyboard-response,134,563579,0.0-15.0-2.1,80414,List1A,white,man,,,,null,,,,
11728,,,survey-text,135,575308,0.0-15.0-3.1,80414,List1A,white,man,,,,,"{""Q0"":""Luke and fred are fighting each other""}","<img src=""stim_listA/fight6.gif""</stim_listA>",are fighting each other,
null,"<div style=""font-size:60px;"">+</div>",,html-keyboard-response,136,575810,0.0-15.0-0.2,80414,List1A,white,man,,,,null,,,,
null,"<img src=""stim_listA/fight5.gif""</stim_listA>",,html-keyboard-response,137,577813,0.0-15.0-1.2,80414,List1A,white,man,,,,null,,,,
null,is fighting,,html-keyboard-response,138,579814,0.0-15.0-2.2,80414,List1A,white,man,,,,null,,,,
6720,,,survey-text,139,586535,0.0-15.0-3.2,80414,List1A,white,man,,,,,"{""Q0"":""Mike and Dave are fighting""}","<img src=""stim_listA/fight5.gif""</stim_listA>",is fighting,
null,"<div style=""font-size:60px;"">+</div>",,html-keyboard-response,140,587035,0.0-15.0-0.3,80414,List1A,white,man,,,,null,,,,
null,"<img src=""stim_listA/kiss4.gif""</stim_listA>",,html-keyboard-response,141,589037,0.0-15.0-1.3,80414,List1A,white,man,,,,null,,,,
null,are kissing each other,,html-keyboard-response,142,591039,0.0-15.0-2.3,80414,List1A,white,man,,,,null,,,,
8411,,,survey-text,143,599450,0.0-15.0-3.3,80414,List1A,white,man,,,,,"{""Q0"":""Jane and Dave are kissing eachother""}","<img src=""stim_listA/kiss4.gif""</stim_listA>",are kissing each other,
null,"<div style=""font-size:60px;"">+</div>",,html-keyboard-response,144,599952,0.0-15.0-0.4,80414,List1A,white,man,,,,null,,,,
null,"<img src=""stim_listA/argue8.gif""</stim_listA>",,html-keyboard-response,145,601954,0.0-15.0-1.4,80414,List1A,white,man,,,,null,,,,
null,are arguing with each other,,html-keyboard-response,146,603955,0.0-15.0-2.4,80414,List1A,white,man,,,,null,,,,
7285,,,survey-text,147,611242,0.0-15.0-3.4,80414,List1A,white,man,,,,,"{""Q0"":""Jane and Beth are arguing with eachother""}","<img src=""stim_listA/argue8.gif""</stim_listA>",are arguing with each other,
null,"<div style=""font-size:60px;"">+</div>",,html-keyboard-response,148,611743,0.0-15.0-0.5,80414,List1A,white,man,,,,null,,,,
null,"<img src=""stim_listA/fight1.gif""</stim_listA>",,html-keyboard-response,149,613744,0.0-15.0-1.5,80414,List1A,white,man,,,,null,,,,
null,is fighting,,html-keyboard-response,150,615745,0.0-15.0-2.5,80414,List1A,white,man,,,,null,,,,
6106,,,survey-text,151,621853,0.0-15.0-3.5,80414,List1A,white,man,,,,,"{""Q0"":""Mike and Kate are fighting""}","<img src=""stim_listA/fight1.gif""</stim_listA>",is fighting,
null,"<div style=""font-size:60px;"">+</div>",,html-keyboard-response,152,622354,0.0-15.0-0.6,80414,List1A,white,man,,,,null,,,,
null,"<img src=""stim_listA/fight2.gif""</stim_listA>",,html-keyboard-response,153,624355,0.0-15.0-1.6,80414,List1A,white,man,,,,null,,,,
null,are fighting each other,,html-keyboard-response,154,626357,0.0-15.0-2.6,80414,List1A,white,man,,,,null,,,,
11020,,,survey-text,155,637379,0.0-15.0-3.6,80414,List1A,white,man,,,,,"{""Q0"":""Beth and Fred are fighting each other""}","<img src=""stim_listA/fight2.gif""</stim_listA>",are fighting each other,
null,"<div style=""font-size:60px;"">+</div>",,html-keyboard-response,156,637879,0.0-15.0-0.7,80414,List1A,white,man,,,,null,,,,
null,"<img src=""stim_listA/meet7.gif""</stim_listA>",,html-keyboard-response,157,639882,0.0-15.0-1.7,80414,List1A,white,man,,,,null,,,,
null,is meeting,,html-keyboard-response,158,641883,0.0-15.0-2.7,80414,List1A,white,man,,,,null,,,,
16440,,,survey-text,159,658323,0.0-15.0-3.7,80414,List1A,white,man,,,,,"{""Q0"":""Jane is meeting Kate""}","<img src=""stim_listA/meet7.gif""</stim_listA>",is meeting,
null,"<div style=""font-size:60px;"">+</div>",,html-keyboard-response,160,658825,0.0-15.0-0.8,80414,List1A,white,man,,,,null,,,,
null,"<img src=""stim_listA/argue4.gif""</stim_listA>",,html-keyboard-response,161,660826,0.0-15.0-1.8,80414,List1A,white,man,,,,null,,,,
null,are arguing with each other,,html-keyboard-response,162,662828,0.0-15.0-2.8,80414,List1A,white,man,,,,null,,,,
7114,,,survey-text,163,669942,0.0-15.0-3.8,80414,List1A,white,man,,,,,"{""Q0"":""Jane and Luke are arguing with each other""}","<img src=""stim_listA/argue4.gif""</stim_listA>",are arguing with each other,
null,"<div style=""font-size:60px;"">+</div>",,html-keyboard-response,164,670443,0.0-15.0-0.9,80414,List1A,white,man,,,,null,,,,
null,"<img src=""stim_listA/kiss5.gif""</stim_listA>",,html-keyboard-response,165,672445,0.0-15.0-1.9,80414,List1A,white,man,,,,null,,,,
null,is kissing,,html-keyboard-response,166,674445,0.0-15.0-2.9,80414,List1A,white,man,,,,null,,,,
9158,,,survey-text,167,683605,0.0-15.0-3.9,80414,List1A,white,man,,,,,"{""Q0"":""Fred is kissing Luke""}","<img src=""stim_listA/kiss5.gif""</stim_listA>",is kissing,
null,"<div style=""font-size:60px;"">+</div>",,html-keyboard-response,168,684106,0.0-15.0-0.10,80414,List1A,white,man,,,,null,,,,
null,"<img src=""stim_listA/shout7.gif""</stim_listA>",,html-keyboard-response,169,686107,0.0-15.0-1.10,80414,List1A,white,man,,,,null,,,,
null,is shouting at,,html-keyboard-response,170,688108,0.0-15.0-2.10,80414,List1A,white,man,,,,null,,,,
5241,,,survey-text,171,693350,0.0-15.0-3.10,80414,List1A,white,man,,,,,"{""Q0"":""Ruth is shouting and Beth""}","<img src=""stim_listA/shout7.gif""</stim_listA>",is shouting at,
null,"<div style=""font-size:60px;"">+</div>",,html-keyboard-response,172,693851,0.0-15.0-0.11,80414,List1A,white,man,,,,null,,,,
null,"<img src=""stim_listA/touch6.gif""</stim_listA>",,html-keyboard-response,173,695853,0.0-15.0-1.11,80414,List1A,white,man,,,,null,,,,
null,are touching each other,,html-keyboard-response,174,697854,0.0-15.0-2.11,80414,List1A,white,man,,,,null,,,,
6539,,,survey-text,175,704393,0.0-15.0-3.11,80414,List1A,white,man,,,,,"{""Q0"":""Luke and Fred are touching each other""}","<img src=""stim_listA/touch6.gif""</stim_listA>",are touching each other,
null,"<div style=""font-size:60px;"">+</div>",,html-keyboard-response,176,704895,0.0-15.0-0.12,80414,List1A,white,man,,,,null,,,,
null,"<img src=""stim_listA/touch3.gif""</stim_listA>",,html-keyboard-response,177,706896,0.0-15.0-1.12,80414,List1A,white,man,,,,null,,,,
null,is touching,,html-keyboard-response,178,708898,0.0-15.0-2.12,80414,List1A,white,man,,,,null,,,,
4474,,,survey-text,179,713372,0.0-15.0-3.12,80414,List1A,white,man,,,,,"{""Q0"":""Dave is touching Jane""}","<img src=""stim_listA/touch3.gif""</stim_listA>",is touching,
null,"<div style=""font-size:60px;"">+</div>",,html-keyboard-response,180,713873,0.0-15.0-0.13,80414,List1A,white,man,,,,null,,,,
null,"<img src=""stim_listA/kiss3.gif""</stim_listA>",,html-keyboard-response,181,715874,0.0-15.0-1.13,80414,List1A,white,man,,,,null,,,,
null,is kissing,,html-keyboard-response,182,717876,0.0-15.0-2.13,80414,List1A,white,man,,,,null,,,,
4589,,,survey-text,183,722465,0.0-15.0-3.13,80414,List1A,white,man,,,,,"{""Q0"":""Luke is kissing Ruth""}","<img src=""stim_listA/kiss3.gif""</stim_listA>",is kissing,
null,"<div style=""font-size:60px;"">+</div>",,html-keyboard-response,184,722966,0.0-15.0-0.14,80414,List1A,white,man,,,,null,,,,
null,"<img src=""stim_listA/meet6.gif""</stim_listA>",,html-keyboard-response,185,724968,0.0-15.0-1.14,80414,List1A,white,man,,,,null,,,,
null,are meeting each other,,html-keyboard-response,186,726968,0.0-15.0-2.14,80414,List1A,white,man,,,,null,,,,
6281,,,survey-text,187,733250,0.0-15.0-3.14,80414,List1A,white,man,,,,,"{""Q0"":""Luke and Fred are meeting eachother""}","<img src=""stim_listA/meet6.gif""</stim_listA>",are meeting each other,
null,"<div style=""font-size:60px;"">+</div>",,html-keyboard-response,188,733751,0.0-15.0-0.15,80414,List1A,white,man,,,,null,,,,
null,"<img src=""stim_listA/argue3.gif""</stim_listA>",,html-keyboard-response,189,735754,0.0-15.0-1.15,80414,List1A,white,man,,,,null,,,,
null,is arguing with,,html-keyboard-response,190,737756,0.0-15.0-2.15,80414,List1A,white,man,,,,null,,,,
5011,,,survey-text,191,742768,0.0-15.0-3.15,80414,List1A,white,man,,,,,"{""Q0"":""Dave is arguing with Ruth""}","<img src=""stim_listA/argue3.gif""</stim_listA>",is arguing with,
null,"<div style=""font-size:60px;"">+</div>",,html-keyboard-response,192,743270,0.0-15.0-0.16,80414,List1A,white,man,,,,null,,,,
null,"<img src=""stim_listA/dance3.gif""</stim_listA>",,html-keyboard-response,193,745272,0.0-15.0-1.16,80414,List1A,white,man,,,,null,,,,
null,is dancing with,,html-keyboard-response,194,747275,0.0-15.0-2.16,80414,List1A,white,man,,,,null,,,,
6099,,,survey-text,195,753374,0.0-15.0-3.16,80414,List1A,white,man,,,,,"{""Q0"":""Jane is dancing with Luke""}","<img src=""stim_listA/dance3.gif""</stim_listA>",is dancing with,
null,"<div style=""font-size:60px;"">+</div>",,html-keyboard-response,196,753877,0.0-15.0-0.17,80414,List1A,white,man,,,,null,,,,
null,"<img src=""stim_listA/dance2.gif""</stim_listA>",,html-keyboard-response,197,755879,0.0-15.0-1.17,80414,List1A,white,man,,,,null,,,,
null,are dancing with each other,,html-keyboard-response,198,757881,0.0-15.0-2.17,80414,List1A,white,man,,,,null,,,,
12134,,,survey-text,199,770015,0.0-15.0-3.17,80414,List1A,white,man,,,,,"{""Q0"":""Beth and Mike are dancing with each other""}","<img src=""stim_listA/dance2.gif""</stim_listA>",are dancing with each other,
null,"<div style=""font-size:60px;"">+</div>",,html-keyboard-response,200,770516,0.0-15.0-0.18,80414,List1A,white,man,,,,null,,,,
null,"<img src=""stim_listA/kiss7.gif""</stim_listA>",,html-keyboard-response,201,772519,0.0-15.0-1.18,80414,List1A,white,man,,,,null,,,,
null,is kissing,,html-keyboard-response,202,774521,0.0-15.0-2.18,80414,List1A,white,man,,,,null,,,,
7243,,,survey-text,203,781764,0.0-15.0-3.18,80414,List1A,white,man,,,,,"{""Q0"":""Beth is kissing ruth""}","<img src=""stim_listA/kiss7.gif""</stim_listA>",is kissing,
null,"<div style=""font-size:60px;"">+</div>",,html-keyboard-response,204,782266,0.0-15.0-0.19,80414,List1A,white,man,,,,null,,,,
null,"<img src=""stim_listA/marry8.gif""</stim_listA>",,html-keyboard-response,205,784268,0.0-15.0-1.19,80414,List1A,white,man,,,,null,,,,
null,are marrying each other,,html-keyboard-response,206,786269,0.0-15.0-2.19,80414,List1A,white,man,,,,null,,,,
9085,,,survey-text,207,795354,0.0-15.0-3.19,80414,List1A,white,man,,,,,"{""Q0"":""Jane and Beth are marrying each other""}","<img src=""stim_listA/marry8.gif""</stim_listA>",are marrying each other,
1978,"<img src='img/portrait_matrix_list1.JPG' style='width:900px;height:500px;''></img><p>If you have memorised all the portraits and names and are ready to start, press Continue.</p><p><strong>Please note: Your memory of these faces will be tested 4 times during this experiment.</strong></p>",0,html-button-response,208,797333,0.0-16.0-0.0,80414,List1A,white,man,,,,,,,,
2080,"<img src=""portrait/BM2.jpg""style=""width:400px;height:400px;""></img>",5,html-button-response,209,800415,0.0-16.0-1.0,80414,List1A,white,man,,TRUE,5,,,,,
null,CORRECT,,html-keyboard-response,210,801916,0.0-16.0-2.0-0.0,80414,List1A,white,man,,,,null,,,,
1838,"<img src=""portrait/BW2.jpg""style=""width:400px;height:400px;""></img>",2,html-button-response,211,803755,0.0-16.0-4.0,80414,List1A,white,man,,TRUE,2,,,,,
null,CORRECT,,html-keyboard-response,212,805256,0.0-16.0-5.0-0.0,80414,List1A,white,man,,,,null,,,,
2406,"<img src=""portrait/WM1.jpg""style=""width:400px;height:400px;""></img>",6,html-button-response,213,807662,0.0-16.0-7.0,80414,List1A,white,man,,TRUE,6,,,,,
null,CORRECT,,html-keyboard-response,214,809164,0.0-16.0-8.0-0.0,80414,List1A,white,man,,,,null,,,,
2122,"<img src=""portrait/BM1.jpg""style=""width:400px;height:400px;""></img>",4,html-button-response,215,811287,0.0-16.0-10.0,80414,List1A,white,man,,TRUE,4,,,,,
null,CORRECT,,html-keyboard-response,216,812790,0.0-16.0-11.0-0.0,80414,List1A,white,man,,,,null,,,,
1522,"<img src=""portrait/BW1.jpg""style=""width:400px;height:400px;""></img>",0,html-button-response,217,814313,0.0-16.0-13.0,80414,List1A,white,man,,TRUE,0,,,,,
null,CORRECT,,html-keyboard-response,218,815815,0.0-16.0-14.0-0.0,80414,List1A,white,man,,,,null,,,,
1330,"<img src=""portrait/WM2.jpg""style=""width:400px;height:400px;""></img>",7,html-button-response,219,817147,0.0-16.0-16.0,80414,List1A,white,man,,TRUE,7,,,,,
null,CORRECT,,html-keyboard-response,220,818648,0.0-16.0-17.0-0.0,80414,List1A,white,man,,,,null,,,,
1299,"<img src=""portrait/WW2.jpg""style=""width:400px;height:400px;""></img>",3,html-button-response,221,819949,0.0-16.0-19.0,80414,List1A,white,man,,TRUE,3,,,,,
null,CORRECT,,html-keyboard-response,222,821452,0.0-16.0-20.0-0.0,80414,List1A,white,man,,,,null,,,,
1747,"<img src=""portrait/WW1.jpg""style=""width:400px;height:400px;""></img>",1,html-button-response,223,823199,0.0-16.0-22.0,80414,List1A,white,man,,TRUE,1,,,,,
null,CORRECT,,html-keyboard-response,224,824702,0.0-16.0-23.0-0.0,80414,List1A,white,man,,,,null,,,,
4343,<p>You got 8 out of 8 right first time. Press Continue.</p>,0,html-button-response,225,829045,0.0-16.0-25.0,80414,List1A,white,man,,,,,,,,
null,"<div style=""font-size:60px;"">+</div>",,html-keyboard-response,226,830548,0.0-17.0-0.0,80414,List1A,white,man,,,,null,,,,
null,"<img src=""stim_listA/kiss6.gif""</stim_listA>",,html-keyboard-response,227,832550,0.0-17.0-1.0,80414,List1A,white,man,,,,null,,,,
null,are kissing each other,,html-keyboard-response,228,834550,0.0-17.0-2.0,80414,List1A,white,man,,,,null,,,,
10635,,,survey-text,229,845185,0.0-17.0-3.0,80414,List1A,white,man,,,,,"{""Q0"":""Mike and dave are kissing each other""}","<img src=""stim_listA/kiss6.gif""</stim_listA>",are kissing each other,
null,"<div style=""font-size:60px;"">+</div>",,html-keyboard-response,230,845686,0.0-17.0-0.1,80414,List1A,white,man,,,,null,,,,
null,"<img src=""stim_listA/argue5.gif""</stim_listA>",,html-keyboard-response,231,847688,0.0-17.0-1.1,80414,List1A,white,man,,,,null,,,,
null,is arguing with,,html-keyboard-response,232,849689,0.0-17.0-2.1,80414,List1A,white,man,,,,null,,,,
7210,,,survey-text,233,856899,0.0-17.0-3.1,80414,List1A,white,man,,,,,"{""Q0"":""Mike is arguing with Luke""}","<img src=""stim_listA/argue5.gif""</stim_listA>",is arguing with,
null,"<div style=""font-size:60px;"">+</div>",,html-keyboard-response,234,857400,0.0-17.0-0.2,80414,List1A,white,man,,,,null,,,,
null,"<img src=""stim_listA/meet2.gif""</stim_listA>",,html-keyboard-response,235,859401,0.0-17.0-1.2,80414,List1A,white,man,,,,null,,,,
null,are meeting each other,,html-keyboard-response,236,861404,0.0-17.0-2.2,80414,List1A,white,man,,,,null,,,,
11759,,,survey-text,237,873163,0.0-17.0-3.2,80414,List1A,white,man,,,,,"{""Q0"":""Bethe and Fred are meeting each other""}","<img src=""stim_listA/meet2.gif""</stim_listA>",are meeting each other,
null,"<div style=""font-size:60px;"">+</div>",,html-keyboard-response,238,873665,0.0-17.0-0.3,80414,List1A,white,man,,,,null,,,,
null,"<img src=""stim_listA/hug1.gif""</stim_listA>",,html-keyboard-response,239,875665,0.0-17.0-1.3,80414,List1A,white,man,,,,null,,,,
null,is hugging,,html-keyboard-response,240,877668,0.0-17.0-2.3,80414,List1A,white,man,,,,null,,,,
12872,,,survey-text,241,890541,0.0-17.0-3.3,80414,List1A,white,man,,,,,"{""Q0"":""Beth is hugging fred""}","<img src=""stim_listA/hug1.gif""</stim_listA>",is hugging,
null,"<div style=""font-size:60px;"">+</div>",,html-keyboard-response,242,891042,0.0-17.0-0.4,80414,List1A,white,man,,,,null,,,,
null,"<img src=""stim_listA/dance8.gif""</stim_listA>",,html-keyboard-response,243,893043,0.0-17.0-1.4,80414,List1A,white,man,,,,null,,,,
null,are dancing with each other,,html-keyboard-response,244,895044,0.0-17.0-2.4,80414,List1A,white,man,,,,null,,,,
17570,,,survey-text,245,912614,0.0-17.0-3.4,80414,List1A,white,man,,,,,"{""Q0"":""ruth and kate are dancing with each other""}","<img src=""stim_listA/dance8.gif""</stim_listA>",are dancing with each other,
null,"<div style=""font-size:60px;"">+</div>",,html-keyboard-response,246,913116,0.0-17.0-0.5,80414,List1A,white,man,,,,null,,,,
null,"<img src=""stim_listA/marry1.gif""</stim_listA>",,html-keyboard-response,247,915118,0.0-17.0-1.5,80414,List1A,white,man,,,,null,,,,
null,is marrying,,html-keyboard-response,248,917120,0.0-17.0-2.5,80414,List1A,white,man,,,,null,,,,
5173,,,survey-text,249,922293,0.0-17.0-3.5,80414,List1A,white,man,,,,,"{""Q0"":""Beth is marrying Mike""}","<img src=""stim_listA/marry1.gif""</stim_listA>",is marrying,
null,"<div style=""font-size:60px;"">+</div>",,html-keyboard-response,250,922794,0.0-17.0-0.6,80414,List1A,white,man,,,,null,,,,
null,"<img src=""stim_listA/hug6.gif""</stim_listA>",,html-keyboard-response,251,924797,0.0-17.0-1.6,80414,List1A,white,man,,,,null,,,,
null,are hugging each other,,html-keyboard-response,252,926798,0.0-17.0-2.6,80414,List1A,white,man,,,,null,,,,
12764,,,survey-text,253,939563,0.0-17.0-3.6,80414,List1A,white,man,,,,,"{""Q0"":""Dave and Mike are hugging each other""}","<img src=""stim_listA/hug6.gif""</stim_listA>",are hugging each other,
null,"<div style=""font-size:60px;"">+</div>",,html-keyboard-response,254,940064,0.0-17.0-0.7,80414,List1A,white,man,,,,null,,,,
null,"<img src=""stim_listA/touch7.gif""</stim_listA>",,html-keyboard-response,255,942067,0.0-17.0-1.7,80414,List1A,white,man,,,,null,,,,
null,is touching,,html-keyboard-response,256,944069,0.0-17.0-2.7,80414,List1A,white,man,,,,null,,,,
4640,,,survey-text,257,948710,0.0-17.0-3.7,80414,List1A,white,man,,,,,"{""Q0"":""Kate is touching Jane""}","<img src=""stim_listA/touch7.gif""</stim_listA>",is touching,
null,"<div style=""font-size:60px;"">+</div>",,html-keyboard-response,258,949210,0.0-17.0-0.8,80414,List1A,white,man,,,,null,,,,
null,"<img src=""stim_listA/touch5.gif""</stim_listA>",,html-keyboard-response,259,951212,0.0-17.0-1.8,80414,List1A,white,man,,,,null,,,,
null,is touching,,html-keyboard-response,260,953214,0.0-17.0-2.8,80414,List1A,white,man,,,,null,,,,
4356,,,survey-text,261,957570,0.0-17.0-3.8,80414,List1A,white,man,,,,,"{""Q0"":""Mike is touching Dave""}","<img src=""stim_listA/touch5.gif""</stim_listA>",is touching,
null,"<div style=""font-size:60px;"">+</div>",,html-keyboard-response,262,958071,0.0-17.0-0.9,80414,List1A,white,man,,,,null,,,,
null,"<img src=""stim_listA/kiss1.gif""</stim_listA>",,html-keyboard-response,263,960073,0.0-17.0-1.9,80414,List1A,white,man,,,,null,,,,
null,is kissing,,html-keyboard-response,264,962075,0.0-17.0-2.9,80414,List1A,white,man,,,,null,,,,
4867,,,survey-text,265,966942,0.0-17.0-3.9,80414,List1A,white,man,,,,,"{""Q0"":""Fred is kissing beth""}","<img src=""stim_listA/kiss1.gif""</stim_listA>",is kissing,
null,"<div style=""font-size:60px;"">+</div>",,html-keyboard-response,266,967443,0.0-17.0-0.10,80414,List1A,white,man,,,,null,,,,
null,"<img src=""stim_listA/meet1.gif""</stim_listA>",,html-keyboard-response,267,969444,0.0-17.0-1.10,80414,List1A,white,man,,,,null,,,,
null,is meeting,,html-keyboard-response,268,971445,0.0-17.0-2.10,80414,List1A,white,man,,,,null,,,,
3913,,,survey-text,269,975360,0.0-17.0-3.10,80414,List1A,white,man,,,,,"{""Q0"":""Mike is meeting Kate""}","<img src=""stim_listA/meet1.gif""</stim_listA>",is meeting,
null,"<div style=""font-size:60px;"">+</div>",,html-keyboard-response,270,975861,0.0-17.0-0.11,80414,List1A,white,man,,,,null,,,,
null,"<img src=""stim_listA/hug2.gif""</stim_listA>",,html-keyboard-response,271,977862,0.0-17.0-1.11,80414,List1A,white,man,,,,null,,,,
null,are hugging each other,,html-keyboard-response,272,979863,0.0-17.0-2.11,80414,List1A,white,man,,,,null,,,,
11404,,,survey-text,273,991267,0.0-17.0-3.11,80414,List1A,white,man,,,,,"{""Q0"":""Kate and Mike are hugging eachother""}","<img src=""stim_listA/hug2.gif""</stim_listA>",are hugging each other,
null,"<div style=""font-size:60px;"">+</div>",,html-keyboard-response,274,991769,0.0-17.0-0.12,80414,List1A,white,man,,,,null,,,,
null,"<img src=""stim_listA/fight7.gif""</stim_listA>",,html-keyboard-response,275,993772,0.0-17.0-1.12,80414,List1A,white,man,,,,null,,,,
null,is fighting,,html-keyboard-response,276,995773,0.0-17.0-2.12,80414,List1A,white,man,,,,null,,,,
4179,,,survey-text,277,999954,0.0-17.0-3.12,80414,List1A,white,man,,,,,"{""Q0"":""Kate is fighting Jane""}","<img src=""stim_listA/fight7.gif""</stim_listA>",is fighting,
null,"<div style=""font-size:60px;"">+</div>",,html-keyboard-response,278,1000454,0.0-17.0-0.13,80414,List1A,white,man,,,,null,,,,
null,"<img src=""stim_listA/shout6.gif""</stim_listA>",,html-keyboard-response,279,1002455,0.0-17.0-1.13,80414,List1A,white,man,,,,null,,,,
null,are shouting at each other,,html-keyboard-response,280,1004458,0.0-17.0-2.13,80414,List1A,white,man,,,,null,,,,
10662,,,survey-text,281,1015120,0.0-17.0-3.13,80414,List1A,white,man,,,,,"{""Q0"":""Dave and Mike are shouting at each other""}","<img src=""stim_listA/shout6.gif""</stim_listA>",are shouting at each other,
null,"<div style=""font-size:60px;"">+</div>",,html-keyboard-response,282,1015622,0.0-17.0-0.14,80414,List1A,white,man,,,,null,,,,
null,"<img src=""stim_listA/kiss2.gif""</stim_listA>",,html-keyboard-response,283,1017624,0.0-17.0-1.14,80414,List1A,white,man,,,,null,,,,
null,are kissing each other,,html-keyboard-response,284,1019625,0.0-17.0-2.14,80414,List1A,white,man,,,,null,,,,
7368,,,survey-text,285,1026994,0.0-17.0-3.14,80414,List1A,white,man,,,,,"{""Q0"":""Mike and Kate are kissing each other""}","<img src=""stim_listA/kiss2.gif""</stim_listA>",are kissing each other,
null,"<div style=""font-size:60px;"">+</div>",,html-keyboard-response,286,1027496,0.0-17.0-0.15,80414,List1A,white,man,,,,null,,,,
null,"<img src=""stim_listA/touch1.gif""</stim_listA>",,html-keyboard-response,287,1029497,0.0-17.0-1.15,80414,List1A,white,man,,,,null,,,,
null,is touching,,html-keyboard-response,288,1031499,0.0-17.0-2.15,80414,List1A,white,man,,,,null,,,,
5341,,,survey-text,289,1036841,0.0-17.0-3.15,80414,List1A,white,man,,,,,"{""Q0"":""Mike is touching Kate""}","<img src=""stim_listA/touch1.gif""</stim_listA>",is touching,
null,"<div style=""font-size:60px;"">+</div>",,html-keyboard-response,290,1037341,0.0-17.0-0.16,80414,List1A,white,man,,,,null,,,,
null,"<img src=""stim_listA/touch4.gif""</stim_listA>",,html-keyboard-response,291,1039343,0.0-17.0-1.16,80414,List1A,white,man,,,,null,,,,
null,are touching each other,,html-keyboard-response,292,1041345,0.0-17.0-2.16,80414,List1A,white,man,,,,null,,,,
10756,,,survey-text,293,1052101,0.0-17.0-3.16,80414,List1A,white,man,,,,,"{""Q0"":""Ruth and luke are touching each other""}","<img src=""stim_listA/touch4.gif""</stim_listA>",are touching each other,
null,"<div style=""font-size:60px;"">+</div>",,html-keyboard-response,294,1052602,0.0-17.0-0.17,80414,List1A,white,man,,,,null,,,,
null,"<img src=""stim_listA/talk3.gif""</stim_listA>",,html-keyboard-response,295,1054604,0.0-17.0-1.17,80414,List1A,white,man,,,,null,,,,
null,is talking to,,html-keyboard-response,296,1056606,0.0-17.0-2.17,80414,List1A,white,man,,,,null,,,,
4991,,,survey-text,297,1061598,0.0-17.0-3.17,80414,List1A,white,man,,,,,"{""Q0"":""Jane is talking to Luke""}","<img src=""stim_listA/talk3.gif""</stim_listA>",is talking to,
null,"<div style=""font-size:60px;"">+</div>",,html-keyboard-response,298,1062098,0.0-17.0-0.18,80414,List1A,white,man,,,,null,,,,
null,"<img src=""stim_listA/meet8.gif""</stim_listA>",,html-keyboard-response,299,1064099,0.0-17.0-1.18,80414,List1A,white,man,,,,null,,,,
null,are meeting each other,,html-keyboard-response,300,1066101,0.0-17.0-2.18,80414,List1A,white,man,,,,null,,,,
7280,,,survey-text,301,1073381,0.0-17.0-3.18,80414,List1A,white,man,,,,,"{""Q0"":""Ruth and Beth are meeting each other""}","<img src=""stim_listA/meet8.gif""</stim_listA>",are meeting each other,
null,"<div style=""font-size:60px;"">+</div>",,html-keyboard-response,302,1073882,0.0-17.0-0.19,80414,List1A,white,man,,,,null,,,,
null,"<img src=""stim_listA/touch8.gif""</stim_listA>",,html-keyboard-response,303,1075883,0.0-17.0-1.19,80414,List1A,white,man,,,,null,,,,
null,are touching each other,,html-keyboard-response,304,1077883,0.0-17.0-2.19,80414,List1A,white,man,,,,null,,,,
7335,,,survey-text,305,1085219,0.0-17.0-3.19,80414,List1A,white,man,,,,,"{""Q0"":""Ruth and Beth are touching eachother""}","<img src=""stim_listA/touch8.gif""</stim_listA>",are touching each other,
3815,"<img src='img/portrait_matrix_list1.JPG' style='width:900px;height:500px;''></img><p>If you have memorised all the portraits and names and are ready to start, press Continue.</p><p><strong>Please note: Your memory of these faces will be tested 4 times during this experiment.</strong></p>",0,html-button-response,306,1089035,0.0-18.0-0.0,80414,List1A,white,man,,,,,,,,
1597,"<img src=""portrait/WW1.jpg""style=""width:400px;height:400px;""></img>",1,html-button-response,307,1091635,0.0-18.0-1.0,80414,List1A,white,man,,TRUE,1,,,,,
null,CORRECT,,html-keyboard-response,308,1093138,0.0-18.0-2.0-0.0,80414,List1A,white,man,,,,null,,,,
1881,"<img src=""portrait/WM1.jpg""style=""width:400px;height:400px;""></img>",6,html-button-response,309,1095020,0.0-18.0-4.0,80414,List1A,white,man,,TRUE,6,,,,,
null,CORRECT,,html-keyboard-response,310,1096522,0.0-18.0-5.0-0.0,80414,List1A,white,man,,,,null,,,,
2578,"<img src=""portrait/BM1.jpg""style=""width:400px;height:400px;""></img>",4,html-button-response,311,1099102,0.0-18.0-7.0,80414,List1A,white,man,,TRUE,4,,,,,
null,CORRECT,,html-keyboard-response,312,1100603,0.0-18.0-8.0-0.0,80414,List1A,white,man,,,,null,,,,
1518,"<img src=""portrait/BW1.jpg""style=""width:400px;height:400px;""></img>",0,html-button-response,313,1102122,0.0-18.0-10.0,80414,List1A,white,man,,TRUE,0,,,,,
null,CORRECT,,html-keyboard-response,314,1103626,0.0-18.0-11.0-0.0,80414,List1A,white,man,,,,null,,,,
1445,"<img src=""portrait/WM2.jpg""style=""width:400px;height:400px;""></img>",7,html-button-response,315,1105071,0.0-18.0-13.0,80414,List1A,white,man,,TRUE,7,,,,,
null,CORRECT,,html-keyboard-response,316,1106575,0.0-18.0-14.0-0.0,80414,List1A,white,man,,,,null,,,,
1794,"<img src=""portrait/BM2.jpg""style=""width:400px;height:400px;""></img>",5,html-button-response,317,1108369,0.0-18.0-16.0,80414,List1A,white,man,,TRUE,5,,,,,
null,CORRECT,,html-keyboard-response,318,1109871,0.0-18.0-17.0-0.0,80414,List1A,white,man,,,,null,,,,
2341,"<img src=""portrait/WW2.jpg""style=""width:400px;height:400px;""></img>",3,html-button-response,319,1112213,0.0-18.0-19.0,80414,List1A,white,man,,TRUE,3,,,,,
null,CORRECT,,html-keyboard-response,320,1113715,0.0-18.0-20.0-0.0,80414,List1A,white,man,,,,null,,,,
1275,"<img src=""portrait/BW2.jpg""style=""width:400px;height:400px;""></img>",2,html-button-response,321,1114990,0.0-18.0-22.0,80414,List1A,white,man,,TRUE,2,,,,,
null,CORRECT,,html-keyboard-response,322,1116495,0.0-18.0-23.0-0.0,80414,List1A,white,man,,,,null,,,,
1667,<p>You got 8 out of 8 right first time. Press Continue.</p>,0,html-button-response,323,1118163,0.0-18.0-25.0,80414,List1A,white,man,,,,,,,,
null,"<div style=""font-size:60px;"">+</div>",,html-keyboard-response,324,1119664,0.0-19.0-0.0,80414,List1A,white,man,,,,null,,,,
null,"<img src=""stim_listA/talk4.gif""</stim_listA>",,html-keyboard-response,325,1121666,0.0-19.0-1.0,80414,List1A,white,man,,,,null,,,,
null,are talking to each other,,html-keyboard-response,326,1123667,0.0-19.0-2.0,80414,List1A,white,man,,,,null,,,,
8306,,,survey-text,327,1131973,0.0-19.0-3.0,80414,List1A,white,man,,,,,"{""Q0"":""Ruth and Dave are talking to each other""}","<img src=""stim_listA/talk4.gif""</stim_listA>",are talking to each other,
null,"<div style=""font-size:60px;"">+</div>",,html-keyboard-response,328,1132474,0.0-19.0-0.1,80414,List1A,white,man,,,,null,,,,
null,"<img src=""stim_listA/shout4.gif""</stim_listA>",,html-keyboard-response,329,1134476,0.0-19.0-1.1,80414,List1A,white,man,,,,null,,,,
null,are shouting at each other,,html-keyboard-response,330,1136477,0.0-19.0-2.1,80414,List1A,white,man,,,,null,,,,
9380,,,survey-text,331,1145857,0.0-19.0-3.1,80414,List1A,white,man,,,,,"{""Q0"":""Jane and Dave are shouting at each other""}","<img src=""stim_listA/shout4.gif""</stim_listA>",are shouting at each other,
null,"<div style=""font-size:60px;"">+</div>",,html-keyboard-response,332,1146358,0.0-19.0-0.2,80414,List1A,white,man,,,,null,,,,
null,"<img src=""stim_listA/marry5.gif""</stim_listA>",,html-keyboard-response,333,1148358,0.0-19.0-1.2,80414,List1A,white,man,,,,null,,,,
null,is marrying,,html-keyboard-response,334,1150359,0.0-19.0-2.2,80414,List1A,white,man,,,,null,,,,
5013,,,survey-text,335,1155373,0.0-19.0-3.2,80414,List1A,white,man,,,,,"{""Q0"":""Mike is marrying Luke""}","<img src=""stim_listA/marry5.gif""</stim_listA>",is marrying,
null,"<div style=""font-size:60px;"">+</div>",,html-keyboard-response,336,1155875,0.0-19.0-0.3,80414,List1A,white,man,,,,null,,,,
null,"<img src=""stim_listA/hug5.gif""</stim_listA>",,html-keyboard-response,337,1157877,0.0-19.0-1.3,80414,List1A,white,man,,,,null,,,,
null,is hugging,,html-keyboard-response,338,1159878,0.0-19.0-2.3,80414,List1A,white,man,,,,null,,,,
4080,,,survey-text,339,1163958,0.0-19.0-3.3,80414,List1A,white,man,,,,,"{""Q0"":""Fred is hugging Luke""}","<img src=""stim_listA/hug5.gif""</stim_listA>",is hugging,
null,"<div style=""font-size:60px;"">+</div>",,html-keyboard-response,340,1164460,0.0-19.0-0.4,80414,List1A,white,man,,,,null,,,,
null,"<img src=""stim_listA/marry2.gif""</stim_listA>",,html-keyboard-response,341,1166462,0.0-19.0-1.4,80414,List1A,white,man,,,,null,,,,
null,are marrying each other,,html-keyboard-response,342,1168464,0.0-19.0-2.4,80414,List1A,white,man,,,,null,,,,
8846,,,survey-text,343,1177310,0.0-19.0-3.4,80414,List1A,white,man,,,,,"{""Q0"":""Kate and fred are marrying each other""}","<img src=""stim_listA/marry2.gif""</stim_listA>",are marrying each other,
null,"<div style=""font-size:60px;"">+</div>",,html-keyboard-response,344,1177812,0.0-19.0-0.5,80414,List1A,white,man,,,,null,,,,
null,"<img src=""stim_listA/talk6.gif""</stim_listA>",,html-keyboard-response,345,1179814,0.0-19.0-1.5,80414,List1A,white,man,,,,null,,,,
null,are talking to each other,,html-keyboard-response,346,1181816,0.0-19.0-2.5,80414,List1A,white,man,,,,null,,,,
6994,,,survey-text,347,1188811,0.0-19.0-3.5,80414,List1A,white,man,,,,,"{""Q0"":""Luke and Mike are talking to each other""}","<img src=""stim_listA/talk6.gif""</stim_listA>",are talking to each other,
null,"<div style=""font-size:60px;"">+</div>",,html-keyboard-response,348,1189312,0.0-19.0-0.6,80414,List1A,white,man,,,,null,,,,
null,"<img src=""stim_listA/shout1.gif""</stim_listA>",,html-keyboard-response,349,1191314,0.0-19.0-1.6,80414,List1A,white,man,,,,null,,,,
null,is shouting at,,html-keyboard-response,350,1193315,0.0-19.0-2.6,80414,List1A,white,man,,,,null,,,,
9812,,,survey-text,351,1203128,0.0-19.0-3.6,80414,List1A,white,man,,,,,"{""Q0"":""Beth is shouting at fred""}","<img src=""stim_listA/shout1.gif""</stim_listA>",is shouting at,
null,"<div style=""font-size:60px;"">+</div>",,html-keyboard-response,352,1203629,0.0-19.0-0.7,80414,List1A,white,man,,,,null,,,,
null,"<img src=""stim_listA/kiss8.gif""</stim_listA>",,html-keyboard-response,353,1205630,0.0-19.0-1.7,80414,List1A,white,man,,,,null,,,,
null,are kissing each other,,html-keyboard-response,354,1207632,0.0-19.0-2.7,80414,List1A,white,man,,,,null,,,,
9500,,,survey-text,355,1217133,0.0-19.0-3.7,80414,List1A,white,man,,,,,"{""Q0"":""Jane and Kate are kissing each other""}","<img src=""stim_listA/kiss8.gif""</stim_listA>",are kissing each other,
null,"<div style=""font-size:60px;"">+</div>",,html-keyboard-response,356,1217634,0.0-19.0-0.8,80414,List1A,white,man,,,,null,,,,
null,"<img src=""stim_listA/dance1.gif""</stim_listA>",,html-keyboard-response,357,1219636,0.0-19.0-1.8,80414,List1A,white,man,,,,null,,,,
null,is dancing with,,html-keyboard-response,358,1221639,0.0-19.0-2.8,80414,List1A,white,man,,,,null,,,,
9653,,,survey-text,359,1231292,0.0-19.0-3.8,80414,List1A,white,man,,,,,"{""Q0"":""Fred is dancing with Kate""}","<img src=""stim_listA/dance1.gif""</stim_listA>",is dancing with,
null,"<div style=""font-size:60px;"">+</div>",,html-keyboard-response,360,1231794,0.0-19.0-0.9,80414,List1A,white,man,,,,null,,,,
null,"<img src=""stim_listA/fight4.gif""</stim_listA>",,html-keyboard-response,361,1233796,0.0-19.0-1.9,80414,List1A,white,man,,,,null,,,,
null,are fighting each other,,html-keyboard-response,362,1235798,0.0-19.0-2.9,80414,List1A,white,man,,,,null,,,,
12423,,,survey-text,363,1248222,0.0-19.0-3.9,80414,List1A,white,man,,,,,"{""Q0"":""Ruth and Luke are fighting each other""}","<img src=""stim_listA/fight4.gif""</stim_listA>",are fighting each other,
null,"<div style=""font-size:60px;"">+</div>",,html-keyboard-response,364,1248724,0.0-19.0-0.10,80414,List1A,white,man,,,,null,,,,
null,"<img src=""stim_listA/hug3.gif""</stim_listA>",,html-keyboard-response,365,1250726,0.0-19.0-1.10,80414,List1A,white,man,,,,null,,,,
null,is hugging,,html-keyboard-response,366,1252728,0.0-19.0-2.10,80414,List1A,white,man,,,,null,,,,
4654,,,survey-text,367,1257382,0.0-19.0-3.10,80414,List1A,white,man,,,,,"{""Q0"":""Ruth is hugging Luke""}","<img src=""stim_listA/hug3.gif""</stim_listA>",is hugging,
null,"<div style=""font-size:60px;"">+</div>",,html-keyboard-response,368,1257884,0.0-19.0-0.11,80414,List1A,white,man,,,,null,,,,
null,"<img src=""stim_listA/dance6.gif""</stim_listA>",,html-keyboard-response,369,1259885,0.0-19.0-1.11,80414,List1A,white,man,,,,null,,,,
null,are dancing with each other,,html-keyboard-response,370,1261886,0.0-19.0-2.11,80414,List1A,white,man,,,,null,,,,
9516,,,survey-text,371,1271403,0.0-19.0-3.11,80414,List1A,white,man,,,,,"{""Q0"":""Luke and Mike are dancing with each other""}","<img src=""stim_listA/dance6.gif""</stim_listA>",are dancing with each other,
null,"<div style=""font-size:60px;"">+</div>",,html-keyboard-response,372,1271905,0.0-19.0-0.12,80414,List1A,white,man,,,,null,,,,
null,"<img src=""stim_listA/talk8.gif""</stim_listA>",,html-keyboard-response,373,1273906,0.0-19.0-1.12,80414,List1A,white,man,,,,null,,,,
null,are talking to each other,,html-keyboard-response,374,1275908,0.0-19.0-2.12,80414,List1A,white,man,,,,null,,,,
9178,,,survey-text,375,1285086,0.0-19.0-3.12,80414,List1A,white,man,,,,,"{""Q0"":""Ruth and Kate are talking to each other""}","<img src=""stim_listA/talk8.gif""</stim_listA>",are talking to each other,
null,"<div style=""font-size:60px;"">+</div>",,html-keyboard-response,376,1285588,0.0-19.0-0.13,80414,List1A,white,man,,,,null,,,,
null,"<img src=""stim_listA/talk2.gif""</stim_listA>",,html-keyboard-response,377,1287589,0.0-19.0-1.13,80414,List1A,white,man,,,,null,,,,
null,are talking to each other,,html-keyboard-response,378,1289591,0.0-19.0-2.13,80414,List1A,white,man,,,,null,,,,
9200,,,survey-text,379,1298792,0.0-19.0-3.13,80414,List1A,white,man,,,,,"{""Q0"":""Beth and Mike are talking to each other""}","<img src=""stim_listA/talk2.gif""</stim_listA>",are talking to each other,
null,"<div style=""font-size:60px;"">+</div>",,html-keyboard-response,380,1299295,0.0-19.0-0.14,80414,List1A,white,man,,,,null,,,,
null,"<img src=""stim_listA/talk7.gif""</stim_listA>",,html-keyboard-response,381,1301297,0.0-19.0-1.14,80414,List1A,white,man,,,,null,,,,
null,is talking to,,html-keyboard-response,382,1303299,0.0-19.0-2.14,80414,List1A,white,man,,,,null,,,,
10802,,,survey-text,383,1314101,0.0-19.0-3.14,80414,List1A,white,man,,,,,"{""Q0"":""Beth is talking to jane""}","<img src=""stim_listA/talk7.gif""</stim_listA>",is talking to,
null,"<div style=""font-size:60px;"">+</div>",,html-keyboard-response,384,1314603,0.0-19.0-0.15,80414,List1A,white,man,,,,null,,,,
null,"<img src=""stim_listA/talk1.gif""</stim_listA>",,html-keyboard-response,385,1316605,0.0-19.0-1.15,80414,List1A,white,man,,,,null,,,,
null,is talking to,,html-keyboard-response,386,1318606,0.0-19.0-2.15,80414,List1A,white,man,,,,null,,,,
5798,,,survey-text,387,1324405,0.0-19.0-3.15,80414,List1A,white,man,,,,,"{""Q0"":""Fred is talking to Kate""}","<img src=""stim_listA/talk1.gif""</stim_listA>",is talking to,
null,"<div style=""font-size:60px;"">+</div>",,html-keyboard-response,388,1324907,0.0-19.0-0.16,80414,List1A,white,man,,,,null,,,,
null,"<img src=""stim_listA/shout3.gif""</stim_listA>",,html-keyboard-response,389,1326909,0.0-19.0-1.16,80414,List1A,white,man,,,,null,,,,
null,is shouting at,,html-keyboard-response,390,1328910,0.0-19.0-2.16,80414,List1A,white,man,,,,null,,,,
6221,,,survey-text,391,1335131,0.0-19.0-3.16,80414,List1A,white,man,,,,,"{""Q0"":""Luke is shouting at Ruth""}","<img src=""stim_listA/shout3.gif""</stim_listA>",is shouting at,
null,"<div style=""font-size:60px;"">+</div>",,html-keyboard-response,392,1335632,0.0-19.0-0.17,80414,List1A,white,man,,,,null,,,,
null,"<img src=""stim_listA/shout8.gif""</stim_listA>",,html-keyboard-response,393,1337634,0.0-19.0-1.17,80414,List1A,white,man,,,,null,,,,
null,are shouting at each other,,html-keyboard-response,394,1339636,0.0-19.0-2.17,80414,List1A,white,man,,,,null,,,,
8332,,,survey-text,395,1347970,0.0-19.0-3.17,80414,List1A,white,man,,,,,"{""Q0"":""Jane and Kate are shouting at each other""}","<img src=""stim_listA/shout8.gif""</stim_listA>",are shouting at each other,
null,"<div style=""font-size:60px;"">+</div>",,html-keyboard-response,396,1348472,0.0-19.0-0.18,80414,List1A,white,man,,,,null,,,,
null,"<img src=""stim_listA/fight8.gif""</stim_listA>",,html-keyboard-response,397,1350474,0.0-19.0-1.18,80414,List1A,white,man,,,,null,,,,
null,are fighting each other,,html-keyboard-response,398,1352476,0.0-19.0-2.18,80414,List1A,white,man,,,,null,,,,
6370,,,survey-text,399,1358846,0.0-19.0-3.18,80414,List1A,white,man,,,,,"{""Q0"":""Ruth and Beth are fighting each other""}","<img src=""stim_listA/fight8.gif""</stim_listA>",are fighting each other,
null,"<div style=""font-size:60px;"">+</div>",,html-keyboard-response,400,1359347,0.0-19.0-0.19,80414,List1A,white,man,,,,null,,,,
null,"<img src=""stim_listA/shout2.gif""</stim_listA>",,html-keyboard-response,401,1361348,0.0-19.0-1.19,80414,List1A,white,man,,,,null,,,,
null,are shouting at each other,,html-keyboard-response,402,1363350,0.0-19.0-2.19,80414,List1A,white,man,,,,null,,,,
6642,,,survey-text,403,1369992,0.0-19.0-3.19,80414,List1A,white,man,,,,,"{""Q0"":""Kate and Mike are shouting at each other""}","<img src=""stim_listA/shout2.gif""</stim_listA>",are shouting at each other,
3637,<p>Thank you for completing that task.</p><p>The final part of this session is a short questionnaire.</p><p>Press Continue.</p>,0,html-button-response,404,1373630,0.0-20.0,80414,List1A,white,man,,,,,,,,
29331,,,survey-text,405,1403964,0.0-21.0,80414,List1A,white,man,,,,,"{""Q0"":""20"",""Q1"":""English"",""Q2"":""English"",""Q3"":""Great Britain"",""Q4"":""British"",""Q5"":""Male""}",,,demographics
73651,,,survey-likert,406,1477619,0.0-22.0,80414,List1A,white,man,,,,,"{""Q0"":3,""Q1"":3,""Q2"":0,""Q3"":4,""Q4"":4,""Q5"":5,""Q6"":3,""Q7"":4,""Q8"":5,""Q9"":2,""Q10"":4,""Q11"":2,""Q12"":3,""Q13"":1}",,,likert_race
48359,,,survey-likert,407,1525984,0.0-23.0,80414,List1A,white,man,,,,,"{""Q0"":3,""Q1"":3,""Q2"":4,""Q3"":5,""Q4"":5,""Q5"":5,""Q6"":5,""Q7"":4,""Q8"":5,""Q9"":5,""Q10"":4,""Q11"":4,""Q12"":4,""Q13"":4}",,,likert_gender
7272,,,survey-text,408,1533259,0.0-24.0,80414,List1A,white,man,,,,,"{""Q0"":""ccc""}",,,worker_id
1761,,,external-html,409,1535101,0.0-25.0,80414,List1A,white,man,debrief.html,,,,,,,
