rt,stimulus,button_pressed,trial_type,trial_index,time_elapsed,internal_node_id,subject,list,ppt_race,ppt_gender,url,first_guess,correct,key_press,responses,image_type,phrase_type,test_part
1859,Welcome to the experiment. Press Continue to begin.,0,html-button-response,0,1867,0.0-0.0,8049,List2A,black,woman,,,,,,,,
111722,,,external-html,1,114644,0.0-1.0,8049,List2A,black,woman,consent.html,,,,,,,
23025,"<p>On the next page, you will see portraits of 8 people and their names.</p><p>Your first task is to take a few minutes to memorise the names of these people.</p><p>You will have to recall their names during the rest of the experiment, so it is</p><p>essential that you try to memorise these people and their names as best as you can.</p><br><p><strong>You will then be tested on your memory of these names and portraits.</strong></p><br><p>The experiment will start after you have completed this memory test.</p><br><p>Ready?</p>",0,html-button-response,2,137671,0.0-2.0,8049,List2A,black,woman,,,,,,,,
57710,"<img src='img/portrait_matrix_list2.JPG' style='width:900px;height:500px;''></img><p>If you have memorised all the portraits and names and are ready to start, press Continue.</p><p><strong>Please note: Your memory of these faces will be tested 4 times during this experiment.</strong></p>",0,html-button-response,3,196385,0.0-3.0-0.0,8049,List2A,black,woman,,,,,,,,
6466,"<img src=""portrait/BM2.jpg""style=""width:400px;height:400px;""></img>",6,html-button-response,4,203855,0.0-3.0-1.0,8049,List2A,black,woman,,TRUE,5,,,,,
8826,"<img src=""portrait/BM2.jpg""style=""width:400px;height:400px;""></img>",5,html-button-response,5,213688,0.0-3.0-3.0-0.0,8049,List2A,black,woman,,FALSE,5,,,,,
null,CORRECT,,html-keyboard-response,6,215202,0.0-3.0-3.0-1.0-0.0,8049,List2A,black,woman,,,,null,,,,
3715,"<img src=""portrait/BW2.jpg""style=""width:400px;height:400px;""></img>",2,html-button-response,7,218921,0.0-3.0-4.0,8049,List2A,black,woman,,TRUE,2,,,,,
null,CORRECT,,html-keyboard-response,8,220434,0.0-3.0-5.0-0.0,8049,List2A,black,woman,,,,null,,,,
7055,"<img src=""portrait/WM1.jpg""style=""width:400px;height:400px;""></img>",6,html-button-response,9,227491,0.0-3.0-7.0,8049,List2A,black,woman,,TRUE,6,,,,,
null,CORRECT,,html-keyboard-response,10,228996,0.0-3.0-8.0-0.0,8049,List2A,black,woman,,,,null,,,,
4760,"<img src=""portrait/WM2.jpg""style=""width:400px;height:400px;""></img>",7,html-button-response,11,233758,0.0-3.0-10.0,8049,List2A,black,woman,,TRUE,7,,,,,
null,CORRECT,,html-keyboard-response,12,235266,0.0-3.0-11.0-0.0,8049,List2A,black,woman,,,,null,,,,
6083,"<img src=""portrait/WW2.jpg""style=""width:400px;height:400px;""></img>",3,html-button-response,13,241351,0.0-3.0-13.0,8049,List2A,black,woman,,TRUE,3,,,,,
null,CORRECT,,html-keyboard-response,14,242861,0.0-3.0-14.0-0.0,8049,List2A,black,woman,,,,null,,,,
3719,"<img src=""portrait/BW1.jpg""style=""width:400px;height:400px;""></img>",0,html-button-response,15,246582,0.0-3.0-16.0,8049,List2A,black,woman,,TRUE,0,,,,,
null,CORRECT,,html-keyboard-response,16,248094,0.0-3.0-17.0-0.0,8049,List2A,black,woman,,,,null,,,,
5169,"<img src=""portrait/BM1.jpg""style=""width:400px;height:400px;""></img>",4,html-button-response,17,253265,0.0-3.0-19.0,8049,List2A,black,woman,,TRUE,4,,,,,
null,CORRECT,,html-keyboard-response,18,254773,0.0-3.0-20.0-0.0,8049,List2A,black,woman,,,,null,,,,
4206,"<img src=""portrait/WW1.jpg""style=""width:400px;height:400px;""></img>",1,html-button-response,19,258980,0.0-3.0-22.0,8049,List2A,black,woman,,TRUE,1,,,,,
null,CORRECT,,html-keyboard-response,20,260489,0.0-3.0-23.0-0.0,8049,List2A,black,woman,,,,null,,,,
1482,<p>You got 7 out of 8 right first time. Press Continue.</p>,0,html-button-response,21,261973,0.0-3.0-25.0,8049,List2A,black,woman,,,,,,,,
5056,"As you did not score 100%, the memory game will repeat. Press Continue.",0,html-button-response,22,268036,0.0-3.0-26.0-0.0,8049,List2A,black,woman,,,,,,,,
3449,"<img src='img/portrait_matrix_list2.JPG' style='width:900px;height:500px;''></img><p>If you have memorised all the portraits and names and are ready to start, press Continue.</p><p><strong>Please note: Your memory of these faces will be tested 4 times during this experiment.</strong></p>",0,html-button-response,23,272491,0.0-3.1-0.1,8049,List2A,black,woman,,,,,,,,
3177,"<img src=""portrait/BM2.jpg""style=""width:400px;height:400px;""></img>",5,html-button-response,24,276676,0.0-3.1-1.1,8049,List2A,black,woman,,TRUE,5,,,,,
null,CORRECT,,html-keyboard-response,25,278185,0.0-3.1-2.1-0.1,8049,List2A,black,woman,,,,null,,,,
2551,"<img src=""portrait/BW2.jpg""style=""width:400px;height:400px;""></img>",2,html-button-response,26,280739,0.0-3.1-4.1,8049,List2A,black,woman,,TRUE,2,,,,,
null,CORRECT,,html-keyboard-response,27,282251,0.0-3.1-5.1-0.1,8049,List2A,black,woman,,,,null,,,,
3963,"<img src=""portrait/WM1.jpg""style=""width:400px;height:400px;""></img>",6,html-button-response,28,286216,0.0-3.1-7.1,8049,List2A,black,woman,,TRUE,6,,,,,
null,CORRECT,,html-keyboard-response,29,287728,0.0-3.1-8.1-0.1,8049,List2A,black,woman,,,,null,,,,
3899,"<img src=""portrait/WM2.jpg""style=""width:400px;height:400px;""></img>",7,html-button-response,30,291629,0.0-3.1-10.1,8049,List2A,black,woman,,TRUE,7,,,,,
null,CORRECT,,html-keyboard-response,31,293140,0.0-3.1-11.1-0.1,8049,List2A,black,woman,,,,null,,,,
3480,"<img src=""portrait/WW2.jpg""style=""width:400px;height:400px;""></img>",3,html-button-response,32,296622,0.0-3.1-13.1,8049,List2A,black,woman,,TRUE,3,,,,,
null,CORRECT,,html-keyboard-response,33,298134,0.0-3.1-14.1-0.1,8049,List2A,black,woman,,,,null,,,,
3819,"<img src=""portrait/BW1.jpg""style=""width:400px;height:400px;""></img>",0,html-button-response,34,301955,0.0-3.1-16.1,8049,List2A,black,woman,,TRUE,0,,,,,
null,CORRECT,,html-keyboard-response,35,303462,0.0-3.1-17.1-0.1,8049,List2A,black,woman,,,,null,,,,
4262,"<img src=""portrait/BM1.jpg""style=""width:400px;height:400px;""></img>",4,html-button-response,36,307727,0.0-3.1-19.1,8049,List2A,black,woman,,TRUE,4,,,,,
null,CORRECT,,html-keyboard-response,37,309237,0.0-3.1-20.1-0.1,8049,List2A,black,woman,,,,null,,,,
3943,"<img src=""portrait/WW1.jpg""style=""width:400px;height:400px;""></img>",1,html-button-response,38,313182,0.0-3.1-22.1,8049,List2A,black,woman,,TRUE,1,,,,,
null,CORRECT,,html-keyboard-response,39,314690,0.0-3.1-23.1-0.1,8049,List2A,black,woman,,,,null,,,,
1359,<p>You got 8 out of 8 right first time. Press Continue.</p>,0,html-button-response,40,316051,0.0-3.1-25.1,8049,List2A,black,woman,,,,,,,,
38199,"<p>In this experiment, you will view photographs of the people from the memory game interacting.</p><p>By using the <strong>exact</strong> phrase given <i>after</i> the photograph appears and recalling the correct names of the people in the photographs, form a sentence describing the interaction. You do not need to capitalise names.</p><p>Type your answer in the space provided. Please complete every sentence before moving onto the next trial.</p><p>You will only have a few seconds to memorise each given photograph and phrase before you can respond, so try your best to focus.</p><p>An example is given below. Press 'Continue' when you are ready.</p><img src='img/speaking_example_v2.jpg' style='width:800px;height:460px;''></img>",0,html-button-response,41,355257,0.0-4.0,8049,List2A,black,woman,,,,,,,,
3100,"<p>Before the experiment starts, you will watch two example trials. Press 'Continue'.</p>",0,html-button-response,42,359364,0.0-5.0,8049,List2A,black,woman,,,,,,,,
null,<img src='img/speaking_WW.gif'></img>,,html-keyboard-response,43,362376,0.0-6.0,8049,List2A,black,woman,,,,null,,,,
null,<p>is speaking to</p>,,html-keyboard-response,44,364382,0.0-7.0,8049,List2A,black,woman,,,,null,,,,
25939,<p><b>Answer:</b> jane is speaking to ruth</p>,0,html-button-response,45,390323,0.0-8.0,8049,List2A,black,woman,,,,,,,,
null,<img src='img/pointing_BM.gif'></img>,,html-keyboard-response,46,393331,0.0-9.0,8049,List2A,black,woman,,,,null,,,,
null,<p>are pointing at each other</p>,,html-keyboard-response,47,395334,0.0-10.0,8049,List2A,black,woman,,,,null,,,,
4786,<p><b>Answer:</b> fred and mike are pointing at each other</p>,0,html-button-response,48,400122,0.0-11.0,8049,List2A,black,woman,,,,,,,,
6226,"<p>Ready to start the experiment?</p><br><p><strong>Remember to describe the picture using a full sentence,</strong></p><p><strong> that combines the names of the people with the given phrase.</strong></p><p><strong> You do not need to capitalise names or use punctuation.</strong></p><br><p>Press 'Continue' to begin.</p>",0,html-button-response,49,407355,0.0-12.0,8049,List2A,black,woman,,,,,,,,
null,"<div style=""font-size:60px;"">+</div>",,html-keyboard-response,50,408863,0.0-13.0-0.0,8049,List2A,black,woman,,,,null,,,,
null,"<img src=""stim_listA/shout1.gif""</stim_listA>",,html-keyboard-response,51,410868,0.0-13.0-1.0,8049,List2A,black,woman,,,,null,,,,
null,is shouting at,,html-keyboard-response,52,412874,0.0-13.0-2.0,8049,List2A,black,woman,,,,null,,,,
14887,,,survey-text,53,427763,0.0-13.0-3.0,8049,List2A,black,woman,,,,,"{""Q0"":""luke and ruth are shouting at each other""}","<img src=""stim_listA/shout1.gif""</stim_listA>",is shouting at,
null,"<div style=""font-size:60px;"">+</div>",,html-keyboard-response,54,428265,0.0-13.0-0.1,8049,List2A,black,woman,,,,null,,,,
null,"<img src=""stim_listA/argue4.gif""</stim_listA>",,html-keyboard-response,55,430272,0.0-13.0-1.1,8049,List2A,black,woman,,,,null,,,,
null,are arguing with each other,,html-keyboard-response,56,432278,0.0-13.0-2.1,8049,List2A,black,woman,,,,null,,,,
16959,,,survey-text,57,449239,0.0-13.0-3.1,8049,List2A,black,woman,,,,,"{""Q0"":""fred and kate are arguing with each other""}","<img src=""stim_listA/argue4.gif""</stim_listA>",are arguing with each other,
null,"<div style=""font-size:60px;"">+</div>",,html-keyboard-response,58,449745,0.0-13.0-0.2,8049,List2A,black,woman,,,,null,,,,
null,"<img src=""stim_listA/hug7.gif""</stim_listA>",,html-keyboard-response,59,451753,0.0-13.0-1.2,8049,List2A,black,woman,,,,null,,,,
null,is hugging,,html-keyboard-response,60,453758,0.0-13.0-2.2,8049,List2A,black,woman,,,,null,,,,
17777,,,survey-text,61,471536,0.0-13.0-3.2,8049,List2A,black,woman,,,,,"{""Q0"":""ruth and beth are hugging each other""}","<img src=""stim_listA/hug7.gif""</stim_listA>",is hugging,
null,"<div style=""font-size:60px;"">+</div>",,html-keyboard-response,62,472039,0.0-13.0-0.3,8049,List2A,black,woman,,,,null,,,,
null,"<img src=""stim_listA/talk5.gif""</stim_listA>",,html-keyboard-response,63,474045,0.0-13.0-1.3,8049,List2A,black,woman,,,,null,,,,
null,is talking to,,html-keyboard-response,64,476050,0.0-13.0-2.3,8049,List2A,black,woman,,,,null,,,,
11358,,,survey-text,65,487410,0.0-13.0-3.3,8049,List2A,black,woman,,,,,"{""Q0"":""luke is talking to mike ""}","<img src=""stim_listA/talk5.gif""</stim_listA>",is talking to,
null,"<div style=""font-size:60px;"">+</div>",,html-keyboard-response,66,487916,0.0-13.0-0.4,8049,List2A,black,woman,,,,null,,,,
null,"<img src=""stim_listA/fight3.gif""</stim_listA>",,html-keyboard-response,67,489923,0.0-13.0-1.4,8049,List2A,black,woman,,,,null,,,,
null,is fighting,,html-keyboard-response,68,491928,0.0-13.0-2.4,8049,List2A,black,woman,,,,null,,,,
9363,,,survey-text,69,501292,0.0-13.0-3.4,8049,List2A,black,woman,,,,,"{""Q0"":""mike and kate ""}","<img src=""stim_listA/fight3.gif""</stim_listA>",is fighting,
null,"<div style=""font-size:60px;"">+</div>",,html-keyboard-response,70,501796,0.0-13.0-0.5,8049,List2A,black,woman,,,,null,,,,
null,"<img src=""stim_listA/shout8.gif""</stim_listA>",,html-keyboard-response,71,503801,0.0-13.0-1.5,8049,List2A,black,woman,,,,null,,,,
null,are shouting at each other,,html-keyboard-response,72,505807,0.0-13.0-2.5,8049,List2A,black,woman,,,,null,,,,
66517,,,survey-text,73,572325,0.0-13.0-3.5,8049,List2A,black,woman,,,,,"{""Q0"":""jane and kate are shouting at each other""}","<img src=""stim_listA/shout8.gif""</stim_listA>",are shouting at each other,
null,"<div style=""font-size:60px;"">+</div>",,html-keyboard-response,74,572826,0.0-13.0-0.6,8049,List2A,black,woman,,,,null,,,,
null,"<img src=""stim_listA/marry8.gif""</stim_listA>",,html-keyboard-response,75,574835,0.0-13.0-1.6,8049,List2A,black,woman,,,,null,,,,
null,are marrying each other,,html-keyboard-response,76,576837,0.0-13.0-2.6,8049,List2A,black,woman,,,,null,,,,
9526,,,survey-text,77,586365,0.0-13.0-3.6,8049,List2A,black,woman,,,,,"{""Q0"":""beth and ruth""}","<img src=""stim_listA/marry8.gif""</stim_listA>",are marrying each other,
null,"<div style=""font-size:60px;"">+</div>",,html-keyboard-response,78,586868,0.0-13.0-0.7,8049,List2A,black,woman,,,,null,,,,
null,"<img src=""stim_listA/talk2.gif""</stim_listA>",,html-keyboard-response,79,588874,0.0-13.0-1.7,8049,List2A,black,woman,,,,null,,,,
null,are talking to each other,,html-keyboard-response,80,590880,0.0-13.0-2.7,8049,List2A,black,woman,,,,null,,,,
16689,,,survey-text,81,607571,0.0-13.0-3.7,8049,List2A,black,woman,,,,,"{""Q0"":""dave and ruth are talking to each other""}","<img src=""stim_listA/talk2.gif""</stim_listA>",are talking to each other,
null,"<div style=""font-size:60px;"">+</div>",,html-keyboard-response,82,608076,0.0-13.0-0.8,8049,List2A,black,woman,,,,null,,,,
null,"<img src=""stim_listA/marry4.gif""</stim_listA>",,html-keyboard-response,83,610079,0.0-13.0-1.8,8049,List2A,black,woman,,,,null,,,,
null,are marrying each other,,html-keyboard-response,84,612080,0.0-13.0-2.8,8049,List2A,black,woman,,,,null,,,,
12386,,,survey-text,85,624468,0.0-13.0-3.8,8049,List2A,black,woman,,,,,"{""Q0"":""kate and fred are marrying each other""}","<img src=""stim_listA/marry4.gif""</stim_listA>",are marrying each other,
null,"<div style=""font-size:60px;"">+</div>",,html-keyboard-response,86,624975,0.0-13.0-0.9,8049,List2A,black,woman,,,,null,,,,
null,"<img src=""stim_listA/fight5.gif""</stim_listA>",,html-keyboard-response,87,626981,0.0-13.0-1.9,8049,List2A,black,woman,,,,null,,,,
null,is fighting,,html-keyboard-response,88,628986,0.0-13.0-2.9,8049,List2A,black,woman,,,,null,,,,
17002,,,survey-text,89,645989,0.0-13.0-3.9,8049,List2A,black,woman,,,,,"{""Q0"":""mike and dave are fighting each other""}","<img src=""stim_listA/fight5.gif""</stim_listA>",is fighting,
null,"<div style=""font-size:60px;"">+</div>",,html-keyboard-response,90,646495,0.0-13.0-0.10,8049,List2A,black,woman,,,,null,,,,
null,"<img src=""stim_listA/fight7.gif""</stim_listA>",,html-keyboard-response,91,648500,0.0-13.0-1.10,8049,List2A,black,woman,,,,null,,,,
null,is fighting,,html-keyboard-response,92,650505,0.0-13.0-2.10,8049,List2A,black,woman,,,,null,,,,
13123,,,survey-text,93,663629,0.0-13.0-3.10,8049,List2A,black,woman,,,,,"{""Q0"":""jane and kate is fighting""}","<img src=""stim_listA/fight7.gif""</stim_listA>",is fighting,
null,"<div style=""font-size:60px;"">+</div>",,html-keyboard-response,94,664136,0.0-13.0-0.11,8049,List2A,black,woman,,,,null,,,,
null,"<img src=""stim_listA/dance4.gif""</stim_listA>",,html-keyboard-response,95,666142,0.0-13.0-1.11,8049,List2A,black,woman,,,,null,,,,
null,are dancing with each other,,html-keyboard-response,96,668147,0.0-13.0-2.11,8049,List2A,black,woman,,,,null,,,,
13424,,,survey-text,97,681573,0.0-13.0-3.11,8049,List2A,black,woman,,,,,"{""Q0"":""mike and beth are dancing ""}","<img src=""stim_listA/dance4.gif""</stim_listA>",are dancing with each other,
null,"<div style=""font-size:60px;"">+</div>",,html-keyboard-response,98,682076,0.0-13.0-0.12,8049,List2A,black,woman,,,,null,,,,
null,"<img src=""stim_listA/shout3.gif""</stim_listA>",,html-keyboard-response,99,684078,0.0-13.0-1.12,8049,List2A,black,woman,,,,null,,,,
null,is shouting at,,html-keyboard-response,100,686083,0.0-13.0-2.12,8049,List2A,black,woman,,,,null,,,,
11609,,,survey-text,101,697693,0.0-13.0-3.12,8049,List2A,black,woman,,,,,"{""Q0"":""beth is shouting at fred""}","<img src=""stim_listA/shout3.gif""</stim_listA>",is shouting at,
null,"<div style=""font-size:60px;"">+</div>",,html-keyboard-response,102,698197,0.0-13.0-0.13,8049,List2A,black,woman,,,,null,,,,
null,"<img src=""stim_listA/hug6.gif""</stim_listA>",,html-keyboard-response,103,700203,0.0-13.0-1.13,8049,List2A,black,woman,,,,null,,,,
null,are hugging each other,,html-keyboard-response,104,702206,0.0-13.0-2.13,8049,List2A,black,woman,,,,null,,,,
12317,,,survey-text,105,714524,0.0-13.0-3.13,8049,List2A,black,woman,,,,,"{""Q0"":""mike and dave are hugging each other""}","<img src=""stim_listA/hug6.gif""</stim_listA>",are hugging each other,
null,"<div style=""font-size:60px;"">+</div>",,html-keyboard-response,106,715030,0.0-13.0-0.14,8049,List2A,black,woman,,,,null,,,,
null,"<img src=""stim_listA/shout5.gif""</stim_listA>",,html-keyboard-response,107,717037,0.0-13.0-1.14,8049,List2A,black,woman,,,,null,,,,
null,is shouting at,,html-keyboard-response,108,719039,0.0-13.0-2.14,8049,List2A,black,woman,,,,null,,,,
8803,,,survey-text,109,727844,0.0-13.0-3.14,8049,List2A,black,woman,,,,,"{""Q0"":""fred is shouting at luke ""}","<img src=""stim_listA/shout5.gif""</stim_listA>",is shouting at,
null,"<div style=""font-size:60px;"">+</div>",,html-keyboard-response,110,728350,0.0-13.0-0.15,8049,List2A,black,woman,,,,null,,,,
null,"<img src=""stim_listA/touch4.gif""</stim_listA>",,html-keyboard-response,111,730353,0.0-13.0-1.15,8049,List2A,black,woman,,,,null,,,,
null,are touching each other,,html-keyboard-response,112,732358,0.0-13.0-2.15,8049,List2A,black,woman,,,,null,,,,
14654,,,survey-text,113,747014,0.0-13.0-3.15,8049,List2A,black,woman,,,,,"{""Q0"":""beth and fred are touching each other""}","<img src=""stim_listA/touch4.gif""</stim_listA>",are touching each other,
null,"<div style=""font-size:60px;"">+</div>",,html-keyboard-response,114,747518,0.0-13.0-0.16,8049,List2A,black,woman,,,,null,,,,
null,"<img src=""stim_listA/touch8.gif""</stim_listA>",,html-keyboard-response,115,749523,0.0-13.0-1.16,8049,List2A,black,woman,,,,null,,,,
null,are touching each other,,html-keyboard-response,116,751524,0.0-13.0-2.16,8049,List2A,black,woman,,,,null,,,,
15052,,,survey-text,117,766578,0.0-13.0-3.16,8049,List2A,black,woman,,,,,"{""Q0"":""jane and beth are touching each other""}","<img src=""stim_listA/touch8.gif""</stim_listA>",are touching each other,
null,"<div style=""font-size:60px;"">+</div>",,html-keyboard-response,118,767085,0.0-13.0-0.17,8049,List2A,black,woman,,,,null,,,,
null,"<img src=""stim_listA/marry7.gif""</stim_listA>",,html-keyboard-response,119,769091,0.0-13.0-1.17,8049,List2A,black,woman,,,,null,,,,
null,is marrying,,html-keyboard-response,120,771092,0.0-13.0-2.17,8049,List2A,black,woman,,,,null,,,,
10446,,,survey-text,121,781540,0.0-13.0-3.17,8049,List2A,black,woman,,,,,"{""Q0"":""beth and ruth are marrying ""}","<img src=""stim_listA/marry7.gif""</stim_listA>",is marrying,
null,"<div style=""font-size:60px;"">+</div>",,html-keyboard-response,122,782043,0.0-13.0-0.18,8049,List2A,black,woman,,,,null,,,,
null,"<img src=""stim_listA/talk6.gif""</stim_listA>",,html-keyboard-response,123,784049,0.0-13.0-1.18,8049,List2A,black,woman,,,,null,,,,
null,are talking to each other,,html-keyboard-response,124,786054,0.0-13.0-2.18,8049,List2A,black,woman,,,,null,,,,
16308,,,survey-text,125,802364,0.0-13.0-3.18,8049,List2A,black,woman,,,,,"{""Q0"":""fred and dave are talking to each other""}","<img src=""stim_listA/talk6.gif""</stim_listA>",are talking to each other,
null,"<div style=""font-size:60px;"">+</div>",,html-keyboard-response,126,802870,0.0-13.0-0.19,8049,List2A,black,woman,,,,null,,,,
null,"<img src=""stim_listA/fight6.gif""</stim_listA>",,html-keyboard-response,127,804875,0.0-13.0-1.19,8049,List2A,black,woman,,,,null,,,,
null,are fighting each other,,html-keyboard-response,128,806877,0.0-13.0-2.19,8049,List2A,black,woman,,,,null,,,,
14250,,,survey-text,129,821129,0.0-13.0-3.19,8049,List2A,black,woman,,,,,"{""Q0"":""fred and mike are fighting each other""}","<img src=""stim_listA/fight6.gif""</stim_listA>",are fighting each other,
155181,"<img src='img/portrait_matrix_list2.JPG' style='width:900px;height:500px;''></img><p>If you have memorised all the portraits and names and are ready to start, press Continue.</p><p><strong>Please note: Your memory of these faces will be tested 4 times during this experiment.</strong></p>",0,html-button-response,130,976312,0.0-14.0-0.0,8049,List2A,black,woman,,,,,,,,
3439,"<img src=""portrait/BM1.jpg""style=""width:400px;height:400px;""></img>",4,html-button-response,131,980755,0.0-14.0-1.0,8049,List2A,black,woman,,TRUE,4,,,,,
null,CORRECT,,html-keyboard-response,132,982266,0.0-14.0-2.0-0.0,8049,List2A,black,woman,,,,null,,,,
2784,"<img src=""portrait/BW1.jpg""style=""width:400px;height:400px;""></img>",0,html-button-response,133,985052,0.0-14.0-4.0,8049,List2A,black,woman,,TRUE,0,,,,,
null,CORRECT,,html-keyboard-response,134,986560,0.0-14.0-5.0-0.0,8049,List2A,black,woman,,,,null,,,,
2479,"<img src=""portrait/WW2.jpg""style=""width:400px;height:400px;""></img>",3,html-button-response,135,989046,0.0-14.0-7.0,8049,List2A,black,woman,,TRUE,3,,,,,
null,CORRECT,,html-keyboard-response,136,990558,0.0-14.0-8.0-0.0,8049,List2A,black,woman,,,,null,,,,
6518,"<img src=""portrait/WM2.jpg""style=""width:400px;height:400px;""></img>",7,html-button-response,137,997078,0.0-14.0-10.0,8049,List2A,black,woman,,TRUE,7,,,,,
null,CORRECT,,html-keyboard-response,138,998590,0.0-14.0-11.0-0.0,8049,List2A,black,woman,,,,null,,,,
3480,"<img src=""portrait/WM1.jpg""style=""width:400px;height:400px;""></img>",6,html-button-response,139,1002073,0.0-14.0-13.0,8049,List2A,black,woman,,TRUE,6,,,,,
null,CORRECT,,html-keyboard-response,140,1003581,0.0-14.0-14.0-0.0,8049,List2A,black,woman,,,,null,,,,
5927,"<img src=""portrait/BW2.jpg""style=""width:400px;height:400px;""></img>",1,html-button-response,141,1009510,0.0-14.0-16.0,8049,List2A,black,woman,,TRUE,2,,,,,
6890,"<img src=""portrait/BW2.jpg""style=""width:400px;height:400px;""></img>",2,html-button-response,142,1017407,0.0-14.0-18.0-0.0,8049,List2A,black,woman,,FALSE,2,,,,,
null,CORRECT,,html-keyboard-response,143,1018919,0.0-14.0-18.0-1.0-0.0,8049,List2A,black,woman,,,,null,,,,
3942,"<img src=""portrait/BM2.jpg""style=""width:400px;height:400px;""></img>",5,html-button-response,144,1022863,0.0-14.0-19.0,8049,List2A,black,woman,,TRUE,5,,,,,
null,CORRECT,,html-keyboard-response,145,1024374,0.0-14.0-20.0-0.0,8049,List2A,black,woman,,,,null,,,,
4123,"<img src=""portrait/WW1.jpg""style=""width:400px;height:400px;""></img>",1,html-button-response,146,1028499,0.0-14.0-22.0,8049,List2A,black,woman,,TRUE,1,,,,,
null,CORRECT,,html-keyboard-response,147,1030011,0.0-14.0-23.0-0.0,8049,List2A,black,woman,,,,null,,,,
1591,<p>You got 7 out of 8 right first time. Press Continue.</p>,0,html-button-response,148,1031604,0.0-14.0-25.0,8049,List2A,black,woman,,,,,,,,
2000,"As you did not score 100%, the memory game will repeat. Press Continue.",0,html-button-response,149,1034608,0.0-14.0-26.0-0.0,8049,List2A,black,woman,,,,,,,,
1720,"<img src='img/portrait_matrix_list2.JPG' style='width:900px;height:500px;''></img><p>If you have memorised all the portraits and names and are ready to start, press Continue.</p><p><strong>Please note: Your memory of these faces will be tested 4 times during this experiment.</strong></p>",0,html-button-response,150,1037330,0.0-14.1-0.1,8049,List2A,black,woman,,,,,,,,
2852,"<img src=""portrait/BM1.jpg""style=""width:400px;height:400px;""></img>",4,html-button-response,151,1041191,0.0-14.1-1.1,8049,List2A,black,woman,,TRUE,4,,,,,
null,CORRECT,,html-keyboard-response,152,1042703,0.0-14.1-2.1-0.1,8049,List2A,black,woman,,,,null,,,,
2996,"<img src=""portrait/BW1.jpg""style=""width:400px;height:400px;""></img>",0,html-button-response,153,1045701,0.0-14.1-4.1,8049,List2A,black,woman,,TRUE,0,,,,,
null,CORRECT,,html-keyboard-response,154,1047213,0.0-14.1-5.1-0.1,8049,List2A,black,woman,,,,null,,,,
3031,"<img src=""portrait/WW2.jpg""style=""width:400px;height:400px;""></img>",3,html-button-response,155,1050246,0.0-14.1-7.1,8049,List2A,black,woman,,TRUE,3,,,,,
null,CORRECT,,html-keyboard-response,156,1051754,0.0-14.1-8.1-0.1,8049,List2A,black,woman,,,,null,,,,
2798,"<img src=""portrait/WM2.jpg""style=""width:400px;height:400px;""></img>",7,html-button-response,157,1054554,0.0-14.1-10.1,8049,List2A,black,woman,,TRUE,7,,,,,
null,CORRECT,,html-keyboard-response,158,1056061,0.0-14.1-11.1-0.1,8049,List2A,black,woman,,,,null,,,,
2789,"<img src=""portrait/WM1.jpg""style=""width:400px;height:400px;""></img>",6,html-button-response,159,1058852,0.0-14.1-13.1,8049,List2A,black,woman,,TRUE,6,,,,,
null,CORRECT,,html-keyboard-response,160,1060357,0.0-14.1-14.1-0.1,8049,List2A,black,woman,,,,null,,,,
2700,"<img src=""portrait/BW2.jpg""style=""width:400px;height:400px;""></img>",2,html-button-response,161,1063059,0.0-14.1-16.1,8049,List2A,black,woman,,TRUE,2,,,,,
null,CORRECT,,html-keyboard-response,162,1064564,0.0-14.1-17.1-0.1,8049,List2A,black,woman,,,,null,,,,
2183,"<img src=""portrait/BM2.jpg""style=""width:400px;height:400px;""></img>",5,html-button-response,163,1066749,0.0-14.1-19.1,8049,List2A,black,woman,,TRUE,5,,,,,
null,CORRECT,,html-keyboard-response,164,1068251,0.0-14.1-20.1-0.1,8049,List2A,black,woman,,,,null,,,,
3390,"<img src=""portrait/WW1.jpg""style=""width:400px;height:400px;""></img>",1,html-button-response,165,1071643,0.0-14.1-22.1,8049,List2A,black,woman,,TRUE,1,,,,,
null,CORRECT,,html-keyboard-response,166,1073152,0.0-14.1-23.1-0.1,8049,List2A,black,woman,,,,null,,,,
1132,<p>You got 8 out of 8 right first time. Press Continue.</p>,0,html-button-response,167,1074286,0.0-14.1-25.1,8049,List2A,black,woman,,,,,,,,
null,"<div style=""font-size:60px;"">+</div>",,html-keyboard-response,168,1075792,0.0-15.0-0.0,8049,List2A,black,woman,,,,null,,,,
null,"<img src=""stim_listA/argue8.gif""</stim_listA>",,html-keyboard-response,169,1077794,0.0-15.0-1.0,8049,List2A,black,woman,,,,null,,,,
null,are arguing with each other,,html-keyboard-response,170,1079800,0.0-15.0-2.0,8049,List2A,black,woman,,,,null,,,,
34794,,,survey-text,171,1114595,0.0-15.0-3.0,8049,List2A,black,woman,,,,,"{""Q0"":""kate and ruth are arguing with each other""}","<img src=""stim_listA/argue8.gif""</stim_listA>",are arguing with each other,
null,"<div style=""font-size:60px;"">+</div>",,html-keyboard-response,172,1115098,0.0-15.0-0.1,8049,List2A,black,woman,,,,null,,,,
null,"<img src=""stim_listA/meet2.gif""</stim_listA>",,html-keyboard-response,173,1117105,0.0-15.0-1.1,8049,List2A,black,woman,,,,null,,,,
null,are meeting each other,,html-keyboard-response,174,1119110,0.0-15.0-2.1,8049,List2A,black,woman,,,,null,,,,
26364,,,survey-text,175,1145476,0.0-15.0-3.1,8049,List2A,black,woman,,,,,"{""Q0"":""luke and jane are meeting each other""}","<img src=""stim_listA/meet2.gif""</stim_listA>",are meeting each other,
null,"<div style=""font-size:60px;"">+</div>",,html-keyboard-response,176,1145983,0.0-15.0-0.2,8049,List2A,black,woman,,,,null,,,,
null,"<img src=""stim_listA/meet3.gif""</stim_listA>",,html-keyboard-response,177,1147985,0.0-15.0-1.2,8049,List2A,black,woman,,,,null,,,,
null,is meeting,,html-keyboard-response,178,1149990,0.0-15.0-2.2,8049,List2A,black,woman,,,,null,,,,
9637,,,survey-text,179,1159629,0.0-15.0-3.2,8049,List2A,black,woman,,,,,"{""Q0"":""mike is meeting kate ""}","<img src=""stim_listA/meet3.gif""</stim_listA>",is meeting,
null,"<div style=""font-size:60px;"">+</div>",,html-keyboard-response,180,1160133,0.0-15.0-0.3,8049,List2A,black,woman,,,,null,,,,
null,"<img src=""stim_listA/hug3.gif""</stim_listA>",,html-keyboard-response,181,1162135,0.0-15.0-1.3,8049,List2A,black,woman,,,,null,,,,
null,is hugging,,html-keyboard-response,182,1164136,0.0-15.0-2.3,8049,List2A,black,woman,,,,null,,,,
7440,,,survey-text,183,1171577,0.0-15.0-3.3,8049,List2A,black,woman,,,,,"{""Q0"":""beth is hugging fred""}","<img src=""stim_listA/hug3.gif""</stim_listA>",is hugging,
null,"<div style=""font-size:60px;"">+</div>",,html-keyboard-response,184,1172084,0.0-15.0-0.4,8049,List2A,black,woman,,,,null,,,,
null,"<img src=""stim_listA/hug2.gif""</stim_listA>",,html-keyboard-response,185,1174086,0.0-15.0-1.4,8049,List2A,black,woman,,,,null,,,,
null,are hugging each other,,html-keyboard-response,186,1176091,0.0-15.0-2.4,8049,List2A,black,woman,,,,null,,,,
11188,,,survey-text,187,1187281,0.0-15.0-3.4,8049,List2A,black,woman,,,,,"{""Q0"":""dave is hugging ruth""}","<img src=""stim_listA/hug2.gif""</stim_listA>",are hugging each other,
null,"<div style=""font-size:60px;"">+</div>",,html-keyboard-response,188,1187783,0.0-15.0-0.5,8049,List2A,black,woman,,,,null,,,,
null,"<img src=""stim_listA/talk4.gif""</stim_listA>",,html-keyboard-response,189,1189786,0.0-15.0-1.5,8049,List2A,black,woman,,,,null,,,,
null,are talking to each other,,html-keyboard-response,190,1191787,0.0-15.0-2.5,8049,List2A,black,woman,,,,null,,,,
11516,,,survey-text,191,1203303,0.0-15.0-3.5,8049,List2A,black,woman,,,,,"{""Q0"":""mike and beth are talking to each other""}","<img src=""stim_listA/talk4.gif""</stim_listA>",are talking to each other,
null,"<div style=""font-size:60px;"">+</div>",,html-keyboard-response,192,1203810,0.0-15.0-0.6,8049,List2A,black,woman,,,,null,,,,
null,"<img src=""stim_listA/meet7.gif""</stim_listA>",,html-keyboard-response,193,1205818,0.0-15.0-1.6,8049,List2A,black,woman,,,,null,,,,
null,is meeting,,html-keyboard-response,194,1207824,0.0-15.0-2.6,8049,List2A,black,woman,,,,null,,,,
7823,,,survey-text,195,1215647,0.0-15.0-3.6,8049,List2A,black,woman,,,,,"{""Q0"":""kate is meeting jane""}","<img src=""stim_listA/meet7.gif""</stim_listA>",is meeting,
null,"<div style=""font-size:60px;"">+</div>",,html-keyboard-response,196,1216154,0.0-15.0-0.7,8049,List2A,black,woman,,,,null,,,,
null,"<img src=""stim_listA/touch6.gif""</stim_listA>",,html-keyboard-response,197,1218161,0.0-15.0-1.7,8049,List2A,black,woman,,,,null,,,,
null,are touching each other,,html-keyboard-response,198,1220167,0.0-15.0-2.7,8049,List2A,black,woman,,,,null,,,,
18241,,,survey-text,199,1238409,0.0-15.0-3.7,8049,List2A,black,woman,,,,,"{""Q0"":""luke and fred are touching each other""}","<img src=""stim_listA/touch6.gif""</stim_listA>",are touching each other,
null,"<div style=""font-size:60px;"">+</div>",,html-keyboard-response,200,1238916,0.0-15.0-0.8,8049,List2A,black,woman,,,,null,,,,
null,"<img src=""stim_listA/kiss6.gif""</stim_listA>",,html-keyboard-response,201,1240919,0.0-15.0-1.8,8049,List2A,black,woman,,,,null,,,,
null,are kissing each other,,html-keyboard-response,202,1242924,0.0-15.0-2.8,8049,List2A,black,woman,,,,null,,,,
10187,,,survey-text,203,1253113,0.0-15.0-3.8,8049,List2A,black,woman,,,,,"{""Q0"":""mike and dave are kissing each other""}","<img src=""stim_listA/kiss6.gif""</stim_listA>",are kissing each other,
null,"<div style=""font-size:60px;"">+</div>",,html-keyboard-response,204,1253614,0.0-15.0-0.9,8049,List2A,black,woman,,,,null,,,,
null,"<img src=""stim_listA/marry5.gif""</stim_listA>",,html-keyboard-response,205,1255618,0.0-15.0-1.9,8049,List2A,black,woman,,,,null,,,,
null,is marrying,,html-keyboard-response,206,1257619,0.0-15.0-2.9,8049,List2A,black,woman,,,,null,,,,
10185,,,survey-text,207,1267805,0.0-15.0-3.9,8049,List2A,black,woman,,,,,"{""Q0"":""fred is marrying dave""}","<img src=""stim_listA/marry5.gif""</stim_listA>",is marrying,
null,"<div style=""font-size:60px;"">+</div>",,html-keyboard-response,208,1268312,0.0-15.0-0.10,8049,List2A,black,woman,,,,null,,,,
null,"<img src=""stim_listA/argue2.gif""</stim_listA>",,html-keyboard-response,209,1270318,0.0-15.0-1.10,8049,List2A,black,woman,,,,null,,,,
null,are arguing with each other,,html-keyboard-response,210,1272324,0.0-15.0-2.10,8049,List2A,black,woman,,,,null,,,,
14808,,,survey-text,211,1287133,0.0-15.0-3.10,8049,List2A,black,woman,,,,,"{""Q0"":""jane and luke are arguing with each other""}","<img src=""stim_listA/argue2.gif""</stim_listA>",are arguing with each other,
null,"<div style=""font-size:60px;"">+</div>",,html-keyboard-response,212,1287634,0.0-15.0-0.11,8049,List2A,black,woman,,,,null,,,,
null,"<img src=""stim_listA/meet5.gif""</stim_listA>",,html-keyboard-response,213,1289640,0.0-15.0-1.11,8049,List2A,black,woman,,,,null,,,,
null,is meeting,,html-keyboard-response,214,1291643,0.0-15.0-2.11,8049,List2A,black,woman,,,,null,,,,
8909,,,survey-text,215,1300554,0.0-15.0-3.11,8049,List2A,black,woman,,,,,"{""Q0"":""luke ismeeting fred""}","<img src=""stim_listA/meet5.gif""</stim_listA>",is meeting,
null,"<div style=""font-size:60px;"">+</div>",,html-keyboard-response,216,1301060,0.0-15.0-0.12,8049,List2A,black,woman,,,,null,,,,
null,"<img src=""stim_listA/shout6.gif""</stim_listA>",,html-keyboard-response,217,1303065,0.0-15.0-1.12,8049,List2A,black,woman,,,,null,,,,
null,are shouting at each other,,html-keyboard-response,218,1305070,0.0-15.0-2.12,8049,List2A,black,woman,,,,null,,,,
14958,,,survey-text,219,1320029,0.0-15.0-3.12,8049,List2A,black,woman,,,,,"{""Q0"":""dave and fred are shouting at each other""}","<img src=""stim_listA/shout6.gif""</stim_listA>",are shouting at each other,
null,"<div style=""font-size:60px;"">+</div>",,html-keyboard-response,220,1320536,0.0-15.0-0.13,8049,List2A,black,woman,,,,null,,,,
null,"<img src=""stim_listA/argue3.gif""</stim_listA>",,html-keyboard-response,221,1322542,0.0-15.0-1.13,8049,List2A,black,woman,,,,null,,,,
null,is arguing with,,html-keyboard-response,222,1324547,0.0-15.0-2.13,8049,List2A,black,woman,,,,null,,,,
4974,,,survey-text,223,1329523,0.0-15.0-3.13,8049,List2A,black,woman,,,,,"{""Q0"":""""}","<img src=""stim_listA/argue3.gif""</stim_listA>",is arguing with,
null,"<div style=""font-size:60px;"">+</div>",,html-keyboard-response,224,1330025,0.0-15.0-0.14,8049,List2A,black,woman,,,,null,,,,
null,"<img src=""stim_listA/shout7.gif""</stim_listA>",,html-keyboard-response,225,1332032,0.0-15.0-1.14,8049,List2A,black,woman,,,,null,,,,
null,is shouting at,,html-keyboard-response,226,1334039,0.0-15.0-2.14,8049,List2A,black,woman,,,,null,,,,
10569,,,survey-text,227,1344609,0.0-15.0-3.14,8049,List2A,black,woman,,,,,"{""Q0"":""beth is shouting at jane""}","<img src=""stim_listA/shout7.gif""</stim_listA>",is shouting at,
null,"<div style=""font-size:60px;"">+</div>",,html-keyboard-response,228,1345115,0.0-15.0-0.15,8049,List2A,black,woman,,,,null,,,,
null,"<img src=""stim_listA/marry1.gif""</stim_listA>",,html-keyboard-response,229,1347122,0.0-15.0-1.15,8049,List2A,black,woman,,,,null,,,,
null,is marrying,,html-keyboard-response,230,1349127,0.0-15.0-2.15,8049,List2A,black,woman,,,,null,,,,
8913,,,survey-text,231,1358041,0.0-15.0-3.15,8049,List2A,black,woman,,,,,"{""Q0"":""jane is marrying dave""}","<img src=""stim_listA/marry1.gif""</stim_listA>",is marrying,
null,"<div style=""font-size:60px;"">+</div>",,html-keyboard-response,232,1358545,0.0-15.0-0.16,8049,List2A,black,woman,,,,null,,,,
null,"<img src=""stim_listA/talk1.gif""</stim_listA>",,html-keyboard-response,233,1360549,0.0-15.0-1.16,8049,List2A,black,woman,,,,null,,,,
null,is talking to,,html-keyboard-response,234,1362553,0.0-15.0-2.16,8049,List2A,black,woman,,,,null,,,,
8975,,,survey-text,235,1371530,0.0-15.0-3.16,8049,List2A,black,woman,,,,,"{""Q0"":""jane is talking to dave""}","<img src=""stim_listA/talk1.gif""</stim_listA>",is talking to,
null,"<div style=""font-size:60px;"">+</div>",,html-keyboard-response,236,1372036,0.0-15.0-0.17,8049,List2A,black,woman,,,,null,,,,
null,"<img src=""stim_listA/kiss3.gif""</stim_listA>",,html-keyboard-response,237,1374040,0.0-15.0-1.17,8049,List2A,black,woman,,,,null,,,,
null,is kissing,,html-keyboard-response,238,1376044,0.0-15.0-2.17,8049,List2A,black,woman,,,,null,,,,
8737,,,survey-text,239,1384782,0.0-15.0-3.17,8049,List2A,black,woman,,,,,"{""Q0"":""beth is kissing dave ""}","<img src=""stim_listA/kiss3.gif""</stim_listA>",is kissing,
null,"<div style=""font-size:60px;"">+</div>",,html-keyboard-response,240,1385286,0.0-15.0-0.18,8049,List2A,black,woman,,,,null,,,,
null,"<img src=""stim_listA/hug8.gif""</stim_listA>",,html-keyboard-response,241,1387293,0.0-15.0-1.18,8049,List2A,black,woman,,,,null,,,,
null,are hugging each other,,html-keyboard-response,242,1389298,0.0-15.0-2.18,8049,List2A,black,woman,,,,null,,,,
8161,,,survey-text,243,1397461,0.0-15.0-3.18,8049,List2A,black,woman,,,,,"{""Q0"":""kate and jane are hugging""}","<img src=""stim_listA/hug8.gif""</stim_listA>",are hugging each other,
null,"<div style=""font-size:60px;"">+</div>",,html-keyboard-response,244,1397964,0.0-15.0-0.19,8049,List2A,black,woman,,,,null,,,,
null,"<img src=""stim_listA/argue5.gif""</stim_listA>",,html-keyboard-response,245,1399971,0.0-15.0-1.19,8049,List2A,black,woman,,,,null,,,,
null,is arguing with,,html-keyboard-response,246,1401972,0.0-15.0-2.19,8049,List2A,black,woman,,,,null,,,,
12677,,,survey-text,247,1414651,0.0-15.0-3.19,8049,List2A,black,woman,,,,,"{""Q0"":""mike is arguing with luke""}","<img src=""stim_listA/argue5.gif""</stim_listA>",is arguing with,
5556,"<img src='img/portrait_matrix_list2.JPG' style='width:900px;height:500px;''></img><p>If you have memorised all the portraits and names and are ready to start, press Continue.</p><p><strong>Please note: Your memory of these faces will be tested 4 times during this experiment.</strong></p>",0,html-button-response,248,1420209,0.0-16.0-0.0,8049,List2A,black,woman,,,,,,,,
3222,"<img src=""portrait/BM2.jpg""style=""width:400px;height:400px;""></img>",5,html-button-response,249,1424439,0.0-16.0-1.0,8049,List2A,black,woman,,TRUE,5,,,,,
null,CORRECT,,html-keyboard-response,250,1425944,0.0-16.0-2.0-0.0,8049,List2A,black,woman,,,,null,,,,
2655,"<img src=""portrait/WM2.jpg""style=""width:400px;height:400px;""></img>",7,html-button-response,251,1428601,0.0-16.0-4.0,8049,List2A,black,woman,,TRUE,7,,,,,
null,CORRECT,,html-keyboard-response,252,1430113,0.0-16.0-5.0-0.0,8049,List2A,black,woman,,,,null,,,,
2874,"<img src=""portrait/BW1.jpg""style=""width:400px;height:400px;""></img>",0,html-button-response,253,1432989,0.0-16.0-7.0,8049,List2A,black,woman,,TRUE,0,,,,,
null,CORRECT,,html-keyboard-response,254,1434491,0.0-16.0-8.0-0.0,8049,List2A,black,woman,,,,null,,,,
2895,"<img src=""portrait/WW1.jpg""style=""width:400px;height:400px;""></img>",1,html-button-response,255,1437388,0.0-16.0-10.0,8049,List2A,black,woman,,TRUE,1,,,,,
null,CORRECT,,html-keyboard-response,256,1438897,0.0-16.0-11.0-0.0,8049,List2A,black,woman,,,,null,,,,
3630,"<img src=""portrait/BW2.jpg""style=""width:400px;height:400px;""></img>",2,html-button-response,257,1442529,0.0-16.0-13.0,8049,List2A,black,woman,,TRUE,2,,,,,
null,CORRECT,,html-keyboard-response,258,1444039,0.0-16.0-14.0-0.0,8049,List2A,black,woman,,,,null,,,,
3529,"<img src=""portrait/WM1.jpg""style=""width:400px;height:400px;""></img>",6,html-button-response,259,1447570,0.0-16.0-16.0,8049,List2A,black,woman,,TRUE,6,,,,,
null,CORRECT,,html-keyboard-response,260,1449082,0.0-16.0-17.0-0.0,8049,List2A,black,woman,,,,null,,,,
2602,"<img src=""portrait/WW2.jpg""style=""width:400px;height:400px;""></img>",3,html-button-response,261,1451686,0.0-16.0-19.0,8049,List2A,black,woman,,TRUE,3,,,,,
null,CORRECT,,html-keyboard-response,262,1453195,0.0-16.0-20.0-0.0,8049,List2A,black,woman,,,,null,,,,
2460,"<img src=""portrait/BM1.jpg""style=""width:400px;height:400px;""></img>",4,html-button-response,263,1455658,0.0-16.0-22.0,8049,List2A,black,woman,,TRUE,4,,,,,
null,CORRECT,,html-keyboard-response,264,1457165,0.0-16.0-23.0-0.0,8049,List2A,black,woman,,,,null,,,,
1505,<p>You got 8 out of 8 right first time. Press Continue.</p>,0,html-button-response,265,1458671,0.0-16.0-25.0,8049,List2A,black,woman,,,,,,,,
null,"<div style=""font-size:60px;"">+</div>",,html-keyboard-response,266,1460178,0.0-17.0-0.0,8049,List2A,black,woman,,,,null,,,,
null,"<img src=""stim_listA/dance8.gif""</stim_listA>",,html-keyboard-response,267,1462181,0.0-17.0-1.0,8049,List2A,black,woman,,,,null,,,,
null,are dancing with each other,,html-keyboard-response,268,1464183,0.0-17.0-2.0,8049,List2A,black,woman,,,,null,,,,
13241,,,survey-text,269,1477426,0.0-17.0-3.0,8049,List2A,black,woman,,,,,"{""Q0"":""beth and jane are dancing with each other""}","<img src=""stim_listA/dance8.gif""</stim_listA>",are dancing with each other,
null,"<div style=""font-size:60px;"">+</div>",,html-keyboard-response,270,1477929,0.0-17.0-0.1,8049,List2A,black,woman,,,,null,,,,
null,"<img src=""stim_listA/touch3.gif""</stim_listA>",,html-keyboard-response,271,1479932,0.0-17.0-1.1,8049,List2A,black,woman,,,,null,,,,
null,is touching,,html-keyboard-response,272,1481934,0.0-17.0-2.1,8049,List2A,black,woman,,,,null,,,,
8394,,,survey-text,273,1490330,0.0-17.0-3.1,8049,List2A,black,woman,,,,,"{""Q0"":""mike and beth are touching""}","<img src=""stim_listA/touch3.gif""</stim_listA>",is touching,
null,"<div style=""font-size:60px;"">+</div>",,html-keyboard-response,274,1490833,0.0-17.0-0.2,8049,List2A,black,woman,,,,null,,,,
null,"<img src=""stim_listA/fight2.gif""</stim_listA>",,html-keyboard-response,275,1492835,0.0-17.0-1.2,8049,List2A,black,woman,,,,null,,,,
null,are fighting each other,,html-keyboard-response,276,1494841,0.0-17.0-2.2,8049,List2A,black,woman,,,,null,,,,
5232,,,survey-text,277,1500073,0.0-17.0-3.2,8049,List2A,black,woman,,,,,"{""Q0"":""fed and dave ""}","<img src=""stim_listA/fight2.gif""</stim_listA>",are fighting each other,
null,"<div style=""font-size:60px;"">+</div>",,html-keyboard-response,278,1500580,0.0-17.0-0.3,8049,List2A,black,woman,,,,null,,,,
null,"<img src=""stim_listA/marry6.gif""</stim_listA>",,html-keyboard-response,279,1502584,0.0-17.0-1.3,8049,List2A,black,woman,,,,null,,,,
null,are marrying each other,,html-keyboard-response,280,1504588,0.0-17.0-2.3,8049,List2A,black,woman,,,,null,,,,
816,,,survey-text,281,1505405,0.0-17.0-3.3,8049,List2A,black,woman,,,,,"{""Q0"":""""}","<img src=""stim_listA/marry6.gif""</stim_listA>",are marrying each other,
null,"<div style=""font-size:60px;"">+</div>",,html-keyboard-response,282,1505910,0.0-17.0-0.4,8049,List2A,black,woman,,,,null,,,,
null,"<img src=""stim_listA/dance7.gif""</stim_listA>",,html-keyboard-response,283,1507916,0.0-17.0-1.4,8049,List2A,black,woman,,,,null,,,,
null,is dancing with,,html-keyboard-response,284,1509922,0.0-17.0-2.4,8049,List2A,black,woman,,,,null,,,,
11761,,,survey-text,285,1521684,0.0-17.0-3.4,8049,List2A,black,woman,,,,,"{""Q0"":""beth is dancing with jane ""}","<img src=""stim_listA/dance7.gif""</stim_listA>",is dancing with,
null,"<div style=""font-size:60px;"">+</div>",,html-keyboard-response,286,1522187,0.0-17.0-0.5,8049,List2A,black,woman,,,,null,,,,
null,"<img src=""stim_listA/marry2.gif""</stim_listA>",,html-keyboard-response,287,1525305,0.0-17.0-1.5,8049,List2A,black,woman,,,,null,,,,
null,are marrying each other,,html-keyboard-response,288,1528796,0.0-17.0-2.5,8049,List2A,black,woman,,,,null,,,,
1616,,,survey-text,289,1530413,0.0-17.0-3.5,8049,List2A,black,woman,,,,,"{""Q0"":""""}","<img src=""stim_listA/marry2.gif""</stim_listA>",are marrying each other,
null,"<div style=""font-size:60px;"">+</div>",,html-keyboard-response,290,1530920,0.0-17.0-0.6,8049,List2A,black,woman,,,,null,,,,
null,"<img src=""stim_listA/hug5.gif""</stim_listA>",,html-keyboard-response,291,1532923,0.0-17.0-1.6,8049,List2A,black,woman,,,,null,,,,
null,is hugging,,html-keyboard-response,292,1534929,0.0-17.0-2.6,8049,List2A,black,woman,,,,null,,,,
9410,,,survey-text,293,1544341,0.0-17.0-3.6,8049,List2A,black,woman,,,,,"{""Q0"":""fred and luke are hugging""}","<img src=""stim_listA/hug5.gif""</stim_listA>",is hugging,
null,"<div style=""font-size:60px;"">+</div>",,html-keyboard-response,294,1544843,0.0-17.0-0.7,8049,List2A,black,woman,,,,null,,,,
null,"<img src=""stim_listA/touch2.gif""</stim_listA>",,html-keyboard-response,295,1546850,0.0-17.0-1.7,8049,List2A,black,woman,,,,null,,,,
null,are touching each other,,html-keyboard-response,296,1548851,0.0-17.0-2.7,8049,List2A,black,woman,,,,null,,,,
12150,,,survey-text,297,1561002,0.0-17.0-3.7,8049,List2A,black,woman,,,,,"{""Q0"":""luke and ruth are touching each other""}","<img src=""stim_listA/touch2.gif""</stim_listA>",are touching each other,
null,"<div style=""font-size:60px;"">+</div>",,html-keyboard-response,298,1561508,0.0-17.0-0.8,8049,List2A,black,woman,,,,null,,,,
null,"<img src=""stim_listA/marry3.gif""</stim_listA>",,html-keyboard-response,299,1563515,0.0-17.0-1.8,8049,List2A,black,woman,,,,null,,,,
null,is marrying,,html-keyboard-response,300,1565516,0.0-17.0-2.8,8049,List2A,black,woman,,,,null,,,,
11809,,,survey-text,301,1577326,0.0-17.0-3.8,8049,List2A,black,woman,,,,,"{""Q0"":""luke and beth are marrying each other""}","<img src=""stim_listA/marry3.gif""</stim_listA>",is marrying,
null,"<div style=""font-size:60px;"">+</div>",,html-keyboard-response,302,1577832,0.0-17.0-0.9,8049,List2A,black,woman,,,,null,,,,
null,"<img src=""stim_listA/meet6.gif""</stim_listA>",,html-keyboard-response,303,1579839,0.0-17.0-1.9,8049,List2A,black,woman,,,,null,,,,
null,are meeting each other,,html-keyboard-response,304,1581840,0.0-17.0-2.9,8049,List2A,black,woman,,,,null,,,,
10458,,,survey-text,305,1592300,0.0-17.0-3.9,8049,List2A,black,woman,,,,,"{""Q0"":""fred and luke are meeting each other""}","<img src=""stim_listA/meet6.gif""</stim_listA>",are meeting each other,
null,"<div style=""font-size:60px;"">+</div>",,html-keyboard-response,306,1592803,0.0-17.0-0.10,8049,List2A,black,woman,,,,null,,,,
null,"<img src=""stim_listA/meet8.gif""</stim_listA>",,html-keyboard-response,307,1594809,0.0-17.0-1.10,8049,List2A,black,woman,,,,null,,,,
null,are meeting each other,,html-keyboard-response,308,1596815,0.0-17.0-2.10,8049,List2A,black,woman,,,,null,,,,
15722,,,survey-text,309,1612538,0.0-17.0-3.10,8049,List2A,black,woman,,,,,"{""Q0"":""beth and jane are meeting ecad other""}","<img src=""stim_listA/meet8.gif""</stim_listA>",are meeting each other,
null,"<div style=""font-size:60px;"">+</div>",,html-keyboard-response,310,1613040,0.0-17.0-0.11,8049,List2A,black,woman,,,,null,,,,
null,"<img src=""stim_listA/talk3.gif""</stim_listA>",,html-keyboard-response,311,1615045,0.0-17.0-1.11,8049,List2A,black,woman,,,,null,,,,
null,is talking to,,html-keyboard-response,312,1617051,0.0-17.0-2.11,8049,List2A,black,woman,,,,null,,,,
8424,,,survey-text,313,1625475,0.0-17.0-3.11,8049,List2A,black,woman,,,,,"{""Q0"":""fred is talking to beth""}","<img src=""stim_listA/talk3.gif""</stim_listA>",is talking to,
null,"<div style=""font-size:60px;"">+</div>",,html-keyboard-response,314,1625978,0.0-17.0-0.12,8049,List2A,black,woman,,,,null,,,,
null,"<img src=""stim_listA/kiss2.gif""</stim_listA>",,html-keyboard-response,315,1627980,0.0-17.0-1.12,8049,List2A,black,woman,,,,null,,,,
null,are kissing each other,,html-keyboard-response,316,1629981,0.0-17.0-2.12,8049,List2A,black,woman,,,,null,,,,
8948,,,survey-text,317,1638930,0.0-17.0-3.12,8049,List2A,black,woman,,,,,"{""Q0"":""jane and dave are kissing each other""}","<img src=""stim_listA/kiss2.gif""</stim_listA>",are kissing each other,
null,"<div style=""font-size:60px;"">+</div>",,html-keyboard-response,318,1639433,0.0-17.0-0.13,8049,List2A,black,woman,,,,null,,,,
null,"<img src=""stim_listA/kiss7.gif""</stim_listA>",,html-keyboard-response,319,1641439,0.0-17.0-1.13,8049,List2A,black,woman,,,,null,,,,
null,is kissing,,html-keyboard-response,320,1643440,0.0-17.0-2.13,8049,List2A,black,woman,,,,null,,,,
5737,,,survey-text,321,1649179,0.0-17.0-3.13,8049,List2A,black,woman,,,,,"{""Q0"":""beth is kissing jane""}","<img src=""stim_listA/kiss7.gif""</stim_listA>",is kissing,
null,"<div style=""font-size:60px;"">+</div>",,html-keyboard-response,322,1649683,0.0-17.0-0.14,8049,List2A,black,woman,,,,null,,,,
null,"<img src=""stim_listA/kiss8.gif""</stim_listA>",,html-keyboard-response,323,1651689,0.0-17.0-1.14,8049,List2A,black,woman,,,,null,,,,
null,are kissing each other,,html-keyboard-response,324,1653694,0.0-17.0-2.14,8049,List2A,black,woman,,,,null,,,,
9805,,,survey-text,325,1663500,0.0-17.0-3.14,8049,List2A,black,woman,,,,,"{""Q0"":""beth and jane are kissing each other""}","<img src=""stim_listA/kiss8.gif""</stim_listA>",are kissing each other,
null,"<div style=""font-size:60px;"">+</div>",,html-keyboard-response,326,1664006,0.0-17.0-0.15,8049,List2A,black,woman,,,,null,,,,
null,"<img src=""stim_listA/dance6.gif""</stim_listA>",,html-keyboard-response,327,1666009,0.0-17.0-1.15,8049,List2A,black,woman,,,,null,,,,
null,are dancing with each other,,html-keyboard-response,328,1668014,0.0-17.0-2.15,8049,List2A,black,woman,,,,null,,,,
17726,,,survey-text,329,1685741,0.0-17.0-3.15,8049,List2A,black,woman,,,,,"{""Q0"":""fred and dave are dancing with each other""}","<img src=""stim_listA/dance6.gif""</stim_listA>",are dancing with each other,
null,"<div style=""font-size:60px;"">+</div>",,html-keyboard-response,330,1686245,0.0-17.0-0.16,8049,List2A,black,woman,,,,null,,,,
null,"<img src=""stim_listA/dance2.gif""</stim_listA>",,html-keyboard-response,331,1688252,0.0-17.0-1.16,8049,List2A,black,woman,,,,null,,,,
null,are dancing with each other,,html-keyboard-response,332,1690255,0.0-17.0-2.16,8049,List2A,black,woman,,,,null,,,,
15679,,,survey-text,333,1705936,0.0-17.0-3.16,8049,List2A,black,woman,,,,,"{""Q0"":""dave and ruth are dancing with each other""}","<img src=""stim_listA/dance2.gif""</stim_listA>",are dancing with each other,
null,"<div style=""font-size:60px;"">+</div>",,html-keyboard-response,334,1706441,0.0-17.0-0.17,8049,List2A,black,woman,,,,null,,,,
null,"<img src=""stim_listA/meet4.gif""</stim_listA>",,html-keyboard-response,335,1708443,0.0-17.0-1.17,8049,List2A,black,woman,,,,null,,,,
null,are meeting each other,,html-keyboard-response,336,1710444,0.0-17.0-2.17,8049,List2A,black,woman,,,,null,,,,
12635,,,survey-text,337,1723081,0.0-17.0-3.17,8049,List2A,black,woman,,,,,"{""Q0"":""fred and beth are meeting each other""}","<img src=""stim_listA/meet4.gif""</stim_listA>",are meeting each other,
null,"<div style=""font-size:60px;"">+</div>",,html-keyboard-response,338,1723588,0.0-17.0-0.18,8049,List2A,black,woman,,,,null,,,,
null,"<img src=""stim_listA/touch1.gif""</stim_listA>",,html-keyboard-response,339,1725589,0.0-17.0-1.18,8049,List2A,black,woman,,,,null,,,,
null,is touching,,html-keyboard-response,340,1727591,0.0-17.0-2.18,8049,List2A,black,woman,,,,null,,,,
17920,,,survey-text,341,1745512,0.0-17.0-3.18,8049,List2A,black,woman,,,,,"{""Q0"":""dave is touching ruth""}","<img src=""stim_listA/touch1.gif""</stim_listA>",is touching,
null,"<div style=""font-size:60px;"">+</div>",,html-keyboard-response,342,1746015,0.0-17.0-0.19,8049,List2A,black,woman,,,,null,,,,
null,"<img src=""stim_listA/kiss4.gif""</stim_listA>",,html-keyboard-response,343,1748019,0.0-17.0-1.19,8049,List2A,black,woman,,,,null,,,,
null,are kissing each other,,html-keyboard-response,344,1750024,0.0-17.0-2.19,8049,List2A,black,woman,,,,null,,,,
12599,,,survey-text,345,1762625,0.0-17.0-3.19,8049,List2A,black,woman,,,,,"{""Q0"":""mike and kate are kissing each other""}","<img src=""stim_listA/kiss4.gif""</stim_listA>",are kissing each other,
2236,"<img src='img/portrait_matrix_list2.JPG' style='width:900px;height:500px;''></img><p>If you have memorised all the portraits and names and are ready to start, press Continue.</p><p><strong>Please note: Your memory of these faces will be tested 4 times during this experiment.</strong></p>",0,html-button-response,346,1764862,0.0-18.0-0.0,8049,List2A,black,woman,,,,,,,,
3515,"<img src=""portrait/WM1.jpg""style=""width:400px;height:400px;""></img>",6,html-button-response,347,1769385,0.0-18.0-1.0,8049,List2A,black,woman,,TRUE,6,,,,,
null,CORRECT,,html-keyboard-response,348,1770892,0.0-18.0-2.0-0.0,8049,List2A,black,woman,,,,null,,,,
2024,"<img src=""portrait/BM2.jpg""style=""width:400px;height:400px;""></img>",5,html-button-response,349,1772918,0.0-18.0-4.0,8049,List2A,black,woman,,TRUE,5,,,,,
null,CORRECT,,html-keyboard-response,350,1774428,0.0-18.0-5.0-0.0,8049,List2A,black,woman,,,,null,,,,
3798,"<img src=""portrait/BW2.jpg""style=""width:400px;height:400px;""></img>",2,html-button-response,351,1778228,0.0-18.0-7.0,8049,List2A,black,woman,,TRUE,2,,,,,
null,CORRECT,,html-keyboard-response,352,1779737,0.0-18.0-8.0-0.0,8049,List2A,black,woman,,,,null,,,,
4530,"<img src=""portrait/WW1.jpg""style=""width:400px;height:400px;""></img>",1,html-button-response,353,1784269,0.0-18.0-10.0,8049,List2A,black,woman,,TRUE,1,,,,,
null,CORRECT,,html-keyboard-response,354,1785778,0.0-18.0-11.0-0.0,8049,List2A,black,woman,,,,null,,,,
2167,"<img src=""portrait/WM2.jpg""style=""width:400px;height:400px;""></img>",7,html-button-response,355,1787948,0.0-18.0-13.0,8049,List2A,black,woman,,TRUE,7,,,,,
null,CORRECT,,html-keyboard-response,356,1789458,0.0-18.0-14.0-0.0,8049,List2A,black,woman,,,,null,,,,
2245,"<img src=""portrait/BM1.jpg""style=""width:400px;height:400px;""></img>",4,html-button-response,357,1791705,0.0-18.0-16.0,8049,List2A,black,woman,,TRUE,4,,,,,
null,CORRECT,,html-keyboard-response,358,1793213,0.0-18.0-17.0-0.0,8049,List2A,black,woman,,,,null,,,,
2833,"<img src=""portrait/WW2.jpg""style=""width:400px;height:400px;""></img>",3,html-button-response,359,1796047,0.0-18.0-19.0,8049,List2A,black,woman,,TRUE,3,,,,,
null,CORRECT,,html-keyboard-response,360,1797556,0.0-18.0-20.0-0.0,8049,List2A,black,woman,,,,null,,,,
3934,"<img src=""portrait/BW1.jpg""style=""width:400px;height:400px;""></img>",0,html-button-response,361,1801492,0.0-18.0-22.0,8049,List2A,black,woman,,TRUE,0,,,,,
null,CORRECT,,html-keyboard-response,362,1803004,0.0-18.0-23.0-0.0,8049,List2A,black,woman,,,,null,,,,
960,<p>You got 8 out of 8 right first time. Press Continue.</p>,0,html-button-response,363,1803967,0.0-18.0-25.0,8049,List2A,black,woman,,,,,,,,
null,"<div style=""font-size:60px;"">+</div>",,html-keyboard-response,364,1805473,0.0-19.0-0.0,8049,List2A,black,woman,,,,null,,,,
null,"<img src=""stim_listA/argue7.gif""</stim_listA>",,html-keyboard-response,365,1807476,0.0-19.0-1.0,8049,List2A,black,woman,,,,null,,,,
null,is arguing with,,html-keyboard-response,366,1809478,0.0-19.0-2.0,8049,List2A,black,woman,,,,null,,,,
10665,,,survey-text,367,1820145,0.0-19.0-3.0,8049,List2A,black,woman,,,,,"{""Q0"":""beth is arguing with ruth""}","<img src=""stim_listA/argue7.gif""</stim_listA>",is arguing with,
null,"<div style=""font-size:60px;"">+</div>",,html-keyboard-response,368,1820651,0.0-19.0-0.1,8049,List2A,black,woman,,,,null,,,,
null,"<img src=""stim_listA/shout2.gif""</stim_listA>",,html-keyboard-response,369,1822653,0.0-19.0-1.1,8049,List2A,black,woman,,,,null,,,,
null,are shouting at each other,,html-keyboard-response,370,1824654,0.0-19.0-2.1,8049,List2A,black,woman,,,,null,,,,
11014,,,survey-text,371,1835670,0.0-19.0-3.1,8049,List2A,black,woman,,,,,"{""Q0"":""dave and jane are shouting at each other""}","<img src=""stim_listA/shout2.gif""</stim_listA>",are shouting at each other,
null,"<div style=""font-size:60px;"">+</div>",,html-keyboard-response,372,1836176,0.0-19.0-0.2,8049,List2A,black,woman,,,,null,,,,
null,"<img src=""stim_listA/kiss1.gif""</stim_listA>",,html-keyboard-response,373,1838184,0.0-19.0-1.2,8049,List2A,black,woman,,,,null,,,,
null,is kissing,,html-keyboard-response,374,1840184,0.0-19.0-2.2,8049,List2A,black,woman,,,,null,,,,
6903,,,survey-text,375,1847088,0.0-19.0-3.2,8049,List2A,black,woman,,,,,"{""Q0"":""fred is kissing ruth""}","<img src=""stim_listA/kiss1.gif""</stim_listA>",is kissing,
null,"<div style=""font-size:60px;"">+</div>",,html-keyboard-response,376,1847592,0.0-19.0-0.3,8049,List2A,black,woman,,,,null,,,,
null,"<img src=""stim_listA/touch5.gif""</stim_listA>",,html-keyboard-response,377,1849595,0.0-19.0-1.3,8049,List2A,black,woman,,,,null,,,,
null,is touching,,html-keyboard-response,378,1851598,0.0-19.0-2.3,8049,List2A,black,woman,,,,null,,,,
8539,,,survey-text,379,1860138,0.0-19.0-3.3,8049,List2A,black,woman,,,,,"{""Q0"":""dave is touching mike""}","<img src=""stim_listA/touch5.gif""</stim_listA>",is touching,
null,"<div style=""font-size:60px;"">+</div>",,html-keyboard-response,380,1860645,0.0-19.0-0.4,8049,List2A,black,woman,,,,null,,,,
null,"<img src=""stim_listA/fight8.gif""</stim_listA>",,html-keyboard-response,381,1862650,0.0-19.0-1.4,8049,List2A,black,woman,,,,null,,,,
null,are fighting each other,,html-keyboard-response,382,1864654,0.0-19.0-2.4,8049,List2A,black,woman,,,,null,,,,
13270,,,survey-text,383,1877924,0.0-19.0-3.4,8049,List2A,black,woman,,,,,"{""Q0"":""beth and jane are fighting each other""}","<img src=""stim_listA/fight8.gif""</stim_listA>",are fighting each other,
null,"<div style=""font-size:60px;"">+</div>",,html-keyboard-response,384,1878431,0.0-19.0-0.5,8049,List2A,black,woman,,,,null,,,,
null,"<img src=""stim_listA/touch7.gif""</stim_listA>",,html-keyboard-response,385,1880437,0.0-19.0-1.5,8049,List2A,black,woman,,,,null,,,,
null,is touching,,html-keyboard-response,386,1882442,0.0-19.0-2.5,8049,List2A,black,woman,,,,null,,,,
10939,,,survey-text,387,1893382,0.0-19.0-3.5,8049,List2A,black,woman,,,,,"{""Q0"":""kate is touching jane""}","<img src=""stim_listA/touch7.gif""</stim_listA>",is touching,
null,"<div style=""font-size:60px;"">+</div>",,html-keyboard-response,388,1893888,0.0-19.0-0.6,8049,List2A,black,woman,,,,null,,,,
null,"<img src=""stim_listA/argue1.gif""</stim_listA>",,html-keyboard-response,389,1895895,0.0-19.0-1.6,8049,List2A,black,woman,,,,null,,,,
null,is arguing with,,html-keyboard-response,390,1897896,0.0-19.0-2.6,8049,List2A,black,woman,,,,null,,,,
11223,,,survey-text,391,1909121,0.0-19.0-3.6,8049,List2A,black,woman,,,,,"{""Q0"":""dave and ruth is arging ""}","<img src=""stim_listA/argue1.gif""</stim_listA>",is arguing with,
null,"<div style=""font-size:60px;"">+</div>",,html-keyboard-response,392,1909625,0.0-19.0-0.7,8049,List2A,black,woman,,,,null,,,,
null,"<img src=""stim_listA/argue6.gif""</stim_listA>",,html-keyboard-response,393,1911628,0.0-19.0-1.7,8049,List2A,black,woman,,,,null,,,,
null,are arguing with each other,,html-keyboard-response,394,1913630,0.0-19.0-2.7,8049,List2A,black,woman,,,,null,,,,
167568,,,survey-text,395,2081200,0.0-19.0-3.7,8049,List2A,black,woman,,,,,"{""Q0"":""""}","<img src=""stim_listA/argue6.gif""</stim_listA>",are arguing with each other,
null,"<div style=""font-size:60px;"">+</div>",,html-keyboard-response,396,2081702,0.0-19.0-0.8,8049,List2A,black,woman,,,,null,,,,
null,"<img src=""stim_listA/fight4.gif""</stim_listA>",,html-keyboard-response,397,2083708,0.0-19.0-1.8,8049,List2A,black,woman,,,,null,,,,
null,are fighting each other,,html-keyboard-response,398,2085709,0.0-19.0-2.8,8049,List2A,black,woman,,,,null,,,,
11183,,,survey-text,399,2096894,0.0-19.0-3.8,8049,List2A,black,woman,,,,,"{""Q0"":""fred and beth are fighting each other""}","<img src=""stim_listA/fight4.gif""</stim_listA>",are fighting each other,
null,"<div style=""font-size:60px;"">+</div>",,html-keyboard-response,400,2097397,0.0-19.0-0.9,8049,List2A,black,woman,,,,null,,,,
null,"<img src=""stim_listA/hug1.gif""</stim_listA>",,html-keyboard-response,401,2099402,0.0-19.0-1.9,8049,List2A,black,woman,,,,null,,,,
null,is hugging,,html-keyboard-response,402,2101404,0.0-19.0-2.9,8049,List2A,black,woman,,,,null,,,,
9134,,,survey-text,403,2110540,0.0-19.0-3.9,8049,List2A,black,woman,,,,,"{""Q0"":""luke is hugging ruth""}","<img src=""stim_listA/hug1.gif""</stim_listA>",is hugging,
null,"<div style=""font-size:60px;"">+</div>",,html-keyboard-response,404,2111046,0.0-19.0-0.10,8049,List2A,black,woman,,,,null,,,,
null,"<img src=""stim_listA/dance1.gif""</stim_listA>",,html-keyboard-response,405,2113048,0.0-19.0-1.10,8049,List2A,black,woman,,,,null,,,,
null,is dancing with,,html-keyboard-response,406,2115050,0.0-19.0-2.10,8049,List2A,black,woman,,,,null,,,,
10339,,,survey-text,407,2125391,0.0-19.0-3.10,8049,List2A,black,woman,,,,,"{""Q0"":""luke is dancing with jane""}","<img src=""stim_listA/dance1.gif""</stim_listA>",is dancing with,
null,"<div style=""font-size:60px;"">+</div>",,html-keyboard-response,408,2125898,0.0-19.0-0.11,8049,List2A,black,woman,,,,null,,,,
null,"<img src=""stim_listA/hug4.gif""</stim_listA>",,html-keyboard-response,409,2127900,0.0-19.0-1.11,8049,List2A,black,woman,,,,null,,,,
null,are hugging each other,,html-keyboard-response,410,2129903,0.0-19.0-2.11,8049,List2A,black,woman,,,,null,,,,
11066,,,survey-text,411,2140971,0.0-19.0-3.11,8049,List2A,black,woman,,,,,"{""Q0"":""mike and kate are hugging each other""}","<img src=""stim_listA/hug4.gif""</stim_listA>",are hugging each other,
null,"<div style=""font-size:60px;"">+</div>",,html-keyboard-response,412,2141476,0.0-19.0-0.12,8049,List2A,black,woman,,,,null,,,,
null,"<img src=""stim_listA/talk8.gif""</stim_listA>",,html-keyboard-response,413,2143478,0.0-19.0-1.12,8049,List2A,black,woman,,,,null,,,,
null,are talking to each other,,html-keyboard-response,414,2145483,0.0-19.0-2.12,8049,List2A,black,woman,,,,null,,,,
12147,,,survey-text,415,2157632,0.0-19.0-3.12,8049,List2A,black,woman,,,,,"{""Q0"":""beth and jane are talking to each other""}","<img src=""stim_listA/talk8.gif""</stim_listA>",are talking to each other,
null,"<div style=""font-size:60px;"">+</div>",,html-keyboard-response,416,2158134,0.0-19.0-0.13,8049,List2A,black,woman,,,,null,,,,
null,"<img src=""stim_listA/dance5.gif""</stim_listA>",,html-keyboard-response,417,2160137,0.0-19.0-1.13,8049,List2A,black,woman,,,,null,,,,
null,is dancing with,,html-keyboard-response,418,2162139,0.0-19.0-2.13,8049,List2A,black,woman,,,,null,,,,
11175,,,survey-text,419,2173315,0.0-19.0-3.13,8049,List2A,black,woman,,,,,"{""Q0"":""mike is dancing with luke""}","<img src=""stim_listA/dance5.gif""</stim_listA>",is dancing with,
null,"<div style=""font-size:60px;"">+</div>",,html-keyboard-response,420,2173821,0.0-19.0-0.14,8049,List2A,black,woman,,,,null,,,,
null,"<img src=""stim_listA/dance3.gif""</stim_listA>",,html-keyboard-response,421,2175823,0.0-19.0-1.14,8049,List2A,black,woman,,,,null,,,,
null,is dancing with,,html-keyboard-response,422,2177824,0.0-19.0-2.14,8049,List2A,black,woman,,,,null,,,,
9945,,,survey-text,423,2187771,0.0-19.0-3.14,8049,List2A,black,woman,,,,,"{""Q0"":""fred and beth are dancing""}","<img src=""stim_listA/dance3.gif""</stim_listA>",is dancing with,
null,"<div style=""font-size:60px;"">+</div>",,html-keyboard-response,424,2188273,0.0-19.0-0.15,8049,List2A,black,woman,,,,null,,,,
null,"<img src=""stim_listA/shout4.gif""</stim_listA>",,html-keyboard-response,425,2190275,0.0-19.0-1.15,8049,List2A,black,woman,,,,null,,,,
null,are shouting at each other,,html-keyboard-response,426,2192276,0.0-19.0-2.15,8049,List2A,black,woman,,,,null,,,,
9771,,,survey-text,427,2202047,0.0-19.0-3.15,8049,List2A,black,woman,,,,,"{""Q0"":""mike and kate are shouting at each other""}","<img src=""stim_listA/shout4.gif""</stim_listA>",are shouting at each other,
null,"<div style=""font-size:60px;"">+</div>",,html-keyboard-response,428,2202549,0.0-19.0-0.16,8049,List2A,black,woman,,,,null,,,,
null,"<img src=""stim_listA/kiss5.gif""</stim_listA>",,html-keyboard-response,429,2204555,0.0-19.0-1.16,8049,List2A,black,woman,,,,null,,,,
null,is kissing,,html-keyboard-response,430,2206557,0.0-19.0-2.16,8049,List2A,black,woman,,,,null,,,,
7841,,,survey-text,431,2214398,0.0-19.0-3.16,8049,List2A,black,woman,,,,,"{""Q0"":""fred is kissing luke""}","<img src=""stim_listA/kiss5.gif""</stim_listA>",is kissing,
null,"<div style=""font-size:60px;"">+</div>",,html-keyboard-response,432,2214902,0.0-19.0-0.17,8049,List2A,black,woman,,,,null,,,,
null,"<img src=""stim_listA/meet1.gif""</stim_listA>",,html-keyboard-response,433,2216907,0.0-19.0-1.17,8049,List2A,black,woman,,,,null,,,,
null,is meeting,,html-keyboard-response,434,2218910,0.0-19.0-2.17,8049,List2A,black,woman,,,,null,,,,
5231,,,survey-text,435,2224142,0.0-19.0-3.17,8049,List2A,black,woman,,,,,"{""Q0"":""dave is meeting jane""}","<img src=""stim_listA/meet1.gif""</stim_listA>",is meeting,
null,"<div style=""font-size:60px;"">+</div>",,html-keyboard-response,436,2224646,0.0-19.0-0.18,8049,List2A,black,woman,,,,null,,,,
null,"<img src=""stim_listA/fight1.gif""</stim_listA>",,html-keyboard-response,437,2226651,0.0-19.0-1.18,8049,List2A,black,woman,,,,null,,,,
null,is fighting,,html-keyboard-response,438,2228656,0.0-19.0-2.18,8049,List2A,black,woman,,,,null,,,,
7679,,,survey-text,439,2236338,0.0-19.0-3.18,8049,List2A,black,woman,,,,,"{""Q0"":""dave is fighting jane""}","<img src=""stim_listA/fight1.gif""</stim_listA>",is fighting,
null,"<div style=""font-size:60px;"">+</div>",,html-keyboard-response,440,2236842,0.0-19.0-0.19,8049,List2A,black,woman,,,,null,,,,
null,"<img src=""stim_listA/talk7.gif""</stim_listA>",,html-keyboard-response,441,2238846,0.0-19.0-1.19,8049,List2A,black,woman,,,,null,,,,
null,is talking to,,html-keyboard-response,442,2240847,0.0-19.0-2.19,8049,List2A,black,woman,,,,null,,,,
12082,,,survey-text,443,2252931,0.0-19.0-3.19,8049,List2A,black,woman,,,,,"{""Q0"":""kate is talking to jane""}","<img src=""stim_listA/talk7.gif""</stim_listA>",is talking to,
2868,<p>Thank you for completing that task.</p><p>The final part of this session is a short questionnaire.</p><p>Press Continue.</p>,0,html-button-response,444,2255799,0.0-20.0,8049,List2A,black,woman,,,,,,,,
26289,,,survey-text,445,2283092,0.0-21.0,8049,List2A,black,woman,,,,,"{""Q0"":""37"",""Q1"":""English"",""Q2"":""English"",""Q3"":""UK"",""Q4"":""Black African"",""Q5"":""Female""}",,,demographics
46694,,,survey-likert,446,2329797,0.0-22.0,8049,List2A,black,woman,,,,,"{""Q0"":6,""Q1"":6,""Q2"":6,""Q3"":6,""Q4"":6,""Q5"":6,""Q6"":6,""Q7"":6,""Q8"":6,""Q9"":6,""Q10"":6,""Q11"":6,""Q12"":6,""Q13"":4}",,,likert_race
32673,,,survey-likert,447,2362476,0.0-23.0,8049,List2A,black,woman,,,,,"{""Q0"":6,""Q1"":6,""Q2"":6,""Q3"":6,""Q4"":6,""Q5"":6,""Q6"":6,""Q7"":6,""Q8"":6,""Q9"":6,""Q10"":6,""Q11"":6,""Q12"":6,""Q13"":6}",,,likert_gender
9188,,,survey-text,448,2371666,0.0-24.0,8049,List2A,black,woman,,,,,"{""Q0"":""ccc""}",,,worker_id
28529,,,external-html,449,2400268,0.0-25.0,8049,List2A,black,woman,debrief.html,,,,,,,
