rt,stimulus,button_pressed,trial_type,trial_index,time_elapsed,internal_node_id,subject,list,ppt_race,ppt_gender,url,first_guess,correct,key_press,responses,image_type,phrase_type,test_part
2565,Welcome to the experiment. Press Continue to begin.,0,html-button-response,0,2569,0.0-0.0,80669,List2A,white,man,,,,,,,,
52183,,,external-html,1,55871,0.0-1.0,80669,List2A,white,man,consent.html,,,,,,,
12066,"<p>On the next page, you will see portraits of 8 people and their names.</p><p>Your first task is to take a few minutes to memorise the names of these people.</p><p>You will have to recall their names during the rest of the experiment, so it is</p><p>essential that you try to memorise these people and their names as best as you can.</p><br><p><strong>You will then be tested on your memory of these names and portraits.</strong></p><br><p>The experiment will start after you have completed this memory test.</p><br><p>Ready?</p>",0,html-button-response,2,67939,0.0-2.0,80669,List2A,white,man,,,,,,,,
277377,"<img src='img/portrait_matrix_list2.JPG' style='width:900px;height:500px;''></img><p>If you have memorised all the portraits and names and are ready to start, press Continue.</p><p><strong>Please note: Your memory of these faces will be tested 4 times during this experiment.</strong></p>",0,html-button-response,3,346319,0.0-3.0-0.0,80669,List2A,white,man,,,,,,,,
33109,"<img src=""portrait/BW2.jpg""style=""width:400px;height:400px;""></img>",3,html-button-response,4,380431,0.0-3.0-1.0,80669,List2A,white,man,,TRUE,2,,,,,
6680,"<img src=""portrait/BW2.jpg""style=""width:400px;height:400px;""></img>",2,html-button-response,5,388115,0.0-3.0-3.0-0.0,80669,List2A,white,man,,FALSE,2,,,,,
null,CORRECT,,html-keyboard-response,6,389617,0.0-3.0-3.0-1.0-0.0,80669,List2A,white,man,,,,null,,,,
2703,"<img src=""portrait/WM1.jpg""style=""width:400px;height:400px;""></img>",6,html-button-response,7,392322,0.0-3.0-4.0,80669,List2A,white,man,,TRUE,6,,,,,
null,CORRECT,,html-keyboard-response,8,393824,0.0-3.0-5.0-0.0,80669,List2A,white,man,,,,null,,,,
2929,"<img src=""portrait/WW1.jpg""style=""width:400px;height:400px;""></img>",1,html-button-response,9,396754,0.0-3.0-7.0,80669,List2A,white,man,,TRUE,1,,,,,
null,CORRECT,,html-keyboard-response,10,398258,0.0-3.0-8.0-0.0,80669,List2A,white,man,,,,null,,,,
3823,"<img src=""portrait/WW2.jpg""style=""width:400px;height:400px;""></img>",3,html-button-response,11,402083,0.0-3.0-10.0,80669,List2A,white,man,,TRUE,3,,,,,
null,CORRECT,,html-keyboard-response,12,403587,0.0-3.0-11.0-0.0,80669,List2A,white,man,,,,null,,,,
14799,"<img src=""portrait/BW1.jpg""style=""width:400px;height:400px;""></img>",0,html-button-response,13,418387,0.0-3.0-13.0,80669,List2A,white,man,,TRUE,0,,,,,
null,CORRECT,,html-keyboard-response,14,419889,0.0-3.0-14.0-0.0,80669,List2A,white,man,,,,null,,,,
3116,"<img src=""portrait/WM2.jpg""style=""width:400px;height:400px;""></img>",6,html-button-response,15,423006,0.0-3.0-16.0,80669,List2A,white,man,,TRUE,7,,,,,
5962,"<img src=""portrait/WM2.jpg""style=""width:400px;height:400px;""></img>",7,html-button-response,16,429970,0.0-3.0-18.0-0.0,80669,List2A,white,man,,FALSE,7,,,,,
null,CORRECT,,html-keyboard-response,17,431473,0.0-3.0-18.0-1.0-0.0,80669,List2A,white,man,,,,null,,,,
2668,"<img src=""portrait/BM1.jpg""style=""width:400px;height:400px;""></img>",5,html-button-response,18,434143,0.0-3.0-19.0,80669,List2A,white,man,,TRUE,4,,,,,
3082,"<img src=""portrait/BM1.jpg""style=""width:400px;height:400px;""></img>",4,html-button-response,19,438227,0.0-3.0-21.0-0.0,80669,List2A,white,man,,FALSE,4,,,,,
null,CORRECT,,html-keyboard-response,20,439729,0.0-3.0-21.0-1.0-0.0,80669,List2A,white,man,,,,null,,,,
4465,"<img src=""portrait/BM2.jpg""style=""width:400px;height:400px;""></img>",5,html-button-response,21,444194,0.0-3.0-22.0,80669,List2A,white,man,,TRUE,5,,,,,
null,CORRECT,,html-keyboard-response,22,445696,0.0-3.0-23.0-0.0,80669,List2A,white,man,,,,null,,,,
1597,<p>You got 5 out of 8 right first time. Press Continue.</p>,0,html-button-response,23,447294,0.0-3.0-25.0,80669,List2A,white,man,,,,,,,,
2647,"As you did not score 100%, the memory game will repeat. Press Continue.",0,html-button-response,24,450942,0.0-3.0-26.0-0.0,80669,List2A,white,man,,,,,,,,
1594,"<img src='img/portrait_matrix_list2.JPG' style='width:900px;height:500px;''></img><p>If you have memorised all the portraits and names and are ready to start, press Continue.</p><p><strong>Please note: Your memory of these faces will be tested 4 times during this experiment.</strong></p>",0,html-button-response,25,453538,0.0-3.1-0.1,80669,List2A,white,man,,,,,,,,
15377,"<img src=""portrait/BW2.jpg""style=""width:400px;height:400px;""></img>",2,html-button-response,26,469919,0.0-3.1-1.1,80669,List2A,white,man,,TRUE,2,,,,,
null,CORRECT,,html-keyboard-response,27,471421,0.0-3.1-2.1-0.1,80669,List2A,white,man,,,,null,,,,
6308,"<img src=""portrait/WM1.jpg""style=""width:400px;height:400px;""></img>",6,html-button-response,28,477731,0.0-3.1-4.1,80669,List2A,white,man,,TRUE,6,,,,,
null,CORRECT,,html-keyboard-response,29,479233,0.0-3.1-5.1-0.1,80669,List2A,white,man,,,,null,,,,
2412,"<img src=""portrait/WW1.jpg""style=""width:400px;height:400px;""></img>",1,html-button-response,30,481647,0.0-3.1-7.1,80669,List2A,white,man,,TRUE,1,,,,,
null,CORRECT,,html-keyboard-response,31,483149,0.0-3.1-8.1-0.1,80669,List2A,white,man,,,,null,,,,
5692,"<img src=""portrait/WW2.jpg""style=""width:400px;height:400px;""></img>",2,html-button-response,32,488843,0.0-3.1-10.1,80669,List2A,white,man,,TRUE,3,,,,,
1613,"<img src=""portrait/WW2.jpg""style=""width:400px;height:400px;""></img>",3,html-button-response,33,491458,0.0-3.1-12.1-0.1,80669,List2A,white,man,,FALSE,3,,,,,
null,CORRECT,,html-keyboard-response,34,492959,0.0-3.1-12.1-1.1-0.1,80669,List2A,white,man,,,,null,,,,
3411,"<img src=""portrait/BW1.jpg""style=""width:400px;height:400px;""></img>",0,html-button-response,35,496371,0.0-3.1-13.1,80669,List2A,white,man,,TRUE,0,,,,,
null,CORRECT,,html-keyboard-response,36,497872,0.0-3.1-14.1-0.1,80669,List2A,white,man,,,,null,,,,
1973,"<img src=""portrait/WM2.jpg""style=""width:400px;height:400px;""></img>",7,html-button-response,37,499846,0.0-3.1-16.1,80669,List2A,white,man,,TRUE,7,,,,,
null,CORRECT,,html-keyboard-response,38,501348,0.0-3.1-17.1-0.1,80669,List2A,white,man,,,,null,,,,
3233,"<img src=""portrait/BM1.jpg""style=""width:400px;height:400px;""></img>",4,html-button-response,39,504582,0.0-3.1-19.1,80669,List2A,white,man,,TRUE,4,,,,,
null,CORRECT,,html-keyboard-response,40,506085,0.0-3.1-20.1-0.1,80669,List2A,white,man,,,,null,,,,
1965,"<img src=""portrait/BM2.jpg""style=""width:400px;height:400px;""></img>",5,html-button-response,41,508050,0.0-3.1-22.1,80669,List2A,white,man,,TRUE,5,,,,,
null,CORRECT,,html-keyboard-response,42,509551,0.0-3.1-23.1-0.1,80669,List2A,white,man,,,,null,,,,
2038,<p>You got 7 out of 8 right first time. Press Continue.</p>,0,html-button-response,43,511590,0.0-3.1-25.1,80669,List2A,white,man,,,,,,,,
2283,"As you did not score 100%, the memory game will repeat. Press Continue.",0,html-button-response,44,514875,0.0-3.1-26.1-0.1,80669,List2A,white,man,,,,,,,,
1257,"<img src='img/portrait_matrix_list2.JPG' style='width:900px;height:500px;''></img><p>If you have memorised all the portraits and names and are ready to start, press Continue.</p><p><strong>Please note: Your memory of these faces will be tested 4 times during this experiment.</strong></p>",0,html-button-response,45,517134,0.0-3.2-0.2,80669,List2A,white,man,,,,,,,,
43934,"<img src=""portrait/BW2.jpg""style=""width:400px;height:400px;""></img>",2,html-button-response,46,562070,0.0-3.2-1.2,80669,List2A,white,man,,TRUE,2,,,,,
null,CORRECT,,html-keyboard-response,47,563573,0.0-3.2-2.2-0.2,80669,List2A,white,man,,,,null,,,,
6108,"<img src=""portrait/WM1.jpg""style=""width:400px;height:400px;""></img>",6,html-button-response,48,569682,0.0-3.2-4.2,80669,List2A,white,man,,TRUE,6,,,,,
null,CORRECT,,html-keyboard-response,49,571185,0.0-3.2-5.2-0.2,80669,List2A,white,man,,,,null,,,,
2000,"<img src=""portrait/WW1.jpg""style=""width:400px;height:400px;""></img>",0,html-button-response,50,573186,0.0-3.2-7.2,80669,List2A,white,man,,TRUE,1,,,,,
1161,"<img src=""portrait/WW1.jpg""style=""width:400px;height:400px;""></img>",1,html-button-response,51,575349,0.0-3.2-9.2-0.2,80669,List2A,white,man,,FALSE,1,,,,,
null,CORRECT,,html-keyboard-response,52,576852,0.0-3.2-9.2-1.2-0.2,80669,List2A,white,man,,,,null,,,,
4017,"<img src=""portrait/WW2.jpg""style=""width:400px;height:400px;""></img>",3,html-button-response,53,580871,0.0-3.2-10.2,80669,List2A,white,man,,TRUE,3,,,,,
null,CORRECT,,html-keyboard-response,54,582371,0.0-3.2-11.2-0.2,80669,List2A,white,man,,,,null,,,,
1942,"<img src=""portrait/BW1.jpg""style=""width:400px;height:400px;""></img>",1,html-button-response,55,584314,0.0-3.2-13.2,80669,List2A,white,man,,TRUE,0,,,,,
2449,"<img src=""portrait/BW1.jpg""style=""width:400px;height:400px;""></img>",0,html-button-response,56,587766,0.0-3.2-15.2-0.2,80669,List2A,white,man,,FALSE,0,,,,,
null,CORRECT,,html-keyboard-response,57,589270,0.0-3.2-15.2-1.2-0.2,80669,List2A,white,man,,,,null,,,,
1306,"<img src=""portrait/WM2.jpg""style=""width:400px;height:400px;""></img>",7,html-button-response,58,590578,0.0-3.2-16.2,80669,List2A,white,man,,TRUE,7,,,,,
null,CORRECT,,html-keyboard-response,59,592079,0.0-3.2-17.2-0.2,80669,List2A,white,man,,,,null,,,,
5289,"<img src=""portrait/BM1.jpg""style=""width:400px;height:400px;""></img>",4,html-button-response,60,597370,0.0-3.2-19.2,80669,List2A,white,man,,TRUE,4,,,,,
null,CORRECT,,html-keyboard-response,61,598874,0.0-3.2-20.2-0.2,80669,List2A,white,man,,,,null,,,,
1497,"<img src=""portrait/BM2.jpg""style=""width:400px;height:400px;""></img>",5,html-button-response,62,600374,0.0-3.2-22.2,80669,List2A,white,man,,TRUE,5,,,,,
null,CORRECT,,html-keyboard-response,63,601875,0.0-3.2-23.2-0.2,80669,List2A,white,man,,,,null,,,,
1334,<p>You got 6 out of 8 right first time. Press Continue.</p>,0,html-button-response,64,603210,0.0-3.2-25.2,80669,List2A,white,man,,,,,,,,
1505,"As you did not score 100%, the memory game will repeat. Press Continue.",0,html-button-response,65,605717,0.0-3.2-26.2-0.2,80669,List2A,white,man,,,,,,,,
4206,"<img src='img/portrait_matrix_list2.JPG' style='width:900px;height:500px;''></img><p>If you have memorised all the portraits and names and are ready to start, press Continue.</p><p><strong>Please note: Your memory of these faces will be tested 4 times during this experiment.</strong></p>",0,html-button-response,66,610927,0.0-3.3-0.3,80669,List2A,white,man,,,,,,,,
3890,"<img src=""portrait/BW2.jpg""style=""width:400px;height:400px;""></img>",2,html-button-response,67,615818,0.0-3.3-1.3,80669,List2A,white,man,,TRUE,2,,,,,
null,CORRECT,,html-keyboard-response,68,617321,0.0-3.3-2.3-0.3,80669,List2A,white,man,,,,null,,,,
2128,"<img src=""portrait/WM1.jpg""style=""width:400px;height:400px;""></img>",6,html-button-response,69,619449,0.0-3.3-4.3,80669,List2A,white,man,,TRUE,6,,,,,
null,CORRECT,,html-keyboard-response,70,620952,0.0-3.3-5.3-0.3,80669,List2A,white,man,,,,null,,,,
2781,"<img src=""portrait/WW1.jpg""style=""width:400px;height:400px;""></img>",1,html-button-response,71,623734,0.0-3.3-7.3,80669,List2A,white,man,,TRUE,1,,,,,
null,CORRECT,,html-keyboard-response,72,625235,0.0-3.3-8.3-0.3,80669,List2A,white,man,,,,null,,,,
3322,"<img src=""portrait/WW2.jpg""style=""width:400px;height:400px;""></img>",3,html-button-response,73,628558,0.0-3.3-10.3,80669,List2A,white,man,,TRUE,3,,,,,
null,CORRECT,,html-keyboard-response,74,630059,0.0-3.3-11.3-0.3,80669,List2A,white,man,,,,null,,,,
3286,"<img src=""portrait/BW1.jpg""style=""width:400px;height:400px;""></img>",0,html-button-response,75,633346,0.0-3.3-13.3,80669,List2A,white,man,,TRUE,0,,,,,
null,CORRECT,,html-keyboard-response,76,634850,0.0-3.3-14.3-0.3,80669,List2A,white,man,,,,null,,,,
3592,"<img src=""portrait/WM2.jpg""style=""width:400px;height:400px;""></img>",7,html-button-response,77,638442,0.0-3.3-16.3,80669,List2A,white,man,,TRUE,7,,,,,
null,CORRECT,,html-keyboard-response,78,639943,0.0-3.3-17.3-0.3,80669,List2A,white,man,,,,null,,,,
3098,"<img src=""portrait/BM1.jpg""style=""width:400px;height:400px;""></img>",4,html-button-response,79,643042,0.0-3.3-19.3,80669,List2A,white,man,,TRUE,4,,,,,
null,CORRECT,,html-keyboard-response,80,644543,0.0-3.3-20.3-0.3,80669,List2A,white,man,,,,null,,,,
1462,"<img src=""portrait/BM2.jpg""style=""width:400px;height:400px;""></img>",5,html-button-response,81,646005,0.0-3.3-22.3,80669,List2A,white,man,,TRUE,5,,,,,
null,CORRECT,,html-keyboard-response,82,647508,0.0-3.3-23.3-0.3,80669,List2A,white,man,,,,null,,,,
1210,<p>You got 8 out of 8 right first time. Press Continue.</p>,0,html-button-response,83,648718,0.0-3.3-25.3,80669,List2A,white,man,,,,,,,,
53853,"<p>In this experiment, you will view photographs of the people from the memory game interacting.</p><p>By using the <strong>exact</strong> phrase given <i>after</i> the photograph appears and recalling the correct names of the people in the photographs, form a sentence describing the interaction. You do not need to capitalise names.</p><p>Type your answer in the space provided. Please complete every sentence before moving onto the next trial.</p><p>You will only have a few seconds to memorise each given photograph and phrase before you can respond, so try your best to focus.</p><p>An example is given below. Press 'Continue' when you are ready.</p><img src='img/speaking_example_v2.jpg' style='width:800px;height:460px;''></img>",0,html-button-response,84,703575,0.0-4.0,80669,List2A,white,man,,,,,,,,
2369,"<p>Before the experiment starts, you will watch two example trials. Press 'Continue'.</p>",0,html-button-response,85,706946,0.0-5.0,80669,List2A,white,man,,,,,,,,
null,<img src='img/speaking_WW.gif'></img>,,html-keyboard-response,86,709948,0.0-6.0,80669,List2A,white,man,,,,null,,,,
null,<p>is speaking to</p>,,html-keyboard-response,87,711950,0.0-7.0,80669,List2A,white,man,,,,null,,,,
3532,<p><b>Answer:</b> jane is speaking to ruth</p>,0,html-button-response,88,715483,0.0-8.0,80669,List2A,white,man,,,,,,,,
null,<img src='img/pointing_BM.gif'></img>,,html-keyboard-response,89,718484,0.0-9.0,80669,List2A,white,man,,,,null,,,,
null,<p>are pointing at each other</p>,,html-keyboard-response,90,720485,0.0-10.0,80669,List2A,white,man,,,,null,,,,
2456,<p><b>Answer:</b> fred and mike are pointing at each other</p>,0,html-button-response,91,722942,0.0-11.0,80669,List2A,white,man,,,,,,,,
10578,"<p>Ready to start the experiment?</p><br><p><strong>Remember to describe the picture using a full sentence,</strong></p><p><strong>that combines the names of the people with the given phrase.</strong></p><p><strong>If you do not do this correctly you will not be paid.</strong></p><p><strong> You do not need to capitalise names or use punctuation.</strong></p><br><p>Press 'Continue' to begin.</p>",0,html-button-response,92,734522,0.0-12.0,80669,List2A,white,man,,,,,,,,
null,"<div style=""font-size:60px;"">+</div>",,html-keyboard-response,93,736025,0.0-13.0-0.0,80669,List2A,white,man,,,,null,,,,
null,"<img src=""stim_listA/talk6.gif""</stim_listA>",,html-keyboard-response,94,738026,0.0-13.0-1.0,80669,List2A,white,man,,,,null,,,,
null,are talking to each other,,html-keyboard-response,95,740026,0.0-13.0-2.0,80669,List2A,white,man,,,,null,,,,
14850,,,survey-text,96,754877,0.0-13.0-3.0,80669,List2A,white,man,,,,,"{""Q0"":""Dave and Fred are talking to each other.""}","<img src=""stim_listA/talk6.gif""</stim_listA>",are talking to each other,
null,"<div style=""font-size:60px;"">+</div>",,html-keyboard-response,97,755380,0.0-13.0-0.1,80669,List2A,white,man,,,,null,,,,
null,"<img src=""stim_listA/kiss4.gif""</stim_listA>",,html-keyboard-response,98,757382,0.0-13.0-1.1,80669,List2A,white,man,,,,null,,,,
null,are kissing each other,,html-keyboard-response,99,759384,0.0-13.0-2.1,80669,List2A,white,man,,,,null,,,,
24108,,,survey-text,100,783493,0.0-13.0-3.1,80669,List2A,white,man,,,,,"{""Q0"":""Mike and Kate are kissing each other""}","<img src=""stim_listA/kiss4.gif""</stim_listA>",are kissing each other,
null,"<div style=""font-size:60px;"">+</div>",,html-keyboard-response,101,783997,0.0-13.0-0.2,80669,List2A,white,man,,,,null,,,,
null,"<img src=""stim_listA/argue3.gif""</stim_listA>",,html-keyboard-response,102,785999,0.0-13.0-1.2,80669,List2A,white,man,,,,null,,,,
null,is arguing with,,html-keyboard-response,103,788001,0.0-13.0-2.2,80669,List2A,white,man,,,,null,,,,
16512,,,survey-text,104,804513,0.0-13.0-3.2,80669,List2A,white,man,,,,,"{""Q0"":""Mike is arguing with Beth.""}","<img src=""stim_listA/argue3.gif""</stim_listA>",is arguing with,
null,"<div style=""font-size:60px;"">+</div>",,html-keyboard-response,105,805014,0.0-13.0-0.3,80669,List2A,white,man,,,,null,,,,
null,"<img src=""stim_listA/hug5.gif""</stim_listA>",,html-keyboard-response,106,807015,0.0-13.0-1.3,80669,List2A,white,man,,,,null,,,,
null,is hugging,,html-keyboard-response,107,809016,0.0-13.0-2.3,80669,List2A,white,man,,,,null,,,,
9097,,,survey-text,108,818113,0.0-13.0-3.3,80669,List2A,white,man,,,,,"{""Q0"":""Luke is hugging Fred.""}","<img src=""stim_listA/hug5.gif""</stim_listA>",is hugging,
null,"<div style=""font-size:60px;"">+</div>",,html-keyboard-response,109,818615,0.0-13.0-0.4,80669,List2A,white,man,,,,null,,,,
null,"<img src=""stim_listA/dance4.gif""</stim_listA>",,html-keyboard-response,110,820616,0.0-13.0-1.4,80669,List2A,white,man,,,,null,,,,
null,are dancing with each other,,html-keyboard-response,111,822618,0.0-13.0-2.4,80669,List2A,white,man,,,,null,,,,
14578,,,survey-text,112,837197,0.0-13.0-3.4,80669,List2A,white,man,,,,,"{""Q0"":""Mike and Beth are dancing with each other.""}","<img src=""stim_listA/dance4.gif""</stim_listA>",are dancing with each other,
null,"<div style=""font-size:60px;"">+</div>",,html-keyboard-response,113,837700,0.0-13.0-0.5,80669,List2A,white,man,,,,null,,,,
null,"<img src=""stim_listA/hug1.gif""</stim_listA>",,html-keyboard-response,114,839702,0.0-13.0-1.5,80669,List2A,white,man,,,,null,,,,
null,is hugging,,html-keyboard-response,115,841703,0.0-13.0-2.5,80669,List2A,white,man,,,,null,,,,
7342,,,survey-text,116,849045,0.0-13.0-3.5,80669,List2A,white,man,,,,,"{""Q0"":""Luke is hugging Ruth.""}","<img src=""stim_listA/hug1.gif""</stim_listA>",is hugging,
null,"<div style=""font-size:60px;"">+</div>",,html-keyboard-response,117,849548,0.0-13.0-0.6,80669,List2A,white,man,,,,null,,,,
null,"<img src=""stim_listA/shout7.gif""</stim_listA>",,html-keyboard-response,118,851549,0.0-13.0-1.6,80669,List2A,white,man,,,,null,,,,
null,is shouting at,,html-keyboard-response,119,853550,0.0-13.0-2.6,80669,List2A,white,man,,,,null,,,,
7446,,,survey-text,120,860997,0.0-13.0-3.6,80669,List2A,white,man,,,,,"{""Q0"":""Ruth is shouting at Beth.""}","<img src=""stim_listA/shout7.gif""</stim_listA>",is shouting at,
null,"<div style=""font-size:60px;"">+</div>",,html-keyboard-response,121,861498,0.0-13.0-0.7,80669,List2A,white,man,,,,null,,,,
null,"<img src=""stim_listA/hug6.gif""</stim_listA>",,html-keyboard-response,122,863499,0.0-13.0-1.7,80669,List2A,white,man,,,,null,,,,
null,are hugging each other,,html-keyboard-response,123,865501,0.0-13.0-2.7,80669,List2A,white,man,,,,null,,,,
11884,,,survey-text,124,877385,0.0-13.0-3.7,80669,List2A,white,man,,,,,"{""Q0"":""Dave is hugging Mike.""}","<img src=""stim_listA/hug6.gif""</stim_listA>",are hugging each other,
null,"<div style=""font-size:60px;"">+</div>",,html-keyboard-response,125,877886,0.0-13.0-0.8,80669,List2A,white,man,,,,null,,,,
null,"<img src=""stim_listA/kiss5.gif""</stim_listA>",,html-keyboard-response,126,879888,0.0-13.0-1.8,80669,List2A,white,man,,,,null,,,,
null,is kissing,,html-keyboard-response,127,881888,0.0-13.0-2.8,80669,List2A,white,man,,,,null,,,,
10789,,,survey-text,128,892677,0.0-13.0-3.8,80669,List2A,white,man,,,,,"{""Q0"":""Fred is kissing Luke.""}","<img src=""stim_listA/kiss5.gif""</stim_listA>",is kissing,
null,"<div style=""font-size:60px;"">+</div>",,html-keyboard-response,129,893179,0.0-13.0-0.9,80669,List2A,white,man,,,,null,,,,
null,"<img src=""stim_listA/fight6.gif""</stim_listA>",,html-keyboard-response,130,895182,0.0-13.0-1.9,80669,List2A,white,man,,,,null,,,,
null,are fighting each other,,html-keyboard-response,131,897184,0.0-13.0-2.9,80669,List2A,white,man,,,,null,,,,
9471,,,survey-text,132,906657,0.0-13.0-3.9,80669,List2A,white,man,,,,,"{""Q0"":""Dave and Fred are fighting each other.""}","<img src=""stim_listA/fight6.gif""</stim_listA>",are fighting each other,
null,"<div style=""font-size:60px;"">+</div>",,html-keyboard-response,133,907158,0.0-13.0-0.10,80669,List2A,white,man,,,,null,,,,
null,"<img src=""stim_listA/fight4.gif""</stim_listA>",,html-keyboard-response,134,909159,0.0-13.0-1.10,80669,List2A,white,man,,,,null,,,,
null,are fighting each other,,html-keyboard-response,135,911160,0.0-13.0-2.10,80669,List2A,white,man,,,,null,,,,
13684,,,survey-text,136,924845,0.0-13.0-3.10,80669,List2A,white,man,,,,,"{""Q0"":""Beth and Fred are fighting each other.""}","<img src=""stim_listA/fight4.gif""</stim_listA>",are fighting each other,
null,"<div style=""font-size:60px;"">+</div>",,html-keyboard-response,137,925346,0.0-13.0-0.11,80669,List2A,white,man,,,,null,,,,
null,"<img src=""stim_listA/argue2.gif""</stim_listA>",,html-keyboard-response,138,927348,0.0-13.0-1.11,80669,List2A,white,man,,,,null,,,,
null,are arguing with each other,,html-keyboard-response,139,929349,0.0-13.0-2.11,80669,List2A,white,man,,,,null,,,,
22355,,,survey-text,140,951706,0.0-13.0-3.11,80669,List2A,white,man,,,,,"{""Q0"":""Jane and Luke are arguing with each other.""}","<img src=""stim_listA/argue2.gif""</stim_listA>",are arguing with each other,
null,"<div style=""font-size:60px;"">+</div>",,html-keyboard-response,141,952208,0.0-13.0-0.12,80669,List2A,white,man,,,,null,,,,
null,"<img src=""stim_listA/argue7.gif""</stim_listA>",,html-keyboard-response,142,954210,0.0-13.0-1.12,80669,List2A,white,man,,,,null,,,,
null,is arguing with,,html-keyboard-response,143,956212,0.0-13.0-2.12,80669,List2A,white,man,,,,null,,,,
7011,,,survey-text,144,963225,0.0-13.0-3.12,80669,List2A,white,man,,,,,"{""Q0"":""Jane is arguing with Beth.""}","<img src=""stim_listA/argue7.gif""</stim_listA>",is arguing with,
null,"<div style=""font-size:60px;"">+</div>",,html-keyboard-response,145,963726,0.0-13.0-0.13,80669,List2A,white,man,,,,null,,,,
null,"<img src=""stim_listA/meet4.gif""</stim_listA>",,html-keyboard-response,146,965727,0.0-13.0-1.13,80669,List2A,white,man,,,,null,,,,
null,are meeting each other,,html-keyboard-response,147,967727,0.0-13.0-2.13,80669,List2A,white,man,,,,null,,,,
11517,,,survey-text,148,979244,0.0-13.0-3.13,80669,List2A,white,man,,,,,"{""Q0"":""Fred and Beth are meeting each other.""}","<img src=""stim_listA/meet4.gif""</stim_listA>",are meeting each other,
null,"<div style=""font-size:60px;"">+</div>",,html-keyboard-response,149,979746,0.0-13.0-0.14,80669,List2A,white,man,,,,null,,,,
null,"<img src=""stim_listA/hug7.gif""</stim_listA>",,html-keyboard-response,150,981747,0.0-13.0-1.14,80669,List2A,white,man,,,,null,,,,
null,is hugging,,html-keyboard-response,151,983749,0.0-13.0-2.14,80669,List2A,white,man,,,,null,,,,
5590,,,survey-text,152,989340,0.0-13.0-3.14,80669,List2A,white,man,,,,,"{""Q0"":""Beth is hugging Ruth.""}","<img src=""stim_listA/hug7.gif""</stim_listA>",is hugging,
null,"<div style=""font-size:60px;"">+</div>",,html-keyboard-response,153,989841,0.0-13.0-0.15,80669,List2A,white,man,,,,null,,,,
null,"<img src=""stim_listA/kiss7.gif""</stim_listA>",,html-keyboard-response,154,991843,0.0-13.0-1.15,80669,List2A,white,man,,,,null,,,,
null,is kissing,,html-keyboard-response,155,993843,0.0-13.0-2.15,80669,List2A,white,man,,,,null,,,,
5509,,,survey-text,156,999352,0.0-13.0-3.15,80669,List2A,white,man,,,,,"{""Q0"":""Beth is kissing Ruth.""}","<img src=""stim_listA/kiss7.gif""</stim_listA>",is kissing,
null,"<div style=""font-size:60px;"">+</div>",,html-keyboard-response,157,999854,0.0-13.0-0.16,80669,List2A,white,man,,,,null,,,,
null,"<img src=""stim_listA/kiss3.gif""</stim_listA>",,html-keyboard-response,158,1001855,0.0-13.0-1.16,80669,List2A,white,man,,,,null,,,,
null,is kissing,,html-keyboard-response,159,1003855,0.0-13.0-2.16,80669,List2A,white,man,,,,null,,,,
5509,,,survey-text,160,1009365,0.0-13.0-3.16,80669,List2A,white,man,,,,,"{""Q0"":""Beth is kissing Fred.""}","<img src=""stim_listA/kiss3.gif""</stim_listA>",is kissing,
null,"<div style=""font-size:60px;"">+</div>",,html-keyboard-response,161,1009866,0.0-13.0-0.17,80669,List2A,white,man,,,,null,,,,
null,"<img src=""stim_listA/marry5.gif""</stim_listA>",,html-keyboard-response,162,1011868,0.0-13.0-1.17,80669,List2A,white,man,,,,null,,,,
null,is marrying,,html-keyboard-response,163,1013869,0.0-13.0-2.17,80669,List2A,white,man,,,,null,,,,
7350,,,survey-text,164,1021220,0.0-13.0-3.17,80669,List2A,white,man,,,,,"{""Q0"":""Fred is marrying Dave.""}","<img src=""stim_listA/marry5.gif""</stim_listA>",is marrying,
null,"<div style=""font-size:60px;"">+</div>",,html-keyboard-response,165,1021722,0.0-13.0-0.18,80669,List2A,white,man,,,,null,,,,
null,"<img src=""stim_listA/marry7.gif""</stim_listA>",,html-keyboard-response,166,1023724,0.0-13.0-1.18,80669,List2A,white,man,,,,null,,,,
null,is marrying,,html-keyboard-response,167,1025725,0.0-13.0-2.18,80669,List2A,white,man,,,,null,,,,
5599,,,survey-text,168,1031325,0.0-13.0-3.18,80669,List2A,white,man,,,,,"{""Q0"":""Jane is marrying Beth.""}","<img src=""stim_listA/marry7.gif""</stim_listA>",is marrying,
null,"<div style=""font-size:60px;"">+</div>",,html-keyboard-response,169,1031826,0.0-13.0-0.19,80669,List2A,white,man,,,,null,,,,
null,"<img src=""stim_listA/kiss6.gif""</stim_listA>",,html-keyboard-response,170,1033827,0.0-13.0-1.19,80669,List2A,white,man,,,,null,,,,
null,are kissing each other,,html-keyboard-response,171,1035828,0.0-13.0-2.19,80669,List2A,white,man,,,,null,,,,
6984,,,survey-text,172,1042813,0.0-13.0-3.19,80669,List2A,white,man,,,,,"{""Q0"":""Dave and Mike are kissing each other.""}","<img src=""stim_listA/kiss6.gif""</stim_listA>",are kissing each other,
14851,"<img src='img/portrait_matrix_list2.JPG' style='width:900px;height:500px;''></img><p>If you have memorised all the portraits and names and are ready to start, press Continue.</p><p><strong>Please note: Your memory of these faces will be tested 4 times during this experiment.</strong></p>",0,html-button-response,173,1057665,0.0-14.0-0.0,80669,List2A,white,man,,,,,,,,
4474,"<img src=""portrait/WM1.jpg""style=""width:400px;height:400px;""></img>",6,html-button-response,174,1063142,0.0-14.0-1.0,80669,List2A,white,man,,TRUE,6,,,,,
null,CORRECT,,html-keyboard-response,175,1064643,0.0-14.0-2.0-0.0,80669,List2A,white,man,,,,null,,,,
2257,"<img src=""portrait/BW1.jpg""style=""width:400px;height:400px;""></img>",0,html-button-response,176,1066901,0.0-14.0-4.0,80669,List2A,white,man,,TRUE,0,,,,,
null,CORRECT,,html-keyboard-response,177,1068404,0.0-14.0-5.0-0.0,80669,List2A,white,man,,,,null,,,,
2588,"<img src=""portrait/WW1.jpg""style=""width:400px;height:400px;""></img>",1,html-button-response,178,1070993,0.0-14.0-7.0,80669,List2A,white,man,,TRUE,1,,,,,
null,CORRECT,,html-keyboard-response,179,1072498,0.0-14.0-8.0-0.0,80669,List2A,white,man,,,,null,,,,
2201,"<img src=""portrait/BW2.jpg""style=""width:400px;height:400px;""></img>",2,html-button-response,180,1074701,0.0-14.0-10.0,80669,List2A,white,man,,TRUE,2,,,,,
null,CORRECT,,html-keyboard-response,181,1076203,0.0-14.0-11.0-0.0,80669,List2A,white,man,,,,null,,,,
1492,"<img src=""portrait/WM2.jpg""style=""width:400px;height:400px;""></img>",7,html-button-response,182,1077697,0.0-14.0-13.0,80669,List2A,white,man,,TRUE,7,,,,,
null,CORRECT,,html-keyboard-response,183,1079201,0.0-14.0-14.0-0.0,80669,List2A,white,man,,,,null,,,,
2510,"<img src=""portrait/WW2.jpg""style=""width:400px;height:400px;""></img>",3,html-button-response,184,1081713,0.0-14.0-16.0,80669,List2A,white,man,,TRUE,3,,,,,
null,CORRECT,,html-keyboard-response,185,1083215,0.0-14.0-17.0-0.0,80669,List2A,white,man,,,,null,,,,
2245,"<img src=""portrait/BM2.jpg""style=""width:400px;height:400px;""></img>",5,html-button-response,186,1085461,0.0-14.0-19.0,80669,List2A,white,man,,TRUE,5,,,,,
null,CORRECT,,html-keyboard-response,187,1086965,0.0-14.0-20.0-0.0,80669,List2A,white,man,,,,null,,,,
1643,"<img src=""portrait/BM1.jpg""style=""width:400px;height:400px;""></img>",4,html-button-response,188,1088609,0.0-14.0-22.0,80669,List2A,white,man,,TRUE,4,,,,,
null,CORRECT,,html-keyboard-response,189,1090111,0.0-14.0-23.0-0.0,80669,List2A,white,man,,,,null,,,,
1197,<p>You got 8 out of 8 right first time. Press Continue.</p>,0,html-button-response,190,1091309,0.0-14.0-25.0,80669,List2A,white,man,,,,,,,,
null,"<div style=""font-size:60px;"">+</div>",,html-keyboard-response,191,1092811,0.0-15.0-0.0,80669,List2A,white,man,,,,null,,,,
null,"<img src=""stim_listA/meet2.gif""</stim_listA>",,html-keyboard-response,192,1094813,0.0-15.0-1.0,80669,List2A,white,man,,,,null,,,,
null,are meeting each other,,html-keyboard-response,193,1096815,0.0-15.0-2.0,80669,List2A,white,man,,,,null,,,,
9013,,,survey-text,194,1105828,0.0-15.0-3.0,80669,List2A,white,man,,,,,"{""Q0"":""Ruth and Luke are meeting each other.""}","<img src=""stim_listA/meet2.gif""</stim_listA>",are meeting each other,
null,"<div style=""font-size:60px;"">+</div>",,html-keyboard-response,195,1106330,0.0-15.0-0.1,80669,List2A,white,man,,,,null,,,,
null,"<img src=""stim_listA/argue1.gif""</stim_listA>",,html-keyboard-response,196,1108331,0.0-15.0-1.1,80669,List2A,white,man,,,,null,,,,
null,is arguing with,,html-keyboard-response,197,1110333,0.0-15.0-2.1,80669,List2A,white,man,,,,null,,,,
7527,,,survey-text,198,1117860,0.0-15.0-3.1,80669,List2A,white,man,,,,,"{""Q0"":""Dave is arguing with Ruth.""}","<img src=""stim_listA/argue1.gif""</stim_listA>",is arguing with,
null,"<div style=""font-size:60px;"">+</div>",,html-keyboard-response,199,1118363,0.0-15.0-0.2,80669,List2A,white,man,,,,null,,,,
null,"<img src=""stim_listA/marry3.gif""</stim_listA>",,html-keyboard-response,200,1120364,0.0-15.0-1.2,80669,List2A,white,man,,,,null,,,,
null,is marrying,,html-keyboard-response,201,1122364,0.0-15.0-2.2,80669,List2A,white,man,,,,null,,,,
6599,,,survey-text,202,1128964,0.0-15.0-3.2,80669,List2A,white,man,,,,,"{""Q0"":""Mike is marrying Beth.""}","<img src=""stim_listA/marry3.gif""</stim_listA>",is marrying,
null,"<div style=""font-size:60px;"">+</div>",,html-keyboard-response,203,1129466,0.0-15.0-0.3,80669,List2A,white,man,,,,null,,,,
null,"<img src=""stim_listA/meet1.gif""</stim_listA>",,html-keyboard-response,204,1131467,0.0-15.0-1.3,80669,List2A,white,man,,,,null,,,,
null,is meeting,,html-keyboard-response,205,1133467,0.0-15.0-2.3,80669,List2A,white,man,,,,null,,,,
5270,,,survey-text,206,1138737,0.0-15.0-3.3,80669,List2A,white,man,,,,,"{""Q0"":""Jane is meeting Dave.""}","<img src=""stim_listA/meet1.gif""</stim_listA>",is meeting,
null,"<div style=""font-size:60px;"">+</div>",,html-keyboard-response,207,1139239,0.0-15.0-0.4,80669,List2A,white,man,,,,null,,,,
null,"<img src=""stim_listA/dance8.gif""</stim_listA>",,html-keyboard-response,208,1141241,0.0-15.0-1.4,80669,List2A,white,man,,,,null,,,,
null,are dancing with each other,,html-keyboard-response,209,1143244,0.0-15.0-2.4,80669,List2A,white,man,,,,null,,,,
12691,,,survey-text,210,1155937,0.0-15.0-3.4,80669,List2A,white,man,,,,,"{""Q0"":""Jane and Beth are dancing together.""}","<img src=""stim_listA/dance8.gif""</stim_listA>",are dancing with each other,
null,"<div style=""font-size:60px;"">+</div>",,html-keyboard-response,211,1156439,0.0-15.0-0.5,80669,List2A,white,man,,,,null,,,,
null,"<img src=""stim_listA/dance3.gif""</stim_listA>",,html-keyboard-response,212,1158441,0.0-15.0-1.5,80669,List2A,white,man,,,,null,,,,
null,is dancing with,,html-keyboard-response,213,1160443,0.0-15.0-2.5,80669,List2A,white,man,,,,null,,,,
12457,,,survey-text,214,1172900,0.0-15.0-3.5,80669,List2A,white,man,,,,,"{""Q0"":""Fred is dancing with Kate.""}","<img src=""stim_listA/dance3.gif""</stim_listA>",is dancing with,
null,"<div style=""font-size:60px;"">+</div>",,html-keyboard-response,215,1173401,0.0-15.0-0.6,80669,List2A,white,man,,,,null,,,,
null,"<img src=""stim_listA/argue5.gif""</stim_listA>",,html-keyboard-response,216,1175402,0.0-15.0-1.6,80669,List2A,white,man,,,,null,,,,
null,is arguing with,,html-keyboard-response,217,1177403,0.0-15.0-2.6,80669,List2A,white,man,,,,null,,,,
8628,,,survey-text,218,1186033,0.0-15.0-3.6,80669,List2A,white,man,,,,,"{""Q0"":""Fred is arguing Dave.""}","<img src=""stim_listA/argue5.gif""</stim_listA>",is arguing with,
null,"<div style=""font-size:60px;"">+</div>",,html-keyboard-response,219,1186533,0.0-15.0-0.7,80669,List2A,white,man,,,,null,,,,
null,"<img src=""stim_listA/talk1.gif""</stim_listA>",,html-keyboard-response,220,1188534,0.0-15.0-1.7,80669,List2A,white,man,,,,null,,,,
null,is talking to,,html-keyboard-response,221,1190535,0.0-15.0-2.7,80669,List2A,white,man,,,,null,,,,
811510,,,survey-text,222,2002048,0.0-15.0-3.7,80669,List2A,white,man,,,,,"{""Q0"":""Luke is talking to Jane.""}","<img src=""stim_listA/talk1.gif""</stim_listA>",is talking to,
null,"<div style=""font-size:60px;"">+</div>",,html-keyboard-response,223,2002551,0.0-15.0-0.8,80669,List2A,white,man,,,,null,,,,
null,"<img src=""stim_listA/shout5.gif""</stim_listA>",,html-keyboard-response,224,2004553,0.0-15.0-1.8,80669,List2A,white,man,,,,null,,,,
null,is shouting at,,html-keyboard-response,225,2006554,0.0-15.0-2.8,80669,List2A,white,man,,,,null,,,,
7323,,,survey-text,226,2013879,0.0-15.0-3.8,80669,List2A,white,man,,,,,"{""Q0"":""Luke is shouting at Fred.""}","<img src=""stim_listA/shout5.gif""</stim_listA>",is shouting at,
null,"<div style=""font-size:60px;"">+</div>",,html-keyboard-response,227,2014380,0.0-15.0-0.9,80669,List2A,white,man,,,,null,,,,
null,"<img src=""stim_listA/marry1.gif""</stim_listA>",,html-keyboard-response,228,2016382,0.0-15.0-1.9,80669,List2A,white,man,,,,null,,,,
null,is marrying,,html-keyboard-response,229,2018382,0.0-15.0-2.9,80669,List2A,white,man,,,,null,,,,
9732,,,survey-text,230,2028115,0.0-15.0-3.9,80669,List2A,white,man,,,,,"{""Q0"":""Ruth is Marrying Dave.""}","<img src=""stim_listA/marry1.gif""</stim_listA>",is marrying,
null,"<div style=""font-size:60px;"">+</div>",,html-keyboard-response,231,2028616,0.0-15.0-0.10,80669,List2A,white,man,,,,null,,,,
null,"<img src=""stim_listA/talk8.gif""</stim_listA>",,html-keyboard-response,232,2030617,0.0-15.0-1.10,80669,List2A,white,man,,,,null,,,,
null,are talking to each other,,html-keyboard-response,233,2032618,0.0-15.0-2.10,80669,List2A,white,man,,,,null,,,,
10027,,,survey-text,234,2042646,0.0-15.0-3.10,80669,List2A,white,man,,,,,"{""Q0"":""Jane and Beth are talking to each other.""}","<img src=""stim_listA/talk8.gif""</stim_listA>",are talking to each other,
null,"<div style=""font-size:60px;"">+</div>",,html-keyboard-response,235,2043147,0.0-15.0-0.11,80669,List2A,white,man,,,,null,,,,
null,"<img src=""stim_listA/argue4.gif""</stim_listA>",,html-keyboard-response,236,2045148,0.0-15.0-1.11,80669,List2A,white,man,,,,null,,,,
null,are arguing with each other,,html-keyboard-response,237,2047150,0.0-15.0-2.11,80669,List2A,white,man,,,,null,,,,
11752,,,survey-text,238,2058902,0.0-15.0-3.11,80669,List2A,white,man,,,,,"{""Q0"":""Kate is arguing with Fred.""}","<img src=""stim_listA/argue4.gif""</stim_listA>",are arguing with each other,
null,"<div style=""font-size:60px;"">+</div>",,html-keyboard-response,239,2059403,0.0-15.0-0.12,80669,List2A,white,man,,,,null,,,,
null,"<img src=""stim_listA/fight3.gif""</stim_listA>",,html-keyboard-response,240,2061407,0.0-15.0-1.12,80669,List2A,white,man,,,,null,,,,
null,is fighting,,html-keyboard-response,241,2063408,0.0-15.0-2.12,80669,List2A,white,man,,,,null,,,,
16418,,,survey-text,242,2079826,0.0-15.0-3.12,80669,List2A,white,man,,,,,"{""Q0"":""Kate is fighting Mike.""}","<img src=""stim_listA/fight3.gif""</stim_listA>",is fighting,
null,"<div style=""font-size:60px;"">+</div>",,html-keyboard-response,243,2080329,0.0-15.0-0.13,80669,List2A,white,man,,,,null,,,,
null,"<img src=""stim_listA/dance6.gif""</stim_listA>",,html-keyboard-response,244,2082330,0.0-15.0-1.13,80669,List2A,white,man,,,,null,,,,
null,are dancing with each other,,html-keyboard-response,245,2084330,0.0-15.0-2.13,80669,List2A,white,man,,,,null,,,,
8830,,,survey-text,246,2093162,0.0-15.0-3.13,80669,List2A,white,man,,,,,"{""Q0"":""Fred and Dave are dancing together.""}","<img src=""stim_listA/dance6.gif""</stim_listA>",are dancing with each other,
null,"<div style=""font-size:60px;"">+</div>",,html-keyboard-response,247,2093663,0.0-15.0-0.14,80669,List2A,white,man,,,,null,,,,
null,"<img src=""stim_listA/meet6.gif""</stim_listA>",,html-keyboard-response,248,2095664,0.0-15.0-1.14,80669,List2A,white,man,,,,null,,,,
null,are meeting each other,,html-keyboard-response,249,2097664,0.0-15.0-2.14,80669,List2A,white,man,,,,null,,,,
7553,,,survey-text,250,2105218,0.0-15.0-3.14,80669,List2A,white,man,,,,,"{""Q0"":""Luke and Fred are meeting each other.""}","<img src=""stim_listA/meet6.gif""</stim_listA>",are meeting each other,
null,"<div style=""font-size:60px;"">+</div>",,html-keyboard-response,251,2105718,0.0-15.0-0.15,80669,List2A,white,man,,,,null,,,,
null,"<img src=""stim_listA/fight7.gif""</stim_listA>",,html-keyboard-response,252,2107720,0.0-15.0-1.15,80669,List2A,white,man,,,,null,,,,
null,is fighting,,html-keyboard-response,253,2109720,0.0-15.0-2.15,80669,List2A,white,man,,,,null,,,,
7386,,,survey-text,254,2117106,0.0-15.0-3.15,80669,List2A,white,man,,,,,"{""Q0"":""Jane is fighting Kate.""}","<img src=""stim_listA/fight7.gif""</stim_listA>",is fighting,
null,"<div style=""font-size:60px;"">+</div>",,html-keyboard-response,255,2117608,0.0-15.0-0.16,80669,List2A,white,man,,,,null,,,,
null,"<img src=""stim_listA/marry6.gif""</stim_listA>",,html-keyboard-response,256,2119609,0.0-15.0-1.16,80669,List2A,white,man,,,,null,,,,
null,are marrying each other,,html-keyboard-response,257,2121611,0.0-15.0-2.16,80669,List2A,white,man,,,,null,,,,
8234,,,survey-text,258,2129846,0.0-15.0-3.16,80669,List2A,white,man,,,,,"{""Q0"":""Luke and Mike are marrying each other.""}","<img src=""stim_listA/marry6.gif""</stim_listA>",are marrying each other,
null,"<div style=""font-size:60px;"">+</div>",,html-keyboard-response,259,2130347,0.0-15.0-0.17,80669,List2A,white,man,,,,null,,,,
null,"<img src=""stim_listA/hug2.gif""</stim_listA>",,html-keyboard-response,260,2132349,0.0-15.0-1.17,80669,List2A,white,man,,,,null,,,,
null,are hugging each other,,html-keyboard-response,261,2134350,0.0-15.0-2.17,80669,List2A,white,man,,,,null,,,,
6924,,,survey-text,262,2141275,0.0-15.0-3.17,80669,List2A,white,man,,,,,"{""Q0"":""Jane and Dave are hugging each other.""}","<img src=""stim_listA/hug2.gif""</stim_listA>",are hugging each other,
null,"<div style=""font-size:60px;"">+</div>",,html-keyboard-response,263,2141777,0.0-15.0-0.18,80669,List2A,white,man,,,,null,,,,
null,"<img src=""stim_listA/marry8.gif""</stim_listA>",,html-keyboard-response,264,2143780,0.0-15.0-1.18,80669,List2A,white,man,,,,null,,,,
null,are marrying each other,,html-keyboard-response,265,2145782,0.0-15.0-2.18,80669,List2A,white,man,,,,null,,,,
14766,,,survey-text,266,2160551,0.0-15.0-3.18,80669,List2A,white,man,,,,,"{""Q0"":""Ruth and Kate are marrying each other.""}","<img src=""stim_listA/marry8.gif""</stim_listA>",are marrying each other,
null,"<div style=""font-size:60px;"">+</div>",,html-keyboard-response,267,2161053,0.0-15.0-0.19,80669,List2A,white,man,,,,null,,,,
null,"<img src=""stim_listA/dance1.gif""</stim_listA>",,html-keyboard-response,268,2163055,0.0-15.0-1.19,80669,List2A,white,man,,,,null,,,,
null,is dancing with,,html-keyboard-response,269,2165057,0.0-15.0-2.19,80669,List2A,white,man,,,,null,,,,
113209,,,survey-text,270,2278267,0.0-15.0-3.19,80669,List2A,white,man,,,,,"{""Q0"":""Luke is dancing with Kate.""}","<img src=""stim_listA/dance1.gif""</stim_listA>",is dancing with,
7958,"<img src='img/portrait_matrix_list2.JPG' style='width:900px;height:500px;''></img><p>If you have memorised all the portraits and names and are ready to start, press Continue.</p><p><strong>Please note: Your memory of these faces will be tested 4 times during this experiment.</strong></p>",0,html-button-response,271,2286227,0.0-16.0-0.0,80669,List2A,white,man,,,,,,,,
1775,"<img src=""portrait/WW2.jpg""style=""width:400px;height:400px;""></img>",3,html-button-response,272,2289006,0.0-16.0-1.0,80669,List2A,white,man,,TRUE,3,,,,,
null,CORRECT,,html-keyboard-response,273,2290509,0.0-16.0-2.0-0.0,80669,List2A,white,man,,,,null,,,,
2826,"<img src=""portrait/BW1.jpg""style=""width:400px;height:400px;""></img>",0,html-button-response,274,2293338,0.0-16.0-4.0,80669,List2A,white,man,,TRUE,0,,,,,
null,CORRECT,,html-keyboard-response,275,2294840,0.0-16.0-5.0-0.0,80669,List2A,white,man,,,,null,,,,
2701,"<img src=""portrait/WM1.jpg""style=""width:400px;height:400px;""></img>",6,html-button-response,276,2297543,0.0-16.0-7.0,80669,List2A,white,man,,TRUE,6,,,,,
null,CORRECT,,html-keyboard-response,277,2299045,0.0-16.0-8.0-0.0,80669,List2A,white,man,,,,null,,,,
2304,"<img src=""portrait/BM1.jpg""style=""width:400px;height:400px;""></img>",4,html-button-response,278,2301350,0.0-16.0-10.0,80669,List2A,white,man,,TRUE,4,,,,,
null,CORRECT,,html-keyboard-response,279,2302854,0.0-16.0-11.0-0.0,80669,List2A,white,man,,,,null,,,,
2250,"<img src=""portrait/WW1.jpg""style=""width:400px;height:400px;""></img>",1,html-button-response,280,2305106,0.0-16.0-13.0,80669,List2A,white,man,,TRUE,1,,,,,
null,CORRECT,,html-keyboard-response,281,2306608,0.0-16.0-14.0-0.0,80669,List2A,white,man,,,,null,,,,
3665,"<img src=""portrait/BW2.jpg""style=""width:400px;height:400px;""></img>",2,html-button-response,282,2310274,0.0-16.0-16.0,80669,List2A,white,man,,TRUE,2,,,,,
null,CORRECT,,html-keyboard-response,283,2311776,0.0-16.0-17.0-0.0,80669,List2A,white,man,,,,null,,,,
1653,"<img src=""portrait/BM2.jpg""style=""width:400px;height:400px;""></img>",5,html-button-response,284,2313430,0.0-16.0-19.0,80669,List2A,white,man,,TRUE,5,,,,,
null,CORRECT,,html-keyboard-response,285,2314932,0.0-16.0-20.0-0.0,80669,List2A,white,man,,,,null,,,,
1925,"<img src=""portrait/WM2.jpg""style=""width:400px;height:400px;""></img>",7,html-button-response,286,2316857,0.0-16.0-22.0,80669,List2A,white,man,,TRUE,7,,,,,
null,CORRECT,,html-keyboard-response,287,2318359,0.0-16.0-23.0-0.0,80669,List2A,white,man,,,,null,,,,
1237,<p>You got 8 out of 8 right first time. Press Continue.</p>,0,html-button-response,288,2319598,0.0-16.0-25.0,80669,List2A,white,man,,,,,,,,
null,"<div style=""font-size:60px;"">+</div>",,html-keyboard-response,289,2321100,0.0-17.0-0.0,80669,List2A,white,man,,,,null,,,,
null,"<img src=""stim_listA/argue6.gif""</stim_listA>",,html-keyboard-response,290,2323102,0.0-17.0-1.0,80669,List2A,white,man,,,,null,,,,
null,are arguing with each other,,html-keyboard-response,291,2325103,0.0-17.0-2.0,80669,List2A,white,man,,,,null,,,,
9055,,,survey-text,292,2334158,0.0-17.0-3.0,80669,List2A,white,man,,,,,"{""Q0"":""Luke and Mike are arguing with each other.""}","<img src=""stim_listA/argue6.gif""</stim_listA>",are arguing with each other,
null,"<div style=""font-size:60px;"">+</div>",,html-keyboard-response,293,2334659,0.0-17.0-0.1,80669,List2A,white,man,,,,null,,,,
null,"<img src=""stim_listA/kiss8.gif""</stim_listA>",,html-keyboard-response,294,2336660,0.0-17.0-1.1,80669,List2A,white,man,,,,null,,,,
null,are kissing each other,,html-keyboard-response,295,2338662,0.0-17.0-2.1,80669,List2A,white,man,,,,null,,,,
6755,,,survey-text,296,2345417,0.0-17.0-3.1,80669,List2A,white,man,,,,,"{""Q0"":""Jane and Kate are kissing each other.""}","<img src=""stim_listA/kiss8.gif""</stim_listA>",are kissing each other,
null,"<div style=""font-size:60px;"">+</div>",,html-keyboard-response,297,2345918,0.0-17.0-0.2,80669,List2A,white,man,,,,null,,,,
null,"<img src=""stim_listA/meet8.gif""</stim_listA>",,html-keyboard-response,298,2347920,0.0-17.0-1.2,80669,List2A,white,man,,,,null,,,,
null,are meeting each other,,html-keyboard-response,299,2349920,0.0-17.0-2.2,80669,List2A,white,man,,,,null,,,,
7958,,,survey-text,300,2357878,0.0-17.0-3.2,80669,List2A,white,man,,,,,"{""Q0"":""Beth and Ruth are meeting each other.""}","<img src=""stim_listA/meet8.gif""</stim_listA>",are meeting each other,
null,"<div style=""font-size:60px;"">+</div>",,html-keyboard-response,301,2358380,0.0-17.0-0.3,80669,List2A,white,man,,,,null,,,,
null,"<img src=""stim_listA/shout6.gif""</stim_listA>",,html-keyboard-response,302,2360382,0.0-17.0-1.3,80669,List2A,white,man,,,,null,,,,
null,are shouting at each other,,html-keyboard-response,303,2362384,0.0-17.0-2.3,80669,List2A,white,man,,,,null,,,,
8332,,,survey-text,304,2370718,0.0-17.0-3.3,80669,List2A,white,man,,,,,"{""Q0"":""Dave and Mike are shouting at each other.""}","<img src=""stim_listA/shout6.gif""</stim_listA>",are shouting at each other,
null,"<div style=""font-size:60px;"">+</div>",,html-keyboard-response,305,2371220,0.0-17.0-0.4,80669,List2A,white,man,,,,null,,,,
null,"<img src=""stim_listA/meet7.gif""</stim_listA>",,html-keyboard-response,306,2373223,0.0-17.0-1.4,80669,List2A,white,man,,,,null,,,,
null,is meeting,,html-keyboard-response,307,2375226,0.0-17.0-2.4,80669,List2A,white,man,,,,null,,,,
5629,,,survey-text,308,2380858,0.0-17.0-3.4,80669,List2A,white,man,,,,,"{""Q0"":""Jane is meeting Kate.""}","<img src=""stim_listA/meet7.gif""</stim_listA>",is meeting,
null,"<div style=""font-size:60px;"">+</div>",,html-keyboard-response,309,2381360,0.0-17.0-0.5,80669,List2A,white,man,,,,null,,,,
null,"<img src=""stim_listA/hug3.gif""</stim_listA>",,html-keyboard-response,310,2383362,0.0-17.0-1.5,80669,List2A,white,man,,,,null,,,,
null,is hugging,,html-keyboard-response,311,2385364,0.0-17.0-2.5,80669,List2A,white,man,,,,null,,,,
5350,,,survey-text,312,2390714,0.0-17.0-3.5,80669,List2A,white,man,,,,,"{""Q0"":""Fred is hugging Beth.""}","<img src=""stim_listA/hug3.gif""</stim_listA>",is hugging,
null,"<div style=""font-size:60px;"">+</div>",,html-keyboard-response,313,2391216,0.0-17.0-0.6,80669,List2A,white,man,,,,null,,,,
null,"<img src=""stim_listA/touch5.gif""</stim_listA>",,html-keyboard-response,314,2393217,0.0-17.0-1.6,80669,List2A,white,man,,,,null,,,,
null,is touching,,html-keyboard-response,315,2395219,0.0-17.0-2.6,80669,List2A,white,man,,,,null,,,,
6942,,,survey-text,316,2402162,0.0-17.0-3.6,80669,List2A,white,man,,,,,"{""Q0"":""Dave is touching Mike.""}","<img src=""stim_listA/touch5.gif""</stim_listA>",is touching,
null,"<div style=""font-size:60px;"">+</div>",,html-keyboard-response,317,2402664,0.0-17.0-0.7,80669,List2A,white,man,,,,null,,,,
null,"<img src=""stim_listA/marry2.gif""</stim_listA>",,html-keyboard-response,318,2404665,0.0-17.0-1.7,80669,List2A,white,man,,,,null,,,,
null,are marrying each other,,html-keyboard-response,319,2406665,0.0-17.0-2.7,80669,List2A,white,man,,,,null,,,,
10347,,,survey-text,320,2417013,0.0-17.0-3.7,80669,List2A,white,man,,,,,"{""Q0"":""Luke and Jane are marrying each other.""}","<img src=""stim_listA/marry2.gif""</stim_listA>",are marrying each other,
null,"<div style=""font-size:60px;"">+</div>",,html-keyboard-response,321,2417516,0.0-17.0-0.8,80669,List2A,white,man,,,,null,,,,
null,"<img src=""stim_listA/shout1.gif""</stim_listA>",,html-keyboard-response,322,2419518,0.0-17.0-1.8,80669,List2A,white,man,,,,null,,,,
null,is shouting at,,html-keyboard-response,323,2421519,0.0-17.0-2.8,80669,List2A,white,man,,,,null,,,,
9029,,,survey-text,324,2430550,0.0-17.0-3.8,80669,List2A,white,man,,,,,"{""Q0"":""Ruth is shouting at Luke.""}","<img src=""stim_listA/shout1.gif""</stim_listA>",is shouting at,
null,"<div style=""font-size:60px;"">+</div>",,html-keyboard-response,325,2431053,0.0-17.0-0.9,80669,List2A,white,man,,,,null,,,,
null,"<img src=""stim_listA/touch6.gif""</stim_listA>",,html-keyboard-response,326,2433056,0.0-17.0-1.9,80669,List2A,white,man,,,,null,,,,
null,are touching each other,,html-keyboard-response,327,2435057,0.0-17.0-2.9,80669,List2A,white,man,,,,null,,,,
12203,,,survey-text,328,2447262,0.0-17.0-3.9,80669,List2A,white,man,,,,,"{""Q0"":""Luke and Fred are touching each other.""}","<img src=""stim_listA/touch6.gif""</stim_listA>",are touching each other,
null,"<div style=""font-size:60px;"">+</div>",,html-keyboard-response,329,2447764,0.0-17.0-0.10,80669,List2A,white,man,,,,null,,,,
null,"<img src=""stim_listA/shout2.gif""</stim_listA>",,html-keyboard-response,330,2449765,0.0-17.0-1.10,80669,List2A,white,man,,,,null,,,,
null,are shouting at each other,,html-keyboard-response,331,2451767,0.0-17.0-2.10,80669,List2A,white,man,,,,null,,,,
8718,,,survey-text,332,2460485,0.0-17.0-3.10,80669,List2A,white,man,,,,,"{""Q0"":""Jane and Dave are shouting at each other.""}","<img src=""stim_listA/shout2.gif""</stim_listA>",are shouting at each other,
null,"<div style=""font-size:60px;"">+</div>",,html-keyboard-response,333,2460987,0.0-17.0-0.11,80669,List2A,white,man,,,,null,,,,
null,"<img src=""stim_listA/kiss2.gif""</stim_listA>",,html-keyboard-response,334,2462988,0.0-17.0-1.11,80669,List2A,white,man,,,,null,,,,
null,are kissing each other,,html-keyboard-response,335,2464989,0.0-17.0-2.11,80669,List2A,white,man,,,,null,,,,
9592,,,survey-text,336,2474581,0.0-17.0-3.11,80669,List2A,white,man,,,,,"{""Q0"":""Dave and Jane are kissing each other.""}","<img src=""stim_listA/kiss2.gif""</stim_listA>",are kissing each other,
null,"<div style=""font-size:60px;"">+</div>",,html-keyboard-response,337,2475084,0.0-17.0-0.12,80669,List2A,white,man,,,,null,,,,
null,"<img src=""stim_listA/kiss1.gif""</stim_listA>",,html-keyboard-response,338,2477087,0.0-17.0-1.12,80669,List2A,white,man,,,,null,,,,
null,is kissing,,html-keyboard-response,339,2479087,0.0-17.0-2.12,80669,List2A,white,man,,,,null,,,,
6654,,,survey-text,340,2485741,0.0-17.0-3.12,80669,List2A,white,man,,,,,"{""Q0"":""Luke is kissing Jane.""}","<img src=""stim_listA/kiss1.gif""</stim_listA>",is kissing,
null,"<div style=""font-size:60px;"">+</div>",,html-keyboard-response,341,2486242,0.0-17.0-0.13,80669,List2A,white,man,,,,null,,,,
null,"<img src=""stim_listA/marry4.gif""</stim_listA>",,html-keyboard-response,342,2488244,0.0-17.0-1.13,80669,List2A,white,man,,,,null,,,,
null,are marrying each other,,html-keyboard-response,343,2490246,0.0-17.0-2.13,80669,List2A,white,man,,,,null,,,,
9365,,,survey-text,344,2499614,0.0-17.0-3.13,80669,List2A,white,man,,,,,"{""Q0"":""Fred and Kate are marrying each other.""}","<img src=""stim_listA/marry4.gif""</stim_listA>",are marrying each other,
null,"<div style=""font-size:60px;"">+</div>",,html-keyboard-response,345,2500115,0.0-17.0-0.14,80669,List2A,white,man,,,,null,,,,
null,"<img src=""stim_listA/hug8.gif""</stim_listA>",,html-keyboard-response,346,2502117,0.0-17.0-1.14,80669,List2A,white,man,,,,null,,,,
null,are hugging each other,,html-keyboard-response,347,2504119,0.0-17.0-2.14,80669,List2A,white,man,,,,null,,,,
10754,,,survey-text,348,2514874,0.0-17.0-3.14,80669,List2A,white,man,,,,,"{""Q0"":""Kate and Jane are hugging each other.""}","<img src=""stim_listA/hug8.gif""</stim_listA>",are hugging each other,
null,"<div style=""font-size:60px;"">+</div>",,html-keyboard-response,349,2515375,0.0-17.0-0.15,80669,List2A,white,man,,,,null,,,,
null,"<img src=""stim_listA/fight1.gif""</stim_listA>",,html-keyboard-response,350,2517377,0.0-17.0-1.15,80669,List2A,white,man,,,,null,,,,
null,is fighting,,html-keyboard-response,351,2519378,0.0-17.0-2.15,80669,List2A,white,man,,,,null,,,,
5682,,,survey-text,352,2525062,0.0-17.0-3.15,80669,List2A,white,man,,,,,"{""Q0"":""Fred is fighting Jane.""}","<img src=""stim_listA/fight1.gif""</stim_listA>",is fighting,
null,"<div style=""font-size:60px;"">+</div>",,html-keyboard-response,353,2525563,0.0-17.0-0.16,80669,List2A,white,man,,,,null,,,,
null,"<img src=""stim_listA/talk2.gif""</stim_listA>",,html-keyboard-response,354,2527564,0.0-17.0-1.16,80669,List2A,white,man,,,,null,,,,
null,are talking to each other,,html-keyboard-response,355,2529565,0.0-17.0-2.16,80669,List2A,white,man,,,,null,,,,
13551,,,survey-text,356,2543117,0.0-17.0-3.16,80669,List2A,white,man,,,,,"{""Q0"":""Dave and Ruth are talking to each other.""}","<img src=""stim_listA/talk2.gif""</stim_listA>",are talking to each other,
null,"<div style=""font-size:60px;"">+</div>",,html-keyboard-response,357,2543619,0.0-17.0-0.17,80669,List2A,white,man,,,,null,,,,
null,"<img src=""stim_listA/touch3.gif""</stim_listA>",,html-keyboard-response,358,2545619,0.0-17.0-1.17,80669,List2A,white,man,,,,null,,,,
null,is touching,,html-keyboard-response,359,2547621,0.0-17.0-2.17,80669,List2A,white,man,,,,null,,,,
10920,,,survey-text,360,2558542,0.0-17.0-3.17,80669,List2A,white,man,,,,,"{""Q0"":""Mike is touching Kate.""}","<img src=""stim_listA/touch3.gif""</stim_listA>",is touching,
null,"<div style=""font-size:60px;"">+</div>",,html-keyboard-response,361,2559044,0.0-17.0-0.18,80669,List2A,white,man,,,,null,,,,
null,"<img src=""stim_listA/talk5.gif""</stim_listA>",,html-keyboard-response,362,2561046,0.0-17.0-1.18,80669,List2A,white,man,,,,null,,,,
null,is talking to,,html-keyboard-response,363,2563047,0.0-17.0-2.18,80669,List2A,white,man,,,,null,,,,
5372,,,survey-text,364,2568421,0.0-17.0-3.18,80669,List2A,white,man,,,,,"{""Q0"":""Luke is talking to Mike.""}","<img src=""stim_listA/talk5.gif""</stim_listA>",is talking to,
null,"<div style=""font-size:60px;"">+</div>",,html-keyboard-response,365,2568923,0.0-17.0-0.19,80669,List2A,white,man,,,,null,,,,
null,"<img src=""stim_listA/dance5.gif""</stim_listA>",,html-keyboard-response,366,2570924,0.0-17.0-1.19,80669,List2A,white,man,,,,null,,,,
null,is dancing with,,html-keyboard-response,367,2572925,0.0-17.0-2.19,80669,List2A,white,man,,,,null,,,,
6991,,,survey-text,368,2579917,0.0-17.0-3.19,80669,List2A,white,man,,,,,"{""Q0"":""Luke is dancing with Mike.""}","<img src=""stim_listA/dance5.gif""</stim_listA>",is dancing with,
3123,"<img src='img/portrait_matrix_list2.JPG' style='width:900px;height:500px;''></img><p>If you have memorised all the portraits and names and are ready to start, press Continue.</p><p><strong>Please note: Your memory of these faces will be tested 4 times during this experiment.</strong></p>",0,html-button-response,369,2583042,0.0-18.0-0.0,80669,List2A,white,man,,,,,,,,
2841,"<img src=""portrait/WM1.jpg""style=""width:400px;height:400px;""></img>",6,html-button-response,370,2586886,0.0-18.0-1.0,80669,List2A,white,man,,TRUE,6,,,,,
null,CORRECT,,html-keyboard-response,371,2588390,0.0-18.0-2.0-0.0,80669,List2A,white,man,,,,null,,,,
2530,"<img src=""portrait/WW2.jpg""style=""width:400px;height:400px;""></img>",3,html-button-response,372,2590922,0.0-18.0-4.0,80669,List2A,white,man,,TRUE,3,,,,,
null,CORRECT,,html-keyboard-response,373,2592424,0.0-18.0-5.0-0.0,80669,List2A,white,man,,,,null,,,,
3221,"<img src=""portrait/WW1.jpg""style=""width:400px;height:400px;""></img>",1,html-button-response,374,2595645,0.0-18.0-7.0,80669,List2A,white,man,,TRUE,1,,,,,
null,CORRECT,,html-keyboard-response,375,2597148,0.0-18.0-8.0-0.0,80669,List2A,white,man,,,,null,,,,
1451,"<img src=""portrait/BW1.jpg""style=""width:400px;height:400px;""></img>",0,html-button-response,376,2598601,0.0-18.0-10.0,80669,List2A,white,man,,TRUE,0,,,,,
null,CORRECT,,html-keyboard-response,377,2600104,0.0-18.0-11.0-0.0,80669,List2A,white,man,,,,null,,,,
1219,"<img src=""portrait/WM2.jpg""style=""width:400px;height:400px;""></img>",7,html-button-response,378,2601325,0.0-18.0-13.0,80669,List2A,white,man,,TRUE,7,,,,,
null,CORRECT,,html-keyboard-response,379,2602826,0.0-18.0-14.0-0.0,80669,List2A,white,man,,,,null,,,,
3237,"<img src=""portrait/BM1.jpg""style=""width:400px;height:400px;""></img>",4,html-button-response,380,2606065,0.0-18.0-16.0,80669,List2A,white,man,,TRUE,4,,,,,
null,CORRECT,,html-keyboard-response,381,2607567,0.0-18.0-17.0-0.0,80669,List2A,white,man,,,,null,,,,
1953,"<img src=""portrait/BW2.jpg""style=""width:400px;height:400px;""></img>",2,html-button-response,382,2609521,0.0-18.0-19.0,80669,List2A,white,man,,TRUE,2,,,,,
null,CORRECT,,html-keyboard-response,383,2611023,0.0-18.0-20.0-0.0,80669,List2A,white,man,,,,null,,,,
1703,"<img src=""portrait/BM2.jpg""style=""width:400px;height:400px;""></img>",5,html-button-response,384,2612729,0.0-18.0-22.0,80669,List2A,white,man,,TRUE,5,,,,,
null,CORRECT,,html-keyboard-response,385,2614232,0.0-18.0-23.0-0.0,80669,List2A,white,man,,,,null,,,,
51354,<p>You got 8 out of 8 right first time. Press Continue.</p>,0,html-button-response,386,2665589,0.0-18.0-25.0,80669,List2A,white,man,,,,,,,,
null,"<div style=""font-size:60px;"">+</div>",,html-keyboard-response,387,2667096,0.0-19.0-0.0,80669,List2A,white,man,,,,null,,,,
null,"<img src=""stim_listA/argue8.gif""</stim_listA>",,html-keyboard-response,388,2669099,0.0-19.0-1.0,80669,List2A,white,man,,,,null,,,,
null,are arguing with each other,,html-keyboard-response,389,2671101,0.0-19.0-2.0,80669,List2A,white,man,,,,null,,,,
7907,,,survey-text,390,2679008,0.0-19.0-3.0,80669,List2A,white,man,,,,,"{""Q0"":""Kate and Ruth are arguing with each other.""}","<img src=""stim_listA/argue8.gif""</stim_listA>",are arguing with each other,
null,"<div style=""font-size:60px;"">+</div>",,html-keyboard-response,391,2679511,0.0-19.0-0.1,80669,List2A,white,man,,,,null,,,,
null,"<img src=""stim_listA/shout4.gif""</stim_listA>",,html-keyboard-response,392,2681512,0.0-19.0-1.1,80669,List2A,white,man,,,,null,,,,
null,are shouting at each other,,html-keyboard-response,393,2683513,0.0-19.0-2.1,80669,List2A,white,man,,,,null,,,,
7184,,,survey-text,394,2690698,0.0-19.0-3.1,80669,List2A,white,man,,,,,"{""Q0"":""Kate and Mike are shouting at each other.""}","<img src=""stim_listA/shout4.gif""</stim_listA>",are shouting at each other,
null,"<div style=""font-size:60px;"">+</div>",,html-keyboard-response,395,2691199,0.0-19.0-0.2,80669,List2A,white,man,,,,null,,,,
null,"<img src=""stim_listA/meet3.gif""</stim_listA>",,html-keyboard-response,396,2693201,0.0-19.0-1.2,80669,List2A,white,man,,,,null,,,,
null,is meeting,,html-keyboard-response,397,2695202,0.0-19.0-2.2,80669,List2A,white,man,,,,null,,,,
5112,,,survey-text,398,2700317,0.0-19.0-3.2,80669,List2A,white,man,,,,,"{""Q0"":""Mike is meeting Kate.""}","<img src=""stim_listA/meet3.gif""</stim_listA>",is meeting,
null,"<div style=""font-size:60px;"">+</div>",,html-keyboard-response,399,2700818,0.0-19.0-0.3,80669,List2A,white,man,,,,null,,,,
null,"<img src=""stim_listA/shout8.gif""</stim_listA>",,html-keyboard-response,400,2702819,0.0-19.0-1.3,80669,List2A,white,man,,,,null,,,,
null,are shouting at each other,,html-keyboard-response,401,2704820,0.0-19.0-2.3,80669,List2A,white,man,,,,null,,,,
8632,,,survey-text,402,2713452,0.0-19.0-3.3,80669,List2A,white,man,,,,,"{""Q0"":""Kate and Jane are shouting at each other.""}","<img src=""stim_listA/shout8.gif""</stim_listA>",are shouting at each other,
null,"<div style=""font-size:60px;"">+</div>",,html-keyboard-response,403,2713954,0.0-19.0-0.4,80669,List2A,white,man,,,,null,,,,
null,"<img src=""stim_listA/touch7.gif""</stim_listA>",,html-keyboard-response,404,2715955,0.0-19.0-1.4,80669,List2A,white,man,,,,null,,,,
null,is touching,,html-keyboard-response,405,2717957,0.0-19.0-2.4,80669,List2A,white,man,,,,null,,,,
5322,,,survey-text,406,2723280,0.0-19.0-3.4,80669,List2A,white,man,,,,,"{""Q0"":""Jane is touching Kate.""}","<img src=""stim_listA/touch7.gif""</stim_listA>",is touching,
null,"<div style=""font-size:60px;"">+</div>",,html-keyboard-response,407,2723782,0.0-19.0-0.5,80669,List2A,white,man,,,,null,,,,
null,"<img src=""stim_listA/touch1.gif""</stim_listA>",,html-keyboard-response,408,2725783,0.0-19.0-1.5,80669,List2A,white,man,,,,null,,,,
null,is touching,,html-keyboard-response,409,2727785,0.0-19.0-2.5,80669,List2A,white,man,,,,null,,,,
4366,,,survey-text,410,2732152,0.0-19.0-3.5,80669,List2A,white,man,,,,,"{""Q0"":""Dave is touching Jane.""}","<img src=""stim_listA/touch1.gif""</stim_listA>",is touching,
null,"<div style=""font-size:60px;"">+</div>",,html-keyboard-response,411,2732653,0.0-19.0-0.6,80669,List2A,white,man,,,,null,,,,
null,"<img src=""stim_listA/dance7.gif""</stim_listA>",,html-keyboard-response,412,2734654,0.0-19.0-1.6,80669,List2A,white,man,,,,null,,,,
null,is dancing with,,html-keyboard-response,413,2736655,0.0-19.0-2.6,80669,List2A,white,man,,,,null,,,,
6194,,,survey-text,414,2742849,0.0-19.0-3.6,80669,List2A,white,man,,,,,"{""Q0"":""Kate is dancing with Ruth.""}","<img src=""stim_listA/dance7.gif""</stim_listA>",is dancing with,
null,"<div style=""font-size:60px;"">+</div>",,html-keyboard-response,415,2743351,0.0-19.0-0.7,80669,List2A,white,man,,,,null,,,,
null,"<img src=""stim_listA/touch4.gif""</stim_listA>",,html-keyboard-response,416,2745352,0.0-19.0-1.7,80669,List2A,white,man,,,,null,,,,
null,are touching each other,,html-keyboard-response,417,2747352,0.0-19.0-2.7,80669,List2A,white,man,,,,null,,,,
423323,,,survey-text,418,3170676,0.0-19.0-3.7,80669,List2A,white,man,,,,,"{""Q0"":""Fred and Beth are meeting each other.""}","<img src=""stim_listA/touch4.gif""</stim_listA>",are touching each other,
null,"<div style=""font-size:60px;"">+</div>",,html-keyboard-response,419,3171178,0.0-19.0-0.8,80669,List2A,white,man,,,,null,,,,
null,"<img src=""stim_listA/touch2.gif""</stim_listA>",,html-keyboard-response,420,3173181,0.0-19.0-1.8,80669,List2A,white,man,,,,null,,,,
null,are touching each other,,html-keyboard-response,421,3175182,0.0-19.0-2.8,80669,List2A,white,man,,,,null,,,,
8024,,,survey-text,422,3183208,0.0-19.0-3.8,80669,List2A,white,man,,,,,"{""Q0"":""Ruth and Luke are touching each other.""}","<img src=""stim_listA/touch2.gif""</stim_listA>",are touching each other,
null,"<div style=""font-size:60px;"">+</div>",,html-keyboard-response,423,3183711,0.0-19.0-0.9,80669,List2A,white,man,,,,null,,,,
null,"<img src=""stim_listA/meet5.gif""</stim_listA>",,html-keyboard-response,424,3185712,0.0-19.0-1.9,80669,List2A,white,man,,,,null,,,,
null,is meeting,,html-keyboard-response,425,3187713,0.0-19.0-2.9,80669,List2A,white,man,,,,null,,,,
6578,,,survey-text,426,3194291,0.0-19.0-3.9,80669,List2A,white,man,,,,,"{""Q0"":""Dave is meeting Mike.""}","<img src=""stim_listA/meet5.gif""</stim_listA>",is meeting,
null,"<div style=""font-size:60px;"">+</div>",,html-keyboard-response,427,3194793,0.0-19.0-0.10,80669,List2A,white,man,,,,null,,,,
null,"<img src=""stim_listA/talk3.gif""</stim_listA>",,html-keyboard-response,428,3196795,0.0-19.0-1.10,80669,List2A,white,man,,,,null,,,,
null,is talking to,,html-keyboard-response,429,3198797,0.0-19.0-2.10,80669,List2A,white,man,,,,null,,,,
10251,,,survey-text,430,3209048,0.0-19.0-3.10,80669,List2A,white,man,,,,,"{""Q0"":""Kate is talking to Fred.""}","<img src=""stim_listA/talk3.gif""</stim_listA>",is talking to,
null,"<div style=""font-size:60px;"">+</div>",,html-keyboard-response,431,3209549,0.0-19.0-0.11,80669,List2A,white,man,,,,null,,,,
null,"<img src=""stim_listA/hug4.gif""</stim_listA>",,html-keyboard-response,432,3211552,0.0-19.0-1.11,80669,List2A,white,man,,,,null,,,,
null,are hugging each other,,html-keyboard-response,433,3213553,0.0-19.0-2.11,80669,List2A,white,man,,,,null,,,,
7443,,,survey-text,434,3220996,0.0-19.0-3.11,80669,List2A,white,man,,,,,"{""Q0"":""Mike and Kate are hugging each other.""}","<img src=""stim_listA/hug4.gif""</stim_listA>",are hugging each other,
null,"<div style=""font-size:60px;"">+</div>",,html-keyboard-response,435,3221497,0.0-19.0-0.12,80669,List2A,white,man,,,,null,,,,
null,"<img src=""stim_listA/dance2.gif""</stim_listA>",,html-keyboard-response,436,3223497,0.0-19.0-1.12,80669,List2A,white,man,,,,null,,,,
null,are dancing with each other,,html-keyboard-response,437,3225499,0.0-19.0-2.12,80669,List2A,white,man,,,,null,,,,
8040,,,survey-text,438,3233539,0.0-19.0-3.12,80669,List2A,white,man,,,,,"{""Q0"":""Dave and Ruth are dancing together.""}","<img src=""stim_listA/dance2.gif""</stim_listA>",are dancing with each other,
null,"<div style=""font-size:60px;"">+</div>",,html-keyboard-response,439,3234041,0.0-19.0-0.13,80669,List2A,white,man,,,,null,,,,
null,"<img src=""stim_listA/fight8.gif""</stim_listA>",,html-keyboard-response,440,3236042,0.0-19.0-1.13,80669,List2A,white,man,,,,null,,,,
null,are fighting each other,,html-keyboard-response,441,3238043,0.0-19.0-2.13,80669,List2A,white,man,,,,null,,,,
10668,,,survey-text,442,3248711,0.0-19.0-3.13,80669,List2A,white,man,,,,,"{""Q0"":""Beth and Ruth are fighting each other.""}","<img src=""stim_listA/fight8.gif""</stim_listA>",are fighting each other,
null,"<div style=""font-size:60px;"">+</div>",,html-keyboard-response,443,3249213,0.0-19.0-0.14,80669,List2A,white,man,,,,null,,,,
null,"<img src=""stim_listA/talk7.gif""</stim_listA>",,html-keyboard-response,444,3251215,0.0-19.0-1.14,80669,List2A,white,man,,,,null,,,,
null,is talking to,,html-keyboard-response,445,3253217,0.0-19.0-2.14,80669,List2A,white,man,,,,null,,,,
8278,,,survey-text,446,3261496,0.0-19.0-3.14,80669,List2A,white,man,,,,,"{""Q0"":""Ruth is talking to Kate.""}","<img src=""stim_listA/talk7.gif""</stim_listA>",is talking to,
null,"<div style=""font-size:60px;"">+</div>",,html-keyboard-response,447,3261997,0.0-19.0-0.15,80669,List2A,white,man,,,,null,,,,
null,"<img src=""stim_listA/fight2.gif""</stim_listA>",,html-keyboard-response,448,3263998,0.0-19.0-1.15,80669,List2A,white,man,,,,null,,,,
null,are fighting each other,,html-keyboard-response,449,3266000,0.0-19.0-2.15,80669,List2A,white,man,,,,null,,,,
5874,,,survey-text,450,3271876,0.0-19.0-3.15,80669,List2A,white,man,,,,,"{""Q0"":""Ruth and Luke are fighting.""}","<img src=""stim_listA/fight2.gif""</stim_listA>",are fighting each other,
null,"<div style=""font-size:60px;"">+</div>",,html-keyboard-response,451,3272379,0.0-19.0-0.16,80669,List2A,white,man,,,,null,,,,
null,"<img src=""stim_listA/fight5.gif""</stim_listA>",,html-keyboard-response,452,3274382,0.0-19.0-1.16,80669,List2A,white,man,,,,null,,,,
null,is fighting,,html-keyboard-response,453,3276382,0.0-19.0-2.16,80669,List2A,white,man,,,,null,,,,
9084,,,survey-text,454,3285467,0.0-19.0-3.16,80669,List2A,white,man,,,,,"{""Q0"":""Dave is fighting Mike.""}","<img src=""stim_listA/fight5.gif""</stim_listA>",is fighting,
null,"<div style=""font-size:60px;"">+</div>",,html-keyboard-response,455,3285969,0.0-19.0-0.17,80669,List2A,white,man,,,,null,,,,
null,"<img src=""stim_listA/shout3.gif""</stim_listA>",,html-keyboard-response,456,3287970,0.0-19.0-1.17,80669,List2A,white,man,,,,null,,,,
null,is shouting at,,html-keyboard-response,457,3289971,0.0-19.0-2.17,80669,List2A,white,man,,,,null,,,,
6637,,,survey-text,458,3296608,0.0-19.0-3.17,80669,List2A,white,man,,,,,"{""Q0"":""Fred is shouting at Beth.""}","<img src=""stim_listA/shout3.gif""</stim_listA>",is shouting at,
null,"<div style=""font-size:60px;"">+</div>",,html-keyboard-response,459,3297109,0.0-19.0-0.18,80669,List2A,white,man,,,,null,,,,
null,"<img src=""stim_listA/touch8.gif""</stim_listA>",,html-keyboard-response,460,3299110,0.0-19.0-1.18,80669,List2A,white,man,,,,null,,,,
null,are touching each other,,html-keyboard-response,461,3301110,0.0-19.0-2.18,80669,List2A,white,man,,,,null,,,,
6713,,,survey-text,462,3307824,0.0-19.0-3.18,80669,List2A,white,man,,,,,"{""Q0"":""Beth and Ruth are touching each other.""}","<img src=""stim_listA/touch8.gif""</stim_listA>",are touching each other,
null,"<div style=""font-size:60px;"">+</div>",,html-keyboard-response,463,3308326,0.0-19.0-0.19,80669,List2A,white,man,,,,null,,,,
null,"<img src=""stim_listA/talk4.gif""</stim_listA>",,html-keyboard-response,464,3310327,0.0-19.0-1.19,80669,List2A,white,man,,,,null,,,,
null,are talking to each other,,html-keyboard-response,465,3312329,0.0-19.0-2.19,80669,List2A,white,man,,,,null,,,,
7930,,,survey-text,466,3320259,0.0-19.0-3.19,80669,List2A,white,man,,,,,"{""Q0"":""Mike and Beth are talking to each other.""}","<img src=""stim_listA/talk4.gif""</stim_listA>",are talking to each other,
2351,<p>Thank you for completing that task.</p><p>The final part of this session is a short questionnaire.</p><p>Press Continue.</p>,0,html-button-response,467,3322611,0.0-20.0,80669,List2A,white,man,,,,,,,,
19813,,,survey-text,468,3343428,0.0-21.0,80669,List2A,white,man,,,,,"{""Q0"":""19"",""Q1"":""English"",""Q2"":""English"",""Q3"":""Canada"",""Q4"":""White"",""Q5"":""Male""}",,,demographics
41790,,,survey-likert,469,3385222,0.0-22.0,80669,List2A,white,man,,,,,"{""Q0"":3,""Q1"":3,""Q2"":2,""Q3"":3,""Q4"":2,""Q5"":4,""Q6"":3,""Q7"":1,""Q8"":1,""Q9"":1,""Q10"":1,""Q11"":3,""Q12"":2,""Q13"":1}",,,likert_race
33489,,,survey-likert,470,3418719,0.0-23.0,80669,List2A,white,man,,,,,"{""Q0"":1,""Q1"":4,""Q2"":5,""Q3"":5,""Q4"":4,""Q5"":4,""Q6"":3,""Q7"":1,""Q8"":3,""Q9"":4,""Q10"":1,""Q11"":2,""Q12"":2,""Q13"":1}",,,likert_gender
9027,,,survey-text,471,3427752,0.0-24.0,80669,List2A,white,man,,,,,"{""Q0"":""ccc""}",,,worker_id
20463,,,external-html,472,3448419,0.0-25.0,80669,List2A,white,man,debrief.html,,,,,,,
