rt,stimulus,button_pressed,trial_type,trial_index,time_elapsed,internal_node_id,subject,list,ppt_race,ppt_gender,url,first_guess,correct,key_press,responses,image_type,phrase_type,test_part
2930,Welcome to the experiment. Press Continue to begin.,0,html-button-response,0,2982,0.0-0.0,8074,List1A,black,woman,,,,,,,,
13026,,,external-html,1,17123,0.0-1.0,8074,List1A,black,woman,consent.html,,,,,,,
2036,"<p>On the next page, you will see portraits of 8 people and their names.</p><p>Your first task is to take a few minutes to memorise the names of these people.</p><p>You will have to recall their names during the rest of the experiment, so it is</p><p>essential that you try to memorise these people and their names as best as you can.</p><br><p><strong>You will then be tested on your memory of these names and portraits.</strong></p><br><p>The experiment will start after you have completed this memory test.</p><br><p>Ready?</p>",0,html-button-response,2,19163,0.0-2.0,8074,List1A,black,woman,,,,,,,,
28155,"<img src='img/portrait_matrix_list1.JPG' style='width:900px;height:500px;''></img><p>If you have memorised all the portraits and names and are ready to start, press Continue.</p><p><strong>Please note: Your memory of these faces will be tested 4 times during this experiment.</strong></p>",0,html-button-response,3,48322,0.0-3.0-0.0,8074,List1A,black,woman,,,,,,,,
5199,"<img src=""portrait/WW2.jpg""style=""width:400px;height:400px;""></img>",1,html-button-response,4,54528,0.0-3.0-1.0,8074,List1A,black,woman,,TRUE,3,,,,,
5444,"<img src=""portrait/WW2.jpg""style=""width:400px;height:400px;""></img>",3,html-button-response,5,60981,0.0-3.0-3.0-0.0,8074,List1A,black,woman,,FALSE,3,,,,,
null,CORRECT,,html-keyboard-response,6,62492,0.0-3.0-3.0-1.0-0.0,8074,List1A,black,woman,,,,null,,,,
3650,"<img src=""portrait/WW1.jpg""style=""width:400px;height:400px;""></img>",2,html-button-response,7,66158,0.0-3.0-4.0,8074,List1A,black,woman,,TRUE,1,,,,,
2381,"<img src=""portrait/WW1.jpg""style=""width:400px;height:400px;""></img>",1,html-button-response,8,69545,0.0-3.0-6.0-0.0,8074,List1A,black,woman,,FALSE,1,,,,,
null,CORRECT,,html-keyboard-response,9,71053,0.0-3.0-6.0-1.0-0.0,8074,List1A,black,woman,,,,null,,,,
4076,"<img src=""portrait/BW1.jpg""style=""width:400px;height:400px;""></img>",2,html-button-response,10,75132,0.0-3.0-7.0,8074,List1A,black,woman,,TRUE,0,,,,,
2669,"<img src=""portrait/BW1.jpg""style=""width:400px;height:400px;""></img>",0,html-button-response,11,78806,0.0-3.0-9.0-0.0,8074,List1A,black,woman,,FALSE,0,,,,,
null,CORRECT,,html-keyboard-response,12,80312,0.0-3.0-9.0-1.0-0.0,8074,List1A,black,woman,,,,null,,,,
5003,"<img src=""portrait/BM2.jpg""style=""width:400px;height:400px;""></img>",4,html-button-response,13,85318,0.0-3.0-10.0,8074,List1A,black,woman,,TRUE,5,,,,,
2896,"<img src=""portrait/BM2.jpg""style=""width:400px;height:400px;""></img>",5,html-button-response,14,89223,0.0-3.0-12.0-0.0,8074,List1A,black,woman,,FALSE,5,,,,,
null,CORRECT,,html-keyboard-response,15,90728,0.0-3.0-12.0-1.0-0.0,8074,List1A,black,woman,,,,null,,,,
4543,"<img src=""portrait/WM2.jpg""style=""width:400px;height:400px;""></img>",6,html-button-response,16,95277,0.0-3.0-13.0,8074,List1A,black,woman,,TRUE,7,,,,,
2499,"<img src=""portrait/WM2.jpg""style=""width:400px;height:400px;""></img>",7,html-button-response,17,98793,0.0-3.0-15.0-0.0,8074,List1A,black,woman,,FALSE,7,,,,,
null,CORRECT,,html-keyboard-response,18,100300,0.0-3.0-15.0-1.0-0.0,8074,List1A,black,woman,,,,null,,,,
4271,"<img src=""portrait/BM1.jpg""style=""width:400px;height:400px;""></img>",6,html-button-response,19,104576,0.0-3.0-16.0,8074,List1A,black,woman,,TRUE,4,,,,,
2046,"<img src=""portrait/BM1.jpg""style=""width:400px;height:400px;""></img>",4,html-button-response,20,107633,0.0-3.0-18.0-0.0,8074,List1A,black,woman,,FALSE,4,,,,,
null,CORRECT,,html-keyboard-response,21,109140,0.0-3.0-18.0-1.0-0.0,8074,List1A,black,woman,,,,null,,,,
3515,"<img src=""portrait/BW2.jpg""style=""width:400px;height:400px;""></img>",2,html-button-response,22,112663,0.0-3.0-19.0,8074,List1A,black,woman,,TRUE,2,,,,,
null,CORRECT,,html-keyboard-response,23,114168,0.0-3.0-20.0-0.0,8074,List1A,black,woman,,,,null,,,,
5759,"<img src=""portrait/WM1.jpg""style=""width:400px;height:400px;""></img>",6,html-button-response,24,119933,0.0-3.0-22.0,8074,List1A,black,woman,,TRUE,6,,,,,
null,CORRECT,,html-keyboard-response,25,121439,0.0-3.0-23.0-0.0,8074,List1A,black,woman,,,,null,,,,
3520,<p>You got 2 out of 8 right first time. Press Continue.</p>,0,html-button-response,26,124971,0.0-3.0-25.0,8074,List1A,black,woman,,,,,,,,
3952,"As you did not score 100%, the memory game will repeat. Press Continue.",0,html-button-response,27,129932,0.0-3.0-26.0-0.0,8074,List1A,black,woman,,,,,,,,
32817,"<img src='img/portrait_matrix_list1.JPG' style='width:900px;height:500px;''></img><p>If you have memorised all the portraits and names and are ready to start, press Continue.</p><p><strong>Please note: Your memory of these faces will be tested 4 times during this experiment.</strong></p>",0,html-button-response,28,163754,0.0-3.1-0.1,8074,List1A,black,woman,,,,,,,,
7336,"<img src=""portrait/WW2.jpg""style=""width:400px;height:400px;""></img>",3,html-button-response,29,172100,0.0-3.1-1.1,8074,List1A,black,woman,,TRUE,3,,,,,
null,CORRECT,,html-keyboard-response,30,173604,0.0-3.1-2.1-0.1,8074,List1A,black,woman,,,,null,,,,
6468,"<img src=""portrait/WW1.jpg""style=""width:400px;height:400px;""></img>",1,html-button-response,31,180078,0.0-3.1-4.1,8074,List1A,black,woman,,TRUE,1,,,,,
null,CORRECT,,html-keyboard-response,32,181584,0.0-3.1-5.1-0.1,8074,List1A,black,woman,,,,null,,,,
8198,"<img src=""portrait/BW1.jpg""style=""width:400px;height:400px;""></img>",2,html-button-response,33,189788,0.0-3.1-7.1,8074,List1A,black,woman,,TRUE,0,,,,,
2875,"<img src=""portrait/BW1.jpg""style=""width:400px;height:400px;""></img>",0,html-button-response,34,193670,0.0-3.1-9.1-0.1,8074,List1A,black,woman,,FALSE,0,,,,,
null,CORRECT,,html-keyboard-response,35,195178,0.0-3.1-9.1-1.1-0.1,8074,List1A,black,woman,,,,null,,,,
9870,"<img src=""portrait/BM2.jpg""style=""width:400px;height:400px;""></img>",5,html-button-response,36,205052,0.0-3.1-10.1,8074,List1A,black,woman,,TRUE,5,,,,,
null,CORRECT,,html-keyboard-response,37,206557,0.0-3.1-11.1-0.1,8074,List1A,black,woman,,,,null,,,,
17265,"<img src=""portrait/WM2.jpg""style=""width:400px;height:400px;""></img>",4,html-button-response,38,223832,0.0-3.1-13.1,8074,List1A,black,woman,,TRUE,7,,,,,
2897,"<img src=""portrait/WM2.jpg""style=""width:400px;height:400px;""></img>",7,html-button-response,39,227735,0.0-3.1-15.1-0.1,8074,List1A,black,woman,,FALSE,7,,,,,
null,CORRECT,,html-keyboard-response,40,229240,0.0-3.1-15.1-1.1-0.1,8074,List1A,black,woman,,,,null,,,,
16629,"<img src=""portrait/BM1.jpg""style=""width:400px;height:400px;""></img>",5,html-button-response,41,245875,0.0-3.1-16.1,8074,List1A,black,woman,,TRUE,4,,,,,
2907,"<img src=""portrait/BM1.jpg""style=""width:400px;height:400px;""></img>",4,html-button-response,42,249786,0.0-3.1-18.1-0.1,8074,List1A,black,woman,,FALSE,4,,,,,
null,CORRECT,,html-keyboard-response,43,251291,0.0-3.1-18.1-1.1-0.1,8074,List1A,black,woman,,,,null,,,,
3500,"<img src=""portrait/BW2.jpg""style=""width:400px;height:400px;""></img>",2,html-button-response,44,254799,0.0-3.1-19.1,8074,List1A,black,woman,,TRUE,2,,,,,
null,CORRECT,,html-keyboard-response,45,256305,0.0-3.1-20.1-0.1,8074,List1A,black,woman,,,,null,,,,
4113,"<img src=""portrait/WM1.jpg""style=""width:400px;height:400px;""></img>",4,html-button-response,46,260424,0.0-3.1-22.1,8074,List1A,black,woman,,TRUE,6,,,,,
2100,"<img src=""portrait/WM1.jpg""style=""width:400px;height:400px;""></img>",6,html-button-response,47,263532,0.0-3.1-24.1-0.1,8074,List1A,black,woman,,FALSE,6,,,,,
null,CORRECT,,html-keyboard-response,48,265038,0.0-3.1-24.1-1.1-0.1,8074,List1A,black,woman,,,,null,,,,
2612,<p>You got 4 out of 8 right first time. Press Continue.</p>,0,html-button-response,49,267654,0.0-3.1-25.1,8074,List1A,black,woman,,,,,,,,
2717,"As you did not score 100%, the memory game will repeat. Press Continue.",0,html-button-response,50,271389,0.0-3.1-26.1-0.1,8074,List1A,black,woman,,,,,,,,
26643,"<img src='img/portrait_matrix_list1.JPG' style='width:900px;height:500px;''></img><p>If you have memorised all the portraits and names and are ready to start, press Continue.</p><p><strong>Please note: Your memory of these faces will be tested 4 times during this experiment.</strong></p>",0,html-button-response,51,299038,0.0-3.2-0.2,8074,List1A,black,woman,,,,,,,,
3587,"<img src=""portrait/WW2.jpg""style=""width:400px;height:400px;""></img>",1,html-button-response,52,303632,0.0-3.2-1.2,8074,List1A,black,woman,,TRUE,3,,,,,
2782,"<img src=""portrait/WW2.jpg""style=""width:400px;height:400px;""></img>",3,html-button-response,53,307424,0.0-3.2-3.2-0.2,8074,List1A,black,woman,,FALSE,3,,,,,
null,CORRECT,,html-keyboard-response,54,308930,0.0-3.2-3.2-1.2-0.2,8074,List1A,black,woman,,,,null,,,,
3049,"<img src=""portrait/WW1.jpg""style=""width:400px;height:400px;""></img>",1,html-button-response,55,311986,0.0-3.2-4.2,8074,List1A,black,woman,,TRUE,1,,,,,
null,CORRECT,,html-keyboard-response,56,313491,0.0-3.2-5.2-0.2,8074,List1A,black,woman,,,,null,,,,
6843,"<img src=""portrait/BW1.jpg""style=""width:400px;height:400px;""></img>",0,html-button-response,57,320341,0.0-3.2-7.2,8074,List1A,black,woman,,TRUE,0,,,,,
null,CORRECT,,html-keyboard-response,58,321846,0.0-3.2-8.2-0.2,8074,List1A,black,woman,,,,null,,,,
4834,"<img src=""portrait/BM2.jpg""style=""width:400px;height:400px;""></img>",4,html-button-response,59,326685,0.0-3.2-10.2,8074,List1A,black,woman,,TRUE,5,,,,,
2250,"<img src=""portrait/BM2.jpg""style=""width:400px;height:400px;""></img>",5,html-button-response,60,329943,0.0-3.2-12.2-0.2,8074,List1A,black,woman,,FALSE,5,,,,,
null,CORRECT,,html-keyboard-response,61,331449,0.0-3.2-12.2-1.2-0.2,8074,List1A,black,woman,,,,null,,,,
3041,"<img src=""portrait/WM2.jpg""style=""width:400px;height:400px;""></img>",7,html-button-response,62,334497,0.0-3.2-13.2,8074,List1A,black,woman,,TRUE,7,,,,,
null,CORRECT,,html-keyboard-response,63,336002,0.0-3.2-14.2-0.2,8074,List1A,black,woman,,,,null,,,,
6642,"<img src=""portrait/BM1.jpg""style=""width:400px;height:400px;""></img>",4,html-button-response,64,342649,0.0-3.2-16.2,8074,List1A,black,woman,,TRUE,4,,,,,
null,CORRECT,,html-keyboard-response,65,344154,0.0-3.2-17.2-0.2,8074,List1A,black,woman,,,,null,,,,
3102,"<img src=""portrait/BW2.jpg""style=""width:400px;height:400px;""></img>",2,html-button-response,66,347260,0.0-3.2-19.2,8074,List1A,black,woman,,TRUE,2,,,,,
null,CORRECT,,html-keyboard-response,67,348766,0.0-3.2-20.2-0.2,8074,List1A,black,woman,,,,null,,,,
4669,"<img src=""portrait/WM1.jpg""style=""width:400px;height:400px;""></img>",6,html-button-response,68,353444,0.0-3.2-22.2,8074,List1A,black,woman,,TRUE,6,,,,,
null,CORRECT,,html-keyboard-response,69,354949,0.0-3.2-23.2-0.2,8074,List1A,black,woman,,,,null,,,,
3309,<p>You got 6 out of 8 right first time. Press Continue.</p>,0,html-button-response,70,358262,0.0-3.2-25.2,8074,List1A,black,woman,,,,,,,,
3635,"As you did not score 100%, the memory game will repeat. Press Continue.",0,html-button-response,71,362904,0.0-3.2-26.2-0.2,8074,List1A,black,woman,,,,,,,,
62704,"<img src='img/portrait_matrix_list1.JPG' style='width:900px;height:500px;''></img><p>If you have memorised all the portraits and names and are ready to start, press Continue.</p><p><strong>Please note: Your memory of these faces will be tested 4 times during this experiment.</strong></p>",0,html-button-response,72,426614,0.0-3.3-0.3,8074,List1A,black,woman,,,,,,,,
2763,"<img src=""portrait/WW2.jpg""style=""width:400px;height:400px;""></img>",3,html-button-response,73,430390,0.0-3.3-1.3,8074,List1A,black,woman,,TRUE,3,,,,,
null,CORRECT,,html-keyboard-response,74,431901,0.0-3.3-2.3-0.3,8074,List1A,black,woman,,,,null,,,,
6036,"<img src=""portrait/WW1.jpg""style=""width:400px;height:400px;""></img>",1,html-button-response,75,437941,0.0-3.3-4.3,8074,List1A,black,woman,,TRUE,1,,,,,
null,CORRECT,,html-keyboard-response,76,439447,0.0-3.3-5.3-0.3,8074,List1A,black,woman,,,,null,,,,
4053,"<img src=""portrait/BW1.jpg""style=""width:400px;height:400px;""></img>",0,html-button-response,77,443507,0.0-3.3-7.3,8074,List1A,black,woman,,TRUE,0,,,,,
null,CORRECT,,html-keyboard-response,78,445012,0.0-3.3-8.3-0.3,8074,List1A,black,woman,,,,null,,,,
14226,"<img src=""portrait/BM2.jpg""style=""width:400px;height:400px;""></img>",4,html-button-response,79,459242,0.0-3.3-10.3,8074,List1A,black,woman,,TRUE,5,,,,,
2212,"<img src=""portrait/BM2.jpg""style=""width:400px;height:400px;""></img>",5,html-button-response,80,462469,0.0-3.3-12.3-0.3,8074,List1A,black,woman,,FALSE,5,,,,,
null,CORRECT,,html-keyboard-response,81,463975,0.0-3.3-12.3-1.3-0.3,8074,List1A,black,woman,,,,null,,,,
4832,"<img src=""portrait/WM2.jpg""style=""width:400px;height:400px;""></img>",7,html-button-response,82,468814,0.0-3.3-13.3,8074,List1A,black,woman,,TRUE,7,,,,,
null,CORRECT,,html-keyboard-response,83,470319,0.0-3.3-14.3-0.3,8074,List1A,black,woman,,,,null,,,,
3481,"<img src=""portrait/BM1.jpg""style=""width:400px;height:400px;""></img>",4,html-button-response,84,473804,0.0-3.3-16.3,8074,List1A,black,woman,,TRUE,4,,,,,
null,CORRECT,,html-keyboard-response,85,475310,0.0-3.3-17.3-0.3,8074,List1A,black,woman,,,,null,,,,
2770,"<img src=""portrait/BW2.jpg""style=""width:400px;height:400px;""></img>",2,html-button-response,86,478087,0.0-3.3-19.3,8074,List1A,black,woman,,TRUE,2,,,,,
null,CORRECT,,html-keyboard-response,87,479597,0.0-3.3-20.3-0.3,8074,List1A,black,woman,,,,null,,,,
3115,"<img src=""portrait/WM1.jpg""style=""width:400px;height:400px;""></img>",6,html-button-response,88,482718,0.0-3.3-22.3,8074,List1A,black,woman,,TRUE,6,,,,,
null,CORRECT,,html-keyboard-response,89,484225,0.0-3.3-23.3-0.3,8074,List1A,black,woman,,,,null,,,,
2251,<p>You got 7 out of 8 right first time. Press Continue.</p>,0,html-button-response,90,486483,0.0-3.3-25.3,8074,List1A,black,woman,,,,,,,,
2947,"As you did not score 100%, the memory game will repeat. Press Continue.",0,html-button-response,91,490437,0.0-3.3-26.3-0.3,8074,List1A,black,woman,,,,,,,,
29393,"<img src='img/portrait_matrix_list1.JPG' style='width:900px;height:500px;''></img><p>If you have memorised all the portraits and names and are ready to start, press Continue.</p><p><strong>Please note: Your memory of these faces will be tested 4 times during this experiment.</strong></p>",0,html-button-response,92,520842,0.0-3.4-0.4,8074,List1A,black,woman,,,,,,,,
3317,"<img src=""portrait/WW2.jpg""style=""width:400px;height:400px;""></img>",3,html-button-response,93,525165,0.0-3.4-1.4,8074,List1A,black,woman,,TRUE,3,,,,,
null,CORRECT,,html-keyboard-response,94,526669,0.0-3.4-2.4-0.4,8074,List1A,black,woman,,,,null,,,,
3322,"<img src=""portrait/WW1.jpg""style=""width:400px;height:400px;""></img>",1,html-button-response,95,529995,0.0-3.4-4.4,8074,List1A,black,woman,,TRUE,1,,,,,
null,CORRECT,,html-keyboard-response,96,531500,0.0-3.4-5.4-0.4,8074,List1A,black,woman,,,,null,,,,
2274,"<img src=""portrait/BW1.jpg""style=""width:400px;height:400px;""></img>",0,html-button-response,97,533782,0.0-3.4-7.4,8074,List1A,black,woman,,TRUE,0,,,,,
null,CORRECT,,html-keyboard-response,98,535288,0.0-3.4-8.4-0.4,8074,List1A,black,woman,,,,null,,,,
11665,"<img src=""portrait/BM2.jpg""style=""width:400px;height:400px;""></img>",5,html-button-response,99,546959,0.0-3.4-10.4,8074,List1A,black,woman,,TRUE,5,,,,,
null,CORRECT,,html-keyboard-response,100,548463,0.0-3.4-11.4-0.4,8074,List1A,black,woman,,,,null,,,,
4375,"<img src=""portrait/WM2.jpg""style=""width:400px;height:400px;""></img>",7,html-button-response,101,552846,0.0-3.4-13.4,8074,List1A,black,woman,,TRUE,7,,,,,
null,CORRECT,,html-keyboard-response,102,554351,0.0-3.4-14.4-0.4,8074,List1A,black,woman,,,,null,,,,
5131,"<img src=""portrait/BM1.jpg""style=""width:400px;height:400px;""></img>",4,html-button-response,103,559491,0.0-3.4-16.4,8074,List1A,black,woman,,TRUE,4,,,,,
null,CORRECT,,html-keyboard-response,104,560996,0.0-3.4-17.4-0.4,8074,List1A,black,woman,,,,null,,,,
2133,"<img src=""portrait/BW2.jpg""style=""width:400px;height:400px;""></img>",2,html-button-response,105,563136,0.0-3.4-19.4,8074,List1A,black,woman,,TRUE,2,,,,,
null,CORRECT,,html-keyboard-response,106,564640,0.0-3.4-20.4-0.4,8074,List1A,black,woman,,,,null,,,,
4555,"<img src=""portrait/WM1.jpg""style=""width:400px;height:400px;""></img>",6,html-button-response,107,569202,0.0-3.4-22.4,8074,List1A,black,woman,,TRUE,6,,,,,
null,CORRECT,,html-keyboard-response,108,570707,0.0-3.4-23.4-0.4,8074,List1A,black,woman,,,,null,,,,
2583,<p>You got 8 out of 8 right first time. Press Continue.</p>,0,html-button-response,109,573296,0.0-3.4-25.4,8074,List1A,black,woman,,,,,,,,
36825,"<p>In this experiment, you will view photographs of the people from the memory game interacting.</p><p>By using the <strong>exact</strong> phrase given <i>after</i> the photograph appears and recalling the correct names of the people in the photographs, form a sentence describing the interaction. You do not need to capitalise names.</p><p>Type your answer in the space provided. Please complete every sentence before moving onto the next trial.</p><p>You will only have a few seconds to memorise each given photograph and phrase before you can respond, so try your best to focus.</p><p>An example is given below. Press 'Continue' when you are ready.</p><img src='img/speaking_example_v2.jpg' style='width:800px;height:460px;''></img>",0,html-button-response,110,611128,0.0-4.0,8074,List1A,black,woman,,,,,,,,
2639,"<p>Before the experiment starts, you will watch two example trials. Press 'Continue'.</p>",0,html-button-response,111,614772,0.0-5.0,8074,List1A,black,woman,,,,,,,,
null,<img src='img/speaking_WW.gif'></img>,,html-keyboard-response,112,617778,0.0-6.0,8074,List1A,black,woman,,,,null,,,,
null,<p>is speaking to</p>,,html-keyboard-response,113,619783,0.0-7.0,8074,List1A,black,woman,,,,null,,,,
3838,<p><b>Answer:</b> kate is speaking to beth</p>,0,html-button-response,114,623626,0.0-8.0,8074,List1A,black,woman,,,,,,,,
null,<img src='img/pointing_BM.gif'></img>,,html-keyboard-response,115,626635,0.0-9.0,8074,List1A,black,woman,,,,null,,,,
null,<p>are pointing at each other</p>,,html-keyboard-response,116,628642,0.0-10.0,8074,List1A,black,woman,,,,null,,,,
3456,<p><b>Answer:</b> luke and dave are pointing at each other</p>,0,html-button-response,117,632100,0.0-11.0,8074,List1A,black,woman,,,,,,,,
2259,"<p>Ready to start the experiment?</p><br><p><strong>Remember to describe the picture using a full sentence,</strong></p><p><strong> that combines the names of the people with the given phrase.</strong></p><p><strong> You do not need to capitalise names or use punctuation.</strong></p><br><p>Press 'Continue' to begin.</p>",0,html-button-response,118,635365,0.0-12.0,8074,List1A,black,woman,,,,,,,,
null,"<div style=""font-size:60px;"">+</div>",,html-keyboard-response,119,636870,0.0-13.0-0.0,8074,List1A,black,woman,,,,null,,,,
null,"<img src=""stim_listA/argue1.gif""</stim_listA>",,html-keyboard-response,120,638882,0.0-13.0-1.0,8074,List1A,black,woman,,,,null,,,,
null,is arguing with,,html-keyboard-response,121,640887,0.0-13.0-2.0,8074,List1A,black,woman,,,,null,,,,
18774,,,survey-text,122,659669,0.0-13.0-3.0,8074,List1A,black,woman,,,,,"{""Q0"":""mike and beth""}","<img src=""stim_listA/argue1.gif""</stim_listA>",is arguing with,
null,"<div style=""font-size:60px;"">+</div>",,html-keyboard-response,123,660175,0.0-13.0-0.1,8074,List1A,black,woman,,,,null,,,,
null,"<img src=""stim_listA/marry5.gif""</stim_listA>",,html-keyboard-response,124,662178,0.0-13.0-1.1,8074,List1A,black,woman,,,,null,,,,
null,is marrying,,html-keyboard-response,125,664182,0.0-13.0-2.1,8074,List1A,black,woman,,,,null,,,,
12106,,,survey-text,126,676292,0.0-13.0-3.1,8074,List1A,black,woman,,,,,"{""Q0"":""mike and luke""}","<img src=""stim_listA/marry5.gif""</stim_listA>",is marrying,
null,"<div style=""font-size:60px;"">+</div>",,html-keyboard-response,127,676796,0.0-13.0-0.2,8074,List1A,black,woman,,,,null,,,,
null,"<img src=""stim_listA/fight5.gif""</stim_listA>",,html-keyboard-response,128,678799,0.0-13.0-1.2,8074,List1A,black,woman,,,,null,,,,
null,is fighting,,html-keyboard-response,129,680802,0.0-13.0-2.2,8074,List1A,black,woman,,,,null,,,,
29863,,,survey-text,130,710669,0.0-13.0-3.2,8074,List1A,black,woman,,,,,"{""Q0"":""mike and luke""}","<img src=""stim_listA/fight5.gif""</stim_listA>",is fighting,
null,"<div style=""font-size:60px;"">+</div>",,html-keyboard-response,131,711172,0.0-13.0-0.3,8074,List1A,black,woman,,,,null,,,,
null,"<img src=""stim_listA/kiss2.gif""</stim_listA>",,html-keyboard-response,132,713177,0.0-13.0-1.3,8074,List1A,black,woman,,,,null,,,,
null,are kissing each other,,html-keyboard-response,133,715180,0.0-13.0-2.3,8074,List1A,black,woman,,,,null,,,,
12422,,,survey-text,134,727605,0.0-13.0-3.3,8074,List1A,black,woman,,,,,"{""Q0"":""mike and kate""}","<img src=""stim_listA/kiss2.gif""</stim_listA>",are kissing each other,
null,"<div style=""font-size:60px;"">+</div>",,html-keyboard-response,135,728109,0.0-13.0-0.4,8074,List1A,black,woman,,,,null,,,,
null,"<img src=""stim_listA/touch3.gif""</stim_listA>",,html-keyboard-response,136,730113,0.0-13.0-1.4,8074,List1A,black,woman,,,,null,,,,
null,is touching,,html-keyboard-response,137,732116,0.0-13.0-2.4,8074,List1A,black,woman,,,,null,,,,
14431,,,survey-text,138,746549,0.0-13.0-3.4,8074,List1A,black,woman,,,,,"{""Q0"":""luke and jane""}","<img src=""stim_listA/touch3.gif""</stim_listA>",is touching,
null,"<div style=""font-size:60px;"">+</div>",,html-keyboard-response,139,747054,0.0-13.0-0.5,8074,List1A,black,woman,,,,null,,,,
null,"<img src=""stim_listA/meet7.gif""</stim_listA>",,html-keyboard-response,140,749057,0.0-13.0-1.5,8074,List1A,black,woman,,,,null,,,,
null,is meeting,,html-keyboard-response,141,751059,0.0-13.0-2.5,8074,List1A,black,woman,,,,null,,,,
13287,,,survey-text,142,764348,0.0-13.0-3.5,8074,List1A,black,woman,,,,,"{""Q0"":""jane and kate""}","<img src=""stim_listA/meet7.gif""</stim_listA>",is meeting,
null,"<div style=""font-size:60px;"">+</div>",,html-keyboard-response,143,764851,0.0-13.0-0.6,8074,List1A,black,woman,,,,null,,,,
null,"<img src=""stim_listA/meet2.gif""</stim_listA>",,html-keyboard-response,144,766854,0.0-13.0-1.6,8074,List1A,black,woman,,,,null,,,,
null,are meeting each other,,html-keyboard-response,145,768857,0.0-13.0-2.6,8074,List1A,black,woman,,,,null,,,,
19144,,,survey-text,146,788004,0.0-13.0-3.6,8074,List1A,black,woman,,,,,"{""Q0"":""beth and luke""}","<img src=""stim_listA/meet2.gif""</stim_listA>",are meeting each other,
null,"<div style=""font-size:60px;"">+</div>",,html-keyboard-response,147,788507,0.0-13.0-0.7,8074,List1A,black,woman,,,,null,,,,
null,"<img src=""stim_listA/hug6.gif""</stim_listA>",,html-keyboard-response,148,790511,0.0-13.0-1.7,8074,List1A,black,woman,,,,null,,,,
null,are hugging each other,,html-keyboard-response,149,792514,0.0-13.0-2.7,8074,List1A,black,woman,,,,null,,,,
8478,,,survey-text,150,800995,0.0-13.0-3.7,8074,List1A,black,woman,,,,,"{""Q0"":""mike and dave""}","<img src=""stim_listA/hug6.gif""</stim_listA>",are hugging each other,
null,"<div style=""font-size:60px;"">+</div>",,html-keyboard-response,151,801499,0.0-13.0-0.8,8074,List1A,black,woman,,,,null,,,,
null,"<img src=""stim_listA/marry6.gif""</stim_listA>",,html-keyboard-response,152,803503,0.0-13.0-1.8,8074,List1A,black,woman,,,,null,,,,
null,are marrying each other,,html-keyboard-response,153,805506,0.0-13.0-2.8,8074,List1A,black,woman,,,,null,,,,
11125,,,survey-text,154,816635,0.0-13.0-3.8,8074,List1A,black,woman,,,,,"{""Q0"":""fred and luke""}","<img src=""stim_listA/marry6.gif""</stim_listA>",are marrying each other,
null,"<div style=""font-size:60px;"">+</div>",,html-keyboard-response,155,817141,0.0-13.0-0.9,8074,List1A,black,woman,,,,null,,,,
null,"<img src=""stim_listA/kiss3.gif""</stim_listA>",,html-keyboard-response,156,819146,0.0-13.0-1.9,8074,List1A,black,woman,,,,null,,,,
null,is kissing,,html-keyboard-response,157,821148,0.0-13.0-2.9,8074,List1A,black,woman,,,,null,,,,
11233,,,survey-text,158,832383,0.0-13.0-3.9,8074,List1A,black,woman,,,,,"{""Q0"":""ruth and luke""}","<img src=""stim_listA/kiss3.gif""</stim_listA>",is kissing,
null,"<div style=""font-size:60px;"">+</div>",,html-keyboard-response,159,832888,0.0-13.0-0.10,8074,List1A,black,woman,,,,null,,,,
null,"<img src=""stim_listA/fight1.gif""</stim_listA>",,html-keyboard-response,160,834894,0.0-13.0-1.10,8074,List1A,black,woman,,,,null,,,,
null,is fighting,,html-keyboard-response,161,836899,0.0-13.0-2.10,8074,List1A,black,woman,,,,null,,,,
12943,,,survey-text,162,849845,0.0-13.0-3.10,8074,List1A,black,woman,,,,,"{""Q0"":""mike and kate""}","<img src=""stim_listA/fight1.gif""</stim_listA>",is fighting,
null,"<div style=""font-size:60px;"">+</div>",,html-keyboard-response,163,850349,0.0-13.0-0.11,8074,List1A,black,woman,,,,null,,,,
null,"<img src=""stim_listA/kiss6.gif""</stim_listA>",,html-keyboard-response,164,852355,0.0-13.0-1.11,8074,List1A,black,woman,,,,null,,,,
null,are kissing each other,,html-keyboard-response,165,854357,0.0-13.0-2.11,8074,List1A,black,woman,,,,null,,,,
8713,,,survey-text,166,863073,0.0-13.0-3.11,8074,List1A,black,woman,,,,,"{""Q0"":""mike and luke""}","<img src=""stim_listA/kiss6.gif""</stim_listA>",are kissing each other,
null,"<div style=""font-size:60px;"">+</div>",,html-keyboard-response,167,863577,0.0-13.0-0.12,8074,List1A,black,woman,,,,null,,,,
null,"<img src=""stim_listA/dance6.gif""</stim_listA>",,html-keyboard-response,168,865584,0.0-13.0-1.12,8074,List1A,black,woman,,,,null,,,,
null,are dancing with each other,,html-keyboard-response,169,867587,0.0-13.0-2.12,8074,List1A,black,woman,,,,null,,,,
9709,,,survey-text,170,877300,0.0-13.0-3.12,8074,List1A,black,woman,,,,,"{""Q0"":""mike and luke""}","<img src=""stim_listA/dance6.gif""</stim_listA>",are dancing with each other,
null,"<div style=""font-size:60px;"">+</div>",,html-keyboard-response,171,877805,0.0-13.0-0.13,8074,List1A,black,woman,,,,null,,,,
null,"<img src=""stim_listA/talk2.gif""</stim_listA>",,html-keyboard-response,172,879809,0.0-13.0-1.13,8074,List1A,black,woman,,,,null,,,,
null,are talking to each other,,html-keyboard-response,173,881813,0.0-13.0-2.13,8074,List1A,black,woman,,,,null,,,,
9283,,,survey-text,174,891099,0.0-13.0-3.13,8074,List1A,black,woman,,,,,"{""Q0"":""mike and beth""}","<img src=""stim_listA/talk2.gif""</stim_listA>",are talking to each other,
null,"<div style=""font-size:60px;"">+</div>",,html-keyboard-response,175,891602,0.0-13.0-0.14,8074,List1A,black,woman,,,,null,,,,
null,"<img src=""stim_listA/shout5.gif""</stim_listA>",,html-keyboard-response,176,893606,0.0-13.0-1.14,8074,List1A,black,woman,,,,null,,,,
null,is shouting at,,html-keyboard-response,177,895609,0.0-13.0-2.14,8074,List1A,black,woman,,,,null,,,,
15156,,,survey-text,178,910769,0.0-13.0-3.14,8074,List1A,black,woman,,,,,"{""Q0"":""dave and fred""}","<img src=""stim_listA/shout5.gif""</stim_listA>",is shouting at,
null,"<div style=""font-size:60px;"">+</div>",,html-keyboard-response,179,911274,0.0-13.0-0.15,8074,List1A,black,woman,,,,null,,,,
null,"<img src=""stim_listA/fight7.gif""</stim_listA>",,html-keyboard-response,180,913278,0.0-13.0-1.15,8074,List1A,black,woman,,,,null,,,,
null,is fighting,,html-keyboard-response,181,915281,0.0-13.0-2.15,8074,List1A,black,woman,,,,null,,,,
15355,,,survey-text,182,930640,0.0-13.0-3.15,8074,List1A,black,woman,,,,,"{""Q0"":""jane and kate""}","<img src=""stim_listA/fight7.gif""</stim_listA>",is fighting,
null,"<div style=""font-size:60px;"">+</div>",,html-keyboard-response,183,931145,0.0-13.0-0.16,8074,List1A,black,woman,,,,null,,,,
null,"<img src=""stim_listA/meet4.gif""</stim_listA>",,html-keyboard-response,184,933148,0.0-13.0-1.16,8074,List1A,black,woman,,,,null,,,,
null,are meeting each other,,html-keyboard-response,185,935154,0.0-13.0-2.16,8074,List1A,black,woman,,,,null,,,,
14130,,,survey-text,186,949292,0.0-13.0-3.16,8074,List1A,black,woman,,,,,"{""Q0"":""ruth and dave""}","<img src=""stim_listA/meet4.gif""</stim_listA>",are meeting each other,
null,"<div style=""font-size:60px;"">+</div>",,html-keyboard-response,187,949796,0.0-13.0-0.17,8074,List1A,black,woman,,,,null,,,,
null,"<img src=""stim_listA/talk8.gif""</stim_listA>",,html-keyboard-response,188,951802,0.0-13.0-1.17,8074,List1A,black,woman,,,,null,,,,
null,are talking to each other,,html-keyboard-response,189,953806,0.0-13.0-2.17,8074,List1A,black,woman,,,,null,,,,
13508,,,survey-text,190,967317,0.0-13.0-3.17,8074,List1A,black,woman,,,,,"{""Q0"":""jane and kate""}","<img src=""stim_listA/talk8.gif""</stim_listA>",are talking to each other,
null,"<div style=""font-size:60px;"">+</div>",,html-keyboard-response,191,967822,0.0-13.0-0.18,8074,List1A,black,woman,,,,null,,,,
null,"<img src=""stim_listA/argue3.gif""</stim_listA>",,html-keyboard-response,192,969826,0.0-13.0-1.18,8074,List1A,black,woman,,,,null,,,,
null,is arguing with,,html-keyboard-response,193,971829,0.0-13.0-2.18,8074,List1A,black,woman,,,,null,,,,
12283,,,survey-text,194,984115,0.0-13.0-3.18,8074,List1A,black,woman,,,,,"{""Q0"":""jane and luke""}","<img src=""stim_listA/argue3.gif""</stim_listA>",is arguing with,
null,"<div style=""font-size:60px;"">+</div>",,html-keyboard-response,195,984619,0.0-13.0-0.19,8074,List1A,black,woman,,,,null,,,,
null,"<img src=""stim_listA/dance4.gif""</stim_listA>",,html-keyboard-response,196,986623,0.0-13.0-1.19,8074,List1A,black,woman,,,,null,,,,
null,are dancing with each other,,html-keyboard-response,197,988625,0.0-13.0-2.19,8074,List1A,black,woman,,,,null,,,,
15853,,,survey-text,198,1004481,0.0-13.0-3.19,8074,List1A,black,woman,,,,,"{""Q0"":""ruth and luke""}","<img src=""stim_listA/dance4.gif""</stim_listA>",are dancing with each other,
32558,"<img src='img/portrait_matrix_list1.JPG' style='width:900px;height:500px;''></img><p>If you have memorised all the portraits and names and are ready to start, press Continue.</p><p><strong>Please note: Your memory of these faces will be tested 4 times during this experiment.</strong></p>",0,html-button-response,199,1037043,0.0-14.0-0.0,8074,List1A,black,woman,,,,,,,,
3427,"<img src=""portrait/WM1.jpg""style=""width:400px;height:400px;""></img>",6,html-button-response,200,1041477,0.0-14.0-1.0,8074,List1A,black,woman,,TRUE,6,,,,,
null,CORRECT,,html-keyboard-response,201,1042980,0.0-14.0-2.0-0.0,8074,List1A,black,woman,,,,null,,,,
2946,"<img src=""portrait/WW1.jpg""style=""width:400px;height:400px;""></img>",1,html-button-response,202,1045931,0.0-14.0-4.0,8074,List1A,black,woman,,TRUE,1,,,,,
null,CORRECT,,html-keyboard-response,203,1047436,0.0-14.0-5.0-0.0,8074,List1A,black,woman,,,,null,,,,
4070,"<img src=""portrait/BM2.jpg""style=""width:400px;height:400px;""></img>",5,html-button-response,204,1051510,0.0-14.0-7.0,8074,List1A,black,woman,,TRUE,5,,,,,
null,CORRECT,,html-keyboard-response,205,1053016,0.0-14.0-8.0-0.0,8074,List1A,black,woman,,,,null,,,,
2933,"<img src=""portrait/BW1.jpg""style=""width:400px;height:400px;""></img>",2,html-button-response,206,1055953,0.0-14.0-10.0,8074,List1A,black,woman,,TRUE,0,,,,,
2479,"<img src=""portrait/BW1.jpg""style=""width:400px;height:400px;""></img>",0,html-button-response,207,1059441,0.0-14.0-12.0-0.0,8074,List1A,black,woman,,FALSE,0,,,,,
null,CORRECT,,html-keyboard-response,208,1060946,0.0-14.0-12.0-1.0-0.0,8074,List1A,black,woman,,,,null,,,,
2026,"<img src=""portrait/WM2.jpg""style=""width:400px;height:400px;""></img>",7,html-button-response,209,1062978,0.0-14.0-13.0,8074,List1A,black,woman,,TRUE,7,,,,,
null,CORRECT,,html-keyboard-response,210,1064483,0.0-14.0-14.0-0.0,8074,List1A,black,woman,,,,null,,,,
2023,"<img src=""portrait/WW2.jpg""style=""width:400px;height:400px;""></img>",3,html-button-response,211,1066515,0.0-14.0-16.0,8074,List1A,black,woman,,TRUE,3,,,,,
null,CORRECT,,html-keyboard-response,212,1068021,0.0-14.0-17.0-0.0,8074,List1A,black,woman,,,,null,,,,
1578,"<img src=""portrait/BW2.jpg""style=""width:400px;height:400px;""></img>",2,html-button-response,213,1069605,0.0-14.0-19.0,8074,List1A,black,woman,,TRUE,2,,,,,
null,CORRECT,,html-keyboard-response,214,1071110,0.0-14.0-20.0-0.0,8074,List1A,black,woman,,,,null,,,,
4309,"<img src=""portrait/BM1.jpg""style=""width:400px;height:400px;""></img>",4,html-button-response,215,1075424,0.0-14.0-22.0,8074,List1A,black,woman,,TRUE,4,,,,,
null,CORRECT,,html-keyboard-response,216,1076930,0.0-14.0-23.0-0.0,8074,List1A,black,woman,,,,null,,,,
2185,<p>You got 7 out of 8 right first time. Press Continue.</p>,0,html-button-response,217,1079119,0.0-14.0-25.0,8074,List1A,black,woman,,,,,,,,
5591,"As you did not score 100%, the memory game will repeat. Press Continue.",0,html-button-response,218,1085714,0.0-14.0-26.0-0.0,8074,List1A,black,woman,,,,,,,,
18452,"<img src='img/portrait_matrix_list1.JPG' style='width:900px;height:500px;''></img><p>If you have memorised all the portraits and names and are ready to start, press Continue.</p><p><strong>Please note: Your memory of these faces will be tested 4 times during this experiment.</strong></p>",0,html-button-response,219,1105174,0.0-14.1-0.1,8074,List1A,black,woman,,,,,,,,
4591,"<img src=""portrait/WM1.jpg""style=""width:400px;height:400px;""></img>",6,html-button-response,220,1110773,0.0-14.1-1.1,8074,List1A,black,woman,,TRUE,6,,,,,
null,CORRECT,,html-keyboard-response,221,1112280,0.0-14.1-2.1-0.1,8074,List1A,black,woman,,,,null,,,,
3914,"<img src=""portrait/WW1.jpg""style=""width:400px;height:400px;""></img>",1,html-button-response,222,1116202,0.0-14.1-4.1,8074,List1A,black,woman,,TRUE,1,,,,,
null,CORRECT,,html-keyboard-response,223,1117710,0.0-14.1-5.1-0.1,8074,List1A,black,woman,,,,null,,,,
3198,"<img src=""portrait/BM2.jpg""style=""width:400px;height:400px;""></img>",5,html-button-response,224,1120913,0.0-14.1-7.1,8074,List1A,black,woman,,TRUE,5,,,,,
null,CORRECT,,html-keyboard-response,225,1122418,0.0-14.1-8.1-0.1,8074,List1A,black,woman,,,,null,,,,
3023,"<img src=""portrait/BW1.jpg""style=""width:400px;height:400px;""></img>",0,html-button-response,226,1125445,0.0-14.1-10.1,8074,List1A,black,woman,,TRUE,0,,,,,
null,CORRECT,,html-keyboard-response,227,1126952,0.0-14.1-11.1-0.1,8074,List1A,black,woman,,,,null,,,,
2543,"<img src=""portrait/WM2.jpg""style=""width:400px;height:400px;""></img>",7,html-button-response,228,1129501,0.0-14.1-13.1,8074,List1A,black,woman,,TRUE,7,,,,,
null,CORRECT,,html-keyboard-response,229,1131006,0.0-14.1-14.1-0.1,8074,List1A,black,woman,,,,null,,,,
2124,"<img src=""portrait/WW2.jpg""style=""width:400px;height:400px;""></img>",3,html-button-response,230,1133138,0.0-14.1-16.1,8074,List1A,black,woman,,TRUE,3,,,,,
null,CORRECT,,html-keyboard-response,231,1134643,0.0-14.1-17.1-0.1,8074,List1A,black,woman,,,,null,,,,
1834,"<img src=""portrait/BW2.jpg""style=""width:400px;height:400px;""></img>",2,html-button-response,232,1136487,0.0-14.1-19.1,8074,List1A,black,woman,,TRUE,2,,,,,
null,CORRECT,,html-keyboard-response,233,1137995,0.0-14.1-20.1-0.1,8074,List1A,black,woman,,,,null,,,,
2878,"<img src=""portrait/BM1.jpg""style=""width:400px;height:400px;""></img>",4,html-button-response,234,1140879,0.0-14.1-22.1,8074,List1A,black,woman,,TRUE,4,,,,,
null,CORRECT,,html-keyboard-response,235,1142386,0.0-14.1-23.1-0.1,8074,List1A,black,woman,,,,null,,,,
7560,<p>You got 8 out of 8 right first time. Press Continue.</p>,0,html-button-response,236,1149954,0.0-14.1-25.1,8074,List1A,black,woman,,,,,,,,
null,"<div style=""font-size:60px;"">+</div>",,html-keyboard-response,237,1151459,0.0-15.0-0.0,8074,List1A,black,woman,,,,null,,,,
null,"<img src=""stim_listA/talk6.gif""</stim_listA>",,html-keyboard-response,238,1153465,0.0-15.0-1.0,8074,List1A,black,woman,,,,null,,,,
null,are talking to each other,,html-keyboard-response,239,1155468,0.0-15.0-2.0,8074,List1A,black,woman,,,,null,,,,
16092,,,survey-text,240,1171567,0.0-15.0-3.0,8074,List1A,black,woman,,,,,"{""Q0"":""mike and dave""}","<img src=""stim_listA/talk6.gif""</stim_listA>",are talking to each other,
null,"<div style=""font-size:60px;"">+</div>",,html-keyboard-response,241,1172074,0.0-15.0-0.1,8074,List1A,black,woman,,,,null,,,,
null,"<img src=""stim_listA/meet3.gif""</stim_listA>",,html-keyboard-response,242,1174083,0.0-15.0-1.1,8074,List1A,black,woman,,,,null,,,,
null,is meeting,,html-keyboard-response,243,1176087,0.0-15.0-2.1,8074,List1A,black,woman,,,,null,,,,
8106,,,survey-text,244,1184197,0.0-15.0-3.1,8074,List1A,black,woman,,,,,"{""Q0"":""luke and jane""}","<img src=""stim_listA/meet3.gif""</stim_listA>",is meeting,
null,"<div style=""font-size:60px;"">+</div>",,html-keyboard-response,245,1184704,0.0-15.0-0.2,8074,List1A,black,woman,,,,null,,,,
null,"<img src=""stim_listA/fight6.gif""</stim_listA>",,html-keyboard-response,246,1186710,0.0-15.0-1.2,8074,List1A,black,woman,,,,null,,,,
null,are fighting each other,,html-keyboard-response,247,1188711,0.0-15.0-2.2,8074,List1A,black,woman,,,,null,,,,
17952,,,survey-text,248,1206666,0.0-15.0-3.2,8074,List1A,black,woman,,,,,"{""Q0"":""fred and luke""}","<img src=""stim_listA/fight6.gif""</stim_listA>",are fighting each other,
null,"<div style=""font-size:60px;"">+</div>",,html-keyboard-response,249,1207171,0.0-15.0-0.3,8074,List1A,black,woman,,,,null,,,,
null,"<img src=""stim_listA/marry4.gif""</stim_listA>",,html-keyboard-response,250,1209177,0.0-15.0-1.3,8074,List1A,black,woman,,,,null,,,,
null,are marrying each other,,html-keyboard-response,251,1211180,0.0-15.0-2.3,8074,List1A,black,woman,,,,null,,,,
10690,,,survey-text,252,1221874,0.0-15.0-3.3,8074,List1A,black,woman,,,,,"{""Q0"":""luke and jane""}","<img src=""stim_listA/marry4.gif""</stim_listA>",are marrying each other,
null,"<div style=""font-size:60px;"">+</div>",,html-keyboard-response,253,1222379,0.0-15.0-0.4,8074,List1A,black,woman,,,,null,,,,
null,"<img src=""stim_listA/touch4.gif""</stim_listA>",,html-keyboard-response,254,1224386,0.0-15.0-1.4,8074,List1A,black,woman,,,,null,,,,
null,are touching each other,,html-keyboard-response,255,1226392,0.0-15.0-2.4,8074,List1A,black,woman,,,,null,,,,
10086,,,survey-text,256,1236483,0.0-15.0-3.4,8074,List1A,black,woman,,,,,"{""Q0"":""ruth and luke""}","<img src=""stim_listA/touch4.gif""</stim_listA>",are touching each other,
null,"<div style=""font-size:60px;"">+</div>",,html-keyboard-response,257,1236989,0.0-15.0-0.5,8074,List1A,black,woman,,,,null,,,,
null,"<img src=""stim_listA/shout2.gif""</stim_listA>",,html-keyboard-response,258,1238995,0.0-15.0-1.5,8074,List1A,black,woman,,,,null,,,,
null,are shouting at each other,,html-keyboard-response,259,1240998,0.0-15.0-2.5,8074,List1A,black,woman,,,,null,,,,
8077,,,survey-text,260,1249079,0.0-15.0-3.5,8074,List1A,black,woman,,,,,"{""Q0"":""kate and mike""}","<img src=""stim_listA/shout2.gif""</stim_listA>",are shouting at each other,
null,"<div style=""font-size:60px;"">+</div>",,html-keyboard-response,261,1249583,0.0-15.0-0.6,8074,List1A,black,woman,,,,null,,,,
null,"<img src=""stim_listA/shout3.gif""</stim_listA>",,html-keyboard-response,262,1251591,0.0-15.0-1.6,8074,List1A,black,woman,,,,null,,,,
null,is shouting at,,html-keyboard-response,263,1253594,0.0-15.0-2.6,8074,List1A,black,woman,,,,null,,,,
10038,,,survey-text,264,1263634,0.0-15.0-3.6,8074,List1A,black,woman,,,,,"{""Q0"":""ruth and luke""}","<img src=""stim_listA/shout3.gif""</stim_listA>",is shouting at,
null,"<div style=""font-size:60px;"">+</div>",,html-keyboard-response,265,1264137,0.0-15.0-0.7,8074,List1A,black,woman,,,,null,,,,
null,"<img src=""stim_listA/kiss1.gif""</stim_listA>",,html-keyboard-response,266,1266140,0.0-15.0-1.7,8074,List1A,black,woman,,,,null,,,,
null,is kissing,,html-keyboard-response,267,1268142,0.0-15.0-2.7,8074,List1A,black,woman,,,,null,,,,
9071,,,survey-text,268,1277216,0.0-15.0-3.7,8074,List1A,black,woman,,,,,"{""Q0"":""beth and mike""}","<img src=""stim_listA/kiss1.gif""</stim_listA>",is kissing,
null,"<div style=""font-size:60px;"">+</div>",,html-keyboard-response,269,1277721,0.0-15.0-0.8,8074,List1A,black,woman,,,,null,,,,
null,"<img src=""stim_listA/marry3.gif""</stim_listA>",,html-keyboard-response,270,1279730,0.0-15.0-1.8,8074,List1A,black,woman,,,,null,,,,
null,is marrying,,html-keyboard-response,271,1281734,0.0-15.0-2.8,8074,List1A,black,woman,,,,null,,,,
8740,,,survey-text,272,1290481,0.0-15.0-3.8,8074,List1A,black,woman,,,,,"{""Q0"":""ruth and dave""}","<img src=""stim_listA/marry3.gif""</stim_listA>",is marrying,
null,"<div style=""font-size:60px;"">+</div>",,html-keyboard-response,273,1290990,0.0-15.0-0.9,8074,List1A,black,woman,,,,null,,,,
null,"<img src=""stim_listA/kiss7.gif""</stim_listA>",,html-keyboard-response,274,1292995,0.0-15.0-1.9,8074,List1A,black,woman,,,,null,,,,
null,is kissing,,html-keyboard-response,275,1294998,0.0-15.0-2.9,8074,List1A,black,woman,,,,null,,,,
8658,,,survey-text,276,1303661,0.0-15.0-3.9,8074,List1A,black,woman,,,,,"{""Q0"":""ruth and beth""}","<img src=""stim_listA/kiss7.gif""</stim_listA>",is kissing,
null,"<div style=""font-size:60px;"">+</div>",,html-keyboard-response,277,1304164,0.0-15.0-0.10,8074,List1A,black,woman,,,,null,,,,
null,"<img src=""stim_listA/marry8.gif""</stim_listA>",,html-keyboard-response,278,1306169,0.0-15.0-1.10,8074,List1A,black,woman,,,,null,,,,
null,are marrying each other,,html-keyboard-response,279,1308173,0.0-15.0-2.10,8074,List1A,black,woman,,,,null,,,,
8745,,,survey-text,280,1316923,0.0-15.0-3.10,8074,List1A,black,woman,,,,,"{""Q0"":""jane and beth""}","<img src=""stim_listA/marry8.gif""</stim_listA>",are marrying each other,
null,"<div style=""font-size:60px;"">+</div>",,html-keyboard-response,281,1317427,0.0-15.0-0.11,8074,List1A,black,woman,,,,null,,,,
null,"<img src=""stim_listA/kiss5.gif""</stim_listA>",,html-keyboard-response,282,1319435,0.0-15.0-1.11,8074,List1A,black,woman,,,,null,,,,
null,is kissing,,html-keyboard-response,283,1321438,0.0-15.0-2.11,8074,List1A,black,woman,,,,null,,,,
11324,,,survey-text,284,1332768,0.0-15.0-3.11,8074,List1A,black,woman,,,,,"{""Q0"":""fred and luke""}","<img src=""stim_listA/kiss5.gif""</stim_listA>",is kissing,
null,"<div style=""font-size:60px;"">+</div>",,html-keyboard-response,285,1333272,0.0-15.0-0.12,8074,List1A,black,woman,,,,null,,,,
null,"<img src=""stim_listA/fight4.gif""</stim_listA>",,html-keyboard-response,286,1335281,0.0-15.0-1.12,8074,List1A,black,woman,,,,null,,,,
null,are fighting each other,,html-keyboard-response,287,1337285,0.0-15.0-2.12,8074,List1A,black,woman,,,,null,,,,
11105,,,survey-text,288,1348392,0.0-15.0-3.12,8074,List1A,black,woman,,,,,"{""Q0"":""ruth and luke""}","<img src=""stim_listA/fight4.gif""</stim_listA>",are fighting each other,
null,"<div style=""font-size:60px;"">+</div>",,html-keyboard-response,289,1348900,0.0-15.0-0.13,8074,List1A,black,woman,,,,null,,,,
null,"<img src=""stim_listA/shout6.gif""</stim_listA>",,html-keyboard-response,290,1350906,0.0-15.0-1.13,8074,List1A,black,woman,,,,null,,,,
null,are shouting at each other,,html-keyboard-response,291,1352908,0.0-15.0-2.13,8074,List1A,black,woman,,,,null,,,,
8674,,,survey-text,292,1361584,0.0-15.0-3.13,8074,List1A,black,woman,,,,,"{""Q0"":""dave and mike""}","<img src=""stim_listA/shout6.gif""</stim_listA>",are shouting at each other,
null,"<div style=""font-size:60px;"">+</div>",,html-keyboard-response,293,1362089,0.0-15.0-0.14,8074,List1A,black,woman,,,,null,,,,
null,"<img src=""stim_listA/touch2.gif""</stim_listA>",,html-keyboard-response,294,1364100,0.0-15.0-1.14,8074,List1A,black,woman,,,,null,,,,
null,are touching each other,,html-keyboard-response,295,1366102,0.0-15.0-2.14,8074,List1A,black,woman,,,,null,,,,
32333,,,survey-text,296,1398438,0.0-15.0-3.14,8074,List1A,black,woman,,,,,"{""Q0"":""ruth and dave""}","<img src=""stim_listA/touch2.gif""</stim_listA>",are touching each other,
null,"<div style=""font-size:60px;"">+</div>",,html-keyboard-response,297,1398943,0.0-15.0-0.15,8074,List1A,black,woman,,,,null,,,,
null,"<img src=""stim_listA/dance5.gif""</stim_listA>",,html-keyboard-response,298,1400948,0.0-15.0-1.15,8074,List1A,black,woman,,,,null,,,,
null,is dancing with,,html-keyboard-response,299,1402951,0.0-15.0-2.15,8074,List1A,black,woman,,,,null,,,,
19616,,,survey-text,300,1422572,0.0-15.0-3.15,8074,List1A,black,woman,,,,,"{""Q0"":""ruth and dave""}","<img src=""stim_listA/dance5.gif""</stim_listA>",is dancing with,
null,"<div style=""font-size:60px;"">+</div>",,html-keyboard-response,301,1423076,0.0-15.0-0.16,8074,List1A,black,woman,,,,null,,,,
null,"<img src=""stim_listA/meet5.gif""</stim_listA>",,html-keyboard-response,302,1425080,0.0-15.0-1.16,8074,List1A,black,woman,,,,null,,,,
null,is meeting,,html-keyboard-response,303,1427083,0.0-15.0-2.16,8074,List1A,black,woman,,,,null,,,,
12283,,,survey-text,304,1439370,0.0-15.0-3.16,8074,List1A,black,woman,,,,,"{""Q0"":""mike and luke""}","<img src=""stim_listA/meet5.gif""</stim_listA>",is meeting,
null,"<div style=""font-size:60px;"">+</div>",,html-keyboard-response,305,1439878,0.0-15.0-0.17,8074,List1A,black,woman,,,,null,,,,
null,"<img src=""stim_listA/touch7.gif""</stim_listA>",,html-keyboard-response,306,1441883,0.0-15.0-1.17,8074,List1A,black,woman,,,,null,,,,
null,is touching,,html-keyboard-response,307,1443885,0.0-15.0-2.17,8074,List1A,black,woman,,,,null,,,,
11214,,,survey-text,308,1455102,0.0-15.0-3.17,8074,List1A,black,woman,,,,,"{""Q0"":""jane and kate""}","<img src=""stim_listA/touch7.gif""</stim_listA>",is touching,
null,"<div style=""font-size:60px;"">+</div>",,html-keyboard-response,309,1455608,0.0-15.0-0.18,8074,List1A,black,woman,,,,null,,,,
null,"<img src=""stim_listA/talk4.gif""</stim_listA>",,html-keyboard-response,310,1457615,0.0-15.0-1.18,8074,List1A,black,woman,,,,null,,,,
null,are talking to each other,,html-keyboard-response,311,1459619,0.0-15.0-2.18,8074,List1A,black,woman,,,,null,,,,
27043,,,survey-text,312,1486667,0.0-15.0-3.18,8074,List1A,black,woman,,,,,"{""Q0"":""jane and kate""}","<img src=""stim_listA/talk4.gif""</stim_listA>",are talking to each other,
null,"<div style=""font-size:60px;"">+</div>",,html-keyboard-response,313,1487173,0.0-15.0-0.19,8074,List1A,black,woman,,,,null,,,,
null,"<img src=""stim_listA/argue7.gif""</stim_listA>",,html-keyboard-response,314,1489177,0.0-15.0-1.19,8074,List1A,black,woman,,,,null,,,,
null,is arguing with,,html-keyboard-response,315,1491181,0.0-15.0-2.19,8074,List1A,black,woman,,,,null,,,,
12321,,,survey-text,316,1503505,0.0-15.0-3.19,8074,List1A,black,woman,,,,,"{""Q0"":""ruth and kate""}","<img src=""stim_listA/argue7.gif""</stim_listA>",is arguing with,
24338,"<img src='img/portrait_matrix_list1.JPG' style='width:900px;height:500px;''></img><p>If you have memorised all the portraits and names and are ready to start, press Continue.</p><p><strong>Please note: Your memory of these faces will be tested 4 times during this experiment.</strong></p>",0,html-button-response,317,1527847,0.0-16.0-0.0,8074,List1A,black,woman,,,,,,,,
2511,"<img src=""portrait/WW2.jpg""style=""width:400px;height:400px;""></img>",3,html-button-response,318,1531365,0.0-16.0-1.0,8074,List1A,black,woman,,TRUE,3,,,,,
null,CORRECT,,html-keyboard-response,319,1532872,0.0-16.0-2.0-0.0,8074,List1A,black,woman,,,,null,,,,
3468,"<img src=""portrait/BW2.jpg""style=""width:400px;height:400px;""></img>",2,html-button-response,320,1536349,0.0-16.0-4.0,8074,List1A,black,woman,,TRUE,2,,,,,
null,CORRECT,,html-keyboard-response,321,1537853,0.0-16.0-5.0-0.0,8074,List1A,black,woman,,,,null,,,,
2067,"<img src=""portrait/BW1.jpg""style=""width:400px;height:400px;""></img>",0,html-button-response,322,1539924,0.0-16.0-7.0,8074,List1A,black,woman,,TRUE,0,,,,,
null,CORRECT,,html-keyboard-response,323,1541429,0.0-16.0-8.0-0.0,8074,List1A,black,woman,,,,null,,,,
3974,"<img src=""portrait/WM1.jpg""style=""width:400px;height:400px;""></img>",6,html-button-response,324,1545407,0.0-16.0-10.0,8074,List1A,black,woman,,TRUE,6,,,,,
null,CORRECT,,html-keyboard-response,325,1546911,0.0-16.0-11.0-0.0,8074,List1A,black,woman,,,,null,,,,
3104,"<img src=""portrait/WW1.jpg""style=""width:400px;height:400px;""></img>",1,html-button-response,326,1550019,0.0-16.0-13.0,8074,List1A,black,woman,,TRUE,1,,,,,
null,CORRECT,,html-keyboard-response,327,1551525,0.0-16.0-14.0-0.0,8074,List1A,black,woman,,,,null,,,,
3671,"<img src=""portrait/WM2.jpg""style=""width:400px;height:400px;""></img>",7,html-button-response,328,1555204,0.0-16.0-16.0,8074,List1A,black,woman,,TRUE,7,,,,,
null,CORRECT,,html-keyboard-response,329,1556711,0.0-16.0-17.0-0.0,8074,List1A,black,woman,,,,null,,,,
3582,"<img src=""portrait/BM2.jpg""style=""width:400px;height:400px;""></img>",5,html-button-response,330,1560314,0.0-16.0-19.0,8074,List1A,black,woman,,TRUE,5,,,,,
null,CORRECT,,html-keyboard-response,331,1561821,0.0-16.0-20.0-0.0,8074,List1A,black,woman,,,,null,,,,
2344,"<img src=""portrait/BM1.jpg""style=""width:400px;height:400px;""></img>",4,html-button-response,332,1564172,0.0-16.0-22.0,8074,List1A,black,woman,,TRUE,4,,,,,
null,CORRECT,,html-keyboard-response,333,1565679,0.0-16.0-23.0-0.0,8074,List1A,black,woman,,,,null,,,,
2334,<p>You got 8 out of 8 right first time. Press Continue.</p>,0,html-button-response,334,1568017,0.0-16.0-25.0,8074,List1A,black,woman,,,,,,,,
null,"<div style=""font-size:60px;"">+</div>",,html-keyboard-response,335,1569527,0.0-17.0-0.0,8074,List1A,black,woman,,,,null,,,,
null,"<img src=""stim_listA/touch1.gif""</stim_listA>",,html-keyboard-response,336,1571535,0.0-17.0-1.0,8074,List1A,black,woman,,,,null,,,,
null,is touching,,html-keyboard-response,337,1573538,0.0-17.0-2.0,8074,List1A,black,woman,,,,null,,,,
8815,,,survey-text,338,1582356,0.0-17.0-3.0,8074,List1A,black,woman,,,,,"{""Q0"":""mike and kate""}","<img src=""stim_listA/touch1.gif""</stim_listA>",is touching,
null,"<div style=""font-size:60px;"">+</div>",,html-keyboard-response,339,1582862,0.0-17.0-0.1,8074,List1A,black,woman,,,,null,,,,
null,"<img src=""stim_listA/kiss8.gif""</stim_listA>",,html-keyboard-response,340,1584868,0.0-17.0-1.1,8074,List1A,black,woman,,,,null,,,,
null,are kissing each other,,html-keyboard-response,341,1586871,0.0-17.0-2.1,8074,List1A,black,woman,,,,null,,,,
8947,,,survey-text,342,1595821,0.0-17.0-3.1,8074,List1A,black,woman,,,,,"{""Q0"":""jane and kate""}","<img src=""stim_listA/kiss8.gif""</stim_listA>",are kissing each other,
null,"<div style=""font-size:60px;"">+</div>",,html-keyboard-response,343,1596326,0.0-17.0-0.2,8074,List1A,black,woman,,,,null,,,,
null,"<img src=""stim_listA/shout4.gif""</stim_listA>",,html-keyboard-response,344,1598335,0.0-17.0-1.2,8074,List1A,black,woman,,,,null,,,,
null,are shouting at each other,,html-keyboard-response,345,1600337,0.0-17.0-2.2,8074,List1A,black,woman,,,,null,,,,
9882,,,survey-text,346,1610222,0.0-17.0-3.2,8074,List1A,black,woman,,,,,"{""Q0"":""jane and dave""}","<img src=""stim_listA/shout4.gif""</stim_listA>",are shouting at each other,
null,"<div style=""font-size:60px;"">+</div>",,html-keyboard-response,347,1610727,0.0-17.0-0.3,8074,List1A,black,woman,,,,null,,,,
null,"<img src=""stim_listA/talk7.gif""</stim_listA>",,html-keyboard-response,348,1612737,0.0-17.0-1.3,8074,List1A,black,woman,,,,null,,,,
null,is talking to,,html-keyboard-response,349,1614740,0.0-17.0-2.3,8074,List1A,black,woman,,,,null,,,,
7829,,,survey-text,350,1622572,0.0-17.0-3.3,8074,List1A,black,woman,,,,,"{""Q0"":""jane and beth""}","<img src=""stim_listA/talk7.gif""</stim_listA>",is talking to,
null,"<div style=""font-size:60px;"">+</div>",,html-keyboard-response,351,1623078,0.0-17.0-0.4,8074,List1A,black,woman,,,,null,,,,
null,"<img src=""stim_listA/meet6.gif""</stim_listA>",,html-keyboard-response,352,1625086,0.0-17.0-1.4,8074,List1A,black,woman,,,,null,,,,
null,are meeting each other,,html-keyboard-response,353,1627102,0.0-17.0-2.4,8074,List1A,black,woman,,,,null,,,,
8521,,,survey-text,354,1635627,0.0-17.0-3.4,8074,List1A,black,woman,,,,,"{""Q0"":""luke and fred""}","<img src=""stim_listA/meet6.gif""</stim_listA>",are meeting each other,
null,"<div style=""font-size:60px;"">+</div>",,html-keyboard-response,355,1636131,0.0-17.0-0.5,8074,List1A,black,woman,,,,null,,,,
null,"<img src=""stim_listA/talk1.gif""</stim_listA>",,html-keyboard-response,356,1638135,0.0-17.0-1.5,8074,List1A,black,woman,,,,null,,,,
null,is talking to,,html-keyboard-response,357,1640137,0.0-17.0-2.5,8074,List1A,black,woman,,,,null,,,,
11251,,,survey-text,358,1651391,0.0-17.0-3.5,8074,List1A,black,woman,,,,,"{""Q0"":""kate and fred""}","<img src=""stim_listA/talk1.gif""</stim_listA>",is talking to,
null,"<div style=""font-size:60px;"">+</div>",,html-keyboard-response,359,1651895,0.0-17.0-0.6,8074,List1A,black,woman,,,,null,,,,
null,"<img src=""stim_listA/hug2.gif""</stim_listA>",,html-keyboard-response,360,1653900,0.0-17.0-1.6,8074,List1A,black,woman,,,,null,,,,
null,are hugging each other,,html-keyboard-response,361,1655903,0.0-17.0-2.6,8074,List1A,black,woman,,,,null,,,,
9278,,,survey-text,362,1665183,0.0-17.0-3.6,8074,List1A,black,woman,,,,,"{""Q0"":""mike and kate""}","<img src=""stim_listA/hug2.gif""</stim_listA>",are hugging each other,
null,"<div style=""font-size:60px;"">+</div>",,html-keyboard-response,363,1665686,0.0-17.0-0.7,8074,List1A,black,woman,,,,null,,,,
null,"<img src=""stim_listA/argue6.gif""</stim_listA>",,html-keyboard-response,364,1667695,0.0-17.0-1.7,8074,List1A,black,woman,,,,null,,,,
null,are arguing with each other,,html-keyboard-response,365,1669700,0.0-17.0-2.7,8074,List1A,black,woman,,,,null,,,,
11781,,,survey-text,366,1681485,0.0-17.0-3.7,8074,List1A,black,woman,,,,,"{""Q0"":""fred and dave""}","<img src=""stim_listA/argue6.gif""</stim_listA>",are arguing with each other,
null,"<div style=""font-size:60px;"">+</div>",,html-keyboard-response,367,1681990,0.0-17.0-0.8,8074,List1A,black,woman,,,,null,,,,
null,"<img src=""stim_listA/hug4.gif""</stim_listA>",,html-keyboard-response,368,1683999,0.0-17.0-1.8,8074,List1A,black,woman,,,,null,,,,
null,are hugging each other,,html-keyboard-response,369,1686001,0.0-17.0-2.8,8074,List1A,black,woman,,,,null,,,,
7717,,,survey-text,370,1693721,0.0-17.0-3.8,8074,List1A,black,woman,,,,,"{""Q0"":""jane and dave""}","<img src=""stim_listA/hug4.gif""</stim_listA>",are hugging each other,
null,"<div style=""font-size:60px;"">+</div>",,html-keyboard-response,371,1694226,0.0-17.0-0.9,8074,List1A,black,woman,,,,null,,,,
null,"<img src=""stim_listA/argue8.gif""</stim_listA>",,html-keyboard-response,372,1696230,0.0-17.0-1.9,8074,List1A,black,woman,,,,null,,,,
null,are arguing with each other,,html-keyboard-response,373,1698233,0.0-17.0-2.9,8074,List1A,black,woman,,,,null,,,,
8552,,,survey-text,374,1706789,0.0-17.0-3.9,8074,List1A,black,woman,,,,,"{""Q0"":""jane and beth""}","<img src=""stim_listA/argue8.gif""</stim_listA>",are arguing with each other,
null,"<div style=""font-size:60px;"">+</div>",,html-keyboard-response,375,1707296,0.0-17.0-0.10,8074,List1A,black,woman,,,,null,,,,
null,"<img src=""stim_listA/marry2.gif""</stim_listA>",,html-keyboard-response,376,1709304,0.0-17.0-1.10,8074,List1A,black,woman,,,,null,,,,
null,are marrying each other,,html-keyboard-response,377,1711307,0.0-17.0-2.10,8074,List1A,black,woman,,,,null,,,,
8684,,,survey-text,378,1719995,0.0-17.0-3.10,8074,List1A,black,woman,,,,,"{""Q0"":""kate and fred""}","<img src=""stim_listA/marry2.gif""</stim_listA>",are marrying each other,
null,"<div style=""font-size:60px;"">+</div>",,html-keyboard-response,379,1720500,0.0-17.0-0.11,8074,List1A,black,woman,,,,null,,,,
null,"<img src=""stim_listA/touch8.gif""</stim_listA>",,html-keyboard-response,380,1722508,0.0-17.0-1.11,8074,List1A,black,woman,,,,null,,,,
null,are touching each other,,html-keyboard-response,381,1724510,0.0-17.0-2.11,8074,List1A,black,woman,,,,null,,,,
8439,,,survey-text,382,1732952,0.0-17.0-3.11,8074,List1A,black,woman,,,,,"{""Q0"":""ruth and beth""}","<img src=""stim_listA/touch8.gif""</stim_listA>",are touching each other,
null,"<div style=""font-size:60px;"">+</div>",,html-keyboard-response,383,1733459,0.0-17.0-0.12,8074,List1A,black,woman,,,,null,,,,
null,"<img src=""stim_listA/fight8.gif""</stim_listA>",,html-keyboard-response,384,1735466,0.0-17.0-1.12,8074,List1A,black,woman,,,,null,,,,
null,are fighting each other,,html-keyboard-response,385,1737469,0.0-17.0-2.12,8074,List1A,black,woman,,,,null,,,,
11628,,,survey-text,386,1749101,0.0-17.0-3.12,8074,List1A,black,woman,,,,,"{""Q0"":""ruth and beth""}","<img src=""stim_listA/fight8.gif""</stim_listA>",are fighting each other,
null,"<div style=""font-size:60px;"">+</div>",,html-keyboard-response,387,1749606,0.0-17.0-0.13,8074,List1A,black,woman,,,,null,,,,
null,"<img src=""stim_listA/shout8.gif""</stim_listA>",,html-keyboard-response,388,1751612,0.0-17.0-1.13,8074,List1A,black,woman,,,,null,,,,
null,are shouting at each other,,html-keyboard-response,389,1753614,0.0-17.0-2.13,8074,List1A,black,woman,,,,null,,,,
11659,,,survey-text,390,1765277,0.0-17.0-3.13,8074,List1A,black,woman,,,,,"{""Q0"":""jane and kate""}","<img src=""stim_listA/shout8.gif""</stim_listA>",are shouting at each other,
null,"<div style=""font-size:60px;"">+</div>",,html-keyboard-response,391,1765780,0.0-17.0-0.14,8074,List1A,black,woman,,,,null,,,,
null,"<img src=""stim_listA/marry7.gif""</stim_listA>",,html-keyboard-response,392,1767785,0.0-17.0-1.14,8074,List1A,black,woman,,,,null,,,,
null,is marrying,,html-keyboard-response,393,1769790,0.0-17.0-2.14,8074,List1A,black,woman,,,,null,,,,
9662,,,survey-text,394,1779455,0.0-17.0-3.14,8074,List1A,black,woman,,,,,"{""Q0"":""ruth and kate""}","<img src=""stim_listA/marry7.gif""</stim_listA>",is marrying,
null,"<div style=""font-size:60px;"">+</div>",,html-keyboard-response,395,1779959,0.0-17.0-0.15,8074,List1A,black,woman,,,,null,,,,
null,"<img src=""stim_listA/hug3.gif""</stim_listA>",,html-keyboard-response,396,1781963,0.0-17.0-1.15,8074,List1A,black,woman,,,,null,,,,
null,is hugging,,html-keyboard-response,397,1783967,0.0-17.0-2.15,8074,List1A,black,woman,,,,null,,,,
10586,,,survey-text,398,1794557,0.0-17.0-3.15,8074,List1A,black,woman,,,,,"{""Q0"":""ruth and luke""}","<img src=""stim_listA/hug3.gif""</stim_listA>",is hugging,
null,"<div style=""font-size:60px;"">+</div>",,html-keyboard-response,399,1795062,0.0-17.0-0.16,8074,List1A,black,woman,,,,null,,,,
null,"<img src=""stim_listA/hug5.gif""</stim_listA>",,html-keyboard-response,400,1797066,0.0-17.0-1.16,8074,List1A,black,woman,,,,null,,,,
null,is hugging,,html-keyboard-response,401,1799069,0.0-17.0-2.16,8074,List1A,black,woman,,,,null,,,,
13876,,,survey-text,402,1812949,0.0-17.0-3.16,8074,List1A,black,woman,,,,,"{""Q0"":""fred and luke""}","<img src=""stim_listA/hug5.gif""</stim_listA>",is hugging,
null,"<div style=""font-size:60px;"">+</div>",,html-keyboard-response,403,1813453,0.0-17.0-0.17,8074,List1A,black,woman,,,,null,,,,
null,"<img src=""stim_listA/kiss4.gif""</stim_listA>",,html-keyboard-response,404,1815465,0.0-17.0-1.17,8074,List1A,black,woman,,,,null,,,,
null,are kissing each other,,html-keyboard-response,405,1817469,0.0-17.0-2.17,8074,List1A,black,woman,,,,null,,,,
11253,,,survey-text,406,1828728,0.0-17.0-3.17,8074,List1A,black,woman,,,,,"{""Q0"":""jane and dave""}","<img src=""stim_listA/kiss4.gif""</stim_listA>",are kissing each other,
null,"<div style=""font-size:60px;"">+</div>",,html-keyboard-response,407,1829232,0.0-17.0-0.18,8074,List1A,black,woman,,,,null,,,,
null,"<img src=""stim_listA/hug7.gif""</stim_listA>",,html-keyboard-response,408,1831239,0.0-17.0-1.18,8074,List1A,black,woman,,,,null,,,,
null,is hugging,,html-keyboard-response,409,1833243,0.0-17.0-2.18,8074,List1A,black,woman,,,,null,,,,
12810,,,survey-text,410,1846059,0.0-17.0-3.18,8074,List1A,black,woman,,,,,"{""Q0"":""ruth and beth""}","<img src=""stim_listA/hug7.gif""</stim_listA>",is hugging,
null,"<div style=""font-size:60px;"">+</div>",,html-keyboard-response,411,1846564,0.0-17.0-0.19,8074,List1A,black,woman,,,,null,,,,
null,"<img src=""stim_listA/marry1.gif""</stim_listA>",,html-keyboard-response,412,1848570,0.0-17.0-1.19,8074,List1A,black,woman,,,,null,,,,
null,is marrying,,html-keyboard-response,413,1850573,0.0-17.0-2.19,8074,List1A,black,woman,,,,null,,,,
8808,,,survey-text,414,1859383,0.0-17.0-3.19,8074,List1A,black,woman,,,,,"{""Q0"":""mike and beth""}","<img src=""stim_listA/marry1.gif""</stim_listA>",is marrying,
9743,"<img src='img/portrait_matrix_list1.JPG' style='width:900px;height:500px;''></img><p>If you have memorised all the portraits and names and are ready to start, press Continue.</p><p><strong>Please note: Your memory of these faces will be tested 4 times during this experiment.</strong></p>",0,html-button-response,415,1869130,0.0-18.0-0.0,8074,List1A,black,woman,,,,,,,,
2633,"<img src=""portrait/BM1.jpg""style=""width:400px;height:400px;""></img>",4,html-button-response,416,1872770,0.0-18.0-1.0,8074,List1A,black,woman,,TRUE,4,,,,,
null,CORRECT,,html-keyboard-response,417,1874277,0.0-18.0-2.0-0.0,8074,List1A,black,woman,,,,null,,,,
1812,"<img src=""portrait/WW2.jpg""style=""width:400px;height:400px;""></img>",3,html-button-response,418,1876098,0.0-18.0-4.0,8074,List1A,black,woman,,TRUE,3,,,,,
null,CORRECT,,html-keyboard-response,419,1877603,0.0-18.0-5.0-0.0,8074,List1A,black,woman,,,,null,,,,
2865,"<img src=""portrait/BW2.jpg""style=""width:400px;height:400px;""></img>",2,html-button-response,420,1880476,0.0-18.0-7.0,8074,List1A,black,woman,,TRUE,2,,,,,
null,CORRECT,,html-keyboard-response,421,1881981,0.0-18.0-8.0-0.0,8074,List1A,black,woman,,,,null,,,,
1827,"<img src=""portrait/BW1.jpg""style=""width:400px;height:400px;""></img>",0,html-button-response,422,1883812,0.0-18.0-10.0,8074,List1A,black,woman,,TRUE,0,,,,,
null,CORRECT,,html-keyboard-response,423,1885318,0.0-18.0-11.0-0.0,8074,List1A,black,woman,,,,null,,,,
3024,"<img src=""portrait/WM1.jpg""style=""width:400px;height:400px;""></img>",6,html-button-response,424,1888348,0.0-18.0-13.0,8074,List1A,black,woman,,TRUE,6,,,,,
null,CORRECT,,html-keyboard-response,425,1889854,0.0-18.0-14.0-0.0,8074,List1A,black,woman,,,,null,,,,
2300,"<img src=""portrait/WW1.jpg""style=""width:400px;height:400px;""></img>",1,html-button-response,426,1892164,0.0-18.0-16.0,8074,List1A,black,woman,,TRUE,1,,,,,
null,CORRECT,,html-keyboard-response,427,1893673,0.0-18.0-17.0-0.0,8074,List1A,black,woman,,,,null,,,,
1926,"<img src=""portrait/WM2.jpg""style=""width:400px;height:400px;""></img>",7,html-button-response,428,1895604,0.0-18.0-19.0,8074,List1A,black,woman,,TRUE,7,,,,,
null,CORRECT,,html-keyboard-response,429,1897109,0.0-18.0-20.0-0.0,8074,List1A,black,woman,,,,null,,,,
3653,"<img src=""portrait/BM2.jpg""style=""width:400px;height:400px;""></img>",5,html-button-response,430,1900768,0.0-18.0-22.0,8074,List1A,black,woman,,TRUE,5,,,,,
null,CORRECT,,html-keyboard-response,431,1902273,0.0-18.0-23.0-0.0,8074,List1A,black,woman,,,,null,,,,
1583,<p>You got 8 out of 8 right first time. Press Continue.</p>,0,html-button-response,432,1903866,0.0-18.0-25.0,8074,List1A,black,woman,,,,,,,,
null,"<div style=""font-size:60px;"">+</div>",,html-keyboard-response,433,1905375,0.0-19.0-0.0,8074,List1A,black,woman,,,,null,,,,
null,"<img src=""stim_listA/touch5.gif""</stim_listA>",,html-keyboard-response,434,1907380,0.0-19.0-1.0,8074,List1A,black,woman,,,,null,,,,
null,is touching,,html-keyboard-response,435,1909385,0.0-19.0-2.0,8074,List1A,black,woman,,,,null,,,,
15192,,,survey-text,436,1924580,0.0-19.0-3.0,8074,List1A,black,woman,,,,,"{""Q0"":""mike and dave""}","<img src=""stim_listA/touch5.gif""</stim_listA>",is touching,
null,"<div style=""font-size:60px;"">+</div>",,html-keyboard-response,437,1925084,0.0-19.0-0.1,8074,List1A,black,woman,,,,null,,,,
null,"<img src=""stim_listA/dance2.gif""</stim_listA>",,html-keyboard-response,438,1927089,0.0-19.0-1.1,8074,List1A,black,woman,,,,null,,,,
null,are dancing with each other,,html-keyboard-response,439,1929092,0.0-19.0-2.1,8074,List1A,black,woman,,,,null,,,,
9046,,,survey-text,440,1938142,0.0-19.0-3.1,8074,List1A,black,woman,,,,,"{""Q0"":""mike and beth""}","<img src=""stim_listA/dance2.gif""</stim_listA>",are dancing with each other,
null,"<div style=""font-size:60px;"">+</div>",,html-keyboard-response,441,1938646,0.0-19.0-0.2,8074,List1A,black,woman,,,,null,,,,
null,"<img src=""stim_listA/dance7.gif""</stim_listA>",,html-keyboard-response,442,1940651,0.0-19.0-1.2,8074,List1A,black,woman,,,,null,,,,
null,is dancing with,,html-keyboard-response,443,1942654,0.0-19.0-2.2,8074,List1A,black,woman,,,,null,,,,
8447,,,survey-text,444,1951104,0.0-19.0-3.2,8074,List1A,black,woman,,,,,"{""Q0"":""jane and beth""}","<img src=""stim_listA/dance7.gif""</stim_listA>",is dancing with,
null,"<div style=""font-size:60px;"">+</div>",,html-keyboard-response,445,1951608,0.0-19.0-0.3,8074,List1A,black,woman,,,,null,,,,
null,"<img src=""stim_listA/shout1.gif""</stim_listA>",,html-keyboard-response,446,1953611,0.0-19.0-1.3,8074,List1A,black,woman,,,,null,,,,
null,is shouting at,,html-keyboard-response,447,1955614,0.0-19.0-2.3,8074,List1A,black,woman,,,,null,,,,
9709,,,survey-text,448,1965325,0.0-19.0-3.3,8074,List1A,black,woman,,,,,"{""Q0"":""fred and beth""}","<img src=""stim_listA/shout1.gif""</stim_listA>",is shouting at,
null,"<div style=""font-size:60px;"">+</div>",,html-keyboard-response,449,1965828,0.0-19.0-0.4,8074,List1A,black,woman,,,,null,,,,
null,"<img src=""stim_listA/touch6.gif""</stim_listA>",,html-keyboard-response,450,1967832,0.0-19.0-1.4,8074,List1A,black,woman,,,,null,,,,
null,are touching each other,,html-keyboard-response,451,1969837,0.0-19.0-2.4,8074,List1A,black,woman,,,,null,,,,
8768,,,survey-text,452,1978609,0.0-19.0-3.4,8074,List1A,black,woman,,,,,"{""Q0"":""luke and fred""}","<img src=""stim_listA/touch6.gif""</stim_listA>",are touching each other,
null,"<div style=""font-size:60px;"">+</div>",,html-keyboard-response,453,1979114,0.0-19.0-0.5,8074,List1A,black,woman,,,,null,,,,
null,"<img src=""stim_listA/argue5.gif""</stim_listA>",,html-keyboard-response,454,1981119,0.0-19.0-1.5,8074,List1A,black,woman,,,,null,,,,
null,is arguing with,,html-keyboard-response,455,1983121,0.0-19.0-2.5,8074,List1A,black,woman,,,,null,,,,
9695,,,survey-text,456,1992818,0.0-19.0-3.5,8074,List1A,black,woman,,,,,"{""Q0"":""mike and luke""}","<img src=""stim_listA/argue5.gif""</stim_listA>",is arguing with,
null,"<div style=""font-size:60px;"">+</div>",,html-keyboard-response,457,1993322,0.0-19.0-0.6,8074,List1A,black,woman,,,,null,,,,
null,"<img src=""stim_listA/dance3.gif""</stim_listA>",,html-keyboard-response,458,1995327,0.0-19.0-1.6,8074,List1A,black,woman,,,,null,,,,
null,is dancing with,,html-keyboard-response,459,1997332,0.0-19.0-2.6,8074,List1A,black,woman,,,,null,,,,
8497,,,survey-text,460,2005833,0.0-19.0-3.6,8074,List1A,black,woman,,,,,"{""Q0"":""jane and luke""}","<img src=""stim_listA/dance3.gif""</stim_listA>",is dancing with,
null,"<div style=""font-size:60px;"">+</div>",,html-keyboard-response,461,2006337,0.0-19.0-0.7,8074,List1A,black,woman,,,,null,,,,
null,"<img src=""stim_listA/shout7.gif""</stim_listA>",,html-keyboard-response,462,2008342,0.0-19.0-1.7,8074,List1A,black,woman,,,,null,,,,
null,is shouting at,,html-keyboard-response,463,2010346,0.0-19.0-2.7,8074,List1A,black,woman,,,,null,,,,
19363,,,survey-text,464,2029712,0.0-19.0-3.7,8074,List1A,black,woman,,,,,"{""Q0"":""ruth is shouting at beth""}","<img src=""stim_listA/shout7.gif""</stim_listA>",is shouting at,
null,"<div style=""font-size:60px;"">+</div>",,html-keyboard-response,465,2030216,0.0-19.0-0.8,8074,List1A,black,woman,,,,null,,,,
null,"<img src=""stim_listA/meet1.gif""</stim_listA>",,html-keyboard-response,466,2032221,0.0-19.0-1.8,8074,List1A,black,woman,,,,null,,,,
null,is meeting,,html-keyboard-response,467,2034226,0.0-19.0-2.8,8074,List1A,black,woman,,,,null,,,,
11869,,,survey-text,468,2046099,0.0-19.0-3.8,8074,List1A,black,woman,,,,,"{""Q0"":""mike and kate""}","<img src=""stim_listA/meet1.gif""</stim_listA>",is meeting,
null,"<div style=""font-size:60px;"">+</div>",,html-keyboard-response,469,2046603,0.0-19.0-0.9,8074,List1A,black,woman,,,,null,,,,
null,"<img src=""stim_listA/talk3.gif""</stim_listA>",,html-keyboard-response,470,2048608,0.0-19.0-1.9,8074,List1A,black,woman,,,,null,,,,
null,is talking to,,html-keyboard-response,471,2050611,0.0-19.0-2.9,8074,List1A,black,woman,,,,null,,,,
10572,,,survey-text,472,2061189,0.0-19.0-3.9,8074,List1A,black,woman,,,,,"{""Q0"":""jane and luke""}","<img src=""stim_listA/talk3.gif""</stim_listA>",is talking to,
null,"<div style=""font-size:60px;"">+</div>",,html-keyboard-response,473,2061694,0.0-19.0-0.10,8074,List1A,black,woman,,,,null,,,,
null,"<img src=""stim_listA/argue2.gif""</stim_listA>",,html-keyboard-response,474,2063700,0.0-19.0-1.10,8074,List1A,black,woman,,,,null,,,,
null,are arguing with each other,,html-keyboard-response,475,2065702,0.0-19.0-2.10,8074,List1A,black,woman,,,,null,,,,
8752,,,survey-text,476,2074457,0.0-19.0-3.10,8074,List1A,black,woman,,,,,"{""Q0"":""fred and kate""}","<img src=""stim_listA/argue2.gif""</stim_listA>",are arguing with each other,
null,"<div style=""font-size:60px;"">+</div>",,html-keyboard-response,477,2074962,0.0-19.0-0.11,8074,List1A,black,woman,,,,null,,,,
null,"<img src=""stim_listA/hug8.gif""</stim_listA>",,html-keyboard-response,478,2076969,0.0-19.0-1.11,8074,List1A,black,woman,,,,null,,,,
null,are hugging each other,,html-keyboard-response,479,2078972,0.0-19.0-2.11,8074,List1A,black,woman,,,,null,,,,
8031,,,survey-text,480,2087006,0.0-19.0-3.11,8074,List1A,black,woman,,,,,"{""Q0"":""jane and kate""}","<img src=""stim_listA/hug8.gif""</stim_listA>",are hugging each other,
null,"<div style=""font-size:60px;"">+</div>",,html-keyboard-response,481,2087510,0.0-19.0-0.12,8074,List1A,black,woman,,,,null,,,,
null,"<img src=""stim_listA/dance8.gif""</stim_listA>",,html-keyboard-response,482,2089514,0.0-19.0-1.12,8074,List1A,black,woman,,,,null,,,,
null,are dancing with each other,,html-keyboard-response,483,2091517,0.0-19.0-2.12,8074,List1A,black,woman,,,,null,,,,
10991,,,survey-text,484,2102512,0.0-19.0-3.12,8074,List1A,black,woman,,,,,"{""Q0"":""ruth and kate""}","<img src=""stim_listA/dance8.gif""</stim_listA>",are dancing with each other,
null,"<div style=""font-size:60px;"">+</div>",,html-keyboard-response,485,2103019,0.0-19.0-0.13,8074,List1A,black,woman,,,,null,,,,
null,"<img src=""stim_listA/dance1.gif""</stim_listA>",,html-keyboard-response,486,2105030,0.0-19.0-1.13,8074,List1A,black,woman,,,,null,,,,
null,is dancing with,,html-keyboard-response,487,2107036,0.0-19.0-2.13,8074,List1A,black,woman,,,,null,,,,
11596,,,survey-text,488,2118638,0.0-19.0-3.13,8074,List1A,black,woman,,,,,"{""Q0"":""kate and fred""}","<img src=""stim_listA/dance1.gif""</stim_listA>",is dancing with,
null,"<div style=""font-size:60px;"">+</div>",,html-keyboard-response,489,2119143,0.0-19.0-0.14,8074,List1A,black,woman,,,,null,,,,
null,"<img src=""stim_listA/talk5.gif""</stim_listA>",,html-keyboard-response,490,2121151,0.0-19.0-1.14,8074,List1A,black,woman,,,,null,,,,
null,is talking to,,html-keyboard-response,491,2123155,0.0-19.0-2.14,8074,List1A,black,woman,,,,null,,,,
12671,,,survey-text,492,2135832,0.0-19.0-3.14,8074,List1A,black,woman,,,,,"{""Q0"":""fred and dave""}","<img src=""stim_listA/talk5.gif""</stim_listA>",is talking to,
null,"<div style=""font-size:60px;"">+</div>",,html-keyboard-response,493,2136338,0.0-19.0-0.15,8074,List1A,black,woman,,,,null,,,,
null,"<img src=""stim_listA/hug1.gif""</stim_listA>",,html-keyboard-response,494,2138349,0.0-19.0-1.15,8074,List1A,black,woman,,,,null,,,,
null,is hugging,,html-keyboard-response,495,2140353,0.0-19.0-2.15,8074,List1A,black,woman,,,,null,,,,
11830,,,survey-text,496,2152186,0.0-19.0-3.15,8074,List1A,black,woman,,,,,"{""Q0"":""beth and fred""}","<img src=""stim_listA/hug1.gif""</stim_listA>",is hugging,
null,"<div style=""font-size:60px;"">+</div>",,html-keyboard-response,497,2152690,0.0-19.0-0.16,8074,List1A,black,woman,,,,null,,,,
null,"<img src=""stim_listA/argue4.gif""</stim_listA>",,html-keyboard-response,498,2154700,0.0-19.0-1.16,8074,List1A,black,woman,,,,null,,,,
null,are arguing with each other,,html-keyboard-response,499,2156711,0.0-19.0-2.16,8074,List1A,black,woman,,,,null,,,,
9067,,,survey-text,500,2165782,0.0-19.0-3.16,8074,List1A,black,woman,,,,,"{""Q0"":""luke and jane""}","<img src=""stim_listA/argue4.gif""</stim_listA>",are arguing with each other,
null,"<div style=""font-size:60px;"">+</div>",,html-keyboard-response,501,2166287,0.0-19.0-0.17,8074,List1A,black,woman,,,,null,,,,
null,"<img src=""stim_listA/meet8.gif""</stim_listA>",,html-keyboard-response,502,2168295,0.0-19.0-1.17,8074,List1A,black,woman,,,,null,,,,
null,are meeting each other,,html-keyboard-response,503,2170297,0.0-19.0-2.17,8074,List1A,black,woman,,,,null,,,,
9075,,,survey-text,504,2179376,0.0-19.0-3.17,8074,List1A,black,woman,,,,,"{""Q0"":""ruth and beth""}","<img src=""stim_listA/meet8.gif""</stim_listA>",are meeting each other,
null,"<div style=""font-size:60px;"">+</div>",,html-keyboard-response,505,2179882,0.0-19.0-0.18,8074,List1A,black,woman,,,,null,,,,
null,"<img src=""stim_listA/fight3.gif""</stim_listA>",,html-keyboard-response,506,2181889,0.0-19.0-1.18,8074,List1A,black,woman,,,,null,,,,
null,is fighting,,html-keyboard-response,507,2183894,0.0-19.0-2.18,8074,List1A,black,woman,,,,null,,,,
16811,,,survey-text,508,2200708,0.0-19.0-3.18,8074,List1A,black,woman,,,,,"{""Q0"":""jane and dave""}","<img src=""stim_listA/fight3.gif""</stim_listA>",is fighting,
null,"<div style=""font-size:60px;"">+</div>",,html-keyboard-response,509,2201212,0.0-19.0-0.19,8074,List1A,black,woman,,,,null,,,,
null,"<img src=""stim_listA/fight2.gif""</stim_listA>",,html-keyboard-response,510,2203216,0.0-19.0-1.19,8074,List1A,black,woman,,,,null,,,,
null,are fighting each other,,html-keyboard-response,511,2205220,0.0-19.0-2.19,8074,List1A,black,woman,,,,null,,,,
8716,,,survey-text,512,2213938,0.0-19.0-3.19,8074,List1A,black,woman,,,,,"{""Q0"":""fred and beth""}","<img src=""stim_listA/fight2.gif""</stim_listA>",are fighting each other,
3416,<p>Thank you for completing that task.</p><p>The final part of this session is a short questionnaire.</p><p>Press Continue.</p>,0,html-button-response,513,2217358,0.0-20.0,8074,List1A,black,woman,,,,,,,,
41142,,,survey-text,514,2259517,0.0-21.0,8074,List1A,black,woman,,,,,"{""Q0"":""43"",""Q1"":""english"",""Q2"":""english"",""Q3"":""england"",""Q4"":""black"",""Q5"":""female""}",,,demographics
59272,,,survey-likert,515,2318815,0.0-22.0,8074,List1A,black,woman,,,,,"{""Q0"":5,""Q1"":6,""Q2"":6,""Q3"":6,""Q4"":6,""Q5"":6,""Q6"":4,""Q7"":6,""Q8"":6,""Q9"":6,""Q10"":5,""Q11"":5,""Q12"":5,""Q13"":5}",,,likert_race
36961,,,survey-likert,516,2355830,0.0-23.0,8074,List1A,black,woman,,,,,"{""Q0"":6,""Q1"":6,""Q2"":6,""Q3"":6,""Q4"":6,""Q5"":6,""Q6"":6,""Q7"":6,""Q8"":6,""Q9"":6,""Q10"":6,""Q11"":6,""Q12"":6,""Q13"":6}",,,likert_gender
11388,,,survey-text,517,2367255,0.0-24.0,8074,List1A,black,woman,,,,,"{""Q0"":""ccc""}",,,worker_id
6427,,,external-html,518,2373788,0.0-25.0,8074,List1A,black,woman,debrief.html,,,,,,,
