rt,stimulus,button_pressed,trial_type,trial_index,time_elapsed,internal_node_id,subject,list,ppt_race,ppt_gender,url,first_guess,correct,key_press,responses,image_type,phrase_type,test_part
2745,Welcome to the experiment. Press Continue to begin.,0,html-button-response,0,2762,0.0-0.0,80960,List2A,black,man,,,,,,,,
17592,,,external-html,1,21523,0.0-1.0,80960,List2A,black,man,consent.html,,,,,,,
8337,"<p>On the next page, you will see portraits of 8 people and their names.</p><p>Your first task is to take a few minutes to memorise the names of these people.</p><p>You will have to recall their names during the rest of the experiment, so it is</p><p>essential that you try to memorise these people and their names as best as you can.</p><br><p><strong>You will then be tested on your memory of these names and portraits.</strong></p><br><p>The experiment will start after you have completed this memory test.</p><br><p>Ready?</p>",0,html-button-response,2,29871,0.0-2.0,80960,List2A,black,man,,,,,,,,
63430,"<img src='img/portrait_matrix_list2.JPG' style='width:900px;height:500px;''></img><p>If you have memorised all the portraits and names and are ready to start, press Continue.</p><p><strong>Please note: Your memory of these faces will be tested 4 times during this experiment.</strong></p>",0,html-button-response,3,94316,0.0-3.0-0.0,80960,List2A,black,man,,,,,,,,
6738,"<img src=""portrait/BW2.jpg""style=""width:400px;height:400px;""></img>",2,html-button-response,4,102072,0.0-3.0-1.0,80960,List2A,black,man,,TRUE,2,,,,,
null,CORRECT,,html-keyboard-response,5,103600,0.0-3.0-2.0-0.0,80960,List2A,black,man,,,,null,,,,
3335,"<img src=""portrait/WM1.jpg""style=""width:400px;height:400px;""></img>",6,html-button-response,6,106951,0.0-3.0-4.0,80960,List2A,black,man,,TRUE,6,,,,,
null,CORRECT,,html-keyboard-response,7,108466,0.0-3.0-5.0-0.0,80960,List2A,black,man,,,,null,,,,
14330,"<img src=""portrait/WW2.jpg""style=""width:400px;height:400px;""></img>",3,html-button-response,8,122811,0.0-3.0-7.0,80960,List2A,black,man,,TRUE,3,,,,,
null,CORRECT,,html-keyboard-response,9,124315,0.0-3.0-8.0-0.0,80960,List2A,black,man,,,,null,,,,
7236,"<img src=""portrait/BW1.jpg""style=""width:400px;height:400px;""></img>",0,html-button-response,10,131558,0.0-3.0-10.0,80960,List2A,black,man,,TRUE,0,,,,,
null,CORRECT,,html-keyboard-response,11,133068,0.0-3.0-11.0-0.0,80960,List2A,black,man,,,,null,,,,
3357,"<img src=""portrait/BM2.jpg""style=""width:400px;height:400px;""></img>",5,html-button-response,12,136439,0.0-3.0-13.0,80960,List2A,black,man,,TRUE,5,,,,,
null,CORRECT,,html-keyboard-response,13,137946,0.0-3.0-14.0-0.0,80960,List2A,black,man,,,,null,,,,
5370,"<img src=""portrait/WW1.jpg""style=""width:400px;height:400px;""></img>",1,html-button-response,14,143328,0.0-3.0-16.0,80960,List2A,black,man,,TRUE,1,,,,,
null,CORRECT,,html-keyboard-response,15,144837,0.0-3.0-17.0-0.0,80960,List2A,black,man,,,,null,,,,
2737,"<img src=""portrait/WM2.jpg""style=""width:400px;height:400px;""></img>",7,html-button-response,16,147587,0.0-3.0-19.0,80960,List2A,black,man,,TRUE,7,,,,,
null,CORRECT,,html-keyboard-response,17,149094,0.0-3.0-20.0-0.0,80960,List2A,black,man,,,,null,,,,
4215,"<img src=""portrait/BM1.jpg""style=""width:400px;height:400px;""></img>",4,html-button-response,18,153321,0.0-3.0-22.0,80960,List2A,black,man,,TRUE,4,,,,,
null,CORRECT,,html-keyboard-response,19,154829,0.0-3.0-23.0-0.0,80960,List2A,black,man,,,,null,,,,
1659,<p>You got 8 out of 8 right first time. Press Continue.</p>,0,html-button-response,20,156503,0.0-3.0-25.0,80960,List2A,black,man,,,,,,,,
22130,"<p>In this experiment, you will view photographs of the people from the memory game interacting.</p><p>By using the <strong>exact</strong> phrase given <i>after</i> the photograph appears and recalling the correct names of the people in the photographs, form a sentence describing the interaction. You do not need to capitalise names.</p><p>Type your answer in the space provided. Please complete every sentence before moving onto the next trial.</p><p>You will only have a few seconds to memorise each given photograph and phrase before you can respond, so try your best to focus.</p><p>An example is given below. Press 'Continue' when you are ready.</p><img src='img/speaking_example_v2.jpg' style='width:800px;height:460px;''></img>",0,html-button-response,21,179655,0.0-4.0,80960,List2A,black,man,,,,,,,,
2533,"<p>Before the experiment starts, you will watch two example trials. Press 'Continue'.</p>",0,html-button-response,22,183197,0.0-5.0,80960,List2A,black,man,,,,,,,,
null,<img src='img/speaking_WW.gif'></img>,,html-keyboard-response,23,186205,0.0-6.0,80960,List2A,black,man,,,,null,,,,
null,<p>is speaking to</p>,,html-keyboard-response,24,188211,0.0-7.0,80960,List2A,black,man,,,,null,,,,
2213,<p><b>Answer:</b> jane is speaking to ruth</p>,0,html-button-response,25,190432,0.0-8.0,80960,List2A,black,man,,,,,,,,
null,<img src='img/pointing_BM.gif'></img>,,html-keyboard-response,26,193439,0.0-9.0,80960,List2A,black,man,,,,null,,,,
null,<p>are pointing at each other</p>,,html-keyboard-response,27,195443,0.0-10.0,80960,List2A,black,man,,,,null,,,,
2306,<p><b>Answer:</b> fred and mike are pointing at each other</p>,0,html-button-response,28,197755,0.0-11.0,80960,List2A,black,man,,,,,,,,
7478,"<p>Ready to start the experiment?</p><br><p><strong>Remember to describe the picture using a full sentence,</strong></p><p><strong>that combines the names of the people with the given phrase.</strong></p><p><strong>If you do not do this correctly you will not be paid.</strong></p><p><strong> You do not need to capitalise names or use punctuation.</strong></p><br><p>Press 'Continue' to begin.</p>",0,html-button-response,29,206239,0.0-12.0,80960,List2A,black,man,,,,,,,,
null,"<div style=""font-size:60px;"">+</div>",,html-keyboard-response,30,207747,0.0-13.0-0.0,80960,List2A,black,man,,,,null,,,,
null,"<img src=""stim_listA/hug5.gif""</stim_listA>",,html-keyboard-response,31,209756,0.0-13.0-1.0,80960,List2A,black,man,,,,null,,,,
null,is hugging,,html-keyboard-response,32,211762,0.0-13.0-2.0,80960,List2A,black,man,,,,null,,,,
9380,,,survey-text,33,221157,0.0-13.0-3.0,80960,List2A,black,man,,,,,"{""Q0"":""fred is hugging luke""}","<img src=""stim_listA/hug5.gif""</stim_listA>",is hugging,
null,"<div style=""font-size:60px;"">+</div>",,html-keyboard-response,34,221671,0.0-13.0-0.1,80960,List2A,black,man,,,,null,,,,
null,"<img src=""stim_listA/meet5.gif""</stim_listA>",,html-keyboard-response,35,223679,0.0-13.0-1.1,80960,List2A,black,man,,,,null,,,,
null,is meeting,,html-keyboard-response,36,225686,0.0-13.0-2.1,80960,List2A,black,man,,,,null,,,,
7963,,,survey-text,37,233659,0.0-13.0-3.1,80960,List2A,black,man,,,,,"{""Q0"":""dave is meeting mike""}","<img src=""stim_listA/meet5.gif""</stim_listA>",is meeting,
null,"<div style=""font-size:60px;"">+</div>",,html-keyboard-response,38,234167,0.0-13.0-0.2,80960,List2A,black,man,,,,null,,,,
null,"<img src=""stim_listA/shout7.gif""</stim_listA>",,html-keyboard-response,39,236180,0.0-13.0-1.2,80960,List2A,black,man,,,,null,,,,
null,is shouting at,,html-keyboard-response,40,238186,0.0-13.0-2.2,80960,List2A,black,man,,,,null,,,,
10267,,,survey-text,41,248462,0.0-13.0-3.2,80960,List2A,black,man,,,,,"{""Q0"":""beth is shouting at ruth""}","<img src=""stim_listA/shout7.gif""</stim_listA>",is shouting at,
null,"<div style=""font-size:60px;"">+</div>",,html-keyboard-response,42,248967,0.0-13.0-0.3,80960,List2A,black,man,,,,null,,,,
null,"<img src=""stim_listA/hug4.gif""</stim_listA>",,html-keyboard-response,43,250980,0.0-13.0-1.3,80960,List2A,black,man,,,,null,,,,
null,are hugging each other,,html-keyboard-response,44,252986,0.0-13.0-2.3,80960,List2A,black,man,,,,null,,,,
10178,,,survey-text,45,263173,0.0-13.0-3.3,80960,List2A,black,man,,,,,"{""Q0"":""kate and mike are hugging each other""}","<img src=""stim_listA/hug4.gif""</stim_listA>",are hugging each other,
null,"<div style=""font-size:60px;"">+</div>",,html-keyboard-response,46,263682,0.0-13.0-0.4,80960,List2A,black,man,,,,null,,,,
null,"<img src=""stim_listA/meet3.gif""</stim_listA>",,html-keyboard-response,47,265695,0.0-13.0-1.4,80960,List2A,black,man,,,,null,,,,
null,is meeting,,html-keyboard-response,48,267701,0.0-13.0-2.4,80960,List2A,black,man,,,,null,,,,
8290,,,survey-text,49,276000,0.0-13.0-3.4,80960,List2A,black,man,,,,,"{""Q0"":""mike is meeting kate""}","<img src=""stim_listA/meet3.gif""</stim_listA>",is meeting,
null,"<div style=""font-size:60px;"">+</div>",,html-keyboard-response,50,276508,0.0-13.0-0.5,80960,List2A,black,man,,,,null,,,,
null,"<img src=""stim_listA/touch2.gif""</stim_listA>",,html-keyboard-response,51,278523,0.0-13.0-1.5,80960,List2A,black,man,,,,null,,,,
null,are touching each other,,html-keyboard-response,52,280529,0.0-13.0-2.5,80960,List2A,black,man,,,,null,,,,
8623,,,survey-text,53,289162,0.0-13.0-3.5,80960,List2A,black,man,,,,,"{""Q0"":""luke and ruth are touching each other""}","<img src=""stim_listA/touch2.gif""</stim_listA>",are touching each other,
null,"<div style=""font-size:60px;"">+</div>",,html-keyboard-response,54,289669,0.0-13.0-0.6,80960,List2A,black,man,,,,null,,,,
null,"<img src=""stim_listA/fight2.gif""</stim_listA>",,html-keyboard-response,55,291682,0.0-13.0-1.6,80960,List2A,black,man,,,,null,,,,
null,are fighting each other,,html-keyboard-response,56,293689,0.0-13.0-2.6,80960,List2A,black,man,,,,null,,,,
8474,,,survey-text,57,302173,0.0-13.0-3.6,80960,List2A,black,man,,,,,"{""Q0"":""luke and ruth are fighting each other""}","<img src=""stim_listA/fight2.gif""</stim_listA>",are fighting each other,
null,"<div style=""font-size:60px;"">+</div>",,html-keyboard-response,58,302681,0.0-13.0-0.7,80960,List2A,black,man,,,,null,,,,
null,"<img src=""stim_listA/hug6.gif""</stim_listA>",,html-keyboard-response,59,304693,0.0-13.0-1.7,80960,List2A,black,man,,,,null,,,,
null,are hugging each other,,html-keyboard-response,60,306699,0.0-13.0-2.7,80960,List2A,black,man,,,,null,,,,
8611,,,survey-text,61,315320,0.0-13.0-3.7,80960,List2A,black,man,,,,,"{""Q0"":""mike and dave are hugging each other""}","<img src=""stim_listA/hug6.gif""</stim_listA>",are hugging each other,
null,"<div style=""font-size:60px;"">+</div>",,html-keyboard-response,62,315828,0.0-13.0-0.8,80960,List2A,black,man,,,,null,,,,
null,"<img src=""stim_listA/hug3.gif""</stim_listA>",,html-keyboard-response,63,317840,0.0-13.0-1.8,80960,List2A,black,man,,,,null,,,,
null,is hugging,,html-keyboard-response,64,319843,0.0-13.0-2.8,80960,List2A,black,man,,,,null,,,,
7974,,,survey-text,65,327823,0.0-13.0-3.8,80960,List2A,black,man,,,,,"{""Q0"":""fred is hugging beth""}","<img src=""stim_listA/hug3.gif""</stim_listA>",is hugging,
null,"<div style=""font-size:60px;"">+</div>",,html-keyboard-response,66,328340,0.0-13.0-0.9,80960,List2A,black,man,,,,null,,,,
null,"<img src=""stim_listA/hug1.gif""</stim_listA>",,html-keyboard-response,67,330351,0.0-13.0-1.9,80960,List2A,black,man,,,,null,,,,
null,is hugging,,html-keyboard-response,68,332356,0.0-13.0-2.9,80960,List2A,black,man,,,,null,,,,
7649,,,survey-text,69,340015,0.0-13.0-3.9,80960,List2A,black,man,,,,,"{""Q0"":""luke is hugging ruth""}","<img src=""stim_listA/hug1.gif""</stim_listA>",is hugging,
null,"<div style=""font-size:60px;"">+</div>",,html-keyboard-response,70,340520,0.0-13.0-0.10,80960,List2A,black,man,,,,null,,,,
null,"<img src=""stim_listA/dance7.gif""</stim_listA>",,html-keyboard-response,71,342530,0.0-13.0-1.10,80960,List2A,black,man,,,,null,,,,
null,is dancing with,,html-keyboard-response,72,344534,0.0-13.0-2.10,80960,List2A,black,man,,,,null,,,,
7163,,,survey-text,73,351706,0.0-13.0-3.10,80960,List2A,black,man,,,,,"{""Q0"":""kate is dancing with ruth""}","<img src=""stim_listA/dance7.gif""</stim_listA>",is dancing with,
null,"<div style=""font-size:60px;"">+</div>",,html-keyboard-response,74,352214,0.0-13.0-0.11,80960,List2A,black,man,,,,null,,,,
null,"<img src=""stim_listA/argue5.gif""</stim_listA>",,html-keyboard-response,75,354226,0.0-13.0-1.11,80960,List2A,black,man,,,,null,,,,
null,is arguing with,,html-keyboard-response,76,356233,0.0-13.0-2.11,80960,List2A,black,man,,,,null,,,,
8652,,,survey-text,77,364893,0.0-13.0-3.11,80960,List2A,black,man,,,,,"{""Q0"":""dave is arguing with fred""}","<img src=""stim_listA/argue5.gif""</stim_listA>",is arguing with,
null,"<div style=""font-size:60px;"">+</div>",,html-keyboard-response,78,365400,0.0-13.0-0.12,80960,List2A,black,man,,,,null,,,,
null,"<img src=""stim_listA/dance1.gif""</stim_listA>",,html-keyboard-response,79,367411,0.0-13.0-1.12,80960,List2A,black,man,,,,null,,,,
null,is dancing with,,html-keyboard-response,80,369417,0.0-13.0-2.12,80960,List2A,black,man,,,,null,,,,
6397,,,survey-text,81,375822,0.0-13.0-3.12,80960,List2A,black,man,,,,,"{""Q0"":""luke is dancing with jane""}","<img src=""stim_listA/dance1.gif""</stim_listA>",is dancing with,
null,"<div style=""font-size:60px;"">+</div>",,html-keyboard-response,82,376330,0.0-13.0-0.13,80960,List2A,black,man,,,,null,,,,
null,"<img src=""stim_listA/fight1.gif""</stim_listA>",,html-keyboard-response,83,378342,0.0-13.0-1.13,80960,List2A,black,man,,,,null,,,,
null,is fighting,,html-keyboard-response,84,380348,0.0-13.0-2.13,80960,List2A,black,man,,,,null,,,,
9836,,,survey-text,85,390192,0.0-13.0-3.13,80960,List2A,black,man,,,,,"{""Q0"":""dave is fighting jane""}","<img src=""stim_listA/fight1.gif""</stim_listA>",is fighting,
null,"<div style=""font-size:60px;"">+</div>",,html-keyboard-response,86,390697,0.0-13.0-0.14,80960,List2A,black,man,,,,null,,,,
null,"<img src=""stim_listA/marry6.gif""</stim_listA>",,html-keyboard-response,87,392708,0.0-13.0-1.14,80960,List2A,black,man,,,,null,,,,
null,are marrying each other,,html-keyboard-response,88,394713,0.0-13.0-2.14,80960,List2A,black,man,,,,null,,,,
21371,,,survey-text,89,416093,0.0-13.0-3.14,80960,List2A,black,man,,,,,"{""Q0"":""mike and luke are marrying each other""}","<img src=""stim_listA/marry6.gif""</stim_listA>",are marrying each other,
null,"<div style=""font-size:60px;"">+</div>",,html-keyboard-response,90,416600,0.0-13.0-0.15,80960,List2A,black,man,,,,null,,,,
null,"<img src=""stim_listA/dance2.gif""</stim_listA>",,html-keyboard-response,91,418612,0.0-13.0-1.15,80960,List2A,black,man,,,,null,,,,
null,are dancing with each other,,html-keyboard-response,92,420619,0.0-13.0-2.15,80960,List2A,black,man,,,,null,,,,
9019,,,survey-text,93,429644,0.0-13.0-3.15,80960,List2A,black,man,,,,,"{""Q0"":""dave and ruth are dancing with each other""}","<img src=""stim_listA/dance2.gif""</stim_listA>",are dancing with each other,
null,"<div style=""font-size:60px;"">+</div>",,html-keyboard-response,94,430150,0.0-13.0-0.16,80960,List2A,black,man,,,,null,,,,
null,"<img src=""stim_listA/shout8.gif""</stim_listA>",,html-keyboard-response,95,432157,0.0-13.0-1.16,80960,List2A,black,man,,,,null,,,,
null,are shouting at each other,,html-keyboard-response,96,434160,0.0-13.0-2.16,80960,List2A,black,man,,,,null,,,,
8494,,,survey-text,97,442662,0.0-13.0-3.16,80960,List2A,black,man,,,,,"{""Q0"":""kate and jane are shouting at each other""}","<img src=""stim_listA/shout8.gif""</stim_listA>",are shouting at each other,
null,"<div style=""font-size:60px;"">+</div>",,html-keyboard-response,98,443170,0.0-13.0-0.17,80960,List2A,black,man,,,,null,,,,
null,"<img src=""stim_listA/dance3.gif""</stim_listA>",,html-keyboard-response,99,445182,0.0-13.0-1.17,80960,List2A,black,man,,,,null,,,,
null,is dancing with,,html-keyboard-response,100,447187,0.0-13.0-2.17,80960,List2A,black,man,,,,null,,,,
6995,,,survey-text,101,454192,0.0-13.0-3.17,80960,List2A,black,man,,,,,"{""Q0"":""kate is dancing with fred""}","<img src=""stim_listA/dance3.gif""</stim_listA>",is dancing with,
null,"<div style=""font-size:60px;"">+</div>",,html-keyboard-response,102,454698,0.0-13.0-0.18,80960,List2A,black,man,,,,null,,,,
null,"<img src=""stim_listA/argue8.gif""</stim_listA>",,html-keyboard-response,103,456711,0.0-13.0-1.18,80960,List2A,black,man,,,,null,,,,
null,are arguing with each other,,html-keyboard-response,104,458717,0.0-13.0-2.18,80960,List2A,black,man,,,,null,,,,
12016,,,survey-text,105,470742,0.0-13.0-3.18,80960,List2A,black,man,,,,,"{""Q0"":""kate and ruth are arguing with each other""}","<img src=""stim_listA/argue8.gif""</stim_listA>",are arguing with each other,
null,"<div style=""font-size:60px;"">+</div>",,html-keyboard-response,106,471249,0.0-13.0-0.19,80960,List2A,black,man,,,,null,,,,
null,"<img src=""stim_listA/talk2.gif""</stim_listA>",,html-keyboard-response,107,473262,0.0-13.0-1.19,80960,List2A,black,man,,,,null,,,,
null,are talking to each other,,html-keyboard-response,108,475268,0.0-13.0-2.19,80960,List2A,black,man,,,,null,,,,
10472,,,survey-text,109,485749,0.0-13.0-3.19,80960,List2A,black,man,,,,,"{""Q0"":""ruth and dave are talking to each other""}","<img src=""stim_listA/talk2.gif""</stim_listA>",are talking to each other,
5514,"<img src='img/portrait_matrix_list2.JPG' style='width:900px;height:500px;''></img><p>If you have memorised all the portraits and names and are ready to start, press Continue.</p><p><strong>Please note: Your memory of these faces will be tested 4 times during this experiment.</strong></p>",0,html-button-response,110,491274,0.0-14.0-0.0,80960,List2A,black,man,,,,,,,,
2352,"<img src=""portrait/WM1.jpg""style=""width:400px;height:400px;""></img>",6,html-button-response,111,494644,0.0-14.0-1.0,80960,List2A,black,man,,TRUE,6,,,,,
null,CORRECT,,html-keyboard-response,112,496153,0.0-14.0-2.0-0.0,80960,List2A,black,man,,,,null,,,,
3435,"<img src=""portrait/WW1.jpg""style=""width:400px;height:400px;""></img>",1,html-button-response,113,499601,0.0-14.0-4.0,80960,List2A,black,man,,TRUE,1,,,,,
null,CORRECT,,html-keyboard-response,114,501114,0.0-14.0-5.0-0.0,80960,List2A,black,man,,,,null,,,,
2909,"<img src=""portrait/BW1.jpg""style=""width:400px;height:400px;""></img>",0,html-button-response,115,504034,0.0-14.0-7.0,80960,List2A,black,man,,TRUE,0,,,,,
null,CORRECT,,html-keyboard-response,116,505543,0.0-14.0-8.0-0.0,80960,List2A,black,man,,,,null,,,,
1769,"<img src=""portrait/BW2.jpg""style=""width:400px;height:400px;""></img>",2,html-button-response,117,507324,0.0-14.0-10.0,80960,List2A,black,man,,TRUE,2,,,,,
null,CORRECT,,html-keyboard-response,118,508832,0.0-14.0-11.0-0.0,80960,List2A,black,man,,,,null,,,,
1848,"<img src=""portrait/BM2.jpg""style=""width:400px;height:400px;""></img>",5,html-button-response,119,510694,0.0-14.0-13.0,80960,List2A,black,man,,TRUE,5,,,,,
null,CORRECT,,html-keyboard-response,120,512202,0.0-14.0-14.0-0.0,80960,List2A,black,man,,,,null,,,,
2478,"<img src=""portrait/BM1.jpg""style=""width:400px;height:400px;""></img>",4,html-button-response,121,514694,0.0-14.0-16.0,80960,List2A,black,man,,TRUE,4,,,,,
null,CORRECT,,html-keyboard-response,122,516202,0.0-14.0-17.0-0.0,80960,List2A,black,man,,,,null,,,,
1709,"<img src=""portrait/WW2.jpg""style=""width:400px;height:400px;""></img>",3,html-button-response,123,517924,0.0-14.0-19.0,80960,List2A,black,man,,TRUE,3,,,,,
null,CORRECT,,html-keyboard-response,124,519429,0.0-14.0-20.0-0.0,80960,List2A,black,man,,,,null,,,,
2271,"<img src=""portrait/WM2.jpg""style=""width:400px;height:400px;""></img>",7,html-button-response,125,521708,0.0-14.0-22.0,80960,List2A,black,man,,TRUE,7,,,,,
null,CORRECT,,html-keyboard-response,126,523216,0.0-14.0-23.0-0.0,80960,List2A,black,man,,,,null,,,,
3127,<p>You got 8 out of 8 right first time. Press Continue.</p>,0,html-button-response,127,526362,0.0-14.0-25.0,80960,List2A,black,man,,,,,,,,
null,"<div style=""font-size:60px;"">+</div>",,html-keyboard-response,128,527872,0.0-15.0-0.0,80960,List2A,black,man,,,,null,,,,
null,"<img src=""stim_listA/fight7.gif""</stim_listA>",,html-keyboard-response,129,529885,0.0-15.0-1.0,80960,List2A,black,man,,,,null,,,,
null,is fighting,,html-keyboard-response,130,531891,0.0-15.0-2.0,80960,List2A,black,man,,,,null,,,,
11418,,,survey-text,131,543318,0.0-15.0-3.0,80960,List2A,black,man,,,,,"{""Q0"":""jane is fighting kate""}","<img src=""stim_listA/fight7.gif""</stim_listA>",is fighting,
null,"<div style=""font-size:60px;"">+</div>",,html-keyboard-response,132,543826,0.0-15.0-0.1,80960,List2A,black,man,,,,null,,,,
null,"<img src=""stim_listA/shout3.gif""</stim_listA>",,html-keyboard-response,133,545838,0.0-15.0-1.1,80960,List2A,black,man,,,,null,,,,
null,is shouting at,,html-keyboard-response,134,547843,0.0-15.0-2.1,80960,List2A,black,man,,,,null,,,,
5988,,,survey-text,135,553841,0.0-15.0-3.1,80960,List2A,black,man,,,,,"{""Q0"":""beth is shouting at fred""}","<img src=""stim_listA/shout3.gif""</stim_listA>",is shouting at,
null,"<div style=""font-size:60px;"">+</div>",,html-keyboard-response,136,554347,0.0-15.0-0.2,80960,List2A,black,man,,,,null,,,,
null,"<img src=""stim_listA/argue4.gif""</stim_listA>",,html-keyboard-response,137,556359,0.0-15.0-1.2,80960,List2A,black,man,,,,null,,,,
null,are arguing with each other,,html-keyboard-response,138,558366,0.0-15.0-2.2,80960,List2A,black,man,,,,null,,,,
10304,,,survey-text,139,568682,0.0-15.0-3.2,80960,List2A,black,man,,,,,"{""Q0"":""fred and kate are arguing at each other""}","<img src=""stim_listA/argue4.gif""</stim_listA>",are arguing with each other,
null,"<div style=""font-size:60px;"">+</div>",,html-keyboard-response,140,569189,0.0-15.0-0.3,80960,List2A,black,man,,,,null,,,,
null,"<img src=""stim_listA/dance6.gif""</stim_listA>",,html-keyboard-response,141,571200,0.0-15.0-1.3,80960,List2A,black,man,,,,null,,,,
null,are dancing with each other,,html-keyboard-response,142,573205,0.0-15.0-2.3,80960,List2A,black,man,,,,null,,,,
19059,,,survey-text,143,592274,0.0-15.0-3.3,80960,List2A,black,man,,,,,"{""Q0"":""fred and dave are marrying eachother""}","<img src=""stim_listA/dance6.gif""</stim_listA>",are dancing with each other,
null,"<div style=""font-size:60px;"">+</div>",,html-keyboard-response,144,592781,0.0-15.0-0.4,80960,List2A,black,man,,,,null,,,,
null,"<img src=""stim_listA/touch8.gif""</stim_listA>",,html-keyboard-response,145,594792,0.0-15.0-1.4,80960,List2A,black,man,,,,null,,,,
null,are touching each other,,html-keyboard-response,146,596797,0.0-15.0-2.4,80960,List2A,black,man,,,,null,,,,
7693,,,survey-text,147,604499,0.0-15.0-3.4,80960,List2A,black,man,,,,,"{""Q0"":""ruth and beth are touching each other""}","<img src=""stim_listA/touch8.gif""</stim_listA>",are touching each other,
null,"<div style=""font-size:60px;"">+</div>",,html-keyboard-response,148,605007,0.0-15.0-0.5,80960,List2A,black,man,,,,null,,,,
null,"<img src=""stim_listA/fight5.gif""</stim_listA>",,html-keyboard-response,149,607018,0.0-15.0-1.5,80960,List2A,black,man,,,,null,,,,
null,is fighting,,html-keyboard-response,150,609024,0.0-15.0-2.5,80960,List2A,black,man,,,,null,,,,
6798,,,survey-text,151,615831,0.0-15.0-3.5,80960,List2A,black,man,,,,,"{""Q0"":""dave is fighting mike""}","<img src=""stim_listA/fight5.gif""</stim_listA>",is fighting,
null,"<div style=""font-size:60px;"">+</div>",,html-keyboard-response,152,616338,0.0-15.0-0.6,80960,List2A,black,man,,,,null,,,,
null,"<img src=""stim_listA/kiss1.gif""</stim_listA>",,html-keyboard-response,153,618350,0.0-15.0-1.6,80960,List2A,black,man,,,,null,,,,
null,is kissing,,html-keyboard-response,154,620355,0.0-15.0-2.6,80960,List2A,black,man,,,,null,,,,
7950,,,survey-text,155,628318,0.0-15.0-3.6,80960,List2A,black,man,,,,,"{""Q0"":""luke is kissing ruth""}","<img src=""stim_listA/kiss1.gif""</stim_listA>",is kissing,
null,"<div style=""font-size:60px;"">+</div>",,html-keyboard-response,156,628825,0.0-15.0-0.7,80960,List2A,black,man,,,,null,,,,
null,"<img src=""stim_listA/marry4.gif""</stim_listA>",,html-keyboard-response,157,630839,0.0-15.0-1.7,80960,List2A,black,man,,,,null,,,,
null,are marrying each other,,html-keyboard-response,158,632845,0.0-15.0-2.7,80960,List2A,black,man,,,,null,,,,
8496,,,survey-text,159,641351,0.0-15.0-3.7,80960,List2A,black,man,,,,,"{""Q0"":""fred and kate are marrying each other""}","<img src=""stim_listA/marry4.gif""</stim_listA>",are marrying each other,
null,"<div style=""font-size:60px;"">+</div>",,html-keyboard-response,160,641857,0.0-15.0-0.8,80960,List2A,black,man,,,,null,,,,
null,"<img src=""stim_listA/talk7.gif""</stim_listA>",,html-keyboard-response,161,643869,0.0-15.0-1.8,80960,List2A,black,man,,,,null,,,,
null,is talking to,,html-keyboard-response,162,645875,0.0-15.0-2.8,80960,List2A,black,man,,,,null,,,,
7266,,,survey-text,163,653149,0.0-15.0-3.8,80960,List2A,black,man,,,,,"{""Q0"":""kate is talking to ruth""}","<img src=""stim_listA/talk7.gif""</stim_listA>",is talking to,
null,"<div style=""font-size:60px;"">+</div>",,html-keyboard-response,164,653654,0.0-15.0-0.9,80960,List2A,black,man,,,,null,,,,
null,"<img src=""stim_listA/fight3.gif""</stim_listA>",,html-keyboard-response,165,655667,0.0-15.0-1.9,80960,List2A,black,man,,,,null,,,,
null,is fighting,,html-keyboard-response,166,657673,0.0-15.0-2.9,80960,List2A,black,man,,,,null,,,,
7733,,,survey-text,167,665415,0.0-15.0-3.9,80960,List2A,black,man,,,,,"{""Q0"":""mike is fighting kate""}","<img src=""stim_listA/fight3.gif""</stim_listA>",is fighting,
null,"<div style=""font-size:60px;"">+</div>",,html-keyboard-response,168,665921,0.0-15.0-0.10,80960,List2A,black,man,,,,null,,,,
null,"<img src=""stim_listA/hug8.gif""</stim_listA>",,html-keyboard-response,169,667934,0.0-15.0-1.10,80960,List2A,black,man,,,,null,,,,
null,are hugging each other,,html-keyboard-response,170,669940,0.0-15.0-2.10,80960,List2A,black,man,,,,null,,,,
9045,,,survey-text,171,678994,0.0-15.0-3.10,80960,List2A,black,man,,,,,"{""Q0"":""jane and kate are hugging each other""}","<img src=""stim_listA/hug8.gif""</stim_listA>",are hugging each other,
null,"<div style=""font-size:60px;"">+</div>",,html-keyboard-response,172,679503,0.0-15.0-0.11,80960,List2A,black,man,,,,null,,,,
null,"<img src=""stim_listA/meet1.gif""</stim_listA>",,html-keyboard-response,173,681521,0.0-15.0-1.11,80960,List2A,black,man,,,,null,,,,
null,is meeting,,html-keyboard-response,174,683527,0.0-15.0-2.11,80960,List2A,black,man,,,,null,,,,
5676,,,survey-text,175,689213,0.0-15.0-3.11,80960,List2A,black,man,,,,,"{""Q0"":""dave is meeting jane""}","<img src=""stim_listA/meet1.gif""</stim_listA>",is meeting,
null,"<div style=""font-size:60px;"">+</div>",,html-keyboard-response,176,689721,0.0-15.0-0.12,80960,List2A,black,man,,,,null,,,,
null,"<img src=""stim_listA/touch6.gif""</stim_listA>",,html-keyboard-response,177,691734,0.0-15.0-1.12,80960,List2A,black,man,,,,null,,,,
null,are touching each other,,html-keyboard-response,178,693741,0.0-15.0-2.12,80960,List2A,black,man,,,,null,,,,
9403,,,survey-text,179,703153,0.0-15.0-3.12,80960,List2A,black,man,,,,,"{""Q0"":""luke and fred are touching each other""}","<img src=""stim_listA/touch6.gif""</stim_listA>",are touching each other,
null,"<div style=""font-size:60px;"">+</div>",,html-keyboard-response,180,703669,0.0-15.0-0.13,80960,List2A,black,man,,,,null,,,,
null,"<img src=""stim_listA/kiss8.gif""</stim_listA>",,html-keyboard-response,181,705680,0.0-15.0-1.13,80960,List2A,black,man,,,,null,,,,
null,are kissing each other,,html-keyboard-response,182,707687,0.0-15.0-2.13,80960,List2A,black,man,,,,null,,,,
8172,,,survey-text,183,715867,0.0-15.0-3.13,80960,List2A,black,man,,,,,"{""Q0"":""jane and kate are kissing each other""}","<img src=""stim_listA/kiss8.gif""</stim_listA>",are kissing each other,
null,"<div style=""font-size:60px;"">+</div>",,html-keyboard-response,184,716373,0.0-15.0-0.14,80960,List2A,black,man,,,,null,,,,
null,"<img src=""stim_listA/kiss7.gif""</stim_listA>",,html-keyboard-response,185,718387,0.0-15.0-1.14,80960,List2A,black,man,,,,null,,,,
null,is kissing,,html-keyboard-response,186,720394,0.0-15.0-2.14,80960,List2A,black,man,,,,null,,,,
5943,,,survey-text,187,726346,0.0-15.0-3.14,80960,List2A,black,man,,,,,"{""Q0"":""ruth is kissing beth""}","<img src=""stim_listA/kiss7.gif""</stim_listA>",is kissing,
null,"<div style=""font-size:60px;"">+</div>",,html-keyboard-response,188,726854,0.0-15.0-0.15,80960,List2A,black,man,,,,null,,,,
null,"<img src=""stim_listA/hug2.gif""</stim_listA>",,html-keyboard-response,189,728869,0.0-15.0-1.15,80960,List2A,black,man,,,,null,,,,
null,are hugging each other,,html-keyboard-response,190,730875,0.0-15.0-2.15,80960,List2A,black,man,,,,null,,,,
8099,,,survey-text,191,738982,0.0-15.0-3.15,80960,List2A,black,man,,,,,"{""Q0"":""jane and dave are hugging each other""}","<img src=""stim_listA/hug2.gif""</stim_listA>",are hugging each other,
null,"<div style=""font-size:60px;"">+</div>",,html-keyboard-response,192,739487,0.0-15.0-0.16,80960,List2A,black,man,,,,null,,,,
null,"<img src=""stim_listA/marry5.gif""</stim_listA>",,html-keyboard-response,193,741494,0.0-15.0-1.16,80960,List2A,black,man,,,,null,,,,
null,is marrying,,html-keyboard-response,194,743500,0.0-15.0-2.16,80960,List2A,black,man,,,,null,,,,
7468,,,survey-text,195,750978,0.0-15.0-3.16,80960,List2A,black,man,,,,,"{""Q0"":""dave is marrying fred""}","<img src=""stim_listA/marry5.gif""</stim_listA>",is marrying,
null,"<div style=""font-size:60px;"">+</div>",,html-keyboard-response,196,751485,0.0-15.0-0.17,80960,List2A,black,man,,,,null,,,,
null,"<img src=""stim_listA/marry8.gif""</stim_listA>",,html-keyboard-response,197,753498,0.0-15.0-1.17,80960,List2A,black,man,,,,null,,,,
null,are marrying each other,,html-keyboard-response,198,755504,0.0-15.0-2.17,80960,List2A,black,man,,,,null,,,,
8094,,,survey-text,199,763604,0.0-15.0-3.17,80960,List2A,black,man,,,,,"{""Q0"":""kate and ruth are marrying each other""}","<img src=""stim_listA/marry8.gif""</stim_listA>",are marrying each other,
null,"<div style=""font-size:60px;"">+</div>",,html-keyboard-response,200,764110,0.0-15.0-0.18,80960,List2A,black,man,,,,null,,,,
null,"<img src=""stim_listA/marry1.gif""</stim_listA>",,html-keyboard-response,201,766122,0.0-15.0-1.18,80960,List2A,black,man,,,,null,,,,
null,is marrying,,html-keyboard-response,202,768128,0.0-15.0-2.18,80960,List2A,black,man,,,,null,,,,
5712,,,survey-text,203,773850,0.0-15.0-3.18,80960,List2A,black,man,,,,,"{""Q0"":""ruth is marrying dave""}","<img src=""stim_listA/marry1.gif""</stim_listA>",is marrying,
null,"<div style=""font-size:60px;"">+</div>",,html-keyboard-response,204,774359,0.0-15.0-0.19,80960,List2A,black,man,,,,null,,,,
null,"<img src=""stim_listA/fight6.gif""</stim_listA>",,html-keyboard-response,205,776372,0.0-15.0-1.19,80960,List2A,black,man,,,,null,,,,
null,are fighting each other,,html-keyboard-response,206,778378,0.0-15.0-2.19,80960,List2A,black,man,,,,null,,,,
8735,,,survey-text,207,787123,0.0-15.0-3.19,80960,List2A,black,man,,,,,"{""Q0"":""luke and fred are fighting each other""}","<img src=""stim_listA/fight6.gif""</stim_listA>",are fighting each other,
6075,"<img src='img/portrait_matrix_list2.JPG' style='width:900px;height:500px;''></img><p>If you have memorised all the portraits and names and are ready to start, press Continue.</p><p><strong>Please note: Your memory of these faces will be tested 4 times during this experiment.</strong></p>",0,html-button-response,208,793208,0.0-16.0-0.0,80960,List2A,black,man,,,,,,,,
3760,"<img src=""portrait/WW1.jpg""style=""width:400px;height:400px;""></img>",1,html-button-response,209,797981,0.0-16.0-1.0,80960,List2A,black,man,,TRUE,1,,,,,
null,CORRECT,,html-keyboard-response,210,799489,0.0-16.0-2.0-0.0,80960,List2A,black,man,,,,null,,,,
2624,"<img src=""portrait/WM1.jpg""style=""width:400px;height:400px;""></img>",6,html-button-response,211,802127,0.0-16.0-4.0,80960,List2A,black,man,,TRUE,6,,,,,
null,CORRECT,,html-keyboard-response,212,803636,0.0-16.0-5.0-0.0,80960,List2A,black,man,,,,null,,,,
1955,"<img src=""portrait/WW2.jpg""style=""width:400px;height:400px;""></img>",3,html-button-response,213,805604,0.0-16.0-7.0,80960,List2A,black,man,,TRUE,3,,,,,
null,CORRECT,,html-keyboard-response,214,807112,0.0-16.0-8.0-0.0,80960,List2A,black,man,,,,null,,,,
1652,"<img src=""portrait/BM1.jpg""style=""width:400px;height:400px;""></img>",4,html-button-response,215,808779,0.0-16.0-10.0,80960,List2A,black,man,,TRUE,4,,,,,
null,CORRECT,,html-keyboard-response,216,810288,0.0-16.0-11.0-0.0,80960,List2A,black,man,,,,null,,,,
1776,"<img src=""portrait/WM2.jpg""style=""width:400px;height:400px;""></img>",7,html-button-response,217,812078,0.0-16.0-13.0,80960,List2A,black,man,,TRUE,7,,,,,
null,CORRECT,,html-keyboard-response,218,813587,0.0-16.0-14.0-0.0,80960,List2A,black,man,,,,null,,,,
2217,"<img src=""portrait/BW1.jpg""style=""width:400px;height:400px;""></img>",0,html-button-response,219,815818,0.0-16.0-16.0,80960,List2A,black,man,,TRUE,0,,,,,
null,CORRECT,,html-keyboard-response,220,817328,0.0-16.0-17.0-0.0,80960,List2A,black,man,,,,null,,,,
1961,"<img src=""portrait/BM2.jpg""style=""width:400px;height:400px;""></img>",5,html-button-response,221,819301,0.0-16.0-19.0,80960,List2A,black,man,,TRUE,5,,,,,
null,CORRECT,,html-keyboard-response,222,820815,0.0-16.0-20.0-0.0,80960,List2A,black,man,,,,null,,,,
2396,"<img src=""portrait/BW2.jpg""style=""width:400px;height:400px;""></img>",2,html-button-response,223,823223,0.0-16.0-22.0,80960,List2A,black,man,,TRUE,2,,,,,
null,CORRECT,,html-keyboard-response,224,824732,0.0-16.0-23.0-0.0,80960,List2A,black,man,,,,null,,,,
1272,<p>You got 8 out of 8 right first time. Press Continue.</p>,0,html-button-response,225,826017,0.0-16.0-25.0,80960,List2A,black,man,,,,,,,,
null,"<div style=""font-size:60px;"">+</div>",,html-keyboard-response,226,827529,0.0-17.0-0.0,80960,List2A,black,man,,,,null,,,,
null,"<img src=""stim_listA/touch4.gif""</stim_listA>",,html-keyboard-response,227,829542,0.0-17.0-1.0,80960,List2A,black,man,,,,null,,,,
null,are touching each other,,html-keyboard-response,228,831549,0.0-17.0-2.0,80960,List2A,black,man,,,,null,,,,
8382,,,survey-text,229,839938,0.0-17.0-3.0,80960,List2A,black,man,,,,,"{""Q0"":""beth and fred are touching each other""}","<img src=""stim_listA/touch4.gif""</stim_listA>",are touching each other,
null,"<div style=""font-size:60px;"">+</div>",,html-keyboard-response,230,840443,0.0-17.0-0.1,80960,List2A,black,man,,,,null,,,,
null,"<img src=""stim_listA/meet4.gif""</stim_listA>",,html-keyboard-response,231,842455,0.0-17.0-1.1,80960,List2A,black,man,,,,null,,,,
null,are meeting each other,,html-keyboard-response,232,844465,0.0-17.0-2.1,80960,List2A,black,man,,,,null,,,,
8210,,,survey-text,233,852684,0.0-17.0-3.1,80960,List2A,black,man,,,,,"{""Q0"":""beth and fred are meeting each other""}","<img src=""stim_listA/meet4.gif""</stim_listA>",are meeting each other,
null,"<div style=""font-size:60px;"">+</div>",,html-keyboard-response,234,853193,0.0-17.0-0.2,80960,List2A,black,man,,,,null,,,,
null,"<img src=""stim_listA/kiss2.gif""</stim_listA>",,html-keyboard-response,235,855204,0.0-17.0-1.2,80960,List2A,black,man,,,,null,,,,
null,are kissing each other,,html-keyboard-response,236,857208,0.0-17.0-2.2,80960,List2A,black,man,,,,null,,,,
7719,,,survey-text,237,864936,0.0-17.0-3.2,80960,List2A,black,man,,,,,"{""Q0"":""dave and jane are kissing each other""}","<img src=""stim_listA/kiss2.gif""</stim_listA>",are kissing each other,
null,"<div style=""font-size:60px;"">+</div>",,html-keyboard-response,238,865442,0.0-17.0-0.3,80960,List2A,black,man,,,,null,,,,
null,"<img src=""stim_listA/touch1.gif""</stim_listA>",,html-keyboard-response,239,867453,0.0-17.0-1.3,80960,List2A,black,man,,,,null,,,,
null,is touching,,html-keyboard-response,240,869459,0.0-17.0-2.3,80960,List2A,black,man,,,,null,,,,
5674,,,survey-text,241,875143,0.0-17.0-3.3,80960,List2A,black,man,,,,,"{""Q0"":""jane is touching dave""}","<img src=""stim_listA/touch1.gif""</stim_listA>",is touching,
null,"<div style=""font-size:60px;"">+</div>",,html-keyboard-response,242,875653,0.0-17.0-0.4,80960,List2A,black,man,,,,null,,,,
null,"<img src=""stim_listA/meet6.gif""</stim_listA>",,html-keyboard-response,243,877665,0.0-17.0-1.4,80960,List2A,black,man,,,,null,,,,
null,are meeting each other,,html-keyboard-response,244,879671,0.0-17.0-2.4,80960,List2A,black,man,,,,null,,,,
7878,,,survey-text,245,887560,0.0-17.0-3.4,80960,List2A,black,man,,,,,"{""Q0"":""luke and fred are meeting each other""}","<img src=""stim_listA/meet6.gif""</stim_listA>",are meeting each other,
null,"<div style=""font-size:60px;"">+</div>",,html-keyboard-response,246,888069,0.0-17.0-0.5,80960,List2A,black,man,,,,null,,,,
null,"<img src=""stim_listA/kiss6.gif""</stim_listA>",,html-keyboard-response,247,890082,0.0-17.0-1.5,80960,List2A,black,man,,,,null,,,,
null,are kissing each other,,html-keyboard-response,248,892088,0.0-17.0-2.5,80960,List2A,black,man,,,,null,,,,
8805,,,survey-text,249,900901,0.0-17.0-3.5,80960,List2A,black,man,,,,,"{""Q0"":""mike and dave are kissing each other""}","<img src=""stim_listA/kiss6.gif""</stim_listA>",are kissing each other,
null,"<div style=""font-size:60px;"">+</div>",,html-keyboard-response,250,901407,0.0-17.0-0.6,80960,List2A,black,man,,,,null,,,,
null,"<img src=""stim_listA/kiss4.gif""</stim_listA>",,html-keyboard-response,251,903419,0.0-17.0-1.6,80960,List2A,black,man,,,,null,,,,
null,are kissing each other,,html-keyboard-response,252,905426,0.0-17.0-2.6,80960,List2A,black,man,,,,null,,,,
9345,,,survey-text,253,914781,0.0-17.0-3.6,80960,List2A,black,man,,,,,"{""Q0"":""kate and mike are kissing each other""}","<img src=""stim_listA/kiss4.gif""</stim_listA>",are kissing each other,
null,"<div style=""font-size:60px;"">+</div>",,html-keyboard-response,254,915289,0.0-17.0-0.7,80960,List2A,black,man,,,,null,,,,
null,"<img src=""stim_listA/marry3.gif""</stim_listA>",,html-keyboard-response,255,917305,0.0-17.0-1.7,80960,List2A,black,man,,,,null,,,,
null,is marrying,,html-keyboard-response,256,919313,0.0-17.0-2.7,80960,List2A,black,man,,,,null,,,,
5415,,,survey-text,257,924737,0.0-17.0-3.7,80960,List2A,black,man,,,,,"{""Q0"":""mike is marrying beth""}","<img src=""stim_listA/marry3.gif""</stim_listA>",is marrying,
null,"<div style=""font-size:60px;"">+</div>",,html-keyboard-response,258,925243,0.0-17.0-0.8,80960,List2A,black,man,,,,null,,,,
null,"<img src=""stim_listA/marry2.gif""</stim_listA>",,html-keyboard-response,259,927256,0.0-17.0-1.8,80960,List2A,black,man,,,,null,,,,
null,are marrying each other,,html-keyboard-response,260,929264,0.0-17.0-2.8,80960,List2A,black,man,,,,null,,,,
10070,,,survey-text,261,939344,0.0-17.0-3.8,80960,List2A,black,man,,,,,"{""Q0"":""luke and jane are marrying each other""}","<img src=""stim_listA/marry2.gif""</stim_listA>",are marrying each other,
null,"<div style=""font-size:60px;"">+</div>",,html-keyboard-response,262,939851,0.0-17.0-0.9,80960,List2A,black,man,,,,null,,,,
null,"<img src=""stim_listA/meet8.gif""</stim_listA>",,html-keyboard-response,263,941864,0.0-17.0-1.9,80960,List2A,black,man,,,,null,,,,
null,are meeting each other,,html-keyboard-response,264,943871,0.0-17.0-2.9,80960,List2A,black,man,,,,null,,,,
8126,,,survey-text,265,952007,0.0-17.0-3.9,80960,List2A,black,man,,,,,"{""Q0"":""beth and ruth are meeting each other""}","<img src=""stim_listA/meet8.gif""</stim_listA>",are meeting each other,
null,"<div style=""font-size:60px;"">+</div>",,html-keyboard-response,266,952517,0.0-17.0-0.10,80960,List2A,black,man,,,,null,,,,
null,"<img src=""stim_listA/talk6.gif""</stim_listA>",,html-keyboard-response,267,954527,0.0-17.0-1.10,80960,List2A,black,man,,,,null,,,,
null,are talking to each other,,html-keyboard-response,268,956533,0.0-17.0-2.10,80960,List2A,black,man,,,,null,,,,
10139,,,survey-text,269,966680,0.0-17.0-3.10,80960,List2A,black,man,,,,,"{""Q0"":""fred and dave are talking to each other""}","<img src=""stim_listA/talk6.gif""</stim_listA>",are talking to each other,
null,"<div style=""font-size:60px;"">+</div>",,html-keyboard-response,270,967189,0.0-17.0-0.11,80960,List2A,black,man,,,,null,,,,
null,"<img src=""stim_listA/talk1.gif""</stim_listA>",,html-keyboard-response,271,969200,0.0-17.0-1.11,80960,List2A,black,man,,,,null,,,,
null,is talking to,,html-keyboard-response,272,971205,0.0-17.0-2.11,80960,List2A,black,man,,,,null,,,,
7777,,,survey-text,273,978992,0.0-17.0-3.11,80960,List2A,black,man,,,,,"{""Q0"":""luke is talking to jane""}","<img src=""stim_listA/talk1.gif""</stim_listA>",is talking to,
null,"<div style=""font-size:60px;"">+</div>",,html-keyboard-response,274,979498,0.0-17.0-0.12,80960,List2A,black,man,,,,null,,,,
null,"<img src=""stim_listA/meet7.gif""</stim_listA>",,html-keyboard-response,275,981505,0.0-17.0-1.12,80960,List2A,black,man,,,,null,,,,
null,is meeting,,html-keyboard-response,276,983512,0.0-17.0-2.12,80960,List2A,black,man,,,,null,,,,
7546,,,survey-text,277,991070,0.0-17.0-3.12,80960,List2A,black,man,,,,,"{""Q0"":""jane is meeting kate""}","<img src=""stim_listA/meet7.gif""</stim_listA>",is meeting,
null,"<div style=""font-size:60px;"">+</div>",,html-keyboard-response,278,991578,0.0-17.0-0.13,80960,List2A,black,man,,,,null,,,,
null,"<img src=""stim_listA/argue3.gif""</stim_listA>",,html-keyboard-response,279,993592,0.0-17.0-1.13,80960,List2A,black,man,,,,null,,,,
null,is arguing with,,html-keyboard-response,280,995599,0.0-17.0-2.13,80960,List2A,black,man,,,,null,,,,
9343,,,survey-text,281,1004950,0.0-17.0-3.13,80960,List2A,black,man,,,,,"{""Q0"":""mike is arguing with beth""}","<img src=""stim_listA/argue3.gif""</stim_listA>",is arguing with,
null,"<div style=""font-size:60px;"">+</div>",,html-keyboard-response,282,1005456,0.0-17.0-0.14,80960,List2A,black,man,,,,null,,,,
null,"<img src=""stim_listA/fight8.gif""</stim_listA>",,html-keyboard-response,283,1007468,0.0-17.0-1.14,80960,List2A,black,man,,,,null,,,,
null,are fighting each other,,html-keyboard-response,284,1009472,0.0-17.0-2.14,80960,List2A,black,man,,,,null,,,,
8246,,,survey-text,285,1017728,0.0-17.0-3.14,80960,List2A,black,man,,,,,"{""Q0"":""beth and ruth are fighting each other""}","<img src=""stim_listA/fight8.gif""</stim_listA>",are fighting each other,
null,"<div style=""font-size:60px;"">+</div>",,html-keyboard-response,286,1018237,0.0-17.0-0.15,80960,List2A,black,man,,,,null,,,,
null,"<img src=""stim_listA/touch3.gif""</stim_listA>",,html-keyboard-response,287,1020250,0.0-17.0-1.15,80960,List2A,black,man,,,,null,,,,
null,is touching,,html-keyboard-response,288,1022257,0.0-17.0-2.15,80960,List2A,black,man,,,,null,,,,
8798,,,survey-text,289,1031065,0.0-17.0-3.15,80960,List2A,black,man,,,,,"{""Q0"":""mike is touching kate""}","<img src=""stim_listA/touch3.gif""</stim_listA>",is touching,
null,"<div style=""font-size:60px;"">+</div>",,html-keyboard-response,290,1031573,0.0-17.0-0.16,80960,List2A,black,man,,,,null,,,,
null,"<img src=""stim_listA/kiss5.gif""</stim_listA>",,html-keyboard-response,291,1033585,0.0-17.0-1.16,80960,List2A,black,man,,,,null,,,,
null,is kissing,,html-keyboard-response,292,1035591,0.0-17.0-2.16,80960,List2A,black,man,,,,null,,,,
5615,,,survey-text,293,1041216,0.0-17.0-3.16,80960,List2A,black,man,,,,,"{""Q0"":""luke is kissing fred""}","<img src=""stim_listA/kiss5.gif""</stim_listA>",is kissing,
null,"<div style=""font-size:60px;"">+</div>",,html-keyboard-response,294,1041724,0.0-17.0-0.17,80960,List2A,black,man,,,,null,,,,
null,"<img src=""stim_listA/shout5.gif""</stim_listA>",,html-keyboard-response,295,1043736,0.0-17.0-1.17,80960,List2A,black,man,,,,null,,,,
null,is shouting at,,html-keyboard-response,296,1045742,0.0-17.0-2.17,80960,List2A,black,man,,,,null,,,,
6732,,,survey-text,297,1052483,0.0-17.0-3.17,80960,List2A,black,man,,,,,"{""Q0"":""luke is shouting at fred""}","<img src=""stim_listA/shout5.gif""</stim_listA>",is shouting at,
null,"<div style=""font-size:60px;"">+</div>",,html-keyboard-response,298,1052991,0.0-17.0-0.18,80960,List2A,black,man,,,,null,,,,
null,"<img src=""stim_listA/argue7.gif""</stim_listA>",,html-keyboard-response,299,1055004,0.0-17.0-1.18,80960,List2A,black,man,,,,null,,,,
null,is arguing with,,html-keyboard-response,300,1057011,0.0-17.0-2.18,80960,List2A,black,man,,,,null,,,,
8003,,,survey-text,301,1065023,0.0-17.0-3.18,80960,List2A,black,man,,,,,"{""Q0"":""jane is arguing with beth""}","<img src=""stim_listA/argue7.gif""</stim_listA>",is arguing with,
null,"<div style=""font-size:60px;"">+</div>",,html-keyboard-response,302,1065532,0.0-17.0-0.19,80960,List2A,black,man,,,,null,,,,
null,"<img src=""stim_listA/shout1.gif""</stim_listA>",,html-keyboard-response,303,1067551,0.0-17.0-1.19,80960,List2A,black,man,,,,null,,,,
null,is shouting at,,html-keyboard-response,304,1069558,0.0-17.0-2.19,80960,List2A,black,man,,,,null,,,,
6620,,,survey-text,305,1076188,0.0-17.0-3.19,80960,List2A,black,man,,,,,"{""Q0"":""luke is shouting at ruth""}","<img src=""stim_listA/shout1.gif""</stim_listA>",is shouting at,
2218,"<img src='img/portrait_matrix_list2.JPG' style='width:900px;height:500px;''></img><p>If you have memorised all the portraits and names and are ready to start, press Continue.</p><p><strong>Please note: Your memory of these faces will be tested 4 times during this experiment.</strong></p>",0,html-button-response,306,1078415,0.0-18.0-0.0,80960,List2A,black,man,,,,,,,,
2785,"<img src=""portrait/WW1.jpg""style=""width:400px;height:400px;""></img>",1,html-button-response,307,1082213,0.0-18.0-1.0,80960,List2A,black,man,,TRUE,1,,,,,
null,CORRECT,,html-keyboard-response,308,1083724,0.0-18.0-2.0-0.0,80960,List2A,black,man,,,,null,,,,
2438,"<img src=""portrait/BW1.jpg""style=""width:400px;height:400px;""></img>",0,html-button-response,309,1086173,0.0-18.0-4.0,80960,List2A,black,man,,TRUE,0,,,,,
null,CORRECT,,html-keyboard-response,310,1087682,0.0-18.0-5.0-0.0,80960,List2A,black,man,,,,null,,,,
2422,"<img src=""portrait/WW2.jpg""style=""width:400px;height:400px;""></img>",3,html-button-response,311,1090118,0.0-18.0-7.0,80960,List2A,black,man,,TRUE,3,,,,,
null,CORRECT,,html-keyboard-response,312,1091627,0.0-18.0-8.0-0.0,80960,List2A,black,man,,,,null,,,,
2015,"<img src=""portrait/WM1.jpg""style=""width:400px;height:400px;""></img>",6,html-button-response,313,1093657,0.0-18.0-10.0,80960,List2A,black,man,,TRUE,6,,,,,
null,CORRECT,,html-keyboard-response,314,1095166,0.0-18.0-11.0-0.0,80960,List2A,black,man,,,,null,,,,
1653,"<img src=""portrait/WM2.jpg""style=""width:400px;height:400px;""></img>",7,html-button-response,315,1096832,0.0-18.0-13.0,80960,List2A,black,man,,TRUE,7,,,,,
null,CORRECT,,html-keyboard-response,316,1098341,0.0-18.0-14.0-0.0,80960,List2A,black,man,,,,null,,,,
2020,"<img src=""portrait/BW2.jpg""style=""width:400px;height:400px;""></img>",2,html-button-response,317,1100374,0.0-18.0-16.0,80960,List2A,black,man,,TRUE,2,,,,,
null,CORRECT,,html-keyboard-response,318,1101884,0.0-18.0-17.0-0.0,80960,List2A,black,man,,,,null,,,,
2456,"<img src=""portrait/BM1.jpg""style=""width:400px;height:400px;""></img>",4,html-button-response,319,1104354,0.0-18.0-19.0,80960,List2A,black,man,,TRUE,4,,,,,
null,CORRECT,,html-keyboard-response,320,1105866,0.0-18.0-20.0-0.0,80960,List2A,black,man,,,,null,,,,
1675,"<img src=""portrait/BM2.jpg""style=""width:400px;height:400px;""></img>",5,html-button-response,321,1107555,0.0-18.0-22.0,80960,List2A,black,man,,TRUE,5,,,,,
null,CORRECT,,html-keyboard-response,322,1109065,0.0-18.0-23.0-0.0,80960,List2A,black,man,,,,null,,,,
1127,<p>You got 8 out of 8 right first time. Press Continue.</p>,0,html-button-response,323,1110206,0.0-18.0-25.0,80960,List2A,black,man,,,,,,,,
null,"<div style=""font-size:60px;"">+</div>",,html-keyboard-response,324,1111720,0.0-19.0-0.0,80960,List2A,black,man,,,,null,,,,
null,"<img src=""stim_listA/fight4.gif""</stim_listA>",,html-keyboard-response,325,1113734,0.0-19.0-1.0,80960,List2A,black,man,,,,null,,,,
null,are fighting each other,,html-keyboard-response,326,1115741,0.0-19.0-2.0,80960,List2A,black,man,,,,null,,,,
10264,,,survey-text,327,1126014,0.0-19.0-3.0,80960,List2A,black,man,,,,,"{""Q0"":""beth and fred are fighting each other""}","<img src=""stim_listA/fight4.gif""</stim_listA>",are fighting each other,
null,"<div style=""font-size:60px;"">+</div>",,html-keyboard-response,328,1126528,0.0-19.0-0.1,80960,List2A,black,man,,,,null,,,,
null,"<img src=""stim_listA/talk4.gif""</stim_listA>",,html-keyboard-response,329,1128541,0.0-19.0-1.1,80960,List2A,black,man,,,,null,,,,
null,are talking to each other,,html-keyboard-response,330,1130548,0.0-19.0-2.1,80960,List2A,black,man,,,,null,,,,
8809,,,survey-text,331,1139368,0.0-19.0-3.1,80960,List2A,black,man,,,,,"{""Q0"":""beth and mike are talking to each other""}","<img src=""stim_listA/talk4.gif""</stim_listA>",are talking to each other,
null,"<div style=""font-size:60px;"">+</div>",,html-keyboard-response,332,1139877,0.0-19.0-0.2,80960,List2A,black,man,,,,null,,,,
null,"<img src=""stim_listA/talk8.gif""</stim_listA>",,html-keyboard-response,333,1141889,0.0-19.0-1.2,80960,List2A,black,man,,,,null,,,,
null,are talking to each other,,html-keyboard-response,334,1143894,0.0-19.0-2.2,80960,List2A,black,man,,,,null,,,,
8500,,,survey-text,335,1152405,0.0-19.0-3.2,80960,List2A,black,man,,,,,"{""Q0"":""beth and jane are talking to each other""}","<img src=""stim_listA/talk8.gif""</stim_listA>",are talking to each other,
null,"<div style=""font-size:60px;"">+</div>",,html-keyboard-response,336,1152913,0.0-19.0-0.3,80960,List2A,black,man,,,,null,,,,
null,"<img src=""stim_listA/dance4.gif""</stim_listA>",,html-keyboard-response,337,1154926,0.0-19.0-1.3,80960,List2A,black,man,,,,null,,,,
null,are dancing with each other,,html-keyboard-response,338,1156934,0.0-19.0-2.3,80960,List2A,black,man,,,,null,,,,
11618,,,survey-text,339,1168561,0.0-19.0-3.3,80960,List2A,black,man,,,,,"{""Q0"":""beth and mike are dancing with each other""}","<img src=""stim_listA/dance4.gif""</stim_listA>",are dancing with each other,
null,"<div style=""font-size:60px;"">+</div>",,html-keyboard-response,340,1169071,0.0-19.0-0.4,80960,List2A,black,man,,,,null,,,,
null,"<img src=""stim_listA/dance8.gif""</stim_listA>",,html-keyboard-response,341,1171084,0.0-19.0-1.4,80960,List2A,black,man,,,,null,,,,
null,are dancing with each other,,html-keyboard-response,342,1173092,0.0-19.0-2.4,80960,List2A,black,man,,,,null,,,,
18308,,,survey-text,343,1191410,0.0-19.0-3.4,80960,List2A,black,man,,,,,"{""Q0"":""beth and jane are marrying each other""}","<img src=""stim_listA/dance8.gif""</stim_listA>",are dancing with each other,
null,"<div style=""font-size:60px;"">+</div>",,html-keyboard-response,344,1191916,0.0-19.0-0.5,80960,List2A,black,man,,,,null,,,,
null,"<img src=""stim_listA/marry7.gif""</stim_listA>",,html-keyboard-response,345,1193930,0.0-19.0-1.5,80960,List2A,black,man,,,,null,,,,
null,is marrying,,html-keyboard-response,346,1195937,0.0-19.0-2.5,80960,List2A,black,man,,,,null,,,,
10714,,,survey-text,347,1206658,0.0-19.0-3.5,80960,List2A,black,man,,,,,"{""Q0"":""beth and jane are dancing with each other""}","<img src=""stim_listA/marry7.gif""</stim_listA>",is marrying,
null,"<div style=""font-size:60px;"">+</div>",,html-keyboard-response,348,1207164,0.0-19.0-0.6,80960,List2A,black,man,,,,null,,,,
null,"<img src=""stim_listA/shout6.gif""</stim_listA>",,html-keyboard-response,349,1209178,0.0-19.0-1.6,80960,List2A,black,man,,,,null,,,,
null,are shouting at each other,,html-keyboard-response,350,1211185,0.0-19.0-2.6,80960,List2A,black,man,,,,null,,,,
8724,,,survey-text,351,1219917,0.0-19.0-3.6,80960,List2A,black,man,,,,,"{""Q0"":""mike and dave are shouting at each other""}","<img src=""stim_listA/shout6.gif""</stim_listA>",are shouting at each other,
null,"<div style=""font-size:60px;"">+</div>",,html-keyboard-response,352,1220423,0.0-19.0-0.7,80960,List2A,black,man,,,,null,,,,
null,"<img src=""stim_listA/shout4.gif""</stim_listA>",,html-keyboard-response,353,1222435,0.0-19.0-1.7,80960,List2A,black,man,,,,null,,,,
null,are shouting at each other,,html-keyboard-response,354,1224440,0.0-19.0-2.7,80960,List2A,black,man,,,,null,,,,
14411,,,survey-text,355,1238861,0.0-19.0-3.7,80960,List2A,black,man,,,,,"{""Q0"":""kate and mike are shouting at each other""}","<img src=""stim_listA/shout4.gif""</stim_listA>",are shouting at each other,
null,"<div style=""font-size:60px;"">+</div>",,html-keyboard-response,356,1239369,0.0-19.0-0.8,80960,List2A,black,man,,,,null,,,,
null,"<img src=""stim_listA/talk5.gif""</stim_listA>",,html-keyboard-response,357,1241378,0.0-19.0-1.8,80960,List2A,black,man,,,,null,,,,
null,is talking to,,html-keyboard-response,358,1243385,0.0-19.0-2.8,80960,List2A,black,man,,,,null,,,,
8043,,,survey-text,359,1251438,0.0-19.0-3.8,80960,List2A,black,man,,,,,"{""Q0"":""luke is talking to mike""}","<img src=""stim_listA/talk5.gif""</stim_listA>",is talking to,
null,"<div style=""font-size:60px;"">+</div>",,html-keyboard-response,360,1251945,0.0-19.0-0.9,80960,List2A,black,man,,,,null,,,,
null,"<img src=""stim_listA/dance5.gif""</stim_listA>",,html-keyboard-response,361,1253958,0.0-19.0-1.9,80960,List2A,black,man,,,,null,,,,
null,is dancing with,,html-keyboard-response,362,1255965,0.0-19.0-2.9,80960,List2A,black,man,,,,null,,,,
6309,,,survey-text,363,1262283,0.0-19.0-3.9,80960,List2A,black,man,,,,,"{""Q0"":""luke is dancing with mike""}","<img src=""stim_listA/dance5.gif""</stim_listA>",is dancing with,
null,"<div style=""font-size:60px;"">+</div>",,html-keyboard-response,364,1262806,0.0-19.0-0.10,80960,List2A,black,man,,,,null,,,,
null,"<img src=""stim_listA/talk3.gif""</stim_listA>",,html-keyboard-response,365,1264820,0.0-19.0-1.10,80960,List2A,black,man,,,,null,,,,
null,is talking to,,html-keyboard-response,366,1266828,0.0-19.0-2.10,80960,List2A,black,man,,,,null,,,,
7363,,,survey-text,367,1274203,0.0-19.0-3.10,80960,List2A,black,man,,,,,"{""Q0"":""fred is talking to kate""}","<img src=""stim_listA/talk3.gif""</stim_listA>",is talking to,
null,"<div style=""font-size:60px;"">+</div>",,html-keyboard-response,368,1274712,0.0-19.0-0.11,80960,List2A,black,man,,,,null,,,,
null,"<img src=""stim_listA/touch7.gif""</stim_listA>",,html-keyboard-response,369,1276724,0.0-19.0-1.11,80960,List2A,black,man,,,,null,,,,
null,is touching,,html-keyboard-response,370,1278729,0.0-19.0-2.11,80960,List2A,black,man,,,,null,,,,
7609,,,survey-text,371,1286346,0.0-19.0-3.11,80960,List2A,black,man,,,,,"{""Q0"":""jane is touching kate""}","<img src=""stim_listA/touch7.gif""</stim_listA>",is touching,
null,"<div style=""font-size:60px;"">+</div>",,html-keyboard-response,372,1286855,0.0-19.0-0.12,80960,List2A,black,man,,,,null,,,,
null,"<img src=""stim_listA/shout2.gif""</stim_listA>",,html-keyboard-response,373,1288868,0.0-19.0-1.12,80960,List2A,black,man,,,,null,,,,
null,are shouting at each other,,html-keyboard-response,374,1290876,0.0-19.0-2.12,80960,List2A,black,man,,,,null,,,,
9630,,,survey-text,375,1300517,0.0-19.0-3.12,80960,List2A,black,man,,,,,"{""Q0"":""jane and dave are shouting at each other""}","<img src=""stim_listA/shout2.gif""</stim_listA>",are shouting at each other,
null,"<div style=""font-size:60px;"">+</div>",,html-keyboard-response,376,1301025,0.0-19.0-0.13,80960,List2A,black,man,,,,null,,,,
null,"<img src=""stim_listA/argue6.gif""</stim_listA>",,html-keyboard-response,377,1303038,0.0-19.0-1.13,80960,List2A,black,man,,,,null,,,,
null,are arguing with each other,,html-keyboard-response,378,1305044,0.0-19.0-2.13,80960,List2A,black,man,,,,null,,,,
8552,,,survey-text,379,1313603,0.0-19.0-3.13,80960,List2A,black,man,,,,,"{""Q0"":""luke and mike are arguing with each other""}","<img src=""stim_listA/argue6.gif""</stim_listA>",are arguing with each other,
null,"<div style=""font-size:60px;"">+</div>",,html-keyboard-response,380,1314109,0.0-19.0-0.14,80960,List2A,black,man,,,,null,,,,
null,"<img src=""stim_listA/argue2.gif""</stim_listA>",,html-keyboard-response,381,1316123,0.0-19.0-1.14,80960,List2A,black,man,,,,null,,,,
null,are arguing with each other,,html-keyboard-response,382,1318130,0.0-19.0-2.14,80960,List2A,black,man,,,,null,,,,
7749,,,survey-text,383,1325889,0.0-19.0-3.14,80960,List2A,black,man,,,,,"{""Q0"":""jane and luke are arguing with each other""}","<img src=""stim_listA/argue2.gif""</stim_listA>",are arguing with each other,
null,"<div style=""font-size:60px;"">+</div>",,html-keyboard-response,384,1326396,0.0-19.0-0.15,80960,List2A,black,man,,,,null,,,,
null,"<img src=""stim_listA/meet2.gif""</stim_listA>",,html-keyboard-response,385,1328410,0.0-19.0-1.15,80960,List2A,black,man,,,,null,,,,
null,are meeting each other,,html-keyboard-response,386,1330417,0.0-19.0-2.15,80960,List2A,black,man,,,,null,,,,
9230,,,survey-text,387,1339658,0.0-19.0-3.15,80960,List2A,black,man,,,,,"{""Q0"":""ruth and luke are meeting each other""}","<img src=""stim_listA/meet2.gif""</stim_listA>",are meeting each other,
null,"<div style=""font-size:60px;"">+</div>",,html-keyboard-response,388,1340166,0.0-19.0-0.16,80960,List2A,black,man,,,,null,,,,
null,"<img src=""stim_listA/kiss3.gif""</stim_listA>",,html-keyboard-response,389,1342179,0.0-19.0-1.16,80960,List2A,black,man,,,,null,,,,
null,is kissing,,html-keyboard-response,390,1344184,0.0-19.0-2.16,80960,List2A,black,man,,,,null,,,,
5503,,,survey-text,391,1349696,0.0-19.0-3.16,80960,List2A,black,man,,,,,"{""Q0"":""beth is kissing fred""}","<img src=""stim_listA/kiss3.gif""</stim_listA>",is kissing,
null,"<div style=""font-size:60px;"">+</div>",,html-keyboard-response,392,1350202,0.0-19.0-0.17,80960,List2A,black,man,,,,null,,,,
null,"<img src=""stim_listA/touch5.gif""</stim_listA>",,html-keyboard-response,393,1352214,0.0-19.0-1.17,80960,List2A,black,man,,,,null,,,,
null,is touching,,html-keyboard-response,394,1354219,0.0-19.0-2.17,80960,List2A,black,man,,,,null,,,,
5869,,,survey-text,395,1360098,0.0-19.0-3.17,80960,List2A,black,man,,,,,"{""Q0"":""dave is touching mike""}","<img src=""stim_listA/touch5.gif""</stim_listA>",is touching,
null,"<div style=""font-size:60px;"">+</div>",,html-keyboard-response,396,1360607,0.0-19.0-0.18,80960,List2A,black,man,,,,null,,,,
null,"<img src=""stim_listA/argue1.gif""</stim_listA>",,html-keyboard-response,397,1362620,0.0-19.0-1.18,80960,List2A,black,man,,,,null,,,,
null,is arguing with,,html-keyboard-response,398,1364628,0.0-19.0-2.18,80960,List2A,black,man,,,,null,,,,
5939,,,survey-text,399,1370576,0.0-19.0-3.18,80960,List2A,black,man,,,,,"{""Q0"":""dave is arguing with ruth""}","<img src=""stim_listA/argue1.gif""</stim_listA>",is arguing with,
null,"<div style=""font-size:60px;"">+</div>",,html-keyboard-response,400,1371086,0.0-19.0-0.19,80960,List2A,black,man,,,,null,,,,
null,"<img src=""stim_listA/hug7.gif""</stim_listA>",,html-keyboard-response,401,1373099,0.0-19.0-1.19,80960,List2A,black,man,,,,null,,,,
null,is hugging,,html-keyboard-response,402,1375107,0.0-19.0-2.19,80960,List2A,black,man,,,,null,,,,
7417,,,survey-text,403,1382531,0.0-19.0-3.19,80960,List2A,black,man,,,,,"{""Q0"":""ruth is hugging beth""}","<img src=""stim_listA/hug7.gif""</stim_listA>",is hugging,
2814,<p>Thank you for completing that task.</p><p>The final part of this session is a short questionnaire.</p><p>Press Continue.</p>,0,html-button-response,404,1385353,0.0-20.0,80960,List2A,black,man,,,,,,,,
33235,,,survey-text,405,1419604,0.0-21.0,80960,List2A,black,man,,,,,"{""Q0"":""19"",""Q1"":""English"",""Q2"":""English"",""Q3"":""United States of America"",""Q4"":""Dominican"",""Q5"":""Male""}",,,demographics
48373,,,survey-likert,406,1468026,0.0-22.0,80960,List2A,black,man,,,,,"{""Q0"":4,""Q1"":1,""Q2"":2,""Q3"":5,""Q4"":3,""Q5"":4,""Q6"":4,""Q7"":2,""Q8"":4,""Q9"":4,""Q10"":0,""Q11"":0,""Q12"":5,""Q13"":5}",,,likert_race
57275,,,survey-likert,407,1525329,0.0-23.0,80960,List2A,black,man,,,,,"{""Q0"":4,""Q1"":2,""Q2"":2,""Q3"":4,""Q4"":1,""Q5"":4,""Q6"":4,""Q7"":2,""Q8"":4,""Q9"":4,""Q10"":0,""Q11"":0,""Q12"":4,""Q13"":4}",,,likert_gender
3771,,,survey-text,408,1529112,0.0-24.0,80960,List2A,black,man,,,,,"{""Q0"":""ccc""}",,,worker_id
18737,,,external-html,409,1548132,0.0-25.0,80960,List2A,black,man,debrief.html,,,,,,,
