rt,stimulus,button_pressed,trial_type,trial_index,time_elapsed,internal_node_id,subject,list,ppt_race,ppt_gender,url,first_guess,correct,key_press,responses,image_type,phrase_type,test_part
3181,Welcome to the experiment. Press Continue to begin.,0,html-button-response,0,3196,0.0-0.0,81029,List1B,white,woman,,,,,,,,
25338,,,external-html,1,29570,0.0-1.0,81029,List1B,white,woman,consent.html,,,,,,,
8003,"<p>On the next page, you will see portraits of 8 people and their names.</p><p>Your first task is to take a few minutes to memorise the names of these people.</p><p>You will have to recall their names during the rest of the experiment, so it is</p><p>essential that you try to memorise these people and their names as best as you can.</p><br><p><strong>You will then be tested on your memory of these names and portraits.</strong></p><br><p>The experiment will start after you have completed this memory test.</p><br><p>Ready?</p>",0,html-button-response,2,37573,0.0-2.0,81029,List1B,white,woman,,,,,,,,
53121,"<img src='img/portrait_matrix_list1.JPG' style='width:900px;height:500px;''></img><p>If you have memorised all the portraits and names and are ready to start, press Continue.</p><p><strong>Please note: Your memory of these faces will be tested 4 times during this experiment.</strong></p>",0,html-button-response,3,91697,0.0-3.0-0.0,81029,List1B,white,woman,,,,,,,,
2728,"<img src=""portrait/WM1.jpg""style=""width:400px;height:400px;""></img>",6,html-button-response,4,95429,0.0-3.0-1.0,81029,List1B,white,woman,,TRUE,6,,,,,
null,CORRECT,,html-keyboard-response,5,96935,0.0-3.0-2.0-0.0,81029,List1B,white,woman,,,,null,,,,
2158,"<img src=""portrait/WW2.jpg""style=""width:400px;height:400px;""></img>",3,html-button-response,6,99095,0.0-3.0-4.0,81029,List1B,white,woman,,TRUE,3,,,,,
null,CORRECT,,html-keyboard-response,7,100599,0.0-3.0-5.0-0.0,81029,List1B,white,woman,,,,null,,,,
4672,"<img src=""portrait/BW1.jpg""style=""width:400px;height:400px;""></img>",0,html-button-response,8,105273,0.0-3.0-7.0,81029,List1B,white,woman,,TRUE,0,,,,,
null,CORRECT,,html-keyboard-response,9,106776,0.0-3.0-8.0-0.0,81029,List1B,white,woman,,,,null,,,,
1398,"<img src=""portrait/BM1.jpg""style=""width:400px;height:400px;""></img>",4,html-button-response,10,108175,0.0-3.0-10.0,81029,List1B,white,woman,,TRUE,4,,,,,
null,CORRECT,,html-keyboard-response,11,109679,0.0-3.0-11.0-0.0,81029,List1B,white,woman,,,,null,,,,
3055,"<img src=""portrait/WM2.jpg""style=""width:400px;height:400px;""></img>",7,html-button-response,12,112735,0.0-3.0-13.0,81029,List1B,white,woman,,TRUE,7,,,,,
null,CORRECT,,html-keyboard-response,13,114240,0.0-3.0-14.0-0.0,81029,List1B,white,woman,,,,null,,,,
4209,"<img src=""portrait/BM2.jpg""style=""width:400px;height:400px;""></img>",5,html-button-response,14,118451,0.0-3.0-16.0,81029,List1B,white,woman,,TRUE,5,,,,,
null,CORRECT,,html-keyboard-response,15,119956,0.0-3.0-17.0-0.0,81029,List1B,white,woman,,,,null,,,,
17432,"<img src=""portrait/BW2.jpg""style=""width:400px;height:400px;""></img>",1,html-button-response,16,137390,0.0-3.0-19.0,81029,List1B,white,woman,,TRUE,2,,,,,
2442,"<img src=""portrait/BW2.jpg""style=""width:400px;height:400px;""></img>",2,html-button-response,17,140835,0.0-3.0-21.0-0.0,81029,List1B,white,woman,,FALSE,2,,,,,
null,CORRECT,,html-keyboard-response,18,142339,0.0-3.0-21.0-1.0-0.0,81029,List1B,white,woman,,,,null,,,,
3256,"<img src=""portrait/WW1.jpg""style=""width:400px;height:400px;""></img>",1,html-button-response,19,145597,0.0-3.0-22.0,81029,List1B,white,woman,,TRUE,1,,,,,
null,CORRECT,,html-keyboard-response,20,147100,0.0-3.0-23.0-0.0,81029,List1B,white,woman,,,,null,,,,
1286,<p>You got 7 out of 8 right first time. Press Continue.</p>,0,html-button-response,21,148387,0.0-3.0-25.0,81029,List1B,white,woman,,,,,,,,
1624,"As you did not score 100%, the memory game will repeat. Press Continue.",0,html-button-response,22,151015,0.0-3.0-26.0-0.0,81029,List1B,white,woman,,,,,,,,
2434,"<img src='img/portrait_matrix_list1.JPG' style='width:900px;height:500px;''></img><p>If you have memorised all the portraits and names and are ready to start, press Continue.</p><p><strong>Please note: Your memory of these faces will be tested 4 times during this experiment.</strong></p>",0,html-button-response,23,154453,0.0-3.1-0.1,81029,List1B,white,woman,,,,,,,,
1832,"<img src=""portrait/WM1.jpg""style=""width:400px;height:400px;""></img>",6,html-button-response,24,157289,0.0-3.1-1.1,81029,List1B,white,woman,,TRUE,6,,,,,
null,CORRECT,,html-keyboard-response,25,158792,0.0-3.1-2.1-0.1,81029,List1B,white,woman,,,,null,,,,
2328,"<img src=""portrait/WW2.jpg""style=""width:400px;height:400px;""></img>",1,html-button-response,26,161121,0.0-3.1-4.1,81029,List1B,white,woman,,TRUE,3,,,,,
2291,"<img src=""portrait/WW2.jpg""style=""width:400px;height:400px;""></img>",3,html-button-response,27,164413,0.0-3.1-6.1-0.1,81029,List1B,white,woman,,FALSE,3,,,,,
null,CORRECT,,html-keyboard-response,28,165917,0.0-3.1-6.1-1.1-0.1,81029,List1B,white,woman,,,,null,,,,
2956,"<img src=""portrait/BW1.jpg""style=""width:400px;height:400px;""></img>",0,html-button-response,29,168875,0.0-3.1-7.1,81029,List1B,white,woman,,TRUE,0,,,,,
null,CORRECT,,html-keyboard-response,30,170378,0.0-3.1-8.1-0.1,81029,List1B,white,woman,,,,null,,,,
2072,"<img src=""portrait/BM1.jpg""style=""width:400px;height:400px;""></img>",4,html-button-response,31,172451,0.0-3.1-10.1,81029,List1B,white,woman,,TRUE,4,,,,,
null,CORRECT,,html-keyboard-response,32,173956,0.0-3.1-11.1-0.1,81029,List1B,white,woman,,,,null,,,,
1738,"<img src=""portrait/WM2.jpg""style=""width:400px;height:400px;""></img>",7,html-button-response,33,175695,0.0-3.1-13.1,81029,List1B,white,woman,,TRUE,7,,,,,
null,CORRECT,,html-keyboard-response,34,177200,0.0-3.1-14.1-0.1,81029,List1B,white,woman,,,,null,,,,
2075,"<img src=""portrait/BM2.jpg""style=""width:400px;height:400px;""></img>",5,html-button-response,35,179277,0.0-3.1-16.1,81029,List1B,white,woman,,TRUE,5,,,,,
null,CORRECT,,html-keyboard-response,36,180781,0.0-3.1-17.1-0.1,81029,List1B,white,woman,,,,null,,,,
1325,"<img src=""portrait/BW2.jpg""style=""width:400px;height:400px;""></img>",2,html-button-response,37,182107,0.0-3.1-19.1,81029,List1B,white,woman,,TRUE,2,,,,,
null,CORRECT,,html-keyboard-response,38,183608,0.0-3.1-20.1-0.1,81029,List1B,white,woman,,,,null,,,,
1927,"<img src=""portrait/WW1.jpg""style=""width:400px;height:400px;""></img>",1,html-button-response,39,185537,0.0-3.1-22.1,81029,List1B,white,woman,,TRUE,1,,,,,
null,CORRECT,,html-keyboard-response,40,187040,0.0-3.1-23.1-0.1,81029,List1B,white,woman,,,,null,,,,
812,<p>You got 7 out of 8 right first time. Press Continue.</p>,0,html-button-response,41,187853,0.0-3.1-25.1,81029,List1B,white,woman,,,,,,,,
888,"As you did not score 100%, the memory game will repeat. Press Continue.",0,html-button-response,42,189743,0.0-3.1-26.1-0.1,81029,List1B,white,woman,,,,,,,,
1521,"<img src='img/portrait_matrix_list1.JPG' style='width:900px;height:500px;''></img><p>If you have memorised all the portraits and names and are ready to start, press Continue.</p><p><strong>Please note: Your memory of these faces will be tested 4 times during this experiment.</strong></p>",0,html-button-response,43,192267,0.0-3.2-0.2,81029,List1B,white,woman,,,,,,,,
1369,"<img src=""portrait/WM1.jpg""style=""width:400px;height:400px;""></img>",6,html-button-response,44,194639,0.0-3.2-1.2,81029,List1B,white,woman,,TRUE,6,,,,,
null,CORRECT,,html-keyboard-response,45,196142,0.0-3.2-2.2-0.2,81029,List1B,white,woman,,,,null,,,,
1068,"<img src=""portrait/WW2.jpg""style=""width:400px;height:400px;""></img>",3,html-button-response,46,197211,0.0-3.2-4.2,81029,List1B,white,woman,,TRUE,3,,,,,
null,CORRECT,,html-keyboard-response,47,198714,0.0-3.2-5.2-0.2,81029,List1B,white,woman,,,,null,,,,
1878,"<img src=""portrait/BW1.jpg""style=""width:400px;height:400px;""></img>",0,html-button-response,48,200593,0.0-3.2-7.2,81029,List1B,white,woman,,TRUE,0,,,,,
null,CORRECT,,html-keyboard-response,49,202097,0.0-3.2-8.2-0.2,81029,List1B,white,woman,,,,null,,,,
3356,"<img src=""portrait/BM1.jpg""style=""width:400px;height:400px;""></img>",4,html-button-response,50,205455,0.0-3.2-10.2,81029,List1B,white,woman,,TRUE,4,,,,,
null,CORRECT,,html-keyboard-response,51,206957,0.0-3.2-11.2-0.2,81029,List1B,white,woman,,,,null,,,,
1550,"<img src=""portrait/WM2.jpg""style=""width:400px;height:400px;""></img>",7,html-button-response,52,208509,0.0-3.2-13.2,81029,List1B,white,woman,,TRUE,7,,,,,
null,CORRECT,,html-keyboard-response,53,210011,0.0-3.2-14.2-0.2,81029,List1B,white,woman,,,,null,,,,
4529,"<img src=""portrait/BM2.jpg""style=""width:400px;height:400px;""></img>",5,html-button-response,54,214545,0.0-3.2-16.2,81029,List1B,white,woman,,TRUE,5,,,,,
null,CORRECT,,html-keyboard-response,55,216048,0.0-3.2-17.2-0.2,81029,List1B,white,woman,,,,null,,,,
1266,"<img src=""portrait/BW2.jpg""style=""width:400px;height:400px;""></img>",2,html-button-response,56,217317,0.0-3.2-19.2,81029,List1B,white,woman,,TRUE,2,,,,,
null,CORRECT,,html-keyboard-response,57,218822,0.0-3.2-20.2-0.2,81029,List1B,white,woman,,,,null,,,,
1468,"<img src=""portrait/WW1.jpg""style=""width:400px;height:400px;""></img>",1,html-button-response,58,220291,0.0-3.2-22.2,81029,List1B,white,woman,,TRUE,1,,,,,
null,CORRECT,,html-keyboard-response,59,221796,0.0-3.2-23.2-0.2,81029,List1B,white,woman,,,,null,,,,
1188,<p>You got 8 out of 8 right first time. Press Continue.</p>,0,html-button-response,60,222985,0.0-3.2-25.2,81029,List1B,white,woman,,,,,,,,
25231,"<p>In this experiment, you will view photographs of the people from the memory game interacting.</p><p>By using the <strong>exact</strong> phrase given <i>after</i> the photograph appears and recalling the correct names of the people in the photographs, form a sentence describing the interaction. You do not need to capitalise names.</p><p>Type your answer in the space provided. Please complete every sentence before moving onto the next trial.</p><p>You will only have a few seconds to memorise each given photograph and phrase before you can respond, so try your best to focus.</p><p>An example is given below. Press 'Continue' when you are ready.</p><img src='img/speaking_example_v2.jpg' style='width:800px;height:460px;''></img>",0,html-button-response,61,249217,0.0-4.0,81029,List1B,white,woman,,,,,,,,
2610,"<p>Before the experiment starts, you will watch two example trials. Press 'Continue'.</p>",0,html-button-response,62,252829,0.0-5.0,81029,List1B,white,woman,,,,,,,,
null,<img src='img/speaking_WW.gif'></img>,,html-keyboard-response,63,255832,0.0-6.0,81029,List1B,white,woman,,,,null,,,,
null,<p>is speaking to</p>,,html-keyboard-response,64,257835,0.0-7.0,81029,List1B,white,woman,,,,null,,,,
1903,<p><b>Answer:</b> kate is speaking to beth</p>,0,html-button-response,65,259739,0.0-8.0,81029,List1B,white,woman,,,,,,,,
null,<img src='img/pointing_BM.gif'></img>,,html-keyboard-response,66,262743,0.0-9.0,81029,List1B,white,woman,,,,null,,,,
null,<p>are pointing at each other</p>,,html-keyboard-response,67,264746,0.0-10.0,81029,List1B,white,woman,,,,null,,,,
1307,<p><b>Answer:</b> luke and dave are pointing at each other</p>,0,html-button-response,68,266054,0.0-11.0,81029,List1B,white,woman,,,,,,,,
8927,"<p>Ready to start the experiment?</p><br><p><strong>Remember to describe the picture using a full sentence,</strong></p><p><strong>that combines the names of the people with the given phrase.</strong></p><p><strong>If you do not do this correctly you will not be paid.</strong></p><p><strong> You do not need to capitalise names or use punctuation.</strong></p><br><p>Press 'Continue' to begin.</p>",0,html-button-response,69,275985,0.0-12.0,81029,List1B,white,woman,,,,,,,,
null,"<div style=""font-size:60px;"">+</div>",,html-keyboard-response,70,277489,0.0-13.0-0.0,81029,List1B,white,woman,,,,null,,,,
null,"<img src=""stim_listB/kiss2.gif""</stim_listB>",,html-keyboard-response,71,279493,0.0-13.0-1.0,81029,List1B,white,woman,,,,null,,,,
null,are kissing each other,,html-keyboard-response,72,281495,0.0-13.0-2.0,81029,List1B,white,woman,,,,null,,,,
11670,,,survey-text,73,293165,0.0-13.0-3.0,81029,List1B,white,woman,,,,,"{""Q0"":""mike and kate are kissing each other""}","<img src=""stim_listB/kiss2.gif""</stim_listB>",are kissing each other,
null,"<div style=""font-size:60px;"">+</div>",,html-keyboard-response,74,293667,0.0-13.0-0.1,81029,List1B,white,woman,,,,null,,,,
null,"<img src=""stim_listB/meet4.gif""</stim_listB>",,html-keyboard-response,75,295669,0.0-13.0-1.1,81029,List1B,white,woman,,,,null,,,,
null,are meeting each other,,html-keyboard-response,76,297671,0.0-13.0-2.1,81029,List1B,white,woman,,,,null,,,,
8070,,,survey-text,77,305743,0.0-13.0-3.1,81029,List1B,white,woman,,,,,"{""Q0"":""luke and ruth are meeting each other""}","<img src=""stim_listB/meet4.gif""</stim_listB>",are meeting each other,
null,"<div style=""font-size:60px;"">+</div>",,html-keyboard-response,78,306244,0.0-13.0-0.2,81029,List1B,white,woman,,,,null,,,,
null,"<img src=""stim_listB/talk8.gif""</stim_listB>",,html-keyboard-response,79,308248,0.0-13.0-1.2,81029,List1B,white,woman,,,,null,,,,
null,are talking to each other,,html-keyboard-response,80,310249,0.0-13.0-2.2,81029,List1B,white,woman,,,,null,,,,
8556,,,survey-text,81,318806,0.0-13.0-3.2,81029,List1B,white,woman,,,,,"{""Q0"":""kate and ruth are talking to each other""}","<img src=""stim_listB/talk8.gif""</stim_listB>",are talking to each other,
null,"<div style=""font-size:60px;"">+</div>",,html-keyboard-response,82,319309,0.0-13.0-0.3,81029,List1B,white,woman,,,,null,,,,
null,"<img src=""stim_listB/hug1.gif""</stim_listB>",,html-keyboard-response,83,321312,0.0-13.0-1.3,81029,List1B,white,woman,,,,null,,,,
null,is hugging,,html-keyboard-response,84,323313,0.0-13.0-2.3,81029,List1B,white,woman,,,,null,,,,
11446,,,survey-text,85,334760,0.0-13.0-3.3,81029,List1B,white,woman,,,,,"{""Q0"":""fred is hugging beth""}","<img src=""stim_listB/hug1.gif""</stim_listB>",is hugging,
null,"<div style=""font-size:60px;"">+</div>",,html-keyboard-response,86,335261,0.0-13.0-0.4,81029,List1B,white,woman,,,,null,,,,
null,"<img src=""stim_listB/hug5.gif""</stim_listB>",,html-keyboard-response,87,337265,0.0-13.0-1.4,81029,List1B,white,woman,,,,null,,,,
null,is hugging,,html-keyboard-response,88,339267,0.0-13.0-2.4,81029,List1B,white,woman,,,,null,,,,
5449,,,survey-text,89,344717,0.0-13.0-3.4,81029,List1B,white,woman,,,,,"{""Q0"":""luke is hugging fred""}","<img src=""stim_listB/hug5.gif""</stim_listB>",is hugging,
null,"<div style=""font-size:60px;"">+</div>",,html-keyboard-response,90,345218,0.0-13.0-0.5,81029,List1B,white,woman,,,,null,,,,
null,"<img src=""stim_listB/shout5.gif""</stim_listB>",,html-keyboard-response,91,347220,0.0-13.0-1.5,81029,List1B,white,woman,,,,null,,,,
null,is shouting at,,html-keyboard-response,92,349223,0.0-13.0-2.5,81029,List1B,white,woman,,,,null,,,,
7566,,,survey-text,93,356791,0.0-13.0-3.5,81029,List1B,white,woman,,,,,"{""Q0"":""luke is shouting at fred""}","<img src=""stim_listB/shout5.gif""</stim_listB>",is shouting at,
null,"<div style=""font-size:60px;"">+</div>",,html-keyboard-response,94,357291,0.0-13.0-0.6,81029,List1B,white,woman,,,,null,,,,
null,"<img src=""stim_listB/hug6.gif""</stim_listB>",,html-keyboard-response,95,359295,0.0-13.0-1.6,81029,List1B,white,woman,,,,null,,,,
null,are hugging each other,,html-keyboard-response,96,361298,0.0-13.0-2.6,81029,List1B,white,woman,,,,null,,,,
8268,,,survey-text,97,369566,0.0-13.0-3.6,81029,List1B,white,woman,,,,,"{""Q0"":""mike and dave are hugging each other""}","<img src=""stim_listB/hug6.gif""</stim_listB>",are hugging each other,
null,"<div style=""font-size:60px;"">+</div>",,html-keyboard-response,98,370067,0.0-13.0-0.7,81029,List1B,white,woman,,,,null,,,,
null,"<img src=""stim_listB/marry4.gif""</stim_listB>",,html-keyboard-response,99,372071,0.0-13.0-1.7,81029,List1B,white,woman,,,,null,,,,
null,are marrying each other,,html-keyboard-response,100,374073,0.0-13.0-2.7,81029,List1B,white,woman,,,,null,,,,
7399,,,survey-text,101,381473,0.0-13.0-3.7,81029,List1B,white,woman,,,,,"{""Q0"":""luke and jane are marrying each other""}","<img src=""stim_listB/marry4.gif""</stim_listB>",are marrying each other,
null,"<div style=""font-size:60px;"">+</div>",,html-keyboard-response,102,381974,0.0-13.0-0.8,81029,List1B,white,woman,,,,null,,,,
null,"<img src=""stim_listB/hug3.gif""</stim_listB>",,html-keyboard-response,103,383977,0.0-13.0-1.8,81029,List1B,white,woman,,,,null,,,,
null,is hugging,,html-keyboard-response,104,385979,0.0-13.0-2.8,81029,List1B,white,woman,,,,null,,,,
10717,,,survey-text,105,396697,0.0-13.0-3.8,81029,List1B,white,woman,,,,,"{""Q0"":""ruth is hugging luke""}","<img src=""stim_listB/hug3.gif""</stim_listB>",is hugging,
null,"<div style=""font-size:60px;"">+</div>",,html-keyboard-response,106,397198,0.0-13.0-0.9,81029,List1B,white,woman,,,,null,,,,
null,"<img src=""stim_listB/dance7.gif""</stim_listB>",,html-keyboard-response,107,399202,0.0-13.0-1.9,81029,List1B,white,woman,,,,null,,,,
null,is dancing with,,html-keyboard-response,108,401204,0.0-13.0-2.9,81029,List1B,white,woman,,,,null,,,,
6426,,,survey-text,109,407631,0.0-13.0-3.9,81029,List1B,white,woman,,,,,"{""Q0"":""jane is dancing with beth""}","<img src=""stim_listB/dance7.gif""</stim_listB>",is dancing with,
null,"<div style=""font-size:60px;"">+</div>",,html-keyboard-response,110,408132,0.0-13.0-0.10,81029,List1B,white,woman,,,,null,,,,
null,"<img src=""stim_listB/argue4.gif""</stim_listB>",,html-keyboard-response,111,410134,0.0-13.0-1.10,81029,List1B,white,woman,,,,null,,,,
null,are arguing with each other,,html-keyboard-response,112,412135,0.0-13.0-2.10,81029,List1B,white,woman,,,,null,,,,
8652,,,survey-text,113,420787,0.0-13.0-3.10,81029,List1B,white,woman,,,,,"{""Q0"":""luke and jane are arguing with each other""}","<img src=""stim_listB/argue4.gif""</stim_listB>",are arguing with each other,
null,"<div style=""font-size:60px;"">+</div>",,html-keyboard-response,114,421288,0.0-13.0-0.11,81029,List1B,white,woman,,,,null,,,,
null,"<img src=""stim_listB/touch6.gif""</stim_listB>",,html-keyboard-response,115,423292,0.0-13.0-1.11,81029,List1B,white,woman,,,,null,,,,
null,are touching each other,,html-keyboard-response,116,425294,0.0-13.0-2.11,81029,List1B,white,woman,,,,null,,,,
8502,,,survey-text,117,433797,0.0-13.0-3.11,81029,List1B,white,woman,,,,,"{""Q0"":""luke and fred are touching each other""}","<img src=""stim_listB/touch6.gif""</stim_listB>",are touching each other,
null,"<div style=""font-size:60px;"">+</div>",,html-keyboard-response,118,434298,0.0-13.0-0.12,81029,List1B,white,woman,,,,null,,,,
null,"<img src=""stim_listB/argue8.gif""</stim_listB>",,html-keyboard-response,119,436302,0.0-13.0-1.12,81029,List1B,white,woman,,,,null,,,,
null,are arguing with each other,,html-keyboard-response,120,438305,0.0-13.0-2.12,81029,List1B,white,woman,,,,null,,,,
7115,,,survey-text,121,445421,0.0-13.0-3.12,81029,List1B,white,woman,,,,,"{""Q0"":""jane and beth are arguing with each other""}","<img src=""stim_listB/argue8.gif""</stim_listB>",are arguing with each other,
null,"<div style=""font-size:60px;"">+</div>",,html-keyboard-response,122,445922,0.0-13.0-0.13,81029,List1B,white,woman,,,,null,,,,
null,"<img src=""stim_listB/fight5.gif""</stim_listB>",,html-keyboard-response,123,447924,0.0-13.0-1.13,81029,List1B,white,woman,,,,null,,,,
null,is fighting,,html-keyboard-response,124,449927,0.0-13.0-2.13,81029,List1B,white,woman,,,,null,,,,
7132,,,survey-text,125,457061,0.0-13.0-3.13,81029,List1B,white,woman,,,,,"{""Q0"":""mike is fighting dave""}","<img src=""stim_listB/fight5.gif""</stim_listB>",is fighting,
null,"<div style=""font-size:60px;"">+</div>",,html-keyboard-response,126,457562,0.0-13.0-0.14,81029,List1B,white,woman,,,,null,,,,
null,"<img src=""stim_listB/argue1.gif""</stim_listB>",,html-keyboard-response,127,459565,0.0-13.0-1.14,81029,List1B,white,woman,,,,null,,,,
null,is arguing with,,html-keyboard-response,128,461567,0.0-13.0-2.14,81029,List1B,white,woman,,,,null,,,,
5520,,,survey-text,129,467089,0.0-13.0-3.14,81029,List1B,white,woman,,,,,"{""Q0"":""mike is arguing with beth""}","<img src=""stim_listB/argue1.gif""</stim_listB>",is arguing with,
null,"<div style=""font-size:60px;"">+</div>",,html-keyboard-response,130,467590,0.0-13.0-0.15,81029,List1B,white,woman,,,,null,,,,
null,"<img src=""stim_listB/dance4.gif""</stim_listB>",,html-keyboard-response,131,469592,0.0-13.0-1.15,81029,List1B,white,woman,,,,null,,,,
null,are dancing with each other,,html-keyboard-response,132,471594,0.0-13.0-2.15,81029,List1B,white,woman,,,,null,,,,
7752,,,survey-text,133,479347,0.0-13.0-3.15,81029,List1B,white,woman,,,,,"{""Q0"":""ruth and dave are dancing with each other""}","<img src=""stim_listB/dance4.gif""</stim_listB>",are dancing with each other,
null,"<div style=""font-size:60px;"">+</div>",,html-keyboard-response,134,479848,0.0-13.0-0.16,81029,List1B,white,woman,,,,null,,,,
null,"<img src=""stim_listB/touch3.gif""</stim_listB>",,html-keyboard-response,135,481851,0.0-13.0-1.16,81029,List1B,white,woman,,,,null,,,,
null,is touching,,html-keyboard-response,136,483854,0.0-13.0-2.16,81029,List1B,white,woman,,,,null,,,,
6392,,,survey-text,137,490247,0.0-13.0-3.16,81029,List1B,white,woman,,,,,"{""Q0"":""dave is touching jane""}","<img src=""stim_listB/touch3.gif""</stim_listB>",is touching,
null,"<div style=""font-size:60px;"">+</div>",,html-keyboard-response,138,490749,0.0-13.0-0.17,81029,List1B,white,woman,,,,null,,,,
null,"<img src=""stim_listB/fight2.gif""</stim_listB>",,html-keyboard-response,139,492752,0.0-13.0-1.17,81029,List1B,white,woman,,,,null,,,,
null,are fighting each other,,html-keyboard-response,140,494753,0.0-13.0-2.17,81029,List1B,white,woman,,,,null,,,,
7864,,,survey-text,141,502617,0.0-13.0-3.17,81029,List1B,white,woman,,,,,"{""Q0"":""fred and beth are fighting each other""}","<img src=""stim_listB/fight2.gif""</stim_listB>",are fighting each other,
null,"<div style=""font-size:60px;"">+</div>",,html-keyboard-response,142,503118,0.0-13.0-0.18,81029,List1B,white,woman,,,,null,,,,
null,"<img src=""stim_listB/talk7.gif""</stim_listB>",,html-keyboard-response,143,505121,0.0-13.0-1.18,81029,List1B,white,woman,,,,null,,,,
null,is talking to,,html-keyboard-response,144,507122,0.0-13.0-2.18,81029,List1B,white,woman,,,,null,,,,
5650,,,survey-text,145,512773,0.0-13.0-3.18,81029,List1B,white,woman,,,,,"{""Q0"":""jane is talking to beth""}","<img src=""stim_listB/talk7.gif""</stim_listB>",is talking to,
null,"<div style=""font-size:60px;"">+</div>",,html-keyboard-response,146,513275,0.0-13.0-0.19,81029,List1B,white,woman,,,,null,,,,
null,"<img src=""stim_listB/shout6.gif""</stim_listB>",,html-keyboard-response,147,515279,0.0-13.0-1.19,81029,List1B,white,woman,,,,null,,,,
null,are shouting at each other,,html-keyboard-response,148,517280,0.0-13.0-2.19,81029,List1B,white,woman,,,,null,,,,
5960,,,survey-text,149,523241,0.0-13.0-3.19,81029,List1B,white,woman,,,,,"{""Q0"":""mike and dave are shouting at each other""}","<img src=""stim_listB/shout6.gif""</stim_listB>",are shouting at each other,
3983,"<img src='img/portrait_matrix_list1.JPG' style='width:900px;height:500px;''></img><p>If you have memorised all the portraits and names and are ready to start, press Continue.</p><p><strong>Please note: Your memory of these faces will be tested 4 times during this experiment.</strong></p>",0,html-button-response,150,527225,0.0-14.0-0.0,81029,List1B,white,woman,,,,,,,,
1906,"<img src=""portrait/WW2.jpg""style=""width:400px;height:400px;""></img>",3,html-button-response,151,530133,0.0-14.0-1.0,81029,List1B,white,woman,,TRUE,3,,,,,
null,CORRECT,,html-keyboard-response,152,531636,0.0-14.0-2.0-0.0,81029,List1B,white,woman,,,,null,,,,
1950,"<img src=""portrait/BW1.jpg""style=""width:400px;height:400px;""></img>",0,html-button-response,153,533588,0.0-14.0-4.0,81029,List1B,white,woman,,TRUE,0,,,,,
null,CORRECT,,html-keyboard-response,154,535090,0.0-14.0-5.0-0.0,81029,List1B,white,woman,,,,null,,,,
1309,"<img src=""portrait/BM2.jpg""style=""width:400px;height:400px;""></img>",5,html-button-response,155,536401,0.0-14.0-7.0,81029,List1B,white,woman,,TRUE,5,,,,,
null,CORRECT,,html-keyboard-response,156,537906,0.0-14.0-8.0-0.0,81029,List1B,white,woman,,,,null,,,,
2339,"<img src=""portrait/WM2.jpg""style=""width:400px;height:400px;""></img>",7,html-button-response,157,540247,0.0-14.0-10.0,81029,List1B,white,woman,,TRUE,7,,,,,
null,CORRECT,,html-keyboard-response,158,541751,0.0-14.0-11.0-0.0,81029,List1B,white,woman,,,,null,,,,
1701,"<img src=""portrait/WM1.jpg""style=""width:400px;height:400px;""></img>",6,html-button-response,159,543453,0.0-14.0-13.0,81029,List1B,white,woman,,TRUE,6,,,,,
null,CORRECT,,html-keyboard-response,160,544958,0.0-14.0-14.0-0.0,81029,List1B,white,woman,,,,null,,,,
1267,"<img src=""portrait/BW2.jpg""style=""width:400px;height:400px;""></img>",2,html-button-response,161,546227,0.0-14.0-16.0,81029,List1B,white,woman,,TRUE,2,,,,,
null,CORRECT,,html-keyboard-response,162,547732,0.0-14.0-17.0-0.0,81029,List1B,white,woman,,,,null,,,,
2052,"<img src=""portrait/WW1.jpg""style=""width:400px;height:400px;""></img>",1,html-button-response,163,549785,0.0-14.0-19.0,81029,List1B,white,woman,,TRUE,1,,,,,
null,CORRECT,,html-keyboard-response,164,551286,0.0-14.0-20.0-0.0,81029,List1B,white,woman,,,,null,,,,
1519,"<img src=""portrait/BM1.jpg""style=""width:400px;height:400px;""></img>",4,html-button-response,165,552807,0.0-14.0-22.0,81029,List1B,white,woman,,TRUE,4,,,,,
null,CORRECT,,html-keyboard-response,166,554310,0.0-14.0-23.0-0.0,81029,List1B,white,woman,,,,null,,,,
1099,<p>You got 8 out of 8 right first time. Press Continue.</p>,0,html-button-response,167,555411,0.0-14.0-25.0,81029,List1B,white,woman,,,,,,,,
null,"<div style=""font-size:60px;"">+</div>",,html-keyboard-response,168,556915,0.0-15.0-0.0,81029,List1B,white,woman,,,,null,,,,
null,"<img src=""stim_listB/shout1.gif""</stim_listB>",,html-keyboard-response,169,558918,0.0-15.0-1.0,81029,List1B,white,woman,,,,null,,,,
null,is shouting at,,html-keyboard-response,170,560919,0.0-15.0-2.0,81029,List1B,white,woman,,,,null,,,,
6704,,,survey-text,171,567625,0.0-15.0-3.0,81029,List1B,white,woman,,,,,"{""Q0"":""fred is shouting at beth""}","<img src=""stim_listB/shout1.gif""</stim_listB>",is shouting at,
null,"<div style=""font-size:60px;"">+</div>",,html-keyboard-response,172,568126,0.0-15.0-0.1,81029,List1B,white,woman,,,,null,,,,
null,"<img src=""stim_listB/talk2.gif""</stim_listB>",,html-keyboard-response,173,570129,0.0-15.0-1.1,81029,List1B,white,woman,,,,null,,,,
null,are talking to each other,,html-keyboard-response,174,572129,0.0-15.0-2.1,81029,List1B,white,woman,,,,null,,,,
10692,,,survey-text,175,582823,0.0-15.0-3.1,81029,List1B,white,woman,,,,,"{""Q0"":""mike and beth are talking to each other""}","<img src=""stim_listB/talk2.gif""</stim_listB>",are talking to each other,
null,"<div style=""font-size:60px;"">+</div>",,html-keyboard-response,176,583324,0.0-15.0-0.2,81029,List1B,white,woman,,,,null,,,,
null,"<img src=""stim_listB/dance2.gif""</stim_listB>",,html-keyboard-response,177,585327,0.0-15.0-1.2,81029,List1B,white,woman,,,,null,,,,
null,are dancing with each other,,html-keyboard-response,178,587329,0.0-15.0-2.2,81029,List1B,white,woman,,,,null,,,,
7846,,,survey-text,179,595177,0.0-15.0-3.2,81029,List1B,white,woman,,,,,"{""Q0"":""mike and beth are dancing with each other""}","<img src=""stim_listB/dance2.gif""</stim_listB>",are dancing with each other,
null,"<div style=""font-size:60px;"">+</div>",,html-keyboard-response,180,595679,0.0-15.0-0.3,81029,List1B,white,woman,,,,null,,,,
null,"<img src=""stim_listB/shout3.gif""</stim_listB>",,html-keyboard-response,181,597683,0.0-15.0-1.3,81029,List1B,white,woman,,,,null,,,,
null,is shouting at,,html-keyboard-response,182,599685,0.0-15.0-2.3,81029,List1B,white,woman,,,,null,,,,
7402,,,survey-text,183,607089,0.0-15.0-3.3,81029,List1B,white,woman,,,,,"{""Q0"":""ruth is shouting at luke""}","<img src=""stim_listB/shout3.gif""</stim_listB>",is shouting at,
null,"<div style=""font-size:60px;"">+</div>",,html-keyboard-response,184,607590,0.0-15.0-0.4,81029,List1B,white,woman,,,,null,,,,
null,"<img src=""stim_listB/touch4.gif""</stim_listB>",,html-keyboard-response,185,609593,0.0-15.0-1.4,81029,List1B,white,woman,,,,null,,,,
null,are touching each other,,html-keyboard-response,186,611597,0.0-15.0-2.4,81029,List1B,white,woman,,,,null,,,,
9891,,,survey-text,187,621489,0.0-15.0-3.4,81029,List1B,white,woman,,,,,"{""Q0"":""ruth and luke are touching each other""}","<img src=""stim_listB/touch4.gif""</stim_listB>",are touching each other,
null,"<div style=""font-size:60px;"">+</div>",,html-keyboard-response,188,621990,0.0-15.0-0.5,81029,List1B,white,woman,,,,null,,,,
null,"<img src=""stim_listB/argue3.gif""</stim_listB>",,html-keyboard-response,189,623994,0.0-15.0-1.5,81029,List1B,white,woman,,,,null,,,,
null,is arguing with,,html-keyboard-response,190,625996,0.0-15.0-2.5,81029,List1B,white,woman,,,,null,,,,
5944,,,survey-text,191,631941,0.0-15.0-3.5,81029,List1B,white,woman,,,,,"{""Q0"":""ruth is arguing with dave""}","<img src=""stim_listB/argue3.gif""</stim_listB>",is arguing with,
null,"<div style=""font-size:60px;"">+</div>",,html-keyboard-response,192,632442,0.0-15.0-0.6,81029,List1B,white,woman,,,,null,,,,
null,"<img src=""stim_listB/marry2.gif""</stim_listB>",,html-keyboard-response,193,634446,0.0-15.0-1.6,81029,List1B,white,woman,,,,null,,,,
null,are marrying each other,,html-keyboard-response,194,636449,0.0-15.0-2.6,81029,List1B,white,woman,,,,null,,,,
5791,,,survey-text,195,642241,0.0-15.0-3.6,81029,List1B,white,woman,,,,,"{""Q0"":""fred and kate are marrying each other""}","<img src=""stim_listB/marry2.gif""</stim_listB>",are marrying each other,
null,"<div style=""font-size:60px;"">+</div>",,html-keyboard-response,196,642742,0.0-15.0-0.7,81029,List1B,white,woman,,,,null,,,,
null,"<img src=""stim_listB/talk1.gif""</stim_listB>",,html-keyboard-response,197,644745,0.0-15.0-1.7,81029,List1B,white,woman,,,,null,,,,
null,is talking to,,html-keyboard-response,198,646747,0.0-15.0-2.7,81029,List1B,white,woman,,,,null,,,,
4367,,,survey-text,199,651115,0.0-15.0-3.7,81029,List1B,white,woman,,,,,"{""Q0"":""kate is talking to fred""}","<img src=""stim_listB/talk1.gif""</stim_listB>",is talking to,
null,"<div style=""font-size:60px;"">+</div>",,html-keyboard-response,200,651616,0.0-15.0-0.8,81029,List1B,white,woman,,,,null,,,,
null,"<img src=""stim_listB/shout4.gif""</stim_listB>",,html-keyboard-response,201,653618,0.0-15.0-1.8,81029,List1B,white,woman,,,,null,,,,
null,are shouting at each other,,html-keyboard-response,202,655621,0.0-15.0-2.8,81029,List1B,white,woman,,,,null,,,,
8833,,,survey-text,203,664455,0.0-15.0-3.8,81029,List1B,white,woman,,,,,"{""Q0"":""jane and dave are shouting at each other""}","<img src=""stim_listB/shout4.gif""</stim_listB>",are shouting at each other,
null,"<div style=""font-size:60px;"">+</div>",,html-keyboard-response,204,664957,0.0-15.0-0.9,81029,List1B,white,woman,,,,null,,,,
null,"<img src=""stim_listB/meet8.gif""</stim_listB>",,html-keyboard-response,205,666960,0.0-15.0-1.9,81029,List1B,white,woman,,,,null,,,,
null,are meeting each other,,html-keyboard-response,206,668962,0.0-15.0-2.9,81029,List1B,white,woman,,,,null,,,,
6642,,,survey-text,207,675605,0.0-15.0-3.9,81029,List1B,white,woman,,,,,"{""Q0"":""ruth and beth are meeting each other""}","<img src=""stim_listB/meet8.gif""</stim_listB>",are meeting each other,
null,"<div style=""font-size:60px;"">+</div>",,html-keyboard-response,208,676107,0.0-15.0-0.10,81029,List1B,white,woman,,,,null,,,,
null,"<img src=""stim_listB/fight7.gif""</stim_listB>",,html-keyboard-response,209,678109,0.0-15.0-1.10,81029,List1B,white,woman,,,,null,,,,
null,is fighting,,html-keyboard-response,210,680111,0.0-15.0-2.10,81029,List1B,white,woman,,,,null,,,,
5860,,,survey-text,211,685971,0.0-15.0-3.10,81029,List1B,white,woman,,,,,"{""Q0"":""jane is fighting kate""}","<img src=""stim_listB/fight7.gif""</stim_listB>",is fighting,
null,"<div style=""font-size:60px;"">+</div>",,html-keyboard-response,212,686474,0.0-15.0-0.11,81029,List1B,white,woman,,,,null,,,,
null,"<img src=""stim_listB/touch7.gif""</stim_listB>",,html-keyboard-response,213,688477,0.0-15.0-1.11,81029,List1B,white,woman,,,,null,,,,
null,is touching,,html-keyboard-response,214,690480,0.0-15.0-2.11,81029,List1B,white,woman,,,,null,,,,
4258,,,survey-text,215,694739,0.0-15.0-3.11,81029,List1B,white,woman,,,,,"{""Q0"":""jane is touching kate""}","<img src=""stim_listB/touch7.gif""</stim_listB>",is touching,
null,"<div style=""font-size:60px;"">+</div>",,html-keyboard-response,216,695240,0.0-15.0-0.12,81029,List1B,white,woman,,,,null,,,,
null,"<img src=""stim_listB/meet5.gif""</stim_listB>",,html-keyboard-response,217,697243,0.0-15.0-1.12,81029,List1B,white,woman,,,,null,,,,
null,is meeting,,html-keyboard-response,218,699246,0.0-15.0-2.12,81029,List1B,white,woman,,,,null,,,,
3780,,,survey-text,219,703027,0.0-15.0-3.12,81029,List1B,white,woman,,,,,"{""Q0"":""mike is meeting dave""}","<img src=""stim_listB/meet5.gif""</stim_listB>",is meeting,
null,"<div style=""font-size:60px;"">+</div>",,html-keyboard-response,220,703528,0.0-15.0-0.13,81029,List1B,white,woman,,,,null,,,,
null,"<img src=""stim_listB/kiss3.gif""</stim_listB>",,html-keyboard-response,221,705532,0.0-15.0-1.13,81029,List1B,white,woman,,,,null,,,,
null,is kissing,,html-keyboard-response,222,707534,0.0-15.0-2.13,81029,List1B,white,woman,,,,null,,,,
4984,,,survey-text,223,712519,0.0-15.0-3.13,81029,List1B,white,woman,,,,,"{""Q0"":""ruth is kissing luke""}","<img src=""stim_listB/kiss3.gif""</stim_listB>",is kissing,
null,"<div style=""font-size:60px;"">+</div>",,html-keyboard-response,224,713021,0.0-15.0-0.14,81029,List1B,white,woman,,,,null,,,,
null,"<img src=""stim_listB/hug8.gif""</stim_listB>",,html-keyboard-response,225,715024,0.0-15.0-1.14,81029,List1B,white,woman,,,,null,,,,
null,are hugging each other,,html-keyboard-response,226,717026,0.0-15.0-2.14,81029,List1B,white,woman,,,,null,,,,
5552,,,survey-text,227,722579,0.0-15.0-3.14,81029,List1B,white,woman,,,,,"{""Q0"":""kate and jane are hugging each other""}","<img src=""stim_listB/hug8.gif""</stim_listB>",are hugging each other,
null,"<div style=""font-size:60px;"">+</div>",,html-keyboard-response,228,723082,0.0-15.0-0.15,81029,List1B,white,woman,,,,null,,,,
null,"<img src=""stim_listB/touch5.gif""</stim_listB>",,html-keyboard-response,229,725085,0.0-15.0-1.15,81029,List1B,white,woman,,,,null,,,,
null,is touching,,html-keyboard-response,230,727086,0.0-15.0-2.15,81029,List1B,white,woman,,,,null,,,,
5735,,,survey-text,231,732823,0.0-15.0-3.15,81029,List1B,white,woman,,,,,"{""Q0"":""mike is touching dave""}","<img src=""stim_listB/touch5.gif""</stim_listB>",is touching,
null,"<div style=""font-size:60px;"">+</div>",,html-keyboard-response,232,733324,0.0-15.0-0.16,81029,List1B,white,woman,,,,null,,,,
null,"<img src=""stim_listB/dance3.gif""</stim_listB>",,html-keyboard-response,233,735328,0.0-15.0-1.16,81029,List1B,white,woman,,,,null,,,,
null,is dancing with,,html-keyboard-response,234,737330,0.0-15.0-2.16,81029,List1B,white,woman,,,,null,,,,
11101,,,survey-text,235,748432,0.0-15.0-3.16,81029,List1B,white,woman,,,,,"{""Q0"":""luke is dancing with jane""}","<img src=""stim_listB/dance3.gif""</stim_listB>",is dancing with,
null,"<div style=""font-size:60px;"">+</div>",,html-keyboard-response,236,748933,0.0-15.0-0.17,81029,List1B,white,woman,,,,null,,,,
null,"<img src=""stim_listB/touch2.gif""</stim_listB>",,html-keyboard-response,237,750937,0.0-15.0-1.17,81029,List1B,white,woman,,,,null,,,,
null,are touching each other,,html-keyboard-response,238,752940,0.0-15.0-2.17,81029,List1B,white,woman,,,,null,,,,
5632,,,survey-text,239,758572,0.0-15.0-3.17,81029,List1B,white,woman,,,,,"{""Q0"":""fred and beth are touching each other""}","<img src=""stim_listB/touch2.gif""</stim_listB>",are touching each other,
null,"<div style=""font-size:60px;"">+</div>",,html-keyboard-response,240,759073,0.0-15.0-0.18,81029,List1B,white,woman,,,,null,,,,
null,"<img src=""stim_listB/talk3.gif""</stim_listB>",,html-keyboard-response,241,761079,0.0-15.0-1.18,81029,List1B,white,woman,,,,null,,,,
null,is talking to,,html-keyboard-response,242,763081,0.0-15.0-2.18,81029,List1B,white,woman,,,,null,,,,
4788,,,survey-text,243,767870,0.0-15.0-3.18,81029,List1B,white,woman,,,,,"{""Q0"":""luke is talking to jane""}","<img src=""stim_listB/talk3.gif""</stim_listB>",is talking to,
null,"<div style=""font-size:60px;"">+</div>",,html-keyboard-response,244,768371,0.0-15.0-0.19,81029,List1B,white,woman,,,,null,,,,
null,"<img src=""stim_listB/touch8.gif""</stim_listB>",,html-keyboard-response,245,770375,0.0-15.0-1.19,81029,List1B,white,woman,,,,null,,,,
null,are touching each other,,html-keyboard-response,246,772377,0.0-15.0-2.19,81029,List1B,white,woman,,,,null,,,,
7484,,,survey-text,247,779862,0.0-15.0-3.19,81029,List1B,white,woman,,,,,"{""Q0"":""ruth and beth are touching each other""}","<img src=""stim_listB/touch8.gif""</stim_listB>",are touching each other,
1393,"<img src='img/portrait_matrix_list1.JPG' style='width:900px;height:500px;''></img><p>If you have memorised all the portraits and names and are ready to start, press Continue.</p><p><strong>Please note: Your memory of these faces will be tested 4 times during this experiment.</strong></p>",0,html-button-response,248,781256,0.0-16.0-0.0,81029,List1B,white,woman,,,,,,,,
2180,"<img src=""portrait/WM2.jpg""style=""width:400px;height:400px;""></img>",7,html-button-response,249,784439,0.0-16.0-1.0,81029,List1B,white,woman,,TRUE,7,,,,,
null,CORRECT,,html-keyboard-response,250,785941,0.0-16.0-2.0-0.0,81029,List1B,white,woman,,,,null,,,,
1291,"<img src=""portrait/BW2.jpg""style=""width:400px;height:400px;""></img>",2,html-button-response,251,787235,0.0-16.0-4.0,81029,List1B,white,woman,,TRUE,2,,,,,
null,CORRECT,,html-keyboard-response,252,788739,0.0-16.0-5.0-0.0,81029,List1B,white,woman,,,,null,,,,
4824,"<img src=""portrait/BM2.jpg""style=""width:400px;height:400px;""></img>",5,html-button-response,253,793565,0.0-16.0-7.0,81029,List1B,white,woman,,TRUE,5,,,,,
null,CORRECT,,html-keyboard-response,254,795068,0.0-16.0-8.0-0.0,81029,List1B,white,woman,,,,null,,,,
1165,"<img src=""portrait/BM1.jpg""style=""width:400px;height:400px;""></img>",4,html-button-response,255,796235,0.0-16.0-10.0,81029,List1B,white,woman,,TRUE,4,,,,,
null,CORRECT,,html-keyboard-response,256,797739,0.0-16.0-11.0-0.0,81029,List1B,white,woman,,,,null,,,,
1386,"<img src=""portrait/WM1.jpg""style=""width:400px;height:400px;""></img>",6,html-button-response,257,799126,0.0-16.0-13.0,81029,List1B,white,woman,,TRUE,6,,,,,
null,CORRECT,,html-keyboard-response,258,800628,0.0-16.0-14.0-0.0,81029,List1B,white,woman,,,,null,,,,
2024,"<img src=""portrait/BW1.jpg""style=""width:400px;height:400px;""></img>",0,html-button-response,259,802654,0.0-16.0-16.0,81029,List1B,white,woman,,TRUE,0,,,,,
null,CORRECT,,html-keyboard-response,260,804159,0.0-16.0-17.0-0.0,81029,List1B,white,woman,,,,null,,,,
1578,"<img src=""portrait/WW1.jpg""style=""width:400px;height:400px;""></img>",1,html-button-response,261,805739,0.0-16.0-19.0,81029,List1B,white,woman,,TRUE,1,,,,,
null,CORRECT,,html-keyboard-response,262,807243,0.0-16.0-20.0-0.0,81029,List1B,white,woman,,,,null,,,,
1221,"<img src=""portrait/WW2.jpg""style=""width:400px;height:400px;""></img>",3,html-button-response,263,808465,0.0-16.0-22.0,81029,List1B,white,woman,,TRUE,3,,,,,
null,CORRECT,,html-keyboard-response,264,809968,0.0-16.0-23.0-0.0,81029,List1B,white,woman,,,,null,,,,
922,<p>You got 8 out of 8 right first time. Press Continue.</p>,0,html-button-response,265,810893,0.0-16.0-25.0,81029,List1B,white,woman,,,,,,,,
null,"<div style=""font-size:60px;"">+</div>",,html-keyboard-response,266,812395,0.0-17.0-0.0,81029,List1B,white,woman,,,,null,,,,
null,"<img src=""stim_listB/argue7.gif""</stim_listB>",,html-keyboard-response,267,814399,0.0-17.0-1.0,81029,List1B,white,woman,,,,null,,,,
null,is arguing with,,html-keyboard-response,268,816401,0.0-17.0-2.0,81029,List1B,white,woman,,,,null,,,,
5177,,,survey-text,269,821579,0.0-17.0-3.0,81029,List1B,white,woman,,,,,"{""Q0"":""kate is arguing with ruth""}","<img src=""stim_listB/argue7.gif""</stim_listB>",is arguing with,
null,"<div style=""font-size:60px;"">+</div>",,html-keyboard-response,270,822080,0.0-17.0-0.1,81029,List1B,white,woman,,,,null,,,,
null,"<img src=""stim_listB/hug7.gif""</stim_listB>",,html-keyboard-response,271,824084,0.0-17.0-1.1,81029,List1B,white,woman,,,,null,,,,
null,is hugging,,html-keyboard-response,272,826085,0.0-17.0-2.1,81029,List1B,white,woman,,,,null,,,,
4052,,,survey-text,273,830139,0.0-17.0-3.1,81029,List1B,white,woman,,,,,"{""Q0"":""ruth is hugging beth""}","<img src=""stim_listB/hug7.gif""</stim_listB>",is hugging,
null,"<div style=""font-size:60px;"">+</div>",,html-keyboard-response,274,830640,0.0-17.0-0.2,81029,List1B,white,woman,,,,null,,,,
null,"<img src=""stim_listB/fight1.gif""</stim_listB>",,html-keyboard-response,275,832643,0.0-17.0-1.2,81029,List1B,white,woman,,,,null,,,,
null,is fighting,,html-keyboard-response,276,834646,0.0-17.0-2.2,81029,List1B,white,woman,,,,null,,,,
5398,,,survey-text,277,840045,0.0-17.0-3.2,81029,List1B,white,woman,,,,,"{""Q0"":""kate is fighting mike""}","<img src=""stim_listB/fight1.gif""</stim_listB>",is fighting,
null,"<div style=""font-size:60px;"">+</div>",,html-keyboard-response,278,840546,0.0-17.0-0.3,81029,List1B,white,woman,,,,null,,,,
null,"<img src=""stim_listB/meet3.gif""</stim_listB>",,html-keyboard-response,279,842548,0.0-17.0-1.3,81029,List1B,white,woman,,,,null,,,,
null,is meeting,,html-keyboard-response,280,844550,0.0-17.0-2.3,81029,List1B,white,woman,,,,null,,,,
4139,,,survey-text,281,848691,0.0-17.0-3.3,81029,List1B,white,woman,,,,,"{""Q0"":""jane is meeting dave""}","<img src=""stim_listB/meet3.gif""</stim_listB>",is meeting,
null,"<div style=""font-size:60px;"">+</div>",,html-keyboard-response,282,849193,0.0-17.0-0.4,81029,List1B,white,woman,,,,null,,,,
null,"<img src=""stim_listB/meet6.gif""</stim_listB>",,html-keyboard-response,283,851196,0.0-17.0-1.4,81029,List1B,white,woman,,,,null,,,,
null,are meeting each other,,html-keyboard-response,284,853199,0.0-17.0-2.4,81029,List1B,white,woman,,,,null,,,,
7966,,,survey-text,285,861165,0.0-17.0-3.4,81029,List1B,white,woman,,,,,"{""Q0"":""luke and fred are meeting each other""}","<img src=""stim_listB/meet6.gif""</stim_listB>",are meeting each other,
null,"<div style=""font-size:60px;"">+</div>",,html-keyboard-response,286,861666,0.0-17.0-0.5,81029,List1B,white,woman,,,,null,,,,
null,"<img src=""stim_listB/touch1.gif""</stim_listB>",,html-keyboard-response,287,863670,0.0-17.0-1.5,81029,List1B,white,woman,,,,null,,,,
null,is touching,,html-keyboard-response,288,865672,0.0-17.0-2.5,81029,List1B,white,woman,,,,null,,,,
4777,,,survey-text,289,870449,0.0-17.0-3.5,81029,List1B,white,woman,,,,,"{""Q0"":""kate is touching mike""}","<img src=""stim_listB/touch1.gif""</stim_listB>",is touching,
null,"<div style=""font-size:60px;"">+</div>",,html-keyboard-response,290,870951,0.0-17.0-0.6,81029,List1B,white,woman,,,,null,,,,
null,"<img src=""stim_listB/dance5.gif""</stim_listB>",,html-keyboard-response,291,872954,0.0-17.0-1.6,81029,List1B,white,woman,,,,null,,,,
null,is dancing with,,html-keyboard-response,292,874956,0.0-17.0-2.6,81029,List1B,white,woman,,,,null,,,,
6258,,,survey-text,293,881215,0.0-17.0-3.6,81029,List1B,white,woman,,,,,"{""Q0"":""fred is dancing with dave""}","<img src=""stim_listB/dance5.gif""</stim_listB>",is dancing with,
null,"<div style=""font-size:60px;"">+</div>",,html-keyboard-response,294,881716,0.0-17.0-0.7,81029,List1B,white,woman,,,,null,,,,
null,"<img src=""stim_listB/meet2.gif""</stim_listB>",,html-keyboard-response,295,883720,0.0-17.0-1.7,81029,List1B,white,woman,,,,null,,,,
null,are meeting each other,,html-keyboard-response,296,885721,0.0-17.0-2.7,81029,List1B,white,woman,,,,null,,,,
6659,,,survey-text,297,892381,0.0-17.0-3.7,81029,List1B,white,woman,,,,,"{""Q0"":""fred and beth are meeting each other""}","<img src=""stim_listB/meet2.gif""</stim_listB>",are meeting each other,
null,"<div style=""font-size:60px;"">+</div>",,html-keyboard-response,298,892882,0.0-17.0-0.8,81029,List1B,white,woman,,,,null,,,,
null,"<img src=""stim_listB/kiss5.gif""</stim_listB>",,html-keyboard-response,299,894886,0.0-17.0-1.8,81029,List1B,white,woman,,,,null,,,,
null,is kissing,,html-keyboard-response,300,896887,0.0-17.0-2.8,81029,List1B,white,woman,,,,null,,,,
6004,,,survey-text,301,902891,0.0-17.0-3.8,81029,List1B,white,woman,,,,,"{""Q0"":""luke is kissing fred""}","<img src=""stim_listB/kiss5.gif""</stim_listB>",is kissing,
null,"<div style=""font-size:60px;"">+</div>",,html-keyboard-response,302,903392,0.0-17.0-0.9,81029,List1B,white,woman,,,,null,,,,
null,"<img src=""stim_listB/hug4.gif""</stim_listB>",,html-keyboard-response,303,905396,0.0-17.0-1.9,81029,List1B,white,woman,,,,null,,,,
null,are hugging each other,,html-keyboard-response,304,907397,0.0-17.0-2.9,81029,List1B,white,woman,,,,null,,,,
6099,,,survey-text,305,913497,0.0-17.0-3.9,81029,List1B,white,woman,,,,,"{""Q0"":""dave and jane are hugging each other""}","<img src=""stim_listB/hug4.gif""</stim_listB>",are hugging each other,
null,"<div style=""font-size:60px;"">+</div>",,html-keyboard-response,306,913999,0.0-17.0-0.10,81029,List1B,white,woman,,,,null,,,,
null,"<img src=""stim_listB/fight3.gif""</stim_listB>",,html-keyboard-response,307,916001,0.0-17.0-1.10,81029,List1B,white,woman,,,,null,,,,
null,is fighting,,html-keyboard-response,308,918003,0.0-17.0-2.10,81029,List1B,white,woman,,,,null,,,,
3853,,,survey-text,309,921857,0.0-17.0-3.10,81029,List1B,white,woman,,,,,"{""Q0"":""jane is fighting dave""}","<img src=""stim_listB/fight3.gif""</stim_listB>",is fighting,
null,"<div style=""font-size:60px;"">+</div>",,html-keyboard-response,310,922358,0.0-17.0-0.11,81029,List1B,white,woman,,,,null,,,,
null,"<img src=""stim_listB/kiss1.gif""</stim_listB>",,html-keyboard-response,311,924362,0.0-17.0-1.11,81029,List1B,white,woman,,,,null,,,,
null,is kissing,,html-keyboard-response,312,926364,0.0-17.0-2.11,81029,List1B,white,woman,,,,null,,,,
4559,,,survey-text,313,930923,0.0-17.0-3.11,81029,List1B,white,woman,,,,,"{""Q0"":""fred is kissing beth""}","<img src=""stim_listB/kiss1.gif""</stim_listB>",is kissing,
null,"<div style=""font-size:60px;"">+</div>",,html-keyboard-response,314,931424,0.0-17.0-0.12,81029,List1B,white,woman,,,,null,,,,
null,"<img src=""stim_listB/shout8.gif""</stim_listB>",,html-keyboard-response,315,933427,0.0-17.0-1.12,81029,List1B,white,woman,,,,null,,,,
null,are shouting at each other,,html-keyboard-response,316,935428,0.0-17.0-2.12,81029,List1B,white,woman,,,,null,,,,
7664,,,survey-text,317,943093,0.0-17.0-3.12,81029,List1B,white,woman,,,,,"{""Q0"":""jane and beth are shouting at each other""}","<img src=""stim_listB/shout8.gif""</stim_listB>",are shouting at each other,
null,"<div style=""font-size:60px;"">+</div>",,html-keyboard-response,318,943594,0.0-17.0-0.13,81029,List1B,white,woman,,,,null,,,,
null,"<img src=""stim_listB/argue6.gif""</stim_listB>",,html-keyboard-response,319,945598,0.0-17.0-1.13,81029,List1B,white,woman,,,,null,,,,
null,are arguing with each other,,html-keyboard-response,320,947601,0.0-17.0-2.13,81029,List1B,white,woman,,,,null,,,,
7161,,,survey-text,321,954765,0.0-17.0-3.13,81029,List1B,white,woman,,,,,"{""Q0"":""fred and dave are arguing with each other""}","<img src=""stim_listB/argue6.gif""</stim_listB>",are arguing with each other,
null,"<div style=""font-size:60px;"">+</div>",,html-keyboard-response,322,955267,0.0-17.0-0.14,81029,List1B,white,woman,,,,null,,,,
null,"<img src=""stim_listB/marry5.gif""</stim_listB>",,html-keyboard-response,323,957270,0.0-17.0-1.14,81029,List1B,white,woman,,,,null,,,,
null,is marrying,,html-keyboard-response,324,959271,0.0-17.0-2.14,81029,List1B,white,woman,,,,null,,,,
4344,,,survey-text,325,963616,0.0-17.0-3.14,81029,List1B,white,woman,,,,,"{""Q0"":""mike is marrying luke""}","<img src=""stim_listB/marry5.gif""</stim_listB>",is marrying,
null,"<div style=""font-size:60px;"">+</div>",,html-keyboard-response,326,964117,0.0-17.0-0.15,81029,List1B,white,woman,,,,null,,,,
null,"<img src=""stim_listB/meet1.gif""</stim_listB>",,html-keyboard-response,327,966120,0.0-17.0-1.15,81029,List1B,white,woman,,,,null,,,,
null,is meeting,,html-keyboard-response,328,968123,0.0-17.0-2.15,81029,List1B,white,woman,,,,null,,,,
7315,,,survey-text,329,975438,0.0-17.0-3.15,81029,List1B,white,woman,,,,,"{""Q0"":""mike is meeting kate""}","<img src=""stim_listB/meet1.gif""</stim_listB>",is meeting,
null,"<div style=""font-size:60px;"">+</div>",,html-keyboard-response,330,975940,0.0-17.0-0.16,81029,List1B,white,woman,,,,null,,,,
null,"<img src=""stim_listB/shout2.gif""</stim_listB>",,html-keyboard-response,331,977943,0.0-17.0-1.16,81029,List1B,white,woman,,,,null,,,,
null,are shouting at each other,,html-keyboard-response,332,979944,0.0-17.0-2.16,81029,List1B,white,woman,,,,null,,,,
6580,,,survey-text,333,986525,0.0-17.0-3.16,81029,List1B,white,woman,,,,,"{""Q0"":""mike and kate are shouting at each other""}","<img src=""stim_listB/shout2.gif""</stim_listB>",are shouting at each other,
null,"<div style=""font-size:60px;"">+</div>",,html-keyboard-response,334,987026,0.0-17.0-0.17,81029,List1B,white,woman,,,,null,,,,
null,"<img src=""stim_listB/talk6.gif""</stim_listB>",,html-keyboard-response,335,989028,0.0-17.0-1.17,81029,List1B,white,woman,,,,null,,,,
null,are talking to each other,,html-keyboard-response,336,991030,0.0-17.0-2.17,81029,List1B,white,woman,,,,null,,,,
6613,,,survey-text,337,997645,0.0-17.0-3.17,81029,List1B,white,woman,,,,,"{""Q0"":""mike and luke are talking to each other""}","<img src=""stim_listB/talk6.gif""</stim_listB>",are talking to each other,
null,"<div style=""font-size:60px;"">+</div>",,html-keyboard-response,338,998146,0.0-17.0-0.18,81029,List1B,white,woman,,,,null,,,,
null,"<img src=""stim_listB/fight4.gif""</stim_listB>",,html-keyboard-response,339,1000148,0.0-17.0-1.18,81029,List1B,white,woman,,,,null,,,,
null,are fighting each other,,html-keyboard-response,340,1002150,0.0-17.0-2.18,81029,List1B,white,woman,,,,null,,,,
6877,,,survey-text,341,1009029,0.0-17.0-3.18,81029,List1B,white,woman,,,,,"{""Q0"":""ruth and luke are fighting each other""}","<img src=""stim_listB/fight4.gif""</stim_listB>",are fighting each other,
null,"<div style=""font-size:60px;"">+</div>",,html-keyboard-response,342,1009529,0.0-17.0-0.19,81029,List1B,white,woman,,,,null,,,,
null,"<img src=""stim_listB/talk5.gif""</stim_listB>",,html-keyboard-response,343,1011533,0.0-17.0-1.19,81029,List1B,white,woman,,,,null,,,,
null,is talking to,,html-keyboard-response,344,1013535,0.0-17.0-2.19,81029,List1B,white,woman,,,,null,,,,
7220,,,survey-text,345,1020756,0.0-17.0-3.19,81029,List1B,white,woman,,,,,"{""Q0"":""fred is talking to dave""}","<img src=""stim_listB/talk5.gif""</stim_listB>",is talking to,
1119,"<img src='img/portrait_matrix_list1.JPG' style='width:900px;height:500px;''></img><p>If you have memorised all the portraits and names and are ready to start, press Continue.</p><p><strong>Please note: Your memory of these faces will be tested 4 times during this experiment.</strong></p>",0,html-button-response,346,1021876,0.0-18.0-0.0,81029,List1B,white,woman,,,,,,,,
4992,"<img src=""portrait/WM1.jpg""style=""width:400px;height:400px;""></img>",6,html-button-response,347,1027873,0.0-18.0-1.0,81029,List1B,white,woman,,TRUE,6,,,,,
null,CORRECT,,html-keyboard-response,348,1029375,0.0-18.0-2.0-0.0,81029,List1B,white,woman,,,,null,,,,
1614,"<img src=""portrait/WW1.jpg""style=""width:400px;height:400px;""></img>",1,html-button-response,349,1030991,0.0-18.0-4.0,81029,List1B,white,woman,,TRUE,1,,,,,
null,CORRECT,,html-keyboard-response,350,1032493,0.0-18.0-5.0-0.0,81029,List1B,white,woman,,,,null,,,,
1195,"<img src=""portrait/BM2.jpg""style=""width:400px;height:400px;""></img>",5,html-button-response,351,1033691,0.0-18.0-7.0,81029,List1B,white,woman,,TRUE,5,,,,,
null,CORRECT,,html-keyboard-response,352,1035195,0.0-18.0-8.0-0.0,81029,List1B,white,woman,,,,null,,,,
1444,"<img src=""portrait/WM2.jpg""style=""width:400px;height:400px;""></img>",7,html-button-response,353,1036641,0.0-18.0-10.0,81029,List1B,white,woman,,TRUE,7,,,,,
null,CORRECT,,html-keyboard-response,354,1038145,0.0-18.0-11.0-0.0,81029,List1B,white,woman,,,,null,,,,
2486,"<img src=""portrait/BM1.jpg""style=""width:400px;height:400px;""></img>",4,html-button-response,355,1040633,0.0-18.0-13.0,81029,List1B,white,woman,,TRUE,4,,,,,
null,CORRECT,,html-keyboard-response,356,1042138,0.0-18.0-14.0-0.0,81029,List1B,white,woman,,,,null,,,,
1338,"<img src=""portrait/WW2.jpg""style=""width:400px;height:400px;""></img>",3,html-button-response,357,1043476,0.0-18.0-16.0,81029,List1B,white,woman,,TRUE,3,,,,,
null,CORRECT,,html-keyboard-response,358,1044980,0.0-18.0-17.0-0.0,81029,List1B,white,woman,,,,null,,,,
1709,"<img src=""portrait/BW1.jpg""style=""width:400px;height:400px;""></img>",0,html-button-response,359,1046691,0.0-18.0-19.0,81029,List1B,white,woman,,TRUE,0,,,,,
null,CORRECT,,html-keyboard-response,360,1048195,0.0-18.0-20.0-0.0,81029,List1B,white,woman,,,,null,,,,
1189,"<img src=""portrait/BW2.jpg""style=""width:400px;height:400px;""></img>",2,html-button-response,361,1049385,0.0-18.0-22.0,81029,List1B,white,woman,,TRUE,2,,,,,
null,CORRECT,,html-keyboard-response,362,1050890,0.0-18.0-23.0-0.0,81029,List1B,white,woman,,,,null,,,,
786,<p>You got 8 out of 8 right first time. Press Continue.</p>,0,html-button-response,363,1051677,0.0-18.0-25.0,81029,List1B,white,woman,,,,,,,,
null,"<div style=""font-size:60px;"">+</div>",,html-keyboard-response,364,1053180,0.0-19.0-0.0,81029,List1B,white,woman,,,,null,,,,
null,"<img src=""stim_listB/fight6.gif""</stim_listB>",,html-keyboard-response,365,1055184,0.0-19.0-1.0,81029,List1B,white,woman,,,,null,,,,
null,are fighting each other,,html-keyboard-response,366,1057186,0.0-19.0-2.0,81029,List1B,white,woman,,,,null,,,,
5865,,,survey-text,367,1063051,0.0-19.0-3.0,81029,List1B,white,woman,,,,,"{""Q0"":""fred and luke are fighting each other""}","<img src=""stim_listB/fight6.gif""</stim_listB>",are fighting each other,
null,"<div style=""font-size:60px;"">+</div>",,html-keyboard-response,368,1063553,0.0-19.0-0.1,81029,List1B,white,woman,,,,null,,,,
null,"<img src=""stim_listB/marry7.gif""</stim_listB>",,html-keyboard-response,369,1065556,0.0-19.0-1.1,81029,List1B,white,woman,,,,null,,,,
null,is marrying,,html-keyboard-response,370,1067558,0.0-19.0-2.1,81029,List1B,white,woman,,,,null,,,,
7716,,,survey-text,371,1075275,0.0-19.0-3.1,81029,List1B,white,woman,,,,,"{""Q0"":""kate is marrying ruth""}","<img src=""stim_listB/marry7.gif""</stim_listB>",is marrying,
null,"<div style=""font-size:60px;"">+</div>",,html-keyboard-response,372,1075776,0.0-19.0-0.2,81029,List1B,white,woman,,,,null,,,,
null,"<img src=""stim_listB/kiss4.gif""</stim_listB>",,html-keyboard-response,373,1077777,0.0-19.0-1.2,81029,List1B,white,woman,,,,null,,,,
null,are kissing each other,,html-keyboard-response,374,1079779,0.0-19.0-2.2,81029,List1B,white,woman,,,,null,,,,
13244,,,survey-text,375,1093023,0.0-19.0-3.2,81029,List1B,white,woman,,,,,"{""Q0"":""jane and dave are kissing each other""}","<img src=""stim_listB/kiss4.gif""</stim_listB>",are kissing each other,
null,"<div style=""font-size:60px;"">+</div>",,html-keyboard-response,376,1093525,0.0-19.0-0.3,81029,List1B,white,woman,,,,null,,,,
null,"<img src=""stim_listB/talk4.gif""</stim_listB>",,html-keyboard-response,377,1095527,0.0-19.0-1.3,81029,List1B,white,woman,,,,null,,,,
null,are talking to each other,,html-keyboard-response,378,1097529,0.0-19.0-2.3,81029,List1B,white,woman,,,,null,,,,
8803,,,survey-text,379,1106333,0.0-19.0-3.3,81029,List1B,white,woman,,,,,"{""Q0"":""ruth and dave are talking to each other""}","<img src=""stim_listB/talk4.gif""</stim_listB>",are talking to each other,
null,"<div style=""font-size:60px;"">+</div>",,html-keyboard-response,380,1106834,0.0-19.0-0.4,81029,List1B,white,woman,,,,null,,,,
null,"<img src=""stim_listB/argue5.gif""</stim_listB>",,html-keyboard-response,381,1108837,0.0-19.0-1.4,81029,List1B,white,woman,,,,null,,,,
null,is arguing with,,html-keyboard-response,382,1110839,0.0-19.0-2.4,81029,List1B,white,woman,,,,null,,,,
4748,,,survey-text,383,1115589,0.0-19.0-3.4,81029,List1B,white,woman,,,,,"{""Q0"":""mike is arguing with luke""}","<img src=""stim_listB/argue5.gif""</stim_listB>",is arguing with,
null,"<div style=""font-size:60px;"">+</div>",,html-keyboard-response,384,1116090,0.0-19.0-0.5,81029,List1B,white,woman,,,,null,,,,
null,"<img src=""stim_listB/dance1.gif""</stim_listB>",,html-keyboard-response,385,1118093,0.0-19.0-1.5,81029,List1B,white,woman,,,,null,,,,
null,is dancing with,,html-keyboard-response,386,1120095,0.0-19.0-2.5,81029,List1B,white,woman,,,,null,,,,
4816,,,survey-text,387,1124911,0.0-19.0-3.5,81029,List1B,white,woman,,,,,"{""Q0"":""fred is dancing with kate""}","<img src=""stim_listB/dance1.gif""</stim_listB>",is dancing with,
null,"<div style=""font-size:60px;"">+</div>",,html-keyboard-response,388,1125412,0.0-19.0-0.6,81029,List1B,white,woman,,,,null,,,,
null,"<img src=""stim_listB/meet7.gif""</stim_listB>",,html-keyboard-response,389,1127416,0.0-19.0-1.6,81029,List1B,white,woman,,,,null,,,,
null,is meeting,,html-keyboard-response,390,1129418,0.0-19.0-2.6,81029,List1B,white,woman,,,,null,,,,
4131,,,survey-text,391,1133551,0.0-19.0-3.6,81029,List1B,white,woman,,,,,"{""Q0"":""kate is meeting jane""}","<img src=""stim_listB/meet7.gif""</stim_listB>",is meeting,
null,"<div style=""font-size:60px;"">+</div>",,html-keyboard-response,392,1134052,0.0-19.0-0.7,81029,List1B,white,woman,,,,null,,,,
null,"<img src=""stim_listB/shout7.gif""</stim_listB>",,html-keyboard-response,393,1136054,0.0-19.0-1.7,81029,List1B,white,woman,,,,null,,,,
null,is shouting at,,html-keyboard-response,394,1138056,0.0-19.0-2.7,81029,List1B,white,woman,,,,null,,,,
5866,,,survey-text,395,1143923,0.0-19.0-3.7,81029,List1B,white,woman,,,,,"{""Q0"":""ruth is shouting at beth""}","<img src=""stim_listB/shout7.gif""</stim_listB>",is shouting at,
null,"<div style=""font-size:60px;"">+</div>",,html-keyboard-response,396,1144424,0.0-19.0-0.8,81029,List1B,white,woman,,,,null,,,,
null,"<img src=""stim_listB/fight8.gif""</stim_listB>",,html-keyboard-response,397,1146428,0.0-19.0-1.8,81029,List1B,white,woman,,,,null,,,,
null,are fighting each other,,html-keyboard-response,398,1148430,0.0-19.0-2.8,81029,List1B,white,woman,,,,null,,,,
6601,,,survey-text,399,1155033,0.0-19.0-3.8,81029,List1B,white,woman,,,,,"{""Q0"":""ruth and beth are fighting each other""}","<img src=""stim_listB/fight8.gif""</stim_listB>",are fighting each other,
null,"<div style=""font-size:60px;"">+</div>",,html-keyboard-response,400,1155534,0.0-19.0-0.9,81029,List1B,white,woman,,,,null,,,,
null,"<img src=""stim_listB/kiss7.gif""</stim_listB>",,html-keyboard-response,401,1157538,0.0-19.0-1.9,81029,List1B,white,woman,,,,null,,,,
null,is kissing,,html-keyboard-response,402,1159540,0.0-19.0-2.9,81029,List1B,white,woman,,,,null,,,,
6773,,,survey-text,403,1166313,0.0-19.0-3.9,81029,List1B,white,woman,,,,,"{""Q0"":""ruth is kissing beth""}","<img src=""stim_listB/kiss7.gif""</stim_listB>",is kissing,
null,"<div style=""font-size:60px;"">+</div>",,html-keyboard-response,404,1166814,0.0-19.0-0.10,81029,List1B,white,woman,,,,null,,,,
null,"<img src=""stim_listB/hug2.gif""</stim_listB>",,html-keyboard-response,405,1169481,0.0-19.0-1.10,81029,List1B,white,woman,,,,null,,,,
null,are hugging each other,,html-keyboard-response,406,1172483,0.0-19.0-2.10,81029,List1B,white,woman,,,,null,,,,
10451,,,survey-text,407,1182935,0.0-19.0-3.10,81029,List1B,white,woman,,,,,"{""Q0"":""""}","<img src=""stim_listB/hug2.gif""</stim_listB>",are hugging each other,
null,"<div style=""font-size:60px;"">+</div>",,html-keyboard-response,408,1183436,0.0-19.0-0.11,81029,List1B,white,woman,,,,null,,,,
null,"<img src=""stim_listB/kiss6.gif""</stim_listB>",,html-keyboard-response,409,1185440,0.0-19.0-1.11,81029,List1B,white,woman,,,,null,,,,
null,are kissing each other,,html-keyboard-response,410,1187443,0.0-19.0-2.11,81029,List1B,white,woman,,,,null,,,,
5583,,,survey-text,411,1193027,0.0-19.0-3.11,81029,List1B,white,woman,,,,,"{""Q0"":""mike and dave are kissing each other""}","<img src=""stim_listB/kiss6.gif""</stim_listB>",are kissing each other,
null,"<div style=""font-size:60px;"">+</div>",,html-keyboard-response,412,1193528,0.0-19.0-0.12,81029,List1B,white,woman,,,,null,,,,
null,"<img src=""stim_listB/marry6.gif""</stim_listB>",,html-keyboard-response,413,1195532,0.0-19.0-1.12,81029,List1B,white,woman,,,,null,,,,
null,are marrying each other,,html-keyboard-response,414,1197534,0.0-19.0-2.12,81029,List1B,white,woman,,,,null,,,,
8497,,,survey-text,415,1206031,0.0-19.0-3.12,81029,List1B,white,woman,,,,,"{""Q0"":""fred and dave are marrying each other""}","<img src=""stim_listB/marry6.gif""</stim_listB>",are marrying each other,
null,"<div style=""font-size:60px;"">+</div>",,html-keyboard-response,416,1206533,0.0-19.0-0.13,81029,List1B,white,woman,,,,null,,,,
null,"<img src=""stim_listB/kiss8.gif""</stim_listB>",,html-keyboard-response,417,1208536,0.0-19.0-1.13,81029,List1B,white,woman,,,,null,,,,
null,are kissing each other,,html-keyboard-response,418,1210539,0.0-19.0-2.13,81029,List1B,white,woman,,,,null,,,,
8008,,,survey-text,419,1218547,0.0-19.0-3.13,81029,List1B,white,woman,,,,,"{""Q0"":""jane and kate are kissing each other""}","<img src=""stim_listB/kiss8.gif""</stim_listB>",are kissing each other,
null,"<div style=""font-size:60px;"">+</div>",,html-keyboard-response,420,1219048,0.0-19.0-0.14,81029,List1B,white,woman,,,,null,,,,
null,"<img src=""stim_listB/marry1.gif""</stim_listB>",,html-keyboard-response,421,1221052,0.0-19.0-1.14,81029,List1B,white,woman,,,,null,,,,
null,is marrying,,html-keyboard-response,422,1223055,0.0-19.0-2.14,81029,List1B,white,woman,,,,null,,,,
5906,,,survey-text,423,1228961,0.0-19.0-3.14,81029,List1B,white,woman,,,,,"{""Q0"":""mike is marrying beth""}","<img src=""stim_listB/marry1.gif""</stim_listB>",is marrying,
null,"<div style=""font-size:60px;"">+</div>",,html-keyboard-response,424,1229462,0.0-19.0-0.15,81029,List1B,white,woman,,,,null,,,,
null,"<img src=""stim_listB/dance8.gif""</stim_listB>",,html-keyboard-response,425,1231465,0.0-19.0-1.15,81029,List1B,white,woman,,,,null,,,,
null,are dancing with each other,,html-keyboard-response,426,1233467,0.0-19.0-2.15,81029,List1B,white,woman,,,,null,,,,
7638,,,survey-text,427,1241107,0.0-19.0-3.15,81029,List1B,white,woman,,,,,"{""Q0"":""ruth and kate are dancing with each other""}","<img src=""stim_listB/dance8.gif""</stim_listB>",are dancing with each other,
null,"<div style=""font-size:60px;"">+</div>",,html-keyboard-response,428,1241608,0.0-19.0-0.16,81029,List1B,white,woman,,,,null,,,,
null,"<img src=""stim_listB/marry3.gif""</stim_listB>",,html-keyboard-response,429,1243612,0.0-19.0-1.16,81029,List1B,white,woman,,,,null,,,,
null,is marrying,,html-keyboard-response,430,1245615,0.0-19.0-2.16,81029,List1B,white,woman,,,,null,,,,
4269,,,survey-text,431,1249885,0.0-19.0-3.16,81029,List1B,white,woman,,,,,"{""Q0"":""ruth is marrying dave""}","<img src=""stim_listB/marry3.gif""</stim_listB>",is marrying,
null,"<div style=""font-size:60px;"">+</div>",,html-keyboard-response,432,1250386,0.0-19.0-0.17,81029,List1B,white,woman,,,,null,,,,
null,"<img src=""stim_listB/dance6.gif""</stim_listB>",,html-keyboard-response,433,1252390,0.0-19.0-1.17,81029,List1B,white,woman,,,,null,,,,
null,are dancing with each other,,html-keyboard-response,434,1254391,0.0-19.0-2.17,81029,List1B,white,woman,,,,null,,,,
6186,,,survey-text,435,1260578,0.0-19.0-3.17,81029,List1B,white,woman,,,,,"{""Q0"":""mike and luke are dancing with each other""}","<img src=""stim_listB/dance6.gif""</stim_listB>",are dancing with each other,
null,"<div style=""font-size:60px;"">+</div>",,html-keyboard-response,436,1261080,0.0-19.0-0.18,81029,List1B,white,woman,,,,null,,,,
null,"<img src=""stim_listB/argue2.gif""</stim_listB>",,html-keyboard-response,437,1263083,0.0-19.0-1.18,81029,List1B,white,woman,,,,null,,,,
null,are arguing with each other,,html-keyboard-response,438,1265085,0.0-19.0-2.18,81029,List1B,white,woman,,,,null,,,,
6715,,,survey-text,439,1271802,0.0-19.0-3.18,81029,List1B,white,woman,,,,,"{""Q0"":""kate and fred are arguing with each other""}","<img src=""stim_listB/argue2.gif""</stim_listB>",are arguing with each other,
null,"<div style=""font-size:60px;"">+</div>",,html-keyboard-response,440,1272304,0.0-19.0-0.19,81029,List1B,white,woman,,,,null,,,,
null,"<img src=""stim_listB/marry8.gif""</stim_listB>",,html-keyboard-response,441,1274308,0.0-19.0-1.19,81029,List1B,white,woman,,,,null,,,,
null,are marrying each other,,html-keyboard-response,442,1276310,0.0-19.0-2.19,81029,List1B,white,woman,,,,null,,,,
5535,,,survey-text,443,1281847,0.0-19.0-3.19,81029,List1B,white,woman,,,,,"{""Q0"":""jane and beth are marrying each other""}","<img src=""stim_listB/marry8.gif""</stim_listB>",are marrying each other,
2140,<p>Thank you for completing that task.</p><p>The final part of this session is a short questionnaire.</p><p>Press Continue.</p>,0,html-button-response,444,1283987,0.0-20.0,81029,List1B,white,woman,,,,,,,,
12514,,,survey-text,445,1297505,0.0-21.0,81029,List1B,white,woman,,,,,"{""Q0"":""28"",""Q1"":""English"",""Q2"":""English"",""Q3"":""England"",""Q4"":""White British"",""Q5"":""Female""}",,,demographics
51003,,,survey-likert,446,1348512,0.0-22.0,81029,List1B,white,woman,,,,,"{""Q0"":5,""Q1"":4,""Q2"":4,""Q3"":5,""Q4"":3,""Q5"":5,""Q6"":4,""Q7"":4,""Q8"":3,""Q9"":2,""Q10"":4,""Q11"":2,""Q12"":4,""Q13"":4}",,,likert_race
31252,,,survey-likert,447,1379769,0.0-23.0,81029,List1B,white,woman,,,,,"{""Q0"":5,""Q1"":5,""Q2"":5,""Q3"":6,""Q4"":5,""Q5"":4,""Q6"":5,""Q7"":1,""Q8"":5,""Q9"":5,""Q10"":4,""Q11"":4,""Q12"":5,""Q13"":4}",,,likert_gender
8046,,,survey-text,448,1387817,0.0-24.0,81029,List1B,white,woman,,,,,"{""Q0"":""ccc""}",,,worker_id
20639,,,external-html,449,1408503,0.0-25.0,81029,List1B,white,woman,debrief.html,,,,,,,
