rt,stimulus,button_pressed,trial_type,trial_index,time_elapsed,internal_node_id,subject,list,ppt_race,ppt_gender,url,first_guess,correct,key_press,responses,image_type,phrase_type,test_part
11093,Welcome to the experiment. Press Continue to begin.,0,html-button-response,0,11119,0.0-0.0,81823,List2B,white,man,,,,,,,,
95988,,,external-html,1,108179,0.0-1.0,81823,List2B,white,man,consent.html,,,,,,,
12581,"<p>On the next page, you will see portraits of 8 people and their names.</p><p>Your first task is to take a few minutes to memorise the names of these people.</p><p>You will have to recall their names during the rest of the experiment, so it is</p><p>essential that you try to memorise these people and their names as best as you can.</p><br><p><strong>You will then be tested on your memory of these names and portraits.</strong></p><br><p>The experiment will start after you have completed this memory test.</p><br><p>Ready?</p>",0,html-button-response,2,120762,0.0-2.0,81823,List2B,white,man,,,,,,,,
93725,"<img src='img/portrait_matrix_list2.JPG' style='width:900px;height:500px;''></img><p>If you have memorised all the portraits and names and are ready to start, press Continue.</p><p><strong>Please note: Your memory of these faces will be tested 4 times during this experiment.</strong></p>",0,html-button-response,3,215494,0.0-3.0-0.0,81823,List2B,white,man,,,,,,,,
42293,"<img src=""portrait/WW1.jpg""style=""width:400px;height:400px;""></img>",1,html-button-response,4,258798,0.0-3.0-1.0,81823,List2B,white,man,,TRUE,1,,,,,
null,CORRECT,,html-keyboard-response,5,260329,0.0-3.0-2.0-0.0,81823,List2B,white,man,,,,null,,,,
3467,"<img src=""portrait/WM2.jpg""style=""width:400px;height:400px;""></img>",7,html-button-response,6,263798,0.0-3.0-4.0,81823,List2B,white,man,,TRUE,7,,,,,
null,CORRECT,,html-keyboard-response,7,265330,0.0-3.0-5.0-0.0,81823,List2B,white,man,,,,null,,,,
6586,"<img src=""portrait/BM1.jpg""style=""width:400px;height:400px;""></img>",4,html-button-response,8,271918,0.0-3.0-7.0,81823,List2B,white,man,,TRUE,4,,,,,
null,CORRECT,,html-keyboard-response,9,273445,0.0-3.0-8.0-0.0,81823,List2B,white,man,,,,null,,,,
3922,"<img src=""portrait/BM2.jpg""style=""width:400px;height:400px;""></img>",5,html-button-response,10,277369,0.0-3.0-10.0,81823,List2B,white,man,,TRUE,5,,,,,
null,CORRECT,,html-keyboard-response,11,278888,0.0-3.0-11.0-0.0,81823,List2B,white,man,,,,null,,,,
1967,"<img src=""portrait/WW2.jpg""style=""width:400px;height:400px;""></img>",3,html-button-response,12,280857,0.0-3.0-13.0,81823,List2B,white,man,,TRUE,3,,,,,
null,CORRECT,,html-keyboard-response,13,282382,0.0-3.0-14.0-0.0,81823,List2B,white,man,,,,null,,,,
3940,"<img src=""portrait/BW1.jpg""style=""width:400px;height:400px;""></img>",0,html-button-response,14,286325,0.0-3.0-16.0,81823,List2B,white,man,,TRUE,0,,,,,
null,CORRECT,,html-keyboard-response,15,287834,0.0-3.0-17.0-0.0,81823,List2B,white,man,,,,null,,,,
3001,"<img src=""portrait/BW2.jpg""style=""width:400px;height:400px;""></img>",2,html-button-response,16,290837,0.0-3.0-19.0,81823,List2B,white,man,,TRUE,2,,,,,
null,CORRECT,,html-keyboard-response,17,292351,0.0-3.0-20.0-0.0,81823,List2B,white,man,,,,null,,,,
2224,"<img src=""portrait/WM1.jpg""style=""width:400px;height:400px;""></img>",6,html-button-response,18,294577,0.0-3.0-22.0,81823,List2B,white,man,,TRUE,6,,,,,
null,CORRECT,,html-keyboard-response,19,296100,0.0-3.0-23.0-0.0,81823,List2B,white,man,,,,null,,,,
2034,<p>You got 8 out of 8 right first time. Press Continue.</p>,0,html-button-response,20,298136,0.0-3.0-25.0,81823,List2B,white,man,,,,,,,,
37507,"<p>In this experiment, you will view photographs of the people from the memory game interacting.</p><p>By using the <strong>exact</strong> phrase given <i>after</i> the photograph appears and recalling the correct names of the people in the photographs, form a sentence describing the interaction. You do not need to capitalise names.</p><p>Type your answer in the space provided. Please complete every sentence before moving onto the next trial.</p><p>You will only have a few seconds to memorise each given photograph and phrase before you can respond, so try your best to focus.</p><p>An example is given below. Press 'Continue' when you are ready.</p><img src='img/speaking_example_v2.jpg' style='width:800px;height:460px;''></img>",0,html-button-response,21,336652,0.0-4.0,81823,List2B,white,man,,,,,,,,
1933,"<p>Before the experiment starts, you will watch two example trials. Press 'Continue'.</p>",0,html-button-response,22,339601,0.0-5.0,81823,List2B,white,man,,,,,,,,
null,<img src='img/speaking_WW.gif'></img>,,html-keyboard-response,23,342626,0.0-6.0,81823,List2B,white,man,,,,null,,,,
null,<p>is speaking to</p>,,html-keyboard-response,24,344629,0.0-7.0,81823,List2B,white,man,,,,null,,,,
5459,<p><b>Answer:</b> jane is speaking to ruth</p>,0,html-button-response,25,350089,0.0-8.0,81823,List2B,white,man,,,,,,,,
null,<img src='img/pointing_BM.gif'></img>,,html-keyboard-response,26,353106,0.0-9.0,81823,List2B,white,man,,,,null,,,,
null,<p>are pointing at each other</p>,,html-keyboard-response,27,355109,0.0-10.0,81823,List2B,white,man,,,,null,,,,
4291,<p><b>Answer:</b> fred and mike are pointing at each other</p>,0,html-button-response,28,359401,0.0-11.0,81823,List2B,white,man,,,,,,,,
3832,"<p>Ready to start the experiment?</p><br><p><strong>Remember to describe the picture using a full sentence,</strong></p><p><strong> that combines the names of the people with the given phrase.</strong></p><p><strong> You do not need to capitalise names or use punctuation.</strong></p><br><p>Press 'Continue' to begin.</p>",0,html-button-response,29,364249,0.0-12.0,81823,List2B,white,man,,,,,,,,
null,"<div style=""font-size:60px;"">+</div>",,html-keyboard-response,30,365752,0.0-13.0-0.0,81823,List2B,white,man,,,,null,,,,
null,"<img src=""stim_listB/dance7.gif""</stim_listB>",,html-keyboard-response,31,367758,0.0-13.0-1.0,81823,List2B,white,man,,,,null,,,,
null,is dancing with,,html-keyboard-response,32,369761,0.0-13.0-2.0,81823,List2B,white,man,,,,null,,,,
23797,,,survey-text,33,393560,0.0-13.0-3.0,81823,List2B,white,man,,,,,"{""Q0"":""Jane is dancing with Kate""}","<img src=""stim_listB/dance7.gif""</stim_listB>",is dancing with,
null,"<div style=""font-size:60px;"">+</div>",,html-keyboard-response,34,394070,0.0-13.0-0.1,81823,List2B,white,man,,,,null,,,,
null,"<img src=""stim_listB/talk4.gif""</stim_listB>",,html-keyboard-response,35,396077,0.0-13.0-1.1,81823,List2B,white,man,,,,null,,,,
null,are talking to each other,,html-keyboard-response,36,398079,0.0-13.0-2.1,81823,List2B,white,man,,,,null,,,,
11855,,,survey-text,37,409936,0.0-13.0-3.1,81823,List2B,white,man,,,,,"{""Q0"":""Mike is talking to Beth""}","<img src=""stim_listB/talk4.gif""</stim_listB>",are talking to each other,
null,"<div style=""font-size:60px;"">+</div>",,html-keyboard-response,38,410438,0.0-13.0-0.2,81823,List2B,white,man,,,,null,,,,
null,"<img src=""stim_listB/touch5.gif""</stim_listB>",,html-keyboard-response,39,412445,0.0-13.0-1.2,81823,List2B,white,man,,,,null,,,,
null,is touching,,html-keyboard-response,40,414451,0.0-13.0-2.2,81823,List2B,white,man,,,,null,,,,
18127,,,survey-text,41,432580,0.0-13.0-3.2,81823,List2B,white,man,,,,,"{""Q0"":""Mike is touching Dave""}","<img src=""stim_listB/touch5.gif""</stim_listB>",is touching,
null,"<div style=""font-size:60px;"">+</div>",,html-keyboard-response,42,433089,0.0-13.0-0.3,81823,List2B,white,man,,,,null,,,,
null,"<img src=""stim_listB/talk6.gif""</stim_listB>",,html-keyboard-response,43,435098,0.0-13.0-1.3,81823,List2B,white,man,,,,null,,,,
null,are talking to each other,,html-keyboard-response,44,437115,0.0-13.0-2.3,81823,List2B,white,man,,,,null,,,,
14023,,,survey-text,45,451140,0.0-13.0-3.3,81823,List2B,white,man,,,,,"{""Q0"":""Dave and Fred are talking to eachother""}","<img src=""stim_listB/talk6.gif""</stim_listB>",are talking to each other,
null,"<div style=""font-size:60px;"">+</div>",,html-keyboard-response,46,451656,0.0-13.0-0.4,81823,List2B,white,man,,,,null,,,,
null,"<img src=""stim_listB/meet8.gif""</stim_listB>",,html-keyboard-response,47,453669,0.0-13.0-1.4,81823,List2B,white,man,,,,null,,,,
null,are meeting each other,,html-keyboard-response,48,455671,0.0-13.0-2.4,81823,List2B,white,man,,,,null,,,,
14302,,,survey-text,49,469974,0.0-13.0-3.4,81823,List2B,white,man,,,,,"{""Q0"":""Beth and Ruth are meeting eachother""}","<img src=""stim_listB/meet8.gif""</stim_listB>",are meeting each other,
null,"<div style=""font-size:60px;"">+</div>",,html-keyboard-response,50,470490,0.0-13.0-0.5,81823,List2B,white,man,,,,null,,,,
null,"<img src=""stim_listB/touch4.gif""</stim_listB>",,html-keyboard-response,51,472501,0.0-13.0-1.5,81823,List2B,white,man,,,,null,,,,
null,are touching each other,,html-keyboard-response,52,474503,0.0-13.0-2.5,81823,List2B,white,man,,,,null,,,,
12894,,,survey-text,53,487399,0.0-13.0-3.5,81823,List2B,white,man,,,,,"{""Q0"":""Fred and Beth are touching eachother""}","<img src=""stim_listB/touch4.gif""</stim_listB>",are touching each other,
null,"<div style=""font-size:60px;"">+</div>",,html-keyboard-response,54,487914,0.0-13.0-0.6,81823,List2B,white,man,,,,null,,,,
null,"<img src=""stim_listB/fight4.gif""</stim_listB>",,html-keyboard-response,55,489919,0.0-13.0-1.6,81823,List2B,white,man,,,,null,,,,
null,are fighting each other,,html-keyboard-response,56,491933,0.0-13.0-2.6,81823,List2B,white,man,,,,null,,,,
18176,,,survey-text,57,510110,0.0-13.0-3.6,81823,List2B,white,man,,,,,"{""Q0"":""Fred and Beth are fighting eachother""}","<img src=""stim_listB/fight4.gif""</stim_listB>",are fighting each other,
null,"<div style=""font-size:60px;"">+</div>",,html-keyboard-response,58,510615,0.0-13.0-0.7,81823,List2B,white,man,,,,null,,,,
null,"<img src=""stim_listB/fight2.gif""</stim_listB>",,html-keyboard-response,59,512620,0.0-13.0-1.7,81823,List2B,white,man,,,,null,,,,
null,are fighting each other,,html-keyboard-response,60,514636,0.0-13.0-2.7,81823,List2B,white,man,,,,null,,,,
16399,,,survey-text,61,531036,0.0-13.0-3.7,81823,List2B,white,man,,,,,"{""Q0"":""Luke and Ruth are fighting each other""}","<img src=""stim_listB/fight2.gif""</stim_listB>",are fighting each other,
null,"<div style=""font-size:60px;"">+</div>",,html-keyboard-response,62,531541,0.0-13.0-0.8,81823,List2B,white,man,,,,null,,,,
null,"<img src=""stim_listB/kiss7.gif""</stim_listB>",,html-keyboard-response,63,533547,0.0-13.0-1.8,81823,List2B,white,man,,,,null,,,,
null,is kissing,,html-keyboard-response,64,535563,0.0-13.0-2.8,81823,List2B,white,man,,,,null,,,,
7031,,,survey-text,65,542596,0.0-13.0-3.8,81823,List2B,white,man,,,,,"{""Q0"":""Beth is kissing Ruth""}","<img src=""stim_listB/kiss7.gif""</stim_listB>",is kissing,
null,"<div style=""font-size:60px;"">+</div>",,html-keyboard-response,66,543101,0.0-13.0-0.9,81823,List2B,white,man,,,,null,,,,
null,"<img src=""stim_listB/hug4.gif""</stim_listB>",,html-keyboard-response,67,545115,0.0-13.0-1.9,81823,List2B,white,man,,,,null,,,,
null,are hugging each other,,html-keyboard-response,68,547117,0.0-13.0-2.9,81823,List2B,white,man,,,,null,,,,
15189,,,survey-text,69,562308,0.0-13.0-3.9,81823,List2B,white,man,,,,,"{""Q0"":""Mike and Beth are hugging each other""}","<img src=""stim_listB/hug4.gif""</stim_listB>",are hugging each other,
null,"<div style=""font-size:60px;"">+</div>",,html-keyboard-response,70,562810,0.0-13.0-0.10,81823,List2B,white,man,,,,null,,,,
null,"<img src=""stim_listB/argue7.gif""</stim_listB>",,html-keyboard-response,71,564822,0.0-13.0-1.10,81823,List2B,white,man,,,,null,,,,
null,is arguing with,,html-keyboard-response,72,566838,0.0-13.0-2.10,81823,List2B,white,man,,,,null,,,,
269234,,,survey-text,73,836072,0.0-13.0-3.10,81823,List2B,white,man,,,,,"{""Q0"":""pass""}","<img src=""stim_listB/argue7.gif""</stim_listB>",is arguing with,
null,"<div style=""font-size:60px;"">+</div>",,html-keyboard-response,74,836584,0.0-13.0-0.11,81823,List2B,white,man,,,,null,,,,
null,"<img src=""stim_listB/meet3.gif""</stim_listB>",,html-keyboard-response,75,838591,0.0-13.0-1.11,81823,List2B,white,man,,,,null,,,,
null,is meeting,,html-keyboard-response,76,840606,0.0-13.0-2.11,81823,List2B,white,man,,,,null,,,,
8865,,,survey-text,77,849472,0.0-13.0-3.11,81823,List2B,white,man,,,,,"{""Q0"":""Kate is meeting Mike""}","<img src=""stim_listB/meet3.gif""</stim_listB>",is meeting,
null,"<div style=""font-size:60px;"">+</div>",,html-keyboard-response,78,849985,0.0-13.0-0.12,81823,List2B,white,man,,,,null,,,,
null,"<img src=""stim_listB/meet1.gif""</stim_listB>",,html-keyboard-response,79,851994,0.0-13.0-1.12,81823,List2B,white,man,,,,null,,,,
null,is meeting,,html-keyboard-response,80,853995,0.0-13.0-2.12,81823,List2B,white,man,,,,null,,,,
12903,,,survey-text,81,866900,0.0-13.0-3.12,81823,List2B,white,man,,,,,"{""Q0"":""Dave is meeting Jane""}","<img src=""stim_listB/meet1.gif""</stim_listB>",is meeting,
null,"<div style=""font-size:60px;"">+</div>",,html-keyboard-response,82,867401,0.0-13.0-0.13,81823,List2B,white,man,,,,null,,,,
null,"<img src=""stim_listB/marry1.gif""</stim_listB>",,html-keyboard-response,83,869407,0.0-13.0-1.13,81823,List2B,white,man,,,,null,,,,
null,is marrying,,html-keyboard-response,84,871423,0.0-13.0-2.13,81823,List2B,white,man,,,,null,,,,
10091,,,survey-text,85,881515,0.0-13.0-3.13,81823,List2B,white,man,,,,,"{""Q0"":""Dave is Marrying Ruth""}","<img src=""stim_listB/marry1.gif""</stim_listB>",is marrying,
null,"<div style=""font-size:60px;"">+</div>",,html-keyboard-response,86,882018,0.0-13.0-0.14,81823,List2B,white,man,,,,null,,,,
null,"<img src=""stim_listB/kiss4.gif""</stim_listB>",,html-keyboard-response,87,884029,0.0-13.0-1.14,81823,List2B,white,man,,,,null,,,,
null,are kissing each other,,html-keyboard-response,88,886031,0.0-13.0-2.14,81823,List2B,white,man,,,,null,,,,
23760,,,survey-text,89,909792,0.0-13.0-3.14,81823,List2B,white,man,,,,,"{""Q0"":""Kate and Mike are kissing each other""}","<img src=""stim_listB/kiss4.gif""</stim_listB>",are kissing each other,
null,"<div style=""font-size:60px;"">+</div>",,html-keyboard-response,90,910301,0.0-13.0-0.15,81823,List2B,white,man,,,,null,,,,
null,"<img src=""stim_listB/shout5.gif""</stim_listB>",,html-keyboard-response,91,912316,0.0-13.0-1.15,81823,List2B,white,man,,,,null,,,,
null,is shouting at,,html-keyboard-response,92,914317,0.0-13.0-2.15,81823,List2B,white,man,,,,null,,,,
33789,,,survey-text,93,948108,0.0-13.0-3.15,81823,List2B,white,man,,,,,"{""Q0"":""pass""}","<img src=""stim_listB/shout5.gif""</stim_listB>",is shouting at,
null,"<div style=""font-size:60px;"">+</div>",,html-keyboard-response,94,948612,0.0-13.0-0.16,81823,List2B,white,man,,,,null,,,,
null,"<img src=""stim_listB/argue5.gif""</stim_listB>",,html-keyboard-response,95,950620,0.0-13.0-1.16,81823,List2B,white,man,,,,null,,,,
null,is arguing with,,html-keyboard-response,96,952621,0.0-13.0-2.16,81823,List2B,white,man,,,,null,,,,
12873,,,survey-text,97,965496,0.0-13.0-3.16,81823,List2B,white,man,,,,,"{""Q0"":""Luke is shouting at Mike""}","<img src=""stim_listB/argue5.gif""</stim_listB>",is arguing with,
null,"<div style=""font-size:60px;"">+</div>",,html-keyboard-response,98,965999,0.0-13.0-0.17,81823,List2B,white,man,,,,null,,,,
null,"<img src=""stim_listB/shout3.gif""</stim_listB>",,html-keyboard-response,99,968007,0.0-13.0-1.17,81823,List2B,white,man,,,,null,,,,
null,is shouting at,,html-keyboard-response,100,970022,0.0-13.0-2.17,81823,List2B,white,man,,,,null,,,,
79809,,,survey-text,101,1049831,0.0-13.0-3.17,81823,List2B,white,man,,,,,"{""Q0"":""pass""}","<img src=""stim_listB/shout3.gif""</stim_listB>",is shouting at,
null,"<div style=""font-size:60px;"">+</div>",,html-keyboard-response,102,1050332,0.0-13.0-0.18,81823,List2B,white,man,,,,null,,,,
null,"<img src=""stim_listB/shout8.gif""</stim_listB>",,html-keyboard-response,103,1052341,0.0-13.0-1.18,81823,List2B,white,man,,,,null,,,,
null,are shouting at each other,,html-keyboard-response,104,1054357,0.0-13.0-2.18,81823,List2B,white,man,,,,null,,,,
49636,,,survey-text,105,1103994,0.0-13.0-3.18,81823,List2B,white,man,,,,,"{""Q0"":""Kate and Jane are shouting at eachother""}","<img src=""stim_listB/shout8.gif""</stim_listB>",are shouting at each other,
null,"<div style=""font-size:60px;"">+</div>",,html-keyboard-response,106,1104499,0.0-13.0-0.19,81823,List2B,white,man,,,,null,,,,
null,"<img src=""stim_listB/fight1.gif""</stim_listB>",,html-keyboard-response,107,1106506,0.0-13.0-1.19,81823,List2B,white,man,,,,null,,,,
null,is fighting,,html-keyboard-response,108,1108519,0.0-13.0-2.19,81823,List2B,white,man,,,,null,,,,
7716,,,survey-text,109,1116236,0.0-13.0-3.19,81823,List2B,white,man,,,,,"{""Q0"":""Dave is fighting Jane""}","<img src=""stim_listB/fight1.gif""</stim_listB>",is fighting,
7307,"<img src='img/portrait_matrix_list2.JPG' style='width:900px;height:500px;''></img><p>If you have memorised all the portraits and names and are ready to start, press Continue.</p><p><strong>Please note: Your memory of these faces will be tested 4 times during this experiment.</strong></p>",0,html-button-response,110,1123544,0.0-14.0-0.0,81823,List2B,white,man,,,,,,,,
2842,"<img src=""portrait/WM1.jpg""style=""width:400px;height:400px;""></img>",6,html-button-response,111,1127389,0.0-14.0-1.0,81823,List2B,white,man,,TRUE,6,,,,,
null,CORRECT,,html-keyboard-response,112,1128908,0.0-14.0-2.0-0.0,81823,List2B,white,man,,,,null,,,,
4606,"<img src=""portrait/BM1.jpg""style=""width:400px;height:400px;""></img>",4,html-button-response,113,1133516,0.0-14.0-4.0,81823,List2B,white,man,,TRUE,4,,,,,
null,CORRECT,,html-keyboard-response,114,1135043,0.0-14.0-5.0-0.0,81823,List2B,white,man,,,,null,,,,
3815,"<img src=""portrait/BW2.jpg""style=""width:400px;height:400px;""></img>",2,html-button-response,115,1138860,0.0-14.0-7.0,81823,List2B,white,man,,TRUE,2,,,,,
null,CORRECT,,html-keyboard-response,116,1140377,0.0-14.0-8.0-0.0,81823,List2B,white,man,,,,null,,,,
3137,"<img src=""portrait/WM2.jpg""style=""width:400px;height:400px;""></img>",7,html-button-response,117,1143516,0.0-14.0-10.0,81823,List2B,white,man,,TRUE,7,,,,,
null,CORRECT,,html-keyboard-response,118,1145030,0.0-14.0-11.0-0.0,81823,List2B,white,man,,,,null,,,,
5693,"<img src=""portrait/BW1.jpg""style=""width:400px;height:400px;""></img>",0,html-button-response,119,1150724,0.0-14.0-13.0,81823,List2B,white,man,,TRUE,0,,,,,
null,CORRECT,,html-keyboard-response,120,1152233,0.0-14.0-14.0-0.0,81823,List2B,white,man,,,,null,,,,
2217,"<img src=""portrait/WW2.jpg""style=""width:400px;height:400px;""></img>",3,html-button-response,121,1154452,0.0-14.0-16.0,81823,List2B,white,man,,TRUE,3,,,,,
null,CORRECT,,html-keyboard-response,122,1155961,0.0-14.0-17.0-0.0,81823,List2B,white,man,,,,null,,,,
5745,"<img src=""portrait/WW1.jpg""style=""width:400px;height:400px;""></img>",1,html-button-response,123,1161708,0.0-14.0-19.0,81823,List2B,white,man,,TRUE,1,,,,,
null,CORRECT,,html-keyboard-response,124,1163239,0.0-14.0-20.0-0.0,81823,List2B,white,man,,,,null,,,,
3038,"<img src=""portrait/BM2.jpg""style=""width:400px;height:400px;""></img>",5,html-button-response,125,1166280,0.0-14.0-22.0,81823,List2B,white,man,,TRUE,5,,,,,
null,CORRECT,,html-keyboard-response,126,1167796,0.0-14.0-23.0-0.0,81823,List2B,white,man,,,,null,,,,
1465,<p>You got 8 out of 8 right first time. Press Continue.</p>,0,html-button-response,127,1169263,0.0-14.0-25.0,81823,List2B,white,man,,,,,,,,
null,"<div style=""font-size:60px;"">+</div>",,html-keyboard-response,128,1170767,0.0-15.0-0.0,81823,List2B,white,man,,,,null,,,,
null,"<img src=""stim_listB/kiss2.gif""</stim_listB>",,html-keyboard-response,129,1172774,0.0-15.0-1.0,81823,List2B,white,man,,,,null,,,,
null,are kissing each other,,html-keyboard-response,130,1174775,0.0-15.0-2.0,81823,List2B,white,man,,,,null,,,,
9210,,,survey-text,131,1183986,0.0-15.0-3.0,81823,List2B,white,man,,,,,"{""Q0"":""Dave and Jane are kissing each other""}","<img src=""stim_listB/kiss2.gif""</stim_listB>",are kissing each other,
null,"<div style=""font-size:60px;"">+</div>",,html-keyboard-response,132,1184495,0.0-15.0-0.1,81823,List2B,white,man,,,,null,,,,
null,"<img src=""stim_listB/meet6.gif""</stim_listB>",,html-keyboard-response,133,1186506,0.0-15.0-1.1,81823,List2B,white,man,,,,null,,,,
null,are meeting each other,,html-keyboard-response,134,1188522,0.0-15.0-2.1,81823,List2B,white,man,,,,null,,,,
12150,,,survey-text,135,1200674,0.0-15.0-3.1,81823,List2B,white,man,,,,,"{""Q0"":""Luke and Fred are meeting each other""}","<img src=""stim_listB/meet6.gif""</stim_listB>",are meeting each other,
null,"<div style=""font-size:60px;"">+</div>",,html-keyboard-response,136,1201184,0.0-15.0-0.2,81823,List2B,white,man,,,,null,,,,
null,"<img src=""stim_listB/hug1.gif""</stim_listB>",,html-keyboard-response,137,1203190,0.0-15.0-1.2,81823,List2B,white,man,,,,null,,,,
null,is hugging,,html-keyboard-response,138,1205193,0.0-15.0-2.2,81823,List2B,white,man,,,,null,,,,
20007,,,survey-text,139,1225201,0.0-15.0-3.2,81823,List2B,white,man,,,,,"{""Q0"":""Luke is hugging Ruth""}","<img src=""stim_listB/hug1.gif""</stim_listB>",is hugging,
null,"<div style=""font-size:60px;"">+</div>",,html-keyboard-response,140,1225703,0.0-15.0-0.3,81823,List2B,white,man,,,,null,,,,
null,"<img src=""stim_listB/dance4.gif""</stim_listB>",,html-keyboard-response,141,1227709,0.0-15.0-1.3,81823,List2B,white,man,,,,null,,,,
null,are dancing with each other,,html-keyboard-response,142,1229734,0.0-15.0-2.3,81823,List2B,white,man,,,,null,,,,
13905,,,survey-text,143,1243639,0.0-15.0-3.3,81823,List2B,white,man,,,,,"{""Q0"":""Beth and Mike are dancing with each other""}","<img src=""stim_listB/dance4.gif""</stim_listB>",are dancing with each other,
null,"<div style=""font-size:60px;"">+</div>",,html-keyboard-response,144,1244147,0.0-15.0-0.4,81823,List2B,white,man,,,,null,,,,
null,"<img src=""stim_listB/touch3.gif""</stim_listB>",,html-keyboard-response,145,1246157,0.0-15.0-1.4,81823,List2B,white,man,,,,null,,,,
null,is touching,,html-keyboard-response,146,1248161,0.0-15.0-2.4,81823,List2B,white,man,,,,null,,,,
6957,,,survey-text,147,1255119,0.0-15.0-3.4,81823,List2B,white,man,,,,,"{""Q0"":""Mike is touching Kate""}","<img src=""stim_listB/touch3.gif""</stim_listB>",is touching,
null,"<div style=""font-size:60px;"">+</div>",,html-keyboard-response,148,1255622,0.0-15.0-0.5,81823,List2B,white,man,,,,null,,,,
null,"<img src=""stim_listB/shout2.gif""</stim_listB>",,html-keyboard-response,149,1257626,0.0-15.0-1.5,81823,List2B,white,man,,,,null,,,,
null,are shouting at each other,,html-keyboard-response,150,1259629,0.0-15.0-2.5,81823,List2B,white,man,,,,null,,,,
9141,,,survey-text,151,1268771,0.0-15.0-3.5,81823,List2B,white,man,,,,,"{""Q0"":""Dave and Jane are shouting at each other""}","<img src=""stim_listB/shout2.gif""</stim_listB>",are shouting at each other,
null,"<div style=""font-size:60px;"">+</div>",,html-keyboard-response,152,1269272,0.0-15.0-0.6,81823,List2B,white,man,,,,null,,,,
null,"<img src=""stim_listB/dance3.gif""</stim_listB>",,html-keyboard-response,153,1271275,0.0-15.0-1.6,81823,List2B,white,man,,,,null,,,,
null,is dancing with,,html-keyboard-response,154,1273276,0.0-15.0-2.6,81823,List2B,white,man,,,,null,,,,
21716,,,survey-text,155,1294994,0.0-15.0-3.6,81823,List2B,white,man,,,,,"{""Q0"":""Kate and fred are dancing with each other""}","<img src=""stim_listB/dance3.gif""</stim_listB>",is dancing with,
null,"<div style=""font-size:60px;"">+</div>",,html-keyboard-response,156,1295497,0.0-15.0-0.7,81823,List2B,white,man,,,,null,,,,
null,"<img src=""stim_listB/shout4.gif""</stim_listB>",,html-keyboard-response,157,1297509,0.0-15.0-1.7,81823,List2B,white,man,,,,null,,,,
null,are shouting at each other,,html-keyboard-response,158,1299523,0.0-15.0-2.7,81823,List2B,white,man,,,,null,,,,
12718,,,survey-text,159,1312242,0.0-15.0-3.7,81823,List2B,white,man,,,,,"{""Q0"":""Kate and Mike are shouting at eachother""}","<img src=""stim_listB/shout4.gif""</stim_listB>",are shouting at each other,
null,"<div style=""font-size:60px;"">+</div>",,html-keyboard-response,160,1312754,0.0-15.0-0.8,81823,List2B,white,man,,,,null,,,,
null,"<img src=""stim_listB/fight6.gif""</stim_listB>",,html-keyboard-response,161,1314762,0.0-15.0-1.8,81823,List2B,white,man,,,,null,,,,
null,are fighting each other,,html-keyboard-response,162,1316777,0.0-15.0-2.8,81823,List2B,white,man,,,,null,,,,
13015,,,survey-text,163,1329793,0.0-15.0-3.8,81823,List2B,white,man,,,,,"{""Q0"":""Luke and Fred are fighting each other""}","<img src=""stim_listB/fight6.gif""</stim_listB>",are fighting each other,
null,"<div style=""font-size:60px;"">+</div>",,html-keyboard-response,164,1330295,0.0-15.0-0.9,81823,List2B,white,man,,,,null,,,,
null,"<img src=""stim_listB/fight5.gif""</stim_listB>",,html-keyboard-response,165,1332310,0.0-15.0-1.9,81823,List2B,white,man,,,,null,,,,
null,is fighting,,html-keyboard-response,166,1334316,0.0-15.0-2.9,81823,List2B,white,man,,,,null,,,,
10981,,,survey-text,167,1345298,0.0-15.0-3.9,81823,List2B,white,man,,,,,"{""Q0"":""Dave is fighting Mike""}","<img src=""stim_listB/fight5.gif""</stim_listB>",is fighting,
null,"<div style=""font-size:60px;"">+</div>",,html-keyboard-response,168,1345805,0.0-15.0-0.10,81823,List2B,white,man,,,,null,,,,
null,"<img src=""stim_listB/dance5.gif""</stim_listB>",,html-keyboard-response,169,1347813,0.0-15.0-1.10,81823,List2B,white,man,,,,null,,,,
null,is dancing with,,html-keyboard-response,170,1349829,0.0-15.0-2.10,81823,List2B,white,man,,,,null,,,,
8861,,,survey-text,171,1358691,0.0-15.0-3.10,81823,List2B,white,man,,,,,"{""Q0"":""Luke is dancing with Mike""}","<img src=""stim_listB/dance5.gif""</stim_listB>",is dancing with,
null,"<div style=""font-size:60px;"">+</div>",,html-keyboard-response,172,1359193,0.0-15.0-0.11,81823,List2B,white,man,,,,null,,,,
null,"<img src=""stim_listB/kiss6.gif""</stim_listB>",,html-keyboard-response,173,1361199,0.0-15.0-1.11,81823,List2B,white,man,,,,null,,,,
null,are kissing each other,,html-keyboard-response,174,1363201,0.0-15.0-2.11,81823,List2B,white,man,,,,null,,,,
13258,,,survey-text,175,1376460,0.0-15.0-3.11,81823,List2B,white,man,,,,,"{""Q0"":""Dave and Mike are kissing each other""}","<img src=""stim_listB/kiss6.gif""</stim_listB>",are kissing each other,
null,"<div style=""font-size:60px;"">+</div>",,html-keyboard-response,176,1376962,0.0-15.0-0.12,81823,List2B,white,man,,,,null,,,,
null,"<img src=""stim_listB/argue2.gif""</stim_listB>",,html-keyboard-response,177,1378968,0.0-15.0-1.12,81823,List2B,white,man,,,,null,,,,
null,are arguing with each other,,html-keyboard-response,178,1380970,0.0-15.0-2.12,81823,List2B,white,man,,,,null,,,,
9268,,,survey-text,179,1390239,0.0-15.0-3.12,81823,List2B,white,man,,,,,"{""Q0"":""Luke and Jane are arguing with each other""}","<img src=""stim_listB/argue2.gif""</stim_listB>",are arguing with each other,
null,"<div style=""font-size:60px;"">+</div>",,html-keyboard-response,180,1390743,0.0-15.0-0.13,81823,List2B,white,man,,,,null,,,,
null,"<img src=""stim_listB/argue3.gif""</stim_listB>",,html-keyboard-response,181,1392760,0.0-15.0-1.13,81823,List2B,white,man,,,,null,,,,
null,is arguing with,,html-keyboard-response,182,1394771,0.0-15.0-2.13,81823,List2B,white,man,,,,null,,,,
7675,,,survey-text,183,1402448,0.0-15.0-3.13,81823,List2B,white,man,,,,,"{""Q0"":""Beth is arguing with Mike""}","<img src=""stim_listB/argue3.gif""</stim_listB>",is arguing with,
null,"<div style=""font-size:60px;"">+</div>",,html-keyboard-response,184,1402961,0.0-15.0-0.14,81823,List2B,white,man,,,,null,,,,
null,"<img src=""stim_listB/fight8.gif""</stim_listB>",,html-keyboard-response,185,1404969,0.0-15.0-1.14,81823,List2B,white,man,,,,null,,,,
null,are fighting each other,,html-keyboard-response,186,1406971,0.0-15.0-2.14,81823,List2B,white,man,,,,null,,,,
10880,,,survey-text,187,1417853,0.0-15.0-3.14,81823,List2B,white,man,,,,,"{""Q0"":""Beth is fighting with Ruth""}","<img src=""stim_listB/fight8.gif""</stim_listB>",are fighting each other,
null,"<div style=""font-size:60px;"">+</div>",,html-keyboard-response,188,1418361,0.0-15.0-0.15,81823,List2B,white,man,,,,null,,,,
null,"<img src=""stim_listB/touch8.gif""</stim_listB>",,html-keyboard-response,189,1420367,0.0-15.0-1.15,81823,List2B,white,man,,,,null,,,,
null,are touching each other,,html-keyboard-response,190,1422382,0.0-15.0-2.15,81823,List2B,white,man,,,,null,,,,
10421,,,survey-text,191,1432805,0.0-15.0-3.15,81823,List2B,white,man,,,,,"{""Q0"":""Beth and ruth are touching each other""}","<img src=""stim_listB/touch8.gif""</stim_listB>",are touching each other,
null,"<div style=""font-size:60px;"">+</div>",,html-keyboard-response,192,1433311,0.0-15.0-0.16,81823,List2B,white,man,,,,null,,,,
null,"<img src=""stim_listB/talk1.gif""</stim_listB>",,html-keyboard-response,193,1435318,0.0-15.0-1.16,81823,List2B,white,man,,,,null,,,,
null,is talking to,,html-keyboard-response,194,1437320,0.0-15.0-2.16,81823,List2B,white,man,,,,null,,,,
6676,,,survey-text,195,1443996,0.0-15.0-3.16,81823,List2B,white,man,,,,,"{""Q0"":""Jane is talking to Luke""}","<img src=""stim_listB/talk1.gif""</stim_listB>",is talking to,
null,"<div style=""font-size:60px;"">+</div>",,html-keyboard-response,196,1444512,0.0-15.0-0.17,81823,List2B,white,man,,,,null,,,,
null,"<img src=""stim_listB/touch6.gif""</stim_listB>",,html-keyboard-response,197,1446518,0.0-15.0-1.17,81823,List2B,white,man,,,,null,,,,
null,are touching each other,,html-keyboard-response,198,1448519,0.0-15.0-2.17,81823,List2B,white,man,,,,null,,,,
11308,,,survey-text,199,1459828,0.0-15.0-3.17,81823,List2B,white,man,,,,,"{""Q0"":""Luke and Fred are touching each other""}","<img src=""stim_listB/touch6.gif""</stim_listB>",are touching each other,
null,"<div style=""font-size:60px;"">+</div>",,html-keyboard-response,200,1460330,0.0-15.0-0.18,81823,List2B,white,man,,,,null,,,,
null,"<img src=""stim_listB/dance8.gif""</stim_listB>",,html-keyboard-response,201,1462337,0.0-15.0-1.18,81823,List2B,white,man,,,,null,,,,
null,are dancing with each other,,html-keyboard-response,202,1464352,0.0-15.0-2.18,81823,List2B,white,man,,,,null,,,,
18066,,,survey-text,203,1482420,0.0-15.0-3.18,81823,List2B,white,man,,,,,"{""Q0"":""Jane and Beth are dancing with each other""}","<img src=""stim_listB/dance8.gif""</stim_listB>",are dancing with each other,
null,"<div style=""font-size:60px;"">+</div>",,html-keyboard-response,204,1482921,0.0-15.0-0.19,81823,List2B,white,man,,,,null,,,,
null,"<img src=""stim_listB/marry4.gif""</stim_listB>",,html-keyboard-response,205,1484937,0.0-15.0-1.19,81823,List2B,white,man,,,,null,,,,
null,are marrying each other,,html-keyboard-response,206,1486947,0.0-15.0-2.19,81823,List2B,white,man,,,,null,,,,
12068,,,survey-text,207,1499015,0.0-15.0-3.19,81823,List2B,white,man,,,,,"{""Q0"":""Kate and Fred are marrying each other""}","<img src=""stim_listB/marry4.gif""</stim_listB>",are marrying each other,
3947,"<img src='img/portrait_matrix_list2.JPG' style='width:900px;height:500px;''></img><p>If you have memorised all the portraits and names and are ready to start, press Continue.</p><p><strong>Please note: Your memory of these faces will be tested 4 times during this experiment.</strong></p>",0,html-button-response,208,1502963,0.0-16.0-0.0,81823,List2B,white,man,,,,,,,,
5667,"<img src=""portrait/BW1.jpg""style=""width:400px;height:400px;""></img>",0,html-button-response,209,1509635,0.0-16.0-1.0,81823,List2B,white,man,,TRUE,0,,,,,
null,CORRECT,,html-keyboard-response,210,1511147,0.0-16.0-2.0-0.0,81823,List2B,white,man,,,,null,,,,
1666,"<img src=""portrait/WW2.jpg""style=""width:400px;height:400px;""></img>",3,html-button-response,211,1512815,0.0-16.0-4.0,81823,List2B,white,man,,TRUE,3,,,,,
null,CORRECT,,html-keyboard-response,212,1514348,0.0-16.0-5.0-0.0,81823,List2B,white,man,,,,null,,,,
2406,"<img src=""portrait/WW1.jpg""style=""width:400px;height:400px;""></img>",1,html-button-response,213,1516755,0.0-16.0-7.0,81823,List2B,white,man,,TRUE,1,,,,,
null,CORRECT,,html-keyboard-response,214,1518280,0.0-16.0-8.0-0.0,81823,List2B,white,man,,,,null,,,,
1985,"<img src=""portrait/BM2.jpg""style=""width:400px;height:400px;""></img>",5,html-button-response,215,1520267,0.0-16.0-10.0,81823,List2B,white,man,,TRUE,5,,,,,
null,CORRECT,,html-keyboard-response,216,1521781,0.0-16.0-11.0-0.0,81823,List2B,white,man,,,,null,,,,
1616,"<img src=""portrait/WM2.jpg""style=""width:400px;height:400px;""></img>",7,html-button-response,217,1523400,0.0-16.0-13.0,81823,List2B,white,man,,TRUE,7,,,,,
null,CORRECT,,html-keyboard-response,218,1524914,0.0-16.0-14.0-0.0,81823,List2B,white,man,,,,null,,,,
5171,"<img src=""portrait/BW2.jpg""style=""width:400px;height:400px;""></img>",2,html-button-response,219,1530087,0.0-16.0-16.0,81823,List2B,white,man,,TRUE,2,,,,,
null,CORRECT,,html-keyboard-response,220,1531613,0.0-16.0-17.0-0.0,81823,List2B,white,man,,,,null,,,,
2595,"<img src=""portrait/WM1.jpg""style=""width:400px;height:400px;""></img>",6,html-button-response,221,1534211,0.0-16.0-19.0,81823,List2B,white,man,,TRUE,6,,,,,
null,CORRECT,,html-keyboard-response,222,1535731,0.0-16.0-20.0-0.0,81823,List2B,white,man,,,,null,,,,
2530,"<img src=""portrait/BM1.jpg""style=""width:400px;height:400px;""></img>",4,html-button-response,223,1538264,0.0-16.0-22.0,81823,List2B,white,man,,TRUE,4,,,,,
null,CORRECT,,html-keyboard-response,224,1539781,0.0-16.0-23.0-0.0,81823,List2B,white,man,,,,null,,,,
1305,<p>You got 8 out of 8 right first time. Press Continue.</p>,0,html-button-response,225,1541087,0.0-16.0-25.0,81823,List2B,white,man,,,,,,,,
null,"<div style=""font-size:60px;"">+</div>",,html-keyboard-response,226,1542610,0.0-17.0-0.0,81823,List2B,white,man,,,,null,,,,
null,"<img src=""stim_listB/hug7.gif""</stim_listB>",,html-keyboard-response,227,1544623,0.0-17.0-1.0,81823,List2B,white,man,,,,null,,,,
null,is hugging,,html-keyboard-response,228,1546637,0.0-17.0-2.0,81823,List2B,white,man,,,,null,,,,
6988,,,survey-text,229,1553627,0.0-17.0-3.0,81823,List2B,white,man,,,,,"{""Q0"":""Jane is hugging Beth""}","<img src=""stim_listB/hug7.gif""</stim_listB>",is hugging,
null,"<div style=""font-size:60px;"">+</div>",,html-keyboard-response,230,1554133,0.0-17.0-0.1,81823,List2B,white,man,,,,null,,,,
null,"<img src=""stim_listB/touch2.gif""</stim_listB>",,html-keyboard-response,231,1556140,0.0-17.0-1.1,81823,List2B,white,man,,,,null,,,,
null,are touching each other,,html-keyboard-response,232,1558147,0.0-17.0-2.1,81823,List2B,white,man,,,,null,,,,
8898,,,survey-text,233,1567047,0.0-17.0-3.1,81823,List2B,white,man,,,,,"{""Q0"":""Luke and Ruth are touching each other""}","<img src=""stim_listB/touch2.gif""</stim_listB>",are touching each other,
null,"<div style=""font-size:60px;"">+</div>",,html-keyboard-response,234,1567557,0.0-17.0-0.2,81823,List2B,white,man,,,,null,,,,
null,"<img src=""stim_listB/talk3.gif""</stim_listB>",,html-keyboard-response,235,1569571,0.0-17.0-1.2,81823,List2B,white,man,,,,null,,,,
null,is talking to,,html-keyboard-response,236,1571579,0.0-17.0-2.2,81823,List2B,white,man,,,,null,,,,
8674,,,survey-text,237,1580255,0.0-17.0-3.2,81823,List2B,white,man,,,,,"{""Q0"":""Fred is talking to Kate""}","<img src=""stim_listB/talk3.gif""</stim_listB>",is talking to,
null,"<div style=""font-size:60px;"">+</div>",,html-keyboard-response,238,1580768,0.0-17.0-0.3,81823,List2B,white,man,,,,null,,,,
null,"<img src=""stim_listB/talk5.gif""</stim_listB>",,html-keyboard-response,239,1582776,0.0-17.0-1.3,81823,List2B,white,man,,,,null,,,,
null,is talking to,,html-keyboard-response,240,1584777,0.0-17.0-2.3,81823,List2B,white,man,,,,null,,,,
8476,,,survey-text,241,1593255,0.0-17.0-3.3,81823,List2B,white,man,,,,,"{""Q0"":""Mike is talking to Luke""}","<img src=""stim_listB/talk5.gif""</stim_listB>",is talking to,
null,"<div style=""font-size:60px;"">+</div>",,html-keyboard-response,242,1593758,0.0-17.0-0.4,81823,List2B,white,man,,,,null,,,,
null,"<img src=""stim_listB/touch7.gif""</stim_listB>",,html-keyboard-response,243,1595775,0.0-17.0-1.4,81823,List2B,white,man,,,,null,,,,
null,is touching,,html-keyboard-response,244,1597779,0.0-17.0-2.4,81823,List2B,white,man,,,,null,,,,
9710,,,survey-text,245,1607491,0.0-17.0-3.4,81823,List2B,white,man,,,,,"{""Q0"":""Jane is touching Kate""}","<img src=""stim_listB/touch7.gif""</stim_listB>",is touching,
null,"<div style=""font-size:60px;"">+</div>",,html-keyboard-response,246,1608002,0.0-17.0-0.5,81823,List2B,white,man,,,,null,,,,
null,"<img src=""stim_listB/shout6.gif""</stim_listB>",,html-keyboard-response,247,1610012,0.0-17.0-1.5,81823,List2B,white,man,,,,null,,,,
null,are shouting at each other,,html-keyboard-response,248,1612013,0.0-17.0-2.5,81823,List2B,white,man,,,,null,,,,
8132,,,survey-text,249,1620146,0.0-17.0-3.5,81823,List2B,white,man,,,,,"{""Q0"":""Dave and Mike are shouting at each other""}","<img src=""stim_listB/shout6.gif""</stim_listB>",are shouting at each other,
null,"<div style=""font-size:60px;"">+</div>",,html-keyboard-response,250,1620655,0.0-17.0-0.6,81823,List2B,white,man,,,,null,,,,
null,"<img src=""stim_listB/shout7.gif""</stim_listB>",,html-keyboard-response,251,1622663,0.0-17.0-1.6,81823,List2B,white,man,,,,null,,,,
null,is shouting at,,html-keyboard-response,252,1624677,0.0-17.0-2.6,81823,List2B,white,man,,,,null,,,,
9160,,,survey-text,253,1633839,0.0-17.0-3.6,81823,List2B,white,man,,,,,"{""Q0"":""Ruth is shouting at Beth""}","<img src=""stim_listB/shout7.gif""</stim_listB>",is shouting at,
null,"<div style=""font-size:60px;"">+</div>",,html-keyboard-response,254,1634350,0.0-17.0-0.7,81823,List2B,white,man,,,,null,,,,
null,"<img src=""stim_listB/touch1.gif""</stim_listB>",,html-keyboard-response,255,1636362,0.0-17.0-1.7,81823,List2B,white,man,,,,null,,,,
null,is touching,,html-keyboard-response,256,1638378,0.0-17.0-2.7,81823,List2B,white,man,,,,null,,,,
5855,,,survey-text,257,1644234,0.0-17.0-3.7,81823,List2B,white,man,,,,,"{""Q0"":""Jane is touching Dave""}","<img src=""stim_listB/touch1.gif""</stim_listB>",is touching,
null,"<div style=""font-size:60px;"">+</div>",,html-keyboard-response,258,1644736,0.0-17.0-0.8,81823,List2B,white,man,,,,null,,,,
null,"<img src=""stim_listB/hug6.gif""</stim_listB>",,html-keyboard-response,259,1646745,0.0-17.0-1.8,81823,List2B,white,man,,,,null,,,,
null,are hugging each other,,html-keyboard-response,260,1648746,0.0-17.0-2.8,81823,List2B,white,man,,,,null,,,,
9462,,,survey-text,261,1658209,0.0-17.0-3.8,81823,List2B,white,man,,,,,"{""Q0"":""Dave and Mike are hugging each other""}","<img src=""stim_listB/hug6.gif""</stim_listB>",are hugging each other,
null,"<div style=""font-size:60px;"">+</div>",,html-keyboard-response,262,1658725,0.0-17.0-0.9,81823,List2B,white,man,,,,null,,,,
null,"<img src=""stim_listB/kiss1.gif""</stim_listB>",,html-keyboard-response,263,1660731,0.0-17.0-1.9,81823,List2B,white,man,,,,null,,,,
null,is kissing,,html-keyboard-response,264,1662732,0.0-17.0-2.9,81823,List2B,white,man,,,,null,,,,
9060,,,survey-text,265,1671794,0.0-17.0-3.9,81823,List2B,white,man,,,,,"{""Q0"":""Luke is kissing Ruth""}","<img src=""stim_listB/kiss1.gif""</stim_listB>",is kissing,
null,"<div style=""font-size:60px;"">+</div>",,html-keyboard-response,266,1672306,0.0-17.0-0.10,81823,List2B,white,man,,,,null,,,,
null,"<img src=""stim_listB/kiss5.gif""</stim_listB>",,html-keyboard-response,267,1674312,0.0-17.0-1.10,81823,List2B,white,man,,,,null,,,,
null,is kissing,,html-keyboard-response,268,1676314,0.0-17.0-2.10,81823,List2B,white,man,,,,null,,,,
6582,,,survey-text,269,1682897,0.0-17.0-3.10,81823,List2B,white,man,,,,,"{""Q0"":""Luke is kissing fred""}","<img src=""stim_listB/kiss5.gif""</stim_listB>",is kissing,
null,"<div style=""font-size:60px;"">+</div>",,html-keyboard-response,270,1683406,0.0-17.0-0.11,81823,List2B,white,man,,,,null,,,,
null,"<img src=""stim_listB/marry8.gif""</stim_listB>",,html-keyboard-response,271,1685414,0.0-17.0-1.11,81823,List2B,white,man,,,,null,,,,
null,are marrying each other,,html-keyboard-response,272,1687430,0.0-17.0-2.11,81823,List2B,white,man,,,,null,,,,
12014,,,survey-text,273,1699445,0.0-17.0-3.11,81823,List2B,white,man,,,,,"{""Q0"":""Kate and Ruth are marrying eachother""}","<img src=""stim_listB/marry8.gif""</stim_listB>",are marrying each other,
null,"<div style=""font-size:60px;"">+</div>",,html-keyboard-response,274,1699947,0.0-17.0-0.12,81823,List2B,white,man,,,,null,,,,
null,"<img src=""stim_listB/marry7.gif""</stim_listB>",,html-keyboard-response,275,1701964,0.0-17.0-1.12,81823,List2B,white,man,,,,null,,,,
null,is marrying,,html-keyboard-response,276,1703968,0.0-17.0-2.12,81823,List2B,white,man,,,,null,,,,
7628,,,survey-text,277,1711597,0.0-17.0-3.12,81823,List2B,white,man,,,,,"{""Q0"":""Beth is marrrying jane""}","<img src=""stim_listB/marry7.gif""</stim_listB>",is marrying,
null,"<div style=""font-size:60px;"">+</div>",,html-keyboard-response,278,1712103,0.0-17.0-0.13,81823,List2B,white,man,,,,null,,,,
null,"<img src=""stim_listB/talk8.gif""</stim_listB>",,html-keyboard-response,279,1714118,0.0-17.0-1.13,81823,List2B,white,man,,,,null,,,,
null,are talking to each other,,html-keyboard-response,280,1716120,0.0-17.0-2.13,81823,List2B,white,man,,,,null,,,,
10024,,,survey-text,281,1726145,0.0-17.0-3.13,81823,List2B,white,man,,,,,"{""Q0"":""beth and jane are talking to each other""}","<img src=""stim_listB/talk8.gif""</stim_listB>",are talking to each other,
null,"<div style=""font-size:60px;"">+</div>",,html-keyboard-response,282,1726656,0.0-17.0-0.14,81823,List2B,white,man,,,,null,,,,
null,"<img src=""stim_listB/meet4.gif""</stim_listB>",,html-keyboard-response,283,1728665,0.0-17.0-1.14,81823,List2B,white,man,,,,null,,,,
null,are meeting each other,,html-keyboard-response,284,1730681,0.0-17.0-2.14,81823,List2B,white,man,,,,null,,,,
8442,,,survey-text,285,1739125,0.0-17.0-3.14,81823,List2B,white,man,,,,,"{""Q0"":""fred and beth are meeting eachother""}","<img src=""stim_listB/meet4.gif""</stim_listB>",are meeting each other,
null,"<div style=""font-size:60px;"">+</div>",,html-keyboard-response,286,1739638,0.0-17.0-0.15,81823,List2B,white,man,,,,null,,,,
null,"<img src=""stim_listB/meet2.gif""</stim_listB>",,html-keyboard-response,287,1741648,0.0-17.0-1.15,81823,List2B,white,man,,,,null,,,,
null,are meeting each other,,html-keyboard-response,288,1743650,0.0-17.0-2.15,81823,List2B,white,man,,,,null,,,,
11689,,,survey-text,289,1755340,0.0-17.0-3.15,81823,List2B,white,man,,,,,"{""Q0"":""luke and ruth are meeting each other""}","<img src=""stim_listB/meet2.gif""</stim_listB>",are meeting each other,
null,"<div style=""font-size:60px;"">+</div>",,html-keyboard-response,290,1755842,0.0-17.0-0.16,81823,List2B,white,man,,,,null,,,,
null,"<img src=""stim_listB/argue8.gif""</stim_listB>",,html-keyboard-response,291,1757853,0.0-17.0-1.16,81823,List2B,white,man,,,,null,,,,
null,are arguing with each other,,html-keyboard-response,292,1759869,0.0-17.0-2.16,81823,List2B,white,man,,,,null,,,,
11070,,,survey-text,293,1770940,0.0-17.0-3.16,81823,List2B,white,man,,,,,"{""Q0"":""ruth and kate are arguing with each other""}","<img src=""stim_listB/argue8.gif""</stim_listB>",are arguing with each other,
null,"<div style=""font-size:60px;"">+</div>",,html-keyboard-response,294,1771444,0.0-17.0-0.17,81823,List2B,white,man,,,,null,,,,
null,"<img src=""stim_listB/meet5.gif""</stim_listB>",,html-keyboard-response,295,1773452,0.0-17.0-1.17,81823,List2B,white,man,,,,null,,,,
null,is meeting,,html-keyboard-response,296,1775467,0.0-17.0-2.17,81823,List2B,white,man,,,,null,,,,
5320,,,survey-text,297,1780789,0.0-17.0-3.17,81823,List2B,white,man,,,,,"{""Q0"":""mike is meeting dave""}","<img src=""stim_listB/meet5.gif""</stim_listB>",is meeting,
null,"<div style=""font-size:60px;"">+</div>",,html-keyboard-response,298,1781303,0.0-17.0-0.18,81823,List2B,white,man,,,,null,,,,
null,"<img src=""stim_listB/hug3.gif""</stim_listB>",,html-keyboard-response,299,1783305,0.0-17.0-1.18,81823,List2B,white,man,,,,null,,,,
null,is hugging,,html-keyboard-response,300,1785307,0.0-17.0-2.18,81823,List2B,white,man,,,,null,,,,
5713,,,survey-text,301,1791021,0.0-17.0-3.18,81823,List2B,white,man,,,,,"{""Q0"":""beth is hugging fred""}","<img src=""stim_listB/hug3.gif""</stim_listB>",is hugging,
null,"<div style=""font-size:60px;"">+</div>",,html-keyboard-response,302,1791533,0.0-17.0-0.19,81823,List2B,white,man,,,,null,,,,
null,"<img src=""stim_listB/meet7.gif""</stim_listB>",,html-keyboard-response,303,1793546,0.0-17.0-1.19,81823,List2B,white,man,,,,null,,,,
null,is meeting,,html-keyboard-response,304,1795562,0.0-17.0-2.19,81823,List2B,white,man,,,,null,,,,
7104,,,survey-text,305,1802669,0.0-17.0-3.19,81823,List2B,white,man,,,,,"{""Q0"":""jane is meeting kate""}","<img src=""stim_listB/meet7.gif""</stim_listB>",is meeting,
3250,"<img src='img/portrait_matrix_list2.JPG' style='width:900px;height:500px;''></img><p>If you have memorised all the portraits and names and are ready to start, press Continue.</p><p><strong>Please note: Your memory of these faces will be tested 4 times during this experiment.</strong></p>",0,html-button-response,306,1805920,0.0-18.0-0.0,81823,List2B,white,man,,,,,,,,
1327,"<img src=""portrait/WM2.jpg""style=""width:400px;height:400px;""></img>",7,html-button-response,307,1808261,0.0-18.0-1.0,81823,List2B,white,man,,TRUE,7,,,,,
null,CORRECT,,html-keyboard-response,308,1809773,0.0-18.0-2.0-0.0,81823,List2B,white,man,,,,null,,,,
3974,"<img src=""portrait/BM1.jpg""style=""width:400px;height:400px;""></img>",4,html-button-response,309,1813749,0.0-18.0-4.0,81823,List2B,white,man,,TRUE,4,,,,,
null,CORRECT,,html-keyboard-response,310,1815272,0.0-18.0-5.0-0.0,81823,List2B,white,man,,,,null,,,,
1802,"<img src=""portrait/BW1.jpg""style=""width:400px;height:400px;""></img>",0,html-button-response,311,1817077,0.0-18.0-7.0,81823,List2B,white,man,,TRUE,0,,,,,
null,CORRECT,,html-keyboard-response,312,1818605,0.0-18.0-8.0-0.0,81823,List2B,white,man,,,,null,,,,
2577,"<img src=""portrait/BW2.jpg""style=""width:400px;height:400px;""></img>",2,html-button-response,313,1821184,0.0-18.0-10.0,81823,List2B,white,man,,TRUE,2,,,,,
null,CORRECT,,html-keyboard-response,314,1822705,0.0-18.0-11.0-0.0,81823,List2B,white,man,,,,null,,,,
1765,"<img src=""portrait/BM2.jpg""style=""width:400px;height:400px;""></img>",5,html-button-response,315,1824473,0.0-18.0-13.0,81823,List2B,white,man,,TRUE,5,,,,,
null,CORRECT,,html-keyboard-response,316,1825990,0.0-18.0-14.0-0.0,81823,List2B,white,man,,,,null,,,,
2455,"<img src=""portrait/WW1.jpg""style=""width:400px;height:400px;""></img>",1,html-button-response,317,1828448,0.0-18.0-16.0,81823,List2B,white,man,,TRUE,1,,,,,
null,CORRECT,,html-keyboard-response,318,1829971,0.0-18.0-17.0-0.0,81823,List2B,white,man,,,,null,,,,
1775,"<img src=""portrait/WW2.jpg""style=""width:400px;height:400px;""></img>",3,html-button-response,319,1831748,0.0-18.0-19.0,81823,List2B,white,man,,TRUE,3,,,,,
null,CORRECT,,html-keyboard-response,320,1833266,0.0-18.0-20.0-0.0,81823,List2B,white,man,,,,null,,,,
1548,"<img src=""portrait/WM1.jpg""style=""width:400px;height:400px;""></img>",6,html-button-response,321,1834816,0.0-18.0-22.0,81823,List2B,white,man,,TRUE,6,,,,,
null,CORRECT,,html-keyboard-response,322,1836329,0.0-18.0-23.0-0.0,81823,List2B,white,man,,,,null,,,,
1170,<p>You got 8 out of 8 right first time. Press Continue.</p>,0,html-button-response,323,1837500,0.0-18.0-25.0,81823,List2B,white,man,,,,,,,,
null,"<div style=""font-size:60px;"">+</div>",,html-keyboard-response,324,1839028,0.0-19.0-0.0,81823,List2B,white,man,,,,null,,,,
null,"<img src=""stim_listB/argue6.gif""</stim_listB>",,html-keyboard-response,325,1841036,0.0-19.0-1.0,81823,List2B,white,man,,,,null,,,,
null,are arguing with each other,,html-keyboard-response,326,1843038,0.0-19.0-2.0,81823,List2B,white,man,,,,null,,,,
11509,,,survey-text,327,1854548,0.0-19.0-3.0,81823,List2B,white,man,,,,,"{""Q0"":""luke and mike are arguing with each other""}","<img src=""stim_listB/argue6.gif""</stim_listB>",are arguing with each other,
null,"<div style=""font-size:60px;"">+</div>",,html-keyboard-response,328,1855060,0.0-19.0-0.1,81823,List2B,white,man,,,,null,,,,
null,"<img src=""stim_listB/argue1.gif""</stim_listB>",,html-keyboard-response,329,1857068,0.0-19.0-1.1,81823,List2B,white,man,,,,null,,,,
null,is arguing with,,html-keyboard-response,330,1859084,0.0-19.0-2.1,81823,List2B,white,man,,,,null,,,,
8806,,,survey-text,331,1867892,0.0-19.0-3.1,81823,List2B,white,man,,,,,"{""Q0"":""dave is arguing with ruth""}","<img src=""stim_listB/argue1.gif""</stim_listB>",is arguing with,
null,"<div style=""font-size:60px;"">+</div>",,html-keyboard-response,332,1868397,0.0-19.0-0.2,81823,List2B,white,man,,,,null,,,,
null,"<img src=""stim_listB/argue4.gif""</stim_listB>",,html-keyboard-response,333,1870404,0.0-19.0-1.2,81823,List2B,white,man,,,,null,,,,
null,are arguing with each other,,html-keyboard-response,334,1872408,0.0-19.0-2.2,81823,List2B,white,man,,,,null,,,,
20102,,,survey-text,335,1892512,0.0-19.0-3.2,81823,List2B,white,man,,,,,"{""Q0"":""fred and kate are arguing with each other""}","<img src=""stim_listB/argue4.gif""</stim_listB>",are arguing with each other,
null,"<div style=""font-size:60px;"">+</div>",,html-keyboard-response,336,1893017,0.0-19.0-0.3,81823,List2B,white,man,,,,null,,,,
null,"<img src=""stim_listB/dance1.gif""</stim_listB>",,html-keyboard-response,337,1895022,0.0-19.0-1.3,81823,List2B,white,man,,,,null,,,,
null,is dancing with,,html-keyboard-response,338,1897024,0.0-19.0-2.3,81823,List2B,white,man,,,,null,,,,
5908,,,survey-text,339,1902933,0.0-19.0-3.3,81823,List2B,white,man,,,,,"{""Q0"":""jane is dancing with luke""}","<img src=""stim_listB/dance1.gif""</stim_listB>",is dancing with,
null,"<div style=""font-size:60px;"">+</div>",,html-keyboard-response,340,1903441,0.0-19.0-0.4,81823,List2B,white,man,,,,null,,,,
null,"<img src=""stim_listB/fight3.gif""</stim_listB>",,html-keyboard-response,341,1905458,0.0-19.0-1.4,81823,List2B,white,man,,,,null,,,,
null,is fighting,,html-keyboard-response,342,1907460,0.0-19.0-2.4,81823,List2B,white,man,,,,null,,,,
5984,,,survey-text,343,1913445,0.0-19.0-3.4,81823,List2B,white,man,,,,,"{""Q0"":""mike is fghting kate""}","<img src=""stim_listB/fight3.gif""</stim_listB>",is fighting,
null,"<div style=""font-size:60px;"">+</div>",,html-keyboard-response,344,1913953,0.0-19.0-0.5,81823,List2B,white,man,,,,null,,,,
null,"<img src=""stim_listB/marry3.gif""</stim_listB>",,html-keyboard-response,345,1915959,0.0-19.0-1.5,81823,List2B,white,man,,,,null,,,,
null,is marrying,,html-keyboard-response,346,1917962,0.0-19.0-2.5,81823,List2B,white,man,,,,null,,,,
5698,,,survey-text,347,1923661,0.0-19.0-3.5,81823,List2B,white,man,,,,,"{""Q0"":""mike is marrying beth""}","<img src=""stim_listB/marry3.gif""</stim_listB>",is marrying,
null,"<div style=""font-size:60px;"">+</div>",,html-keyboard-response,348,1924168,0.0-19.0-0.6,81823,List2B,white,man,,,,null,,,,
null,"<img src=""stim_listB/marry5.gif""</stim_listB>",,html-keyboard-response,349,1926177,0.0-19.0-1.6,81823,List2B,white,man,,,,null,,,,
null,is marrying,,html-keyboard-response,350,1928192,0.0-19.0-2.6,81823,List2B,white,man,,,,null,,,,
5591,,,survey-text,351,1933785,0.0-19.0-3.6,81823,List2B,white,man,,,,,"{""Q0"":""fred is marrying dave""}","<img src=""stim_listB/marry5.gif""</stim_listB>",is marrying,
null,"<div style=""font-size:60px;"">+</div>",,html-keyboard-response,352,1934301,0.0-19.0-0.7,81823,List2B,white,man,,,,null,,,,
null,"<img src=""stim_listB/marry2.gif""</stim_listB>",,html-keyboard-response,353,1936310,0.0-19.0-1.7,81823,List2B,white,man,,,,null,,,,
null,are marrying each other,,html-keyboard-response,354,1938312,0.0-19.0-2.7,81823,List2B,white,man,,,,null,,,,
9368,,,survey-text,355,1947681,0.0-19.0-3.7,81823,List2B,white,man,,,,,"{""Q0"":""luke and jane are marrying each other""}","<img src=""stim_listB/marry2.gif""</stim_listB>",are marrying each other,
null,"<div style=""font-size:60px;"">+</div>",,html-keyboard-response,356,1948185,0.0-19.0-0.8,81823,List2B,white,man,,,,null,,,,
null,"<img src=""stim_listB/talk7.gif""</stim_listB>",,html-keyboard-response,357,1950193,0.0-19.0-1.8,81823,List2B,white,man,,,,null,,,,
null,is talking to,,html-keyboard-response,358,1952208,0.0-19.0-2.8,81823,List2B,white,man,,,,null,,,,
7905,,,survey-text,359,1960115,0.0-19.0-3.8,81823,List2B,white,man,,,,,"{""Q0"":""kate is talking to ruth""}","<img src=""stim_listB/talk7.gif""</stim_listB>",is talking to,
null,"<div style=""font-size:60px;"">+</div>",,html-keyboard-response,360,1960622,0.0-19.0-0.9,81823,List2B,white,man,,,,null,,,,
null,"<img src=""stim_listB/kiss3.gif""</stim_listB>",,html-keyboard-response,361,1962630,0.0-19.0-1.9,81823,List2B,white,man,,,,null,,,,
null,is kissing,,html-keyboard-response,362,1964632,0.0-19.0-2.9,81823,List2B,white,man,,,,null,,,,
5201,,,survey-text,363,1969834,0.0-19.0-3.9,81823,List2B,white,man,,,,,"{""Q0"":""beth is kissing fred""}","<img src=""stim_listB/kiss3.gif""</stim_listB>",is kissing,
null,"<div style=""font-size:60px;"">+</div>",,html-keyboard-response,364,1970339,0.0-19.0-0.10,81823,List2B,white,man,,,,null,,,,
null,"<img src=""stim_listB/hug8.gif""</stim_listB>",,html-keyboard-response,365,1972347,0.0-19.0-1.10,81823,List2B,white,man,,,,null,,,,
null,are hugging each other,,html-keyboard-response,366,1974362,0.0-19.0-2.10,81823,List2B,white,man,,,,null,,,,
10847,,,survey-text,367,1985210,0.0-19.0-3.10,81823,List2B,white,man,,,,,"{""Q0"":""jane and kate are hugging each other""}","<img src=""stim_listB/hug8.gif""</stim_listB>",are hugging each other,
null,"<div style=""font-size:60px;"">+</div>",,html-keyboard-response,368,1985726,0.0-19.0-0.11,81823,List2B,white,man,,,,null,,,,
null,"<img src=""stim_listB/kiss8.gif""</stim_listB>",,html-keyboard-response,369,1987732,0.0-19.0-1.11,81823,List2B,white,man,,,,null,,,,
null,are kissing each other,,html-keyboard-response,370,1989738,0.0-19.0-2.11,81823,List2B,white,man,,,,null,,,,
7071,,,survey-text,371,1996810,0.0-19.0-3.11,81823,List2B,white,man,,,,,"{""Q0"":""jane and kate are kissing each other""}","<img src=""stim_listB/kiss8.gif""</stim_listB>",are kissing each other,
null,"<div style=""font-size:60px;"">+</div>",,html-keyboard-response,372,1997316,0.0-19.0-0.12,81823,List2B,white,man,,,,null,,,,
null,"<img src=""stim_listB/fight7.gif""</stim_listB>",,html-keyboard-response,373,1999319,0.0-19.0-1.12,81823,List2B,white,man,,,,null,,,,
null,is fighting,,html-keyboard-response,374,2001321,0.0-19.0-2.12,81823,List2B,white,man,,,,null,,,,
9027,,,survey-text,375,2010350,0.0-19.0-3.12,81823,List2B,white,man,,,,,"{""Q0"":""jane is fighting kate""}","<img src=""stim_listB/fight7.gif""</stim_listB>",is fighting,
null,"<div style=""font-size:60px;"">+</div>",,html-keyboard-response,376,2010865,0.0-19.0-0.13,81823,List2B,white,man,,,,null,,,,
null,"<img src=""stim_listB/talk2.gif""</stim_listB>",,html-keyboard-response,377,2012881,0.0-19.0-1.13,81823,List2B,white,man,,,,null,,,,
null,are talking to each other,,html-keyboard-response,378,2014882,0.0-19.0-2.13,81823,List2B,white,man,,,,null,,,,
13201,,,survey-text,379,2028084,0.0-19.0-3.13,81823,List2B,white,man,,,,,"{""Q0"":""dave and ruth are talking to each other""}","<img src=""stim_listB/talk2.gif""</stim_listB>",are talking to each other,
null,"<div style=""font-size:60px;"">+</div>",,html-keyboard-response,380,2028591,0.0-19.0-0.14,81823,List2B,white,man,,,,null,,,,
null,"<img src=""stim_listB/shout1.gif""</stim_listB>",,html-keyboard-response,381,2030601,0.0-19.0-1.14,81823,List2B,white,man,,,,null,,,,
null,is shouting at,,html-keyboard-response,382,2032614,0.0-19.0-2.14,81823,List2B,white,man,,,,null,,,,
6624,,,survey-text,383,2039239,0.0-19.0-3.14,81823,List2B,white,man,,,,,"{""Q0"":""luke is shouting at ruth""}","<img src=""stim_listB/shout1.gif""</stim_listB>",is shouting at,
null,"<div style=""font-size:60px;"">+</div>",,html-keyboard-response,384,2039746,0.0-19.0-0.15,81823,List2B,white,man,,,,null,,,,
null,"<img src=""stim_listB/hug5.gif""</stim_listB>",,html-keyboard-response,385,2041753,0.0-19.0-1.15,81823,List2B,white,man,,,,null,,,,
null,is hugging,,html-keyboard-response,386,2043755,0.0-19.0-2.15,81823,List2B,white,man,,,,null,,,,
6347,,,survey-text,387,2050103,0.0-19.0-3.15,81823,List2B,white,man,,,,,"{""Q0"":""fred is hugging luke""}","<img src=""stim_listB/hug5.gif""</stim_listB>",is hugging,
null,"<div style=""font-size:60px;"">+</div>",,html-keyboard-response,388,2050613,0.0-19.0-0.16,81823,List2B,white,man,,,,null,,,,
null,"<img src=""stim_listB/dance2.gif""</stim_listB>",,html-keyboard-response,389,2052620,0.0-19.0-1.16,81823,List2B,white,man,,,,null,,,,
null,are dancing with each other,,html-keyboard-response,390,2054635,0.0-19.0-2.16,81823,List2B,white,man,,,,null,,,,
8627,,,survey-text,391,2063264,0.0-19.0-3.16,81823,List2B,white,man,,,,,"{""Q0"":""dave and ruth are dancing with each other""}","<img src=""stim_listB/dance2.gif""</stim_listB>",are dancing with each other,
null,"<div style=""font-size:60px;"">+</div>",,html-keyboard-response,392,2063764,0.0-19.0-0.17,81823,List2B,white,man,,,,null,,,,
null,"<img src=""stim_listB/marry6.gif""</stim_listB>",,html-keyboard-response,393,2065770,0.0-19.0-1.17,81823,List2B,white,man,,,,null,,,,
null,are marrying each other,,html-keyboard-response,394,2067771,0.0-19.0-2.17,81823,List2B,white,man,,,,null,,,,
7595,,,survey-text,395,2075367,0.0-19.0-3.17,81823,List2B,white,man,,,,,"{""Q0"":""luke and mike are marrying each other""}","<img src=""stim_listB/marry6.gif""</stim_listB>",are marrying each other,
null,"<div style=""font-size:60px;"">+</div>",,html-keyboard-response,396,2075883,0.0-19.0-0.18,81823,List2B,white,man,,,,null,,,,
null,"<img src=""stim_listB/dance6.gif""</stim_listB>",,html-keyboard-response,397,2077887,0.0-19.0-1.18,81823,List2B,white,man,,,,null,,,,
null,are dancing with each other,,html-keyboard-response,398,2079908,0.0-19.0-2.18,81823,List2B,white,man,,,,null,,,,
8248,,,survey-text,399,2088157,0.0-19.0-3.18,81823,List2B,white,man,,,,,"{""Q0"":""dave and fred are dancing with each other""}","<img src=""stim_listB/dance6.gif""</stim_listB>",are dancing with each other,
null,"<div style=""font-size:60px;"">+</div>",,html-keyboard-response,400,2088665,0.0-19.0-0.19,81823,List2B,white,man,,,,null,,,,
null,"<img src=""stim_listB/hug2.gif""</stim_listB>",,html-keyboard-response,401,2090669,0.0-19.0-1.19,81823,List2B,white,man,,,,null,,,,
null,are hugging each other,,html-keyboard-response,402,2092685,0.0-19.0-2.19,81823,List2B,white,man,,,,null,,,,
12214,,,survey-text,403,2104901,0.0-19.0-3.19,81823,List2B,white,man,,,,,"{""Q0"":""dave and jane are hugging each other""}","<img src=""stim_listB/hug2.gif""</stim_listB>",are hugging each other,
3311,<p>Thank you for completing that task.</p><p>The final part of this session is a short questionnaire.</p><p>Press Continue.</p>,0,html-button-response,404,2108213,0.0-20.0,81823,List2B,white,man,,,,,,,,
21040,,,survey-text,405,2130269,0.0-21.0,81823,List2B,white,man,,,,,"{""Q0"":""31"",""Q1"":""english"",""Q2"":""english"",""Q3"":""england"",""Q4"":""british"",""Q5"":""male""}",,,demographics
57694,,,survey-likert,406,2187973,0.0-22.0,81823,List2B,white,man,,,,,"{""Q0"":3,""Q1"":3,""Q2"":3,""Q3"":3,""Q4"":2,""Q5"":4,""Q6"":3,""Q7"":1,""Q8"":2,""Q9"":1,""Q10"":2,""Q11"":4,""Q12"":3,""Q13"":1}",,,likert_race
46589,,,survey-likert,407,2234575,0.0-23.0,81823,List2B,white,man,,,,,"{""Q0"":3,""Q1"":4,""Q2"":5,""Q3"":5,""Q4"":3,""Q5"":4,""Q6"":4,""Q7"":2,""Q8"":5,""Q9"":4,""Q10"":4,""Q11"":4,""Q12"":2,""Q13"":2}",,,likert_gender
3659,,,survey-text,408,2238240,0.0-24.0,81823,List2B,white,man,,,,,"{""Q0"":""ccc""}",,,worker_id
33451,,,external-html,409,2271751,0.0-25.0,81823,List2B,white,man,debrief.html,,,,,,,
