rt,stimulus,button_pressed,trial_type,trial_index,time_elapsed,internal_node_id,subject,list,ppt_race,ppt_gender,url,first_guess,correct,key_press,responses,image_type,phrase_type,test_part
6361,Welcome to the experiment. Press Continue to begin.,0,html-button-response,0,6366,0.0-0.0,81944,List2A,black,man,,,,,,,,
67530,,,external-html,1,74930,0.0-1.0,81944,List2A,black,man,consent.html,,,,,,,
3489,"<p>On the next page, you will see portraits of 8 people and their names.</p><p>Your first task is to take a few minutes to memorise the names of these people.</p><p>You will have to recall their names during the rest of the experiment, so it is</p><p>essential that you try to memorise these people and their names as best as you can.</p><br><p><strong>You will then be tested on your memory of these names and portraits.</strong></p><br><p>The experiment will start after you have completed this memory test.</p><br><p>Ready?</p>",0,html-button-response,2,78421,0.0-2.0,81944,List2A,black,man,,,,,,,,
42563,"<img src='img/portrait_matrix_list2.JPG' style='width:900px;height:500px;''></img><p>If you have memorised all the portraits and names and are ready to start, press Continue.</p><p><strong>Please note: Your memory of these faces will be tested 4 times during this experiment.</strong></p>",0,html-button-response,3,121987,0.0-3.0-0.0,81944,List2A,black,man,,,,,,,,
2155,"<img src=""portrait/WW2.jpg""style=""width:400px;height:400px;""></img>",3,html-button-response,4,125145,0.0-3.0-1.0,81944,List2A,black,man,,TRUE,3,,,,,
null,CORRECT,,html-keyboard-response,5,126647,0.0-3.0-2.0-0.0,81944,List2A,black,man,,,,null,,,,
2019,"<img src=""portrait/WM1.jpg""style=""width:400px;height:400px;""></img>",6,html-button-response,6,128666,0.0-3.0-4.0,81944,List2A,black,man,,TRUE,6,,,,,
null,CORRECT,,html-keyboard-response,7,130170,0.0-3.0-5.0-0.0,81944,List2A,black,man,,,,null,,,,
2420,"<img src=""portrait/WW1.jpg""style=""width:400px;height:400px;""></img>",1,html-button-response,8,132592,0.0-3.0-7.0,81944,List2A,black,man,,TRUE,1,,,,,
null,CORRECT,,html-keyboard-response,9,134096,0.0-3.0-8.0-0.0,81944,List2A,black,man,,,,null,,,,
7700,"<img src=""portrait/BM1.jpg""style=""width:400px;height:400px;""></img>",4,html-button-response,10,141797,0.0-3.0-10.0,81944,List2A,black,man,,TRUE,4,,,,,
null,CORRECT,,html-keyboard-response,11,143299,0.0-3.0-11.0-0.0,81944,List2A,black,man,,,,null,,,,
2709,"<img src=""portrait/BW2.jpg""style=""width:400px;height:400px;""></img>",2,html-button-response,12,146009,0.0-3.0-13.0,81944,List2A,black,man,,TRUE,2,,,,,
null,CORRECT,,html-keyboard-response,13,147510,0.0-3.0-14.0-0.0,81944,List2A,black,man,,,,null,,,,
2657,"<img src=""portrait/BM2.jpg""style=""width:400px;height:400px;""></img>",5,html-button-response,14,150169,0.0-3.0-16.0,81944,List2A,black,man,,TRUE,5,,,,,
null,CORRECT,,html-keyboard-response,15,151671,0.0-3.0-17.0-0.0,81944,List2A,black,man,,,,null,,,,
3616,"<img src=""portrait/WM2.jpg""style=""width:400px;height:400px;""></img>",7,html-button-response,16,155288,0.0-3.0-19.0,81944,List2A,black,man,,TRUE,7,,,,,
null,CORRECT,,html-keyboard-response,17,156791,0.0-3.0-20.0-0.0,81944,List2A,black,man,,,,null,,,,
7383,"<img src=""portrait/BW1.jpg""style=""width:400px;height:400px;""></img>",0,html-button-response,18,164175,0.0-3.0-22.0,81944,List2A,black,man,,TRUE,0,,,,,
null,CORRECT,,html-keyboard-response,19,165676,0.0-3.0-23.0-0.0,81944,List2A,black,man,,,,null,,,,
1059,<p>You got 8 out of 8 right first time. Press Continue.</p>,0,html-button-response,20,166736,0.0-3.0-25.0,81944,List2A,black,man,,,,,,,,
9807,"<p>In this experiment, you will view photographs of the people from the memory game interacting.</p><p>By using the <strong>exact</strong> phrase given <i>after</i> the photograph appears and recalling the correct names of the people in the photographs, form a sentence describing the interaction. You do not need to capitalise names.</p><p>Type your answer in the space provided. Please complete every sentence before moving onto the next trial.</p><p>You will only have a few seconds to memorise each given photograph and phrase before you can respond, so try your best to focus.</p><p>An example is given below. Press 'Continue' when you are ready.</p><img src='img/speaking_example_v2.jpg' style='width:800px;height:460px;''></img>",0,html-button-response,21,177547,0.0-4.0,81944,List2A,black,man,,,,,,,,
2588,"<p>Before the experiment starts, you will watch two example trials. Press 'Continue'.</p>",0,html-button-response,22,181136,0.0-5.0,81944,List2A,black,man,,,,,,,,
null,<img src='img/speaking_WW.gif'></img>,,html-keyboard-response,23,184138,0.0-6.0,81944,List2A,black,man,,,,null,,,,
null,<p>is speaking to</p>,,html-keyboard-response,24,186139,0.0-7.0,81944,List2A,black,man,,,,null,,,,
5699,<p><b>Answer:</b> jane is speaking to ruth</p>,0,html-button-response,25,191840,0.0-8.0,81944,List2A,black,man,,,,,,,,
null,<img src='img/pointing_BM.gif'></img>,,html-keyboard-response,26,194840,0.0-9.0,81944,List2A,black,man,,,,null,,,,
null,<p>are pointing at each other</p>,,html-keyboard-response,27,196843,0.0-10.0,81944,List2A,black,man,,,,null,,,,
1878,<p><b>Answer:</b> fred and mike are pointing at each other</p>,0,html-button-response,28,198722,0.0-11.0,81944,List2A,black,man,,,,,,,,
3422,"<p>Ready to start the experiment?</p><br><p><strong>Remember to describe the picture using a full sentence,</strong></p><p><strong>that combines the names of the people with the given phrase.</strong></p><p><strong>If you do not do this correctly you will not be paid.</strong></p><p><strong> You do not need to capitalise names or use punctuation.</strong></p><br><p>Press 'Continue' to begin.</p>",0,html-button-response,29,203146,0.0-12.0,81944,List2A,black,man,,,,,,,,
null,"<div style=""font-size:60px;"">+</div>",,html-keyboard-response,30,204647,0.0-13.0-0.0,81944,List2A,black,man,,,,null,,,,
null,"<img src=""stim_listA/fight6.gif""</stim_listA>",,html-keyboard-response,31,206649,0.0-13.0-1.0,81944,List2A,black,man,,,,null,,,,
null,are fighting each other,,html-keyboard-response,32,208651,0.0-13.0-2.0,81944,List2A,black,man,,,,null,,,,
22379,,,survey-text,33,231030,0.0-13.0-3.0,81944,List2A,black,man,,,,,"{""Q0"":""Fred and Luke are fighting each other""}","<img src=""stim_listA/fight6.gif""</stim_listA>",are fighting each other,
null,"<div style=""font-size:60px;"">+</div>",,html-keyboard-response,34,231533,0.0-13.0-0.1,81944,List2A,black,man,,,,null,,,,
null,"<img src=""stim_listA/argue6.gif""</stim_listA>",,html-keyboard-response,35,233535,0.0-13.0-1.1,81944,List2A,black,man,,,,null,,,,
null,are arguing with each other,,html-keyboard-response,36,235537,0.0-13.0-2.1,81944,List2A,black,man,,,,null,,,,
15265,,,survey-text,37,250804,0.0-13.0-3.1,81944,List2A,black,man,,,,,"{""Q0"":""Luke and Mike are arguing with each other""}","<img src=""stim_listA/argue6.gif""</stim_listA>",are arguing with each other,
null,"<div style=""font-size:60px;"">+</div>",,html-keyboard-response,38,251307,0.0-13.0-0.2,81944,List2A,black,man,,,,null,,,,
null,"<img src=""stim_listA/marry8.gif""</stim_listA>",,html-keyboard-response,39,253309,0.0-13.0-1.2,81944,List2A,black,man,,,,null,,,,
null,are marrying each other,,html-keyboard-response,40,255311,0.0-13.0-2.2,81944,List2A,black,man,,,,null,,,,
21596,,,survey-text,41,276908,0.0-13.0-3.2,81944,List2A,black,man,,,,,"{""Q0"":""Kate and Ruth are marrying each other""}","<img src=""stim_listA/marry8.gif""</stim_listA>",are marrying each other,
null,"<div style=""font-size:60px;"">+</div>",,html-keyboard-response,42,277409,0.0-13.0-0.3,81944,List2A,black,man,,,,null,,,,
null,"<img src=""stim_listA/hug4.gif""</stim_listA>",,html-keyboard-response,43,279410,0.0-13.0-1.3,81944,List2A,black,man,,,,null,,,,
null,are hugging each other,,html-keyboard-response,44,281411,0.0-13.0-2.3,81944,List2A,black,man,,,,null,,,,
19217,,,survey-text,45,300629,0.0-13.0-3.3,81944,List2A,black,man,,,,,"{""Q0"":""Mike and Kate are hugging each other""}","<img src=""stim_listA/hug4.gif""</stim_listA>",are hugging each other,
null,"<div style=""font-size:60px;"">+</div>",,html-keyboard-response,46,301129,0.0-13.0-0.4,81944,List2A,black,man,,,,null,,,,
null,"<img src=""stim_listA/argue4.gif""</stim_listA>",,html-keyboard-response,47,303132,0.0-13.0-1.4,81944,List2A,black,man,,,,null,,,,
null,are arguing with each other,,html-keyboard-response,48,305133,0.0-13.0-2.4,81944,List2A,black,man,,,,null,,,,
14733,,,survey-text,49,319867,0.0-13.0-3.4,81944,List2A,black,man,,,,,"{""Q0"":""Kate and Fred are pointing at each other""}","<img src=""stim_listA/argue4.gif""</stim_listA>",are arguing with each other,
null,"<div style=""font-size:60px;"">+</div>",,html-keyboard-response,50,320368,0.0-13.0-0.5,81944,List2A,black,man,,,,null,,,,
null,"<img src=""stim_listA/touch1.gif""</stim_listA>",,html-keyboard-response,51,322369,0.0-13.0-1.5,81944,List2A,black,man,,,,null,,,,
null,is touching,,html-keyboard-response,52,324371,0.0-13.0-2.5,81944,List2A,black,man,,,,null,,,,
20364,,,survey-text,53,344737,0.0-13.0-3.5,81944,List2A,black,man,,,,,"{""Q0"":""Dave and Jane are touching""}","<img src=""stim_listA/touch1.gif""</stim_listA>",is touching,
null,"<div style=""font-size:60px;"">+</div>",,html-keyboard-response,54,345239,0.0-13.0-0.6,81944,List2A,black,man,,,,null,,,,
null,"<img src=""stim_listA/meet3.gif""</stim_listA>",,html-keyboard-response,55,347240,0.0-13.0-1.6,81944,List2A,black,man,,,,null,,,,
null,is meeting,,html-keyboard-response,56,349241,0.0-13.0-2.6,81944,List2A,black,man,,,,null,,,,
17371,,,survey-text,57,366616,0.0-13.0-3.6,81944,List2A,black,man,,,,,"{""Q0"":""MIke is meeting Kate""}","<img src=""stim_listA/meet3.gif""</stim_listA>",is meeting,
null,"<div style=""font-size:60px;"">+</div>",,html-keyboard-response,58,367118,0.0-13.0-0.7,81944,List2A,black,man,,,,null,,,,
null,"<img src=""stim_listA/kiss6.gif""</stim_listA>",,html-keyboard-response,59,369120,0.0-13.0-1.7,81944,List2A,black,man,,,,null,,,,
null,are kissing each other,,html-keyboard-response,60,371121,0.0-13.0-2.7,81944,List2A,black,man,,,,null,,,,
11664,,,survey-text,61,382785,0.0-13.0-3.7,81944,List2A,black,man,,,,,"{""Q0"":""Dave and Mike are kissing each other""}","<img src=""stim_listA/kiss6.gif""</stim_listA>",are kissing each other,
null,"<div style=""font-size:60px;"">+</div>",,html-keyboard-response,62,383288,0.0-13.0-0.8,81944,List2A,black,man,,,,null,,,,
null,"<img src=""stim_listA/shout3.gif""</stim_listA>",,html-keyboard-response,63,385290,0.0-13.0-1.8,81944,List2A,black,man,,,,null,,,,
null,is shouting at,,html-keyboard-response,64,387291,0.0-13.0-2.8,81944,List2A,black,man,,,,null,,,,
11484,,,survey-text,65,398775,0.0-13.0-3.8,81944,List2A,black,man,,,,,"{""Q0"":""Mike is shouting at Beth""}","<img src=""stim_listA/shout3.gif""</stim_listA>",is shouting at,
null,"<div style=""font-size:60px;"">+</div>",,html-keyboard-response,66,399278,0.0-13.0-0.9,81944,List2A,black,man,,,,null,,,,
null,"<img src=""stim_listA/talk1.gif""</stim_listA>",,html-keyboard-response,67,401279,0.0-13.0-1.9,81944,List2A,black,man,,,,null,,,,
null,is talking to,,html-keyboard-response,68,403280,0.0-13.0-2.9,81944,List2A,black,man,,,,null,,,,
7780,,,survey-text,69,411062,0.0-13.0-3.9,81944,List2A,black,man,,,,,"{""Q0"":""Jane is talking to Luke""}","<img src=""stim_listA/talk1.gif""</stim_listA>",is talking to,
null,"<div style=""font-size:60px;"">+</div>",,html-keyboard-response,70,411564,0.0-13.0-0.10,81944,List2A,black,man,,,,null,,,,
null,"<img src=""stim_listA/talk3.gif""</stim_listA>",,html-keyboard-response,71,413567,0.0-13.0-1.10,81944,List2A,black,man,,,,null,,,,
null,is talking to,,html-keyboard-response,72,415569,0.0-13.0-2.10,81944,List2A,black,man,,,,null,,,,
12833,,,survey-text,73,428402,0.0-13.0-3.10,81944,List2A,black,man,,,,,"{""Q0"":""Fred and Kate are talking ""}","<img src=""stim_listA/talk3.gif""</stim_listA>",is talking to,
null,"<div style=""font-size:60px;"">+</div>",,html-keyboard-response,74,428904,0.0-13.0-0.11,81944,List2A,black,man,,,,null,,,,
null,"<img src=""stim_listA/kiss5.gif""</stim_listA>",,html-keyboard-response,75,430906,0.0-13.0-1.11,81944,List2A,black,man,,,,null,,,,
null,is kissing,,html-keyboard-response,76,432908,0.0-13.0-2.11,81944,List2A,black,man,,,,null,,,,
8868,,,survey-text,77,441778,0.0-13.0-3.11,81944,List2A,black,man,,,,,"{""Q0"":""Fred is kissing Luke""}","<img src=""stim_listA/kiss5.gif""</stim_listA>",is kissing,
null,"<div style=""font-size:60px;"">+</div>",,html-keyboard-response,78,442279,0.0-13.0-0.12,81944,List2A,black,man,,,,null,,,,
null,"<img src=""stim_listA/fight3.gif""</stim_listA>",,html-keyboard-response,79,444281,0.0-13.0-1.12,81944,List2A,black,man,,,,null,,,,
null,is fighting,,html-keyboard-response,80,446281,0.0-13.0-2.12,81944,List2A,black,man,,,,null,,,,
6988,,,survey-text,81,453270,0.0-13.0-3.12,81944,List2A,black,man,,,,,"{""Q0"":""Mike is fighting Kate""}","<img src=""stim_listA/fight3.gif""</stim_listA>",is fighting,
null,"<div style=""font-size:60px;"">+</div>",,html-keyboard-response,82,453773,0.0-13.0-0.13,81944,List2A,black,man,,,,null,,,,
null,"<img src=""stim_listA/hug6.gif""</stim_listA>",,html-keyboard-response,83,455774,0.0-13.0-1.13,81944,List2A,black,man,,,,null,,,,
null,are hugging each other,,html-keyboard-response,84,457777,0.0-13.0-2.13,81944,List2A,black,man,,,,null,,,,
11853,,,survey-text,85,469630,0.0-13.0-3.13,81944,List2A,black,man,,,,,"{""Q0"":""Dave and Mike are hugging each other""}","<img src=""stim_listA/hug6.gif""</stim_listA>",are hugging each other,
null,"<div style=""font-size:60px;"">+</div>",,html-keyboard-response,86,470131,0.0-13.0-0.14,81944,List2A,black,man,,,,null,,,,
null,"<img src=""stim_listA/fight8.gif""</stim_listA>",,html-keyboard-response,87,472132,0.0-13.0-1.14,81944,List2A,black,man,,,,null,,,,
null,are fighting each other,,html-keyboard-response,88,474134,0.0-13.0-2.14,81944,List2A,black,man,,,,null,,,,
30720,,,survey-text,89,504854,0.0-13.0-3.14,81944,List2A,black,man,,,,,"{""Q0"":""Ruth is fighting Beth""}","<img src=""stim_listA/fight8.gif""</stim_listA>",are fighting each other,
null,"<div style=""font-size:60px;"">+</div>",,html-keyboard-response,90,505355,0.0-13.0-0.15,81944,List2A,black,man,,,,null,,,,
null,"<img src=""stim_listA/argue5.gif""</stim_listA>",,html-keyboard-response,91,507357,0.0-13.0-1.15,81944,List2A,black,man,,,,null,,,,
null,is arguing with,,html-keyboard-response,92,509359,0.0-13.0-2.15,81944,List2A,black,man,,,,null,,,,
7732,,,survey-text,93,517091,0.0-13.0-3.15,81944,List2A,black,man,,,,,"{""Q0"":""Dave is arguing with Fred""}","<img src=""stim_listA/argue5.gif""</stim_listA>",is arguing with,
null,"<div style=""font-size:60px;"">+</div>",,html-keyboard-response,94,517592,0.0-13.0-0.16,81944,List2A,black,man,,,,null,,,,
null,"<img src=""stim_listA/hug7.gif""</stim_listA>",,html-keyboard-response,95,519594,0.0-13.0-1.16,81944,List2A,black,man,,,,null,,,,
null,is hugging,,html-keyboard-response,96,521598,0.0-13.0-2.16,81944,List2A,black,man,,,,null,,,,
8653,,,survey-text,97,530251,0.0-13.0-3.16,81944,List2A,black,man,,,,,"{""Q0"":""Beth is hugging Ruth""}","<img src=""stim_listA/hug7.gif""</stim_listA>",is hugging,
null,"<div style=""font-size:60px;"">+</div>",,html-keyboard-response,98,530752,0.0-13.0-0.17,81944,List2A,black,man,,,,null,,,,
null,"<img src=""stim_listA/shout6.gif""</stim_listA>",,html-keyboard-response,99,532755,0.0-13.0-1.17,81944,List2A,black,man,,,,null,,,,
null,are shouting at each other,,html-keyboard-response,100,534756,0.0-13.0-2.17,81944,List2A,black,man,,,,null,,,,
9486,,,survey-text,101,544243,0.0-13.0-3.17,81944,List2A,black,man,,,,,"{""Q0"":""Mike and Dave are shouting at each other""}","<img src=""stim_listA/shout6.gif""</stim_listA>",are shouting at each other,
null,"<div style=""font-size:60px;"">+</div>",,html-keyboard-response,102,544745,0.0-13.0-0.18,81944,List2A,black,man,,,,null,,,,
null,"<img src=""stim_listA/dance3.gif""</stim_listA>",,html-keyboard-response,103,546747,0.0-13.0-1.18,81944,List2A,black,man,,,,null,,,,
null,is dancing with,,html-keyboard-response,104,548749,0.0-13.0-2.18,81944,List2A,black,man,,,,null,,,,
10291,,,survey-text,105,559041,0.0-13.0-3.18,81944,List2A,black,man,,,,,"{""Q0"":""Fred is dancing with Kate""}","<img src=""stim_listA/dance3.gif""</stim_listA>",is dancing with,
null,"<div style=""font-size:60px;"">+</div>",,html-keyboard-response,106,559543,0.0-13.0-0.19,81944,List2A,black,man,,,,null,,,,
null,"<img src=""stim_listA/touch7.gif""</stim_listA>",,html-keyboard-response,107,561547,0.0-13.0-1.19,81944,List2A,black,man,,,,null,,,,
null,is touching,,html-keyboard-response,108,563548,0.0-13.0-2.19,81944,List2A,black,man,,,,null,,,,
10458,,,survey-text,109,574006,0.0-13.0-3.19,81944,List2A,black,man,,,,,"{""Q0"":""Kate is touching Jane""}","<img src=""stim_listA/touch7.gif""</stim_listA>",is touching,
24343,"<img src='img/portrait_matrix_list2.JPG' style='width:900px;height:500px;''></img><p>If you have memorised all the portraits and names and are ready to start, press Continue.</p><p><strong>Please note: Your memory of these faces will be tested 4 times during this experiment.</strong></p>",0,html-button-response,110,598350,0.0-14.0-0.0,81944,List2A,black,man,,,,,,,,
2236,"<img src=""portrait/WM1.jpg""style=""width:400px;height:400px;""></img>",6,html-button-response,111,601589,0.0-14.0-1.0,81944,List2A,black,man,,TRUE,6,,,,,
null,CORRECT,,html-keyboard-response,112,603093,0.0-14.0-2.0-0.0,81944,List2A,black,man,,,,null,,,,
1215,"<img src=""portrait/WM2.jpg""style=""width:400px;height:400px;""></img>",7,html-button-response,113,604308,0.0-14.0-4.0,81944,List2A,black,man,,TRUE,7,,,,,
null,CORRECT,,html-keyboard-response,114,605810,0.0-14.0-5.0-0.0,81944,List2A,black,man,,,,null,,,,
2603,"<img src=""portrait/WW2.jpg""style=""width:400px;height:400px;""></img>",3,html-button-response,115,608413,0.0-14.0-7.0,81944,List2A,black,man,,TRUE,3,,,,,
null,CORRECT,,html-keyboard-response,116,609918,0.0-14.0-8.0-0.0,81944,List2A,black,man,,,,null,,,,
1809,"<img src=""portrait/BM2.jpg""style=""width:400px;height:400px;""></img>",5,html-button-response,117,611729,0.0-14.0-10.0,81944,List2A,black,man,,TRUE,5,,,,,
null,CORRECT,,html-keyboard-response,118,613232,0.0-14.0-11.0-0.0,81944,List2A,black,man,,,,null,,,,
1449,"<img src=""portrait/BM1.jpg""style=""width:400px;height:400px;""></img>",4,html-button-response,119,614681,0.0-14.0-13.0,81944,List2A,black,man,,TRUE,4,,,,,
null,CORRECT,,html-keyboard-response,120,616185,0.0-14.0-14.0-0.0,81944,List2A,black,man,,,,null,,,,
2184,"<img src=""portrait/BW2.jpg""style=""width:400px;height:400px;""></img>",2,html-button-response,121,618369,0.0-14.0-16.0,81944,List2A,black,man,,TRUE,2,,,,,
null,CORRECT,,html-keyboard-response,122,619871,0.0-14.0-17.0-0.0,81944,List2A,black,man,,,,null,,,,
1245,"<img src=""portrait/WW1.jpg""style=""width:400px;height:400px;""></img>",1,html-button-response,123,621117,0.0-14.0-19.0,81944,List2A,black,man,,TRUE,1,,,,,
null,CORRECT,,html-keyboard-response,124,622619,0.0-14.0-20.0-0.0,81944,List2A,black,man,,,,null,,,,
660,"<img src=""portrait/BW1.jpg""style=""width:400px;height:400px;""></img>",0,html-button-response,125,623281,0.0-14.0-22.0,81944,List2A,black,man,,TRUE,0,,,,,
null,CORRECT,,html-keyboard-response,126,624782,0.0-14.0-23.0-0.0,81944,List2A,black,man,,,,null,,,,
910,<p>You got 8 out of 8 right first time. Press Continue.</p>,0,html-button-response,127,625692,0.0-14.0-25.0,81944,List2A,black,man,,,,,,,,
null,"<div style=""font-size:60px;"">+</div>",,html-keyboard-response,128,627194,0.0-15.0-0.0,81944,List2A,black,man,,,,null,,,,
null,"<img src=""stim_listA/hug3.gif""</stim_listA>",,html-keyboard-response,129,629196,0.0-15.0-1.0,81944,List2A,black,man,,,,null,,,,
null,is hugging,,html-keyboard-response,130,631198,0.0-15.0-2.0,81944,List2A,black,man,,,,null,,,,
9732,,,survey-text,131,640932,0.0-15.0-3.0,81944,List2A,black,man,,,,,"{""Q0"":""Beth is hugging Fred""}","<img src=""stim_listA/hug3.gif""</stim_listA>",is hugging,
null,"<div style=""font-size:60px;"">+</div>",,html-keyboard-response,132,641434,0.0-15.0-0.1,81944,List2A,black,man,,,,null,,,,
null,"<img src=""stim_listA/marry3.gif""</stim_listA>",,html-keyboard-response,133,643436,0.0-15.0-1.1,81944,List2A,black,man,,,,null,,,,
null,is marrying,,html-keyboard-response,134,645436,0.0-15.0-2.1,81944,List2A,black,man,,,,null,,,,
5260,,,survey-text,135,650698,0.0-15.0-3.1,81944,List2A,black,man,,,,,"{""Q0"":""Mike is marrying Beth""}","<img src=""stim_listA/marry3.gif""</stim_listA>",is marrying,
null,"<div style=""font-size:60px;"">+</div>",,html-keyboard-response,136,651199,0.0-15.0-0.2,81944,List2A,black,man,,,,null,,,,
null,"<img src=""stim_listA/dance7.gif""</stim_listA>",,html-keyboard-response,137,653201,0.0-15.0-1.2,81944,List2A,black,man,,,,null,,,,
null,is dancing with,,html-keyboard-response,138,655203,0.0-15.0-2.2,81944,List2A,black,man,,,,null,,,,
7067,,,survey-text,139,662270,0.0-15.0-3.2,81944,List2A,black,man,,,,,"{""Q0"":""Kate is dancing with Ruth""}","<img src=""stim_listA/dance7.gif""</stim_listA>",is dancing with,
null,"<div style=""font-size:60px;"">+</div>",,html-keyboard-response,140,662772,0.0-15.0-0.3,81944,List2A,black,man,,,,null,,,,
null,"<img src=""stim_listA/marry2.gif""</stim_listA>",,html-keyboard-response,141,664774,0.0-15.0-1.3,81944,List2A,black,man,,,,null,,,,
null,are marrying each other,,html-keyboard-response,142,666776,0.0-15.0-2.3,81944,List2A,black,man,,,,null,,,,
9631,,,survey-text,143,676407,0.0-15.0-3.3,81944,List2A,black,man,,,,,"{""Q0"":""Jane and Luke are marrying each other""}","<img src=""stim_listA/marry2.gif""</stim_listA>",are marrying each other,
null,"<div style=""font-size:60px;"">+</div>",,html-keyboard-response,144,676909,0.0-15.0-0.4,81944,List2A,black,man,,,,null,,,,
null,"<img src=""stim_listA/meet4.gif""</stim_listA>",,html-keyboard-response,145,678911,0.0-15.0-1.4,81944,List2A,black,man,,,,null,,,,
null,are meeting each other,,html-keyboard-response,146,680912,0.0-15.0-2.4,81944,List2A,black,man,,,,null,,,,
13140,,,survey-text,147,694054,0.0-15.0-3.4,81944,List2A,black,man,,,,,"{""Q0"":""Fred and Beth are shaking hands""}","<img src=""stim_listA/meet4.gif""</stim_listA>",are meeting each other,
null,"<div style=""font-size:60px;"">+</div>",,html-keyboard-response,148,694556,0.0-15.0-0.5,81944,List2A,black,man,,,,null,,,,
null,"<img src=""stim_listA/talk4.gif""</stim_listA>",,html-keyboard-response,149,696558,0.0-15.0-1.5,81944,List2A,black,man,,,,null,,,,
null,are talking to each other,,html-keyboard-response,150,698559,0.0-15.0-2.5,81944,List2A,black,man,,,,null,,,,
16232,,,survey-text,151,714793,0.0-15.0-3.5,81944,List2A,black,man,,,,,"{""Q0"":""Beth and Mike are talking to each other""}","<img src=""stim_listA/talk4.gif""</stim_listA>",are talking to each other,
null,"<div style=""font-size:60px;"">+</div>",,html-keyboard-response,152,715294,0.0-15.0-0.6,81944,List2A,black,man,,,,null,,,,
null,"<img src=""stim_listA/touch4.gif""</stim_listA>",,html-keyboard-response,153,717295,0.0-15.0-1.6,81944,List2A,black,man,,,,null,,,,
null,are touching each other,,html-keyboard-response,154,719296,0.0-15.0-2.6,81944,List2A,black,man,,,,null,,,,
12549,,,survey-text,155,731846,0.0-15.0-3.6,81944,List2A,black,man,,,,,"{""Q0"":""Beth and Fred are touching each other""}","<img src=""stim_listA/touch4.gif""</stim_listA>",are touching each other,
null,"<div style=""font-size:60px;"">+</div>",,html-keyboard-response,156,732348,0.0-15.0-0.7,81944,List2A,black,man,,,,null,,,,
null,"<img src=""stim_listA/kiss7.gif""</stim_listA>",,html-keyboard-response,157,734350,0.0-15.0-1.7,81944,List2A,black,man,,,,null,,,,
null,is kissing,,html-keyboard-response,158,736351,0.0-15.0-2.7,81944,List2A,black,man,,,,null,,,,
8049,,,survey-text,159,744400,0.0-15.0-3.7,81944,List2A,black,man,,,,,"{""Q0"":""Ruth is kissing Beth""}","<img src=""stim_listA/kiss7.gif""</stim_listA>",is kissing,
null,"<div style=""font-size:60px;"">+</div>",,html-keyboard-response,160,744901,0.0-15.0-0.8,81944,List2A,black,man,,,,null,,,,
null,"<img src=""stim_listA/hug2.gif""</stim_listA>",,html-keyboard-response,161,746902,0.0-15.0-1.8,81944,List2A,black,man,,,,null,,,,
null,are hugging each other,,html-keyboard-response,162,748905,0.0-15.0-2.8,81944,List2A,black,man,,,,null,,,,
9531,,,survey-text,163,758437,0.0-15.0-3.8,81944,List2A,black,man,,,,,"{""Q0"":""Jane and Dave are hugging""}","<img src=""stim_listA/hug2.gif""</stim_listA>",are hugging each other,
null,"<div style=""font-size:60px;"">+</div>",,html-keyboard-response,164,758938,0.0-15.0-0.9,81944,List2A,black,man,,,,null,,,,
null,"<img src=""stim_listA/fight4.gif""</stim_listA>",,html-keyboard-response,165,760940,0.0-15.0-1.9,81944,List2A,black,man,,,,null,,,,
null,are fighting each other,,html-keyboard-response,166,762941,0.0-15.0-2.9,81944,List2A,black,man,,,,null,,,,
11239,,,survey-text,167,774181,0.0-15.0-3.9,81944,List2A,black,man,,,,,"{""Q0"":""Beth and Fred are fighting each other""}","<img src=""stim_listA/fight4.gif""</stim_listA>",are fighting each other,
null,"<div style=""font-size:60px;"">+</div>",,html-keyboard-response,168,774681,0.0-15.0-0.10,81944,List2A,black,man,,,,null,,,,
null,"<img src=""stim_listA/shout7.gif""</stim_listA>",,html-keyboard-response,169,776682,0.0-15.0-1.10,81944,List2A,black,man,,,,null,,,,
null,is shouting at,,html-keyboard-response,170,778685,0.0-15.0-2.10,81944,List2A,black,man,,,,null,,,,
11901,,,survey-text,171,790586,0.0-15.0-3.10,81944,List2A,black,man,,,,,"{""Q0"":""Ruth and Beth and shouting at each other""}","<img src=""stim_listA/shout7.gif""</stim_listA>",is shouting at,
null,"<div style=""font-size:60px;"">+</div>",,html-keyboard-response,172,791089,0.0-15.0-0.11,81944,List2A,black,man,,,,null,,,,
null,"<img src=""stim_listA/fight7.gif""</stim_listA>",,html-keyboard-response,173,793090,0.0-15.0-1.11,81944,List2A,black,man,,,,null,,,,
null,is fighting,,html-keyboard-response,174,795091,0.0-15.0-2.11,81944,List2A,black,man,,,,null,,,,
7195,,,survey-text,175,802287,0.0-15.0-3.11,81944,List2A,black,man,,,,,"{""Q0"":""Jane is fighting Kate""}","<img src=""stim_listA/fight7.gif""</stim_listA>",is fighting,
null,"<div style=""font-size:60px;"">+</div>",,html-keyboard-response,176,802789,0.0-15.0-0.12,81944,List2A,black,man,,,,null,,,,
null,"<img src=""stim_listA/marry7.gif""</stim_listA>",,html-keyboard-response,177,804792,0.0-15.0-1.12,81944,List2A,black,man,,,,null,,,,
null,is marrying,,html-keyboard-response,178,806794,0.0-15.0-2.12,81944,List2A,black,man,,,,null,,,,
5313,,,survey-text,179,812107,0.0-15.0-3.12,81944,List2A,black,man,,,,,"{""Q0"":""Jane is marrying Beth""}","<img src=""stim_listA/marry7.gif""</stim_listA>",is marrying,
null,"<div style=""font-size:60px;"">+</div>",,html-keyboard-response,180,812608,0.0-15.0-0.13,81944,List2A,black,man,,,,null,,,,
null,"<img src=""stim_listA/hug8.gif""</stim_listA>",,html-keyboard-response,181,814610,0.0-15.0-1.13,81944,List2A,black,man,,,,null,,,,
null,are hugging each other,,html-keyboard-response,182,816612,0.0-15.0-2.13,81944,List2A,black,man,,,,null,,,,
20919,,,survey-text,183,837531,0.0-15.0-3.13,81944,List2A,black,man,,,,,"{""Q0"":""Jane and Kate are hugging each other""}","<img src=""stim_listA/hug8.gif""</stim_listA>",are hugging each other,
null,"<div style=""font-size:60px;"">+</div>",,html-keyboard-response,184,838032,0.0-15.0-0.14,81944,List2A,black,man,,,,null,,,,
null,"<img src=""stim_listA/touch2.gif""</stim_listA>",,html-keyboard-response,185,840033,0.0-15.0-1.14,81944,List2A,black,man,,,,null,,,,
null,are touching each other,,html-keyboard-response,186,842034,0.0-15.0-2.14,81944,List2A,black,man,,,,null,,,,
9310,,,survey-text,187,851344,0.0-15.0-3.14,81944,List2A,black,man,,,,,"{""Q0"":""Ruth and Luke are touching each other""}","<img src=""stim_listA/touch2.gif""</stim_listA>",are touching each other,
null,"<div style=""font-size:60px;"">+</div>",,html-keyboard-response,188,851846,0.0-15.0-0.15,81944,List2A,black,man,,,,null,,,,
null,"<img src=""stim_listA/shout8.gif""</stim_listA>",,html-keyboard-response,189,853847,0.0-15.0-1.15,81944,List2A,black,man,,,,null,,,,
null,are shouting at each other,,html-keyboard-response,190,855849,0.0-15.0-2.15,81944,List2A,black,man,,,,null,,,,
12956,,,survey-text,191,868806,0.0-15.0-3.15,81944,List2A,black,man,,,,,"{""Q0"":""Jane and Kate are shouting at each other""}","<img src=""stim_listA/shout8.gif""</stim_listA>",are shouting at each other,
null,"<div style=""font-size:60px;"">+</div>",,html-keyboard-response,192,869307,0.0-15.0-0.16,81944,List2A,black,man,,,,null,,,,
null,"<img src=""stim_listA/dance2.gif""</stim_listA>",,html-keyboard-response,193,871310,0.0-15.0-1.16,81944,List2A,black,man,,,,null,,,,
null,are dancing with each other,,html-keyboard-response,194,873312,0.0-15.0-2.16,81944,List2A,black,man,,,,null,,,,
9509,,,survey-text,195,882822,0.0-15.0-3.16,81944,List2A,black,man,,,,,"{""Q0"":""Ruth and Dave are dancing with each other""}","<img src=""stim_listA/dance2.gif""</stim_listA>",are dancing with each other,
null,"<div style=""font-size:60px;"">+</div>",,html-keyboard-response,196,883324,0.0-15.0-0.17,81944,List2A,black,man,,,,null,,,,
null,"<img src=""stim_listA/hug1.gif""</stim_listA>",,html-keyboard-response,197,885325,0.0-15.0-1.17,81944,List2A,black,man,,,,null,,,,
null,is hugging,,html-keyboard-response,198,887326,0.0-15.0-2.17,81944,List2A,black,man,,,,null,,,,
7270,,,survey-text,199,894596,0.0-15.0-3.17,81944,List2A,black,man,,,,,"{""Q0"":""Ruth is hugging Luke""}","<img src=""stim_listA/hug1.gif""</stim_listA>",is hugging,
null,"<div style=""font-size:60px;"">+</div>",,html-keyboard-response,200,895099,0.0-15.0-0.18,81944,List2A,black,man,,,,null,,,,
null,"<img src=""stim_listA/argue1.gif""</stim_listA>",,html-keyboard-response,201,897101,0.0-15.0-1.18,81944,List2A,black,man,,,,null,,,,
null,is arguing with,,html-keyboard-response,202,899102,0.0-15.0-2.18,81944,List2A,black,man,,,,null,,,,
5955,,,survey-text,203,905057,0.0-15.0-3.18,81944,List2A,black,man,,,,,"{""Q0"":""Ruth is arguing with Dave""}","<img src=""stim_listA/argue1.gif""</stim_listA>",is arguing with,
null,"<div style=""font-size:60px;"">+</div>",,html-keyboard-response,204,905559,0.0-15.0-0.19,81944,List2A,black,man,,,,null,,,,
null,"<img src=""stim_listA/meet6.gif""</stim_listA>",,html-keyboard-response,205,907562,0.0-15.0-1.19,81944,List2A,black,man,,,,null,,,,
null,are meeting each other,,html-keyboard-response,206,909564,0.0-15.0-2.19,81944,List2A,black,man,,,,null,,,,
10501,,,survey-text,207,920065,0.0-15.0-3.19,81944,List2A,black,man,,,,,"{""Q0"":""Fred and Luke are meeting each other""}","<img src=""stim_listA/meet6.gif""</stim_listA>",are meeting each other,
3973,"<img src='img/portrait_matrix_list2.JPG' style='width:900px;height:500px;''></img><p>If you have memorised all the portraits and names and are ready to start, press Continue.</p><p><strong>Please note: Your memory of these faces will be tested 4 times during this experiment.</strong></p>",0,html-button-response,208,924039,0.0-16.0-0.0,81944,List2A,black,man,,,,,,,,
4689,"<img src=""portrait/BW2.jpg""style=""width:400px;height:400px;""></img>",2,html-button-response,209,929731,0.0-16.0-1.0,81944,List2A,black,man,,TRUE,2,,,,,
null,CORRECT,,html-keyboard-response,210,931234,0.0-16.0-2.0-0.0,81944,List2A,black,man,,,,null,,,,
1628,"<img src=""portrait/BM2.jpg""style=""width:400px;height:400px;""></img>",5,html-button-response,211,932862,0.0-16.0-4.0,81944,List2A,black,man,,TRUE,5,,,,,
null,CORRECT,,html-keyboard-response,212,934366,0.0-16.0-5.0-0.0,81944,List2A,black,man,,,,null,,,,
1140,"<img src=""portrait/WW2.jpg""style=""width:400px;height:400px;""></img>",3,html-button-response,213,935507,0.0-16.0-7.0,81944,List2A,black,man,,TRUE,3,,,,,
null,CORRECT,,html-keyboard-response,214,937010,0.0-16.0-8.0-0.0,81944,List2A,black,man,,,,null,,,,
1558,"<img src=""portrait/WW1.jpg""style=""width:400px;height:400px;""></img>",1,html-button-response,215,938569,0.0-16.0-10.0,81944,List2A,black,man,,TRUE,1,,,,,
null,CORRECT,,html-keyboard-response,216,940072,0.0-16.0-11.0-0.0,81944,List2A,black,man,,,,null,,,,
2027,"<img src=""portrait/WM2.jpg""style=""width:400px;height:400px;""></img>",7,html-button-response,217,942100,0.0-16.0-13.0,81944,List2A,black,man,,TRUE,7,,,,,
null,CORRECT,,html-keyboard-response,218,943603,0.0-16.0-14.0-0.0,81944,List2A,black,man,,,,null,,,,
4973,"<img src=""portrait/BW1.jpg""style=""width:400px;height:400px;""></img>",0,html-button-response,219,948577,0.0-16.0-16.0,81944,List2A,black,man,,TRUE,0,,,,,
null,CORRECT,,html-keyboard-response,220,950080,0.0-16.0-17.0-0.0,81944,List2A,black,man,,,,null,,,,
1869,"<img src=""portrait/WM1.jpg""style=""width:400px;height:400px;""></img>",6,html-button-response,221,951950,0.0-16.0-19.0,81944,List2A,black,man,,TRUE,6,,,,,
null,CORRECT,,html-keyboard-response,222,953454,0.0-16.0-20.0-0.0,81944,List2A,black,man,,,,null,,,,
2072,"<img src=""portrait/BM1.jpg""style=""width:400px;height:400px;""></img>",4,html-button-response,223,955528,0.0-16.0-22.0,81944,List2A,black,man,,TRUE,4,,,,,
null,CORRECT,,html-keyboard-response,224,957030,0.0-16.0-23.0-0.0,81944,List2A,black,man,,,,null,,,,
878,<p>You got 8 out of 8 right first time. Press Continue.</p>,0,html-button-response,225,957909,0.0-16.0-25.0,81944,List2A,black,man,,,,,,,,
null,"<div style=""font-size:60px;"">+</div>",,html-keyboard-response,226,959416,0.0-17.0-0.0,81944,List2A,black,man,,,,null,,,,
null,"<img src=""stim_listA/meet7.gif""</stim_listA>",,html-keyboard-response,227,961417,0.0-17.0-1.0,81944,List2A,black,man,,,,null,,,,
null,is meeting,,html-keyboard-response,228,963419,0.0-17.0-2.0,81944,List2A,black,man,,,,null,,,,
9842,,,survey-text,229,973263,0.0-17.0-3.0,81944,List2A,black,man,,,,,"{""Q0"":""Jane is meeting Kate""}","<img src=""stim_listA/meet7.gif""</stim_listA>",is meeting,
null,"<div style=""font-size:60px;"">+</div>",,html-keyboard-response,230,973764,0.0-17.0-0.1,81944,List2A,black,man,,,,null,,,,
null,"<img src=""stim_listA/marry5.gif""</stim_listA>",,html-keyboard-response,231,975766,0.0-17.0-1.1,81944,List2A,black,man,,,,null,,,,
null,is marrying,,html-keyboard-response,232,977768,0.0-17.0-2.1,81944,List2A,black,man,,,,null,,,,
9162,,,survey-text,233,986931,0.0-17.0-3.1,81944,List2A,black,man,,,,,"{""Q0"":""Dave is marrying Fred""}","<img src=""stim_listA/marry5.gif""</stim_listA>",is marrying,
null,"<div style=""font-size:60px;"">+</div>",,html-keyboard-response,234,987433,0.0-17.0-0.2,81944,List2A,black,man,,,,null,,,,
null,"<img src=""stim_listA/dance8.gif""</stim_listA>",,html-keyboard-response,235,989436,0.0-17.0-1.2,81944,List2A,black,man,,,,null,,,,
null,are dancing with each other,,html-keyboard-response,236,991437,0.0-17.0-2.2,81944,List2A,black,man,,,,null,,,,
14655,,,survey-text,237,1006093,0.0-17.0-3.2,81944,List2A,black,man,,,,,"{""Q0"":""Beth and Jane are dancing with each other""}","<img src=""stim_listA/dance8.gif""</stim_listA>",are dancing with each other,
null,"<div style=""font-size:60px;"">+</div>",,html-keyboard-response,238,1006595,0.0-17.0-0.3,81944,List2A,black,man,,,,null,,,,
null,"<img src=""stim_listA/argue7.gif""</stim_listA>",,html-keyboard-response,239,1008595,0.0-17.0-1.3,81944,List2A,black,man,,,,null,,,,
null,is arguing with,,html-keyboard-response,240,1010597,0.0-17.0-2.3,81944,List2A,black,man,,,,null,,,,
5411,,,survey-text,241,1016009,0.0-17.0-3.3,81944,List2A,black,man,,,,,"{""Q0"":""Jane is arguing with Beth""}","<img src=""stim_listA/argue7.gif""</stim_listA>",is arguing with,
null,"<div style=""font-size:60px;"">+</div>",,html-keyboard-response,242,1016511,0.0-17.0-0.4,81944,List2A,black,man,,,,null,,,,
null,"<img src=""stim_listA/shout2.gif""</stim_listA>",,html-keyboard-response,243,1018512,0.0-17.0-1.4,81944,List2A,black,man,,,,null,,,,
null,are shouting at each other,,html-keyboard-response,244,1020514,0.0-17.0-2.4,81944,List2A,black,man,,,,null,,,,
14520,,,survey-text,245,1035035,0.0-17.0-3.4,81944,List2A,black,man,,,,,"{""Q0"":""Jane and Dave are shouting at each other""}","<img src=""stim_listA/shout2.gif""</stim_listA>",are shouting at each other,
null,"<div style=""font-size:60px;"">+</div>",,html-keyboard-response,246,1035536,0.0-17.0-0.5,81944,List2A,black,man,,,,null,,,,
null,"<img src=""stim_listA/marry6.gif""</stim_listA>",,html-keyboard-response,247,1037541,0.0-17.0-1.5,81944,List2A,black,man,,,,null,,,,
null,are marrying each other,,html-keyboard-response,248,1039544,0.0-17.0-2.5,81944,List2A,black,man,,,,null,,,,
24299,,,survey-text,249,1063843,0.0-17.0-3.5,81944,List2A,black,man,,,,,"{""Q0"":""Mike is marrying Luke""}","<img src=""stim_listA/marry6.gif""</stim_listA>",are marrying each other,
null,"<div style=""font-size:60px;"">+</div>",,html-keyboard-response,250,1064344,0.0-17.0-0.6,81944,List2A,black,man,,,,null,,,,
null,"<img src=""stim_listA/kiss3.gif""</stim_listA>",,html-keyboard-response,251,1066345,0.0-17.0-1.6,81944,List2A,black,man,,,,null,,,,
null,is kissing,,html-keyboard-response,252,1068347,0.0-17.0-2.6,81944,List2A,black,man,,,,null,,,,
8661,,,survey-text,253,1077010,0.0-17.0-3.6,81944,List2A,black,man,,,,,"{""Q0"":""Fred is kissing Beth""}","<img src=""stim_listA/kiss3.gif""</stim_listA>",is kissing,
null,"<div style=""font-size:60px;"">+</div>",,html-keyboard-response,254,1077512,0.0-17.0-0.7,81944,List2A,black,man,,,,null,,,,
null,"<img src=""stim_listA/talk6.gif""</stim_listA>",,html-keyboard-response,255,1079516,0.0-17.0-1.7,81944,List2A,black,man,,,,null,,,,
null,are talking to each other,,html-keyboard-response,256,1081518,0.0-17.0-2.7,81944,List2A,black,man,,,,null,,,,
12208,,,survey-text,257,1093726,0.0-17.0-3.7,81944,List2A,black,man,,,,,"{""Q0"":""Fred and Dave are talking to each other""}","<img src=""stim_listA/talk6.gif""</stim_listA>",are talking to each other,
null,"<div style=""font-size:60px;"">+</div>",,html-keyboard-response,258,1094229,0.0-17.0-0.8,81944,List2A,black,man,,,,null,,,,
null,"<img src=""stim_listA/kiss1.gif""</stim_listA>",,html-keyboard-response,259,1096232,0.0-17.0-1.8,81944,List2A,black,man,,,,null,,,,
null,is kissing,,html-keyboard-response,260,1098233,0.0-17.0-2.8,81944,List2A,black,man,,,,null,,,,
7501,,,survey-text,261,1105736,0.0-17.0-3.8,81944,List2A,black,man,,,,,"{""Q0"":""Luke is kissing Ruth""}","<img src=""stim_listA/kiss1.gif""</stim_listA>",is kissing,
null,"<div style=""font-size:60px;"">+</div>",,html-keyboard-response,262,1106236,0.0-17.0-0.9,81944,List2A,black,man,,,,null,,,,
null,"<img src=""stim_listA/talk2.gif""</stim_listA>",,html-keyboard-response,263,1108239,0.0-17.0-1.9,81944,List2A,black,man,,,,null,,,,
null,are talking to each other,,html-keyboard-response,264,1110240,0.0-17.0-2.9,81944,List2A,black,man,,,,null,,,,
39488,,,survey-text,265,1149730,0.0-17.0-3.9,81944,List2A,black,man,,,,,"{""Q0"":""Dave and Ruth are talking to each other""}","<img src=""stim_listA/talk2.gif""</stim_listA>",are talking to each other,
null,"<div style=""font-size:60px;"">+</div>",,html-keyboard-response,266,1150232,0.0-17.0-0.10,81944,List2A,black,man,,,,null,,,,
null,"<img src=""stim_listA/dance6.gif""</stim_listA>",,html-keyboard-response,267,1152234,0.0-17.0-1.10,81944,List2A,black,man,,,,null,,,,
null,are dancing with each other,,html-keyboard-response,268,1154236,0.0-17.0-2.10,81944,List2A,black,man,,,,null,,,,
33915,,,survey-text,269,1188153,0.0-17.0-3.10,81944,List2A,black,man,,,,,"{""Q0"":""Dave and Fred are marrying each other""}","<img src=""stim_listA/dance6.gif""</stim_listA>",are dancing with each other,
null,"<div style=""font-size:60px;"">+</div>",,html-keyboard-response,270,1188653,0.0-17.0-0.11,81944,List2A,black,man,,,,null,,,,
null,"<img src=""stim_listA/talk8.gif""</stim_listA>",,html-keyboard-response,271,1190656,0.0-17.0-1.11,81944,List2A,black,man,,,,null,,,,
null,are talking to each other,,html-keyboard-response,272,1192658,0.0-17.0-2.11,81944,List2A,black,man,,,,null,,,,
10114,,,survey-text,273,1202772,0.0-17.0-3.11,81944,List2A,black,man,,,,,"{""Q0"":""Jane and Beth are talking to each other""}","<img src=""stim_listA/talk8.gif""</stim_listA>",are talking to each other,
null,"<div style=""font-size:60px;"">+</div>",,html-keyboard-response,274,1203275,0.0-17.0-0.12,81944,List2A,black,man,,,,null,,,,
null,"<img src=""stim_listA/fight2.gif""</stim_listA>",,html-keyboard-response,275,1205276,0.0-17.0-1.12,81944,List2A,black,man,,,,null,,,,
null,are fighting each other,,html-keyboard-response,276,1207278,0.0-17.0-2.12,81944,List2A,black,man,,,,null,,,,
8549,,,survey-text,277,1215828,0.0-17.0-3.12,81944,List2A,black,man,,,,,"{""Q0"":""Luke and Ruth are fighting each other""}","<img src=""stim_listA/fight2.gif""</stim_listA>",are fighting each other,
null,"<div style=""font-size:60px;"">+</div>",,html-keyboard-response,278,1216329,0.0-17.0-0.13,81944,List2A,black,man,,,,null,,,,
null,"<img src=""stim_listA/touch6.gif""</stim_listA>",,html-keyboard-response,279,1218331,0.0-17.0-1.13,81944,List2A,black,man,,,,null,,,,
null,are touching each other,,html-keyboard-response,280,1220333,0.0-17.0-2.13,81944,List2A,black,man,,,,null,,,,
9154,,,survey-text,281,1229489,0.0-17.0-3.13,81944,List2A,black,man,,,,,"{""Q0"":""Fred and Luke are touching each other""}","<img src=""stim_listA/touch6.gif""</stim_listA>",are touching each other,
null,"<div style=""font-size:60px;"">+</div>",,html-keyboard-response,282,1229992,0.0-17.0-0.14,81944,List2A,black,man,,,,null,,,,
null,"<img src=""stim_listA/touch5.gif""</stim_listA>",,html-keyboard-response,283,1231993,0.0-17.0-1.14,81944,List2A,black,man,,,,null,,,,
null,is touching,,html-keyboard-response,284,1233995,0.0-17.0-2.14,81944,List2A,black,man,,,,null,,,,
5522,,,survey-text,285,1239518,0.0-17.0-3.14,81944,List2A,black,man,,,,,"{""Q0"":""Mike is touching Dave""}","<img src=""stim_listA/touch5.gif""</stim_listA>",is touching,
null,"<div style=""font-size:60px;"">+</div>",,html-keyboard-response,286,1240019,0.0-17.0-0.15,81944,List2A,black,man,,,,null,,,,
null,"<img src=""stim_listA/touch8.gif""</stim_listA>",,html-keyboard-response,287,1242023,0.0-17.0-1.15,81944,List2A,black,man,,,,null,,,,
null,are touching each other,,html-keyboard-response,288,1244024,0.0-17.0-2.15,81944,List2A,black,man,,,,null,,,,
12495,,,survey-text,289,1256520,0.0-17.0-3.15,81944,List2A,black,man,,,,,"{""Q0"":""Beth and Ruth are touching each other""}","<img src=""stim_listA/touch8.gif""</stim_listA>",are touching each other,
null,"<div style=""font-size:60px;"">+</div>",,html-keyboard-response,290,1257022,0.0-17.0-0.16,81944,List2A,black,man,,,,null,,,,
null,"<img src=""stim_listA/kiss2.gif""</stim_listA>",,html-keyboard-response,291,1259025,0.0-17.0-1.16,81944,List2A,black,man,,,,null,,,,
null,are kissing each other,,html-keyboard-response,292,1261027,0.0-17.0-2.16,81944,List2A,black,man,,,,null,,,,
19110,,,survey-text,293,1280139,0.0-17.0-3.16,81944,List2A,black,man,,,,,"{""Q0"":""Dave is kissing Jane""}","<img src=""stim_listA/kiss2.gif""</stim_listA>",are kissing each other,
null,"<div style=""font-size:60px;"">+</div>",,html-keyboard-response,294,1280640,0.0-17.0-0.17,81944,List2A,black,man,,,,null,,,,
null,"<img src=""stim_listA/hug5.gif""</stim_listA>",,html-keyboard-response,295,1282642,0.0-17.0-1.17,81944,List2A,black,man,,,,null,,,,
null,is hugging,,html-keyboard-response,296,1284644,0.0-17.0-2.17,81944,List2A,black,man,,,,null,,,,
6387,,,survey-text,297,1291031,0.0-17.0-3.17,81944,List2A,black,man,,,,,"{""Q0"":""Fred is hugging Luke""}","<img src=""stim_listA/hug5.gif""</stim_listA>",is hugging,
null,"<div style=""font-size:60px;"">+</div>",,html-keyboard-response,298,1291532,0.0-17.0-0.18,81944,List2A,black,man,,,,null,,,,
null,"<img src=""stim_listA/marry1.gif""</stim_listA>",,html-keyboard-response,299,1293533,0.0-17.0-1.18,81944,List2A,black,man,,,,null,,,,
null,is marrying,,html-keyboard-response,300,1295534,0.0-17.0-2.18,81944,List2A,black,man,,,,null,,,,
5319,,,survey-text,301,1300854,0.0-17.0-3.18,81944,List2A,black,man,,,,,"{""Q0"":""Dave is marrying Ruth""}","<img src=""stim_listA/marry1.gif""</stim_listA>",is marrying,
null,"<div style=""font-size:60px;"">+</div>",,html-keyboard-response,302,1301356,0.0-17.0-0.19,81944,List2A,black,man,,,,null,,,,
null,"<img src=""stim_listA/marry4.gif""</stim_listA>",,html-keyboard-response,303,1303358,0.0-17.0-1.19,81944,List2A,black,man,,,,null,,,,
null,are marrying each other,,html-keyboard-response,304,1305361,0.0-17.0-2.19,81944,List2A,black,man,,,,null,,,,
10255,,,survey-text,305,1315618,0.0-17.0-3.19,81944,List2A,black,man,,,,,"{""Q0"":""Fred and Kate are marrying each other""}","<img src=""stim_listA/marry4.gif""</stim_listA>",are marrying each other,
21643,"<img src='img/portrait_matrix_list2.JPG' style='width:900px;height:500px;''></img><p>If you have memorised all the portraits and names and are ready to start, press Continue.</p><p><strong>Please note: Your memory of these faces will be tested 4 times during this experiment.</strong></p>",0,html-button-response,306,1337261,0.0-18.0-0.0,81944,List2A,black,man,,,,,,,,
5722,"<img src=""portrait/BW2.jpg""style=""width:400px;height:400px;""></img>",2,html-button-response,307,1343986,0.0-18.0-1.0,81944,List2A,black,man,,TRUE,2,,,,,
null,CORRECT,,html-keyboard-response,308,1345489,0.0-18.0-2.0-0.0,81944,List2A,black,man,,,,null,,,,
1733,"<img src=""portrait/WW1.jpg""style=""width:400px;height:400px;""></img>",3,html-button-response,309,1347223,0.0-18.0-4.0,81944,List2A,black,man,,TRUE,1,,,,,
2600,"<img src=""portrait/WW1.jpg""style=""width:400px;height:400px;""></img>",1,html-button-response,310,1350825,0.0-18.0-6.0-0.0,81944,List2A,black,man,,FALSE,1,,,,,
null,CORRECT,,html-keyboard-response,311,1352328,0.0-18.0-6.0-1.0-0.0,81944,List2A,black,man,,,,null,,,,
1362,"<img src=""portrait/BW1.jpg""style=""width:400px;height:400px;""></img>",0,html-button-response,312,1353692,0.0-18.0-7.0,81944,List2A,black,man,,TRUE,0,,,,,
null,CORRECT,,html-keyboard-response,313,1355193,0.0-18.0-8.0-0.0,81944,List2A,black,man,,,,null,,,,
2221,"<img src=""portrait/WM2.jpg""style=""width:400px;height:400px;""></img>",7,html-button-response,314,1357415,0.0-18.0-10.0,81944,List2A,black,man,,TRUE,7,,,,,
null,CORRECT,,html-keyboard-response,315,1358920,0.0-18.0-11.0-0.0,81944,List2A,black,man,,,,null,,,,
3642,"<img src=""portrait/WW2.jpg""style=""width:400px;height:400px;""></img>",3,html-button-response,316,1362564,0.0-18.0-13.0,81944,List2A,black,man,,TRUE,3,,,,,
null,CORRECT,,html-keyboard-response,317,1364067,0.0-18.0-14.0-0.0,81944,List2A,black,man,,,,null,,,,
1904,"<img src=""portrait/WM1.jpg""style=""width:400px;height:400px;""></img>",6,html-button-response,318,1365974,0.0-18.0-16.0,81944,List2A,black,man,,TRUE,6,,,,,
null,CORRECT,,html-keyboard-response,319,1367477,0.0-18.0-17.0-0.0,81944,List2A,black,man,,,,null,,,,
1025,"<img src=""portrait/BM1.jpg""style=""width:400px;height:400px;""></img>",4,html-button-response,320,1368503,0.0-18.0-19.0,81944,List2A,black,man,,TRUE,4,,,,,
null,CORRECT,,html-keyboard-response,321,1370005,0.0-18.0-20.0-0.0,81944,List2A,black,man,,,,null,,,,
1768,"<img src=""portrait/BM2.jpg""style=""width:400px;height:400px;""></img>",5,html-button-response,322,1371775,0.0-18.0-22.0,81944,List2A,black,man,,TRUE,5,,,,,
null,CORRECT,,html-keyboard-response,323,1373276,0.0-18.0-23.0-0.0,81944,List2A,black,man,,,,null,,,,
1791,<p>You got 7 out of 8 right first time. Press Continue.</p>,0,html-button-response,324,1375068,0.0-18.0-25.0,81944,List2A,black,man,,,,,,,,
3964,"As you did not score 100%, the memory game will repeat. Press Continue.",0,html-button-response,325,1380034,0.0-18.0-26.0-0.0,81944,List2A,black,man,,,,,,,,
1264,"<img src='img/portrait_matrix_list2.JPG' style='width:900px;height:500px;''></img><p>If you have memorised all the portraits and names and are ready to start, press Continue.</p><p><strong>Please note: Your memory of these faces will be tested 4 times during this experiment.</strong></p>",0,html-button-response,326,1382302,0.0-18.1-0.1,81944,List2A,black,man,,,,,,,,
7574,"<img src=""portrait/BW2.jpg""style=""width:400px;height:400px;""></img>",2,html-button-response,327,1390878,0.0-18.1-1.1,81944,List2A,black,man,,TRUE,2,,,,,
null,CORRECT,,html-keyboard-response,328,1392382,0.0-18.1-2.1-0.1,81944,List2A,black,man,,,,null,,,,
1487,"<img src=""portrait/WW1.jpg""style=""width:400px;height:400px;""></img>",1,html-button-response,329,1393870,0.0-18.1-4.1,81944,List2A,black,man,,TRUE,1,,,,,
null,CORRECT,,html-keyboard-response,330,1395373,0.0-18.1-5.1-0.1,81944,List2A,black,man,,,,null,,,,
860,"<img src=""portrait/BW1.jpg""style=""width:400px;height:400px;""></img>",0,html-button-response,331,1396235,0.0-18.1-7.1,81944,List2A,black,man,,TRUE,0,,,,,
null,CORRECT,,html-keyboard-response,332,1397737,0.0-18.1-8.1-0.1,81944,List2A,black,man,,,,null,,,,
712,"<img src=""portrait/WM2.jpg""style=""width:400px;height:400px;""></img>",7,html-button-response,333,1398451,0.0-18.1-10.1,81944,List2A,black,man,,TRUE,7,,,,,
null,CORRECT,,html-keyboard-response,334,1399952,0.0-18.1-11.1-0.1,81944,List2A,black,man,,,,null,,,,
727,"<img src=""portrait/WW2.jpg""style=""width:400px;height:400px;""></img>",3,html-button-response,335,1400681,0.0-18.1-13.1,81944,List2A,black,man,,TRUE,3,,,,,
null,CORRECT,,html-keyboard-response,336,1402182,0.0-18.1-14.1-0.1,81944,List2A,black,man,,,,null,,,,
471,"<img src=""portrait/WM1.jpg""style=""width:400px;height:400px;""></img>",6,html-button-response,337,1402655,0.0-18.1-16.1,81944,List2A,black,man,,TRUE,6,,,,,
null,CORRECT,,html-keyboard-response,338,1404158,0.0-18.1-17.1-0.1,81944,List2A,black,man,,,,null,,,,
889,"<img src=""portrait/BM1.jpg""style=""width:400px;height:400px;""></img>",4,html-button-response,339,1405049,0.0-18.1-19.1,81944,List2A,black,man,,TRUE,4,,,,,
null,CORRECT,,html-keyboard-response,340,1406551,0.0-18.1-20.1-0.1,81944,List2A,black,man,,,,null,,,,
429,"<img src=""portrait/BM2.jpg""style=""width:400px;height:400px;""></img>",5,html-button-response,341,1406982,0.0-18.1-22.1,81944,List2A,black,man,,TRUE,5,,,,,
null,CORRECT,,html-keyboard-response,342,1408484,0.0-18.1-23.1-0.1,81944,List2A,black,man,,,,null,,,,
1201,<p>You got 8 out of 8 right first time. Press Continue.</p>,0,html-button-response,343,1409685,0.0-18.1-25.1,81944,List2A,black,man,,,,,,,,
null,"<div style=""font-size:60px;"">+</div>",,html-keyboard-response,344,1411187,0.0-19.0-0.0,81944,List2A,black,man,,,,null,,,,
null,"<img src=""stim_listA/fight1.gif""</stim_listA>",,html-keyboard-response,345,1413189,0.0-19.0-1.0,81944,List2A,black,man,,,,null,,,,
null,is fighting,,html-keyboard-response,346,1415191,0.0-19.0-2.0,81944,List2A,black,man,,,,null,,,,
9862,,,survey-text,347,1425053,0.0-19.0-3.0,81944,List2A,black,man,,,,,"{""Q0"":""Jane is fighting Dave""}","<img src=""stim_listA/fight1.gif""</stim_listA>",is fighting,
null,"<div style=""font-size:60px;"">+</div>",,html-keyboard-response,348,1425554,0.0-19.0-0.1,81944,List2A,black,man,,,,null,,,,
null,"<img src=""stim_listA/dance5.gif""</stim_listA>",,html-keyboard-response,349,1427557,0.0-19.0-1.1,81944,List2A,black,man,,,,null,,,,
null,is dancing with,,html-keyboard-response,350,1429558,0.0-19.0-2.1,81944,List2A,black,man,,,,null,,,,
8966,,,survey-text,351,1438525,0.0-19.0-3.1,81944,List2A,black,man,,,,,"{""Q0"":""Mike is dancing with Luke""}","<img src=""stim_listA/dance5.gif""</stim_listA>",is dancing with,
null,"<div style=""font-size:60px;"">+</div>",,html-keyboard-response,352,1439026,0.0-19.0-0.2,81944,List2A,black,man,,,,null,,,,
null,"<img src=""stim_listA/argue2.gif""</stim_listA>",,html-keyboard-response,353,1441030,0.0-19.0-1.2,81944,List2A,black,man,,,,null,,,,
null,are arguing with each other,,html-keyboard-response,354,1443030,0.0-19.0-2.2,81944,List2A,black,man,,,,null,,,,
7632,,,survey-text,355,1450663,0.0-19.0-3.2,81944,List2A,black,man,,,,,"{""Q0"":""Luke and Jane are fighting each other""}","<img src=""stim_listA/argue2.gif""</stim_listA>",are arguing with each other,
null,"<div style=""font-size:60px;"">+</div>",,html-keyboard-response,356,1451165,0.0-19.0-0.3,81944,List2A,black,man,,,,null,,,,
null,"<img src=""stim_listA/argue8.gif""</stim_listA>",,html-keyboard-response,357,1453168,0.0-19.0-1.3,81944,List2A,black,man,,,,null,,,,
null,are arguing with each other,,html-keyboard-response,358,1455170,0.0-19.0-2.3,81944,List2A,black,man,,,,null,,,,
13198,,,survey-text,359,1468369,0.0-19.0-3.3,81944,List2A,black,man,,,,,"{""Q0"":""Kate and Ruth are fighting with each other""}","<img src=""stim_listA/argue8.gif""</stim_listA>",are arguing with each other,
null,"<div style=""font-size:60px;"">+</div>",,html-keyboard-response,360,1468872,0.0-19.0-0.4,81944,List2A,black,man,,,,null,,,,
null,"<img src=""stim_listA/dance4.gif""</stim_listA>",,html-keyboard-response,361,1470874,0.0-19.0-1.4,81944,List2A,black,man,,,,null,,,,
null,are dancing with each other,,html-keyboard-response,362,1472875,0.0-19.0-2.4,81944,List2A,black,man,,,,null,,,,
12092,,,survey-text,363,1484969,0.0-19.0-3.4,81944,List2A,black,man,,,,,"{""Q0"":""Beth and Mike are dancing with each other""}","<img src=""stim_listA/dance4.gif""</stim_listA>",are dancing with each other,
null,"<div style=""font-size:60px;"">+</div>",,html-keyboard-response,364,1485470,0.0-19.0-0.5,81944,List2A,black,man,,,,null,,,,
null,"<img src=""stim_listA/talk5.gif""</stim_listA>",,html-keyboard-response,365,1487472,0.0-19.0-1.5,81944,List2A,black,man,,,,null,,,,
null,is talking to,,html-keyboard-response,366,1489474,0.0-19.0-2.5,81944,List2A,black,man,,,,null,,,,
6741,,,survey-text,367,1496216,0.0-19.0-3.5,81944,List2A,black,man,,,,,"{""Q0"":""Mike is talking to Luke""}","<img src=""stim_listA/talk5.gif""</stim_listA>",is talking to,
null,"<div style=""font-size:60px;"">+</div>",,html-keyboard-response,368,1496717,0.0-19.0-0.6,81944,List2A,black,man,,,,null,,,,
null,"<img src=""stim_listA/shout1.gif""</stim_listA>",,html-keyboard-response,369,1498718,0.0-19.0-1.6,81944,List2A,black,man,,,,null,,,,
null,is shouting at,,html-keyboard-response,370,1500720,0.0-19.0-2.6,81944,List2A,black,man,,,,null,,,,
9751,,,survey-text,371,1510472,0.0-19.0-3.6,81944,List2A,black,man,,,,,"{""Q0"":""Luke is shouting at Ruth""}","<img src=""stim_listA/shout1.gif""</stim_listA>",is shouting at,
null,"<div style=""font-size:60px;"">+</div>",,html-keyboard-response,372,1510973,0.0-19.0-0.7,81944,List2A,black,man,,,,null,,,,
null,"<img src=""stim_listA/kiss4.gif""</stim_listA>",,html-keyboard-response,373,1512976,0.0-19.0-1.7,81944,List2A,black,man,,,,null,,,,
null,are kissing each other,,html-keyboard-response,374,1514978,0.0-19.0-2.7,81944,List2A,black,man,,,,null,,,,
21693,,,survey-text,375,1536672,0.0-19.0-3.7,81944,List2A,black,man,,,,,"{""Q0"":""Mike and Kate are kissing each other""}","<img src=""stim_listA/kiss4.gif""</stim_listA>",are kissing each other,
null,"<div style=""font-size:60px;"">+</div>",,html-keyboard-response,376,1537174,0.0-19.0-0.8,81944,List2A,black,man,,,,null,,,,
null,"<img src=""stim_listA/shout5.gif""</stim_listA>",,html-keyboard-response,377,1539176,0.0-19.0-1.8,81944,List2A,black,man,,,,null,,,,
null,is shouting at,,html-keyboard-response,378,1541178,0.0-19.0-2.8,81944,List2A,black,man,,,,null,,,,
7697,,,survey-text,379,1548876,0.0-19.0-3.8,81944,List2A,black,man,,,,,"{""Q0"":""Fred is shouting at Luke""}","<img src=""stim_listA/shout5.gif""</stim_listA>",is shouting at,
null,"<div style=""font-size:60px;"">+</div>",,html-keyboard-response,380,1549377,0.0-19.0-0.9,81944,List2A,black,man,,,,null,,,,
null,"<img src=""stim_listA/talk7.gif""</stim_listA>",,html-keyboard-response,381,1551379,0.0-19.0-1.9,81944,List2A,black,man,,,,null,,,,
null,is talking to,,html-keyboard-response,382,1553381,0.0-19.0-2.9,81944,List2A,black,man,,,,null,,,,
14805,,,survey-text,383,1568187,0.0-19.0-3.9,81944,List2A,black,man,,,,,"{""Q0"":""Kate is talking to Ruth""}","<img src=""stim_listA/talk7.gif""</stim_listA>",is talking to,
null,"<div style=""font-size:60px;"">+</div>",,html-keyboard-response,384,1568690,0.0-19.0-0.10,81944,List2A,black,man,,,,null,,,,
null,"<img src=""stim_listA/meet5.gif""</stim_listA>",,html-keyboard-response,385,1570692,0.0-19.0-1.10,81944,List2A,black,man,,,,null,,,,
null,is meeting,,html-keyboard-response,386,1572692,0.0-19.0-2.10,81944,List2A,black,man,,,,null,,,,
4695,,,survey-text,387,1577388,0.0-19.0-3.10,81944,List2A,black,man,,,,,"{""Q0"":""Mike is meeting Dave""}","<img src=""stim_listA/meet5.gif""</stim_listA>",is meeting,
null,"<div style=""font-size:60px;"">+</div>",,html-keyboard-response,388,1577889,0.0-19.0-0.11,81944,List2A,black,man,,,,null,,,,
null,"<img src=""stim_listA/touch3.gif""</stim_listA>",,html-keyboard-response,389,1579891,0.0-19.0-1.11,81944,List2A,black,man,,,,null,,,,
null,is touching,,html-keyboard-response,390,1581894,0.0-19.0-2.11,81944,List2A,black,man,,,,null,,,,
6773,,,survey-text,391,1588667,0.0-19.0-3.11,81944,List2A,black,man,,,,,"{""Q0"":""Mike is touching Kate""}","<img src=""stim_listA/touch3.gif""</stim_listA>",is touching,
null,"<div style=""font-size:60px;"">+</div>",,html-keyboard-response,392,1589170,0.0-19.0-0.12,81944,List2A,black,man,,,,null,,,,
null,"<img src=""stim_listA/argue3.gif""</stim_listA>",,html-keyboard-response,393,1591173,0.0-19.0-1.12,81944,List2A,black,man,,,,null,,,,
null,is arguing with,,html-keyboard-response,394,1593174,0.0-19.0-2.12,81944,List2A,black,man,,,,null,,,,
6587,,,survey-text,395,1599762,0.0-19.0-3.12,81944,List2A,black,man,,,,,"{""Q0"":""Mike is arguing with Beth""}","<img src=""stim_listA/argue3.gif""</stim_listA>",is arguing with,
null,"<div style=""font-size:60px;"">+</div>",,html-keyboard-response,396,1600263,0.0-19.0-0.13,81944,List2A,black,man,,,,null,,,,
null,"<img src=""stim_listA/dance1.gif""</stim_listA>",,html-keyboard-response,397,1602264,0.0-19.0-1.13,81944,List2A,black,man,,,,null,,,,
null,is dancing with,,html-keyboard-response,398,1604265,0.0-19.0-2.13,81944,List2A,black,man,,,,null,,,,
6270,,,survey-text,399,1610536,0.0-19.0-3.13,81944,List2A,black,man,,,,,"{""Q0"":""Luke is dancing with Jane""}","<img src=""stim_listA/dance1.gif""</stim_listA>",is dancing with,
null,"<div style=""font-size:60px;"">+</div>",,html-keyboard-response,400,1611037,0.0-19.0-0.14,81944,List2A,black,man,,,,null,,,,
null,"<img src=""stim_listA/meet1.gif""</stim_listA>",,html-keyboard-response,401,1613038,0.0-19.0-1.14,81944,List2A,black,man,,,,null,,,,
null,is meeting,,html-keyboard-response,402,1615041,0.0-19.0-2.14,81944,List2A,black,man,,,,null,,,,
7792,,,survey-text,403,1622833,0.0-19.0-3.14,81944,List2A,black,man,,,,,"{""Q0"":""Dave is meeting Jane""}","<img src=""stim_listA/meet1.gif""</stim_listA>",is meeting,
null,"<div style=""font-size:60px;"">+</div>",,html-keyboard-response,404,1623336,0.0-19.0-0.15,81944,List2A,black,man,,,,null,,,,
null,"<img src=""stim_listA/shout4.gif""</stim_listA>",,html-keyboard-response,405,1625338,0.0-19.0-1.15,81944,List2A,black,man,,,,null,,,,
null,are shouting at each other,,html-keyboard-response,406,1627339,0.0-19.0-2.15,81944,List2A,black,man,,,,null,,,,
7824,,,survey-text,407,1635164,0.0-19.0-3.15,81944,List2A,black,man,,,,,"{""Q0"":""Mike and Kate are shouting at each other""}","<img src=""stim_listA/shout4.gif""</stim_listA>",are shouting at each other,
null,"<div style=""font-size:60px;"">+</div>",,html-keyboard-response,408,1635666,0.0-19.0-0.16,81944,List2A,black,man,,,,null,,,,
null,"<img src=""stim_listA/kiss8.gif""</stim_listA>",,html-keyboard-response,409,1637671,0.0-19.0-1.16,81944,List2A,black,man,,,,null,,,,
null,are kissing each other,,html-keyboard-response,410,1639672,0.0-19.0-2.16,81944,List2A,black,man,,,,null,,,,
8735,,,survey-text,411,1648408,0.0-19.0-3.16,81944,List2A,black,man,,,,,"{""Q0"":""Kate and Jane are kissing each other""}","<img src=""stim_listA/kiss8.gif""</stim_listA>",are kissing each other,
null,"<div style=""font-size:60px;"">+</div>",,html-keyboard-response,412,1648911,0.0-19.0-0.17,81944,List2A,black,man,,,,null,,,,
null,"<img src=""stim_listA/fight5.gif""</stim_listA>",,html-keyboard-response,413,1650914,0.0-19.0-1.17,81944,List2A,black,man,,,,null,,,,
null,is fighting,,html-keyboard-response,414,1652915,0.0-19.0-2.17,81944,List2A,black,man,,,,null,,,,
6873,,,survey-text,415,1659790,0.0-19.0-3.17,81944,List2A,black,man,,,,,"{""Q0"":""Mike is fighting Dave""}","<img src=""stim_listA/fight5.gif""</stim_listA>",is fighting,
null,"<div style=""font-size:60px;"">+</div>",,html-keyboard-response,416,1660291,0.0-19.0-0.18,81944,List2A,black,man,,,,null,,,,
null,"<img src=""stim_listA/meet8.gif""</stim_listA>",,html-keyboard-response,417,1662294,0.0-19.0-1.18,81944,List2A,black,man,,,,null,,,,
null,are meeting each other,,html-keyboard-response,418,1664296,0.0-19.0-2.18,81944,List2A,black,man,,,,null,,,,
8297,,,survey-text,419,1672594,0.0-19.0-3.18,81944,List2A,black,man,,,,,"{""Q0"":""Beth and Ruth are meeting each other""}","<img src=""stim_listA/meet8.gif""</stim_listA>",are meeting each other,
null,"<div style=""font-size:60px;"">+</div>",,html-keyboard-response,420,1673095,0.0-19.0-0.19,81944,List2A,black,man,,,,null,,,,
null,"<img src=""stim_listA/meet2.gif""</stim_listA>",,html-keyboard-response,421,1675097,0.0-19.0-1.19,81944,List2A,black,man,,,,null,,,,
null,are meeting each other,,html-keyboard-response,422,1677098,0.0-19.0-2.19,81944,List2A,black,man,,,,null,,,,
7164,,,survey-text,423,1684264,0.0-19.0-3.19,81944,List2A,black,man,,,,,"{""Q0"":""Ruth and Luke are meeting each other""}","<img src=""stim_listA/meet2.gif""</stim_listA>",are meeting each other,
2901,<p>Thank you for completing that task.</p><p>The final part of this session is a short questionnaire.</p><p>Press Continue.</p>,0,html-button-response,424,1687166,0.0-20.0,81944,List2A,black,man,,,,,,,,
49164,,,survey-text,425,1737332,0.0-21.0,81944,List2A,black,man,,,,,"{""Q0"":""19"",""Q1"":""English"",""Q2"":""English"",""Q3"":""United Kingdom"",""Q4"":""British Caribbean"",""Q5"":""Male""}",,,demographics
70284,,,survey-likert,426,1807622,0.0-22.0,81944,List2A,black,man,,,,,"{""Q0"":5,""Q1"":4,""Q2"":4,""Q3"":6,""Q4"":6,""Q5"":5,""Q6"":5,""Q7"":4,""Q8"":4,""Q9"":3,""Q10"":4,""Q11"":4,""Q12"":4,""Q13"":4}",,,likert_race
39352,,,survey-likert,427,1846978,0.0-23.0,81944,List2A,black,man,,,,,"{""Q0"":4,""Q1"":3,""Q2"":"""",""Q3"":5,""Q4"":3,""Q5"":5,""Q6"":3,""Q7"":3,""Q8"":0,""Q9"":0,""Q10"":4,""Q11"":4,""Q12"":4,""Q13"":4}",,,likert_gender
7498,,,survey-text,428,1854477,0.0-24.0,81944,List2A,black,man,,,,,"{""Q0"":""ccc""}",,,worker_id
37978,,,external-html,429,1892500,0.0-25.0,81944,List2A,black,man,debrief.html,,,,,,,
